»»»»»»»»»»»»»»»»»»»»»»»»»»»»»»»»»»»» Hysteresis ««««««««««««««««««««««««««««««««««««
»»»  Executed Version:	5.48.1
»»»  Vision Version:	5.48.4 (R)
»»»  Vision Compiled:	9/18/24
»»»  Driver Version:	5.47.0
»»»  Windows Version:	Windows 8 or 8.1
»»»  Processor Information:	x86 (AMD or Intel) - 32 Processors
»»»  Tester Name:	PMF21124-494 (100V)
»»»  Tester S/N:	PMF21124-494
»»»  Internal Amp Type:	100V RevK 270k
»»»  Internal Amp S/N:	iAB2-596/K     
»»»  Execution Count:	1
»»»»»»»»»»»»»»»»»»»»»»»»»»»»»»»»»»»»»»»»»»««««««««««««««««««««««««««««««««««««««««««

Stored:	6/27/2025 - 12:14:55
Configured:	06/27/25 11:23:28 AM
Executed:	06/27/25 12:14:31 PM

»»»»»»»»»»»»»»»»»»»»»»»»»»»»»»»»»»» Sample Info ««««««««««««««««««««««««««««««««««««
Sample Name:	
Lot Name:	
Wafer Name:	
Die Row/Column:	0/0
Capacitor Number:	0
Sample Area (cm2):	1.00e-04
Sample Thickness (microns):	1.50e-01

Amplifier:	Internal

»»»»»»»»»»»»»»»»»»»»»»»»»»»»»»»»»»» Tester Info «««««««««««««««««««««««««««««««««««
Tester Name:	PMF21124-494 (100V)
Tester Serial Number:	PMF21124-494
Return Signal Amp. Level:	1.79 [Index: 2]

»»»»»»»»»»»»»»»»»»»»»»»»»»»»»»»» Hysteresis Info ««««««««««««««««««««««««««««««««««
Task Name:	Hyst-1276
Volts:	10.00
Field:	666.67 (kV/cm)
DCBias:	0.00
DCField:	0.00 (kV/cm)
Hysteresis Period (ms):	1.00e+00
Preset:	Enabled
Preset Delay (ms):	1.00e+03
Profile:	Standard Monopolar

»»»»»»»»»»»»»»»»»»»»»»»»»»»»»»»»»»»»»» Data «««««««««««««««««««««««««««««««««««««««
Points:	2001

Valid Data

Point	Time (ms)	Drive Voltage	Measured Polarization (uC/cm2)	Capacitance (uF)	Normalized Capacitance (uF/cm2)	Dielectric Constant	Instantaneous Current (mA)
   1	0.0000e+00	-0.0041	-18.259599	0.000513	5.129977	0.869042	0.010263
   2	5.0000e-04	0.0072	-18.208284	0.000513	5.129977	0.869042	0.010263
   3	1.0000e-03	0.0166	-18.134733	0.000735	7.352967	1.245626	0.014710
   4	1.5000e-03	0.0253	-18.105654	0.000291	2.906987	0.492457	0.005816
   5	2.0000e-03	0.0358	-18.055194	0.000504	5.044477	0.854558	0.010092
   6	2.5000e-03	0.0468	-18.003452	0.000517	5.172727	0.876284	0.010349
   7	3.0000e-03	0.0562	-17.940591	0.000628	6.284222	1.064576	0.012572
   8	3.5000e-03	0.0665	-17.908947	0.000316	3.163486	0.535909	0.006329
   9	4.0000e-03	0.0741	-17.843092	0.000658	6.583470	1.115270	0.013171
  10	4.5000e-03	0.0856	-17.825560	0.000175	1.752742	0.296923	0.003507
  11	5.0000e-03	0.0961	-17.783652	0.000419	4.189481	0.709717	0.008381
  12	5.5000e-03	0.1054	-17.740462	0.000432	4.317731	0.731443	0.008638
  13	6.0000e-03	0.1148	-17.688292	0.000522	5.215477	0.883526	0.010434
  14	6.5000e-03	0.1267	-17.626714	0.000616	6.155972	1.042850	0.012316
  15	7.0000e-03	0.1353	-17.581813	0.000449	4.488730	0.760411	0.008980
  16	7.5000e-03	0.1457	-17.564281	0.000175	1.752742	0.296923	0.003507
  17	8.0000e-03	0.1547	-17.504413	0.000598	5.984973	1.013882	0.011974
  18	8.5000e-03	0.1644	-17.465071	0.000393	3.932982	0.666265	0.007868
  19	9.0000e-03	0.1765	-17.411191	0.000539	5.386476	0.912494	0.010776
  20	9.5000e-03	0.1858	-17.378691	0.000325	3.248985	0.550393	0.006500
  21	1.0000e-02	0.1963	-17.331225	0.000475	4.745229	0.803863	0.009493
  22	1.0500e-02	0.2054	-17.261522	0.000697	6.968219	1.180448	0.013941
  23	1.1000e-02	0.2163	-17.224318	0.000372	3.719233	0.630055	0.007441
  24	1.1500e-02	0.2264	-17.175569	0.000487	4.873478	0.825590	0.009750
  25	1.2000e-02	0.2387	-17.141359	0.000342	3.419985	0.579361	0.006842
  26	1.2500e-02	0.2445	-17.099452	0.000419	4.189481	0.709717	0.008381
  27	1.3000e-02	0.2572	-17.040867	0.000586	5.856724	0.992156	0.011717
  28	1.3500e-02	0.2667	-17.004947	0.000359	3.590984	0.608329	0.007184
  29	1.4000e-02	0.2744	-16.965178	0.000398	3.975732	0.673507	0.007954
  30	1.4500e-02	0.2850	-16.906593	0.000586	5.856724	0.992156	0.011717
  31	1.5000e-02	0.2984	-16.864258	0.000423	4.232231	0.716959	0.008467
  32	1.5500e-02	0.3043	-16.830048	0.000342	3.419985	0.579361	0.006842
  33	1.6000e-02	0.3146	-16.752220	0.000778	7.780465	1.318046	0.015566
  34	1.6500e-02	0.3243	-16.723142	0.000291	2.906987	0.492457	0.005816
  35	1.7000e-02	0.3386	-16.691497	0.000316	3.163486	0.535909	0.006329
  36	1.7500e-02	0.3461	-16.643176	0.000483	4.830728	0.818348	0.009664
  37	1.8000e-02	0.3555	-16.592716	0.000504	5.044477	0.854558	0.010092
  38	1.8500e-02	0.3679	-16.539263	0.000534	5.343726	0.905252	0.010691
  39	1.9000e-02	0.3777	-16.475119	0.000641	6.412471	1.086302	0.012829
  40	1.9500e-02	0.3848	-16.431501	0.000436	4.360480	0.738685	0.008724
  41	2.0000e-02	0.3983	-16.392160	0.000393	3.932982	0.666265	0.007868
  42	2.0500e-02	0.4091	-16.344266	0.000479	4.787978	0.811106	0.009579
  43	2.1000e-02	0.4166	-16.336568	0.000077	0.769497	0.130356	0.001539
  44	2.1500e-02	0.4263	-16.282688	0.000539	5.386476	0.912494	0.010776
  45	2.2000e-02	0.4382	-16.227096	0.000556	5.557475	0.941462	0.011118
  46	2.2500e-02	0.4457	-16.187755	0.000393	3.932982	0.666265	0.007868
  47	2.3000e-02	0.4573	-16.127032	0.000607	6.070473	1.028366	0.012145
  48	2.3500e-02	0.4674	-16.091539	0.000355	3.548234	0.601087	0.007099
  49	2.4000e-02	0.4746	-16.054336	0.000372	3.719233	0.630055	0.007441
  50	2.4500e-02	0.4839	-15.996606	0.000577	5.771224	0.977672	0.011546
  51	2.5000e-02	0.4965	-15.947429	0.000492	4.916228	0.832832	0.009835
  52	2.5500e-02	0.5060	-15.904239	0.000432	4.317731	0.731443	0.008638
  53	2.6000e-02	0.5138	-15.858483	0.000457	4.574229	0.774895	0.009151
  54	2.6500e-02	0.5264	-15.823418	0.000351	3.505484	0.593845	0.007013
  55	2.7000e-02	0.5344	-15.768682	0.000547	5.471975	0.926978	0.010947
  56	2.7500e-02	0.5482	-15.720788	0.000479	4.787978	0.811106	0.009579
  57	2.8000e-02	0.5554	-15.664341	0.000564	5.642975	0.955946	0.011289
  58	2.8500e-02	0.5661	-15.631414	0.000329	3.291735	0.557635	0.006585
  59	2.9000e-02	0.5744	-15.580955	0.000504	5.044477	0.854558	0.010092
  60	2.9500e-02	0.5859	-15.521515	0.000594	5.942223	1.006640	0.011888
  61	3.0000e-02	0.5948	-15.472765	0.000487	4.873478	0.825590	0.009750
  62	3.0500e-02	0.6073	-15.444114	0.000286	2.864237	0.485215	0.005730
  63	3.1000e-02	0.6158	-15.391517	0.000526	5.258226	0.890768	0.010520
  64	3.1500e-02	0.6312	-15.349609	0.000419	4.189481	0.709717	0.008381
  65	3.2000e-02	0.6376	-15.318820	0.000308	3.077986	0.521425	0.006158
  66	3.2500e-02	0.6470	-15.257670	0.000611	6.113222	1.035608	0.012230
  67	3.3000e-02	0.6566	-15.227736	0.000299	2.992487	0.506941	0.005987
  68	3.3500e-02	0.6653	-15.164447	0.000633	6.326971	1.071818	0.012658
  69	3.4000e-02	0.6773	-15.129382	0.000351	3.505484	0.593845	0.007013
  70	3.4500e-02	0.6845	-15.084482	0.000449	4.488730	0.760411	0.008980
  71	3.5000e-02	0.6941	-15.036588	0.000479	4.787978	0.811106	0.009579
  72	3.5500e-02	0.7079	-14.966457	0.000701	7.010968	1.187690	0.014026
  73	3.6000e-02	0.7173	-14.933530	0.000329	3.291735	0.557635	0.006585
  74	3.6500e-02	0.7262	-14.906162	0.000274	2.735988	0.463489	0.005474
  75	3.7000e-02	0.7370	-14.855702	0.000504	5.044477	0.854558	0.010092
  76	3.7500e-02	0.7503	-14.785571	0.000701	7.010968	1.187690	0.014026
  77	3.8000e-02	0.7556	-14.735967	0.000496	4.958978	0.840074	0.009921
  78	3.8500e-02	0.7663	-14.698764	0.000372	3.719233	0.630055	0.007441
  79	3.9000e-02	0.7755	-14.667547	0.000312	3.120736	0.528667	0.006243
  80	3.9500e-02	0.7862	-14.616660	0.000509	5.087227	0.861800	0.010177
  81	4.0000e-02	0.7977	-14.560213	0.000564	5.642975	0.955946	0.011289
  82	4.0500e-02	0.8057	-14.542680	0.000175	1.752742	0.296923	0.003507
  83	4.1000e-02	0.8165	-14.485379	0.000573	5.728474	0.970430	0.011460
  84	4.1500e-02	0.8250	-14.417814	0.000675	6.754470	1.144238	0.013513
  85	4.2000e-02	0.8370	-14.409261	0.000085	0.854996	0.144840	0.001711
  86	4.2500e-02	0.8453	-14.336137	0.000731	7.310217	1.238384	0.014625
  87	4.3000e-02	0.8556	-14.291664	0.000445	4.445980	0.753169	0.008895
  88	4.3500e-02	0.8663	-14.254461	0.000372	3.719233	0.630055	0.007441
  89	4.4000e-02	0.8746	-14.189889	0.000646	6.455221	1.093544	0.012914
  90	4.4500e-02	0.8871	-14.174495	0.000154	1.538993	0.260712	0.003079
  91	4.5000e-02	0.8966	-14.119759	0.000547	5.471975	0.926978	0.010947
  92	4.5500e-02	0.9036	-14.061602	0.000581	5.813974	0.984914	0.011631
  93	4.6000e-02	0.9160	-14.034234	0.000274	2.735988	0.463489	0.005474
  94	4.6500e-02	0.9262	-13.971801	0.000624	6.241472	1.057334	0.012487
  95	4.7000e-02	0.9363	-13.913644	0.000581	5.813974	0.984914	0.011631
  96	4.7500e-02	0.9464	-13.893118	0.000205	2.051991	0.347617	0.004105
  97	4.8000e-02	0.9571	-13.835816	0.000573	5.728474	0.970430	0.011460
  98	4.8500e-02	0.9674	-13.778086	0.000577	5.771224	0.977672	0.011546
  99	4.9000e-02	0.9774	-13.738745	0.000393	3.932982	0.666265	0.007868
 100	4.9500e-02	0.9855	-13.668614	0.000701	7.010968	1.187690	0.014026
 101	5.0000e-02	0.9975	-13.653220	0.000154	1.538993	0.260712	0.003079
 102	5.0500e-02	1.0059	-13.604898	0.000483	4.830728	0.818348	0.009664
 103	5.1000e-02	1.0152	-13.564701	0.000402	4.018482	0.680749	0.008039
 104	5.1500e-02	1.0259	-13.518945	0.000457	4.574229	0.774895	0.009151
 105	5.2000e-02	1.0363	-13.483453	0.000355	3.548234	0.601087	0.007099
 106	5.2500e-02	1.0463	-13.426151	0.000573	5.728474	0.970430	0.011460
 107	5.3000e-02	1.0577	-13.397072	0.000291	2.906987	0.492457	0.005816
 108	5.3500e-02	1.0649	-13.350461	0.000466	4.659729	0.789379	0.009322
 109	5.4000e-02	1.0736	-13.300429	0.000500	5.001727	0.847316	0.010006
 110	5.4500e-02	1.0850	-13.246976	0.000534	5.343726	0.905252	0.010691
 111	5.5000e-02	1.0983	-13.189246	0.000577	5.771224	0.977672	0.011546
 112	5.5500e-02	1.1060	-13.151615	0.000376	3.761983	0.637297	0.007526
 113	5.6000e-02	1.1169	-13.113129	0.000385	3.847483	0.651781	0.007697
 114	5.6500e-02	1.1292	-13.075498	0.000376	3.761983	0.637297	0.007526
 115	5.7000e-02	1.1364	-13.003657	0.000718	7.181968	1.216658	0.014368
 116	5.7500e-02	1.1452	-12.979282	0.000244	2.436739	0.412795	0.004875
 117	5.8000e-02	1.1576	-12.931388	0.000479	4.787978	0.811106	0.009579
 118	5.8500e-02	1.1642	-12.867672	0.000637	6.369721	1.079060	0.012743
 119	5.9000e-02	1.1760	-12.856982	0.000107	1.068745	0.181050	0.002138
 120	5.9500e-02	1.1871	-12.798397	0.000586	5.856724	0.992156	0.011717
 121	6.0000e-02	1.1961	-12.730404	0.000680	6.797219	1.151480	0.013598
 122	6.0500e-02	1.2080	-12.700471	0.000299	2.992487	0.506941	0.005987
 123	6.1000e-02	1.2155	-12.671820	0.000286	2.864237	0.485215	0.005730
 124	6.1500e-02	1.2256	-12.615373	0.000564	5.642975	0.955946	0.011289
 125	6.2000e-02	1.2363	-12.568762	0.000466	4.659729	0.789379	0.009322
 126	6.2500e-02	1.2447	-12.511888	0.000569	5.685724	0.963188	0.011375
 127	6.3000e-02	1.2581	-12.453731	0.000581	5.813974	0.984914	0.011631
 128	6.3500e-02	1.2674	-12.441757	0.000120	1.196995	0.202776	0.002395
 129	6.4000e-02	1.2733	-12.394719	0.000470	4.702479	0.796621	0.009408
 130	6.4500e-02	1.2848	-12.344686	0.000500	5.001727	0.847316	0.010006
 131	6.5000e-02	1.2961	-12.311759	0.000329	3.291735	0.557635	0.006585
 132	6.5500e-02	1.3042	-12.245050	0.000667	6.668970	1.129754	0.013342
 133	6.6000e-02	1.3153	-12.227089	0.000180	1.795492	0.304165	0.003592
 134	6.6500e-02	1.3261	-12.161235	0.000658	6.583470	1.115270	0.013171
 135	6.7000e-02	1.3335	-12.115052	0.000462	4.616979	0.782137	0.009237
 136	6.7500e-02	1.3461	-12.076138	0.000389	3.890232	0.659023	0.007783
 137	6.8000e-02	1.3553	-12.010711	0.000654	6.540721	1.108028	0.013085
 138	6.8500e-02	1.3644	-11.981633	0.000291	2.906987	0.492457	0.005816
 139	6.9000e-02	1.3773	-11.939725	0.000419	4.189481	0.709717	0.008381
 140	6.9500e-02	1.3849	-11.896535	0.000432	4.317731	0.731443	0.008638
 141	7.0000e-02	1.3953	-11.845648	0.000509	5.087227	0.861800	0.010177
 142	7.0500e-02	1.4029	-11.808444	0.000372	3.719233	0.630055	0.007441
 143	7.1000e-02	1.4172	-11.764399	0.000440	4.403230	0.745927	0.008809
 144	7.1500e-02	1.4249	-11.699400	0.000650	6.497971	1.100786	0.013000
 145	7.2000e-02	1.4343	-11.678446	0.000209	2.094741	0.354859	0.004191
 146	7.2500e-02	1.4452	-11.632690	0.000457	4.574229	0.774895	0.009151
 147	7.3000e-02	1.4565	-11.577954	0.000547	5.471975	0.926978	0.010947
 148	7.3500e-02	1.4653	-11.520225	0.000577	5.771224	0.977672	0.011546
 149	7.4000e-02	1.4773	-11.488581	0.000316	3.163486	0.535909	0.006329
 150	7.4500e-02	1.4854	-11.453515	0.000351	3.505484	0.593845	0.007013
 151	7.5000e-02	1.4954	-11.395358	0.000581	5.813974	0.984914	0.011631
 152	7.5500e-02	1.5051	-11.362431	0.000329	3.291735	0.557635	0.006585
 153	7.6000e-02	1.5154	-11.310689	0.000517	5.172727	0.876284	0.010349
 154	7.6500e-02	1.5268	-11.249110	0.000616	6.155972	1.042850	0.012316
 155	7.7000e-02	1.5360	-11.215756	0.000333	3.334485	0.564877	0.006671
 156	7.7500e-02	1.5432	-11.170855	0.000449	4.488730	0.760411	0.008980
 157	7.8000e-02	1.5573	-11.124244	0.000466	4.659729	0.789379	0.009322
 158	7.8500e-02	1.5651	-11.076350	0.000479	4.787978	0.811106	0.009579
 159	7.9000e-02	1.5762	-11.055396	0.000209	2.094741	0.354859	0.004191
 160	7.9500e-02	1.5836	-10.997667	0.000577	5.771224	0.977672	0.011546
 161	8.0000e-02	1.5955	-10.962602	0.000351	3.505484	0.593845	0.007013
 162	8.0500e-02	1.6046	-10.922405	0.000402	4.018482	0.680749	0.008039
 163	8.1000e-02	1.6158	-10.867669	0.000547	5.471975	0.926978	0.010947
 164	8.1500e-02	1.6269	-10.825761	0.000419	4.189481	0.709717	0.008381
 165	8.2000e-02	1.6364	-10.796683	0.000291	2.906987	0.492457	0.005816
 166	8.2500e-02	1.6453	-10.724842	0.000718	7.181968	1.216658	0.014368
 167	8.3000e-02	1.6574	-10.694053	0.000308	3.077986	0.521425	0.006158
 168	8.3500e-02	1.6669	-10.629909	0.000641	6.412471	1.086302	0.012829
 169	8.4000e-02	1.6763	-10.601258	0.000286	2.864237	0.485215	0.005730
 170	8.4500e-02	1.6852	-10.554219	0.000470	4.702479	0.796621	0.009408
 171	8.5000e-02	1.6933	-10.508891	0.000453	4.531480	0.767653	0.009066
 172	8.5500e-02	1.7047	-10.446030	0.000628	6.284222	1.064576	0.012572
 173	8.6000e-02	1.7168	-10.415241	0.000308	3.077986	0.521425	0.006158
 174	8.6500e-02	1.7249	-10.371196	0.000440	4.403230	0.745927	0.008809
 175	8.7000e-02	1.7339	-10.334420	0.000368	3.676483	0.622813	0.007355
 176	8.7500e-02	1.7476	-10.288236	0.000462	4.616979	0.782137	0.009237
 177	8.8000e-02	1.7565	-10.263007	0.000252	2.522239	0.427279	0.005046
 178	8.8500e-02	1.7678	-10.193731	0.000693	6.925469	1.173206	0.013855
 179	8.9000e-02	1.7767	-10.153535	0.000402	4.018482	0.680749	0.008039
 180	8.9500e-02	1.7868	-10.127877	0.000256	2.564988	0.434521	0.005132
 181	9.0000e-02	1.7944	-10.079983	0.000479	4.787978	0.811106	0.009579
 182	9.0500e-02	1.8054	-10.018405	0.000616	6.155972	1.042850	0.012316
 183	9.1000e-02	1.8172	-9.987616	0.000308	3.077986	0.521425	0.006158
 184	9.1500e-02	1.8269	-9.925610	0.000620	6.198722	1.050092	0.012401
 185	9.2000e-02	1.8364	-9.883275	0.000423	4.232231	0.716959	0.008467
 186	9.2500e-02	1.8464	-9.844361	0.000389	3.890232	0.659023	0.007783
 187	9.3000e-02	1.8559	-9.811862	0.000325	3.248985	0.550393	0.006500
 188	9.3500e-02	1.8689	-9.765251	0.000466	4.659729	0.789379	0.009322
 189	9.4000e-02	1.8771	-9.702390	0.000628	6.284222	1.064576	0.012572
 190	9.4500e-02	1.8860	-9.669035	0.000333	3.334485	0.564877	0.006671
 191	9.5000e-02	1.8951	-9.643805	0.000252	2.522239	0.427279	0.005046
 192	9.5500e-02	1.9064	-9.569826	0.000740	7.395717	1.252868	0.014796
 193	9.6000e-02	1.9144	-9.528774	0.000410	4.103982	0.695233	0.008210
 194	9.6500e-02	1.9241	-9.501406	0.000274	2.735988	0.463489	0.005474
 195	9.7000e-02	1.9333	-9.450946	0.000504	5.044477	0.854558	0.010092
 196	9.7500e-02	1.9472	-9.390651	0.000603	6.027723	1.021124	0.012059
 197	9.8000e-02	1.9586	-9.353448	0.000372	3.719233	0.630055	0.007441
 198	9.8500e-02	1.9641	-9.325224	0.000282	2.821487	0.477973	0.005645
 199	9.9000e-02	1.9766	-9.268350	0.000569	5.685724	0.963188	0.011375
 200	9.9500e-02	1.9873	-9.232430	0.000359	3.590984	0.608329	0.007184
 201	1.0000e-01	1.9981	-9.185819	0.000466	4.659729	0.789379	0.009322
 202	1.0050e-01	2.0058	-9.148188	0.000376	3.761983	0.637297	0.007526
 203	1.0100e-01	2.0154	-9.121247	0.000269	2.693238	0.456247	0.005388
 204	1.0150e-01	2.0280	-9.068649	0.000526	5.258226	0.890768	0.010520
 205	1.0200e-01	2.0377	-9.015624	0.000530	5.300976	0.898010	0.010605
 206	1.0250e-01	2.0444	-8.959177	0.000564	5.642975	0.955946	0.011289
 207	1.0300e-01	2.0566	-8.927960	0.000312	3.120736	0.528667	0.006243
 208	1.0350e-01	2.0667	-8.885198	0.000427	4.274981	0.724201	0.008553
 209	1.0400e-01	2.0754	-8.849277	0.000359	3.590984	0.608329	0.007184
 210	1.0450e-01	2.0885	-8.797962	0.000513	5.129977	0.869042	0.010263
 211	1.0500e-01	2.0947	-8.761614	0.000363	3.633734	0.615571	0.007270
 212	1.0550e-01	2.1057	-8.694477	0.000671	6.711720	1.136996	0.013427
 213	1.0600e-01	2.1158	-8.662405	0.000321	3.206236	0.543151	0.006414
 214	1.0650e-01	2.1277	-8.636748	0.000256	2.564988	0.434521	0.005132
 215	1.0700e-01	2.1365	-8.571321	0.000654	6.540721	1.108028	0.013085
 216	1.0750e-01	2.1460	-8.545663	0.000256	2.564988	0.434521	0.005132
 217	1.0800e-01	2.1545	-8.503756	0.000419	4.189481	0.709717	0.008381
 218	1.0850e-01	2.1666	-8.446454	0.000573	5.728474	0.970430	0.011460
 219	1.0900e-01	2.1751	-8.389580	0.000569	5.685724	0.963188	0.011375
 220	1.0950e-01	2.1859	-8.371620	0.000180	1.795492	0.304165	0.003592
 221	1.1000e-01	2.1945	-8.320305	0.000513	5.129977	0.869042	0.010263
 222	1.1050e-01	2.2061	-8.272411	0.000479	4.787978	0.811106	0.009579
 223	1.1100e-01	2.2180	-8.246753	0.000256	2.564988	0.434521	0.005132
 224	1.1150e-01	2.2272	-8.186886	0.000598	5.984973	1.013882	0.011974
 225	1.1200e-01	2.2380	-8.149255	0.000376	3.761983	0.637297	0.007526
 226	1.1250e-01	2.2437	-8.117183	0.000321	3.206236	0.543151	0.006414
 227	1.1300e-01	2.2565	-8.060736	0.000564	5.642975	0.955946	0.011289
 228	1.1350e-01	2.2688	-8.015408	0.000453	4.531480	0.767653	0.009066
 229	1.1400e-01	2.2760	-7.980771	0.000346	3.462734	0.586603	0.006928
 230	1.1450e-01	2.2858	-7.932021	0.000487	4.873478	0.825590	0.009750
 231	1.1500e-01	2.2954	-7.892680	0.000393	3.932982	0.666265	0.007868
 232	1.1550e-01	2.3065	-7.860180	0.000325	3.248985	0.550393	0.006500
 233	1.1600e-01	2.3169	-7.797747	0.000624	6.241472	1.057334	0.012487
 234	1.1650e-01	2.3251	-7.755412	0.000423	4.232231	0.716959	0.008467
 235	1.1700e-01	2.3364	-7.701959	0.000534	5.343726	0.905252	0.010691
 236	1.1750e-01	2.3456	-7.679722	0.000222	2.222990	0.376585	0.004447
 237	1.1800e-01	2.3554	-7.629263	0.000504	5.044477	0.854558	0.010092
 238	1.1850e-01	2.3676	-7.596335	0.000329	3.291735	0.557635	0.006585
 239	1.1900e-01	2.3773	-7.582651	0.000137	1.367994	0.231744	0.002737
 240	1.1950e-01	2.3893	-7.510383	0.000722	7.224717	1.223900	0.014454
 241	1.2000e-01	2.3956	-7.450515	0.000598	5.984973	1.013882	0.011974
 242	1.2050e-01	2.4084	-7.408608	0.000419	4.189481	0.709717	0.008381
 243	1.2100e-01	2.4179	-7.374398	0.000342	3.419985	0.579361	0.006842
 244	1.2150e-01	2.4258	-7.325221	0.000492	4.916228	0.832832	0.009835
 245	1.2200e-01	2.4362	-7.288873	0.000363	3.633734	0.615571	0.007270
 246	1.2250e-01	2.4463	-7.265353	0.000235	2.351239	0.398311	0.004704
 247	1.2300e-01	2.4573	-7.217887	0.000475	4.745229	0.803863	0.009493
 248	1.2350e-01	2.4677	-7.165717	0.000522	5.215477	0.883526	0.010434
 249	1.2400e-01	2.4753	-7.125948	0.000398	3.975732	0.673507	0.007954
 250	1.2450e-01	2.4855	-7.066080	0.000598	5.984973	1.013882	0.011974
 251	1.2500e-01	2.4988	-7.030587	0.000355	3.548234	0.601087	0.007099
 252	1.2550e-01	2.5049	-7.007068	0.000235	2.351239	0.398311	0.004704
 253	1.2600e-01	2.5178	-6.942069	0.000650	6.497971	1.100786	0.013000
 254	1.2650e-01	2.5290	-6.910852	0.000312	3.120736	0.528667	0.006243
 255	1.2700e-01	2.5387	-6.868945	0.000419	4.189481	0.709717	0.008381
 256	1.2750e-01	2.5475	-6.830031	0.000389	3.890232	0.659023	0.007783
 257	1.2800e-01	2.5589	-6.777433	0.000526	5.258226	0.890768	0.010520
 258	1.2850e-01	2.5656	-6.769308	0.000081	0.812246	0.137598	0.001625
 259	1.2900e-01	2.5784	-6.704309	0.000650	6.497971	1.100786	0.013000
 260	1.2950e-01	2.5867	-6.656415	0.000479	4.787978	0.811106	0.009579
 261	1.3000e-01	2.5953	-6.623916	0.000325	3.248985	0.550393	0.006500
 262	1.3050e-01	2.6079	-6.585002	0.000389	3.890232	0.659023	0.007783
 263	1.3100e-01	2.6185	-6.543094	0.000419	4.189481	0.709717	0.008381
 264	1.3150e-01	2.6257	-6.487931	0.000551	5.514725	0.934220	0.011033
 265	1.3200e-01	2.6367	-6.463556	0.000244	2.436739	0.412795	0.004875
 266	1.3250e-01	2.6447	-6.393425	0.000701	7.010968	1.187690	0.014026
 267	1.3300e-01	2.6569	-6.377603	0.000158	1.581743	0.267954	0.003164
 268	1.3350e-01	2.6677	-6.328426	0.000492	4.916228	0.832832	0.009835
 269	1.3400e-01	2.6758	-6.279677	0.000487	4.873478	0.825590	0.009750
 270	1.3450e-01	2.6859	-6.248461	0.000312	3.120736	0.528667	0.006243
 271	1.3500e-01	2.6932	-6.194152	0.000543	5.429226	0.919736	0.010862
 272	1.3550e-01	2.7039	-6.169777	0.000244	2.436739	0.412795	0.004875
 273	1.3600e-01	2.7161	-6.115469	0.000543	5.429226	0.919736	0.010862
 274	1.3650e-01	2.7265	-6.071851	0.000436	4.360480	0.738685	0.008724
 275	1.3700e-01	2.7369	-6.021391	0.000504	5.044477	0.854558	0.010092
 276	1.3750e-01	2.7478	-6.005997	0.000154	1.538993	0.260712	0.003079
 277	1.3800e-01	2.7554	-5.955537	0.000504	5.044477	0.854558	0.010092
 278	1.3850e-01	2.7663	-5.915768	0.000398	3.975732	0.673507	0.007954
 279	1.3900e-01	2.7786	-5.853762	0.000620	6.198722	1.050092	0.012401
 280	1.3950e-01	2.7872	-5.819980	0.000338	3.377235	0.572119	0.006756
 281	1.4000e-01	2.7969	-5.775507	0.000445	4.445980	0.753169	0.008895
 282	1.4050e-01	2.8088	-5.743863	0.000316	3.163486	0.535909	0.006329
 283	1.4100e-01	2.8175	-5.681002	0.000628	6.284222	1.064576	0.012572
 284	1.4150e-01	2.8244	-5.650213	0.000308	3.077986	0.521425	0.006158
 285	1.4200e-01	2.8382	-5.627121	0.000231	2.308490	0.391069	0.004618
 286	1.4250e-01	2.8461	-5.589062	0.000380	3.804733	0.644539	0.007612
 287	1.4300e-01	2.8574	-5.551431	0.000376	3.761983	0.637297	0.007526
 288	1.4350e-01	2.8687	-5.504393	0.000470	4.702479	0.796621	0.009408
 289	1.4400e-01	2.8766	-5.467189	0.000372	3.719233	0.630055	0.007441
 290	1.4450e-01	2.8842	-5.418012	0.000492	4.916228	0.832832	0.009835
 291	1.4500e-01	2.8967	-5.382092	0.000359	3.590984	0.608329	0.007184
 292	1.4550e-01	2.9071	-5.348737	0.000333	3.334485	0.564877	0.006671
 293	1.4600e-01	2.9150	-5.296567	0.000522	5.215477	0.883526	0.010434
 294	1.4650e-01	2.9279	-5.264495	0.000321	3.206236	0.543151	0.006414
 295	1.4700e-01	2.9364	-5.208048	0.000564	5.642975	0.955946	0.011289
 296	1.4750e-01	2.9459	-5.175121	0.000329	3.291735	0.557635	0.006585
 297	1.4800e-01	2.9587	-5.132359	0.000427	4.274981	0.724201	0.008553
 298	1.4850e-01	2.9688	-5.081044	0.000513	5.129977	0.869042	0.010263
 299	1.4900e-01	2.9788	-5.054103	0.000269	2.693238	0.456247	0.005388
 300	1.4950e-01	2.9850	-4.996801	0.000573	5.728474	0.970430	0.011460
 301	1.5000e-01	2.9961	-4.965157	0.000316	3.163486	0.535909	0.006329
 302	1.5050e-01	3.0074	-4.924533	0.000406	4.061232	0.687991	0.008125
 303	1.5100e-01	3.0176	-4.899303	0.000252	2.522239	0.427279	0.005046
 304	1.5150e-01	3.0254	-4.851409	0.000479	4.787978	0.811106	0.009579
 305	1.5200e-01	3.0370	-4.812922	0.000385	3.847483	0.651781	0.007697
 306	1.5250e-01	3.0457	-4.757331	0.000556	5.557475	0.941462	0.011118
 307	1.5300e-01	3.0573	-4.717134	0.000402	4.018482	0.680749	0.008039
 308	1.5350e-01	3.0678	-4.694043	0.000231	2.308490	0.391069	0.004618
 309	1.5400e-01	3.0792	-4.635030	0.000590	5.899473	0.999398	0.011802
 310	1.5450e-01	3.0832	-4.590557	0.000445	4.445980	0.753169	0.008895
 311	1.5500e-01	3.0974	-4.564900	0.000256	2.564988	0.434521	0.005132
 312	1.5550e-01	3.1082	-4.528552	0.000363	3.633734	0.615571	0.007270
 313	1.5600e-01	3.1155	-4.459704	0.000688	6.882719	1.165964	0.013770
 314	1.5650e-01	3.1265	-4.447730	0.000120	1.196995	0.202776	0.002395
 315	1.5700e-01	3.1361	-4.400692	0.000470	4.702479	0.796621	0.009408
 316	1.5750e-01	3.1458	-4.357074	0.000436	4.360480	0.738685	0.008724
 317	1.5800e-01	3.1567	-4.328851	0.000282	2.821487	0.477973	0.005645
 318	1.5850e-01	3.1689	-4.276253	0.000526	5.258226	0.890768	0.010520
 319	1.5900e-01	3.1776	-4.251878	0.000244	2.436739	0.412795	0.004875
 320	1.5950e-01	3.1857	-4.197997	0.000539	5.386476	0.912494	0.010776
 321	1.6000e-01	3.1985	-4.157801	0.000402	4.018482	0.680749	0.008039
 322	1.6050e-01	3.2092	-4.113755	0.000440	4.403230	0.745927	0.008809
 323	1.6100e-01	3.2153	-4.081256	0.000325	3.248985	0.550393	0.006500
 324	1.6150e-01	3.2263	-4.043197	0.000380	3.804733	0.644539	0.007612
 325	1.6200e-01	3.2368	-3.994875	0.000483	4.830728	0.818348	0.009664
 326	1.6250e-01	3.2447	-3.961521	0.000333	3.334485	0.564877	0.006671
 327	1.6300e-01	3.2549	-3.927738	0.000338	3.377235	0.572119	0.006756
 328	1.6350e-01	3.2674	-3.870436	0.000573	5.728474	0.970430	0.011460
 329	1.6400e-01	3.2764	-3.865732	0.000047	0.470248	0.079662	0.000941
 330	1.6450e-01	3.2852	-3.823825	0.000419	4.189481	0.709717	0.008381
 331	1.6500e-01	3.2953	-3.757543	0.000663	6.626220	1.122512	0.013256
 332	1.6550e-01	3.3081	-3.720340	0.000372	3.719233	0.630055	0.007441
 333	1.6600e-01	3.3157	-3.687840	0.000325	3.248985	0.550393	0.006500
 334	1.6650e-01	3.3267	-3.655768	0.000321	3.206236	0.543151	0.006414
 335	1.6700e-01	3.3380	-3.598039	0.000577	5.771224	0.977672	0.011546
 336	1.6750e-01	3.3459	-3.565112	0.000329	3.291735	0.557635	0.006585
 337	1.6800e-01	3.3571	-3.524488	0.000406	4.061232	0.687991	0.008125
 338	1.6850e-01	3.3676	-3.484291	0.000402	4.018482	0.680749	0.008039
 339	1.6900e-01	3.3760	-3.461199	0.000231	2.308490	0.391069	0.004618
 340	1.6950e-01	3.3853	-3.444949	0.000162	1.624493	0.275197	0.003250
 341	1.7000e-01	3.3948	-3.367549	0.000774	7.737715	1.310804	0.015480
 342	1.7050e-01	3.4094	-3.314524	0.000530	5.300976	0.898010	0.010605
 343	1.7100e-01	3.4169	-3.299129	0.000154	1.538993	0.260712	0.003079
 344	1.7150e-01	3.4265	-3.255939	0.000432	4.317731	0.731443	0.008638
 345	1.7200e-01	3.4354	-3.216597	0.000393	3.932982	0.666265	0.007868
 346	1.7250e-01	3.4464	-3.158868	0.000577	5.771224	0.977672	0.011546
 347	1.7300e-01	3.4584	-3.120382	0.000385	3.847483	0.651781	0.007697
 348	1.7350e-01	3.4680	-3.097290	0.000231	2.308490	0.391069	0.004618
 349	1.7400e-01	3.4769	-3.064363	0.000329	3.291735	0.557635	0.006585
 350	1.7450e-01	3.4857	-2.988673	0.000757	7.566716	1.281836	0.015138
 351	1.7500e-01	3.4967	-2.979693	0.000090	0.897746	0.152082	0.001796
 352	1.7550e-01	3.5057	-2.932227	0.000475	4.745229	0.803863	0.009493
 353	1.7600e-01	3.5156	-2.914694	0.000175	1.752742	0.296923	0.003507
 354	1.7650e-01	3.5255	-2.867655	0.000470	4.702479	0.796621	0.009408
 355	1.7700e-01	3.5381	-2.797952	0.000697	6.968219	1.180448	0.013941
 356	1.7750e-01	3.5457	-2.770584	0.000274	2.735988	0.463489	0.005474
 357	1.7800e-01	3.5548	-2.742361	0.000282	2.821487	0.477973	0.005645
 358	1.7850e-01	3.5658	-2.707296	0.000351	3.505484	0.593845	0.007013
 359	1.7900e-01	3.5760	-2.652560	0.000547	5.471975	0.926978	0.010947
 360	1.7950e-01	3.5886	-2.607659	0.000449	4.488730	0.760411	0.008980
 361	1.8000e-01	3.6005	-2.565324	0.000423	4.232231	0.716959	0.008467
 362	1.8050e-01	3.6086	-2.534107	0.000312	3.120736	0.528667	0.006243
 363	1.8100e-01	3.6188	-2.511871	0.000222	2.222990	0.376585	0.004447
 364	1.8150e-01	3.6267	-2.455424	0.000564	5.642975	0.955946	0.011289
 365	1.8200e-01	3.6353	-2.433188	0.000222	2.222990	0.376585	0.004447
 366	1.8250e-01	3.6475	-2.396840	0.000363	3.633734	0.615571	0.007270
 367	1.8300e-01	3.6560	-2.346808	0.000500	5.001727	0.847316	0.010006
 368	1.8350e-01	3.6652	-2.307038	0.000398	3.975732	0.673507	0.007954
 369	1.8400e-01	3.6758	-2.269407	0.000376	3.761983	0.637297	0.007526
 370	1.8450e-01	3.6865	-2.240329	0.000291	2.906987	0.492457	0.005816
 371	1.8500e-01	3.6957	-2.189869	0.000504	5.044477	0.854558	0.010092
 372	1.8550e-01	3.7048	-2.153949	0.000359	3.590984	0.608329	0.007184
 373	1.8600e-01	3.7183	-2.130857	0.000231	2.308490	0.391069	0.004618
 374	1.8650e-01	3.7268	-2.086384	0.000445	4.445980	0.753169	0.008895
 375	1.8700e-01	3.7360	-2.050036	0.000363	3.633734	0.615571	0.007270
 376	1.8750e-01	3.7476	-2.006418	0.000436	4.360480	0.738685	0.008724
 377	1.8800e-01	3.7577	-1.960234	0.000462	4.616979	0.782137	0.009237
 378	1.8850e-01	3.7680	-1.929018	0.000312	3.120736	0.528667	0.006243
 379	1.8900e-01	3.7772	-1.879413	0.000496	4.958978	0.840074	0.009921
 380	1.8950e-01	3.7909	-1.849479	0.000299	2.992487	0.506941	0.005987
 381	1.9000e-01	3.7952	-1.801585	0.000479	4.787978	0.811106	0.009579
 382	1.9050e-01	3.8068	-1.775073	0.000265	2.650488	0.449005	0.005303
 383	1.9100e-01	3.8187	-1.744283	0.000308	3.077986	0.521425	0.006158
 384	1.9150e-01	3.8269	-1.696389	0.000479	4.787978	0.811106	0.009579
 385	1.9200e-01	3.8379	-1.649778	0.000466	4.659729	0.789379	0.009322
 386	1.9250e-01	3.8445	-1.614713	0.000351	3.505484	0.593845	0.007013
 387	1.9300e-01	3.8586	-1.560405	0.000543	5.429226	0.919736	0.010862
 388	1.9350e-01	3.8679	-1.538596	0.000218	2.180240	0.369343	0.004362
 389	1.9400e-01	3.8757	-1.506951	0.000316	3.163486	0.535909	0.006329
 390	1.9450e-01	3.8876	-1.465899	0.000410	4.103982	0.695233	0.008210
 391	1.9500e-01	3.9008	-1.415440	0.000504	5.044477	0.854558	0.010092
 392	1.9550e-01	3.9075	-1.384651	0.000308	3.077986	0.521425	0.006158
 393	1.9600e-01	3.9160	-1.361559	0.000231	2.308490	0.391069	0.004618
 394	1.9650e-01	3.9270	-1.308106	0.000534	5.343726	0.905252	0.010691
 395	1.9700e-01	3.9362	-1.280310	0.000278	2.778737	0.470731	0.005559
 396	1.9750e-01	3.9447	-1.235837	0.000445	4.445980	0.753169	0.008895
 397	1.9800e-01	3.9554	-1.184094	0.000517	5.172727	0.876284	0.010349
 398	1.9850e-01	3.9655	-1.172549	0.000115	1.154245	0.195534	0.002309
 399	1.9900e-01	3.9810	-1.109260	0.000633	6.326971	1.071818	0.012658
 400	1.9950e-01	3.9862	-1.075478	0.000338	3.377235	0.572119	0.006756
 401	2.0000e-01	3.9969	-1.054952	0.000205	2.051991	0.347617	0.004105
 402	2.0050e-01	4.0085	-1.006202	0.000487	4.873478	0.825590	0.009750
 403	2.0100e-01	4.0149	-0.962584	0.000436	4.360480	0.738685	0.008724
 404	2.0150e-01	4.0256	-0.915973	0.000466	4.659729	0.789379	0.009322
 405	2.0200e-01	4.0355	-0.880053	0.000359	3.590984	0.608329	0.007184
 406	2.0250e-01	4.0466	-0.849264	0.000308	3.077986	0.521425	0.006158
 407	2.0300e-01	4.0558	-0.811205	0.000380	3.804733	0.644539	0.007612
 408	2.0350e-01	4.0686	-0.769725	0.000415	4.146731	0.702475	0.008296
 409	2.0400e-01	4.0759	-0.736371	0.000333	3.334485	0.564877	0.006671
 410	2.0450e-01	4.0875	-0.731667	0.000047	0.470248	0.079662	0.000941
 411	2.0500e-01	4.0971	-0.670516	0.000611	6.113222	1.035608	0.012230
 412	2.0550e-01	4.1068	-0.620484	0.000500	5.001727	0.847316	0.010006
 413	2.0600e-01	4.1190	-0.598248	0.000222	2.222990	0.376585	0.004447
 414	2.0650e-01	4.1254	-0.555485	0.000427	4.274981	0.724201	0.008553
 415	2.0700e-01	4.1379	-0.519565	0.000359	3.590984	0.608329	0.007184
 416	2.0750e-01	4.1461	-0.500322	0.000192	1.923741	0.325891	0.003849
 417	2.0800e-01	4.1553	-0.447724	0.000526	5.258226	0.890768	0.010520
 418	2.0850e-01	4.1693	-0.388284	0.000594	5.942223	1.006640	0.011888
 419	2.0900e-01	4.1779	-0.373744	0.000145	1.453493	0.246228	0.002908
 420	2.0950e-01	4.1876	-0.337396	0.000363	3.633734	0.615571	0.007270
 421	2.1000e-01	4.2010	-0.303186	0.000342	3.419985	0.579361	0.006842
 422	2.1050e-01	4.2078	-0.242891	0.000603	6.027723	1.021124	0.012059
 423	2.1100e-01	4.2206	-0.215523	0.000274	2.735988	0.463489	0.005474
 424	2.1150e-01	4.2264	-0.183451	0.000321	3.206236	0.543151	0.006414
 425	2.1200e-01	4.2365	-0.149241	0.000342	3.419985	0.579361	0.006842
 426	2.1250e-01	4.2480	-0.126149	0.000231	2.308490	0.391069	0.004618
 427	2.1300e-01	4.2579	-0.065854	0.000603	6.027723	1.021124	0.012059
 428	2.1350e-01	4.2671	-0.021809	0.000440	4.403230	0.745927	0.008809
 429	2.1400e-01	4.2780	0.002138	0.000239	2.393989	0.405553	0.004789
 430	2.1450e-01	4.2878	0.044473	0.000423	4.232231	0.716959	0.008467
 431	2.1500e-01	4.2957	0.066710	0.000222	2.222990	0.376585	0.004447
 432	2.1550e-01	4.3042	0.116314	0.000496	4.958978	0.840074	0.009921
 433	2.1600e-01	4.3137	0.132564	0.000162	1.624493	0.275197	0.003250
 434	2.1650e-01	4.3289	0.194997	0.000624	6.241472	1.057334	0.012487
 435	2.1700e-01	4.3385	0.232628	0.000376	3.761983	0.637297	0.007526
 436	2.1750e-01	4.3495	0.263845	0.000312	3.120736	0.528667	0.006243
 437	2.1800e-01	4.3575	0.317298	0.000534	5.343726	0.905252	0.010691
 438	2.1850e-01	4.3683	0.339534	0.000222	2.222990	0.376585	0.004447
 439	2.1900e-01	4.3765	0.378448	0.000389	3.890232	0.659023	0.007783
 440	2.1950e-01	4.3872	0.417362	0.000389	3.890232	0.659023	0.007783
 441	2.2000e-01	4.3962	0.448151	0.000308	3.077986	0.521425	0.006158
 442	2.2050e-01	4.4080	0.501604	0.000534	5.343726	0.905252	0.010691
 443	2.2100e-01	4.4183	0.525979	0.000244	2.436739	0.412795	0.004875
 444	2.2150e-01	4.4270	0.566603	0.000406	4.061232	0.687991	0.008125
 445	2.2200e-01	4.4379	0.607228	0.000406	4.061232	0.687991	0.008125
 446	2.2250e-01	4.4485	0.639300	0.000321	3.206236	0.543151	0.006414
 447	2.2300e-01	4.4568	0.683773	0.000445	4.445980	0.753169	0.008895
 448	2.2350e-01	4.4690	0.704726	0.000209	2.094741	0.354859	0.004191
 449	2.2400e-01	4.4781	0.750910	0.000462	4.616979	0.782137	0.009237
 450	2.2450e-01	4.4867	0.785975	0.000351	3.505484	0.593845	0.007013
 451	2.2500e-01	4.5013	0.816337	0.000304	3.035236	0.514183	0.006072
 452	2.2550e-01	4.5097	0.850974	0.000346	3.462734	0.586603	0.006928
 453	2.2600e-01	4.5154	0.895020	0.000440	4.403230	0.745927	0.008809
 454	2.2650e-01	4.5280	0.933078	0.000380	3.804733	0.644539	0.007612
 455	2.2700e-01	4.5383	0.964723	0.000316	3.163486	0.535909	0.006329
 456	2.2750e-01	4.5488	0.999360	0.000346	3.462734	0.586603	0.006928
 457	2.2800e-01	4.5538	1.055379	0.000560	5.600225	0.948704	0.011204
 458	2.2850e-01	4.5670	1.063504	0.000081	0.812246	0.137598	0.001625
 459	2.2900e-01	4.5779	1.104556	0.000410	4.103982	0.695233	0.008210
 460	2.2950e-01	4.5886	1.135773	0.000312	3.120736	0.528667	0.006243
 461	2.3000e-01	4.5969	1.184094	0.000483	4.830728	0.818348	0.009664
 462	2.3050e-01	4.6082	1.213173	0.000291	2.906987	0.492457	0.005816
 463	2.3100e-01	4.6185	1.255508	0.000423	4.232231	0.716959	0.008467
 464	2.3150e-01	4.6249	1.312810	0.000573	5.728474	0.970430	0.011460
 465	2.3200e-01	4.6375	1.329915	0.000171	1.709992	0.289681	0.003421
 466	2.3250e-01	4.6509	1.358565	0.000286	2.864237	0.485215	0.005730
 467	2.3300e-01	4.6582	1.393631	0.000351	3.505484	0.593845	0.007013
 468	2.3350e-01	4.6677	1.438104	0.000445	4.445980	0.753169	0.008895
 469	2.3400e-01	4.6790	1.472314	0.000342	3.419985	0.579361	0.006842
 470	2.3450e-01	4.6881	1.493267	0.000209	2.094741	0.354859	0.004191
 471	2.3500e-01	4.6985	1.533892	0.000406	4.061232	0.687991	0.008125
 472	2.3550e-01	4.7064	1.584352	0.000504	5.044477	0.854558	0.010092
 473	2.3600e-01	4.7203	1.606161	0.000218	2.180240	0.369343	0.004362
 474	2.3650e-01	4.7285	1.664745	0.000586	5.856724	0.992156	0.011717
 475	2.3700e-01	4.7388	1.666028	0.000013	0.128249	0.021726	0.000257
 476	2.3750e-01	4.7473	1.708791	0.000427	4.274981	0.724201	0.008553
 477	2.3800e-01	4.7574	1.759678	0.000509	5.087227	0.861800	0.010177
 478	2.3850e-01	4.7675	1.802868	0.000432	4.317731	0.731443	0.008638
 479	2.3900e-01	4.7780	1.831091	0.000282	2.821487	0.477973	0.005645
 480	2.3950e-01	4.7859	1.858459	0.000274	2.735988	0.463489	0.005474
 481	2.4000e-01	4.7968	1.905071	0.000466	4.659729	0.789379	0.009322
 482	2.4050e-01	4.8088	1.941419	0.000363	3.633734	0.615571	0.007270
 483	2.4100e-01	4.8195	1.972635	0.000312	3.120736	0.528667	0.006243
 484	2.4150e-01	4.8270	2.022240	0.000496	4.958978	0.840074	0.009921
 485	2.4200e-01	4.8346	2.050463	0.000282	2.821487	0.477973	0.005645
 486	2.4250e-01	4.8468	2.087239	0.000368	3.676483	0.622813	0.007355
 487	2.4300e-01	4.8569	2.114607	0.000274	2.735988	0.463489	0.005474
 488	2.4350e-01	4.8688	2.146679	0.000321	3.206236	0.543151	0.006414
 489	2.4400e-01	4.8770	2.198422	0.000517	5.172727	0.876284	0.010349
 490	2.4450e-01	4.8895	2.246316	0.000479	4.787978	0.811106	0.009579
 491	2.4500e-01	4.8993	2.261710	0.000154	1.538993	0.260712	0.003079
 492	2.4550e-01	4.9039	2.297203	0.000355	3.548234	0.601087	0.007099
 493	2.4600e-01	4.9184	2.331841	0.000346	3.462734	0.586603	0.006928
 494	2.4650e-01	4.9274	2.379307	0.000475	4.745229	0.803863	0.009493
 495	2.4700e-01	4.9377	2.407103	0.000278	2.778737	0.470731	0.005559
 496	2.4750e-01	4.9463	2.429767	0.000227	2.265740	0.383827	0.004533
 497	2.4800e-01	4.9606	2.475095	0.000453	4.531480	0.767653	0.009066
 498	2.4850e-01	4.9692	2.519996	0.000449	4.488730	0.760411	0.008980
 499	2.4900e-01	4.9787	2.563186	0.000432	4.317731	0.731443	0.008638
 500	2.4950e-01	4.9908	2.594403	0.000312	3.120736	0.528667	0.006243
 501	2.5000e-01	4.9982	2.623053	0.000286	2.864237	0.485215	0.005730
 502	2.5050e-01	5.0073	2.655981	0.000329	3.291735	0.557635	0.006585
 503	2.5100e-01	5.0156	2.702164	0.000462	4.616979	0.782137	0.009237
 504	2.5150e-01	5.0287	2.745354	0.000432	4.317731	0.731443	0.008638
 505	2.5200e-01	5.0372	2.765453	0.000201	2.009241	0.340375	0.004020
 506	2.5250e-01	5.0488	2.793248	0.000278	2.778737	0.470731	0.005559
 507	2.5300e-01	5.0583	2.828741	0.000355	3.548234	0.601087	0.007099
 508	2.5350e-01	5.0702	2.865089	0.000363	3.633734	0.615571	0.007270
 509	2.5400e-01	5.0784	2.897589	0.000325	3.248985	0.550393	0.006500
 510	2.5450e-01	5.0882	2.931799	0.000342	3.419985	0.579361	0.006842
 511	2.5500e-01	5.0981	2.967719	0.000359	3.590984	0.608329	0.007184
 512	2.5550e-01	5.1068	3.012192	0.000445	4.445980	0.753169	0.008895
 513	2.5600e-01	5.1173	3.029297	0.000171	1.709992	0.289681	0.003421
 514	2.5650e-01	5.1276	3.063507	0.000342	3.419985	0.579361	0.006842
 515	2.5700e-01	5.1385	3.105415	0.000419	4.189481	0.709717	0.008381
 516	2.5750e-01	5.1501	3.143473	0.000380	3.804733	0.644539	0.007612
 517	2.5800e-01	5.1608	3.189657	0.000462	4.616979	0.782137	0.009237
 518	2.5850e-01	5.1656	3.208045	0.000184	1.838242	0.311407	0.003678
 519	2.5900e-01	5.1746	3.244821	0.000368	3.676483	0.622813	0.007355
 520	2.5950e-01	5.1874	3.288438	0.000436	4.360480	0.738685	0.008724
 521	2.6000e-01	5.1976	3.319655	0.000312	3.120736	0.528667	0.006243
 522	2.6050e-01	5.2078	3.350872	0.000312	3.120736	0.528667	0.006243
 523	2.6100e-01	5.2195	3.382944	0.000321	3.206236	0.543151	0.006414
 524	2.6150e-01	5.2249	3.449653	0.000667	6.668970	1.129754	0.013342
 525	2.6200e-01	5.2362	3.458206	0.000085	0.854996	0.144840	0.001711
 526	2.6250e-01	5.2472	3.478732	0.000205	2.051991	0.347617	0.004105
 527	2.6300e-01	5.2566	3.525770	0.000470	4.702479	0.796621	0.009408
 528	2.6350e-01	5.2676	3.573237	0.000475	4.745229	0.803863	0.009493
 529	2.6400e-01	5.2762	3.600177	0.000269	2.693238	0.456247	0.005388
 530	2.6450e-01	5.2881	3.640802	0.000406	4.061232	0.687991	0.008125
 531	2.6500e-01	5.2985	3.670735	0.000299	2.992487	0.506941	0.005987
 532	2.6550e-01	5.3082	3.707084	0.000363	3.633734	0.615571	0.007270
 533	2.6600e-01	5.3168	3.735307	0.000282	2.821487	0.477973	0.005645
 534	2.6650e-01	5.3297	3.769944	0.000346	3.462734	0.586603	0.006928
 535	2.6700e-01	5.3363	3.809286	0.000393	3.932982	0.666265	0.007868
 536	2.6750e-01	5.3456	3.850766	0.000415	4.146731	0.702475	0.008296
 537	2.6800e-01	5.3568	3.893956	0.000432	4.317731	0.731443	0.008638
 538	2.6850e-01	5.3650	3.902081	0.000081	0.812246	0.137598	0.001625
 539	2.6900e-01	5.3769	3.946554	0.000445	4.445980	0.753169	0.008895
 540	2.6950e-01	5.3862	3.976915	0.000304	3.035236	0.514183	0.006072
 541	2.7000e-01	5.3964	3.991454	0.000145	1.453493	0.246228	0.002908
 542	2.7050e-01	5.4059	4.040204	0.000487	4.873478	0.825590	0.009750
 543	2.7100e-01	5.4181	4.075696	0.000355	3.548234	0.601087	0.007099
 544	2.7150e-01	5.4266	4.124873	0.000492	4.916228	0.832832	0.009835
 545	2.7200e-01	5.4353	4.141978	0.000171	1.709992	0.289681	0.003421
 546	2.7250e-01	5.4477	4.178327	0.000363	3.633734	0.615571	0.007270
 547	2.7300e-01	5.4608	4.219379	0.000410	4.103982	0.695233	0.008210
 548	2.7350e-01	5.4680	4.261713	0.000423	4.232231	0.716959	0.008467
 549	2.7400e-01	5.4776	4.292930	0.000312	3.120736	0.528667	0.006243
 550	2.7450e-01	5.4853	4.310035	0.000171	1.709992	0.289681	0.003421
 551	2.7500e-01	5.4977	4.361778	0.000517	5.172727	0.876284	0.010349
 552	2.7550e-01	5.5080	4.399409	0.000376	3.761983	0.637297	0.007526
 553	2.7600e-01	5.5167	4.440461	0.000410	4.103982	0.695233	0.008210
 554	2.7650e-01	5.5280	4.463553	0.000231	2.308490	0.391069	0.004618
 555	2.7700e-01	5.5371	4.498190	0.000346	3.462734	0.586603	0.006928
 556	2.7750e-01	5.5438	4.533256	0.000351	3.505484	0.593845	0.007013
 557	2.7800e-01	5.5594	4.558485	0.000252	2.522239	0.427279	0.005046
 558	2.7850e-01	5.5664	4.595261	0.000368	3.676483	0.622813	0.007355
 559	2.7900e-01	5.5774	4.640589	0.000453	4.531480	0.767653	0.009066
 560	2.7950e-01	5.5872	4.655129	0.000145	1.453493	0.246228	0.002908
 561	2.8000e-01	5.5975	4.710292	0.000551	5.514725	0.934220	0.011033
 562	2.8050e-01	5.6058	4.732529	0.000222	2.222990	0.376585	0.004447
 563	2.8100e-01	5.6152	4.774009	0.000415	4.146731	0.702475	0.008296
 564	2.8150e-01	5.6238	4.790686	0.000167	1.667242	0.282439	0.003335
 565	2.8200e-01	5.6360	4.843711	0.000530	5.300976	0.898010	0.010605
 566	2.8250e-01	5.6458	4.878777	0.000351	3.505484	0.593845	0.007013
 567	2.8300e-01	5.6583	4.905717	0.000269	2.693238	0.456247	0.005388
 568	2.8350e-01	5.6659	4.948480	0.000427	4.274981	0.724201	0.008553
 569	2.8400e-01	5.6769	4.964302	0.000158	1.581743	0.267954	0.003164
 570	2.8450e-01	5.6876	5.010913	0.000466	4.659729	0.789379	0.009322
 571	2.8500e-01	5.6985	5.045978	0.000351	3.505484	0.593845	0.007013
 572	2.8550e-01	5.7086	5.078905	0.000329	3.291735	0.557635	0.006585
 573	2.8600e-01	5.7196	5.131931	0.000530	5.300976	0.898010	0.010605
 574	2.8650e-01	5.7236	5.150746	0.000188	1.880992	0.318649	0.003763
 575	2.8700e-01	5.7350	5.160154	0.000094	0.940496	0.159324	0.001882
 576	2.8750e-01	5.7465	5.220877	0.000607	6.070473	1.028366	0.012145
 577	2.8800e-01	5.7571	5.247390	0.000265	2.650488	0.449005	0.005303
 578	2.8850e-01	5.7663	5.285876	0.000385	3.847483	0.651781	0.007697
 579	2.8900e-01	5.7782	5.323079	0.000372	3.719233	0.630055	0.007441
 580	2.8950e-01	5.7889	5.354724	0.000316	3.163486	0.535909	0.006329
 581	2.9000e-01	5.7953	5.391499	0.000368	3.676483	0.622813	0.007355
 582	2.9050e-01	5.8081	5.422288	0.000308	3.077986	0.521425	0.006158
 583	2.9100e-01	5.8163	5.450939	0.000286	2.864237	0.485215	0.005730
 584	2.9150e-01	5.8252	5.503110	0.000522	5.215477	0.883526	0.010434
 585	2.9200e-01	5.8344	5.518932	0.000158	1.581743	0.267954	0.003164
 586	2.9250e-01	5.8473	5.527912	0.000090	0.897746	0.152082	0.001796
 587	2.9300e-01	5.8557	5.590773	0.000628	6.284222	1.064576	0.012572
 588	2.9350e-01	5.8685	5.617713	0.000269	2.693238	0.456247	0.005388
 589	2.9400e-01	5.8771	5.649785	0.000321	3.206236	0.543151	0.006414
 590	2.9450e-01	5.8871	5.686133	0.000363	3.633734	0.615571	0.007270
 591	2.9500e-01	5.8960	5.728041	0.000419	4.189481	0.709717	0.008381
 592	2.9550e-01	5.9076	5.759685	0.000316	3.163486	0.535909	0.006329
 593	2.9600e-01	5.9167	5.780638	0.000209	2.094741	0.354859	0.004191
 594	2.9650e-01	5.9286	5.810572	0.000299	2.992487	0.506941	0.005987
 595	2.9700e-01	5.9372	5.840934	0.000304	3.035236	0.514183	0.006072
 596	2.9750e-01	5.9473	5.877709	0.000368	3.676483	0.622813	0.007355
 597	2.9800e-01	5.9558	5.914485	0.000368	3.676483	0.622813	0.007355
 598	2.9850e-01	5.9662	5.951261	0.000368	3.676483	0.622813	0.007355
 599	2.9900e-01	5.9769	5.969649	0.000184	1.838242	0.311407	0.003678
 600	2.9950e-01	5.9869	6.020536	0.000509	5.087227	0.861800	0.010177
 601	3.0000e-01	5.9982	6.049615	0.000291	2.906987	0.492457	0.005816
 602	3.0050e-01	6.0071	6.099219	0.000496	4.958978	0.840074	0.009921
 603	3.0100e-01	6.0168	6.123594	0.000244	2.436739	0.412795	0.004875
 604	3.0150e-01	6.0272	6.149251	0.000256	2.564988	0.434521	0.005132
 605	3.0200e-01	6.0384	6.202705	0.000534	5.343726	0.905252	0.010691
 606	3.0250e-01	6.0455	6.227935	0.000252	2.522239	0.427279	0.005046
 607	3.0300e-01	6.0568	6.250599	0.000227	2.265740	0.383827	0.004533
 608	3.0350e-01	6.0675	6.277111	0.000265	2.650488	0.449005	0.005303
 609	3.0400e-01	6.0754	6.329709	0.000526	5.258226	0.890768	0.010520
 610	3.0450e-01	6.0851	6.342110	0.000124	1.239744	0.210018	0.002480
 611	3.0500e-01	6.0976	6.392998	0.000509	5.087227	0.861800	0.010177
 612	3.0550e-01	6.1060	6.429774	0.000368	3.676483	0.622813	0.007355
 613	3.0600e-01	6.1169	6.458852	0.000291	2.906987	0.492457	0.005816
 614	3.0650e-01	6.1261	6.496056	0.000372	3.719233	0.630055	0.007441
 615	3.0700e-01	6.1377	6.520003	0.000239	2.393989	0.405553	0.004789
 616	3.0750e-01	6.1481	6.555495	0.000355	3.548234	0.601087	0.007099
 617	3.0800e-01	6.1578	6.582008	0.000265	2.650488	0.449005	0.005303
 618	3.0850e-01	6.1658	6.626481	0.000445	4.445980	0.753169	0.008895
 619	3.0900e-01	6.1810	6.648718	0.000222	2.222990	0.376585	0.004447
 620	3.0950e-01	6.1899	6.679934	0.000312	3.120736	0.528667	0.006243
 621	3.1000e-01	6.1996	6.712006	0.000321	3.206236	0.543151	0.006414
 622	3.1050e-01	6.2048	6.751775	0.000398	3.975732	0.673507	0.007954
 623	3.1100e-01	6.2158	6.785130	0.000333	3.334485	0.564877	0.006671
 624	3.1150e-01	6.2244	6.814209	0.000291	2.906987	0.492457	0.005816
 625	3.1200e-01	6.2366	6.857827	0.000436	4.360480	0.738685	0.008724
 626	3.1250e-01	6.2463	6.877925	0.000201	2.009241	0.340375	0.004020
 627	3.1300e-01	6.2561	6.898451	0.000205	2.051991	0.347617	0.004105
 628	3.1350e-01	6.2660	6.948055	0.000496	4.958978	0.840074	0.009921
 629	3.1400e-01	6.2758	6.964733	0.000167	1.667242	0.282439	0.003335
 630	3.1450e-01	6.2872	7.019469	0.000547	5.471975	0.926978	0.010947
 631	3.1500e-01	6.2958	7.030160	0.000107	1.068745	0.181050	0.002138
 632	3.1550e-01	6.3080	7.070784	0.000406	4.061232	0.687991	0.008125
 633	3.1600e-01	6.3168	7.113546	0.000427	4.274981	0.724201	0.008553
 634	3.1650e-01	6.3257	7.152460	0.000389	3.890232	0.659023	0.007783
 635	3.1700e-01	6.3379	7.195223	0.000427	4.274981	0.724201	0.008553
 636	3.1750e-01	6.3455	7.199071	0.000038	0.384748	0.065178	0.000770
 637	3.1800e-01	6.3562	7.241406	0.000423	4.232231	0.716959	0.008467
 638	3.1850e-01	6.3666	7.270485	0.000291	2.906987	0.492457	0.005816
 639	3.1900e-01	6.3751	7.304695	0.000342	3.419985	0.579361	0.006842
 640	3.1950e-01	6.3881	7.320517	0.000158	1.581743	0.267954	0.003164
 641	3.2000e-01	6.3959	7.386371	0.000658	6.583470	1.115270	0.013171
 642	3.2050e-01	6.4084	7.388082	0.000017	0.170999	0.028968	0.000342
 643	3.2100e-01	6.4172	7.447094	0.000590	5.899473	0.999398	0.011802
 644	3.2150e-01	6.4249	7.494133	0.000470	4.702479	0.796621	0.009408
 645	3.2200e-01	6.4362	7.509100	0.000150	1.496243	0.253470	0.002993
 646	3.2250e-01	6.4459	7.527488	0.000184	1.838242	0.311407	0.003678
 647	3.2300e-01	6.4565	7.575809	0.000483	4.830728	0.818348	0.009664
 648	3.2350e-01	6.4674	7.594625	0.000188	1.880992	0.318649	0.003763
 649	3.2400e-01	6.4793	7.631401	0.000368	3.676483	0.622813	0.007355
 650	3.2450e-01	6.4856	7.673308	0.000419	4.189481	0.709717	0.008381
 651	3.2500e-01	6.4980	7.696827	0.000235	2.351239	0.398311	0.004704
 652	3.2550e-01	6.5039	7.731037	0.000342	3.419985	0.579361	0.006842
 653	3.2600e-01	6.5173	7.760116	0.000291	2.906987	0.492457	0.005816
 654	3.2650e-01	6.5280	7.794754	0.000346	3.462734	0.586603	0.006928
 655	3.2700e-01	6.5350	7.845213	0.000504	5.044477	0.854558	0.010092
 656	3.2750e-01	6.5466	7.853766	0.000085	0.854996	0.144840	0.001711
 657	3.2800e-01	6.5559	7.883700	0.000299	2.992487	0.506941	0.005987
 658	3.2850e-01	6.5649	7.926890	0.000432	4.317731	0.731443	0.008638
 659	3.2900e-01	6.5791	7.953402	0.000265	2.650488	0.449005	0.005303
 660	3.2950e-01	6.5869	7.980343	0.000269	2.693238	0.456247	0.005388
 661	3.3000e-01	6.5985	8.011987	0.000316	3.163486	0.535909	0.006329
 662	3.3050e-01	6.6064	8.050046	0.000380	3.804733	0.644539	0.007612
 663	3.3100e-01	6.6180	8.084256	0.000342	3.419985	0.579361	0.006842
 664	3.3150e-01	6.6284	8.117611	0.000333	3.334485	0.564877	0.006671
 665	3.3200e-01	6.6406	8.158663	0.000410	4.103982	0.695233	0.008210
 666	3.3250e-01	6.6437	8.188596	0.000299	2.992487	0.506941	0.005987
 667	3.3300e-01	6.6571	8.204419	0.000158	1.581743	0.267954	0.003164
 668	3.3350e-01	6.6663	8.235635	0.000312	3.120736	0.528667	0.006243
 669	3.3400e-01	6.6776	8.278398	0.000427	4.274981	0.724201	0.008553
 670	3.3450e-01	6.6895	8.316884	0.000385	3.847483	0.651781	0.007697
 671	3.3500e-01	6.6949	8.351094	0.000342	3.419985	0.579361	0.006842
 672	3.3550e-01	6.7065	8.387442	0.000363	3.633734	0.615571	0.007270
 673	3.3600e-01	6.7195	8.413100	0.000256	2.564988	0.434521	0.005132
 674	3.3650e-01	6.7267	8.432770	0.000197	1.966491	0.333133	0.003934
 675	3.3700e-01	6.7358	8.469974	0.000372	3.719233	0.630055	0.007441
 676	3.3750e-01	6.7487	8.489645	0.000197	1.966491	0.333133	0.003934
 677	3.3800e-01	6.7587	8.531979	0.000423	4.232231	0.716959	0.008467
 678	3.3850e-01	6.7676	8.553361	0.000214	2.137490	0.362101	0.004276
 679	3.3900e-01	6.7755	8.593130	0.000398	3.975732	0.673507	0.007954
 680	3.3950e-01	6.7865	8.633327	0.000402	4.018482	0.680749	0.008039
 681	3.4000e-01	6.7969	8.667537	0.000342	3.419985	0.579361	0.006842
 682	3.4050e-01	6.8069	8.694905	0.000274	2.735988	0.463489	0.005474
 683	3.4100e-01	6.8140	8.747930	0.000530	5.300976	0.898010	0.010605
 684	3.4150e-01	6.8262	8.756055	0.000081	0.812246	0.137598	0.001625
 685	3.4200e-01	6.8390	8.791120	0.000351	3.505484	0.593845	0.007013
 686	3.4250e-01	6.8463	8.826186	0.000351	3.505484	0.593845	0.007013
 687	3.4300e-01	6.8579	8.852698	0.000265	2.650488	0.449005	0.005303
 688	3.4350e-01	6.8713	8.869803	0.000171	1.709992	0.289681	0.003421
 689	3.4400e-01	6.8768	8.911283	0.000415	4.146731	0.702475	0.008296
 690	3.4450e-01	6.8854	8.939079	0.000278	2.778737	0.470731	0.005559
 691	3.4500e-01	6.8964	8.978420	0.000393	3.932982	0.666265	0.007868
 692	3.4550e-01	6.9067	9.009637	0.000312	3.120736	0.528667	0.006243
 693	3.4600e-01	6.9177	9.044702	0.000351	3.505484	0.593845	0.007013
 694	3.4650e-01	6.9281	9.073781	0.000291	2.906987	0.492457	0.005816
 695	3.4700e-01	6.9397	9.110984	0.000372	3.719233	0.630055	0.007441
 696	3.4750e-01	6.9472	9.131510	0.000205	2.051991	0.347617	0.004105
 697	3.4800e-01	6.9574	9.171279	0.000398	3.975732	0.673507	0.007954
 698	3.4850e-01	6.9684	9.208055	0.000368	3.676483	0.622813	0.007355
 699	3.4900e-01	6.9788	9.223877	0.000158	1.581743	0.267954	0.003164
 700	3.4950e-01	6.9876	9.266212	0.000423	4.232231	0.716959	0.008467
 701	3.5000e-01	6.9971	9.281179	0.000150	1.496243	0.253470	0.002993
 702	3.5050e-01	7.0074	9.329073	0.000479	4.787978	0.811106	0.009579
 703	3.5100e-01	7.0169	9.376112	0.000470	4.702479	0.796621	0.009408
 704	3.5150e-01	7.0288	9.377395	0.000013	0.128249	0.021726	0.000257
 705	3.5200e-01	7.0395	9.429137	0.000517	5.172727	0.876284	0.010349
 706	3.5250e-01	7.0502	9.450091	0.000209	2.094741	0.354859	0.004191
 707	3.5300e-01	7.0557	9.483018	0.000329	3.291735	0.557635	0.006585
 708	3.5350e-01	7.0685	9.497130	0.000141	1.410744	0.238986	0.002822
 709	3.5400e-01	7.0776	9.549300	0.000522	5.215477	0.883526	0.010434
 710	3.5450e-01	7.0898	9.574958	0.000256	2.564988	0.434521	0.005132
 711	3.5500e-01	7.0984	9.596766	0.000218	2.180240	0.369343	0.004362
 712	3.5550e-01	7.1088	9.656634	0.000598	5.984973	1.013882	0.011974
 713	3.5600e-01	7.1162	9.675877	0.000192	1.923741	0.325891	0.003849
 714	3.5650e-01	7.1274	9.687423	0.000115	1.154245	0.195534	0.002309
 715	3.5700e-01	7.1356	9.752422	0.000650	6.497971	1.100786	0.013000
 716	3.5750e-01	7.1448	9.778080	0.000256	2.564988	0.434521	0.005132
 717	3.5800e-01	7.1548	9.807586	0.000295	2.949737	0.499699	0.005901
 718	3.5850e-01	7.1638	9.827256	0.000197	1.966491	0.333133	0.003934
 719	3.5900e-01	7.1771	9.845217	0.000180	1.795492	0.304165	0.003592
 720	3.5950e-01	7.1857	9.886269	0.000410	4.103982	0.695233	0.008210
 721	3.6000e-01	7.1985	9.934590	0.000483	4.830728	0.818348	0.009664
 722	3.6050e-01	7.2086	9.958537	0.000239	2.393989	0.405553	0.004789
 723	3.6100e-01	7.2168	9.982484	0.000239	2.393989	0.405553	0.004789
 724	3.6150e-01	7.2278	10.019260	0.000368	3.676483	0.622813	0.007355
 725	3.6200e-01	7.2369	10.065016	0.000457	4.574229	0.774895	0.009151
 726	3.6250e-01	7.2473	10.088108	0.000231	2.308490	0.391069	0.004618
 727	3.6300e-01	7.2583	10.099226	0.000111	1.111495	0.188292	0.002224
 728	3.6350e-01	7.2656	10.138140	0.000389	3.890232	0.659023	0.007783
 729	3.6400e-01	7.2766	10.174488	0.000363	3.633734	0.615571	0.007270
 730	3.6450e-01	7.2864	10.192448	0.000180	1.795492	0.304165	0.003592
 731	3.6500e-01	7.2961	10.231790	0.000393	3.932982	0.666265	0.007868
 732	3.6550e-01	7.3102	10.271131	0.000393	3.932982	0.666265	0.007868
 733	3.6600e-01	7.3218	10.289947	0.000188	1.880992	0.318649	0.003763
 734	3.6650e-01	7.3254	10.307907	0.000180	1.795492	0.304165	0.003592
 735	3.6700e-01	7.3376	10.372051	0.000641	6.412471	1.086302	0.012829
 736	3.6750e-01	7.3480	10.393860	0.000218	2.180240	0.369343	0.004362
 737	3.6800e-01	7.3566	10.437905	0.000440	4.403230	0.745927	0.008809
 738	3.6850e-01	7.3663	10.466556	0.000286	2.864237	0.485215	0.005730
 739	3.6900e-01	7.3755	10.470832	0.000043	0.427498	0.072420	0.000855
 740	3.6950e-01	7.3862	10.513167	0.000423	4.232231	0.716959	0.008467
 741	3.7000e-01	7.3984	10.557213	0.000440	4.403230	0.745927	0.008809
 742	3.7050e-01	7.4054	10.574745	0.000175	1.752742	0.296923	0.003507
 743	3.7100e-01	7.4164	10.610666	0.000359	3.590984	0.608329	0.007184
 744	3.7150e-01	7.4286	10.650435	0.000398	3.975732	0.673507	0.007954
 745	3.7200e-01	7.4377	10.660270	0.000098	0.983246	0.166566	0.001967
 746	3.7250e-01	7.4438	10.697046	0.000368	3.676483	0.622813	0.007355
 747	3.7300e-01	7.4548	10.732539	0.000355	3.548234	0.601087	0.007099
 748	3.7350e-01	7.4698	10.768032	0.000355	3.548234	0.601087	0.007099
 749	3.7400e-01	7.4780	10.805235	0.000372	3.719233	0.630055	0.007441
 750	3.7450e-01	7.4890	10.815926	0.000107	1.068745	0.181050	0.002138
 751	3.7500e-01	7.4982	10.850991	0.000351	3.505484	0.593845	0.007013
 752	3.7550e-01	7.5061	10.882636	0.000316	3.163486	0.535909	0.006329
 753	3.7600e-01	7.5174	10.917701	0.000351	3.505484	0.593845	0.007013
 754	3.7650e-01	7.5281	10.951056	0.000333	3.334485	0.564877	0.006671
 755	3.7700e-01	7.5378	10.975430	0.000244	2.436739	0.412795	0.004875
 756	3.7750e-01	7.5470	11.019903	0.000445	4.445980	0.753169	0.008895
 757	3.7800e-01	7.5586	11.041712	0.000218	2.180240	0.369343	0.004362
 758	3.7850e-01	7.5684	11.044278	0.000026	0.256499	0.043452	0.000513
 759	3.7900e-01	7.5778	11.110988	0.000667	6.668970	1.129754	0.013342
 760	3.7950e-01	7.5861	11.113553	0.000026	0.256499	0.043452	0.000513
 761	3.8000e-01	7.5970	11.186250	0.000727	7.267467	1.231142	0.014539
 762	3.8050e-01	7.6074	11.202072	0.000158	1.581743	0.267954	0.003164
 763	3.8100e-01	7.6178	11.248683	0.000466	4.659729	0.789379	0.009322
 764	3.8150e-01	7.6276	11.240986	-0.000077	-0.769497	-0.130356	-0.001539
 765	3.8200e-01	7.6385	11.278617	0.000376	3.761983	0.637297	0.007526
 766	3.8250e-01	7.6440	11.320952	0.000423	4.232231	0.716959	0.008467
 767	3.8300e-01	7.6581	11.346181	0.000252	2.522239	0.427279	0.005046
 768	3.8350e-01	7.6651	11.404766	0.000586	5.856724	0.992156	0.011717
 769	3.8400e-01	7.6741	11.408187	0.000034	0.341998	0.057936	0.000684
 770	3.8450e-01	7.6874	11.449239	0.000410	4.103982	0.695233	0.008210
 771	3.8500e-01	7.6990	11.464634	0.000154	1.538993	0.260712	0.003079
 772	3.8550e-01	7.7075	11.494567	0.000299	2.992487	0.506941	0.005987
 773	3.8600e-01	7.7179	11.536047	0.000415	4.146731	0.702475	0.008296
 774	3.8650e-01	7.7264	11.548021	0.000120	1.196995	0.202776	0.002395
 775	3.8700e-01	7.7380	11.590783	0.000427	4.274981	0.724201	0.008553
 776	3.8750e-01	7.7466	11.613020	0.000222	2.222990	0.376585	0.004447
 777	3.8800e-01	7.7563	11.651506	0.000385	3.847483	0.651781	0.007697
 778	3.8850e-01	7.7655	11.671604	0.000201	2.009241	0.340375	0.004020
 779	3.8900e-01	7.7783	11.693413	0.000218	2.180240	0.369343	0.004362
 780	3.8950e-01	7.7869	11.744728	0.000513	5.129977	0.869042	0.010263
 781	3.9000e-01	7.7954	11.743018	-0.000017	-0.170999	-0.028968	-0.000342
 782	3.9050e-01	7.8091	11.812721	0.000697	6.968219	1.180448	0.013941
 783	3.9100e-01	7.8149	11.846931	0.000342	3.419985	0.579361	0.006842
 784	3.9150e-01	7.8259	11.865318	0.000184	1.838242	0.311407	0.003678
 785	3.9200e-01	7.8381	11.887555	0.000222	2.222990	0.376585	0.004447
 786	3.9250e-01	7.8485	11.920910	0.000333	3.334485	0.564877	0.006671
 787	3.9300e-01	7.8561	11.966666	0.000457	4.574229	0.774895	0.009151
 788	3.9350e-01	7.8680	11.991468	0.000248	2.479489	0.420037	0.004960
 789	3.9400e-01	7.8754	12.025250	0.000338	3.377235	0.572119	0.006756
 790	3.9450e-01	7.8864	12.040217	0.000150	1.496243	0.253470	0.002993
 791	3.9500e-01	7.8986	12.082980	0.000427	4.274981	0.724201	0.008553
 792	3.9550e-01	7.9074	12.115479	0.000325	3.248985	0.550393	0.006500
 793	3.9600e-01	7.9147	12.135150	0.000197	1.966491	0.333133	0.003934
 794	3.9650e-01	7.9251	12.157814	0.000227	2.265740	0.383827	0.004533
 795	3.9700e-01	7.9379	12.215971	0.000581	5.813974	0.984914	0.011631
 796	3.9750e-01	7.9456	12.235642	0.000197	1.966491	0.333133	0.003934
 797	3.9800e-01	7.9553	12.268569	0.000329	3.291735	0.557635	0.006585
 798	3.9850e-01	7.9669	12.280115	0.000115	1.154245	0.195534	0.002309
 799	3.9900e-01	7.9761	12.328437	0.000483	4.830728	0.818348	0.009664
 800	3.9950e-01	7.9919	12.350246	0.000218	2.180240	0.369343	0.004362
 801	4.0000e-01	7.9974	12.384883	0.000346	3.462734	0.586603	0.006928
 802	4.0050e-01	8.0072	12.448599	0.000637	6.369721	1.079060	0.012743
 803	4.0100e-01	8.0139	12.444751	-0.000038	-0.384748	-0.065178	-0.000770
 804	4.0150e-01	8.0286	12.457580	0.000128	1.282494	0.217260	0.002566
 805	4.0200e-01	8.0426	12.508467	0.000509	5.087227	0.861800	0.010177
 806	4.0250e-01	8.0481	12.549091	0.000406	4.061232	0.687991	0.008125
 807	4.0300e-01	8.0579	12.567052	0.000180	1.795492	0.304165	0.003592
 808	4.0350e-01	8.0676	12.591426	0.000244	2.436739	0.412795	0.004875
 809	4.0400e-01	8.0756	12.631195	0.000398	3.975732	0.673507	0.007954
 810	4.0450e-01	8.0875	12.660702	0.000295	2.949737	0.499699	0.005901
 811	4.0500e-01	8.0963	12.677807	0.000171	1.709992	0.289681	0.003421
 812	4.0550e-01	8.1079	12.729122	0.000513	5.129977	0.869042	0.010263
 813	4.0600e-01	8.1165	12.739812	0.000107	1.068745	0.181050	0.002138
 814	4.0650e-01	8.1256	12.769318	0.000295	2.949737	0.499699	0.005901
 815	4.0700e-01	8.1363	12.818923	0.000496	4.958978	0.840074	0.009921
 816	4.0750e-01	8.1464	12.847574	0.000286	2.864237	0.485215	0.005730
 817	4.0800e-01	8.1586	12.852278	0.000047	0.470248	0.079662	0.000941
 818	4.0850e-01	8.1665	12.892047	0.000398	3.975732	0.673507	0.007954
 819	4.0900e-01	8.1775	12.914283	0.000222	2.222990	0.376585	0.004447
 820	4.0950e-01	8.1903	12.957901	0.000436	4.360480	0.738685	0.008724
 821	4.1000e-01	8.1970	12.981420	0.000235	2.351239	0.398311	0.004704
 822	4.1050e-01	8.2092	13.022045	0.000406	4.061232	0.687991	0.008125
 823	4.1100e-01	8.2178	13.045564	0.000235	2.351239	0.398311	0.004704
 824	4.1150e-01	8.2300	13.080630	0.000351	3.505484	0.593845	0.007013
 825	4.1200e-01	8.2355	13.091320	0.000107	1.068745	0.181050	0.002138
 826	4.1250e-01	8.2483	13.125958	0.000346	3.462734	0.586603	0.006928
 827	4.1300e-01	8.2550	13.172569	0.000466	4.659729	0.789379	0.009322
 828	4.1350e-01	8.2684	13.180266	0.000077	0.769497	0.130356	0.001539
 829	4.1400e-01	8.2770	13.227305	0.000470	4.702479	0.796621	0.009408
 830	4.1450e-01	8.2870	13.258094	0.000308	3.077986	0.521425	0.006158
 831	4.1500e-01	8.2962	13.263653	0.000056	0.555747	0.094146	0.001112
 832	4.1550e-01	8.3051	13.317106	0.000534	5.343726	0.905252	0.010691
 833	4.1600e-01	8.3191	13.349178	0.000321	3.206236	0.543151	0.006414
 834	4.1650e-01	8.3255	13.370987	0.000218	2.180240	0.369343	0.004362
 835	4.1700e-01	8.3374	13.407763	0.000368	3.676483	0.622813	0.007355
 836	4.1750e-01	8.3466	13.426151	0.000184	1.838242	0.311407	0.003678
 837	4.1800e-01	8.3582	13.462499	0.000363	3.633734	0.615571	0.007270
 838	4.1850e-01	8.3673	13.481314	0.000188	1.880992	0.318649	0.003763
 839	4.1900e-01	8.3795	13.523649	0.000423	4.232231	0.716959	0.008467
 840	4.1950e-01	8.3899	13.563418	0.000398	3.975732	0.673507	0.007954
 841	4.2000e-01	8.3984	13.562991	-0.000004	-0.042750	-0.007242	-0.000086
 842	4.2050e-01	8.4070	13.616872	0.000539	5.386476	0.912494	0.010776
 843	4.2100e-01	8.4155	13.627135	0.000103	1.025995	0.173808	0.002053
 844	4.2150e-01	8.4277	13.677594	0.000504	5.044477	0.854558	0.010092
 845	4.2200e-01	8.4351	13.715225	0.000376	3.761983	0.637297	0.007526
 846	4.2250e-01	8.4499	13.736179	0.000209	2.094741	0.354859	0.004191
 847	4.2300e-01	8.4552	13.752001	0.000158	1.581743	0.267954	0.003164
 848	4.2350e-01	8.4656	13.781080	0.000291	2.906987	0.492457	0.005816
 849	4.2400e-01	8.4760	13.822559	0.000415	4.146731	0.702475	0.008296
 850	4.2450e-01	8.4882	13.852066	0.000295	2.949737	0.499699	0.005901
 851	4.2500e-01	8.4985	13.854631	0.000026	0.256499	0.043452	0.000513
 852	4.2550e-01	8.5062	13.893545	0.000389	3.890232	0.659023	0.007783
 853	4.2600e-01	8.5162	13.917920	0.000244	2.436739	0.412795	0.004875
 854	4.2650e-01	8.5297	13.959827	0.000419	4.189481	0.709717	0.008381
 855	4.2700e-01	8.5358	13.997030	0.000372	3.719233	0.630055	0.007441
 856	4.2750e-01	8.5486	14.014991	0.000180	1.795492	0.304165	0.003592
 857	4.2800e-01	8.5602	14.051767	0.000368	3.676483	0.622813	0.007355
 858	4.2850e-01	8.5675	14.094101	0.000423	4.232231	0.716959	0.008467
 859	4.2900e-01	8.5773	14.114627	0.000205	2.051991	0.347617	0.004105
 860	4.2950e-01	8.5852	14.149693	0.000351	3.505484	0.593845	0.007013
 861	4.3000e-01	8.5999	14.179626	0.000299	2.992487	0.506941	0.005987
 862	4.3050e-01	8.6078	14.210416	0.000308	3.077986	0.521425	0.006158
 863	4.3100e-01	8.6200	14.220251	0.000098	0.983246	0.166566	0.001967
 864	4.3150e-01	8.6267	14.254033	0.000338	3.377235	0.572119	0.006756
 865	4.3200e-01	8.6359	14.296368	0.000423	4.232231	0.716959	0.008467
 866	4.3250e-01	8.6481	14.328868	0.000325	3.248985	0.550393	0.006500
 867	4.3300e-01	8.6584	14.360084	0.000312	3.120736	0.528667	0.006243
 868	4.3350e-01	8.6685	14.375906	0.000158	1.581743	0.267954	0.003164
 869	4.3400e-01	8.6774	14.409261	0.000333	3.334485	0.564877	0.006671
 870	4.3450e-01	8.6884	14.437912	0.000286	2.864237	0.485215	0.005730
 871	4.3500e-01	8.6969	14.453734	0.000158	1.581743	0.267954	0.003164
 872	4.3550e-01	8.7054	14.506332	0.000526	5.258226	0.890768	0.010520
 873	4.3600e-01	8.7189	14.524292	0.000180	1.795492	0.304165	0.003592
 874	4.3650e-01	8.7288	14.555509	0.000312	3.120736	0.528667	0.006243
 875	4.3700e-01	8.7369	14.578601	0.000231	2.308490	0.391069	0.004618
 876	4.3750e-01	8.7445	14.612811	0.000342	3.419985	0.579361	0.006842
 877	4.3800e-01	8.7555	14.647021	0.000342	3.419985	0.579361	0.006842
 878	4.3850e-01	8.7671	14.677382	0.000304	3.035236	0.514183	0.006072
 879	4.3900e-01	8.7750	14.700902	0.000235	2.351239	0.398311	0.004704
 880	4.3950e-01	8.7878	14.731263	0.000304	3.035236	0.514183	0.006072
 881	4.4000e-01	8.7982	14.770177	0.000389	3.890232	0.659023	0.007783
 882	4.4050e-01	8.8049	14.791986	0.000218	2.180240	0.369343	0.004362
 883	4.4100e-01	8.8159	14.823203	0.000312	3.120736	0.528667	0.006243
 884	4.4150e-01	8.8306	14.842873	0.000197	1.966491	0.333133	0.003934
 885	4.4200e-01	8.8361	14.881787	0.000389	3.890232	0.659023	0.007783
 886	4.4250e-01	8.8489	14.895899	0.000141	1.410744	0.238986	0.002822
 887	4.4300e-01	8.8568	14.946359	0.000504	5.044477	0.854558	0.010092
 888	4.4350e-01	8.8669	14.964319	0.000180	1.795492	0.304165	0.003592
 889	4.4400e-01	8.8788	14.988694	0.000244	2.436739	0.412795	0.004875
 890	4.4450e-01	8.8879	15.039581	0.000509	5.087227	0.861800	0.010177
 891	4.4500e-01	8.8980	15.061817	0.000222	2.222990	0.376585	0.004447
 892	4.4550e-01	8.9066	15.069515	0.000077	0.769497	0.130356	0.001539
 893	4.4600e-01	8.9175	15.105435	0.000359	3.590984	0.608329	0.007184
 894	4.4650e-01	8.9252	15.134514	0.000291	2.906987	0.492457	0.005816
 895	4.4700e-01	8.9380	15.169151	0.000346	3.462734	0.586603	0.006928
 896	4.4750e-01	8.9484	15.198658	0.000295	2.949737	0.499699	0.005901
 897	4.4800e-01	8.9557	15.218756	0.000201	2.009241	0.340375	0.004020
 898	4.4850e-01	8.9661	15.252538	0.000338	3.377235	0.572119	0.006756
 899	4.4900e-01	8.9783	15.273920	0.000214	2.137490	0.362101	0.004276
 900	4.4950e-01	8.9865	15.318393	0.000445	4.445980	0.753169	0.008895
 901	4.5000e-01	8.9978	15.342340	0.000239	2.393989	0.405553	0.004789
 902	4.5050e-01	9.0063	15.383392	0.000410	4.103982	0.695233	0.008210
 903	4.5100e-01	9.0167	15.397931	0.000145	1.453493	0.246228	0.002908
 904	4.5150e-01	9.0277	15.441121	0.000432	4.317731	0.731443	0.008638
 905	4.5200e-01	9.0381	15.468489	0.000274	2.735988	0.463489	0.005474
 906	4.5250e-01	9.0454	15.489870	0.000214	2.137490	0.362101	0.004276
 907	4.5300e-01	9.0572	15.533916	0.000440	4.403230	0.745927	0.008809
 908	4.5350e-01	9.0677	15.554442	0.000205	2.051991	0.347617	0.004105
 909	4.5400e-01	9.0790	15.577534	0.000231	2.308490	0.391069	0.004618
 910	4.5450e-01	9.0881	15.614737	0.000372	3.719233	0.630055	0.007441
 911	4.5500e-01	9.0936	15.631414	0.000167	1.667242	0.282439	0.003335
 912	4.5550e-01	9.1064	15.645526	0.000141	1.410744	0.238986	0.002822
 913	4.5600e-01	9.1193	15.698124	0.000526	5.258226	0.890768	0.010520
 914	4.5650e-01	9.1260	15.733189	0.000351	3.505484	0.593845	0.007013
 915	4.5700e-01	9.1364	15.769537	0.000363	3.633734	0.615571	0.007270
 916	4.5750e-01	9.1467	15.793912	0.000244	2.436739	0.412795	0.004875
 917	4.5800e-01	9.1565	15.811872	0.000180	1.795492	0.304165	0.003592
 918	4.5850e-01	9.1663	15.840523	0.000286	2.864237	0.485215	0.005730
 919	4.5900e-01	9.1766	15.880292	0.000398	3.975732	0.673507	0.007954
 920	4.5950e-01	9.1873	15.901673	0.000214	2.137490	0.362101	0.004276
 921	4.6000e-01	9.1980	15.926903	0.000252	2.522239	0.427279	0.005046
 922	4.6050e-01	9.2065	15.958120	0.000312	3.120736	0.528667	0.006243
 923	4.6100e-01	9.2188	15.967955	0.000098	0.983246	0.166566	0.001967
 924	4.6150e-01	9.2267	16.017560	0.000496	4.958978	0.840074	0.009921
 925	4.6200e-01	9.2340	16.035520	0.000180	1.795492	0.304165	0.003592
 926	4.6250e-01	9.2444	16.074434	0.000389	3.890232	0.659023	0.007783
 927	4.6300e-01	9.2554	16.120190	0.000457	4.574229	0.774895	0.009151
 928	4.6350e-01	9.2664	16.132163	0.000120	1.196995	0.202776	0.002395
 929	4.6400e-01	9.2764	16.177919	0.000457	4.574229	0.774895	0.009151
 930	4.6450e-01	9.2871	16.198445	0.000205	2.051991	0.347617	0.004105
 931	4.6500e-01	9.2999	16.220682	0.000222	2.222990	0.376585	0.004447
 932	4.6550e-01	9.3066	16.230945	0.000103	1.025995	0.173808	0.002053
 933	4.6600e-01	9.3167	16.283543	0.000526	5.258226	0.890768	0.010520
 934	4.6650e-01	9.3274	16.319036	0.000355	3.548234	0.601087	0.007099
 935	4.6700e-01	9.3347	16.305779	-0.000133	-1.325244	-0.224502	-0.002651
 936	4.6750e-01	9.3460	16.368640	0.000628	6.284222	1.064576	0.012572
 937	4.6800e-01	9.3570	16.411830	0.000432	4.317731	0.731443	0.008638
 938	4.6850e-01	9.3707	16.414396	0.000026	0.256499	0.043452	0.000513
 939	4.6900e-01	9.3799	16.452455	0.000380	3.804733	0.644539	0.007612
 940	4.6950e-01	9.3884	16.484099	0.000316	3.163486	0.535909	0.006329
 941	4.7000e-01	9.3964	16.508474	0.000244	2.436739	0.412795	0.004875
 942	4.7050e-01	9.4067	16.548243	0.000398	3.975732	0.673507	0.007954
 943	4.7100e-01	9.4186	16.574328	0.000261	2.607738	0.441763	0.005217
 944	4.7150e-01	9.4269	16.596565	0.000222	2.222990	0.376585	0.004447
 945	4.7200e-01	9.4366	16.628636	0.000321	3.206236	0.543151	0.006414
 946	4.7250e-01	9.4458	16.658143	0.000295	2.949737	0.499699	0.005901
 947	4.7300e-01	9.4568	16.672254	0.000141	1.410744	0.238986	0.002822
 948	4.7350e-01	9.4693	16.704326	0.000321	3.206236	0.543151	0.006414
 949	4.7400e-01	9.4763	16.759917	0.000556	5.557475	0.941462	0.011118
 950	4.7450e-01	9.4867	16.777450	0.000175	1.752742	0.296923	0.003507
 951	4.7500e-01	9.4962	16.803535	0.000261	2.607738	0.441763	0.005217
 952	4.7550e-01	9.5056	16.845015	0.000415	4.146731	0.702475	0.008296
 953	4.7600e-01	9.5197	16.850574	0.000056	0.555747	0.094146	0.001112
 954	4.7650e-01	9.5276	16.886067	0.000355	3.548234	0.601087	0.007099
 955	4.7700e-01	9.5407	16.934389	0.000483	4.830728	0.818348	0.009664
 956	4.7750e-01	9.5496	16.956625	0.000222	2.222990	0.376585	0.004447
 957	4.7800e-01	9.5569	16.966460	0.000098	0.983246	0.166566	0.001967
 958	4.7850e-01	9.5660	16.991690	0.000252	2.522239	0.427279	0.005046
 959	4.7900e-01	9.5752	17.035308	0.000436	4.360480	0.738685	0.008724
 960	4.7950e-01	9.5850	17.076788	0.000415	4.146731	0.702475	0.008296
 961	4.8000e-01	9.5966	17.103728	0.000269	2.693238	0.456247	0.005388
 962	4.8050e-01	9.6069	17.132379	0.000286	2.864237	0.485215	0.005730
 963	4.8100e-01	9.6149	17.152050	0.000197	1.966491	0.333133	0.003934
 964	4.8150e-01	9.6320	17.182839	0.000308	3.077986	0.521425	0.006158
 965	4.8200e-01	9.6362	17.206786	0.000239	2.393989	0.405553	0.004789
 966	4.8250e-01	9.6461	17.251686	0.000449	4.488730	0.760411	0.008980
 967	4.8300e-01	9.6558	17.281620	0.000299	2.992487	0.506941	0.005987
 968	4.8350e-01	9.6680	17.304284	0.000227	2.265740	0.383827	0.004533
 969	4.8400e-01	9.6765	17.326521	0.000222	2.222990	0.376585	0.004447
 970	4.8450e-01	9.6899	17.370994	0.000445	4.445980	0.753169	0.008895
 971	4.8500e-01	9.6979	17.398790	0.000278	2.778737	0.470731	0.005559
 972	4.8550e-01	9.7052	17.407770	0.000090	0.897746	0.152082	0.001796
 973	4.8600e-01	9.7168	17.439414	0.000316	3.163486	0.535909	0.006329
 974	4.8650e-01	9.7290	17.471486	0.000321	3.206236	0.543151	0.006414
 975	4.8700e-01	9.7382	17.500992	0.000295	2.949737	0.499699	0.005901
 976	4.8750e-01	9.7461	17.510400	0.000094	0.940496	0.159324	0.001882
 977	4.8800e-01	9.7565	17.563853	0.000534	5.343726	0.905252	0.010691
 978	4.8850e-01	9.7662	17.597208	0.000333	3.334485	0.564877	0.006671
 979	4.8900e-01	9.7766	17.626286	0.000291	2.906987	0.492457	0.005816
 980	4.8950e-01	9.7852	17.655365	0.000291	2.906987	0.492457	0.005816
 981	4.9000e-01	9.7992	17.678029	0.000227	2.265740	0.383827	0.004533
 982	4.9050e-01	9.8041	17.703259	0.000252	2.522239	0.427279	0.005046
 983	4.9100e-01	9.8157	17.733193	0.000299	2.992487	0.506941	0.005987
 984	4.9150e-01	9.8291	17.769968	0.000368	3.676483	0.622813	0.007355
 985	4.9200e-01	9.8358	17.789211	0.000192	1.923741	0.325891	0.003849
 986	4.9250e-01	9.8486	17.816579	0.000274	2.735988	0.463489	0.005474
 987	4.9300e-01	9.8547	17.855066	0.000385	3.847483	0.651781	0.007697
 988	4.9350e-01	9.8651	17.890131	0.000351	3.505484	0.593845	0.007013
 989	4.9400e-01	9.8755	17.908091	0.000180	1.795492	0.304165	0.003592
 990	4.9450e-01	9.8859	17.942301	0.000342	3.419985	0.579361	0.006842
 991	4.9500e-01	9.8976	17.989340	0.000470	4.702479	0.796621	0.009408
 992	4.9550e-01	9.9078	18.017563	0.000282	2.821487	0.477973	0.005645
 993	4.9600e-01	9.9173	18.033813	0.000162	1.624493	0.275197	0.003250
 994	4.9650e-01	9.9249	18.065885	0.000321	3.206236	0.543151	0.006414
 995	4.9700e-01	9.9384	18.090687	0.000248	2.479489	0.420037	0.004960
 996	4.9750e-01	9.9457	18.113351	0.000227	2.265740	0.383827	0.004533
 997	4.9800e-01	9.9561	18.154831	0.000415	4.146731	0.702475	0.008296
 998	4.9850e-01	9.9670	18.167660	0.000128	1.282494	0.217260	0.002566
 999	4.9900e-01	9.9780	18.202297	0.000346	3.462734	0.586603	0.006928
1000	4.9950e-01	9.9850	18.245060	0.000427	4.274981	0.724201	0.008553
1001	5.0000e-01	9.9982	18.259599	0.000145	1.453493	0.246228	0.002908
1002	5.0050e-01	9.9841	18.232231	0.000274	2.735988	0.463489	-0.005474
1003	5.0100e-01	9.9756	18.200587	0.000316	3.163486	0.535909	-0.006329
1004	5.0150e-01	9.9658	18.156969	0.000436	4.360480	0.738685	-0.008724
1005	5.0200e-01	9.9542	18.166377	-0.000094	-0.940496	-0.159324	0.001882
1006	5.0250e-01	9.9457	18.133450	0.000329	3.291735	0.557635	-0.006585
1007	5.0300e-01	9.9341	18.115490	0.000180	1.795492	0.304165	-0.003592
1008	5.0350e-01	9.9237	18.088977	0.000265	2.650488	0.449005	-0.005303
1009	5.0400e-01	9.9133	18.059043	0.000299	2.992487	0.506941	-0.005987
1010	5.0450e-01	9.9054	18.043221	0.000158	1.581743	0.267954	-0.003164
1011	5.0500e-01	9.8944	18.027399	0.000158	1.581743	0.267954	-0.003164
1012	5.0550e-01	9.8859	17.970525	0.000569	5.685724	0.963188	-0.011375
1013	5.0600e-01	9.8758	17.978649	-0.000081	-0.812246	-0.137598	0.001625
1014	5.0650e-01	9.8651	17.936742	0.000419	4.189481	0.709717	-0.008381
1015	5.0700e-01	9.8535	17.937597	-0.000009	-0.085500	-0.014484	0.000171
1016	5.0750e-01	9.8444	17.909374	0.000282	2.821487	0.477973	-0.005645
1017	5.0800e-01	9.8358	17.862335	0.000470	4.702479	0.796621	-0.009408
1018	5.0850e-01	9.8254	17.867467	-0.000051	-0.512998	-0.086904	0.001026
1019	5.0900e-01	9.8157	17.840526	0.000269	2.693238	0.456247	-0.005388
1020	5.0950e-01	9.8035	17.813586	0.000269	2.693238	0.456247	-0.005388
1021	5.1000e-01	9.7949	17.776383	0.000372	3.719233	0.630055	-0.007441
1022	5.1050e-01	9.7858	17.775100	0.000013	0.128249	0.021726	-0.000257
1023	5.1100e-01	9.7736	17.758422	0.000167	1.667242	0.282439	-0.003335
1024	5.1150e-01	9.7644	17.713949	0.000445	4.445980	0.753169	-0.008895
1025	5.1200e-01	9.7540	17.717798	-0.000038	-0.384748	-0.065178	0.000770
1026	5.1250e-01	9.7418	17.695989	0.000218	2.180240	0.369343	-0.004362
1027	5.1300e-01	9.7351	17.663917	0.000321	3.206236	0.543151	-0.006414
1028	5.1350e-01	9.7266	17.639970	0.000239	2.393989	0.405553	-0.004789
1029	5.1400e-01	9.7168	17.589083	0.000509	5.087227	0.861800	-0.010177
1030	5.1450e-01	9.7058	17.579675	0.000094	0.940496	0.159324	-0.001882
1031	5.1500e-01	9.6973	17.568557	0.000111	1.111495	0.188292	-0.002224
1032	5.1550e-01	9.6875	17.557439	0.000111	1.111495	0.188292	-0.002224
1033	5.1600e-01	9.6777	17.512965	0.000445	4.445980	0.753169	-0.008895
1034	5.1650e-01	9.6664	17.496288	0.000167	1.667242	0.282439	-0.003335
1035	5.1700e-01	9.6558	17.477900	0.000184	1.838242	0.311407	-0.003678
1036	5.1750e-01	9.6460	17.436421	0.000415	4.146731	0.702475	-0.008296
1037	5.1800e-01	9.6390	17.425730	0.000107	1.068745	0.181050	-0.002138
1038	5.1850e-01	9.6234	17.405204	0.000205	2.051991	0.347617	-0.004105
1039	5.1900e-01	9.6161	17.378264	0.000269	2.693238	0.456247	-0.005388
1040	5.1950e-01	9.6057	17.358593	0.000197	1.966491	0.333133	-0.003934
1041	5.2000e-01	9.5972	17.315830	0.000427	4.274981	0.724201	-0.008553
1042	5.2050e-01	9.5862	17.296159	0.000197	1.966491	0.333133	-0.003934
1043	5.2100e-01	9.5758	17.274778	0.000214	2.137490	0.362101	-0.004276
1044	5.2150e-01	9.5676	17.258101	0.000167	1.667242	0.282439	-0.003335
1045	5.2200e-01	9.5551	17.217049	0.000410	4.103982	0.695233	-0.008210
1046	5.2250e-01	9.5459	17.207641	0.000094	0.940496	0.159324	-0.001882
1047	5.2300e-01	9.5367	17.163596	0.000440	4.403230	0.745927	-0.008809
1048	5.2350e-01	9.5264	17.154188	0.000094	0.940496	0.159324	-0.001882
1049	5.2400e-01	9.5172	17.142642	0.000115	1.154245	0.195534	-0.002309
1050	5.2450e-01	9.5050	17.117840	0.000248	2.479489	0.420037	-0.004960
1051	5.2500e-01	9.4983	17.067380	0.000504	5.044477	0.854558	-0.010092
1052	5.2550e-01	9.4836	17.042578	0.000248	2.479489	0.420037	-0.004960
1053	5.2600e-01	9.4763	17.015637	0.000269	2.693238	0.456247	-0.005388
1054	5.2650e-01	9.4666	17.007940	0.000077	0.769497	0.130356	-0.001539
1055	5.2700e-01	9.4556	16.987842	0.000201	2.009241	0.340375	-0.004020
1056	5.2750e-01	9.4458	16.965605	0.000222	2.222990	0.376585	-0.004447
1057	5.2800e-01	9.4336	16.957053	0.000085	0.854996	0.144840	-0.001711
1058	5.2850e-01	9.4260	16.904027	0.000530	5.300976	0.898010	-0.010605
1059	5.2900e-01	9.4168	16.892481	0.000115	1.154245	0.195534	-0.002309
1060	5.2950e-01	9.4067	16.870672	0.000218	2.180240	0.369343	-0.004362
1061	5.3000e-01	9.3945	16.808667	0.000620	6.198722	1.050092	-0.012401
1062	5.3050e-01	9.3860	16.809094	-0.000004	-0.042750	-0.007242	0.000086
1063	5.3100e-01	9.3750	16.781299	0.000278	2.778737	0.470731	-0.005559
1064	5.3150e-01	9.3652	16.749227	0.000321	3.206236	0.543151	-0.006414
1065	5.3200e-01	9.3567	16.745806	0.000034	0.341998	0.057936	-0.000684
1066	5.3250e-01	9.3445	16.707747	0.000380	3.804733	0.644539	-0.007612
1067	5.3300e-01	9.3356	16.691925	0.000158	1.581743	0.267954	-0.003164
1068	5.3350e-01	9.3250	16.668406	0.000235	2.351239	0.398311	-0.004704
1069	5.3400e-01	9.3170	16.637189	0.000312	3.120736	0.528667	-0.006243
1070	5.3450e-01	9.3060	16.621367	0.000158	1.581743	0.267954	-0.003164
1071	5.3500e-01	9.2969	16.586729	0.000346	3.462734	0.586603	-0.006928
1072	5.3550e-01	9.2816	16.571762	0.000150	1.496243	0.253470	-0.002993
1073	5.3600e-01	9.2749	16.538407	0.000333	3.334485	0.564877	-0.006671
1074	5.3650e-01	9.2651	16.510612	0.000278	2.778737	0.470731	-0.005559
1075	5.3700e-01	9.2603	16.478540	0.000321	3.206236	0.543151	-0.006414
1076	5.3750e-01	9.2447	16.455876	0.000227	2.265740	0.383827	-0.004533
1077	5.3800e-01	9.2368	16.434922	0.000209	2.094741	0.354859	-0.004191
1078	5.3850e-01	9.2255	16.432784	0.000021	0.213749	0.036210	-0.000428
1079	5.3900e-01	9.2163	16.397291	0.000355	3.548234	0.601087	-0.007099
1080	5.3950e-01	9.2078	16.360088	0.000372	3.719233	0.630055	-0.007441
1081	5.4000e-01	9.1974	16.334858	0.000252	2.522239	0.427279	-0.005046
1082	5.4050e-01	9.1888	16.305352	0.000295	2.949737	0.499699	-0.005901
1083	5.4100e-01	9.1760	16.284826	0.000205	2.051991	0.347617	-0.004105
1084	5.4150e-01	9.1638	16.274135	0.000107	1.068745	0.181050	-0.002138
1085	5.4200e-01	9.1541	16.227096	0.000470	4.702479	0.796621	-0.009408
1086	5.4250e-01	9.1464	16.224103	0.000030	0.299249	0.050694	-0.000599
1087	5.4300e-01	9.1370	16.193742	0.000304	3.035236	0.514183	-0.006072
1088	5.4350e-01	9.1260	16.153545	0.000402	4.018482	0.680749	-0.008039
1089	5.4400e-01	9.1162	16.122328	0.000312	3.120736	0.528667	-0.006243
1090	5.4450e-01	9.1071	16.104368	0.000180	1.795492	0.304165	-0.003592
1091	5.4500e-01	9.0970	16.087690	0.000167	1.667242	0.282439	-0.003335
1092	5.4550e-01	9.0863	16.058184	0.000295	2.949737	0.499699	-0.005901
1093	5.4600e-01	9.0765	16.042362	0.000158	1.581743	0.267954	-0.003164
1094	5.4650e-01	9.0662	15.996179	0.000462	4.616979	0.782137	-0.009237
1095	5.4700e-01	9.0552	15.967955	0.000282	2.821487	0.477973	-0.005645
1096	5.4750e-01	9.0454	15.965817	0.000021	0.213749	0.036210	-0.000428
1097	5.4800e-01	9.0363	15.922627	0.000432	4.317731	0.731443	-0.008638
1098	5.4850e-01	9.0271	15.903812	0.000188	1.880992	0.318649	-0.003763
1099	5.4900e-01	9.0167	15.882858	0.000209	2.094741	0.354859	-0.004191
1100	5.4950e-01	9.0076	15.855062	0.000278	2.778737	0.470731	-0.005559
1101	5.5000e-01	8.9972	15.831115	0.000239	2.393989	0.405553	-0.004789
1102	5.5050e-01	8.9862	15.788780	0.000423	4.232231	0.716959	-0.008467
1103	5.5100e-01	8.9761	15.762695	0.000261	2.607738	0.441763	-0.005217
1104	5.5150e-01	8.9651	15.755426	0.000073	0.726747	0.123114	-0.001454
1105	5.5200e-01	8.9563	15.713946	0.000415	4.146731	0.702475	-0.008296
1106	5.5250e-01	8.9459	15.705821	0.000081	0.812246	0.137598	-0.001625
1107	5.5300e-01	8.9337	15.671611	0.000342	3.419985	0.579361	-0.006842
1108	5.5350e-01	8.9252	15.633980	0.000376	3.761983	0.637297	-0.007526
1109	5.5400e-01	8.9142	15.589935	0.000440	4.403230	0.745927	-0.008809
1110	5.5450e-01	8.9063	15.599342	-0.000094	-0.940496	-0.159324	0.001882
1111	5.5500e-01	8.8959	15.556152	0.000432	4.317731	0.731443	-0.008638
1112	5.5550e-01	8.8843	15.551021	0.000051	0.512998	0.086904	-0.001026
1113	5.5600e-01	8.8776	15.519376	0.000316	3.163486	0.535909	-0.006329
1114	5.5650e-01	8.8666	15.483028	0.000363	3.633734	0.615571	-0.007270
1115	5.5700e-01	8.8544	15.437700	0.000453	4.531480	0.767653	-0.009066
1116	5.5750e-01	8.8461	15.427437	0.000103	1.025995	0.173808	-0.002053
1117	5.5800e-01	8.8342	15.407766	0.000197	1.966491	0.333133	-0.003934
1118	5.5850e-01	8.8248	15.388096	0.000197	1.966491	0.333133	-0.003934
1119	5.5900e-01	8.8165	15.370990	0.000171	1.709992	0.289681	-0.003421
1120	5.5950e-01	8.8055	15.328228	0.000427	4.274981	0.724201	-0.008553
1121	5.6000e-01	8.7982	15.307702	0.000205	2.051991	0.347617	-0.004105
1122	5.6050e-01	8.7878	15.287176	0.000205	2.051991	0.347617	-0.004105
1123	5.6100e-01	8.7744	15.246124	0.000410	4.103982	0.695233	-0.008210
1124	5.6150e-01	8.7653	15.223460	0.000227	2.265740	0.383827	-0.004533
1125	5.6200e-01	8.7576	15.215763	0.000077	0.769497	0.130356	-0.001539
1126	5.6250e-01	8.7500	15.178987	0.000368	3.676483	0.622813	-0.007355
1127	5.6300e-01	8.7372	15.137935	0.000410	4.103982	0.695233	-0.008210
1128	5.6350e-01	8.7241	15.102442	0.000355	3.548234	0.601087	-0.007099
1129	5.6400e-01	8.7146	15.077212	0.000252	2.522239	0.427279	-0.005046
1130	5.6450e-01	8.7054	15.058824	0.000184	1.838242	0.311407	-0.003678
1131	5.6500e-01	8.6963	15.045995	0.000128	1.282494	0.217260	-0.002566
1132	5.6550e-01	8.6884	15.004088	0.000419	4.189481	0.709717	-0.008381
1133	5.6600e-01	8.6783	14.986555	0.000175	1.752742	0.296923	-0.003507
1134	5.6650e-01	8.6703	14.943365	0.000432	4.317731	0.731443	-0.008638
1135	5.6700e-01	8.6554	14.930536	0.000128	1.282494	0.217260	-0.002566
1136	5.6750e-01	8.6475	14.918135	0.000124	1.239744	0.210018	-0.002480
1137	5.6800e-01	8.6365	14.891623	0.000265	2.650488	0.449005	-0.005303
1138	5.6850e-01	8.6285	14.852281	0.000393	3.932982	0.666265	-0.007868
1139	5.6900e-01	8.6176	14.833038	0.000192	1.923741	0.325891	-0.003849
1140	5.6950e-01	8.6053	14.795407	0.000376	3.761983	0.637297	-0.007526
1141	5.7000e-01	8.5944	14.764190	0.000312	3.120736	0.528667	-0.006243
1142	5.7050e-01	8.5870	14.729980	0.000342	3.419985	0.579361	-0.006842
1143	5.7100e-01	8.5760	14.710737	0.000192	1.923741	0.325891	-0.003849
1144	5.7150e-01	8.5663	14.690639	0.000201	2.009241	0.340375	-0.004020
1145	5.7200e-01	8.5577	14.661560	0.000291	2.906987	0.492457	-0.005816
1146	5.7250e-01	8.5480	14.635475	0.000261	2.607738	0.441763	-0.005217
1147	5.7300e-01	8.5376	14.618370	0.000171	1.709992	0.289681	-0.003421
1148	5.7350e-01	8.5248	14.577746	0.000406	4.061232	0.687991	-0.008125
1149	5.7400e-01	8.5190	14.560641	0.000171	1.709992	0.289681	-0.003421
1150	5.7450e-01	8.5059	14.531990	0.000286	2.864237	0.485215	-0.005730
1151	5.7500e-01	8.4973	14.495642	0.000363	3.633734	0.615571	-0.007270
1152	5.7550e-01	8.4875	14.481530	0.000141	1.410744	0.238986	-0.002822
1153	5.7600e-01	8.4756	14.440050	0.000415	4.146731	0.702475	-0.008296
1154	5.7650e-01	8.4656	14.430215	0.000098	0.983246	0.166566	-0.001967
1155	5.7700e-01	8.4552	14.402419	0.000278	2.778737	0.470731	-0.005559
1156	5.7750e-01	8.4491	14.366499	0.000359	3.590984	0.608329	-0.007184
1157	5.7800e-01	8.4363	14.347256	0.000192	1.923741	0.325891	-0.003849
1158	5.7850e-01	8.4250	14.317749	0.000295	2.949737	0.499699	-0.005901
1159	5.7900e-01	8.4155	14.275415	0.000423	4.232231	0.716959	-0.008467
1160	5.7950e-01	8.4070	14.235645	0.000398	3.975732	0.673507	-0.007954
1161	5.8000e-01	8.3948	14.248902	-0.000133	-1.325244	-0.224502	0.002651
1162	5.8050e-01	8.3862	14.192883	0.000560	5.600225	0.948704	-0.011204
1163	5.8100e-01	8.3749	14.167653	0.000252	2.522239	0.427279	-0.005046
1164	5.8150e-01	8.3640	14.135153	0.000325	3.248985	0.550393	-0.006500
1165	5.8200e-01	8.3563	14.106930	0.000282	2.821487	0.477973	-0.005645
1166	5.8250e-01	8.3453	14.106930	-0.000000	-0.000000	-0.000000	0.000000
1167	5.8300e-01	8.3350	14.058181	0.000487	4.873478	0.825590	-0.009750
1168	5.8350e-01	8.3279	14.034662	0.000235	2.351239	0.398311	-0.004704
1169	5.8400e-01	8.3191	14.034234	0.000004	0.042750	0.007242	-0.000086
1170	5.8450e-01	8.3051	13.995748	0.000385	3.847483	0.651781	-0.007697
1171	5.8500e-01	8.2950	13.953413	0.000423	4.232231	0.716959	-0.008467
1172	5.8550e-01	8.2874	13.932887	0.000205	2.051991	0.347617	-0.004105
1173	5.8600e-01	8.2764	13.917920	0.000150	1.496243	0.253470	-0.002993
1174	5.8650e-01	8.2657	13.866177	0.000517	5.172727	0.876284	-0.010349
1175	5.8700e-01	8.2556	13.837099	0.000291	2.906987	0.492457	-0.005816
1176	5.8750e-01	8.2437	13.815290	0.000218	2.180240	0.369343	-0.004362
1177	5.8800e-01	8.2358	13.786639	0.000286	2.864237	0.485215	-0.005730
1178	5.8850e-01	8.2257	13.763119	0.000235	2.351239	0.398311	-0.004704
1179	5.8900e-01	8.2184	13.745587	0.000175	1.752742	0.296923	-0.003507
1180	5.8950e-01	8.2062	13.721212	0.000244	2.436739	0.412795	-0.004875
1181	5.9000e-01	8.1976	13.695555	0.000256	2.564988	0.434521	-0.005132
1182	5.9050e-01	8.1854	13.656641	0.000389	3.890232	0.659023	-0.007783
1183	5.9100e-01	8.1757	13.604470	0.000522	5.215477	0.883526	-0.010434
1184	5.9150e-01	8.1671	13.612595	-0.000081	-0.812246	-0.137598	0.001625
1185	5.9200e-01	8.1544	13.580096	0.000325	3.248985	0.550393	-0.006500
1186	5.9250e-01	8.1479	13.549734	0.000304	3.035236	0.514183	-0.006072
1187	5.9300e-01	8.1345	13.514669	0.000351	3.505484	0.593845	-0.007013
1188	5.9350e-01	8.1265	13.497992	0.000167	1.667242	0.282439	-0.003335
1189	5.9400e-01	8.1134	13.471907	0.000261	2.607738	0.441763	-0.005217
1190	5.9450e-01	8.1049	13.426578	0.000453	4.531480	0.767653	-0.009066
1191	5.9500e-01	8.0951	13.409901	0.000167	1.667242	0.282439	-0.003335
1192	5.9550e-01	8.0847	13.382533	0.000274	2.735988	0.463489	-0.005474
1193	5.9600e-01	8.0765	13.343619	0.000389	3.890232	0.659023	-0.007783
1194	5.9650e-01	8.0661	13.324804	0.000188	1.880992	0.318649	-0.003763
1195	5.9700e-01	8.0579	13.294870	0.000299	2.992487	0.506941	-0.005987
1196	5.9750e-01	8.0463	13.250397	0.000445	4.445980	0.753169	-0.008895
1197	5.9800e-01	8.0359	13.239279	0.000111	1.111495	0.188292	-0.002224
1198	5.9850e-01	8.0243	13.230726	0.000085	0.854996	0.144840	-0.001711
1199	5.9900e-01	8.0173	13.183687	0.000470	4.702479	0.796621	-0.009408
1200	5.9950e-01	8.0066	13.167865	0.000158	1.581743	0.267954	-0.003164
1201	6.0000e-01	7.9938	13.125530	0.000423	4.232231	0.716959	-0.008467
1202	6.0050e-01	7.9858	13.116122	0.000094	0.940496	0.159324	-0.001882
1203	6.0100e-01	7.9761	13.081057	0.000351	3.505484	0.593845	-0.007013
1204	6.0150e-01	7.9675	13.041716	0.000393	3.932982	0.666265	-0.007868
1205	6.0200e-01	7.9547	13.021190	0.000205	2.051991	0.347617	-0.004105
1206	6.0250e-01	7.9446	12.982276	0.000389	3.890232	0.659023	-0.007783
1207	6.0300e-01	7.9346	12.960894	0.000214	2.137490	0.362101	-0.004276
1208	6.0350e-01	7.9251	12.930105	0.000308	3.077986	0.521425	-0.006158
1209	6.0400e-01	7.9138	12.900599	0.000295	2.949737	0.499699	-0.005901
1210	6.0450e-01	7.9059	12.877080	0.000235	2.351239	0.398311	-0.004704
1211	6.0500e-01	7.8967	12.847574	0.000295	2.949737	0.499699	-0.005901
1212	6.0550e-01	7.8845	12.836883	0.000107	1.068745	0.181050	-0.002138
1213	6.0600e-01	7.8766	12.790272	0.000466	4.659729	0.789379	-0.009322
1214	6.0650e-01	7.8668	12.780437	0.000098	0.983246	0.166566	-0.001967
1215	6.0700e-01	7.8558	12.744944	0.000355	3.548234	0.601087	-0.007099
1216	6.0750e-01	7.8448	12.693629	0.000513	5.129977	0.869042	-0.010263
1217	6.0800e-01	7.8326	12.692773	0.000009	0.085500	0.014484	-0.000171
1218	6.0850e-01	7.8244	12.650866	0.000419	4.189481	0.709717	-0.008381
1219	6.0900e-01	7.8156	12.622215	0.000286	2.864237	0.485215	-0.005730
1220	6.0950e-01	7.8064	12.600406	0.000218	2.180240	0.369343	-0.004362
1221	6.1000e-01	7.7954	12.561492	0.000389	3.890232	0.659023	-0.007783
1222	6.1050e-01	7.7844	12.545243	0.000162	1.624493	0.275197	-0.003250
1223	6.1100e-01	7.7747	12.485375	0.000598	5.984973	1.013882	-0.011974
1224	6.1150e-01	7.7655	12.481099	0.000043	0.427498	0.072420	-0.000855
1225	6.1200e-01	7.7563	12.454158	0.000269	2.693238	0.456247	-0.005388
1226	6.1250e-01	7.7466	12.418238	0.000359	3.590984	0.608329	-0.007184
1227	6.1300e-01	7.7338	12.398567	0.000197	1.966491	0.333133	-0.003934
1228	6.1350e-01	7.7234	12.393863	0.000047	0.470248	0.079662	-0.000941
1229	6.1400e-01	7.7113	12.364785	0.000291	2.906987	0.492457	-0.005816
1230	6.1450e-01	7.7081	12.299786	0.000650	6.497971	1.100786	-0.013000
1231	6.1500e-01	7.6971	12.294227	0.000056	0.555747	0.094146	-0.001112
1232	6.1550e-01	7.6855	12.257451	0.000368	3.676483	0.622813	-0.007355
1233	6.1600e-01	7.6746	12.210840	0.000466	4.659729	0.789379	-0.009322
1234	6.1650e-01	7.6678	12.198439	0.000124	1.239744	0.210018	-0.002480
1235	6.1700e-01	7.6569	12.168932	0.000295	2.949737	0.499699	-0.005901
1236	6.1750e-01	7.6450	12.142420	0.000265	2.650488	0.449005	-0.005303
1237	6.1800e-01	7.6398	12.101795	0.000406	4.061232	0.687991	-0.008125
1238	6.1850e-01	7.6251	12.078276	0.000235	2.351239	0.398311	-0.004704
1239	6.1900e-01	7.6129	12.068013	0.000103	1.025995	0.173808	-0.002053
1240	6.1950e-01	7.6044	12.040645	0.000274	2.735988	0.463489	-0.005474
1241	6.2000e-01	7.5970	12.009428	0.000312	3.120736	0.528667	-0.006243
1242	6.2050e-01	7.5851	11.971370	0.000380	3.804733	0.644539	-0.007612
1243	6.2100e-01	7.5754	11.938015	0.000333	3.334485	0.564877	-0.006671
1244	6.2150e-01	7.5665	11.895680	0.000423	4.232231	0.716959	-0.008467
1245	6.2200e-01	7.5525	11.910647	-0.000150	-1.496243	-0.253470	0.002993
1246	6.2250e-01	7.5464	11.873871	0.000368	3.676483	0.622813	-0.007355
1247	6.2300e-01	7.5391	11.839661	0.000342	3.419985	0.579361	-0.006842
1248	6.2350e-01	7.5272	11.805451	0.000342	3.419985	0.579361	-0.006842
1249	6.2400e-01	7.5159	11.787063	0.000184	1.838242	0.311407	-0.003678
1250	6.2450e-01	7.5070	11.747294	0.000398	3.975732	0.673507	-0.007954
1251	6.2500e-01	7.4940	11.709235	0.000380	3.804733	0.644539	-0.007612
1252	6.2550e-01	7.4884	11.692986	0.000162	1.624493	0.275197	-0.003250
1253	6.2600e-01	7.4734	11.664762	0.000282	2.821487	0.477973	-0.005645
1254	6.2650e-01	7.4646	11.620717	0.000440	4.403230	0.745927	-0.008809
1255	6.2700e-01	7.4585	11.594204	0.000265	2.650488	0.449005	-0.005303
1256	6.2750e-01	7.4463	11.574961	0.000192	1.923741	0.325891	-0.003849
1257	6.2800e-01	7.4344	11.557428	0.000175	1.752742	0.296923	-0.003507
1258	6.2850e-01	7.4255	11.518942	0.000385	3.847483	0.651781	-0.007697
1259	6.2900e-01	7.4170	11.485587	0.000333	3.334485	0.564877	-0.006671
1260	6.2950e-01	7.4066	11.443680	0.000419	4.189481	0.709717	-0.008381
1261	6.3000e-01	7.3962	11.438548	0.000051	0.512998	0.086904	-0.001026
1262	6.3050e-01	7.3854	11.403056	0.000355	3.548234	0.601087	-0.007099
1263	6.3100e-01	7.3767	11.365852	0.000372	3.719233	0.630055	-0.007441
1264	6.3150e-01	7.3660	11.339767	0.000261	2.607738	0.441763	-0.005217
1265	6.3200e-01	7.3560	11.307268	0.000325	3.248985	0.550393	-0.006500
1266	6.3250e-01	7.3450	11.289735	0.000175	1.752742	0.296923	-0.003507
1267	6.3300e-01	7.3346	11.237992	0.000517	5.172727	0.876284	-0.010349
1268	6.3350e-01	7.3267	11.222170	0.000158	1.581743	0.267954	-0.003164
1269	6.3400e-01	7.3187	11.183684	0.000385	3.847483	0.651781	-0.007697
1270	6.3450e-01	7.3053	11.147763	0.000359	3.590984	0.608329	-0.007184
1271	6.3500e-01	7.2980	11.129803	0.000180	1.795492	0.304165	-0.003592
1272	6.3550e-01	7.2853	11.102863	0.000269	2.693238	0.456247	-0.005388
1273	6.3600e-01	7.2769	11.090889	0.000120	1.196995	0.202776	-0.002395
1274	6.3650e-01	7.2662	11.052403	0.000385	3.847483	0.651781	-0.007697
1275	6.3700e-01	7.2556	11.030166	0.000222	2.222990	0.376585	-0.004447
1276	6.3750e-01	7.2473	10.989542	0.000406	4.061232	0.687991	-0.008125
1277	6.3800e-01	7.2348	10.977568	0.000120	1.196995	0.202776	-0.002395
1278	6.3850e-01	7.2253	10.937372	0.000402	4.018482	0.680749	-0.008039
1279	6.3900e-01	7.2144	10.899741	0.000376	3.761983	0.637297	-0.007526
1280	6.3950e-01	7.2061	10.887339	0.000124	1.239744	0.210018	-0.002480
1281	6.4000e-01	7.1945	10.853557	0.000338	3.377235	0.572119	-0.006756
1282	6.4050e-01	7.1857	10.823623	0.000299	2.992487	0.506941	-0.005987
1283	6.4100e-01	7.1765	10.774874	0.000487	4.873478	0.825590	-0.009750
1284	6.4150e-01	7.1655	10.763756	0.000111	1.111495	0.188292	-0.002224
1285	6.4200e-01	7.1564	10.726980	0.000368	3.676483	0.622813	-0.007355
1286	6.4250e-01	7.1460	10.702605	0.000244	2.436739	0.412795	-0.004875
1287	6.4300e-01	7.1350	10.688066	0.000145	1.453493	0.246228	-0.002908
1288	6.4350e-01	7.1252	10.644448	0.000436	4.360480	0.738685	-0.008724
1289	6.4400e-01	7.1162	10.608528	0.000359	3.590984	0.608329	-0.007184
1290	6.4450e-01	7.1048	10.587147	0.000214	2.137490	0.362101	-0.004276
1291	6.4500e-01	7.0981	10.549088	0.000380	3.804733	0.644539	-0.007612
1292	6.4550e-01	7.0868	10.504615	0.000445	4.445980	0.753169	-0.008895
1293	6.4600e-01	7.0770	10.487082	0.000175	1.752742	0.296923	-0.003507
1294	6.4650e-01	7.0660	10.474681	0.000124	1.239744	0.210018	-0.002480
1295	6.4700e-01	7.0575	10.442609	0.000321	3.206236	0.543151	-0.006414
1296	6.4750e-01	7.0465	10.409254	0.000333	3.334485	0.564877	-0.006671
1297	6.4800e-01	7.0374	10.380176	0.000291	2.906987	0.492457	-0.005816
1298	6.4850e-01	7.0251	10.350242	0.000299	2.992487	0.506941	-0.005987
1299	6.4900e-01	7.0166	10.328006	0.000222	2.222990	0.376585	-0.004447
1300	6.4950e-01	7.0056	10.287809	0.000402	4.018482	0.680749	-0.008039
1301	6.5000e-01	6.9934	10.258303	0.000295	2.949737	0.499699	-0.005901
1302	6.5050e-01	6.9867	10.220244	0.000380	3.804733	0.644539	-0.007612
1303	6.5100e-01	6.9754	10.192448	0.000278	2.778737	0.470731	-0.005559
1304	6.5150e-01	6.9641	10.163370	0.000291	2.906987	0.492457	-0.005816
1305	6.5200e-01	6.9537	10.137285	0.000261	2.607738	0.441763	-0.005217
1306	6.5250e-01	6.9458	10.097088	0.000402	4.018482	0.680749	-0.008039
1307	6.5300e-01	6.9379	10.061167	0.000359	3.590984	0.608329	-0.007184
1308	6.5350e-01	6.9238	10.029096	0.000321	3.206236	0.543151	-0.006414
1309	6.5400e-01	6.9153	10.012846	0.000162	1.624493	0.275197	-0.003250
1310	6.5450e-01	6.9073	10.002583	0.000103	1.025995	0.173808	-0.002053
1311	6.5500e-01	6.8958	9.956827	0.000457	4.574229	0.774895	-0.009151
1312	6.5550e-01	6.8860	9.925183	0.000316	3.163486	0.535909	-0.006329
1313	6.5600e-01	6.8771	9.891828	0.000333	3.334485	0.564877	-0.006671
1314	6.5650e-01	6.8634	9.852914	0.000389	3.890232	0.659023	-0.007783
1315	6.5700e-01	6.8558	9.818704	0.000342	3.419985	0.579361	-0.006842
1316	6.5750e-01	6.8494	9.807158	0.000115	1.154245	0.195534	-0.002309
1317	6.5800e-01	6.8359	9.772093	0.000351	3.505484	0.593845	-0.007013
1318	6.5850e-01	6.8268	9.734462	0.000376	3.761983	0.637297	-0.007526
1319	6.5900e-01	6.8164	9.713936	0.000205	2.051991	0.347617	-0.004105
1320	6.5950e-01	6.8048	9.708804	0.000051	0.512998	0.086904	-0.001026
1321	6.6000e-01	6.7963	9.657062	0.000517	5.172727	0.876284	-0.010349
1322	6.6050e-01	6.7839	9.609168	0.000479	4.787978	0.811106	-0.009579
1323	6.6100e-01	6.7761	9.600187	0.000090	0.897746	0.152082	-0.001796
1324	6.6150e-01	6.7664	9.568543	0.000316	3.163486	0.535909	-0.006329
1325	6.6200e-01	6.7563	9.532195	0.000363	3.633734	0.615571	-0.007270
1326	6.6250e-01	6.7456	9.506537	0.000256	2.564988	0.434521	-0.005132
1327	6.6300e-01	6.7361	9.471472	0.000351	3.505484	0.593845	-0.007013
1328	6.6350e-01	6.7252	9.451801	0.000197	1.966491	0.333133	-0.003934
1329	6.6400e-01	6.7154	9.418874	0.000329	3.291735	0.557635	-0.006585
1330	6.6450e-01	6.7053	9.389796	0.000291	2.906987	0.492457	-0.005816
1331	6.6500e-01	6.6974	9.368842	0.000209	2.094741	0.354859	-0.004191
1332	6.6550e-01	6.6870	9.334632	0.000342	3.419985	0.579361	-0.006842
1333	6.6600e-01	6.6751	9.296573	0.000380	3.804733	0.644539	-0.007612
1334	6.6650e-01	6.6656	9.269633	0.000269	2.693238	0.456247	-0.005388
1335	6.6700e-01	6.6535	9.240982	0.000286	2.864237	0.485215	-0.005730
1336	6.6750e-01	6.6473	9.191805	0.000492	4.916228	0.832832	-0.009835
1337	6.6800e-01	6.6364	9.170852	0.000209	2.094741	0.354859	-0.004191
1338	6.6850e-01	6.6284	9.140063	0.000308	3.077986	0.521425	-0.006158
1339	6.6900e-01	6.6144	9.129372	0.000107	1.068745	0.181050	-0.002138
1340	6.6950e-01	6.6049	9.094307	0.000351	3.505484	0.593845	-0.007013
1341	6.7000e-01	6.5958	9.054965	0.000393	3.932982	0.666265	-0.007868
1342	6.7050e-01	6.5875	9.018189	0.000368	3.676483	0.622813	-0.007355
1343	6.7100e-01	6.5787	8.982269	0.000359	3.590984	0.608329	-0.007184
1344	6.7150e-01	6.5668	8.960888	0.000214	2.137490	0.362101	-0.004276
1345	6.7200e-01	6.5576	8.926678	0.000342	3.419985	0.579361	-0.006842
1346	6.7250e-01	6.5463	8.898882	0.000278	2.778737	0.470731	-0.005559
1347	6.7300e-01	6.5363	8.874507	0.000244	2.436739	0.412795	-0.004875
1348	6.7350e-01	6.5234	8.831317	0.000432	4.317731	0.731443	-0.008638
1349	6.7400e-01	6.5143	8.801811	0.000295	2.949737	0.499699	-0.005901
1350	6.7450e-01	6.5051	8.777009	0.000248	2.479489	0.420037	-0.004960
1351	6.7500e-01	6.4954	8.752634	0.000244	2.436739	0.412795	-0.004875
1352	6.7550e-01	6.4868	8.716286	0.000363	3.633734	0.615571	-0.007270
1353	6.7600e-01	6.4746	8.692767	0.000235	2.351239	0.398311	-0.004704
1354	6.7650e-01	6.4645	8.654280	0.000385	3.847483	0.651781	-0.007697
1355	6.7700e-01	6.4563	8.620070	0.000342	3.419985	0.579361	-0.006842
1356	6.7750e-01	6.4453	8.612801	0.000073	0.726747	0.123114	-0.001454
1357	6.7800e-01	6.4331	8.562768	0.000500	5.001727	0.847316	-0.010006
1358	6.7850e-01	6.4249	8.540960	0.000218	2.180240	0.369343	-0.004362
1359	6.7900e-01	6.4166	8.497769	0.000432	4.317731	0.731443	-0.008638
1360	6.7950e-01	6.4056	8.470829	0.000269	2.693238	0.456247	-0.005388
1361	6.8000e-01	6.3959	8.436191	0.000346	3.462734	0.586603	-0.006928
1362	6.8050e-01	6.3885	8.407113	0.000291	2.906987	0.492457	-0.005816
1363	6.8100e-01	6.3773	8.371620	0.000355	3.548234	0.601087	-0.007099
1364	6.8150e-01	6.3660	8.336982	0.000346	3.462734	0.586603	-0.006928
1365	6.8200e-01	6.3565	8.313891	0.000231	2.308490	0.391069	-0.004618
1366	6.8250e-01	6.3464	8.271983	0.000419	4.189481	0.709717	-0.008381
1367	6.8300e-01	6.3351	8.249747	0.000222	2.222990	0.376585	-0.004447
1368	6.8350e-01	6.3293	8.219385	0.000304	3.035236	0.514183	-0.006072
1369	6.8400e-01	6.3168	8.183465	0.000359	3.590984	0.608329	-0.007184
1370	6.8450e-01	6.3031	8.152248	0.000312	3.120736	0.528667	-0.006243
1371	6.8500e-01	6.2970	8.142413	0.000098	0.983246	0.166566	-0.001967
1372	6.8550e-01	6.2839	8.096229	0.000462	4.616979	0.782137	-0.009237
1373	6.8600e-01	6.2772	8.072282	0.000239	2.393989	0.405553	-0.004789
1374	6.8650e-01	6.2671	8.042349	0.000299	2.992487	0.506941	-0.005987
1375	6.8700e-01	6.2604	8.014553	0.000278	2.778737	0.470731	-0.005559
1376	6.8750e-01	6.2469	7.985047	0.000295	2.949737	0.499699	-0.005901
1377	6.8800e-01	6.2357	7.931594	0.000534	5.343726	0.905252	-0.010691
1378	6.8850e-01	6.2268	7.914916	0.000167	1.667242	0.282439	-0.003335
1379	6.8900e-01	6.2167	7.871298	0.000436	4.360480	0.738685	-0.008724
1380	6.8950e-01	6.2073	7.850772	0.000205	2.051991	0.347617	-0.004105
1381	6.9000e-01	6.1945	7.838371	0.000124	1.239744	0.210018	-0.002480
1382	6.9050e-01	6.1865	7.778931	0.000594	5.942223	1.006640	-0.011888
1383	6.9100e-01	6.1761	7.760971	0.000180	1.795492	0.304165	-0.003592
1384	6.9150e-01	6.1655	7.726333	0.000346	3.462734	0.586603	-0.006928
1385	6.9200e-01	6.1548	7.699393	0.000269	2.693238	0.456247	-0.005388
1386	6.9250e-01	6.1469	7.666466	0.000329	3.291735	0.557635	-0.006585
1387	6.9300e-01	6.1359	7.624559	0.000419	4.189481	0.709717	-0.008381
1388	6.9350e-01	6.1249	7.613013	0.000115	1.154245	0.195534	-0.002309
1389	6.9400e-01	6.1195	7.565974	0.000470	4.702479	0.796621	-0.009408
1390	6.9450e-01	6.1116	7.543737	0.000222	2.222990	0.376585	-0.004447
1391	6.9500e-01	6.0953	7.514659	0.000291	2.906987	0.492457	-0.005816
1392	6.9550e-01	6.0870	7.475317	0.000393	3.932982	0.666265	-0.007868
1393	6.9600e-01	6.0760	7.458640	0.000167	1.667242	0.282439	-0.003335
1394	6.9650e-01	6.0675	7.408180	0.000504	5.044477	0.854558	-0.010092
1395	6.9700e-01	6.0550	7.382095	0.000261	2.607738	0.441763	-0.005217
1396	6.9750e-01	6.0471	7.367983	0.000141	1.410744	0.238986	-0.002822
1397	6.9800e-01	6.0359	7.308544	0.000594	5.942223	1.006640	-0.011888
1398	6.9850e-01	6.0242	7.274761	0.000338	3.377235	0.572119	-0.006756
1399	6.9900e-01	6.0126	7.249104	0.000256	2.564988	0.434521	-0.005132
1400	6.9950e-01	6.0077	7.212756	0.000363	3.633734	0.615571	-0.007270
1401	7.0000e-01	5.9979	7.187098	0.000256	2.564988	0.434521	-0.005132
1402	7.0050e-01	5.9851	7.165717	0.000214	2.137490	0.362101	-0.004276
1403	7.0100e-01	5.9747	7.126803	0.000389	3.890232	0.659023	-0.007783
1404	7.0150e-01	5.9653	7.095586	0.000312	3.120736	0.528667	-0.006243
1405	7.0200e-01	5.9562	7.066080	0.000295	2.949737	0.499699	-0.005901
1406	7.0250e-01	5.9454	7.016903	0.000492	4.916228	0.832832	-0.009835
1407	7.0300e-01	5.9363	6.978844	0.000380	3.804733	0.644539	-0.007612
1408	7.0350e-01	5.9271	6.966016	0.000128	1.282494	0.217260	-0.002566
1409	7.0400e-01	5.9174	6.928812	0.000372	3.719233	0.630055	-0.007441
1410	7.0450e-01	5.9064	6.910852	0.000180	1.795492	0.304165	-0.003592
1411	7.0500e-01	5.8948	6.866807	0.000440	4.403230	0.745927	-0.008809
1412	7.0550e-01	5.8868	6.821478	0.000453	4.531480	0.767653	-0.009066
1413	7.0600e-01	5.8789	6.825327	-0.000038	-0.384748	-0.065178	0.000770
1414	7.0650e-01	5.8676	6.771019	0.000543	5.429226	0.919736	-0.010862
1415	7.0700e-01	5.8539	6.750920	0.000201	2.009241	0.340375	-0.004020
1416	7.0750e-01	5.8473	6.716710	0.000342	3.419985	0.579361	-0.006842
1417	7.0800e-01	5.8368	6.680362	0.000363	3.633734	0.615571	-0.007270
1418	7.0850e-01	5.8252	6.638027	0.000423	4.232231	0.716959	-0.008467
1419	7.0900e-01	5.8173	6.614935	0.000231	2.308490	0.391069	-0.004618
1420	7.0950e-01	5.8044	6.586284	0.000286	2.864237	0.485215	-0.005730
1421	7.1000e-01	5.7948	6.561055	0.000252	2.522239	0.427279	-0.005046
1422	7.1050e-01	5.7861	6.532831	0.000282	2.821487	0.477973	-0.005645
1423	7.1100e-01	5.7758	6.486648	0.000462	4.616979	0.782137	-0.009237
1424	7.1150e-01	5.7660	6.460135	0.000265	2.650488	0.449005	-0.005303
1425	7.1200e-01	5.7587	6.412669	0.000475	4.745229	0.803863	-0.009493
1426	7.1250e-01	5.7465	6.379314	0.000333	3.334485	0.564877	-0.006671
1427	7.1300e-01	5.7358	6.367768	0.000115	1.154245	0.195534	-0.002309
1428	7.1350e-01	5.7269	6.323723	0.000440	4.403230	0.745927	-0.008809
1429	7.1400e-01	5.7132	6.297637	0.000261	2.607738	0.441763	-0.005217
1430	7.1450e-01	5.7043	6.242901	0.000547	5.471975	0.926978	-0.010947
1431	7.1500e-01	5.6961	6.213395	0.000295	2.949737	0.499699	-0.005901
1432	7.1550e-01	5.6873	6.209547	0.000038	0.384748	0.065178	-0.000770
1433	7.1600e-01	5.6757	6.159942	0.000496	4.958978	0.840074	-0.009921
1434	7.1650e-01	5.6648	6.139844	0.000201	2.009241	0.340375	-0.004020
1435	7.1700e-01	5.6543	6.099219	0.000406	4.061232	0.687991	-0.008125
1436	7.1750e-01	5.6483	6.064582	0.000346	3.462734	0.586603	-0.006928
1437	7.1800e-01	5.6329	6.044911	0.000197	1.966491	0.333133	-0.003934
1438	7.1850e-01	5.6239	5.998727	0.000462	4.616979	0.782137	-0.009237
1439	7.1900e-01	5.6149	5.986754	0.000120	1.196995	0.202776	-0.002395
1440	7.1950e-01	5.6049	5.943136	0.000436	4.360480	0.738685	-0.008724
1441	7.2000e-01	5.5957	5.904650	0.000385	3.847483	0.651781	-0.007697
1442	7.2050e-01	5.5886	5.889683	0.000150	1.496243	0.253470	-0.002993
1443	7.2100e-01	5.5759	5.845210	0.000445	4.445980	0.753169	-0.008895
1444	7.2150e-01	5.5670	5.815276	0.000299	2.992487	0.506941	-0.005987
1445	7.2200e-01	5.5563	5.768665	0.000466	4.659729	0.789379	-0.009322
1446	7.2250e-01	5.5463	5.753698	0.000150	1.496243	0.253470	-0.002993
1447	7.2300e-01	5.5359	5.722909	0.000308	3.077986	0.521425	-0.006158
1448	7.2350e-01	5.5252	5.684423	0.000385	3.847483	0.651781	-0.007697
1449	7.2400e-01	5.5179	5.633535	0.000509	5.087227	0.861800	-0.010177
1450	7.2450e-01	5.5060	5.624983	0.000085	0.854996	0.144840	-0.001711
1451	7.2500e-01	5.4959	5.580082	0.000449	4.488730	0.760411	-0.008980
1452	7.2550e-01	5.4834	5.545017	0.000351	3.505484	0.593845	-0.007013
1453	7.2600e-01	5.4767	5.507814	0.000372	3.719233	0.630055	-0.007441
1454	7.2650e-01	5.4657	5.483867	0.000239	2.393989	0.405553	-0.004789
1455	7.2700e-01	5.4565	5.443242	0.000406	4.061232	0.687991	-0.008125
1456	7.2750e-01	5.4456	5.428703	0.000145	1.453493	0.246228	-0.002908
1457	7.2800e-01	5.4370	5.368408	0.000603	6.027723	1.021124	-0.012059
1458	7.2850e-01	5.4248	5.347882	0.000205	2.051991	0.347617	-0.004105
1459	7.2900e-01	5.4126	5.330349	0.000175	1.752742	0.296923	-0.003507
1460	7.2950e-01	5.4047	5.288014	0.000423	4.232231	0.716959	-0.008467
1461	7.3000e-01	5.3955	5.246107	0.000419	4.189481	0.709717	-0.008381
1462	7.3050e-01	5.3845	5.226864	0.000192	1.923741	0.325891	-0.003849
1463	7.3100e-01	5.3735	5.197358	0.000295	2.949737	0.499699	-0.005901
1464	7.3150e-01	5.3680	5.162292	0.000351	3.505484	0.593845	-0.007013
1465	7.3200e-01	5.3595	5.131503	0.000308	3.077986	0.521425	-0.006158
1466	7.3250e-01	5.3444	5.093872	0.000376	3.761983	0.637297	-0.007526
1467	7.3300e-01	5.3366	5.076340	0.000175	1.752742	0.296923	-0.003507
1468	7.3350e-01	5.3248	5.022031	0.000543	5.429226	0.919736	-0.010862
1469	7.3400e-01	5.3143	4.993380	0.000286	2.864237	0.485215	-0.005730
1470	7.3450e-01	5.3036	4.958743	0.000346	3.462734	0.586603	-0.006928
1471	7.3500e-01	5.2963	4.920684	0.000380	3.804733	0.644539	-0.007612
1472	7.3550e-01	5.2876	4.902296	0.000184	1.838242	0.311407	-0.003678
1473	7.3600e-01	5.2762	4.866803	0.000355	3.548234	0.601087	-0.007099
1474	7.3650e-01	5.2698	4.816771	0.000500	5.001727	0.847316	-0.010006
1475	7.3700e-01	5.2539	4.782989	0.000338	3.377235	0.572119	-0.006756
1476	7.3750e-01	5.2460	4.767167	0.000158	1.581743	0.267954	-0.003164
1477	7.3800e-01	5.2350	4.722694	0.000445	4.445980	0.753169	-0.008895
1478	7.3850e-01	5.2252	4.671806	0.000509	5.087227	0.861800	-0.010177
1479	7.3900e-01	5.2164	4.652563	0.000192	1.923741	0.325891	-0.003849
1480	7.3950e-01	5.2048	4.628616	0.000239	2.393989	0.405553	-0.004789
1481	7.4000e-01	5.1935	4.584998	0.000436	4.360480	0.738685	-0.008724
1482	7.4050e-01	5.1843	4.567038	0.000180	1.795492	0.304165	-0.003592
1483	7.4100e-01	5.1738	4.523848	0.000432	4.317731	0.731443	-0.008638
1484	7.4150e-01	5.1682	4.498190	0.000256	2.564988	0.434521	-0.005132
1485	7.4200e-01	5.1559	4.451579	0.000466	4.659729	0.789379	-0.009322
1486	7.4250e-01	5.1450	4.435757	0.000158	1.581743	0.267954	-0.003164
1487	7.4300e-01	5.1355	4.367765	0.000680	6.797219	1.151480	-0.013598
1488	7.4350e-01	5.1264	4.339541	0.000282	2.821487	0.477973	-0.005645
1489	7.4400e-01	5.1190	4.310035	0.000295	2.949737	0.499699	-0.005901
1490	7.4450e-01	5.1075	4.291220	0.000188	1.880992	0.318649	-0.003763
1491	7.4500e-01	5.0951	4.242898	0.000483	4.830728	0.818348	-0.009664
1492	7.4550e-01	5.0855	4.223655	0.000192	1.923741	0.325891	-0.003849
1493	7.4600e-01	5.0778	4.178754	0.000449	4.488730	0.760411	-0.008980
1494	7.4650e-01	5.0661	4.150103	0.000286	2.864237	0.485215	-0.005730
1495	7.4700e-01	5.0574	4.125729	0.000244	2.436739	0.412795	-0.004875
1496	7.4750e-01	5.0433	4.067144	0.000586	5.856724	0.992156	-0.011717
1497	7.4800e-01	5.0354	4.053460	0.000137	1.367994	0.231744	-0.002737
1498	7.4850e-01	5.0278	4.020105	0.000333	3.334485	0.564877	-0.006671
1499	7.4900e-01	5.0171	3.994020	0.000261	2.607738	0.441763	-0.005217
1500	7.4950e-01	5.0056	3.963659	0.000304	3.035236	0.514183	-0.006072
1501	7.5000e-01	4.9963	3.913627	0.000500	5.001727	0.847316	-0.010006
1502	7.5050e-01	4.9835	3.889252	0.000244	2.436739	0.412795	-0.004875
1503	7.5100e-01	4.9768	3.851621	0.000376	3.761983	0.637297	-0.007526
1504	7.5150e-01	4.9652	3.793464	0.000581	5.813974	0.984914	-0.011631
1505	7.5200e-01	4.9585	3.792181	0.000013	0.128249	0.021726	-0.000257
1506	7.5250e-01	4.9469	3.747708	0.000445	4.445980	0.753169	-0.008895
1507	7.5300e-01	4.9335	3.710932	0.000368	3.676483	0.622813	-0.007355
1508	7.5350e-01	4.9268	3.682709	0.000282	2.821487	0.477973	-0.005645
1509	7.5400e-01	4.9149	3.636953	0.000457	4.574229	0.774895	-0.009151
1510	7.5450e-01	4.9084	3.618565	0.000184	1.838242	0.311407	-0.003678
1511	7.5500e-01	4.8952	3.571954	0.000466	4.659729	0.789379	-0.009322
1512	7.5550e-01	4.8853	3.539027	0.000329	3.291735	0.557635	-0.006585
1513	7.5600e-01	4.8758	3.506100	0.000329	3.291735	0.557635	-0.006585
1514	7.5650e-01	4.8659	3.471890	0.000342	3.419985	0.579361	-0.006842
1515	7.5700e-01	4.8563	3.435114	0.000368	3.676483	0.622813	-0.007355
1516	7.5750e-01	4.8480	3.414160	0.000209	2.094741	0.354859	-0.004191
1517	7.5800e-01	4.8374	3.370542	0.000436	4.360480	0.738685	-0.008724
1518	7.5850e-01	4.8273	3.326925	0.000436	4.360480	0.738685	-0.008724
1519	7.5900e-01	4.8151	3.296991	0.000299	2.992487	0.506941	-0.005987
1520	7.5950e-01	4.8041	3.276037	0.000209	2.094741	0.354859	-0.004191
1521	7.6000e-01	4.7943	3.231564	0.000445	4.445980	0.753169	-0.008895
1522	7.6050e-01	4.7847	3.208900	0.000227	2.265740	0.383827	-0.004533
1523	7.6100e-01	4.7766	3.164427	0.000445	4.445980	0.753169	-0.008895
1524	7.6150e-01	4.7662	3.123375	0.000410	4.103982	0.695233	-0.008210
1525	7.6200e-01	4.7585	3.093014	0.000304	3.035236	0.514183	-0.006072
1526	7.6250e-01	4.7461	3.057521	0.000355	3.548234	0.601087	-0.007099
1527	7.6300e-01	4.7375	3.037422	0.000201	2.009241	0.340375	-0.004020
1528	7.6350e-01	4.7266	3.017752	0.000197	1.966491	0.333133	-0.003934
1529	7.6400e-01	4.7157	2.942917	0.000748	7.481216	1.267352	-0.014967
1530	7.6450e-01	4.7046	2.915977	0.000269	2.693238	0.456247	-0.005388
1531	7.6500e-01	4.6960	2.883477	0.000325	3.248985	0.550393	-0.006500
1532	7.6550e-01	4.6863	2.845846	0.000376	3.761983	0.637297	-0.007526
1533	7.6600e-01	4.6756	2.826175	0.000197	1.966491	0.333133	-0.003934
1534	7.6650e-01	4.6649	2.776143	0.000500	5.001727	0.847316	-0.010006
1535	7.6700e-01	4.6567	2.765880	0.000103	1.025995	0.173808	-0.002053
1536	7.6750e-01	4.6458	2.726539	0.000393	3.932982	0.666265	-0.007868
1537	7.6800e-01	4.6332	2.676934	0.000496	4.958978	0.840074	-0.009921
1538	7.6850e-01	4.6260	2.641869	0.000351	3.505484	0.593845	-0.007013
1539	7.6900e-01	4.6140	2.605948	0.000359	3.590984	0.608329	-0.007184
1540	7.6950e-01	4.6052	2.565752	0.000402	4.018482	0.680749	-0.008039
1541	7.7000e-01	4.6002	2.523844	0.000419	4.189481	0.709717	-0.008381
1542	7.7050e-01	4.5874	2.514009	0.000098	0.983246	0.166566	-0.001967
1543	7.7100e-01	4.5737	2.479799	0.000342	3.419985	0.579361	-0.006842
1544	7.7150e-01	4.5645	2.449865	0.000299	2.992487	0.506941	-0.005987
1545	7.7200e-01	4.5599	2.388287	0.000616	6.155972	1.042850	-0.012316
1546	7.7250e-01	4.5465	2.361774	0.000265	2.650488	0.449005	-0.005303
1547	7.7300e-01	4.5367	2.339110	0.000227	2.265740	0.383827	-0.004533
1548	7.7350e-01	4.5276	2.299341	0.000398	3.975732	0.673507	-0.007954
1549	7.7400e-01	4.5154	2.260000	0.000393	3.932982	0.666265	-0.007868
1550	7.7450e-01	4.5058	2.218092	0.000419	4.189481	0.709717	-0.008381
1551	7.7500e-01	4.4958	2.192862	0.000252	2.522239	0.427279	-0.005046
1552	7.7550e-01	4.4855	2.142403	0.000504	5.044477	0.854558	-0.010092
1553	7.7600e-01	4.4785	2.124870	0.000175	1.752742	0.296923	-0.003507
1554	7.7650e-01	4.4685	2.091515	0.000333	3.334485	0.564877	-0.006671
1555	7.7700e-01	4.4543	2.046615	0.000449	4.488730	0.760411	-0.008980
1556	7.7750e-01	4.4452	2.008128	0.000385	3.847483	0.651781	-0.007697
1557	7.7800e-01	4.4337	1.963228	0.000449	4.488730	0.760411	-0.008980
1558	7.7850e-01	4.4238	1.943984	0.000192	1.923741	0.325891	-0.003849
1559	7.7900e-01	4.4142	1.901650	0.000423	4.232231	0.716959	-0.008467
1560	7.7950e-01	4.4052	1.849479	0.000522	5.215477	0.883526	-0.010434
1561	7.8000e-01	4.3939	1.853328	-0.000038	-0.384748	-0.065178	0.000770
1562	7.8050e-01	4.3854	1.794316	0.000590	5.899473	0.999398	-0.011802
1563	7.8100e-01	4.3738	1.755829	0.000385	3.847483	0.651781	-0.007697
1564	7.8150e-01	4.3674	1.722475	0.000333	3.334485	0.564877	-0.006671
1565	7.8200e-01	4.3555	1.686554	0.000359	3.590984	0.608329	-0.007184
1566	7.8250e-01	4.3457	1.680567	0.000060	0.598497	0.101388	-0.001197
1567	7.8300e-01	4.3387	1.613858	0.000667	6.668970	1.129754	-0.013342
1568	7.8350e-01	4.3253	1.579648	0.000342	3.419985	0.579361	-0.006842
1569	7.8400e-01	4.3152	1.537313	0.000423	4.232231	0.716959	-0.008467
1570	7.8450e-01	4.3060	1.529616	0.000077	0.769497	0.130356	-0.001539
1571	7.8500e-01	4.2981	1.477445	0.000522	5.215477	0.883526	-0.010434
1572	7.8550e-01	4.2860	1.434255	0.000432	4.317731	0.731443	-0.008638
1573	7.8600e-01	4.2792	1.426986	0.000073	0.726747	0.123114	-0.001454
1574	7.8650e-01	4.2653	1.382940	0.000440	4.403230	0.745927	-0.008809
1575	7.8700e-01	4.2558	1.347020	0.000359	3.590984	0.608329	-0.007184
1576	7.8750e-01	4.2456	1.308106	0.000389	3.890232	0.659023	-0.007783
1577	7.8800e-01	4.2352	1.264488	0.000436	4.360480	0.738685	-0.008724
1578	7.8850e-01	4.2245	1.232416	0.000321	3.206236	0.543151	-0.006414
1579	7.8900e-01	4.2148	1.216166	0.000162	1.624493	0.275197	-0.003250
1580	7.8950e-01	4.2047	1.151595	0.000646	6.455221	1.093544	-0.012914
1581	7.9000e-01	4.1992	1.114819	0.000368	3.676483	0.622813	-0.007355
1582	7.9050e-01	4.1832	1.084030	0.000308	3.077986	0.521425	-0.006158
1583	7.9100e-01	4.1757	1.053241	0.000308	3.077986	0.521425	-0.006158
1584	7.9150e-01	4.1644	1.017321	0.000359	3.590984	0.608329	-0.007184
1585	7.9200e-01	4.1574	0.960019	0.000573	5.728474	0.970430	-0.011460
1586	7.9250e-01	4.1440	0.928802	0.000312	3.120736	0.528667	-0.006243
1587	7.9300e-01	4.1370	0.902289	0.000265	2.650488	0.449005	-0.005303
1588	7.9350e-01	4.1278	0.891599	0.000107	1.068745	0.181050	-0.002138
1589	7.9400e-01	4.1153	0.834297	0.000573	5.728474	0.970430	-0.011460
1590	7.9450e-01	4.1071	0.804791	0.000295	2.949737	0.499699	-0.005901
1591	7.9500e-01	4.0982	0.768015	0.000368	3.676483	0.622813	-0.007355
1592	7.9550e-01	4.0863	0.725680	0.000423	4.232231	0.716959	-0.008467
1593	7.9600e-01	4.0768	0.670089	0.000556	5.557475	0.941462	-0.011118
1594	7.9650e-01	4.0645	0.654694	0.000154	1.538993	0.260712	-0.003079
1595	7.9700e-01	4.0555	0.589695	0.000650	6.497971	1.100786	-0.013000
1596	7.9750e-01	4.0466	0.590123	-0.000004	-0.042750	-0.007242	0.000086
1597	7.9800e-01	4.0356	0.535814	0.000543	5.429226	0.919736	-0.010862
1598	7.9850e-01	4.0253	0.502032	0.000338	3.377235	0.572119	-0.006756
1599	7.9900e-01	4.0163	0.458414	0.000436	4.360480	0.738685	-0.008724
1600	7.9950e-01	4.0051	0.433184	0.000252	2.522239	0.427279	-0.005046
1601	8.0000e-01	3.9935	0.387856	0.000453	4.531480	0.767653	-0.009066
1602	8.0050e-01	3.9850	0.372462	0.000154	1.538993	0.260712	-0.003079
1603	8.0100e-01	3.9755	0.327133	0.000453	4.531480	0.767653	-0.009066
1604	8.0150e-01	3.9679	0.284798	0.000423	4.232231	0.716959	-0.008467
1605	8.0200e-01	3.9560	0.248023	0.000368	3.676483	0.622813	-0.007355
1606	8.0250e-01	3.9420	0.183879	0.000641	6.412471	1.086302	-0.012829
1607	8.0300e-01	3.9359	0.174471	0.000094	0.940496	0.159324	-0.001882
1608	8.0350e-01	3.9249	0.127860	0.000466	4.659729	0.789379	-0.009322
1609	8.0400e-01	3.9154	0.109900	0.000180	1.795492	0.304165	-0.003592
1610	8.0450e-01	3.9063	0.062861	0.000470	4.702479	0.796621	-0.009408
1611	8.0500e-01	3.8950	0.016677	0.000462	4.616979	0.782137	-0.009237
1612	8.0550e-01	3.8846	-0.005132	0.000218	2.180240	0.369343	-0.004362
1613	8.0600e-01	3.8751	-0.052170	0.000470	4.702479	0.796621	-0.009408
1614	8.0650e-01	3.8641	-0.075262	0.000231	2.308490	0.391069	-0.004618
1615	8.0700e-01	3.8547	-0.112465	0.000372	3.719233	0.630055	-0.007441
1616	8.0750e-01	3.8440	-0.165063	0.000526	5.258226	0.890768	-0.010520
1617	8.0800e-01	3.8348	-0.193287	0.000282	2.821487	0.477973	-0.005645
1618	8.0850e-01	3.8232	-0.240325	0.000470	4.702479	0.796621	-0.009408
1619	8.0900e-01	3.8165	-0.283516	0.000432	4.317731	0.731443	-0.008638
1620	8.0950e-01	3.8046	-0.320719	0.000372	3.719233	0.630055	-0.007441
1621	8.1000e-01	3.7946	-0.352791	0.000321	3.206236	0.543151	-0.006414
1622	8.1050e-01	3.7836	-0.390422	0.000376	3.761983	0.637297	-0.007526
1623	8.1100e-01	3.7739	-0.416935	0.000265	2.650488	0.449005	-0.005303
1624	8.1150e-01	3.7660	-0.447724	0.000308	3.077986	0.521425	-0.006158
1625	8.1200e-01	3.7552	-0.499039	0.000513	5.129977	0.869042	-0.010263
1626	8.1250e-01	3.7485	-0.529828	0.000308	3.077986	0.521425	-0.006158
1627	8.1300e-01	3.7360	-0.557196	0.000274	2.735988	0.463489	-0.005474
1628	8.1350e-01	3.7280	-0.622195	0.000650	6.497971	1.100786	-0.013000
1629	8.1400e-01	3.7170	-0.655122	0.000329	3.291735	0.557635	-0.006585
1630	8.1450e-01	3.7108	-0.698312	0.000432	4.317731	0.731443	-0.008638
1631	8.1500e-01	3.6957	-0.722259	0.000239	2.393989	0.405553	-0.004789
1632	8.1550e-01	3.6856	-0.750910	0.000286	2.864237	0.485215	-0.005730
1633	8.1600e-01	3.6768	-0.773574	0.000227	2.265740	0.383827	-0.004533
1634	8.1650e-01	3.6685	-0.816764	0.000432	4.317731	0.731443	-0.008638
1635	8.1700e-01	3.6560	-0.852257	0.000355	3.548234	0.601087	-0.007099
1636	8.1750e-01	3.6456	-0.904855	0.000526	5.258226	0.890768	-0.010520
1637	8.1800e-01	3.6328	-0.942914	0.000380	3.804733	0.644539	-0.007612
1638	8.1850e-01	3.6275	-0.976696	0.000338	3.377235	0.572119	-0.006756
1639	8.1900e-01	3.6151	-1.014755	0.000380	3.804733	0.644539	-0.007612
1640	8.1950e-01	3.6072	-1.060938	0.000462	4.616979	0.782137	-0.009237
1641	8.2000e-01	3.5933	-1.101135	0.000402	4.018482	0.680749	-0.008039
1642	8.2050e-01	3.5858	-1.140904	0.000398	3.975732	0.673507	-0.007954
1643	8.2100e-01	3.5767	-1.172549	0.000316	3.163486	0.535909	-0.006329
1644	8.2150e-01	3.5639	-1.205903	0.000333	3.334485	0.564877	-0.006671
1645	8.2200e-01	3.5565	-1.261067	0.000551	5.514725	0.934220	-0.011033
1646	8.2250e-01	3.5461	-1.281593	0.000205	2.051991	0.347617	-0.004105
1647	8.2300e-01	3.5356	-1.326066	0.000445	4.445980	0.753169	-0.008895
1648	8.2350e-01	3.5239	-1.363697	0.000376	3.761983	0.637297	-0.007526
1649	8.2400e-01	3.5162	-1.385506	0.000218	2.180240	0.369343	-0.004362
1650	8.2450e-01	3.5054	-1.429979	0.000445	4.445980	0.753169	-0.008895
1651	8.2500e-01	3.4973	-1.480011	0.000500	5.001727	0.847316	-0.010006
1652	8.2550e-01	3.4851	-1.521918	0.000419	4.189481	0.709717	-0.008381
1653	8.2600e-01	3.4773	-1.545010	0.000231	2.308490	0.391069	-0.004618
1654	8.2650e-01	3.4668	-1.588200	0.000432	4.317731	0.731443	-0.008638
1655	8.2700e-01	3.4534	-1.630108	0.000419	4.189481	0.709717	-0.008381
1656	8.2750e-01	3.4445	-1.639943	0.000098	0.983246	0.166566	-0.001967
1657	8.2800e-01	3.4361	-1.708791	0.000688	6.882719	1.165964	-0.013770
1658	8.2850e-01	3.4250	-1.738297	0.000295	2.949737	0.499699	-0.005901
1659	8.2900e-01	3.4137	-1.771224	0.000329	3.291735	0.557635	-0.006585
1660	8.2950e-01	3.4064	-1.814842	0.000436	4.360480	0.738685	-0.008724
1661	8.3000e-01	3.3955	-1.870005	0.000551	5.514725	0.934220	-0.011033
1662	8.3050e-01	3.3864	-1.884545	0.000145	1.453493	0.246228	-0.002908
1663	8.3100e-01	3.3759	-1.924741	0.000402	4.018482	0.680749	-0.008039
1664	8.3150e-01	3.3644	-1.979050	0.000543	5.429226	0.919736	-0.010862
1665	8.3200e-01	3.3563	-2.019247	0.000402	4.018482	0.680749	-0.008039
1666	8.3250e-01	3.3466	-2.072700	0.000534	5.343726	0.905252	-0.010691
1667	8.3300e-01	3.3341	-2.088949	0.000162	1.624493	0.275197	-0.003250
1668	8.3350e-01	3.3250	-2.124015	0.000351	3.505484	0.593845	-0.007013
1669	8.3400e-01	3.3160	-2.169771	0.000457	4.574229	0.774895	-0.009151
1670	8.3450e-01	3.3067	-2.216809	0.000470	4.702479	0.796621	-0.009408
1671	8.3500e-01	3.2928	-2.227928	0.000111	1.111495	0.188292	-0.002224
1672	8.3550e-01	3.2846	-2.276249	0.000483	4.830728	0.818348	-0.009664
1673	8.3600e-01	3.2739	-2.325854	0.000496	4.958978	0.840074	-0.009921
1674	8.3650e-01	3.2648	-2.348518	0.000227	2.265740	0.383827	-0.004533
1675	8.3700e-01	3.2541	-2.402826	0.000543	5.429226	0.919736	-0.010862
1676	8.3750e-01	3.2465	-2.441740	0.000389	3.890232	0.659023	-0.007783
1677	8.3800e-01	3.2340	-2.465687	0.000239	2.393989	0.405553	-0.004789
1678	8.3850e-01	3.2257	-2.510588	0.000449	4.488730	0.760411	-0.008980
1679	8.3900e-01	3.2155	-2.546509	0.000359	3.590984	0.608329	-0.007184
1680	8.3950e-01	3.2039	-2.589271	0.000427	4.274981	0.724201	-0.008553
1681	8.4000e-01	3.1944	-2.622198	0.000329	3.291735	0.557635	-0.006585
1682	8.4050e-01	3.1836	-2.665388	0.000432	4.317731	0.731443	-0.008638
1683	8.4100e-01	3.1750	-2.702164	0.000368	3.676483	0.622813	-0.007355
1684	8.4150e-01	3.1679	-2.743644	0.000415	4.146731	0.702475	-0.008296
1685	8.4200e-01	3.1554	-2.792393	0.000487	4.873478	0.825590	-0.009750
1686	8.4250e-01	3.1443	-2.810781	0.000184	1.838242	0.311407	-0.003678
1687	8.4300e-01	3.1360	-2.864234	0.000534	5.343726	0.905252	-0.010691
1688	8.4350e-01	3.1285	-2.895451	0.000312	3.120736	0.528667	-0.006243
1689	8.4400e-01	3.1134	-2.958312	0.000628	6.284222	1.064576	-0.012572
1690	8.4450e-01	3.1055	-2.963016	0.000047	0.470248	0.079662	-0.000941
1691	8.4500e-01	3.0978	-3.035712	0.000727	7.267467	1.231142	-0.014539
1692	8.4550e-01	3.0847	-3.066073	0.000304	3.035236	0.514183	-0.006072
1693	8.4600e-01	3.0750	-3.096435	0.000304	3.035236	0.514183	-0.006072
1694	8.4650e-01	3.0621	-3.127651	0.000312	3.120736	0.528667	-0.006243
1695	8.4700e-01	3.0531	-3.174690	0.000470	4.702479	0.796621	-0.009408
1696	8.4750e-01	3.0438	-3.201203	0.000265	2.650488	0.449005	-0.005303
1697	8.4800e-01	3.0359	-3.270906	0.000697	6.968219	1.180448	-0.013941
1698	8.4850e-01	3.0280	-3.296136	0.000252	2.522239	0.427279	-0.005046
1699	8.4900e-01	3.0165	-3.342747	0.000466	4.659729	0.789379	-0.009322
1700	8.4950e-01	3.0060	-3.368404	0.000256	2.564988	0.434521	-0.005132
1701	8.5000e-01	2.9953	-3.415015	0.000466	4.659729	0.789379	-0.009322
1702	8.5050e-01	2.9846	-3.450081	0.000351	3.505484	0.593845	-0.007013
1703	8.5100e-01	2.9761	-3.487284	0.000372	3.719233	0.630055	-0.007441
1704	8.5150e-01	2.9663	-3.538172	0.000509	5.087227	0.861800	-0.010177
1705	8.5200e-01	2.9555	-3.581789	0.000436	4.360480	0.738685	-0.008724
1706	8.5250e-01	2.9462	-3.628828	0.000470	4.702479	0.796621	-0.009408
1707	8.5300e-01	2.9337	-3.665176	0.000363	3.633734	0.615571	-0.007270
1708	8.5350e-01	2.9279	-3.695965	0.000308	3.077986	0.521425	-0.006158
1709	8.5400e-01	2.9169	-3.737017	0.000410	4.103982	0.695233	-0.008210
1710	8.5450e-01	2.9060	-3.765668	0.000286	2.864237	0.485215	-0.005730
1711	8.5500e-01	2.8949	-3.819549	0.000539	5.386476	0.912494	-0.010776
1712	8.5550e-01	2.8833	-3.872147	0.000526	5.258226	0.890768	-0.010520
1713	8.5600e-01	2.8769	-3.893956	0.000218	2.180240	0.369343	-0.004362
1714	8.5650e-01	2.8650	-3.941422	0.000475	4.745229	0.803863	-0.009493
1715	8.5700e-01	2.8571	-3.962376	0.000209	2.094741	0.354859	-0.004191
1716	8.5750e-01	2.8468	-4.026947	0.000646	6.455221	1.093544	-0.012914
1717	8.5800e-01	2.8348	-4.048756	0.000218	2.180240	0.369343	-0.004362
1718	8.5850e-01	2.8242	-4.114183	0.000654	6.540721	1.108028	-0.013085
1719	8.5900e-01	2.8133	-4.134709	0.000205	2.051991	0.347617	-0.004105
1720	8.5950e-01	2.8043	-4.173195	0.000385	3.847483	0.651781	-0.007697
1721	8.6000e-01	2.7980	-4.230497	0.000573	5.728474	0.970430	-0.011460
1722	8.6050e-01	2.7840	-4.257010	0.000265	2.650488	0.449005	-0.005303
1723	8.6100e-01	2.7777	-4.281384	0.000244	2.436739	0.412795	-0.004875
1724	8.6150e-01	2.7663	-4.340824	0.000594	5.942223	1.006640	-0.011888
1725	8.6200e-01	2.7551	-4.390429	0.000496	4.958978	0.840074	-0.009921
1726	8.6250e-01	2.7441	-4.432336	0.000419	4.189481	0.709717	-0.008381
1727	8.6300e-01	2.7387	-4.454145	0.000218	2.180240	0.369343	-0.004362
1728	8.6350e-01	2.7266	-4.486217	0.000321	3.206236	0.543151	-0.006414
1729	8.6400e-01	2.7162	-4.539242	0.000530	5.300976	0.898010	-0.010605
1730	8.6450e-01	2.7059	-4.587136	0.000479	4.787978	0.811106	-0.009579
1731	8.6500e-01	2.6960	-4.615787	0.000286	2.864237	0.485215	-0.005730
1732	8.6550e-01	2.6899	-4.677793	0.000620	6.198722	1.050092	-0.012401
1733	8.6600e-01	2.6755	-4.712003	0.000342	3.419985	0.579361	-0.006842
1734	8.6650e-01	2.6625	-4.741081	0.000291	2.906987	0.492457	-0.005816
1735	8.6700e-01	2.6566	-4.795817	0.000547	5.471975	0.926978	-0.010947
1736	8.6750e-01	2.6456	-4.839435	0.000436	4.360480	0.738685	-0.008724
1737	8.6800e-01	2.6361	-4.857395	0.000180	1.795492	0.304165	-0.003592
1738	8.6850e-01	2.6257	-4.917691	0.000603	6.027723	1.021124	-0.012059
1739	8.6900e-01	2.6166	-4.951045	0.000333	3.334485	0.564877	-0.006671
1740	8.6950e-01	2.6024	-4.979269	0.000282	2.821487	0.477973	-0.005645
1741	8.7000e-01	2.5964	-5.028873	0.000496	4.958978	0.840074	-0.009921
1742	8.7050e-01	2.5872	-5.066932	0.000380	3.804733	0.644539	-0.007612
1743	8.7100e-01	2.5739	-5.104135	0.000372	3.719233	0.630055	-0.007441
1744	8.7150e-01	2.5642	-5.170845	0.000667	6.668970	1.129754	-0.013342
1745	8.7200e-01	2.5537	-5.208903	0.000380	3.804733	0.644539	-0.007612
1746	8.7250e-01	2.5476	-5.251238	0.000423	4.232231	0.716959	-0.008467
1747	8.7300e-01	2.5349	-5.283310	0.000321	3.206236	0.543151	-0.006414
1748	8.7350e-01	2.5247	-5.317948	0.000346	3.462734	0.586603	-0.006928
1749	8.7400e-01	2.5110	-5.364987	0.000470	4.702479	0.796621	-0.009408
1750	8.7450e-01	2.5050	-5.414164	0.000492	4.916228	0.832832	-0.009835
1751	8.7500e-01	2.4990	-5.447946	0.000338	3.377235	0.572119	-0.006756
1752	8.7550e-01	2.4861	-5.485577	0.000376	3.761983	0.637297	-0.007526
1753	8.7600e-01	2.4762	-5.521070	0.000355	3.548234	0.601087	-0.007099
1754	8.7650e-01	2.4654	-5.573240	0.000522	5.215477	0.883526	-0.010434
1755	8.7700e-01	2.4538	-5.617713	0.000445	4.445980	0.753169	-0.008895
1756	8.7750e-01	2.4440	-5.662186	0.000445	4.445980	0.753169	-0.008895
1757	8.7800e-01	2.4338	-5.702811	0.000406	4.061232	0.687991	-0.008125
1758	8.7850e-01	2.4196	-5.730606	0.000278	2.778737	0.470731	-0.005559
1759	8.7900e-01	2.4155	-5.778500	0.000479	4.787978	0.811106	-0.009579
1760	8.7950e-01	2.4071	-5.813993	0.000355	3.548234	0.601087	-0.007099
1761	8.8000e-01	2.3962	-5.885834	0.000718	7.181968	1.216658	-0.014368
1762	8.8050e-01	2.3848	-5.902084	0.000162	1.624493	0.275197	-0.003250
1763	8.8100e-01	2.3753	-5.946985	0.000449	4.488730	0.760411	-0.008980
1764	8.8150e-01	2.3655	-5.994879	0.000479	4.787978	0.811106	-0.009579
1765	8.8200e-01	2.3564	-6.028661	0.000338	3.377235	0.572119	-0.006756
1766	8.8250e-01	2.3500	-6.070996	0.000423	4.232231	0.716959	-0.008467
1767	8.8300e-01	2.3360	-6.117180	0.000462	4.616979	0.782137	-0.009237
1768	8.8350e-01	2.3254	-6.151390	0.000342	3.419985	0.579361	-0.006842
1769	8.8400e-01	2.3145	-6.204843	0.000534	5.343726	0.905252	-0.010691
1770	8.8450e-01	2.3056	-6.232638	0.000278	2.778737	0.470731	-0.005559
1771	8.8500e-01	2.2942	-6.289085	0.000564	5.642975	0.955946	-0.011289
1772	8.8550e-01	2.2858	-6.338689	0.000496	4.958978	0.840074	-0.009921
1773	8.8600e-01	2.2742	-6.367768	0.000291	2.906987	0.492457	-0.005816
1774	8.8650e-01	2.2633	-6.411813	0.000440	4.403230	0.745927	-0.008809
1775	8.8700e-01	2.2565	-6.460990	0.000492	4.916228	0.832832	-0.009835
1776	8.8750e-01	2.2455	-6.481944	0.000209	2.094741	0.354859	-0.004191
1777	8.8800e-01	2.2369	-6.535825	0.000539	5.386476	0.912494	-0.010776
1778	8.8850e-01	2.2243	-6.576877	0.000410	4.103982	0.695233	-0.008210
1779	8.8900e-01	2.2159	-6.605100	0.000282	2.821487	0.477973	-0.005645
1780	8.8950e-01	2.2043	-6.673948	0.000688	6.882719	1.165964	-0.013770
1781	8.9000e-01	2.1973	-6.698750	0.000248	2.479489	0.420037	-0.004960
1782	8.9050e-01	2.1870	-6.763749	0.000650	6.497971	1.100786	-0.013000
1783	8.9100e-01	2.1771	-6.779143	0.000154	1.538993	0.260712	-0.003079
1784	8.9150e-01	2.1644	-6.836018	0.000569	5.685724	0.963188	-0.011375
1785	8.9200e-01	2.1539	-6.886050	0.000500	5.001727	0.847316	-0.010006
1786	8.9250e-01	2.1427	-6.917694	0.000316	3.163486	0.535909	-0.006329
1787	8.9300e-01	2.1339	-6.966016	0.000483	4.830728	0.818348	-0.009664
1788	8.9350e-01	2.1255	-6.978417	0.000124	1.239744	0.210018	-0.002480
1789	8.9400e-01	2.1158	-7.043416	0.000650	6.497971	1.100786	-0.013000
1790	8.9450e-01	2.1063	-7.079336	0.000359	3.590984	0.608329	-0.007184
1791	8.9500e-01	2.0966	-7.142197	0.000628	6.284222	1.064576	-0.012572
1792	8.9550e-01	2.0864	-7.169993	0.000278	2.778737	0.470731	-0.005559
1793	8.9600e-01	2.0728	-7.206769	0.000368	3.676483	0.622813	-0.007355
1794	8.9650e-01	2.0621	-7.249531	0.000427	4.274981	0.724201	-0.008553
1795	8.9700e-01	2.0547	-7.310682	0.000611	6.113222	1.035608	-0.012230
1796	8.9750e-01	2.0459	-7.324366	0.000137	1.367994	0.231744	-0.002737
1797	8.9800e-01	2.0341	-7.395351	0.000710	7.096468	1.202174	-0.014197
1798	8.9850e-01	2.0236	-7.418871	0.000235	2.351239	0.398311	-0.004704
1799	8.9900e-01	2.0163	-7.471469	0.000526	5.258226	0.890768	-0.010520
1800	8.9950e-01	2.0058	-7.515514	0.000440	4.403230	0.745927	-0.008809
1801	9.0000e-01	1.9946	-7.563408	0.000479	4.787978	0.811106	-0.009579
1802	9.0050e-01	1.9855	-7.614723	0.000513	5.129977	0.869042	-0.010263
1803	9.0100e-01	1.9769	-7.629690	0.000150	1.496243	0.253470	-0.002993
1804	9.0150e-01	1.9646	-7.704952	0.000752	7.523966	1.274594	-0.015052
1805	9.0200e-01	1.9550	-7.730610	0.000256	2.564988	0.434521	-0.005132
1806	9.0250e-01	1.9441	-7.778076	0.000475	4.745229	0.803863	-0.009493
1807	9.0300e-01	1.9327	-7.819128	0.000410	4.103982	0.695233	-0.008210
1808	9.0350e-01	1.9241	-7.877713	0.000586	5.856724	0.992156	-0.011717
1809	9.0400e-01	1.9175	-7.924752	0.000470	4.702479	0.796621	-0.009408
1810	9.0450e-01	1.9037	-7.950409	0.000256	2.564988	0.434521	-0.005132
1811	9.0500e-01	1.8938	-7.993599	0.000432	4.317731	0.731443	-0.008638
1812	9.0550e-01	1.8817	-8.041493	0.000479	4.787978	0.811106	-0.009579
1813	9.0600e-01	1.8742	-8.078269	0.000368	3.676483	0.622813	-0.007355
1814	9.0650e-01	1.8658	-8.138137	0.000598	5.984973	1.013882	-0.011974
1815	9.0700e-01	1.8552	-8.171491	0.000333	3.334485	0.564877	-0.006671
1816	9.0750e-01	1.8462	-8.215964	0.000445	4.445980	0.753169	-0.008895
1817	9.0800e-01	1.8353	-8.259582	0.000436	4.360480	0.738685	-0.008724
1818	9.0850e-01	1.8263	-8.306621	0.000470	4.702479	0.796621	-0.009408
1819	9.0900e-01	1.8138	-8.336555	0.000299	2.992487	0.506941	-0.005987
1820	9.0950e-01	1.8053	-8.387442	0.000509	5.087227	0.861800	-0.010177
1821	9.1000e-01	1.7935	-8.450303	0.000628	6.284222	1.064576	-0.012572
1822	9.1050e-01	1.7849	-8.481092	0.000308	3.077986	0.521425	-0.006158
1823	9.1100e-01	1.7754	-8.514874	0.000338	3.377235	0.572119	-0.006756
1824	9.1150e-01	1.7655	-8.559775	0.000449	4.488730	0.760411	-0.008980
1825	9.1200e-01	1.7559	-8.605103	0.000453	4.531480	0.767653	-0.009066
1826	9.1250e-01	1.7475	-8.670530	0.000654	6.540721	1.108028	-0.013085
1827	9.1300e-01	1.7333	-8.698326	0.000278	2.778737	0.470731	-0.005559
1828	9.1350e-01	1.7264	-8.737667	0.000393	3.932982	0.666265	-0.007868
1829	9.1400e-01	1.7148	-8.780430	0.000427	4.274981	0.724201	-0.008553
1830	9.1450e-01	1.7042	-8.813357	0.000329	3.291735	0.557635	-0.006585
1831	9.1500e-01	1.6963	-8.887336	0.000740	7.395717	1.252868	-0.014796
1832	9.1550e-01	1.6844	-8.918125	0.000308	3.077986	0.521425	-0.006158
1833	9.1600e-01	1.6739	-8.958322	0.000402	4.018482	0.680749	-0.008039
1834	9.1650e-01	1.6653	-9.012630	0.000543	5.429226	0.919736	-0.010862
1835	9.1700e-01	1.6545	-9.060097	0.000475	4.745229	0.803863	-0.009493
1836	9.1750e-01	1.6448	-9.110129	0.000500	5.001727	0.847316	-0.010006
1837	9.1800e-01	1.6360	-9.126379	0.000162	1.624493	0.275197	-0.003250
1838	9.1850e-01	1.6257	-9.193088	0.000667	6.668970	1.129754	-0.013342
1839	9.1900e-01	1.6150	-9.243120	0.000500	5.001727	0.847316	-0.010006
1840	9.1950e-01	1.6029	-9.282462	0.000393	3.932982	0.666265	-0.007868
1841	9.2000e-01	1.5936	-9.322231	0.000398	3.975732	0.673507	-0.007954
1842	9.2050e-01	1.5865	-9.370125	0.000479	4.787978	0.811106	-0.009579
1843	9.2100e-01	1.5756	-9.429565	0.000594	5.942223	1.006640	-0.011888
1844	9.2150e-01	1.5639	-9.453512	0.000239	2.393989	0.405553	-0.004789
1845	9.2200e-01	1.5558	-9.504827	0.000513	5.129977	0.869042	-0.010263
1846	9.2250e-01	1.5466	-9.552293	0.000475	4.745229	0.803863	-0.009493
1847	9.2300e-01	1.5344	-9.589924	0.000376	3.761983	0.637297	-0.007526
1848	9.2350e-01	1.5253	-9.662193	0.000722	7.224717	1.223900	-0.014454
1849	9.2400e-01	1.5150	-9.675449	0.000133	1.325244	0.224502	-0.002651
1850	9.2450e-01	1.5057	-9.701535	0.000261	2.607738	0.441763	-0.005217
1851	9.2500e-01	1.4960	-9.769527	0.000680	6.797219	1.151480	-0.013598
1852	9.2550e-01	1.4845	-9.811007	0.000415	4.146731	0.702475	-0.008296
1853	9.2600e-01	1.4758	-9.846927	0.000359	3.590984	0.608329	-0.007184
1854	9.2650e-01	1.4652	-9.904229	0.000573	5.728474	0.970430	-0.011460
1855	9.2700e-01	1.4539	-9.960676	0.000564	5.642975	0.955946	-0.011289
1856	9.2750e-01	1.4423	-9.995741	0.000351	3.505484	0.593845	-0.007013
1857	9.2800e-01	1.4367	-10.035938	0.000402	4.018482	0.680749	-0.008039
1858	9.2850e-01	1.4264	-10.091529	0.000556	5.557475	0.941462	-0.011118
1859	9.2900e-01	1.4159	-10.127022	0.000355	3.548234	0.601087	-0.007099
1860	9.2950e-01	1.4037	-10.180475	0.000534	5.343726	0.905252	-0.010691
1861	9.3000e-01	1.3947	-10.219389	0.000389	3.890232	0.659023	-0.007783
1862	9.3050e-01	1.3843	-10.258730	0.000393	3.932982	0.666265	-0.007868
1863	9.3100e-01	1.3755	-10.295506	0.000368	3.676483	0.622813	-0.007355
1864	9.3150e-01	1.3640	-10.345111	0.000496	4.958978	0.840074	-0.009921
1865	9.3200e-01	1.3577	-10.398136	0.000530	5.300976	0.898010	-0.010605
1866	9.3250e-01	1.3450	-10.456293	0.000581	5.813974	0.984914	-0.011631
1867	9.3300e-01	1.3343	-10.481095	0.000248	2.479489	0.420037	-0.004960
1868	9.3350e-01	1.3240	-10.528562	0.000475	4.745229	0.803863	-0.009493
1869	9.3400e-01	1.3155	-10.576884	0.000483	4.830728	0.818348	-0.009664
1870	9.3450e-01	1.3051	-10.629481	0.000526	5.258226	0.890768	-0.010520
1871	9.3500e-01	1.2950	-10.651718	0.000222	2.222990	0.376585	-0.004447
1872	9.3550e-01	1.2854	-10.720566	0.000688	6.882719	1.165964	-0.013770
1873	9.3600e-01	1.2761	-10.746651	0.000261	2.607738	0.441763	-0.005217
1874	9.3650e-01	1.2652	-10.794117	0.000475	4.745229	0.803863	-0.009493
1875	9.3700e-01	1.2532	-10.841584	0.000475	4.745229	0.803863	-0.009493
1876	9.3750e-01	1.2455	-10.898458	0.000569	5.685724	0.963188	-0.011375
1877	9.3800e-01	1.2363	-10.945924	0.000475	4.745229	0.803863	-0.009493
1878	9.3850e-01	1.2244	-10.990397	0.000445	4.445980	0.753169	-0.008895
1879	9.3900e-01	1.2167	-11.025462	0.000351	3.505484	0.593845	-0.007013
1880	9.3950e-01	1.2037	-11.077205	0.000517	5.172727	0.876284	-0.010349
1881	9.4000e-01	1.1956	-11.145625	0.000684	6.839969	1.158722	-0.013684
1882	9.4050e-01	1.1845	-11.177697	0.000321	3.206236	0.543151	-0.006414
1883	9.4100e-01	1.1741	-11.223881	0.000462	4.616979	0.782137	-0.009237
1884	9.4150e-01	1.1639	-11.252959	0.000291	2.906987	0.492457	-0.005816
1885	9.4200e-01	1.1562	-11.305985	0.000530	5.300976	0.898010	-0.010605
1886	9.4250e-01	1.1470	-11.345754	0.000398	3.975732	0.673507	-0.007954
1887	9.4300e-01	1.1365	-11.402628	0.000569	5.685724	0.963188	-0.011375
1888	9.4350e-01	1.1274	-11.452232	0.000496	4.958978	0.840074	-0.009921
1889	9.4400e-01	1.1151	-11.489436	0.000372	3.719233	0.630055	-0.007441
1890	9.4450e-01	1.1084	-11.543317	0.000539	5.386476	0.912494	-0.010776
1891	9.4500e-01	1.0957	-11.594204	0.000509	5.087227	0.861800	-0.010177
1892	9.4550e-01	1.0855	-11.643809	0.000496	4.958978	0.840074	-0.009921
1893	9.4600e-01	1.0739	-11.662624	0.000188	1.880992	0.318649	-0.003763
1894	9.4650e-01	1.0667	-11.730189	0.000675	6.754470	1.144238	-0.013513
1895	9.4700e-01	1.0561	-11.764399	0.000342	3.419985	0.579361	-0.006842
1896	9.4750e-01	1.0471	-11.828970	0.000646	6.455221	1.093544	-0.012914
1897	9.4800e-01	1.0367	-11.861042	0.000321	3.206236	0.543151	-0.006414
1898	9.4850e-01	1.0257	-11.891831	0.000308	3.077986	0.521425	-0.006158
1899	9.4900e-01	1.0147	-11.958113	0.000663	6.626220	1.122512	-0.013256
1900	9.4950e-01	1.0056	-12.014560	0.000564	5.642975	0.955946	-0.011289
1901	9.5000e-01	0.9940	-12.072289	0.000577	5.771224	0.977672	-0.011546
1902	9.5050e-01	0.9862	-12.097519	0.000252	2.522239	0.427279	-0.005046
1903	9.5100e-01	0.9744	-12.143275	0.000457	4.574229	0.774895	-0.009151
1904	9.5150e-01	0.9677	-12.196300	0.000530	5.300976	0.898010	-0.010605
1905	9.5200e-01	0.9556	-12.240346	0.000440	4.403230	0.745927	-0.008809
1906	9.5250e-01	0.9461	-12.292089	0.000517	5.172727	0.876284	-0.010349
1907	9.5300e-01	0.9367	-12.319884	0.000278	2.778737	0.470731	-0.005559
1908	9.5350e-01	0.9238	-12.375048	0.000551	5.514725	0.934220	-0.011033
1909	9.5400e-01	0.9160	-12.428073	0.000530	5.300976	0.898010	-0.010605
1910	9.5450e-01	0.9038	-12.468270	0.000402	4.018482	0.680749	-0.008039
1911	9.5500e-01	0.8952	-12.516164	0.000479	4.787978	0.811106	-0.009579
1912	9.5550e-01	0.8846	-12.550374	0.000342	3.419985	0.579361	-0.006842
1913	9.5600e-01	0.8786	-12.601689	0.000513	5.129977	0.869042	-0.010263
1914	9.5650e-01	0.8659	-12.667116	0.000654	6.540721	1.108028	-0.013085
1915	9.5700e-01	0.8545	-12.695767	0.000286	2.864237	0.485215	-0.005730
1916	9.5750e-01	0.8461	-12.741950	0.000462	4.616979	0.782137	-0.009237
1917	9.5800e-01	0.8359	-12.787279	0.000453	4.531480	0.767653	-0.009066
1918	9.5850e-01	0.8245	-12.857837	0.000705	7.053718	1.194932	-0.014112
1919	9.5900e-01	0.8147	-12.900172	0.000423	4.232231	0.716959	-0.008467
1920	9.5950e-01	0.8070	-12.932244	0.000321	3.206236	0.543151	-0.006414
1921	9.6000e-01	0.7925	-12.987835	0.000556	5.557475	0.941462	-0.011118
1922	9.6050e-01	0.7862	-13.004085	0.000162	1.624493	0.275197	-0.003250
1923	9.6100e-01	0.7742	-13.079347	0.000752	7.523966	1.274594	-0.015052
1924	9.6150e-01	0.7648	-13.110136	0.000308	3.077986	0.521425	-0.006158
1925	9.6200e-01	0.7535	-13.187536	0.000774	7.737715	1.310804	-0.015480
1926	9.6250e-01	0.7454	-13.212766	0.000252	2.522239	0.427279	-0.005046
1927	9.6300e-01	0.7346	-13.256384	0.000436	4.360480	0.738685	-0.008724
1928	9.6350e-01	0.7268	-13.320527	0.000641	6.412471	1.086302	-0.012829
1929	9.6400e-01	0.7175	-13.343191	0.000227	2.265740	0.383827	-0.004533
1930	9.6450e-01	0.7059	-13.416315	0.000731	7.310217	1.238384	-0.014625
1931	9.6500e-01	0.6946	-13.444111	0.000278	2.778737	0.470731	-0.005559
1932	9.6550e-01	0.6845	-13.506544	0.000624	6.241472	1.057334	-0.012487
1933	9.6600e-01	0.6740	-13.538189	0.000316	3.163486	0.535909	-0.006329
1934	9.6650e-01	0.6653	-13.589504	0.000513	5.129977	0.869042	-0.010263
1935	9.6700e-01	0.6554	-13.638681	0.000492	4.916228	0.832832	-0.009835
1936	9.6750e-01	0.6441	-13.691706	0.000530	5.300976	0.898010	-0.010605
1937	9.6800e-01	0.6349	-13.731475	0.000398	3.975732	0.673507	-0.007954
1938	9.6850e-01	0.6214	-13.796474	0.000650	6.497971	1.100786	-0.013000
1939	9.6900e-01	0.6175	-13.844368	0.000479	4.787978	0.811106	-0.009579
1940	9.6950e-01	0.6054	-13.874730	0.000304	3.035236	0.514183	-0.006072
1941	9.7000e-01	0.5971	-13.937591	0.000628	6.284222	1.064576	-0.012572
1942	9.7050e-01	0.5858	-13.967524	0.000299	2.992487	0.506941	-0.005987
1943	9.7100e-01	0.5749	-14.021833	0.000543	5.429226	0.919736	-0.010862
1944	9.7150e-01	0.5669	-14.068444	0.000466	4.659729	0.789379	-0.009322
1945	9.7200e-01	0.5548	-14.114627	0.000462	4.616979	0.782137	-0.009237
1946	9.7250e-01	0.5444	-14.158673	0.000440	4.403230	0.745927	-0.008809
1947	9.7300e-01	0.5329	-14.213837	0.000551	5.514725	0.934220	-0.011033
1948	9.7350e-01	0.5251	-14.261303	0.000475	4.745229	0.803863	-0.009493
1949	9.7400e-01	0.5149	-14.311335	0.000500	5.001727	0.847316	-0.010006
1950	9.7450e-01	0.5066	-14.359229	0.000479	4.787978	0.811106	-0.009579
1951	9.7500e-01	0.4948	-14.412255	0.000530	5.300976	0.898010	-0.010605
1952	9.7550e-01	0.4890	-14.461432	0.000492	4.916228	0.832832	-0.009835
1953	9.7600e-01	0.4774	-14.491793	0.000304	3.035236	0.514183	-0.006072
1954	9.7650e-01	0.4634	-14.531990	0.000402	4.018482	0.680749	-0.008039
1955	9.7700e-01	0.4534	-14.600837	0.000688	6.882719	1.165964	-0.013770
1956	9.7750e-01	0.4453	-14.634192	0.000333	3.334485	0.564877	-0.006671
1957	9.7800e-01	0.4330	-14.696625	0.000624	6.241472	1.057334	-0.012487
1958	9.7850e-01	0.4225	-14.745802	0.000492	4.916228	0.832832	-0.009835
1959	9.7900e-01	0.4174	-14.768894	0.000231	2.308490	0.391069	-0.004618
1960	9.7950e-01	0.4059	-14.836031	0.000671	6.711720	1.136996	-0.013427
1961	9.8000e-01	0.3980	-14.880077	0.000440	4.403230	0.745927	-0.008809
1962	9.8050e-01	0.3854	-14.934813	0.000547	5.471975	0.926978	-0.010947
1963	9.8100e-01	0.3732	-14.971588	0.000368	3.676483	0.622813	-0.007355
1964	9.8150e-01	0.3636	-15.008792	0.000372	3.719233	0.630055	-0.007441
1965	9.8200e-01	0.3574	-15.064383	0.000556	5.557475	0.941462	-0.011118
1966	9.8250e-01	0.3468	-15.121257	0.000569	5.685724	0.963188	-0.011375
1967	9.8300e-01	0.3349	-15.173428	0.000522	5.215477	0.883526	-0.010434
1968	9.8350e-01	0.3230	-15.203789	0.000304	3.035236	0.514183	-0.006072
1969	9.8400e-01	0.3168	-15.287604	0.000838	8.378962	1.419435	-0.016763
1970	9.8450e-01	0.3054	-15.322669	0.000351	3.505484	0.593845	-0.007013
1971	9.8500e-01	0.2954	-15.347471	0.000248	2.479489	0.420037	-0.004960
1972	9.8550e-01	0.2865	-15.415036	0.000675	6.754470	1.144238	-0.013513
1973	9.8600e-01	0.2737	-15.476186	0.000611	6.113222	1.035608	-0.012230
1974	9.8650e-01	0.2657	-15.500561	0.000244	2.436739	0.412795	-0.004875
1975	9.8700e-01	0.2563	-15.562567	0.000620	6.198722	1.050092	-0.012401
1976	9.8750e-01	0.2466	-15.578816	0.000162	1.624493	0.275197	-0.003250
1977	9.8800e-01	0.2351	-15.655361	0.000765	7.652216	1.296320	-0.015309
1978	9.8850e-01	0.2275	-15.704966	0.000496	4.958978	0.840074	-0.009921
1979	9.8900e-01	0.2145	-15.738748	0.000338	3.377235	0.572119	-0.006756
1980	9.8950e-01	0.2048	-15.778517	0.000398	3.975732	0.673507	-0.007954
1981	9.9000e-01	0.1920	-15.840523	0.000620	6.198722	1.050092	-0.012401
1982	9.9050e-01	0.1859	-15.897397	0.000569	5.685724	0.963188	-0.011375
1983	9.9100e-01	0.1761	-15.943581	0.000462	4.616979	0.782137	-0.009237
1984	9.9150e-01	0.1658	-15.977791	0.000342	3.419985	0.579361	-0.006842
1985	9.9200e-01	0.1541	-16.027823	0.000500	5.001727	0.847316	-0.010006
1986	9.9250e-01	0.1416	-16.065454	0.000376	3.761983	0.637297	-0.007526
1987	9.9300e-01	0.1348	-16.118479	0.000530	5.300976	0.898010	-0.010605
1988	9.9350e-01	0.1242	-16.196307	0.000778	7.780465	1.318046	-0.015566
1989	9.9400e-01	0.1144	-16.215123	0.000188	1.880992	0.318649	-0.003763
1990	9.9450e-01	0.1070	-16.282260	0.000671	6.711720	1.136996	-0.013427
1991	9.9500e-01	0.0958	-16.313477	0.000312	3.120736	0.528667	-0.006243
1992	9.9550e-01	0.0869	-16.371206	0.000577	5.771224	0.977672	-0.011546
1993	9.9600e-01	0.0743	-16.407982	0.000368	3.676483	0.622813	-0.007355
1994	9.9650e-01	0.0654	-16.462290	0.000543	5.429226	0.919736	-0.010862
1995	9.9700e-01	0.0549	-16.500776	0.000385	3.847483	0.651781	-0.007697
1996	9.9750e-01	0.0432	-16.573045	0.000722	7.224717	1.223900	-0.014454
1997	9.9800e-01	0.0335	-16.600413	0.000274	2.735988	0.463489	-0.005474
1998	9.9850e-01	0.0260	-16.644886	0.000445	4.445980	0.753169	-0.008895
1999	9.9900e-01	0.0118	-16.701333	0.000564	5.642975	0.955946	-0.011289
2000	9.9950e-01	0.0022	-16.775312	0.000740	7.395717	1.252868	-0.014796
2001	1.0000e+00	-0.0055	-16.821068	0.000740	7.395717	1.252868	-0.009151

PMax (uC/cm2):	3.65e+01
Pr (uC/cm2):	1.43e+00
-Pr (uC/cm2):	0.00e+00
PLoss (uC/cm2):	0.00e+00
C (Max-Eff) (nF):	3.65e-01
K (Eff):	6.19e+02
Vert. (+/-Pr) Shift (uC/cm2):	7.16e-01
Offset (uC/cm2):	1.83e+01

A (Loop Area - uC/cm2·Volts):	-1.31e-02



Hysteresis Version: 5.48.1 - Radiant Technologies, Inc., 1999 - 9/12/24

