»»»»»»»»»»»»»»»»»»»»»»»»»»»»»»»»»»»» Hysteresis ««««««««««««««««««««««««««««««««««««
»»»  Executed Version:	5.48.1
»»»  Vision Version:	5.48.4 (R)
»»»  Vision Compiled:	9/18/24
»»»  Driver Version:	5.47.0
»»»  Windows Version:	Windows 8 or 8.1
»»»  Processor Information:	x86 (AMD or Intel) - 32 Processors
»»»  Tester Name:	PMF21124-494 (100V)
»»»  Tester S/N:	PMF21124-494
»»»  Internal Amp Type:	100V RevK 270k
»»»  Internal Amp S/N:	iAB2-596/K     
»»»  Execution Count:	1
»»»»»»»»»»»»»»»»»»»»»»»»»»»»»»»»»»»»»»»»»»««««««««««««««««««««««««««««««««««««««««««

Stored:	6/27/2025 - 13:57:41
Configured:	06/27/25 11:23:28 AM
Executed:	06/27/25 01:57:15 PM

»»»»»»»»»»»»»»»»»»»»»»»»»»»»»»»»»»» Sample Info ««««««««««««««««««««««««««««««««««««
Sample Name:	
Lot Name:	
Wafer Name:	
Die Row/Column:	0/0
Capacitor Number:	0
Sample Area (cm2):	1.00e-04
Sample Thickness (microns):	1.50e-01

Amplifier:	Internal

»»»»»»»»»»»»»»»»»»»»»»»»»»»»»»»»»»» Tester Info «««««««««««««««««««««««««««««««««««
Tester Name:	PMF21124-494 (100V)
Tester Serial Number:	PMF21124-494
Return Signal Amp. Level:	1.79 [Index: 2]

»»»»»»»»»»»»»»»»»»»»»»»»»»»»»»»» Hysteresis Info ««««««««««««««««««««««««««««««««««
Task Name:	Hyst-1276
Volts:	10.00
Field:	666.67 (kV/cm)
DCBias:	0.00
DCField:	0.00 (kV/cm)
Hysteresis Period (ms):	1.00e+00
Preset:	Enabled
Preset Delay (ms):	1.00e+03
Profile:	Standard Monopolar

»»»»»»»»»»»»»»»»»»»»»»»»»»»»»»»»»»»»»» Data «««««««««««««««««««««««««««««««««««««««
Points:	2001

Valid Data

Point	Time (ms)	Drive Voltage	Measured Polarization (uC/cm2)	Capacitance (uF)	Normalized Capacitance (uF/cm2)	Dielectric Constant	Instantaneous Current (mA)
   1	0.0000e+00	-0.0047	-18.848012	0.000590	5.900824	0.999627	0.011802
   2	5.0000e-04	0.0072	-18.788999	0.000590	5.900824	0.999627	0.011802
   3	1.0000e-03	0.0176	-18.739822	0.000492	4.917353	0.833022	0.009835
   4	1.5000e-03	0.0243	-18.668837	0.000710	7.098092	1.202449	0.014197
   5	2.0000e-03	0.0356	-18.620087	0.000487	4.874593	0.825778	0.009750
   6	2.5000e-03	0.0481	-18.565779	0.000543	5.430468	0.919946	0.010862
   7	3.0000e-03	0.0576	-18.535418	0.000304	3.035931	0.514301	0.006072
   8	3.5000e-03	0.0703	-18.491800	0.000436	4.361478	0.738854	0.008724
   9	4.0000e-03	0.0758	-18.405847	0.000859	8.594678	1.455978	0.017191
  10	4.5000e-03	0.0853	-18.376769	0.000291	2.907652	0.492570	0.005816
  11	5.0000e-03	0.0974	-18.310914	0.000658	6.584977	1.115525	0.013171
  12	5.5000e-03	0.1070	-18.266014	0.000449	4.489757	0.760585	0.008980
  13	6.0000e-03	0.1158	-18.230948	0.000351	3.506286	0.593981	0.007013
  14	6.5000e-03	0.1277	-18.188613	0.000423	4.233200	0.717123	0.008467
  15	7.0000e-03	0.1353	-18.131312	0.000573	5.729785	0.970652	0.011460
  16	7.5000e-03	0.1434	-18.082990	0.000483	4.831834	0.818535	0.009664
  17	8.0000e-03	0.1563	-18.016708	0.000663	6.627737	1.122769	0.013256
  18	8.5000e-03	0.1644	-17.964538	0.000522	5.216670	0.883728	0.010434
  19	9.0000e-03	0.1759	-17.926052	0.000385	3.848363	0.651930	0.007697
  20	9.5000e-03	0.1899	-17.885855	0.000402	4.019402	0.680905	0.008039
  21	1.0000e-02	0.1949	-17.819573	0.000663	6.627737	1.122769	0.013256
  22	1.0500e-02	0.2061	-17.775527	0.000440	4.404238	0.746098	0.008809
  23	1.1000e-02	0.2164	-17.713522	0.000620	6.200141	1.050332	0.012401
  24	1.1500e-02	0.2269	-17.648095	0.000654	6.542217	1.108282	0.013085
  25	1.2000e-02	0.2360	-17.613885	0.000342	3.420767	0.579494	0.006842
  26	1.2500e-02	0.2475	-17.588228	0.000257	2.565575	0.434620	0.005132
  27	1.3000e-02	0.2534	-17.520235	0.000680	6.798775	1.151744	0.013598
  28	1.3500e-02	0.2679	-17.451815	0.000684	6.841535	1.158987	0.013684
  29	1.4000e-02	0.2763	-17.421881	0.000299	2.993171	0.507057	0.005987
  30	1.4500e-02	0.2839	-17.363297	0.000586	5.858064	0.992383	0.011717
  31	1.5000e-02	0.2972	-17.317968	0.000453	4.532517	0.767829	0.009066
  32	1.5500e-02	0.3047	-17.282475	0.000355	3.549046	0.601225	0.007099
  33	1.6000e-02	0.3161	-17.210634	0.000718	7.183611	1.216937	0.014368
  34	1.6500e-02	0.3265	-17.141787	0.000688	6.884294	1.166231	0.013770
  35	1.7000e-02	0.3378	-17.119550	0.000222	2.223499	0.376671	0.004447
  36	1.7500e-02	0.3478	-17.075505	0.000440	4.404238	0.746098	0.008809
  37	1.8000e-02	0.3564	-17.007085	0.000684	6.841535	1.158987	0.013684
  38	1.8500e-02	0.3667	-16.942941	0.000641	6.413939	1.086551	0.012829
  39	1.9000e-02	0.3756	-16.904455	0.000385	3.848363	0.651930	0.007697
  40	1.9500e-02	0.3850	-16.853995	0.000505	5.045632	0.854753	0.010092
  41	2.0000e-02	0.3961	-16.791134	0.000629	6.285660	1.064820	0.012572
  42	2.0500e-02	0.4056	-16.759917	0.000312	3.121450	0.528788	0.006243
  43	2.1000e-02	0.4158	-16.715444	0.000445	4.446998	0.753342	0.008895
  44	2.1500e-02	0.4276	-16.666695	0.000487	4.874593	0.825778	0.009750
  45	2.2000e-02	0.4360	-16.626498	0.000402	4.019402	0.680905	0.008039
  46	2.2500e-02	0.4449	-16.541401	0.000851	8.509159	1.441491	0.017019
  47	2.3000e-02	0.4552	-16.493507	0.000479	4.789074	0.811291	0.009579
  48	2.3500e-02	0.4616	-16.447323	0.000462	4.618036	0.782316	0.009237
  49	2.4000e-02	0.4753	-16.398574	0.000487	4.874593	0.825778	0.009750
  50	2.4500e-02	0.4837	-16.341700	0.000569	5.687026	0.963408	0.011375
  51	2.5000e-02	0.4965	-16.316470	0.000252	2.522816	0.427377	0.005046
  52	2.5500e-02	0.5054	-16.248478	0.000680	6.798775	1.151744	0.013598
  53	2.6000e-02	0.5164	-16.207426	0.000410	4.104921	0.695392	0.008210
  54	2.6500e-02	0.5269	-16.149268	0.000582	5.815304	0.985139	0.011631
  55	2.7000e-02	0.5362	-16.105223	0.000440	4.404238	0.746098	0.008809
  56	2.7500e-02	0.5434	-16.044928	0.000603	6.029102	1.021358	0.012059
  57	2.8000e-02	0.5588	-16.006442	0.000385	3.848363	0.651930	0.007697
  58	2.8500e-02	0.5668	-15.963679	0.000428	4.275959	0.724367	0.008553
  59	2.9000e-02	0.5774	-15.891410	0.000723	7.226371	1.224180	0.014454
  60	2.9500e-02	0.5880	-15.825129	0.000663	6.627737	1.122769	0.013256
  61	3.0000e-02	0.5966	-15.802037	0.000231	2.309018	0.391158	0.004618
  62	3.0500e-02	0.6063	-15.754570	0.000475	4.746315	0.804047	0.009493
  63	3.1000e-02	0.6147	-15.707959	0.000466	4.660795	0.789560	0.009322
  64	3.1500e-02	0.6269	-15.643388	0.000646	6.456698	1.093794	0.012914
  65	3.2000e-02	0.6386	-15.585658	0.000577	5.772545	0.977896	0.011546
  66	3.2500e-02	0.6473	-15.542041	0.000436	4.361478	0.738854	0.008724
  67	3.3000e-02	0.6573	-15.501844	0.000402	4.019402	0.680905	0.008039
  68	3.3500e-02	0.6655	-15.431286	0.000706	7.055333	1.195206	0.014112
  69	3.4000e-02	0.6770	-15.372701	0.000586	5.858064	0.992383	0.011717
  70	3.4500e-02	0.6854	-15.351747	0.000210	2.095220	0.354940	0.004191
  71	3.5000e-02	0.6981	-15.290597	0.000611	6.114622	1.035845	0.012230
  72	3.5500e-02	0.7055	-15.248690	0.000419	4.190440	0.709880	0.008381
  73	3.6000e-02	0.7140	-15.225598	0.000231	2.309018	0.391158	0.004618
  74	3.6500e-02	0.7249	-15.142639	0.000830	8.295361	1.405272	0.016592
  75	3.7000e-02	0.7346	-15.107573	0.000351	3.506286	0.593981	0.007013
  76	3.7500e-02	0.7465	-15.039581	0.000680	6.798775	1.151744	0.013598
  77	3.8000e-02	0.7583	-14.999384	0.000402	4.019402	0.680905	0.008039
  78	3.8500e-02	0.7657	-14.957904	0.000415	4.147680	0.702636	0.008296
  79	3.9000e-02	0.7764	-14.891195	0.000667	6.670496	1.130013	0.013342
  80	3.9500e-02	0.7840	-14.845867	0.000453	4.532517	0.767829	0.009066
  81	4.0000e-02	0.7973	-14.790703	0.000552	5.515987	0.934434	0.011033
  82	4.0500e-02	0.8081	-14.740671	0.000500	5.002872	0.847509	0.010006
  83	4.1000e-02	0.8162	-14.708171	0.000325	3.249729	0.550519	0.006500
  84	4.1500e-02	0.8237	-14.657712	0.000505	5.045632	0.854753	0.010092
  85	4.2000e-02	0.8364	-14.607252	0.000505	5.045632	0.854753	0.010092
  86	4.2500e-02	0.8446	-14.552088	0.000552	5.515987	0.934434	0.011033
  87	4.3000e-02	0.8548	-14.508470	0.000436	4.361478	0.738854	0.008724
  88	4.3500e-02	0.8670	-14.475543	0.000329	3.292489	0.557763	0.006585
  89	4.4000e-02	0.8749	-14.396860	0.000787	7.867765	1.332835	0.015737
  90	4.4500e-02	0.8858	-14.372058	0.000248	2.480056	0.420133	0.004960
  91	4.5000e-02	0.8944	-14.314756	0.000573	5.729785	0.970652	0.011460
  92	4.5500e-02	0.9068	-14.250185	0.000646	6.456698	1.093794	0.012914
  93	4.6000e-02	0.9162	-14.219823	0.000304	3.035931	0.514301	0.006072
  94	4.6500e-02	0.9270	-14.171074	0.000487	4.874593	0.825778	0.009750
  95	4.7000e-02	0.9370	-14.109068	0.000620	6.200141	1.050332	0.012401
  96	4.7500e-02	0.9469	-14.058181	0.000509	5.088391	0.861997	0.010177
  97	4.8000e-02	0.9558	-14.020978	0.000372	3.720084	0.630199	0.007441
  98	4.8500e-02	0.9653	-13.971801	0.000492	4.917353	0.833022	0.009835
  99	4.9000e-02	0.9752	-13.917920	0.000539	5.387709	0.912703	0.010776
 100	4.9500e-02	0.9852	-13.880289	0.000376	3.762844	0.637443	0.007526
 101	5.0000e-02	0.9961	-13.825553	0.000547	5.473228	0.927190	0.010947
 102	5.0500e-02	1.0065	-13.794336	0.000312	3.121450	0.528788	0.006243
 103	5.1000e-02	1.0168	-13.713943	0.000804	8.038803	1.361810	0.016079
 104	5.1500e-02	1.0257	-13.668614	0.000453	4.532517	0.767829	0.009066
 105	5.2000e-02	1.0382	-13.642529	0.000261	2.608335	0.441864	0.005217
 106	5.2500e-02	1.0460	-13.574109	0.000684	6.841535	1.158987	0.013684
 107	5.3000e-02	1.0568	-13.539899	0.000342	3.420767	0.579494	0.006842
 108	5.3500e-02	1.0671	-13.481314	0.000586	5.858064	0.992383	0.011717
 109	5.4000e-02	1.0769	-13.436414	0.000449	4.489757	0.760585	0.008980
 110	5.4500e-02	1.0845	-13.382533	0.000539	5.387709	0.912703	0.010776
 111	5.5000e-02	1.0962	-13.326514	0.000560	5.601506	0.948921	0.011204
 112	5.5500e-02	1.1063	-13.295725	0.000308	3.078691	0.521544	0.006158
 113	5.6000e-02	1.1169	-13.229015	0.000667	6.670496	1.130013	0.013342
 114	5.6500e-02	1.1255	-13.190957	0.000381	3.805604	0.644687	0.007612
 115	5.7000e-02	1.1343	-13.116550	0.000744	7.440169	1.260399	0.014881
 116	5.7500e-02	1.1456	-13.094741	0.000218	2.180739	0.369427	0.004362
 117	5.8000e-02	1.1578	-13.063525	0.000312	3.121450	0.528788	0.006243
 118	5.8500e-02	1.1664	-13.004085	0.000594	5.943583	1.006870	0.011888
 119	5.9000e-02	1.1794	-12.956618	0.000475	4.746315	0.804047	0.009493
 120	5.9500e-02	1.1855	-12.908297	0.000483	4.831834	0.818535	0.009664
 121	6.0000e-02	1.1961	-12.856982	0.000513	5.131151	0.869241	0.010263
 122	6.0500e-02	1.2062	-12.811653	0.000453	4.532517	0.767829	0.009066
 123	6.1000e-02	1.2140	-12.750503	0.000611	6.114622	1.035845	0.012230
 124	6.1500e-02	1.2256	-12.733398	0.000171	1.710384	0.289747	0.003421
 125	6.2000e-02	1.2341	-12.672675	0.000607	6.071862	1.028601	0.012145
 126	6.2500e-02	1.2475	-12.626919	0.000458	4.575276	0.775073	0.009151
 127	6.3000e-02	1.2532	-12.588005	0.000389	3.891123	0.659174	0.007783
 128	6.3500e-02	1.2684	-12.509750	0.000783	7.825005	1.325592	0.015651
 129	6.4000e-02	1.2752	-12.461001	0.000487	4.874593	0.825778	0.009750
 130	6.4500e-02	1.2885	-12.415672	0.000453	4.532517	0.767829	0.009066
 131	6.5000e-02	1.2958	-12.369916	0.000458	4.575276	0.775073	0.009151
 132	6.5500e-02	1.3049	-12.341265	0.000286	2.864893	0.485326	0.005730
 133	6.6000e-02	1.3155	-12.286957	0.000543	5.430468	0.919946	0.010862
 134	6.6500e-02	1.3257	-12.257023	0.000299	2.993171	0.507057	0.005987
 135	6.7000e-02	1.3345	-12.194162	0.000629	6.285660	1.064820	0.012572
 136	6.7500e-02	1.3451	-12.165939	0.000282	2.822133	0.478082	0.005645
 137	6.8000e-02	1.3573	-12.119328	0.000466	4.660795	0.789560	0.009322
 138	6.8500e-02	1.3651	-12.054329	0.000650	6.499458	1.101038	0.013000
 139	6.9000e-02	1.3746	-12.030382	0.000239	2.394537	0.405646	0.004789
 140	6.9500e-02	1.3852	-11.949988	0.000804	8.038803	1.361810	0.016079
 141	7.0000e-02	1.3947	-11.919199	0.000308	3.078691	0.521544	0.006158
 142	7.0500e-02	1.4027	-11.873443	0.000458	4.575276	0.775073	0.009151
 143	7.1000e-02	1.4180	-11.818707	0.000547	5.473228	0.927190	0.010947
 144	7.1500e-02	1.4256	-11.764399	0.000543	5.430468	0.919946	0.010862
 145	7.2000e-02	1.4356	-11.741307	0.000231	2.309018	0.391158	0.004618
 146	7.2500e-02	1.4457	-11.674598	0.000667	6.670496	1.130013	0.013342
 147	7.3000e-02	1.4576	-11.627131	0.000475	4.746315	0.804047	0.009493
 148	7.3500e-02	1.4644	-11.598480	0.000286	2.864893	0.485326	0.005730
 149	7.4000e-02	1.4760	-11.557428	0.000410	4.104921	0.695392	0.008210
 150	7.4500e-02	1.4870	-11.490719	0.000667	6.670496	1.130013	0.013342
 151	7.5000e-02	1.4967	-11.448384	0.000423	4.233200	0.717123	0.008467
 152	7.5500e-02	1.5073	-11.404338	0.000440	4.404238	0.746098	0.008809
 153	7.6000e-02	1.5167	-11.333353	0.000710	7.098092	1.202449	0.014197
 154	7.6500e-02	1.5283	-11.304702	0.000286	2.864893	0.485326	0.005730
 155	7.7000e-02	1.5355	-11.256808	0.000479	4.789074	0.811291	0.009579
 156	7.7500e-02	1.5457	-11.209341	0.000475	4.746315	0.804047	0.009493
 157	7.8000e-02	1.5527	-11.172138	0.000372	3.720084	0.630199	0.007441
 158	7.8500e-02	1.5677	-11.140494	0.000316	3.164210	0.536032	0.006329
 159	7.9000e-02	1.5762	-11.084475	0.000560	5.601506	0.948921	0.011204
 160	7.9500e-02	1.5864	-11.034015	0.000505	5.045632	0.854753	0.010092
 161	8.0000e-02	1.5964	-10.996812	0.000372	3.720084	0.630199	0.007441
 162	8.0500e-02	1.6068	-10.935661	0.000611	6.114622	1.035845	0.012230
 163	8.1000e-02	1.6162	-10.889050	0.000466	4.660795	0.789560	0.009322
 164	8.1500e-02	1.6277	-10.847570	0.000415	4.147680	0.702636	0.008296
 165	8.2000e-02	1.6357	-10.806518	0.000410	4.104921	0.695392	0.008210
 166	8.2500e-02	1.6456	-10.762045	0.000445	4.446998	0.753342	0.008895
 167	8.3000e-02	1.6544	-10.708165	0.000539	5.387709	0.912703	0.010776
 168	8.3500e-02	1.6663	-10.668823	0.000393	3.933882	0.666418	0.007868
 169	8.4000e-02	1.6763	-10.620074	0.000487	4.874593	0.825778	0.009750
 170	8.4500e-02	1.6887	-10.576884	0.000432	4.318719	0.731611	0.008638
 171	8.5000e-02	1.6954	-10.539253	0.000376	3.762844	0.637443	0.007526
 172	8.5500e-02	1.7089	-10.484089	0.000552	5.515987	0.934434	0.011033
 173	8.6000e-02	1.7166	-10.428070	0.000560	5.601506	0.948921	0.011204
 174	8.6500e-02	1.7236	-10.401557	0.000265	2.651095	0.449108	0.005303
 175	8.7000e-02	1.7377	-10.350242	0.000513	5.131151	0.869241	0.010263
 176	8.7500e-02	1.7477	-10.314749	0.000355	3.549046	0.601225	0.007099
 177	8.8000e-02	1.7564	-10.245474	0.000693	6.927054	1.173475	0.013855
 178	8.8500e-02	1.7659	-10.212974	0.000325	3.249729	0.550519	0.006500
 179	8.9000e-02	1.7786	-10.166791	0.000462	4.618036	0.782316	0.009237
 180	8.9500e-02	1.7856	-10.123173	0.000436	4.361478	0.738854	0.008724
 181	9.0000e-02	1.7972	-10.075279	0.000479	4.789074	0.811291	0.009579
 182	9.0500e-02	1.8044	-10.034227	0.000410	4.104921	0.695392	0.008210
 183	9.1000e-02	1.8178	-9.979491	0.000547	5.473228	0.927190	0.010947
 184	9.1500e-02	1.8276	-9.941860	0.000376	3.762844	0.637443	0.007526
 185	9.2000e-02	1.8394	-9.895249	0.000466	4.660795	0.789560	0.009322
 186	9.2500e-02	1.8452	-9.851203	0.000440	4.404238	0.746098	0.008809
 187	9.3000e-02	1.8550	-9.791336	0.000599	5.986343	1.014114	0.011974
 188	9.3500e-02	1.8657	-9.775941	0.000154	1.539345	0.260772	0.003079
 189	9.4000e-02	1.8745	-9.721633	0.000543	5.430468	0.919946	0.010862
 190	9.4500e-02	1.8855	-9.667325	0.000543	5.430468	0.919946	0.010862
 191	9.5000e-02	1.8954	-9.631404	0.000359	3.591806	0.608468	0.007184
 192	9.5500e-02	1.9092	-9.584793	0.000466	4.660795	0.789560	0.009322
 193	9.6000e-02	1.9160	-9.511669	0.000731	7.311890	1.238668	0.014625
 194	9.6500e-02	1.9269	-9.474893	0.000368	3.677325	0.622956	0.007355
 195	9.7000e-02	1.9348	-9.443249	0.000316	3.164210	0.536032	0.006329
 196	9.7500e-02	1.9460	-9.416309	0.000269	2.693854	0.456351	0.005388
 197	9.8000e-02	1.9554	-9.350027	0.000663	6.627737	1.122769	0.013256
 198	9.8500e-02	1.9661	-9.301277	0.000487	4.874593	0.825778	0.009750
 199	9.9000e-02	1.9761	-9.259370	0.000419	4.190440	0.709880	0.008381
 200	9.9500e-02	1.9840	-9.224732	0.000346	3.463527	0.586737	0.006928
 201	1.0000e-01	1.9978	-9.195654	0.000291	2.907652	0.492570	0.005816
 202	1.0050e-01	2.0071	-9.127234	0.000684	6.841535	1.158987	0.013684
 203	1.0100e-01	2.0142	-9.119537	0.000077	0.769673	0.130386	0.001539
 204	1.0150e-01	2.0255	-9.048551	0.000710	7.098092	1.202449	0.014197
 205	1.0200e-01	2.0364	-9.021183	0.000274	2.736614	0.463595	0.005474
 206	1.0250e-01	2.0454	-8.956184	0.000650	6.499458	1.101038	0.013000
 207	1.0300e-01	2.0563	-8.911283	0.000449	4.489757	0.760585	0.008980
 208	1.0350e-01	2.0654	-8.864672	0.000466	4.660795	0.789560	0.009322
 209	1.0400e-01	2.0753	-8.824475	0.000402	4.019402	0.680905	0.008039
 210	1.0450e-01	2.0863	-8.788127	0.000363	3.634565	0.615712	0.007270
 211	1.0500e-01	2.0970	-8.761187	0.000269	2.693854	0.456351	0.005388
 212	1.0550e-01	2.1042	-8.690628	0.000706	7.055333	1.195206	0.014112
 213	1.0600e-01	2.1185	-8.650859	0.000398	3.976642	0.673661	0.007954
 214	1.0650e-01	2.1261	-8.622208	0.000286	2.864893	0.485326	0.005730
 215	1.0700e-01	2.1367	-8.551650	0.000706	7.055333	1.195206	0.014112
 216	1.0750e-01	2.1476	-8.507605	0.000440	4.404238	0.746098	0.008809
 217	1.0800e-01	2.1564	-8.490072	0.000175	1.753143	0.296991	0.003507
 218	1.0850e-01	2.1651	-8.443889	0.000462	4.618036	0.782316	0.009237
 219	1.0900e-01	2.1786	-8.373331	0.000706	7.055333	1.195206	0.014112
 220	1.0950e-01	2.1852	-8.360502	0.000128	1.282788	0.217310	0.002566
 221	1.1000e-01	2.1974	-8.293365	0.000671	6.713256	1.137256	0.013427
 222	1.1050e-01	2.2083	-8.254451	0.000389	3.891123	0.659174	0.007783
 223	1.1100e-01	2.2162	-8.196721	0.000577	5.772545	0.977896	0.011546
 224	1.1150e-01	2.2278	-8.184320	0.000124	1.240028	0.210066	0.002480
 225	1.1200e-01	2.2358	-8.124880	0.000594	5.943583	1.006870	0.011888
 226	1.1250e-01	2.2461	-8.091098	0.000338	3.378008	0.572250	0.006756
 227	1.1300e-01	2.2537	-8.031658	0.000594	5.943583	1.006870	0.011888
 228	1.1350e-01	2.2655	-7.990606	0.000410	4.104921	0.695392	0.008210
 229	1.1400e-01	2.2784	-7.942712	0.000479	4.789074	0.811291	0.009579
 230	1.1450e-01	2.2853	-7.898239	0.000445	4.446998	0.753342	0.008895
 231	1.1500e-01	2.2963	-7.876858	0.000214	2.137980	0.362184	0.004276
 232	1.1550e-01	2.3093	-7.838371	0.000385	3.848363	0.651930	0.007697
 233	1.1600e-01	2.3167	-7.772089	0.000663	6.627737	1.122769	0.013256
 234	1.1650e-01	2.3254	-7.739162	0.000329	3.292489	0.557763	0.006585
 235	1.1700e-01	2.3380	-7.699821	0.000393	3.933882	0.666418	0.007868
 236	1.1750e-01	2.3459	-7.656631	0.000432	4.318719	0.731611	0.008638
 237	1.1800e-01	2.3560	-7.580513	0.000761	7.611207	1.289373	0.015223
 238	1.1850e-01	2.3657	-7.573671	0.000068	0.684153	0.115899	0.001368
 239	1.1900e-01	2.3795	-7.511238	0.000624	6.242900	1.057576	0.012487
 240	1.1950e-01	2.3863	-7.473607	0.000376	3.762844	0.637443	0.007526
 241	1.2000e-01	2.3980	-7.441963	0.000316	3.164210	0.536032	0.006329
 242	1.2050e-01	2.4072	-7.380385	0.000616	6.157381	1.043089	0.012316
 243	1.2100e-01	2.4172	-7.340188	0.000402	4.019402	0.680905	0.008039
 244	1.2150e-01	2.4286	-7.298281	0.000419	4.190440	0.709880	0.008381
 245	1.2200e-01	2.4365	-7.256801	0.000415	4.147680	0.702636	0.008296
 246	1.2250e-01	2.4467	-7.220880	0.000359	3.591806	0.608468	0.007184
 247	1.2300e-01	2.4563	-7.154598	0.000663	6.627737	1.122769	0.013256
 248	1.2350e-01	2.4666	-7.136638	0.000180	1.795903	0.304234	0.003592
 249	1.2400e-01	2.4773	-7.100718	0.000359	3.591806	0.608468	0.007184
 250	1.2450e-01	2.4869	-7.052824	0.000479	4.789074	0.811291	0.009579
 251	1.2500e-01	2.4963	-7.012627	0.000402	4.019402	0.680905	0.008039
 252	1.2550e-01	2.5081	-6.964305	0.000483	4.831834	0.818535	0.009664
 253	1.2600e-01	2.5159	-6.933944	0.000304	3.035931	0.514301	0.006072
 254	1.2650e-01	2.5293	-6.882201	0.000517	5.173911	0.876484	0.010349
 255	1.2700e-01	2.5366	-6.839866	0.000423	4.233200	0.717123	0.008467
 256	1.2750e-01	2.5438	-6.783847	0.000560	5.601506	0.948921	0.011204
 257	1.2800e-01	2.5572	-6.748354	0.000355	3.549046	0.601225	0.007099
 258	1.2850e-01	2.5659	-6.713289	0.000351	3.506286	0.593981	0.007013
 259	1.2900e-01	2.5745	-6.650856	0.000624	6.242900	1.057576	0.012487
 260	1.2950e-01	2.5859	-6.626481	0.000244	2.437297	0.412889	0.004875
 261	1.3000e-01	2.5925	-6.564476	0.000620	6.200141	1.050332	0.012401
 262	1.3050e-01	2.6058	-6.540101	0.000244	2.437297	0.412889	0.004875
 263	1.3100e-01	2.6144	-6.485793	0.000543	5.430468	0.919946	0.010862
 264	1.3150e-01	2.6255	-6.460135	0.000257	2.565575	0.434620	0.005132
 265	1.3200e-01	2.6357	-6.409675	0.000505	5.045632	0.854753	0.010092
 266	1.3250e-01	2.6453	-6.387011	0.000227	2.266258	0.383915	0.004533
 267	1.3300e-01	2.6578	-6.341255	0.000458	4.575276	0.775073	0.009151
 268	1.3350e-01	2.6651	-6.310039	0.000312	3.121450	0.528788	0.006243
 269	1.3400e-01	2.6755	-6.255303	0.000547	5.473228	0.927190	0.010947
 270	1.3450e-01	2.6868	-6.198428	0.000569	5.687026	0.963408	0.011375
 271	1.3500e-01	2.6971	-6.152672	0.000458	4.575276	0.775073	0.009151
 272	1.3550e-01	2.7066	-6.112048	0.000406	4.062161	0.688149	0.008125
 273	1.3600e-01	2.7165	-6.090239	0.000218	2.180739	0.369427	0.004362
 274	1.3650e-01	2.7261	-6.035076	0.000552	5.515987	0.934434	0.011033
 275	1.3700e-01	2.7327	-5.987181	0.000479	4.789074	0.811291	0.009579
 276	1.3750e-01	2.7461	-5.955965	0.000312	3.121450	0.528788	0.006243
 277	1.3800e-01	2.7551	-5.913630	0.000423	4.233200	0.717123	0.008467
 278	1.3850e-01	2.7686	-5.868729	0.000449	4.489757	0.760585	0.008980
 279	1.3900e-01	2.7759	-5.834092	0.000346	3.463527	0.586737	0.006928
 280	1.3950e-01	2.7882	-5.790474	0.000436	4.361478	0.738854	0.008724
 281	1.4000e-01	2.7969	-5.735310	0.000552	5.515987	0.934434	0.011033
 282	1.4050e-01	2.8050	-5.699390	0.000359	3.591806	0.608468	0.007184
 283	1.4100e-01	2.8172	-5.655772	0.000436	4.361478	0.738854	0.008724
 284	1.4150e-01	2.8281	-5.608305	0.000475	4.746315	0.804047	0.009493
 285	1.4200e-01	2.8342	-5.573668	0.000346	3.463527	0.586737	0.006928
 286	1.4250e-01	2.8476	-5.532616	0.000410	4.104921	0.695392	0.008210
 287	1.4300e-01	2.8537	-5.469755	0.000629	6.285660	1.064820	0.012572
 288	1.4350e-01	2.8635	-5.438966	0.000308	3.078691	0.521544	0.006158
 289	1.4400e-01	2.8748	-5.408604	0.000304	3.035931	0.514301	0.006072
 290	1.4450e-01	2.8865	-5.364131	0.000445	4.446998	0.753342	0.008895
 291	1.4500e-01	2.8980	-5.328211	0.000359	3.591806	0.608468	0.007184
 292	1.4550e-01	2.9041	-5.301271	0.000269	2.693854	0.456351	0.005388
 293	1.4600e-01	2.9160	-5.237982	0.000633	6.328420	1.072063	0.012658
 294	1.4650e-01	2.9277	-5.188805	0.000492	4.917353	0.833022	0.009835
 295	1.4700e-01	2.9358	-5.184101	0.000047	0.470356	0.079680	0.000941
 296	1.4750e-01	2.9462	-5.107984	0.000761	7.611207	1.289373	0.015223
 297	1.4800e-01	2.9562	-5.073346	0.000346	3.463527	0.586737	0.006928
 298	1.4850e-01	2.9665	-5.038709	0.000346	3.463527	0.586737	0.006928
 299	1.4900e-01	2.9758	-4.998939	0.000398	3.976642	0.673661	0.007954
 300	1.4950e-01	2.9871	-4.963447	0.000355	3.549046	0.601225	0.007099
 301	1.5000e-01	2.9987	-4.916408	0.000470	4.703555	0.796804	0.009408
 302	1.5050e-01	3.0042	-4.874501	0.000419	4.190440	0.709880	0.008381
 303	1.5100e-01	3.0148	-4.833021	0.000415	4.147680	0.702636	0.008296
 304	1.5150e-01	3.0267	-4.797956	0.000351	3.506286	0.593981	0.007013
 305	1.5200e-01	3.0354	-4.756476	0.000415	4.147680	0.702636	0.008296
 306	1.5250e-01	3.0440	-4.706871	0.000496	4.960113	0.840266	0.009921
 307	1.5300e-01	3.0560	-4.660260	0.000466	4.660795	0.789560	0.009322
 308	1.5350e-01	3.0652	-4.620491	0.000398	3.976642	0.673661	0.007954
 309	1.5400e-01	3.0753	-4.582860	0.000376	3.762844	0.637443	0.007526
 310	1.5450e-01	3.0875	-4.547367	0.000355	3.549046	0.601225	0.007099
 311	1.5500e-01	3.0972	-4.512730	0.000346	3.463527	0.586737	0.006928
 312	1.5550e-01	3.1055	-4.454145	0.000586	5.858064	0.992383	0.011717
 313	1.5600e-01	3.1177	-4.420790	0.000334	3.335248	0.565006	0.006671
 314	1.5650e-01	3.1262	-4.395988	0.000248	2.480056	0.420133	0.004960
 315	1.5700e-01	3.1356	-4.341252	0.000547	5.473228	0.927190	0.010947
 316	1.5750e-01	3.1470	-4.292930	0.000483	4.831834	0.818535	0.009664
 317	1.5800e-01	3.1567	-4.277536	0.000154	1.539345	0.260772	0.003079
 318	1.5850e-01	3.1666	-4.218951	0.000586	5.858064	0.992383	0.011717
 319	1.5900e-01	3.1763	-4.195432	0.000235	2.351778	0.398402	0.004704
 320	1.5950e-01	3.1863	-4.153524	0.000419	4.190440	0.709880	0.008381
 321	1.6000e-01	3.1952	-4.108624	0.000449	4.489757	0.760585	0.008980
 322	1.6050e-01	3.2056	-4.061585	0.000470	4.703555	0.796804	0.009408
 323	1.6100e-01	3.2166	-4.014546	0.000470	4.703555	0.796804	0.009408
 324	1.6150e-01	3.2246	-3.986750	0.000278	2.779373	0.470839	0.005559
 325	1.6200e-01	3.2368	-3.949119	0.000376	3.762844	0.637443	0.007526
 326	1.6250e-01	3.2477	-3.904219	0.000449	4.489757	0.760585	0.008980
 327	1.6300e-01	3.2571	-3.882837	0.000214	2.137980	0.362184	0.004276
 328	1.6350e-01	3.2632	-3.829812	0.000530	5.302189	0.898215	0.010605
 329	1.6400e-01	3.2753	-3.788760	0.000410	4.104921	0.695392	0.008210
 330	1.6450e-01	3.2864	-3.736162	0.000526	5.259430	0.890972	0.010520
 331	1.6500e-01	3.2941	-3.680571	0.000556	5.558747	0.941677	0.011118
 332	1.6550e-01	3.3057	-3.664749	0.000158	1.582105	0.268016	0.003164
 333	1.6600e-01	3.3173	-3.635242	0.000295	2.950412	0.499813	0.005901
 334	1.6650e-01	3.3276	-3.579224	0.000560	5.601506	0.948921	0.011204
 335	1.6700e-01	3.3371	-3.544158	0.000351	3.506286	0.593981	0.007013
 336	1.6750e-01	3.3450	-3.492416	0.000517	5.173911	0.876484	0.010349
 337	1.6800e-01	3.3548	-3.463337	0.000291	2.907652	0.492570	0.005816
 338	1.6850e-01	3.3699	-3.419292	0.000440	4.404238	0.746098	0.008809
 339	1.6900e-01	3.3774	-3.377384	0.000419	4.190440	0.709880	0.008381
 340	1.6950e-01	3.3862	-3.332911	0.000445	4.446998	0.753342	0.008895
 341	1.7000e-01	3.3940	-3.302550	0.000304	3.035931	0.514301	0.006072
 342	1.7050e-01	3.4074	-3.248669	0.000539	5.387709	0.912703	0.010776
 343	1.7100e-01	3.4184	-3.220874	0.000278	2.779373	0.470839	0.005559
 344	1.7150e-01	3.4266	-3.189657	0.000312	3.121450	0.528788	0.006243
 345	1.7200e-01	3.4375	-3.161434	0.000282	2.822133	0.478082	0.005645
 346	1.7250e-01	3.4444	-3.095152	0.000663	6.627737	1.122769	0.013256
 347	1.7300e-01	3.4541	-3.050679	0.000445	4.446998	0.753342	0.008895
 348	1.7350e-01	3.4675	-3.016469	0.000342	3.420767	0.579494	0.006842
 349	1.7400e-01	3.4761	-2.998081	0.000184	1.838662	0.311478	0.003678
 350	1.7450e-01	3.4872	-2.927950	0.000701	7.012573	1.187962	0.014026
 351	1.7500e-01	3.4961	-2.900155	0.000278	2.779373	0.470839	0.005559
 352	1.7550e-01	3.5071	-2.863806	0.000363	3.634565	0.615712	0.007270
 353	1.7600e-01	3.5175	-2.809498	0.000543	5.430468	0.919946	0.010862
 354	1.7650e-01	3.5262	-2.776571	0.000329	3.292489	0.557763	0.006585
 355	1.7700e-01	3.5370	-2.759038	0.000175	1.753143	0.296991	0.003507
 356	1.7750e-01	3.5458	-2.701309	0.000577	5.772545	0.977896	0.011546
 357	1.7800e-01	3.5541	-2.652560	0.000487	4.874593	0.825778	0.009750
 358	1.7850e-01	3.5645	-2.624764	0.000278	2.779373	0.470839	0.005559
 359	1.7900e-01	3.5770	-2.560620	0.000641	6.413939	1.086551	0.012829
 360	1.7950e-01	3.5846	-2.547791	0.000128	1.282788	0.217310	0.002566
 361	1.8000e-01	3.5989	-2.507595	0.000402	4.019402	0.680905	0.008039
 362	1.8050e-01	3.6063	-2.479799	0.000278	2.779373	0.470839	0.005559
 363	1.8100e-01	3.6169	-2.429339	0.000505	5.045632	0.854753	0.010092
 364	1.8150e-01	3.6276	-2.386149	0.000432	4.318719	0.731611	0.008638
 365	1.8200e-01	3.6359	-2.355360	0.000308	3.078691	0.521544	0.006158
 366	1.8250e-01	3.6475	-2.313025	0.000423	4.233200	0.717123	0.008467
 367	1.8300e-01	3.6548	-2.274111	0.000389	3.891123	0.659174	0.007783
 368	1.8350e-01	3.6670	-2.249309	0.000248	2.480056	0.420133	0.004960
 369	1.8400e-01	3.6743	-2.197994	0.000513	5.131151	0.869241	0.010263
 370	1.8450e-01	3.6839	-2.134278	0.000637	6.371179	1.079307	0.012743
 371	1.8500e-01	3.6957	-2.112041	0.000222	2.223499	0.376671	0.004447
 372	1.8550e-01	3.7070	-2.073983	0.000381	3.805604	0.644687	0.007612
 373	1.8600e-01	3.7186	-2.036352	0.000376	3.762844	0.637443	0.007526
 374	1.8650e-01	3.7257	-1.974774	0.000616	6.157381	1.043089	0.012316
 375	1.8700e-01	3.7352	-1.961090	0.000137	1.368307	0.231797	0.002737
 376	1.8750e-01	3.7477	-1.942274	0.000188	1.881422	0.318722	0.003763
 377	1.8800e-01	3.7592	-1.869150	0.000731	7.311890	1.238668	0.014625
 378	1.8850e-01	3.7677	-1.830664	0.000385	3.848363	0.651930	0.007697
 379	1.8900e-01	3.7790	-1.820401	0.000103	1.026230	0.173848	0.002053
 380	1.8950e-01	3.7898	-1.771224	0.000492	4.917353	0.833022	0.009835
 381	1.9000e-01	3.7985	-1.722902	0.000483	4.831834	0.818535	0.009664
 382	1.9050e-01	3.8043	-1.693824	0.000291	2.907652	0.492570	0.005816
 383	1.9100e-01	3.8147	-1.650206	0.000436	4.361478	0.738854	0.008724
 384	1.9150e-01	3.8251	-1.618989	0.000312	3.121450	0.528788	0.006243
 385	1.9200e-01	3.8359	-1.571523	0.000475	4.746315	0.804047	0.009493
 386	1.9250e-01	3.8458	-1.533892	0.000376	3.762844	0.637443	0.007526
 387	1.9300e-01	3.8566	-1.506096	0.000278	2.779373	0.470839	0.005559
 388	1.9350e-01	3.8681	-1.470176	0.000359	3.591806	0.608468	0.007184
 389	1.9400e-01	3.8754	-1.428268	0.000419	4.190440	0.709880	0.008381
 390	1.9450e-01	3.8855	-1.395769	0.000325	3.249729	0.550519	0.006500
 391	1.9500e-01	3.8950	-1.318369	0.000774	7.739486	1.311104	0.015480
 392	1.9550e-01	3.9081	-1.287152	0.000312	3.121450	0.528788	0.006243
 393	1.9600e-01	3.9166	-1.262350	0.000248	2.480056	0.420133	0.004960
 394	1.9650e-01	3.9256	-1.220870	0.000415	4.147680	0.702636	0.008296
 395	1.9700e-01	3.9331	-1.190081	0.000308	3.078691	0.521544	0.006158
 396	1.9750e-01	3.9479	-1.144325	0.000458	4.575276	0.775073	0.009151
 397	1.9800e-01	3.9572	-1.108832	0.000355	3.549046	0.601225	0.007099
 398	1.9850e-01	3.9658	-1.095576	0.000133	1.325547	0.224554	0.002651
 399	1.9900e-01	3.9784	-1.057090	0.000385	3.848363	0.651930	0.007697
 400	1.9950e-01	3.9859	-0.997650	0.000594	5.943583	1.006870	0.011888
 401	2.0000e-01	3.9948	-0.947618	0.000500	5.002872	0.847509	0.010006
 402	2.0050e-01	4.0065	-0.921105	0.000265	2.651095	0.449108	0.005303
 403	2.0100e-01	4.0182	-0.864658	0.000564	5.644266	0.956165	0.011289
 404	2.0150e-01	4.0280	-0.863803	0.000009	0.085519	0.014487	0.000171
 405	2.0200e-01	4.0369	-0.805646	0.000582	5.815304	0.985139	0.011631
 406	2.0250e-01	4.0456	-0.762456	0.000432	4.318719	0.731611	0.008638
 407	2.0300e-01	4.0585	-0.731667	0.000308	3.078691	0.521544	0.006158
 408	2.0350e-01	4.0657	-0.696174	0.000355	3.549046	0.601225	0.007099
 409	2.0400e-01	4.0758	-0.652129	0.000440	4.404238	0.746098	0.008809
 410	2.0450e-01	4.0860	-0.614925	0.000372	3.720084	0.630199	0.007441
 411	2.0500e-01	4.0942	-0.572590	0.000423	4.233200	0.717123	0.008467
 412	2.0550e-01	4.1048	-0.533676	0.000389	3.891123	0.659174	0.007783
 413	2.0600e-01	4.1162	-0.493052	0.000406	4.062161	0.688149	0.008125
 414	2.0650e-01	4.1269	-0.475519	0.000175	1.753143	0.296991	0.003507
 415	2.0700e-01	4.1327	-0.401113	0.000744	7.440169	1.260399	0.014881
 416	2.0750e-01	4.1461	-0.393843	0.000073	0.726913	0.123142	0.001454
 417	2.0800e-01	4.1583	-0.345521	0.000483	4.831834	0.818535	0.009664
 418	2.0850e-01	4.1676	-0.307890	0.000376	3.762844	0.637443	0.007526
 419	2.0900e-01	4.1769	-0.274535	0.000334	3.335248	0.565006	0.006671
 420	2.0950e-01	4.1846	-0.247167	0.000274	2.736614	0.463595	0.005474
 421	2.1000e-01	4.1959	-0.198418	0.000487	4.874593	0.825778	0.009750
 422	2.1050e-01	4.2047	-0.156083	0.000423	4.233200	0.717123	0.008467
 423	2.1100e-01	4.2163	-0.132564	0.000235	2.351778	0.398402	0.004704
 424	2.1150e-01	4.2261	-0.081249	0.000513	5.131151	0.869241	0.010263
 425	2.1200e-01	4.2380	-0.043190	0.000381	3.805604	0.644687	0.007612
 426	2.1250e-01	4.2453	-0.000855	0.000423	4.233200	0.717123	0.008467
 427	2.1300e-01	4.2581	0.038059	0.000389	3.891123	0.659174	0.007783
 428	2.1350e-01	4.2644	0.085525	0.000475	4.746315	0.804047	0.009493
 429	2.1400e-01	4.2786	0.101347	0.000158	1.582105	0.268016	0.003164
 430	2.1450e-01	4.2862	0.109472	0.000081	0.812432	0.137630	0.001625
 431	2.1500e-01	4.2969	0.195852	0.000864	8.637437	1.463222	0.017276
 432	2.1550e-01	4.3066	0.217234	0.000214	2.137980	0.362184	0.004276
 433	2.1600e-01	4.3153	0.257430	0.000402	4.019402	0.680905	0.008039
 434	2.1650e-01	4.3231	0.280950	0.000235	2.351778	0.398402	0.004704
 435	2.1700e-01	4.3365	0.344238	0.000633	6.328420	1.072063	0.012658
 436	2.1750e-01	4.3488	0.356212	0.000120	1.197269	0.202823	0.002395
 437	2.1800e-01	4.3579	0.409237	0.000530	5.302189	0.898215	0.010605
 438	2.1850e-01	4.3655	0.439599	0.000304	3.035931	0.514301	0.006072
 439	2.1900e-01	4.3771	0.469533	0.000299	2.993171	0.507057	0.005987
 440	2.1950e-01	4.3857	0.529400	0.000599	5.986343	1.014114	0.011974
 441	2.2000e-01	4.3952	0.555913	0.000265	2.651095	0.449108	0.005303
 442	2.2050e-01	4.4070	0.581998	0.000261	2.608335	0.441864	0.005217
 443	2.2100e-01	4.4171	0.620912	0.000389	3.891123	0.659174	0.007783
 444	2.2150e-01	4.4278	0.668806	0.000479	4.789074	0.811291	0.009579
 445	2.2200e-01	4.4354	0.694891	0.000261	2.608335	0.441864	0.005217
 446	2.2250e-01	4.4472	0.736798	0.000419	4.190440	0.709880	0.008381
 447	2.2300e-01	4.4556	0.796666	0.000599	5.986343	1.014114	0.011974
 448	2.2350e-01	4.4641	0.809922	0.000133	1.325547	0.224554	0.002651
 449	2.2400e-01	4.4745	0.857816	0.000479	4.789074	0.811291	0.009579
 450	2.2450e-01	4.4862	0.880908	0.000231	2.309018	0.391158	0.004618
 451	2.2500e-01	4.4984	0.924526	0.000436	4.361478	0.738854	0.008724
 452	2.2550e-01	4.5074	0.967288	0.000428	4.275959	0.724367	0.008553
 453	2.2600e-01	4.5151	1.005347	0.000381	3.805604	0.644687	0.007612
 454	2.2650e-01	4.5258	1.033998	0.000286	2.864893	0.485326	0.005730
 455	2.2700e-01	4.5374	1.078899	0.000449	4.489757	0.760585	0.008980
 456	2.2750e-01	4.5465	1.116530	0.000376	3.762844	0.637443	0.007526
 457	2.2800e-01	4.5596	1.141759	0.000252	2.522816	0.427377	0.005046
 458	2.2850e-01	4.5667	1.189654	0.000479	4.789074	0.811291	0.009579
 459	2.2900e-01	4.5758	1.227712	0.000381	3.805604	0.644687	0.007612
 460	2.2950e-01	4.5868	1.256791	0.000291	2.907652	0.492570	0.005816
 461	2.3000e-01	4.5963	1.271330	0.000145	1.453826	0.246285	0.002908
 462	2.3050e-01	4.6033	1.339322	0.000680	6.798775	1.151744	0.013598
 463	2.3100e-01	4.6155	1.363269	0.000239	2.394537	0.405646	0.004789
 464	2.3150e-01	4.6268	1.395769	0.000325	3.249729	0.550519	0.006500
 465	2.3200e-01	4.6375	1.436393	0.000406	4.062161	0.688149	0.008125
 466	2.3250e-01	4.6460	1.480866	0.000445	4.446998	0.753342	0.008895
 467	2.3300e-01	4.6548	1.514221	0.000334	3.335248	0.565006	0.006671
 468	2.3350e-01	4.6646	1.548431	0.000342	3.420767	0.579494	0.006842
 469	2.3400e-01	4.6759	1.602740	0.000543	5.430468	0.919946	0.010862
 470	2.3450e-01	4.6855	1.620272	0.000175	1.753143	0.296991	0.003507
 471	2.3500e-01	4.6973	1.663462	0.000432	4.318719	0.731611	0.008638
 472	2.3550e-01	4.7070	1.686126	0.000227	2.266258	0.383915	0.004533
 473	2.3600e-01	4.7176	1.734020	0.000479	4.789074	0.811291	0.009579
 474	2.3650e-01	4.7281	1.759250	0.000252	2.522816	0.427377	0.005046
 475	2.3700e-01	4.7369	1.820401	0.000611	6.114622	1.035845	0.012230
 476	2.3750e-01	4.7473	1.844348	0.000239	2.394537	0.405646	0.004789
 477	2.3800e-01	4.7577	1.881551	0.000372	3.720084	0.630199	0.007441
 478	2.3850e-01	4.7675	1.928590	0.000470	4.703555	0.796804	0.009408
 479	2.3900e-01	4.7797	1.963228	0.000346	3.463527	0.586737	0.006928
 480	2.3950e-01	4.7870	1.986319	0.000231	2.309018	0.391158	0.004618
 481	2.4000e-01	4.7987	2.041483	0.000552	5.515987	0.934434	0.011033
 482	2.4050e-01	4.8084	2.066285	0.000248	2.480056	0.420133	0.004960
 483	2.4100e-01	4.8175	2.088094	0.000218	2.180739	0.369427	0.004362
 484	2.4150e-01	4.8257	2.158652	0.000706	7.055333	1.195206	0.014112
 485	2.4200e-01	4.8401	2.158652	0.000000	0.000000	0.000000	0.000000
 486	2.4250e-01	4.8508	2.211678	0.000530	5.302189	0.898215	0.010605
 487	2.4300e-01	4.8587	2.233914	0.000222	2.223499	0.376671	0.004447
 488	2.4350e-01	4.8669	2.275822	0.000419	4.190440	0.709880	0.008381
 489	2.4400e-01	4.8785	2.314308	0.000385	3.848363	0.651930	0.007697
 490	2.4450e-01	4.8889	2.348518	0.000342	3.420767	0.579494	0.006842
 491	2.4500e-01	4.8981	2.398550	0.000500	5.002872	0.847509	0.010006
 492	2.4550e-01	4.9075	2.425918	0.000274	2.736614	0.463595	0.005474
 493	2.4600e-01	4.9164	2.483220	0.000573	5.729785	0.970652	0.011460
 494	2.4650e-01	4.9274	2.515719	0.000325	3.249729	0.550519	0.006500
 495	2.4700e-01	4.9362	2.536673	0.000210	2.095220	0.354940	0.004191
 496	2.4750e-01	4.9495	2.579436	0.000428	4.275959	0.724367	0.008553
 497	2.4800e-01	4.9561	2.617494	0.000381	3.805604	0.644687	0.007612
 498	2.4850e-01	4.9675	2.622198	0.000047	0.470356	0.079680	0.000941
 499	2.4900e-01	4.9762	2.689763	0.000676	6.756015	1.144500	0.013513
 500	2.4950e-01	4.9915	2.715420	0.000257	2.565575	0.434620	0.005132
 501	2.5000e-01	4.9988	2.756473	0.000410	4.104921	0.695392	0.008210
 502	2.5050e-01	5.0052	2.776999	0.000205	2.052460	0.347696	0.004105
 503	2.5100e-01	5.0174	2.836866	0.000599	5.986343	1.014114	0.011974
 504	2.5150e-01	5.0275	2.840715	0.000038	0.384836	0.065193	0.000770
 505	2.5200e-01	5.0368	2.877918	0.000372	3.720084	0.630199	0.007441
 506	2.5250e-01	5.0497	2.910845	0.000329	3.292489	0.557763	0.006585
 507	2.5300e-01	5.0589	2.964726	0.000539	5.387709	0.912703	0.010776
 508	2.5350e-01	5.0696	3.001502	0.000368	3.677325	0.622956	0.007355
 509	2.5400e-01	5.0763	3.021600	0.000201	2.009701	0.340453	0.004020
 510	2.5450e-01	5.0851	3.078902	0.000573	5.729785	0.970652	0.011460
 511	2.5500e-01	5.0989	3.109263	0.000304	3.035931	0.514301	0.006072
 512	2.5550e-01	5.1050	3.155875	0.000466	4.660795	0.789560	0.009322
 513	2.5600e-01	5.1151	3.188802	0.000329	3.292489	0.557763	0.006585
 514	2.5650e-01	5.1263	3.213604	0.000248	2.480056	0.420133	0.004960
 515	2.5700e-01	5.1382	3.246959	0.000334	3.335248	0.565006	0.006671
 516	2.5750e-01	5.1486	3.279886	0.000329	3.292489	0.557763	0.006585
 517	2.5800e-01	5.1558	3.283307	0.000034	0.342077	0.057949	0.000684
 518	2.5850e-01	5.1666	3.372681	0.000894	8.936755	1.513927	0.017875
 519	2.5900e-01	5.1761	3.370115	-0.000026	-0.256558	-0.043462	-0.000513
 520	2.5950e-01	5.1863	3.431265	0.000611	6.114622	1.035845	0.012230
 521	2.6000e-01	5.1965	3.449225	0.000180	1.795903	0.304234	0.003592
 522	2.6050e-01	5.2069	3.500968	0.000517	5.173911	0.876484	0.010349
 523	2.6100e-01	5.2191	3.535606	0.000346	3.463527	0.586737	0.006928
 524	2.6150e-01	5.2271	3.561263	0.000257	2.565575	0.434620	0.005132
 525	2.6200e-01	5.2356	3.618137	0.000569	5.687026	0.963408	0.011375
 526	2.6250e-01	5.2457	3.636098	0.000180	1.795903	0.304234	0.003592
 527	2.6300e-01	5.2589	3.647644	0.000115	1.154509	0.195579	0.002309
 528	2.6350e-01	5.2692	3.712215	0.000646	6.456698	1.093794	0.012914
 529	2.6400e-01	5.2786	3.734879	0.000227	2.266258	0.383915	0.004533
 530	2.6450e-01	5.2875	3.783628	0.000487	4.874593	0.825778	0.009750
 531	2.6500e-01	5.2957	3.830240	0.000466	4.660795	0.789560	0.009322
 532	2.6550e-01	5.3082	3.847772	0.000175	1.753143	0.296991	0.003507
 533	2.6600e-01	5.3210	3.883265	0.000355	3.549046	0.601225	0.007099
 534	2.6650e-01	5.3259	3.918330	0.000351	3.506286	0.593981	0.007013
 535	2.6700e-01	5.3372	3.943133	0.000248	2.480056	0.420133	0.004960
 536	2.6750e-01	5.3479	3.996586	0.000534	5.344949	0.905459	0.010691
 537	2.6800e-01	5.3537	4.020105	0.000235	2.351778	0.398402	0.004704
 538	2.6850e-01	5.3671	4.046618	0.000265	2.651095	0.449108	0.005303
 539	2.6900e-01	5.3799	4.096223	0.000496	4.960113	0.840266	0.009921
 540	2.6950e-01	5.3857	4.127439	0.000312	3.121450	0.528788	0.006243
 541	2.7000e-01	5.3979	4.170202	0.000428	4.275959	0.724367	0.008553
 542	2.7050e-01	5.4084	4.200563	0.000304	3.035931	0.514301	0.006072
 543	2.7100e-01	5.4169	4.219379	0.000188	1.881422	0.318722	0.003763
 544	2.7150e-01	5.4266	4.271549	0.000522	5.216670	0.883728	0.010434
 545	2.7200e-01	5.4379	4.288226	0.000167	1.667624	0.282503	0.003335
 546	2.7250e-01	5.4425	4.329278	0.000410	4.104921	0.695392	0.008210
 547	2.7300e-01	5.4578	4.366054	0.000368	3.677325	0.622956	0.007355
 548	2.7350e-01	5.4657	4.401119	0.000351	3.506286	0.593981	0.007013
 549	2.7400e-01	5.4767	4.420790	0.000197	1.966941	0.333209	0.003934
 550	2.7450e-01	5.4868	4.461414	0.000406	4.062161	0.688149	0.008125
 551	2.7500e-01	5.4971	4.503322	0.000419	4.190440	0.709880	0.008381
 552	2.7550e-01	5.5106	4.546084	0.000428	4.275959	0.724367	0.008553
 553	2.7600e-01	5.5190	4.589274	0.000432	4.318719	0.731611	0.008638
 554	2.7650e-01	5.5270	4.614932	0.000257	2.565575	0.434620	0.005132
 555	2.7700e-01	5.5365	4.641017	0.000261	2.608335	0.441864	0.005217
 556	2.7750e-01	5.5475	4.682497	0.000415	4.147680	0.702636	0.008296
 557	2.7800e-01	5.5591	4.718845	0.000363	3.634565	0.615712	0.007270
 558	2.7850e-01	5.5652	4.753483	0.000346	3.463527	0.586737	0.006928
 559	2.7900e-01	5.5762	4.794535	0.000410	4.104921	0.695392	0.008210
 560	2.7950e-01	5.5869	4.821047	0.000265	2.651095	0.449108	0.005303
 561	2.8000e-01	5.5951	4.834304	0.000133	1.325547	0.224554	0.002651
 562	2.8050e-01	5.6073	4.889040	0.000547	5.473228	0.927190	0.010947
 563	2.8100e-01	5.6171	4.941210	0.000522	5.216670	0.883728	0.010434
 564	2.8150e-01	5.6288	4.944203	0.000030	0.299317	0.050706	0.000599
 565	2.8200e-01	5.6360	4.985255	0.000410	4.104921	0.695392	0.008210
 566	2.8250e-01	5.6482	5.008347	0.000231	2.309018	0.391158	0.004618
 567	2.8300e-01	5.6561	5.058379	0.000500	5.002872	0.847509	0.010006
 568	2.8350e-01	5.6671	5.099004	0.000406	4.062161	0.688149	0.008125
 569	2.8400e-01	5.6784	5.123378	0.000244	2.437297	0.412889	0.004875
 570	2.8450e-01	5.6873	5.158016	0.000346	3.463527	0.586737	0.006928
 571	2.8500e-01	5.6982	5.186239	0.000282	2.822133	0.478082	0.005645
 572	2.8550e-01	5.7086	5.242686	0.000564	5.644266	0.956165	0.011289
 573	2.8600e-01	5.7190	5.258080	0.000154	1.539345	0.260772	0.003079
 574	2.8650e-01	5.7257	5.296567	0.000385	3.848363	0.651930	0.007697
 575	2.8700e-01	5.7382	5.345316	0.000487	4.874593	0.825778	0.009750
 576	2.8750e-01	5.7462	5.373112	0.000278	2.779373	0.470839	0.005559
 577	2.8800e-01	5.7568	5.403473	0.000304	3.035931	0.514301	0.006072
 578	2.8850e-01	5.7666	5.450512	0.000470	4.703555	0.796804	0.009408
 579	2.8900e-01	5.7776	5.469327	0.000188	1.881422	0.318722	0.003763
 580	2.8950e-01	5.7861	5.507386	0.000381	3.805604	0.644687	0.007612
 581	2.9000e-01	5.7962	5.538603	0.000312	3.121450	0.528788	0.006243
 582	2.9050e-01	5.8070	5.571102	0.000325	3.249729	0.550519	0.006500
 583	2.9100e-01	5.8185	5.599325	0.000282	2.822133	0.478082	0.005645
 584	2.9150e-01	5.8289	5.639950	0.000406	4.062161	0.688149	0.008125
 585	2.9200e-01	5.8394	5.683568	0.000436	4.361478	0.738854	0.008724
 586	2.9250e-01	5.8459	5.709653	0.000261	2.608335	0.441864	0.005217
 587	2.9300e-01	5.8572	5.754553	0.000449	4.489757	0.760585	0.008980
 588	2.9350e-01	5.8679	5.779783	0.000252	2.522816	0.427377	0.005046
 589	2.9400e-01	5.8783	5.806724	0.000269	2.693854	0.456351	0.005388
 590	2.9450e-01	5.8868	5.849059	0.000423	4.233200	0.717123	0.008467
 591	2.9500e-01	5.8966	5.898663	0.000496	4.960113	0.840266	0.009921
 592	2.9550e-01	5.9090	5.917051	0.000184	1.838662	0.311478	0.003678
 593	2.9600e-01	5.9186	5.949123	0.000321	3.206969	0.543275	0.006414
 594	2.9650e-01	5.9290	5.988037	0.000389	3.891123	0.659174	0.007783
 595	2.9700e-01	5.9377	6.030372	0.000423	4.233200	0.717123	0.008467
 596	2.9750e-01	5.9488	6.047049	0.000167	1.667624	0.282503	0.003335
 597	2.9800e-01	5.9558	6.086818	0.000398	3.976642	0.673661	0.007954
 598	2.9850e-01	5.9683	6.127443	0.000406	4.062161	0.688149	0.008125
 599	2.9900e-01	5.9775	6.157804	0.000304	3.035931	0.514301	0.006072
 600	2.9950e-01	5.9882	6.203560	0.000458	4.575276	0.775073	0.009151
 601	3.0000e-01	5.9985	6.217244	0.000137	1.368307	0.231797	0.002737
 602	3.0050e-01	6.0068	6.243757	0.000265	2.651095	0.449108	0.005303
 603	3.0100e-01	6.0172	6.282671	0.000389	3.891123	0.659174	0.007783
 604	3.0150e-01	6.0266	6.321584	0.000389	3.891123	0.659174	0.007783
 605	3.0200e-01	6.0376	6.359215	0.000376	3.762844	0.637443	0.007526
 606	3.0250e-01	6.0468	6.402833	0.000436	4.361478	0.738854	0.008724
 607	3.0300e-01	6.0547	6.419938	0.000171	1.710384	0.289747	0.003421
 608	3.0350e-01	6.0669	6.449444	0.000295	2.950412	0.499813	0.005901
 609	3.0400e-01	6.0748	6.525134	0.000757	7.568448	1.282130	0.015138
 610	3.0450e-01	6.0876	6.541384	0.000162	1.624864	0.275259	0.003250
 611	3.0500e-01	6.0965	6.559772	0.000184	1.838662	0.311478	0.003678
 612	3.0550e-01	6.1061	6.608949	0.000492	4.917353	0.833022	0.009835
 613	3.0600e-01	6.1188	6.616218	0.000073	0.726913	0.123142	0.001454
 614	3.0650e-01	6.1298	6.654277	0.000381	3.805604	0.644687	0.007612
 615	3.0700e-01	6.1371	6.708585	0.000543	5.430468	0.919946	0.010862
 616	3.0750e-01	6.1450	6.726973	0.000184	1.838662	0.311478	0.003678
 617	3.0800e-01	6.1578	6.750065	0.000231	2.309018	0.391158	0.004618
 618	3.0850e-01	6.1691	6.809077	0.000590	5.900824	0.999627	0.011802
 619	3.0900e-01	6.1774	6.829603	0.000205	2.052460	0.347696	0.004105
 620	3.0950e-01	6.1884	6.866379	0.000368	3.677325	0.622956	0.007355
 621	3.1000e-01	6.1957	6.909997	0.000436	4.361478	0.738854	0.008724
 622	3.1050e-01	6.2073	6.953615	0.000436	4.361478	0.738854	0.008724
 623	3.1100e-01	6.2177	6.969864	0.000162	1.624864	0.275259	0.003250
 624	3.1150e-01	6.2274	6.976279	0.000064	0.641394	0.108655	0.001283
 625	3.1200e-01	6.2360	7.038284	0.000620	6.200141	1.050332	0.012401
 626	3.1250e-01	6.2457	7.057100	0.000188	1.881422	0.318722	0.003763
 627	3.1300e-01	6.2561	7.096441	0.000393	3.933882	0.666418	0.007868
 628	3.1350e-01	6.2659	7.134928	0.000385	3.848363	0.651930	0.007697
 629	3.1400e-01	6.2784	7.173414	0.000385	3.848363	0.651930	0.007697
 630	3.1450e-01	6.2855	7.176835	0.000034	0.342077	0.057949	0.000684
 631	3.1500e-01	6.2970	7.228578	0.000517	5.173911	0.876484	0.010349
 632	3.1550e-01	6.3074	7.243972	0.000154	1.539345	0.260772	0.003079
 633	3.1600e-01	6.3141	7.313675	0.000697	6.969813	1.180718	0.013941
 634	3.1650e-01	6.3260	7.331635	0.000180	1.795903	0.304234	0.003592
 635	3.1700e-01	6.3358	7.358148	0.000265	2.651095	0.449108	0.005303
 636	3.1750e-01	6.3474	7.400483	0.000423	4.233200	0.717123	0.008467
 637	3.1800e-01	6.3547	7.415022	0.000145	1.453826	0.246285	0.002908
 638	3.1850e-01	6.3657	7.465482	0.000505	5.045632	0.854753	0.010092
 639	3.1900e-01	6.3785	7.483442	0.000180	1.795903	0.304234	0.003592
 640	3.1950e-01	6.3855	7.512948	0.000295	2.950412	0.499813	0.005901
 641	3.2000e-01	6.3971	7.556139	0.000432	4.318719	0.731611	0.008638
 642	3.2050e-01	6.4056	7.585645	0.000295	2.950412	0.499813	0.005901
 643	3.2100e-01	6.4160	7.628407	0.000428	4.275959	0.724367	0.008553
 644	3.2150e-01	6.4282	7.659196	0.000308	3.078691	0.521544	0.006158
 645	3.2200e-01	6.4384	7.701959	0.000428	4.275959	0.724367	0.008553
 646	3.2250e-01	6.4459	7.714360	0.000124	1.240028	0.210066	0.002480
 647	3.2300e-01	6.4548	7.741300	0.000269	2.693854	0.456351	0.005388
 648	3.2350e-01	6.4697	7.780642	0.000393	3.933882	0.666418	0.007868
 649	3.2400e-01	6.4749	7.821266	0.000406	4.062161	0.688149	0.008125
 650	3.2450e-01	6.4886	7.837944	0.000167	1.667624	0.282503	0.003335
 651	3.2500e-01	6.4975	7.879423	0.000415	4.147680	0.702636	0.008296
 652	3.2550e-01	6.5076	7.905508	0.000261	2.608335	0.441864	0.005217
 653	3.2600e-01	6.5186	7.956396	0.000509	5.088391	0.861997	0.010177
 654	3.2650e-01	6.5240	7.980343	0.000239	2.394537	0.405646	0.004789
 655	3.2700e-01	6.5363	8.029520	0.000492	4.917353	0.833022	0.009835
 656	3.2750e-01	6.5503	8.044059	0.000145	1.453826	0.246285	0.002908
 657	3.2800e-01	6.5582	8.110341	0.000663	6.627737	1.122769	0.013256
 658	3.2850e-01	6.5677	8.113762	0.000034	0.342077	0.057949	0.000684
 659	3.2900e-01	6.5738	8.145834	0.000321	3.206969	0.543275	0.006414
 660	3.2950e-01	6.5865	8.183465	0.000376	3.762844	0.637443	0.007526
 661	3.3000e-01	6.5985	8.208267	0.000248	2.480056	0.420133	0.004960
 662	3.3050e-01	6.6077	8.245471	0.000372	3.720084	0.630199	0.007441
 663	3.3100e-01	6.6138	8.276260	0.000308	3.078691	0.521544	0.006158
 664	3.3150e-01	6.6260	8.315601	0.000393	3.933882	0.666418	0.007868
 665	3.3200e-01	6.6364	8.345107	0.000295	2.950412	0.499813	0.005901
 666	3.3250e-01	6.6464	8.372903	0.000278	2.779373	0.470839	0.005559
 667	3.3300e-01	6.6577	8.413955	0.000410	4.104921	0.695392	0.008210
 668	3.3350e-01	6.6652	8.456717	0.000428	4.275959	0.724367	0.008553
 669	3.3400e-01	6.6766	8.477243	0.000205	2.052460	0.347696	0.004105
 670	3.3450e-01	6.6901	8.494776	0.000175	1.753143	0.296991	0.003507
 671	3.3500e-01	6.6959	8.553361	0.000586	5.858064	0.992383	0.011717
 672	3.3550e-01	6.7067	8.567472	0.000141	1.411067	0.239041	0.002822
 673	3.3600e-01	6.7175	8.586716	0.000192	1.924182	0.325965	0.003849
 674	3.3650e-01	6.7267	8.633754	0.000470	4.703555	0.796804	0.009408
 675	3.3700e-01	6.7365	8.665826	0.000321	3.206969	0.543275	0.006414
 676	3.3750e-01	6.7487	8.701319	0.000355	3.549046	0.601225	0.007099
 677	3.3800e-01	6.7560	8.739378	0.000381	3.805604	0.644687	0.007612
 678	3.3850e-01	6.7676	8.762470	0.000231	2.309018	0.391158	0.004618
 679	3.3900e-01	6.7773	8.801383	0.000389	3.891123	0.659174	0.007783
 680	3.3950e-01	6.7844	8.820199	0.000188	1.881422	0.318722	0.003763
 681	3.4000e-01	6.7996	8.853554	0.000334	3.335248	0.565006	0.006671
 682	3.4050e-01	6.8024	8.917697	0.000641	6.413939	1.086551	0.012829
 683	3.4100e-01	6.8170	8.916842	-0.000009	-0.085519	-0.014487	-0.000171
 684	3.4150e-01	6.8250	8.950197	0.000334	3.335248	0.565006	0.006671
 685	3.4200e-01	6.8350	8.990394	0.000402	4.019402	0.680905	0.008039
 686	3.4250e-01	6.8460	9.039571	0.000492	4.917353	0.833022	0.009835
 687	3.4300e-01	6.8555	9.055393	0.000158	1.582105	0.268016	0.003164
 688	3.4350e-01	6.8689	9.079340	0.000239	2.394537	0.405646	0.004789
 689	3.4400e-01	6.8799	9.124240	0.000449	4.489757	0.760585	0.008980
 690	3.4450e-01	6.8866	9.174273	0.000500	5.002872	0.847509	0.010006
 691	3.4500e-01	6.8970	9.180687	0.000064	0.641394	0.108655	0.001283
 692	3.4550e-01	6.9086	9.221739	0.000410	4.104921	0.695392	0.008210
 693	3.4600e-01	6.9160	9.248252	0.000265	2.651095	0.449108	0.005303
 694	3.4650e-01	6.9284	9.276903	0.000286	2.864893	0.485326	0.005730
 695	3.4700e-01	6.9370	9.299139	0.000222	2.223499	0.376671	0.004447
 696	3.4750e-01	6.9466	9.344468	0.000453	4.532517	0.767829	0.009066
 697	3.4800e-01	6.9568	9.394500	0.000500	5.002872	0.847509	0.010006
 698	3.4850e-01	6.9669	9.411605	0.000171	1.710384	0.289747	0.003421
 699	3.4900e-01	6.9800	9.441111	0.000295	2.950412	0.499813	0.005901
 700	3.4950e-01	6.9864	9.484729	0.000436	4.361478	0.738854	0.008724
 701	3.5000e-01	6.9968	9.492426	0.000077	0.769673	0.130386	0.001539
 702	3.5050e-01	7.0047	9.527491	0.000351	3.506286	0.593981	0.007013
 703	3.5100e-01	7.0172	9.574530	0.000470	4.703555	0.796804	0.009408
 704	3.5150e-01	7.0271	9.590352	0.000158	1.582105	0.268016	0.003164
 705	3.5200e-01	7.0355	9.628411	0.000381	3.805604	0.644687	0.007612
 706	3.5250e-01	7.0457	9.663476	0.000351	3.506286	0.593981	0.007013
 707	3.5300e-01	7.0563	9.676305	0.000128	1.282788	0.217310	0.002566
 708	3.5350e-01	7.0679	9.740876	0.000646	6.456698	1.093794	0.012914
 709	3.5400e-01	7.0779	9.768244	0.000274	2.736614	0.463595	0.005474
 710	3.5450e-01	7.0862	9.805448	0.000372	3.720084	0.630199	0.007441
 711	3.5500e-01	7.0972	9.831533	0.000261	2.608335	0.441864	0.005217
 712	3.5550e-01	7.1082	9.861466	0.000299	2.993171	0.507057	0.005987
 713	3.5600e-01	7.1191	9.890973	0.000295	2.950412	0.499813	0.005901
 714	3.5650e-01	7.1268	9.900380	0.000094	0.940711	0.159361	0.001882
 715	3.5700e-01	7.1371	9.959393	0.000590	5.900824	0.999627	0.011802
 716	3.5750e-01	7.1436	9.988044	0.000286	2.864893	0.485326	0.005730
 717	3.5800e-01	7.1570	10.012418	0.000244	2.437297	0.412889	0.004875
 718	3.5850e-01	7.1683	10.055181	0.000428	4.275959	0.724367	0.008553
 719	3.5900e-01	7.1750	10.086825	0.000316	3.164210	0.536032	0.006329
 720	3.5950e-01	7.1863	10.124456	0.000376	3.762844	0.637443	0.007526
 721	3.6000e-01	7.1957	10.140278	0.000158	1.582105	0.268016	0.003164
 722	3.6050e-01	7.2052	10.187745	0.000475	4.746315	0.804047	0.009493
 723	3.6100e-01	7.2162	10.197152	0.000094	0.940711	0.159361	0.001882
 724	3.6150e-01	7.2272	10.229224	0.000321	3.206969	0.543275	0.006414
 725	3.6200e-01	7.2394	10.263434	0.000342	3.420767	0.579494	0.006842
 726	3.6250e-01	7.2482	10.313466	0.000500	5.002872	0.847509	0.010006
 727	3.6300e-01	7.2583	10.322447	0.000090	0.897951	0.152117	0.001796
 728	3.6350e-01	7.2655	10.357512	0.000351	3.506286	0.593981	0.007013
 729	3.6400e-01	7.2760	10.384452	0.000269	2.693854	0.456351	0.005388
 730	3.6450e-01	7.2879	10.408399	0.000239	2.394537	0.405646	0.004789
 731	3.6500e-01	7.2995	10.458859	0.000505	5.045632	0.854753	0.010092
 732	3.6550e-01	7.3065	10.475964	0.000171	1.710384	0.289747	0.003421
 733	3.6600e-01	7.3175	10.537114	0.000611	6.114622	1.035845	0.012230
 734	3.6650e-01	7.3285	10.559351	0.000222	2.223499	0.376671	0.004447
 735	3.6700e-01	7.3358	10.598692	0.000393	3.933882	0.666418	0.007868
 736	3.6750e-01	7.3477	10.613659	0.000150	1.496586	0.253528	0.002993
 737	3.6800e-01	7.3581	10.646159	0.000325	3.249729	0.550519	0.006500
 738	3.6850e-01	7.3679	10.672672	0.000265	2.651095	0.449108	0.005303
 739	3.6900e-01	7.3779	10.704744	0.000321	3.206969	0.543275	0.006414
 740	3.6950e-01	7.3877	10.726552	0.000218	2.180739	0.369427	0.004362
 741	3.7000e-01	7.3950	10.775729	0.000492	4.917353	0.833022	0.009835
 742	3.7050e-01	7.4081	10.771881	-0.000038	-0.384836	-0.065193	-0.000770
 743	3.7100e-01	7.4182	10.849708	0.000778	7.782246	1.318348	0.015566
 744	3.7150e-01	7.4249	10.883491	0.000338	3.378008	0.572250	0.006756
 745	3.7200e-01	7.4390	10.894609	0.000111	1.111749	0.188335	0.002224
 746	3.7250e-01	7.4481	10.923260	0.000286	2.864893	0.485326	0.005730
 747	3.7300e-01	7.4579	10.967305	0.000440	4.404238	0.746098	0.008809
 748	3.7350e-01	7.4664	11.000660	0.000334	3.335248	0.565006	0.006671
 749	3.7400e-01	7.4738	11.022469	0.000218	2.180739	0.369427	0.004362
 750	3.7450e-01	7.4850	11.054113	0.000316	3.164210	0.536032	0.006329
 751	3.7500e-01	7.4976	11.075495	0.000214	2.137980	0.362184	0.004276
 752	3.7550e-01	7.5076	11.113981	0.000385	3.848363	0.651930	0.007697
 753	3.7600e-01	7.5171	11.155461	0.000415	4.147680	0.702636	0.008296
 754	3.7650e-01	7.5247	11.193092	0.000376	3.762844	0.637443	0.007526
 755	3.7700e-01	7.5345	11.226874	0.000338	3.378008	0.572250	0.006756
 756	3.7750e-01	7.5494	11.245262	0.000184	1.838662	0.311478	0.003678
 757	3.7800e-01	7.5574	11.290590	0.000453	4.532517	0.767829	0.009066
 758	3.7850e-01	7.5665	11.279899	-0.000107	-1.068990	-0.181092	-0.002138
 759	3.7900e-01	7.5781	11.353451	0.000735	7.354650	1.245911	0.014710
 760	3.7950e-01	7.5867	11.371411	0.000180	1.795903	0.304234	0.003592
 761	3.8000e-01	7.5964	11.406477	0.000351	3.506286	0.593981	0.007013
 762	3.8050e-01	7.6111	11.430851	0.000244	2.437297	0.412889	0.004875
 763	3.8100e-01	7.6163	11.443252	0.000124	1.240028	0.210066	0.002480
 764	3.8150e-01	7.6282	11.497988	0.000547	5.473228	0.927190	0.010947
 765	3.8200e-01	7.6358	11.533481	0.000355	3.549046	0.601225	0.007099
 766	3.8250e-01	7.6492	11.565553	0.000321	3.206969	0.543275	0.006414
 767	3.8300e-01	7.6578	11.581375	0.000158	1.582105	0.268016	0.003164
 768	3.8350e-01	7.6642	11.617723	0.000363	3.634565	0.615712	0.007270
 769	3.8400e-01	7.6758	11.640815	0.000231	2.309018	0.391158	0.004618
 770	3.8450e-01	7.6828	11.670321	0.000295	2.950412	0.499813	0.005901
 771	3.8500e-01	7.6978	11.686999	0.000167	1.667624	0.282503	0.003335
 772	3.8550e-01	7.7063	11.742590	0.000556	5.558747	0.941677	0.011118
 773	3.8600e-01	7.7185	11.771669	0.000291	2.907652	0.492570	0.005816
 774	3.8650e-01	7.7286	11.819563	0.000479	4.789074	0.811291	0.009579
 775	3.8700e-01	7.7377	11.840089	0.000205	2.052460	0.347696	0.004105
 776	3.8750e-01	7.7478	11.849496	0.000094	0.940711	0.159361	0.001882
 777	3.8800e-01	7.7577	11.900384	0.000509	5.088391	0.861997	0.010177
 778	3.8850e-01	7.7673	11.938015	0.000376	3.762844	0.637443	0.007526
 779	3.8900e-01	7.7748	11.948705	0.000107	1.068990	0.181092	0.002138
 780	3.8950e-01	7.7887	11.986336	0.000376	3.762844	0.637443	0.007526
 781	3.9000e-01	7.7966	12.020546	0.000342	3.420767	0.579494	0.006842
 782	3.9050e-01	7.8113	12.045349	0.000248	2.480056	0.420133	0.004960
 783	3.9100e-01	7.8186	12.079131	0.000338	3.378008	0.572250	0.006756
 784	3.9150e-01	7.8271	12.130874	0.000517	5.173911	0.876484	0.010349
 785	3.9200e-01	7.8378	12.155676	0.000248	2.480056	0.420133	0.004960
 786	3.9250e-01	7.8461	12.167650	0.000120	1.197269	0.202823	0.002395
 787	3.9300e-01	7.8558	12.207419	0.000398	3.976642	0.673661	0.007954
 788	3.9350e-01	7.8711	12.232649	0.000252	2.522816	0.427377	0.005046
 789	3.9400e-01	7.8757	12.277549	0.000449	4.489757	0.760585	0.008980
 790	3.9450e-01	7.8870	12.297220	0.000197	1.966941	0.333209	0.003934
 791	3.9500e-01	7.8955	12.327581	0.000304	3.035931	0.514301	0.006072
 792	3.9550e-01	7.9083	12.357515	0.000299	2.993171	0.507057	0.005987
 793	3.9600e-01	7.9187	12.394291	0.000368	3.677325	0.622956	0.007355
 794	3.9650e-01	7.9285	12.416955	0.000227	2.266258	0.383915	0.004533
 795	3.9700e-01	7.9358	12.469981	0.000530	5.302189	0.898215	0.010605
 796	3.9750e-01	7.9462	12.484092	0.000141	1.411067	0.239041	0.002822
 797	3.9800e-01	7.9599	12.505046	0.000210	2.095220	0.354940	0.004191
 798	3.9850e-01	7.9669	12.548236	0.000432	4.318719	0.731611	0.008638
 799	3.9900e-01	7.9779	12.574321	0.000261	2.608335	0.441864	0.005217
 800	3.9950e-01	7.9855	12.612807	0.000385	3.848363	0.651930	0.007697
 801	4.0000e-01	7.9993	12.635899	0.000231	2.309018	0.391158	0.004618
 802	4.0050e-01	8.0078	12.676524	0.000406	4.062161	0.688149	0.008125
 803	4.0100e-01	8.0170	12.708168	0.000316	3.164210	0.536032	0.006329
 804	4.0150e-01	8.0286	12.738102	0.000299	2.993171	0.507057	0.005987
 805	4.0200e-01	8.0383	12.762049	0.000239	2.394537	0.405646	0.004789
 806	4.0250e-01	8.0481	12.796686	0.000346	3.463527	0.586737	0.006928
 807	4.0300e-01	8.0554	12.819350	0.000227	2.266258	0.383915	0.004533
 808	4.0350e-01	8.0676	12.859120	0.000398	3.976642	0.673661	0.007954
 809	4.0400e-01	8.0775	12.894613	0.000355	3.549046	0.601225	0.007099
 810	4.0450e-01	8.0841	12.924119	0.000295	2.950412	0.499813	0.005901
 811	4.0500e-01	8.0988	12.930105	0.000060	0.598634	0.101411	0.001197
 812	4.0550e-01	8.1085	12.977144	0.000470	4.703555	0.796804	0.009408
 813	4.0600e-01	8.1165	13.013920	0.000368	3.677325	0.622956	0.007355
 814	4.0650e-01	8.1282	13.037439	0.000235	2.351778	0.398402	0.004704
 815	4.0700e-01	8.1381	13.075070	0.000376	3.762844	0.637443	0.007526
 816	4.0750e-01	8.1485	13.103721	0.000286	2.864893	0.485326	0.005730
 817	4.0800e-01	8.1555	13.134083	0.000304	3.035931	0.514301	0.006072
 818	4.0850e-01	8.1653	13.163589	0.000295	2.950412	0.499813	0.005901
 819	4.0900e-01	8.1769	13.189246	0.000257	2.565575	0.434620	0.005132
 820	4.0950e-01	8.1862	13.212338	0.000231	2.309018	0.391158	0.004618
 821	4.1000e-01	8.1995	13.249542	0.000372	3.720084	0.630199	0.007441
 822	4.1050e-01	8.2080	13.283324	0.000338	3.378008	0.572250	0.006756
 823	4.1100e-01	8.2178	13.323093	0.000398	3.976642	0.673661	0.007954
 824	4.1150e-01	8.2275	13.347895	0.000248	2.480056	0.420133	0.004960
 825	4.1200e-01	8.2355	13.392368	0.000445	4.446998	0.753342	0.008895
 826	4.1250e-01	8.2483	13.391513	-0.000009	-0.085519	-0.014487	-0.000171
 827	4.1300e-01	8.2547	13.461216	0.000697	6.969813	1.180718	0.013941
 828	4.1350e-01	8.2675	13.471479	0.000103	1.026230	0.173848	0.002053
 829	4.1400e-01	8.2788	13.526643	0.000552	5.515987	0.934434	0.011033
 830	4.1450e-01	8.2837	13.542037	0.000154	1.539345	0.260772	0.003079
 831	4.1500e-01	8.2959	13.563846	0.000218	2.180739	0.369427	0.004362
 832	4.1550e-01	8.3063	13.595918	0.000321	3.206969	0.543275	0.006414
 833	4.1600e-01	8.3173	13.617727	0.000218	2.180739	0.369427	0.004362
 834	4.1650e-01	8.3252	13.672463	0.000547	5.473228	0.927190	0.010947
 835	4.1700e-01	8.3356	13.692561	0.000201	2.009701	0.340453	0.004020
 836	4.1750e-01	8.3466	13.717791	0.000252	2.522816	0.427377	0.005046
 837	4.1800e-01	8.3575	13.761409	0.000436	4.361478	0.738854	0.008724
 838	4.1850e-01	8.3667	13.784928	0.000235	2.351778	0.398402	0.004704
 839	4.1900e-01	8.3789	13.787922	0.000030	0.299317	0.050706	0.000599
 840	4.1950e-01	8.3875	13.844368	0.000564	5.644266	0.956165	0.011289
 841	4.2000e-01	8.3951	13.869598	0.000252	2.522816	0.427377	0.005046
 842	4.2050e-01	8.4070	13.901670	0.000321	3.206969	0.543275	0.006414
 843	4.2100e-01	8.4186	13.921768	0.000201	2.009701	0.340453	0.004020
 844	4.2150e-01	8.4268	13.980353	0.000586	5.858064	0.992383	0.011717
 845	4.2200e-01	8.4351	13.986340	0.000060	0.598634	0.101411	0.001197
 846	4.2250e-01	8.4473	14.029102	0.000428	4.275959	0.724367	0.008553
 847	4.2300e-01	8.4576	14.063312	0.000342	3.420767	0.579494	0.006842
 848	4.2350e-01	8.4671	14.083838	0.000205	2.052460	0.347696	0.004105
 849	4.2400e-01	8.4790	14.119331	0.000355	3.549046	0.601225	0.007099
 850	4.2450e-01	8.4869	14.172784	0.000534	5.344949	0.905459	0.010691
 851	4.2500e-01	8.4979	14.173640	0.000009	0.085519	0.014487	0.000171
 852	4.2550e-01	8.5077	14.197587	0.000239	2.394537	0.405646	0.004789
 853	4.2600e-01	8.5150	14.234790	0.000372	3.720084	0.630199	0.007441
 854	4.2650e-01	8.5243	14.281829	0.000470	4.703555	0.796804	0.009408
 855	4.2700e-01	8.5364	14.306204	0.000244	2.437297	0.412889	0.004875
 856	4.2750e-01	8.5498	14.345117	0.000389	3.891123	0.659174	0.007783
 857	4.2800e-01	8.5568	14.377189	0.000321	3.206969	0.543275	0.006414
 858	4.2850e-01	8.5669	14.385314	0.000081	0.812432	0.137630	0.001625
 859	4.2900e-01	8.5764	14.438767	0.000534	5.344949	0.905459	0.010691
 860	4.2950e-01	8.5873	14.449886	0.000111	1.111749	0.188335	0.002224
 861	4.3000e-01	8.5962	14.470412	0.000205	2.052460	0.347696	0.004105
 862	4.3050e-01	8.6087	14.519161	0.000487	4.874593	0.825778	0.009750
 863	4.3100e-01	8.6163	14.564489	0.000453	4.532517	0.767829	0.009066
 864	4.3150e-01	8.6267	14.588009	0.000235	2.351778	0.398402	0.004704
 865	4.3200e-01	8.6365	14.597844	0.000098	0.983471	0.166604	0.001967
 866	4.3250e-01	8.6456	14.639751	0.000419	4.190440	0.709880	0.008381
 867	4.3300e-01	8.6572	14.672251	0.000325	3.249729	0.550519	0.006500
 868	4.3350e-01	8.6646	14.722283	0.000500	5.002872	0.847509	0.010006
 869	4.3400e-01	8.6768	14.745802	0.000235	2.351778	0.398402	0.004704
 870	4.3450e-01	8.6847	14.772315	0.000265	2.651095	0.449108	0.005303
 871	4.3500e-01	8.6957	14.806953	0.000346	3.463527	0.586737	0.006928
 872	4.3550e-01	8.7064	14.831327	0.000244	2.437297	0.412889	0.004875
 873	4.3600e-01	8.7177	14.835176	0.000038	0.384836	0.065193	0.000770
 874	4.3650e-01	8.7250	14.897182	0.000620	6.200141	1.050332	0.012401
 875	4.3700e-01	8.7375	14.910010	0.000128	1.282788	0.217310	0.002566
 876	4.3750e-01	8.7485	14.968595	0.000586	5.858064	0.992383	0.011717
 877	4.3800e-01	8.7570	14.967740	-0.000009	-0.085519	-0.014487	-0.000171
 878	4.3850e-01	8.7659	15.007081	0.000393	3.933882	0.666418	0.007868
 879	4.3900e-01	8.7775	15.037443	0.000304	3.035931	0.514301	0.006072
 880	4.3950e-01	8.7885	15.081488	0.000440	4.404238	0.746098	0.008809
 881	4.4000e-01	8.7976	15.136224	0.000547	5.473228	0.927190	0.010947
 882	4.4050e-01	8.8092	15.117409	-0.000188	-1.881422	-0.318722	-0.003763
 883	4.4100e-01	8.8161	15.174710	0.000573	5.729785	0.970652	0.011460
 884	4.4150e-01	8.8300	15.188395	0.000137	1.368307	0.231797	0.002737
 885	4.4200e-01	8.8364	15.225170	0.000368	3.677325	0.622956	0.007355
 886	4.4250e-01	8.8446	15.255104	0.000299	2.993171	0.507057	0.005987
 887	4.4300e-01	8.8577	15.303853	0.000487	4.874593	0.825778	0.009750
 888	4.4350e-01	8.8684	15.320103	0.000162	1.624864	0.275259	0.003250
 889	4.4400e-01	8.8782	15.342767	0.000227	2.266258	0.383915	0.004533
 890	4.4450e-01	8.8873	15.372701	0.000299	2.993171	0.507057	0.005987
 891	4.4500e-01	8.8947	15.416746	0.000440	4.404238	0.746098	0.008809
 892	4.4550e-01	8.9087	15.438128	0.000214	2.137980	0.362184	0.004276
 893	4.4600e-01	8.9185	15.486877	0.000487	4.874593	0.825778	0.009750
 894	4.4650e-01	8.9255	15.499706	0.000128	1.282788	0.217310	0.002566
 895	4.4700e-01	8.9386	15.534771	0.000351	3.506286	0.593981	0.007013
 896	4.4750e-01	8.9453	15.567270	0.000325	3.249729	0.550519	0.006500
 897	4.4800e-01	8.9563	15.597632	0.000304	3.035931	0.514301	0.006072
 898	4.4850e-01	8.9651	15.642960	0.000453	4.532517	0.767829	0.009066
 899	4.4900e-01	8.9771	15.663059	0.000201	2.009701	0.340453	0.004020
 900	4.4950e-01	8.9868	15.691282	0.000282	2.822133	0.478082	0.005645
 901	4.5000e-01	8.9987	15.737465	0.000462	4.618036	0.782316	0.009237
 902	4.5050e-01	9.0088	15.739603	0.000021	0.213798	0.036218	0.000428
 903	4.5100e-01	9.0161	15.779800	0.000402	4.019402	0.680905	0.008039
 904	4.5150e-01	9.0277	15.811017	0.000312	3.121450	0.528788	0.006243
 905	4.5200e-01	9.0387	15.839668	0.000286	2.864893	0.485326	0.005730
 906	4.5250e-01	9.0469	15.873023	0.000334	3.335248	0.565006	0.006671
 907	4.5300e-01	9.0582	15.909798	0.000368	3.677325	0.622956	0.007355
 908	4.5350e-01	9.0662	15.925620	0.000158	1.582105	0.268016	0.003164
 909	4.5400e-01	9.0759	15.961113	0.000355	3.549046	0.601225	0.007099
 910	4.5450e-01	9.0845	15.992330	0.000312	3.121450	0.528788	0.006243
 911	4.5500e-01	9.0948	16.011146	0.000188	1.881422	0.318722	0.003763
 912	4.5550e-01	9.1058	16.071013	0.000599	5.986343	1.014114	0.011974
 913	4.5600e-01	9.1144	16.112065	0.000410	4.104921	0.695392	0.008210
 914	4.5650e-01	9.1260	16.104795	-0.000073	-0.726913	-0.123142	-0.001454
 915	4.5700e-01	9.1360	16.165518	0.000607	6.071862	1.028601	0.012145
 916	4.5750e-01	9.1473	16.192459	0.000269	2.693854	0.456351	0.005388
 917	4.5800e-01	9.1620	16.209564	0.000171	1.710384	0.289747	0.003421
 918	4.5850e-01	9.1663	16.269004	0.000594	5.943583	1.006870	0.011888
 919	4.5900e-01	9.1776	16.294661	0.000257	2.565575	0.434620	0.005132
 920	4.5950e-01	9.1861	16.311338	0.000167	1.667624	0.282503	0.003335
 921	4.6000e-01	9.1980	16.316042	0.000047	0.470356	0.079680	0.000941
 922	4.6050e-01	9.2072	16.369068	0.000530	5.302189	0.898215	0.010605
 923	4.6100e-01	9.2151	16.401567	0.000325	3.249729	0.550519	0.006500
 924	4.6150e-01	9.2267	16.425087	0.000235	2.351778	0.398402	0.004704
 925	4.6200e-01	9.2358	16.466566	0.000415	4.147680	0.702636	0.008296
 926	4.6250e-01	9.2474	16.490513	0.000239	2.394537	0.405646	0.004789
 927	4.6300e-01	9.2566	16.528144	0.000376	3.762844	0.637443	0.007526
 928	4.6350e-01	9.2651	16.573900	0.000458	4.575276	0.775073	0.009151
 929	4.6400e-01	9.2792	16.588012	0.000141	1.411067	0.239041	0.002822
 930	4.6450e-01	9.2889	16.623505	0.000355	3.549046	0.601225	0.007099
 931	4.6500e-01	9.2989	16.653011	0.000295	2.950412	0.499813	0.005901
 932	4.6550e-01	9.3060	16.683800	0.000308	3.078691	0.521544	0.006158
 933	4.6600e-01	9.3178	16.701333	0.000175	1.753143	0.296991	0.003507
 934	4.6650e-01	9.3250	16.739391	0.000381	3.805604	0.644687	0.007612
 935	4.6700e-01	9.3372	16.783009	0.000436	4.361478	0.738854	0.008724
 936	4.6750e-01	9.3463	16.783437	0.000004	0.042760	0.007244	0.000086
 937	4.6800e-01	9.3581	16.839028	0.000556	5.558747	0.941677	0.011118
 938	4.6850e-01	9.3665	16.875804	0.000368	3.677325	0.622956	0.007355
 939	4.6900e-01	9.3756	16.892909	0.000171	1.710384	0.289747	0.003421
 940	4.6950e-01	9.3866	16.930540	0.000376	3.762844	0.637443	0.007526
 941	4.7000e-01	9.3964	16.957908	0.000274	2.736614	0.463595	0.005474
 942	4.7050e-01	9.4049	16.994256	0.000363	3.634565	0.615712	0.007270
 943	4.7100e-01	9.4159	17.026328	0.000321	3.206969	0.543275	0.006414
 944	4.7150e-01	9.4299	17.062248	0.000359	3.591806	0.608468	0.007184
 945	4.7200e-01	9.4360	17.105011	0.000428	4.275959	0.724367	0.008553
 946	4.7250e-01	9.4470	17.121688	0.000167	1.667624	0.282503	0.003335
 947	4.7300e-01	9.4580	17.159747	0.000381	3.805604	0.644687	0.007612
 948	4.7350e-01	9.4714	17.180701	0.000210	2.095220	0.354940	0.004191
 949	4.7400e-01	9.4753	17.212345	0.000316	3.164210	0.536032	0.006329
 950	4.7450e-01	9.4879	17.254252	0.000419	4.190440	0.709880	0.008381
 951	4.7500e-01	9.4971	17.280337	0.000261	2.608335	0.441864	0.005217
 952	4.7550e-01	9.5074	17.319679	0.000393	3.933882	0.666418	0.007868
 953	4.7600e-01	9.5154	17.355599	0.000359	3.591806	0.608468	0.007184
 954	4.7650e-01	9.5282	17.370566	0.000150	1.496586	0.253528	0.002993
 955	4.7700e-01	9.5386	17.385961	0.000154	1.539345	0.260772	0.003079
 956	4.7750e-01	9.5453	17.438986	0.000530	5.302189	0.898215	0.010605
 957	4.7800e-01	9.5569	17.477900	0.000389	3.891123	0.659174	0.007783
 958	4.7850e-01	9.5660	17.501420	0.000235	2.351778	0.398402	0.004704
 959	4.7900e-01	9.5746	17.526222	0.000248	2.480056	0.420133	0.004960
 960	4.7950e-01	9.5853	17.575399	0.000492	4.917353	0.833022	0.009835
 961	4.8000e-01	9.5950	17.566846	-0.000086	-0.855192	-0.144873	-0.001711
 962	4.8050e-01	9.6069	17.622010	0.000552	5.515987	0.934434	0.011033
 963	4.8100e-01	9.6155	17.651516	0.000295	2.950412	0.499813	0.005901
 964	4.8150e-01	9.6278	17.670759	0.000192	1.924182	0.325965	0.003849
 965	4.8200e-01	9.6375	17.707535	0.000368	3.677325	0.622956	0.007355
 966	4.8250e-01	9.6451	17.745594	0.000381	3.805604	0.644687	0.007612
 967	4.8300e-01	9.6564	17.788784	0.000432	4.318719	0.731611	0.008638
 968	4.8350e-01	9.6674	17.814014	0.000252	2.522816	0.427377	0.005046
 969	4.8400e-01	9.6759	17.838816	0.000248	2.480056	0.420133	0.004960
 970	4.8450e-01	9.6838	17.858487	0.000197	1.966941	0.333209	0.003934
 971	4.8500e-01	9.6954	17.906381	0.000479	4.789074	0.811291	0.009579
 972	4.8550e-01	9.7076	17.940163	0.000338	3.378008	0.572250	0.006756
 973	4.8600e-01	9.7156	17.956841	0.000167	1.667624	0.282503	0.003335
 974	4.8650e-01	9.7284	18.008156	0.000513	5.131151	0.869241	0.010263
 975	4.8700e-01	9.7382	18.045359	0.000372	3.720084	0.630199	0.007441
 976	4.8750e-01	9.7449	18.056905	0.000115	1.154509	0.195579	0.002309
 977	4.8800e-01	9.7583	18.102233	0.000453	4.532517	0.767829	0.009066
 978	4.8850e-01	9.7644	18.128746	0.000265	2.651095	0.449108	0.005303
 979	4.8900e-01	9.7748	18.144140	0.000154	1.539345	0.260772	0.003079
 980	4.8950e-01	9.7864	18.191607	0.000475	4.746315	0.804047	0.009493
 981	4.9000e-01	9.7949	18.210422	0.000188	1.881422	0.318722	0.003763
 982	4.9050e-01	9.8065	18.250191	0.000398	3.976642	0.673661	0.007954
 983	4.9100e-01	9.8151	18.302362	0.000522	5.216670	0.883728	0.010434
 984	4.9150e-01	9.8267	18.311342	0.000090	0.897951	0.152117	0.001796
 985	4.9200e-01	9.8346	18.351966	0.000406	4.062161	0.688149	0.008125
 986	4.9250e-01	9.8462	18.381045	0.000291	2.907652	0.492570	0.005816
 987	4.9300e-01	9.8560	18.441340	0.000603	6.029102	1.021358	0.012059
 988	4.9350e-01	9.8651	18.460155	0.000188	1.881422	0.318722	0.003763
 989	4.9400e-01	9.8749	18.475978	0.000158	1.582105	0.268016	0.003164
 990	4.9450e-01	9.8840	18.528148	0.000522	5.216670	0.883728	0.010434
 991	4.9500e-01	9.8962	18.542687	0.000145	1.453826	0.246285	0.002908
 992	4.9550e-01	9.9042	18.581173	0.000385	3.848363	0.651930	0.007697
 993	4.9600e-01	9.9146	18.610252	0.000291	2.907652	0.492570	0.005816
 994	4.9650e-01	9.9274	18.635909	0.000257	2.565575	0.434620	0.005132
 995	4.9700e-01	9.9371	18.657718	0.000218	2.180739	0.369427	0.004362
 996	4.9750e-01	9.9487	18.716303	0.000586	5.858064	0.992383	0.011717
 997	4.9800e-01	9.9551	18.751796	0.000355	3.549046	0.601225	0.007099
 998	4.9850e-01	9.9664	18.744526	-0.000073	-0.726913	-0.123142	-0.001454
 999	4.9900e-01	9.9762	18.803539	0.000590	5.900824	0.999627	0.011802
1000	4.9950e-01	9.9850	18.833472	0.000299	2.993171	0.507057	0.005987
1001	5.0000e-01	9.9957	18.848012	0.000145	1.453826	0.246285	0.002908
1002	5.0050e-01	9.9860	18.809953	0.000381	3.805604	0.644687	-0.007612
1003	5.0100e-01	9.9768	18.801400	0.000086	0.855192	0.144873	-0.001711
1004	5.0150e-01	9.9637	18.772750	0.000286	2.864893	0.485326	-0.005730
1005	5.0200e-01	9.9548	18.751796	0.000210	2.095220	0.354940	-0.004191
1006	5.0250e-01	9.9460	18.757783	-0.000060	-0.598634	-0.101411	0.001197
1007	5.0300e-01	9.9335	18.754789	0.000030	0.299317	0.050706	-0.000599
1008	5.0350e-01	9.9243	18.705612	0.000492	4.917353	0.833022	-0.009835
1009	5.0400e-01	9.9158	18.688935	0.000167	1.667624	0.282503	-0.003335
1010	5.0450e-01	9.9060	18.696205	-0.000073	-0.726913	-0.123142	0.001454
1011	5.0500e-01	9.8981	18.656863	0.000393	3.933882	0.666418	-0.007868
1012	5.0550e-01	9.8846	18.639758	0.000171	1.710384	0.289747	-0.003421
1013	5.0600e-01	9.8746	18.614101	0.000257	2.565575	0.434620	-0.005132
1014	5.0650e-01	9.8633	18.569628	0.000445	4.446998	0.753342	-0.008895
1015	5.0700e-01	9.8553	18.562358	0.000073	0.726913	0.123142	-0.001454
1016	5.0750e-01	9.8462	18.546108	0.000162	1.624864	0.275259	-0.003250
1017	5.0800e-01	9.8380	18.529003	0.000171	1.710384	0.289747	-0.003421
1018	5.0850e-01	9.8230	18.511043	0.000180	1.795903	0.304234	-0.003592
1019	5.0900e-01	9.8132	18.487096	0.000239	2.394537	0.405646	-0.004789
1020	5.0950e-01	9.8053	18.471701	0.000154	1.539345	0.260772	-0.003079
1021	5.1000e-01	9.7955	18.447754	0.000239	2.394537	0.405646	-0.004789
1022	5.1050e-01	9.7879	18.437919	0.000098	0.983471	0.166604	-0.001967
1023	5.1100e-01	9.7755	18.415255	0.000227	2.266258	0.383915	-0.004533
1024	5.1150e-01	9.7675	18.381900	0.000334	3.335248	0.565006	-0.006671
1025	5.1200e-01	9.7552	18.361802	0.000201	2.009701	0.340453	-0.004020
1026	5.1250e-01	9.7473	18.336144	0.000257	2.565575	0.434620	-0.005132
1027	5.1300e-01	9.7375	18.329730	0.000064	0.641394	0.108655	-0.001283
1028	5.1350e-01	9.7272	18.299368	0.000304	3.035931	0.514301	-0.006072
1029	5.1400e-01	9.7156	18.278842	0.000205	2.052460	0.347696	-0.004105
1030	5.1450e-01	9.7047	18.239501	0.000393	3.933882	0.666418	-0.007868
1031	5.1500e-01	9.6912	18.257889	-0.000184	-1.838662	-0.311478	0.003678
1032	5.1550e-01	9.6887	18.209995	0.000479	4.789074	0.811291	-0.009579
1033	5.1600e-01	9.6759	18.211705	-0.000017	-0.171038	-0.028975	0.000342
1034	5.1650e-01	9.6667	18.144996	0.000667	6.670496	1.130013	-0.013342
1035	5.1700e-01	9.6552	18.143285	0.000017	0.171038	0.028975	-0.000342
1036	5.1750e-01	9.6460	18.130456	0.000128	1.282788	0.217310	-0.002566
1037	5.1800e-01	9.6362	18.099240	0.000312	3.121450	0.528788	-0.006243
1038	5.1850e-01	9.6252	18.078714	0.000205	2.052460	0.347696	-0.004105
1039	5.1900e-01	9.6155	18.074865	0.000038	0.384836	0.065193	-0.000770
1040	5.1950e-01	9.6082	18.032103	0.000428	4.275959	0.724367	-0.008553
1041	5.2000e-01	9.5975	18.005162	0.000269	2.693854	0.456351	-0.005388
1042	5.2050e-01	9.5874	17.987630	0.000175	1.753143	0.296991	-0.003507
1043	5.2100e-01	9.5758	17.966248	0.000214	2.137980	0.362184	-0.004276
1044	5.2150e-01	9.5663	17.960262	0.000060	0.598634	0.101411	-0.001197
1045	5.2200e-01	9.5541	17.908519	0.000517	5.173911	0.876484	-0.010349
1046	5.2250e-01	9.5471	17.899539	0.000090	0.897951	0.152117	-0.001796
1047	5.2300e-01	9.5355	17.890131	0.000094	0.940711	0.159361	-0.001882
1048	5.2350e-01	9.5251	17.877730	0.000124	1.240028	0.210066	-0.002480
1049	5.2400e-01	9.5172	17.835823	0.000419	4.190440	0.709880	-0.008381
1050	5.2450e-01	9.5074	17.810165	0.000257	2.565575	0.434620	-0.005132
1051	5.2500e-01	9.4965	17.789211	0.000210	2.095220	0.354940	-0.004191
1052	5.2550e-01	9.4855	17.766120	0.000231	2.309018	0.391158	-0.004618
1053	5.2600e-01	9.4763	17.741317	0.000248	2.480056	0.420133	-0.004960
1054	5.2650e-01	9.4659	17.711811	0.000295	2.950412	0.499813	-0.005901
1055	5.2700e-01	9.4537	17.707107	0.000047	0.470356	0.079680	-0.000941
1056	5.2750e-01	9.4437	17.671187	0.000359	3.591806	0.608468	-0.007184
1057	5.2800e-01	9.4354	17.632273	0.000389	3.891123	0.659174	-0.007783
1058	5.2850e-01	9.4250	17.611747	0.000205	2.052460	0.347696	-0.004105
1059	5.2900e-01	9.4159	17.594214	0.000175	1.753143	0.296991	-0.003507
1060	5.2950e-01	9.4025	17.573688	0.000205	2.052460	0.347696	-0.004105
1061	5.3000e-01	9.3951	17.545893	0.000278	2.779373	0.470839	-0.005559
1062	5.3050e-01	9.3848	17.545037	0.000009	0.085519	0.014487	-0.000171
1063	5.3100e-01	9.3768	17.497143	0.000479	4.789074	0.811291	-0.009579
1064	5.3150e-01	9.3658	17.450960	0.000462	4.618036	0.782316	-0.009237
1065	5.3200e-01	9.3573	17.457802	-0.000068	-0.684153	-0.115899	0.001368
1066	5.3250e-01	9.3454	17.449677	0.000081	0.812432	0.137630	-0.001625
1067	5.3300e-01	9.3347	17.405632	0.000440	4.404238	0.746098	-0.008809
1068	5.3350e-01	9.3274	17.345336	0.000603	6.029102	1.021358	-0.012059
1069	5.3400e-01	9.3158	17.356027	-0.000107	-1.068990	-0.181092	0.002138
1070	5.3450e-01	9.3054	17.317968	0.000381	3.805604	0.644687	-0.007612
1071	5.3500e-01	9.2963	17.326521	-0.000086	-0.855192	-0.144873	0.001711
1072	5.3550e-01	9.2853	17.304712	0.000218	2.180739	0.369427	-0.004362
1073	5.3600e-01	9.2749	17.259384	0.000453	4.532517	0.767829	-0.009066
1074	5.3650e-01	9.2664	17.241851	0.000175	1.753143	0.296991	-0.003507
1075	5.3700e-01	9.2572	17.220897	0.000210	2.095220	0.354940	-0.004191
1076	5.3750e-01	9.2444	17.199089	0.000218	2.180739	0.369427	-0.004362
1077	5.3800e-01	9.2389	17.155898	0.000432	4.318719	0.731611	-0.008638
1078	5.3850e-01	9.2255	17.153760	0.000021	0.213798	0.036218	-0.000428
1079	5.3900e-01	9.2157	17.143070	0.000107	1.068990	0.181092	-0.002138
1080	5.3950e-01	9.2053	17.075932	0.000671	6.713256	1.137256	-0.013427
1081	5.4000e-01	9.1977	17.060966	0.000150	1.496586	0.253528	-0.002993
1082	5.4050e-01	9.1870	17.045571	0.000154	1.539345	0.260772	-0.003079
1083	5.4100e-01	9.1766	17.027183	0.000184	1.838662	0.311478	-0.003678
1084	5.4150e-01	9.1678	17.004519	0.000227	2.266258	0.383915	-0.004533
1085	5.4200e-01	9.1577	16.963467	0.000410	4.104921	0.695392	-0.008210
1086	5.4250e-01	9.1467	16.952349	0.000111	1.111749	0.188335	-0.002224
1087	5.4300e-01	9.1351	16.926264	0.000261	2.608335	0.441864	-0.005217
1088	5.4350e-01	9.1217	16.896757	0.000295	2.950412	0.499813	-0.005901
1089	5.4400e-01	9.1150	16.851002	0.000458	4.575276	0.775073	-0.009151
1090	5.4450e-01	9.1052	16.833041	0.000180	1.795903	0.304234	-0.003592
1091	5.4500e-01	9.0973	16.839883	-0.000068	-0.684153	-0.115899	0.001368
1092	5.4550e-01	9.0854	16.791134	0.000487	4.874593	0.825778	-0.009750
1093	5.4600e-01	9.0759	16.796266	-0.000051	-0.513115	-0.086924	0.001026
1094	5.4650e-01	9.0649	16.748372	0.000479	4.789074	0.811291	-0.009579
1095	5.4700e-01	9.0546	16.728273	0.000201	2.009701	0.340453	-0.004020
1096	5.4750e-01	9.0448	16.709885	0.000184	1.838662	0.311478	-0.003678
1097	5.4800e-01	9.0356	16.684228	0.000257	2.565575	0.434620	-0.005132
1098	5.4850e-01	9.0253	16.657287	0.000269	2.693854	0.456351	-0.005388
1099	5.4900e-01	9.0137	16.643603	0.000137	1.368307	0.231797	-0.002737
1100	5.4950e-01	9.0063	16.599558	0.000440	4.404238	0.746098	-0.008809
1101	5.5000e-01	8.9981	16.562782	0.000368	3.677325	0.622956	-0.007355
1102	5.5050e-01	8.9841	16.569624	-0.000068	-0.684153	-0.115899	0.001368
1103	5.5100e-01	8.9758	16.531993	0.000376	3.762844	0.637443	-0.007526
1104	5.5150e-01	8.9673	16.499494	0.000325	3.249729	0.550519	-0.006500
1105	5.5200e-01	8.9545	16.472553	0.000269	2.693854	0.456351	-0.005388
1106	5.5250e-01	8.9447	16.434922	0.000376	3.762844	0.637443	-0.007526
1107	5.5300e-01	8.9337	16.428508	0.000064	0.641394	0.108655	-0.001283
1108	5.5350e-01	8.9270	16.404561	0.000239	2.394537	0.405646	-0.004789
1109	5.5400e-01	8.9142	16.370778	0.000338	3.378008	0.572250	-0.006756
1110	5.5450e-01	8.9050	16.342127	0.000286	2.864893	0.485326	-0.005730
1111	5.5500e-01	8.8956	16.291240	0.000509	5.088391	0.861997	-0.010177
1112	5.5550e-01	8.8855	16.283970	0.000073	0.726913	0.123142	-0.001454
1113	5.5600e-01	8.8745	16.254037	0.000299	2.993171	0.507057	-0.005987
1114	5.5650e-01	8.8654	16.239925	0.000141	1.411067	0.239041	-0.002822
1115	5.5700e-01	8.8547	16.212129	0.000278	2.779373	0.470839	-0.005559
1116	5.5750e-01	8.8458	16.180485	0.000316	3.164210	0.536032	-0.006329
1117	5.5800e-01	8.8391	16.155255	0.000252	2.522816	0.427377	-0.005046
1118	5.5850e-01	8.8269	16.141999	0.000133	1.325547	0.224554	-0.002651
1119	5.5900e-01	8.8165	16.124466	0.000175	1.753143	0.296991	-0.003507
1120	5.5950e-01	8.8074	16.085125	0.000393	3.933882	0.666418	-0.007868
1121	5.6000e-01	8.7946	16.047921	0.000372	3.720084	0.630199	-0.007441
1122	5.6050e-01	8.7866	16.029961	0.000180	1.795903	0.304234	-0.003592
1123	5.6100e-01	8.7781	16.028251	0.000017	0.171038	0.028975	-0.000342
1124	5.6150e-01	8.7659	15.985060	0.000432	4.318719	0.731611	-0.008638
1125	5.6200e-01	8.7579	15.958975	0.000261	2.608335	0.441864	-0.005217
1126	5.6250e-01	8.7451	15.953416	0.000056	0.555875	0.094168	-0.001112
1127	5.6300e-01	8.7341	15.907660	0.000458	4.575276	0.775073	-0.009151
1128	5.6350e-01	8.7256	15.876016	0.000316	3.164210	0.536032	-0.006329
1129	5.6400e-01	8.7140	15.857200	0.000188	1.881422	0.318722	-0.003763
1130	5.6450e-01	8.7048	15.823846	0.000334	3.335248	0.565006	-0.006671
1131	5.6500e-01	8.6975	15.810589	0.000133	1.325547	0.224554	-0.002651
1132	5.6550e-01	8.6868	15.775096	0.000355	3.549046	0.601225	-0.007099
1133	5.6600e-01	8.6761	15.763123	0.000120	1.197269	0.202823	-0.002395
1134	5.6650e-01	8.6664	15.743024	0.000201	2.009701	0.340453	-0.004020
1135	5.6700e-01	8.6560	15.696413	0.000466	4.660795	0.789560	-0.009322
1136	5.6750e-01	8.6462	15.678453	0.000180	1.795903	0.304234	-0.003592
1137	5.6800e-01	8.6365	15.651085	0.000274	2.736614	0.463595	-0.005474
1138	5.6850e-01	8.6285	15.630987	0.000201	2.009701	0.340453	-0.004020
1139	5.6900e-01	8.6166	15.595921	0.000351	3.506286	0.593981	-0.007013
1140	5.6950e-01	8.6060	15.568553	0.000274	2.736614	0.463595	-0.005474
1141	5.7000e-01	8.5950	15.530495	0.000381	3.805604	0.644687	-0.007612
1142	5.7050e-01	8.5870	15.506975	0.000235	2.351778	0.398402	-0.004704
1143	5.7100e-01	8.5774	15.496285	0.000107	1.068990	0.181092	-0.002138
1144	5.7150e-01	8.5651	15.456088	0.000402	4.019402	0.680905	-0.008039
1145	5.7200e-01	8.5553	15.455660	0.000004	0.042760	0.007244	-0.000086
1146	5.7250e-01	8.5468	15.417602	0.000381	3.805604	0.644687	-0.007612
1147	5.7300e-01	8.5333	15.415891	0.000017	0.171038	0.028975	-0.000342
1148	5.7350e-01	8.5254	15.355168	0.000607	6.071862	1.028601	-0.012145
1149	5.7400e-01	8.5162	15.339346	0.000158	1.582105	0.268016	-0.003164
1150	5.7450e-01	8.5046	15.301715	0.000376	3.762844	0.637443	-0.007526
1151	5.7500e-01	8.4943	15.281189	0.000205	2.052460	0.347696	-0.004105
1152	5.7550e-01	8.4869	15.264939	0.000162	1.624864	0.275259	-0.003250
1153	5.7600e-01	8.4784	15.217045	0.000479	4.789074	0.811291	-0.009579
1154	5.7650e-01	8.4659	15.188395	0.000286	2.864893	0.485326	-0.005730
1155	5.7700e-01	8.4540	15.181553	0.000068	0.684153	0.115899	-0.001368
1156	5.7750e-01	8.4464	15.152902	0.000286	2.864893	0.485326	-0.005730
1157	5.7800e-01	8.4357	15.117409	0.000355	3.549046	0.601225	-0.007099
1158	5.7850e-01	8.4247	15.083199	0.000342	3.420767	0.579494	-0.006842
1159	5.7900e-01	8.4161	15.059679	0.000235	2.351778	0.398402	-0.004704
1160	5.7950e-01	8.4088	15.022904	0.000368	3.677325	0.622956	-0.007355
1161	5.8000e-01	8.3966	15.001522	0.000214	2.137980	0.362184	-0.004276
1162	5.8050e-01	8.3856	14.984845	0.000167	1.667624	0.282503	-0.003335
1163	5.8100e-01	8.3740	14.948497	0.000363	3.634565	0.615712	-0.007270
1164	5.8150e-01	8.3704	14.914714	0.000338	3.378008	0.572250	-0.006756
1165	5.8200e-01	8.3575	14.896754	0.000180	1.795903	0.304234	-0.003592
1166	5.8250e-01	8.3484	14.874518	0.000222	2.223499	0.376671	-0.004447
1167	5.8300e-01	8.3374	14.851426	0.000231	2.309018	0.391158	-0.004618
1168	5.8350e-01	8.3276	14.827051	0.000244	2.437297	0.412889	-0.004875
1169	5.8400e-01	8.3160	14.800111	0.000269	2.693854	0.456351	-0.005388
1170	5.8450e-01	8.3057	14.759486	0.000406	4.062161	0.688149	-0.008125
1171	5.8500e-01	8.2965	14.736822	0.000227	2.266258	0.383915	-0.004533
1172	5.8550e-01	8.2849	14.720145	0.000167	1.667624	0.282503	-0.003335
1173	5.8600e-01	8.2776	14.681231	0.000389	3.891123	0.659174	-0.007783
1174	5.8650e-01	8.2654	14.652152	0.000291	2.907652	0.492570	-0.005816
1175	5.8700e-01	8.2562	14.616660	0.000355	3.549046	0.601225	-0.007099
1176	5.8750e-01	8.2458	14.605114	0.000115	1.154509	0.195579	-0.002309
1177	5.8800e-01	8.2367	14.586726	0.000184	1.838662	0.311478	-0.003678
1178	5.8850e-01	8.2251	14.560213	0.000265	2.651095	0.449108	-0.005303
1179	5.8900e-01	8.2141	14.512747	0.000475	4.746315	0.804047	-0.009493
1180	5.8950e-01	8.2056	14.505905	0.000068	0.684153	0.115899	-0.001368
1181	5.9000e-01	8.1958	14.476398	0.000295	2.950412	0.499813	-0.005901
1182	5.9050e-01	8.1842	14.449458	0.000269	2.693854	0.456351	-0.005388
1183	5.9100e-01	8.1763	14.413965	0.000355	3.549046	0.601225	-0.007099
1184	5.9150e-01	8.1653	14.390446	0.000235	2.351778	0.398402	-0.004704
1185	5.9200e-01	8.1573	14.350677	0.000398	3.976642	0.673661	-0.007954
1186	5.9250e-01	8.1461	14.339131	0.000115	1.154509	0.195579	-0.002309
1187	5.9300e-01	8.1360	14.291664	0.000475	4.746315	0.804047	-0.009493
1188	5.9350e-01	8.1256	14.292092	-0.000004	-0.042760	-0.007244	0.000086
1189	5.9400e-01	8.1134	14.254889	0.000372	3.720084	0.630199	-0.007441
1190	5.9450e-01	8.1055	14.234363	0.000205	2.052460	0.347696	-0.004105
1191	5.9500e-01	8.0957	14.181765	0.000526	5.259430	0.890972	-0.010520
1192	5.9550e-01	8.0856	14.167225	0.000145	1.453826	0.246285	-0.002908
1193	5.9600e-01	8.0774	14.133443	0.000338	3.378008	0.572250	-0.006756
1194	5.9650e-01	8.0646	14.116766	0.000167	1.667624	0.282503	-0.003335
1195	5.9700e-01	8.0560	14.069299	0.000475	4.746315	0.804047	-0.009493
1196	5.9750e-01	8.0484	14.053049	0.000162	1.624864	0.275259	-0.003250
1197	5.9800e-01	8.0359	14.025681	0.000274	2.736614	0.463595	-0.005474
1198	5.9850e-01	8.0252	14.004300	0.000214	2.137980	0.362184	-0.004276
1199	5.9900e-01	8.0164	13.980353	0.000239	2.394537	0.405646	-0.004789
1200	5.9950e-01	8.0069	13.959827	0.000205	2.052460	0.347696	-0.004105
1201	6.0000e-01	8.0005	13.916209	0.000436	4.361478	0.738854	-0.008724
1202	6.0050e-01	7.9877	13.882427	0.000338	3.378008	0.572250	-0.006756
1203	6.0100e-01	7.9755	13.866605	0.000158	1.582105	0.268016	-0.003164
1204	6.0150e-01	7.9633	13.842658	0.000239	2.394537	0.405646	-0.004789
1205	6.0200e-01	7.9535	13.821277	0.000214	2.137980	0.362184	-0.004276
1206	6.0250e-01	7.9449	13.793053	0.000282	2.822133	0.478082	-0.005645
1207	6.0300e-01	7.9358	13.760554	0.000325	3.249729	0.550519	-0.006500
1208	6.0350e-01	7.9260	13.718646	0.000419	4.190440	0.709880	-0.008381
1209	6.0400e-01	7.9156	13.698548	0.000201	2.009701	0.340453	-0.004020
1210	6.0450e-01	7.9041	13.683581	0.000150	1.496586	0.253528	-0.002993
1211	6.0500e-01	7.8943	13.645095	0.000385	3.848363	0.651930	-0.007697
1212	6.0550e-01	7.8864	13.620720	0.000244	2.437297	0.412889	-0.004875
1213	6.0600e-01	7.8766	13.603615	0.000171	1.710384	0.289747	-0.003421
1214	6.0650e-01	7.8674	13.563846	0.000398	3.976642	0.673661	-0.007954
1215	6.0700e-01	7.8543	13.531774	0.000321	3.206969	0.543275	-0.006414
1216	6.0750e-01	7.8448	13.497564	0.000342	3.420767	0.579494	-0.006842
1217	6.0800e-01	7.8363	13.475755	0.000218	2.180739	0.369427	-0.004362
1218	6.0850e-01	7.8271	13.449670	0.000261	2.608335	0.441864	-0.005217
1219	6.0900e-01	7.8168	13.440262	0.000094	0.940711	0.159361	-0.001882
1220	6.0950e-01	7.8088	13.386382	0.000539	5.387709	0.912703	-0.010776
1221	6.1000e-01	7.7954	13.374408	0.000120	1.197269	0.202823	-0.002395
1222	6.1050e-01	7.7838	13.342336	0.000321	3.206969	0.543275	-0.006414
1223	6.1100e-01	7.7753	13.314541	0.000278	2.779373	0.470839	-0.005559
1224	6.1150e-01	7.7673	13.300429	0.000141	1.411067	0.239041	-0.002822
1225	6.1200e-01	7.7570	13.240989	0.000594	5.943583	1.006870	-0.011888
1226	6.1250e-01	7.7472	13.235430	0.000056	0.555875	0.094168	-0.001112
1227	6.1300e-01	7.7356	13.201220	0.000342	3.420767	0.579494	-0.006842
1228	6.1350e-01	7.7258	13.180266	0.000210	2.095220	0.354940	-0.004191
1229	6.1400e-01	7.7142	13.134510	0.000458	4.575276	0.775073	-0.009151
1230	6.1450e-01	7.7063	13.108853	0.000257	2.565575	0.434620	-0.005132
1231	6.1500e-01	7.6965	13.082768	0.000261	2.608335	0.441864	-0.005217
1232	6.1550e-01	7.6849	13.071222	0.000115	1.154509	0.195579	-0.002309
1233	6.1600e-01	7.6758	13.029314	0.000419	4.190440	0.709880	-0.008381
1234	6.1650e-01	7.6630	13.005795	0.000235	2.351778	0.398402	-0.004704
1235	6.1700e-01	7.6569	12.968592	0.000372	3.720084	0.630199	-0.007441
1236	6.1750e-01	7.6440	12.925829	0.000428	4.275959	0.724367	-0.008553
1237	6.1800e-01	7.6343	12.921125	0.000047	0.470356	0.079680	-0.000941
1238	6.1850e-01	7.6282	12.897178	0.000239	2.394537	0.405646	-0.004789
1239	6.1900e-01	7.6160	12.870238	0.000269	2.693854	0.456351	-0.005388
1240	6.1950e-01	7.6056	12.818495	0.000517	5.173911	0.876484	-0.010349
1241	6.2000e-01	7.5961	12.803956	0.000145	1.453826	0.246285	-0.002908
1242	6.2050e-01	7.5867	12.780437	0.000235	2.351778	0.398402	-0.004704
1243	6.2100e-01	7.5745	12.743233	0.000372	3.720084	0.630199	-0.007441
1244	6.2150e-01	7.5653	12.724845	0.000184	1.838662	0.311478	-0.003678
1245	6.2200e-01	7.5502	12.710734	0.000141	1.411067	0.239041	-0.002822
1246	6.2250e-01	7.5464	12.658991	0.000517	5.173911	0.876484	-0.010349
1247	6.2300e-01	7.5360	12.630768	0.000282	2.822133	0.478082	-0.005645
1248	6.2350e-01	7.5262	12.605965	0.000248	2.480056	0.420133	-0.004960
1249	6.2400e-01	7.5160	12.582018	0.000239	2.394537	0.405646	-0.004789
1250	6.2450e-01	7.5056	12.571328	0.000107	1.068990	0.181092	-0.002138
1251	6.2500e-01	7.4969	12.520013	0.000513	5.131151	0.869241	-0.010263
1252	6.2550e-01	7.4850	12.493928	0.000261	2.608335	0.441864	-0.005217
1253	6.2600e-01	7.4768	12.463566	0.000304	3.035931	0.514301	-0.006072
1254	6.2650e-01	7.4652	12.429356	0.000342	3.420767	0.579494	-0.006842
1255	6.2700e-01	7.4567	12.398140	0.000312	3.121450	0.528788	-0.006243
1256	6.2750e-01	7.4457	12.369489	0.000286	2.864893	0.485326	-0.005730
1257	6.2800e-01	7.4377	12.342548	0.000269	2.693854	0.456351	-0.005388
1258	6.2850e-01	7.4234	12.316463	0.000261	2.608335	0.441864	-0.005217
1259	6.2900e-01	7.4188	12.276266	0.000402	4.019402	0.680905	-0.008039
1260	6.2950e-01	7.4042	12.280115	-0.000038	-0.384836	-0.065193	0.000770
1261	6.3000e-01	7.3970	12.223241	0.000569	5.687026	0.963408	-0.011375
1262	6.3050e-01	7.3846	12.200577	0.000227	2.266258	0.383915	-0.004533
1263	6.3100e-01	7.3724	12.192024	0.000086	0.855192	0.144873	-0.001711
1264	6.3150e-01	7.3663	12.153110	0.000389	3.891123	0.659174	-0.007783
1265	6.3200e-01	7.3553	12.125315	0.000278	2.779373	0.470839	-0.005559
1266	6.3250e-01	7.3465	12.092388	0.000329	3.292489	0.557763	-0.006585
1267	6.3300e-01	7.3346	12.051335	0.000410	4.104921	0.695392	-0.008210
1268	6.3350e-01	7.3260	12.038934	0.000124	1.240028	0.210066	-0.002480
1269	6.3400e-01	7.3146	11.989330	0.000496	4.960113	0.840266	-0.009921
1270	6.3450e-01	7.3071	11.970514	0.000188	1.881422	0.318722	-0.003763
1271	6.3500e-01	7.2974	11.944429	0.000261	2.608335	0.441864	-0.005217
1272	6.3550e-01	7.2870	11.917061	0.000274	2.736614	0.463595	-0.005474
1273	6.3600e-01	7.2772	11.865746	0.000513	5.131151	0.869241	-0.010263
1274	6.3650e-01	7.2662	11.873871	-0.000081	-0.812432	-0.137630	0.001625
1275	6.3700e-01	7.2595	11.839233	0.000346	3.463527	0.586737	-0.006928
1276	6.3750e-01	7.2449	11.794760	0.000445	4.446998	0.753342	-0.008895
1277	6.3800e-01	7.2366	11.776372	0.000184	1.838662	0.311478	-0.003678
1278	6.3850e-01	7.2278	11.727196	0.000492	4.917353	0.833022	-0.009835
1279	6.3900e-01	7.2174	11.696834	0.000304	3.035931	0.514301	-0.006072
1280	6.3950e-01	7.2058	11.687426	0.000094	0.940711	0.159361	-0.001882
1281	6.4000e-01	7.1942	11.666900	0.000205	2.052460	0.347696	-0.004105
1282	6.4050e-01	7.1869	11.626276	0.000406	4.062161	0.688149	-0.008125
1283	6.4100e-01	7.1765	11.592066	0.000342	3.420767	0.579494	-0.006842
1284	6.4150e-01	7.1669	11.589500	0.000026	0.256558	0.043462	-0.000513
1285	6.4200e-01	7.1582	11.536902	0.000526	5.259430	0.890972	-0.010520
1286	6.4250e-01	7.1466	11.504830	0.000321	3.206969	0.543275	-0.006414
1287	6.4300e-01	7.1352	11.489436	0.000154	1.539345	0.260772	-0.003079
1288	6.4350e-01	7.1259	11.455653	0.000338	3.378008	0.572250	-0.006756
1289	6.4400e-01	7.1179	11.419733	0.000359	3.591806	0.608468	-0.007184
1290	6.4450e-01	7.1052	11.392793	0.000269	2.693854	0.456351	-0.005388
1291	6.4500e-01	7.0966	11.365425	0.000274	2.736614	0.463595	-0.005474
1292	6.4550e-01	7.0844	11.332925	0.000325	3.249729	0.550519	-0.006500
1293	6.4600e-01	7.0758	11.293584	0.000393	3.933882	0.666418	-0.007868
1294	6.4650e-01	7.0648	11.262367	0.000312	3.121450	0.528788	-0.006243
1295	6.4700e-01	7.0581	11.234999	0.000274	2.736614	0.463595	-0.005474
1296	6.4750e-01	7.0453	11.216611	0.000184	1.838662	0.311478	-0.003678
1297	6.4800e-01	7.0355	11.188388	0.000282	2.822133	0.478082	-0.005645
1298	6.4850e-01	7.0245	11.170855	0.000175	1.753143	0.296991	-0.003507
1299	6.4900e-01	7.0154	11.136645	0.000342	3.420767	0.579494	-0.006842
1300	6.4950e-01	7.0056	11.102435	0.000342	3.420767	0.579494	-0.006842
1301	6.5000e-01	6.9977	11.073356	0.000291	2.907652	0.492570	-0.005816
1302	6.5050e-01	6.9843	11.051548	0.000218	2.180739	0.369427	-0.004362
1303	6.5100e-01	6.9772	11.023324	0.000282	2.822133	0.478082	-0.005645
1304	6.5150e-01	6.9659	10.981417	0.000419	4.190440	0.709880	-0.008381
1305	6.5200e-01	6.9559	10.951483	0.000299	2.993171	0.507057	-0.005987
1306	6.5250e-01	6.9458	10.916418	0.000351	3.506286	0.593981	-0.007013
1307	6.5300e-01	6.9351	10.900596	0.000158	1.582105	0.268016	-0.003164
1308	6.5350e-01	6.9263	10.868096	0.000325	3.249729	0.550519	-0.006500
1309	6.5400e-01	6.9179	10.824906	0.000432	4.318719	0.731611	-0.008638
1310	6.5450e-01	6.9067	10.808229	0.000167	1.667624	0.282503	-0.003335
1311	6.5500e-01	6.8951	10.784709	0.000235	2.351778	0.398402	-0.004704
1312	6.5550e-01	6.8842	10.747078	0.000376	3.762844	0.637443	-0.007526
1313	6.5600e-01	6.8738	10.710303	0.000368	3.677325	0.622956	-0.007355
1314	6.5650e-01	6.8640	10.684645	0.000257	2.565575	0.434620	-0.005132
1315	6.5700e-01	6.8549	10.651290	0.000334	3.335248	0.565006	-0.006671
1316	6.5750e-01	6.8451	10.623922	0.000274	2.736614	0.463595	-0.005474
1317	6.5800e-01	6.8365	10.587574	0.000363	3.634565	0.615712	-0.007270
1318	6.5850e-01	6.8269	10.543529	0.000440	4.404238	0.746098	-0.008809
1319	6.5900e-01	6.8213	10.530700	0.000128	1.282788	0.217310	-0.002566
1320	6.5950e-01	6.8069	10.510602	0.000201	2.009701	0.340453	-0.004020
1321	6.6000e-01	6.7969	10.457148	0.000534	5.344949	0.905459	-0.010691
1322	6.6050e-01	6.7877	10.455438	0.000017	0.171038	0.028975	-0.000342
1323	6.6100e-01	6.7743	10.418662	0.000368	3.677325	0.622956	-0.007355
1324	6.6150e-01	6.7667	10.381459	0.000372	3.720084	0.630199	-0.007441
1325	6.6200e-01	6.7572	10.362216	0.000192	1.924182	0.325965	-0.003849
1326	6.6250e-01	6.7468	10.323302	0.000389	3.891123	0.659174	-0.007783
1327	6.6300e-01	6.7346	10.293368	0.000299	2.993171	0.507057	-0.005987
1328	6.6350e-01	6.7245	10.277546	0.000158	1.582105	0.268016	-0.003164
1329	6.6400e-01	6.7175	10.223665	0.000539	5.387709	0.912703	-0.010776
1330	6.6450e-01	6.7090	10.209126	0.000145	1.453826	0.246285	-0.002908
1331	6.6500e-01	6.6974	10.182185	0.000269	2.693854	0.456351	-0.005388
1332	6.6550e-01	6.6840	10.133009	0.000492	4.917353	0.833022	-0.009835
1333	6.6600e-01	6.6785	10.116331	0.000167	1.667624	0.282503	-0.003335
1334	6.6650e-01	6.6644	10.091956	0.000244	2.437297	0.412889	-0.004875
1335	6.6700e-01	6.6560	10.047911	0.000440	4.404238	0.746098	-0.008809
1336	6.6750e-01	6.6443	10.012846	0.000351	3.506286	0.593981	-0.007013
1337	6.6800e-01	6.6370	9.999162	0.000137	1.368307	0.231797	-0.002737
1338	6.6850e-01	6.6248	9.963669	0.000355	3.549046	0.601225	-0.007099
1339	6.6900e-01	6.6162	9.926893	0.000368	3.677325	0.622956	-0.007355
1340	6.6950e-01	6.6058	9.907222	0.000197	1.966941	0.333209	-0.003934
1341	6.7000e-01	6.5958	9.880710	0.000265	2.651095	0.449108	-0.005303
1342	6.7050e-01	6.5845	9.853769	0.000269	2.693854	0.456351	-0.005388
1343	6.7100e-01	6.5773	9.826401	0.000274	2.736614	0.463595	-0.005474
1344	6.7150e-01	6.5686	9.781928	0.000445	4.446998	0.753342	-0.008895
1345	6.7200e-01	6.5564	9.743870	0.000381	3.805604	0.644687	-0.007612
1346	6.7250e-01	6.5442	9.713936	0.000299	2.993171	0.507057	-0.005987
1347	6.7300e-01	6.5363	9.683147	0.000308	3.078691	0.521544	-0.006158
1348	6.7350e-01	6.5259	9.635253	0.000479	4.789074	0.811291	-0.009579
1349	6.7400e-01	6.5167	9.636536	-0.000013	-0.128279	-0.021731	0.000257
1350	6.7450e-01	6.5063	9.606174	0.000304	3.035931	0.514301	-0.006072
1351	6.7500e-01	6.4960	9.571109	0.000351	3.506286	0.593981	-0.007013
1352	6.7550e-01	6.4856	9.526636	0.000445	4.446998	0.753342	-0.008895
1353	6.7600e-01	6.4758	9.479597	0.000470	4.703555	0.796804	-0.009408
1354	6.7650e-01	6.4655	9.481735	-0.000021	-0.213798	-0.036218	0.000428
1355	6.7700e-01	6.4551	9.452657	0.000291	2.907652	0.492570	-0.005816
1356	6.7750e-01	6.4453	9.416309	0.000363	3.634565	0.615712	-0.007270
1357	6.7800e-01	6.4343	9.375257	0.000410	4.104921	0.695392	-0.008210
1358	6.7850e-01	6.4253	9.358152	0.000171	1.710384	0.289747	-0.003421
1359	6.7900e-01	6.4160	9.323086	0.000351	3.506286	0.593981	-0.007013
1360	6.7950e-01	6.4063	9.285883	0.000372	3.720084	0.630199	-0.007441
1361	6.8000e-01	6.3947	9.249962	0.000359	3.591806	0.608468	-0.007184
1362	6.8050e-01	6.3855	9.207200	0.000428	4.275959	0.724367	-0.008553
1363	6.8100e-01	6.3753	9.200785	0.000064	0.641394	0.108655	-0.001283
1364	6.8150e-01	6.3644	9.176411	0.000244	2.437297	0.412889	-0.004875
1365	6.8200e-01	6.3531	9.127661	0.000487	4.874593	0.825778	-0.009750
1366	6.8250e-01	6.3452	9.108846	0.000188	1.881422	0.318722	-0.003763
1367	6.8300e-01	6.3379	9.052827	0.000560	5.601506	0.948921	-0.011204
1368	6.8350e-01	6.3269	9.042136	0.000107	1.068990	0.181092	-0.002138
1369	6.8400e-01	6.3156	8.994242	0.000479	4.789074	0.811291	-0.009579
1370	6.8450e-01	6.3057	8.979703	0.000145	1.453826	0.246285	-0.002908
1371	6.8500e-01	6.2961	8.954901	0.000248	2.480056	0.420133	-0.004960
1372	6.8550e-01	6.2878	8.924539	0.000304	3.035931	0.514301	-0.006072
1373	6.8600e-01	6.2769	8.896316	0.000282	2.822133	0.478082	-0.005645
1374	6.8650e-01	6.2686	8.849277	0.000470	4.703555	0.796804	-0.009408
1375	6.8700e-01	6.2573	8.847139	0.000021	0.213798	0.036218	-0.000428
1376	6.8750e-01	6.2447	8.780430	0.000667	6.670496	1.130013	-0.013342
1377	6.8800e-01	6.2378	8.753489	0.000269	2.693854	0.456351	-0.005388
1378	6.8850e-01	6.2262	8.726549	0.000269	2.693854	0.456351	-0.005388
1379	6.8900e-01	6.2149	8.708161	0.000184	1.838662	0.311478	-0.003678
1380	6.8950e-01	6.2054	8.679938	0.000282	2.822133	0.478082	-0.005645
1381	6.9000e-01	6.1945	8.660267	0.000197	1.966941	0.333209	-0.003934
1382	6.9050e-01	6.1874	8.587571	0.000727	7.269131	1.231424	-0.014539
1383	6.9100e-01	6.1761	8.572176	0.000154	1.539345	0.260772	-0.003079
1384	6.9150e-01	6.1655	8.533690	0.000385	3.848363	0.651930	-0.007697
1385	6.9200e-01	6.1548	8.517868	0.000158	1.582105	0.268016	-0.003164
1386	6.9250e-01	6.1456	8.463987	0.000539	5.387709	0.912703	-0.010776
1387	6.9300e-01	6.1377	8.455862	0.000081	0.812432	0.137630	-0.001625
1388	6.9350e-01	6.1249	8.420369	0.000355	3.549046	0.601225	-0.007099
1389	6.9400e-01	6.1168	8.387870	0.000325	3.249729	0.550519	-0.006500
1390	6.9450e-01	6.1066	8.349383	0.000385	3.848363	0.651930	-0.007697
1391	6.9500e-01	6.0950	8.341259	0.000081	0.812432	0.137630	-0.001625
1392	6.9550e-01	6.0852	8.314318	0.000269	2.693854	0.456351	-0.005388
1393	6.9600e-01	6.0776	8.276260	0.000381	3.805604	0.644687	-0.007612
1394	6.9650e-01	6.0675	8.229648	0.000466	4.660795	0.789560	-0.009322
1395	6.9700e-01	6.0559	8.203136	0.000265	2.651095	0.449108	-0.005303
1396	6.9750e-01	6.0458	8.175768	0.000274	2.736614	0.463595	-0.005474
1397	6.9800e-01	6.0339	8.157380	0.000184	1.838662	0.311478	-0.003678
1398	6.9850e-01	6.0236	8.113334	0.000440	4.404238	0.746098	-0.008809
1399	6.9900e-01	6.0165	8.043631	0.000697	6.969813	1.180718	-0.013941
1400	6.9950e-01	6.0083	8.035079	0.000086	0.855192	0.144873	-0.001711
1401	7.0000e-01	5.9967	8.016691	0.000184	1.838662	0.311478	-0.003678
1402	7.0050e-01	5.9875	7.985474	0.000312	3.121450	0.528788	-0.006243
1403	7.0100e-01	5.9773	7.955113	0.000304	3.035931	0.514301	-0.006072
1404	7.0150e-01	5.9671	7.924752	0.000304	3.035931	0.514301	-0.006072
1405	7.0200e-01	5.9552	7.872581	0.000522	5.216670	0.883728	-0.010434
1406	7.0250e-01	5.9473	7.861035	0.000115	1.154509	0.195579	-0.002309
1407	7.0300e-01	5.9338	7.830246	0.000308	3.078691	0.521544	-0.006158
1408	7.0350e-01	5.9259	7.797747	0.000325	3.249729	0.550519	-0.006500
1409	7.0400e-01	5.9167	7.755840	0.000419	4.190440	0.709880	-0.008381
1410	7.0450e-01	5.9039	7.716926	0.000389	3.891123	0.659174	-0.007783
1411	7.0500e-01	5.8975	7.685281	0.000316	3.164210	0.536032	-0.006329
1412	7.0550e-01	5.8844	7.676729	0.000086	0.855192	0.144873	-0.001711
1413	7.0600e-01	5.8734	7.633966	0.000428	4.275959	0.724367	-0.008553
1414	7.0650e-01	5.8670	7.592059	0.000419	4.190440	0.709880	-0.008381
1415	7.0700e-01	5.8545	7.564263	0.000278	2.779373	0.470839	-0.005559
1416	7.0750e-01	5.8441	7.546731	0.000175	1.753143	0.296991	-0.003507
1417	7.0800e-01	5.8374	7.517225	0.000295	2.950412	0.499813	-0.005901
1418	7.0850e-01	5.8261	7.483015	0.000342	3.420767	0.579494	-0.006842
1419	7.0900e-01	5.8173	7.437259	0.000458	4.575276	0.775073	-0.009151
1420	7.0950e-01	5.8087	7.418016	0.000192	1.924182	0.325965	-0.003849
1421	7.1000e-01	5.7950	7.406470	0.000115	1.154509	0.195579	-0.002309
1422	7.1050e-01	5.7874	7.332491	0.000740	7.397409	1.253155	-0.014796
1423	7.1100e-01	5.7758	7.309399	0.000231	2.309018	0.391158	-0.004618
1424	7.1150e-01	5.7648	7.270485	0.000389	3.891123	0.659174	-0.007783
1425	7.1200e-01	5.7556	7.242262	0.000282	2.822133	0.478082	-0.005645
1426	7.1250e-01	5.7483	7.202493	0.000398	3.976642	0.673661	-0.007954
1427	7.1300e-01	5.7367	7.179828	0.000227	2.266258	0.383915	-0.004533
1428	7.1350e-01	5.7245	7.152460	0.000274	2.736614	0.463595	-0.005474
1429	7.1400e-01	5.7141	7.127230	0.000252	2.522816	0.427377	-0.005046
1430	7.1450e-01	5.7068	7.088317	0.000389	3.891123	0.659174	-0.007783
1431	7.1500e-01	5.6937	7.051968	0.000363	3.634565	0.615712	-0.007270
1432	7.1550e-01	5.6842	7.013910	0.000381	3.805604	0.644687	-0.007612
1433	7.1600e-01	5.6769	6.977562	0.000363	3.634565	0.615712	-0.007270
1434	7.1650e-01	5.6650	6.974568	0.000030	0.299317	0.050706	-0.000599
1435	7.1700e-01	5.6558	6.927529	0.000470	4.703555	0.796804	-0.009408
1436	7.1750e-01	5.6476	6.892464	0.000351	3.506286	0.593981	-0.007013
1437	7.1800e-01	5.6354	6.860820	0.000316	3.164210	0.536032	-0.006329
1438	7.1850e-01	5.6262	6.815492	0.000453	4.532517	0.767829	-0.009066
1439	7.1900e-01	5.6180	6.801380	0.000141	1.411067	0.239041	-0.002822
1440	7.1950e-01	5.6055	6.777861	0.000235	2.351778	0.398402	-0.004704
1441	7.2000e-01	5.5972	6.732960	0.000449	4.489757	0.760585	-0.008980
1442	7.2050e-01	5.5850	6.691480	0.000415	4.147680	0.702636	-0.008296
1443	7.2100e-01	5.5756	6.684638	0.000068	0.684153	0.115899	-0.001368
1444	7.2150e-01	5.5655	6.629475	0.000552	5.515987	0.934434	-0.011033
1445	7.2200e-01	5.5548	6.612797	0.000167	1.667624	0.282503	-0.003335
1446	7.2250e-01	5.5453	6.578160	0.000346	3.463527	0.586737	-0.006928
1447	7.2300e-01	5.5347	6.541384	0.000368	3.677325	0.622956	-0.007355
1448	7.2350e-01	5.5255	6.486648	0.000547	5.473228	0.927190	-0.010947
1449	7.2400e-01	5.5139	6.474674	0.000120	1.197269	0.202823	-0.002395
1450	7.2450e-01	5.5042	6.442175	0.000325	3.249729	0.550519	-0.006500
1451	7.2500e-01	5.4968	6.393853	0.000483	4.831834	0.818535	-0.009664
1452	7.2550e-01	5.4884	6.369478	0.000244	2.437297	0.412889	-0.004875
1453	7.2600e-01	5.4749	6.313887	0.000556	5.558747	0.941677	-0.011118
1454	7.2650e-01	5.4659	6.293361	0.000205	2.052460	0.347696	-0.004105
1455	7.2700e-01	5.4553	6.275401	0.000180	1.795903	0.304234	-0.003592
1456	7.2750e-01	5.4462	6.232211	0.000432	4.318719	0.731611	-0.008638
1457	7.2800e-01	5.4370	6.190731	0.000415	4.147680	0.702636	-0.008296
1458	7.2850e-01	5.4242	6.173198	0.000175	1.753143	0.296991	-0.003507
1459	7.2900e-01	5.4163	6.143265	0.000299	2.993171	0.507057	-0.005987
1460	7.2950e-01	5.4053	6.119745	0.000235	2.351778	0.398402	-0.004704
1461	7.3000e-01	5.3965	6.052608	0.000671	6.713256	1.137256	-0.013427
1462	7.3050e-01	5.3882	6.030372	0.000222	2.223499	0.376671	-0.004447
1463	7.3100e-01	5.3741	6.004714	0.000257	2.565575	0.434620	-0.005132
1464	7.3150e-01	5.3650	5.977774	0.000269	2.693854	0.456351	-0.005388
1465	7.3200e-01	5.3552	5.941853	0.000359	3.591806	0.608468	-0.007184
1466	7.3250e-01	5.3424	5.898663	0.000432	4.318719	0.731611	-0.008638
1467	7.3300e-01	5.3351	5.870440	0.000282	2.822133	0.478082	-0.005645
1468	7.3350e-01	5.3242	5.835802	0.000346	3.463527	0.586737	-0.006928
1469	7.3400e-01	5.3143	5.825967	0.000098	0.983471	0.166604	-0.001967
1470	7.3450e-01	5.3052	5.792184	0.000338	3.378008	0.572250	-0.006756
1471	7.3500e-01	5.2957	5.733600	0.000586	5.858064	0.992383	-0.011717
1472	7.3550e-01	5.2866	5.729751	0.000038	0.384836	0.065193	-0.000770
1473	7.3600e-01	5.2762	5.675870	0.000539	5.387709	0.912703	-0.010776
1474	7.3650e-01	5.2650	5.632680	0.000432	4.318719	0.731611	-0.008638
1475	7.3700e-01	5.2563	5.597615	0.000351	3.506286	0.593981	-0.007013
1476	7.3750e-01	5.2460	5.594621	0.000030	0.299317	0.050706	-0.000599
1477	7.3800e-01	5.2368	5.544589	0.000500	5.002872	0.847509	-0.010006
1478	7.3850e-01	5.2267	5.494985	0.000496	4.960113	0.840266	-0.009921
1479	7.3900e-01	5.2124	5.470610	0.000244	2.437297	0.412889	-0.004875
1480	7.3950e-01	5.2036	5.450084	0.000205	2.052460	0.347696	-0.004105
1481	7.4000e-01	5.1959	5.432551	0.000175	1.753143	0.296991	-0.003507
1482	7.4050e-01	5.1825	5.383802	0.000487	4.874593	0.825778	-0.009750
1483	7.4100e-01	5.1752	5.339329	0.000445	4.446998	0.753342	-0.008895
1484	7.4150e-01	5.1682	5.320941	0.000184	1.838662	0.311478	-0.003678
1485	7.4200e-01	5.1547	5.257225	0.000637	6.371179	1.079307	-0.012743
1486	7.4250e-01	5.1448	5.246534	0.000107	1.068990	0.181092	-0.002138
1487	7.4300e-01	5.1334	5.191798	0.000547	5.473228	0.927190	-0.010947
1488	7.4350e-01	5.1245	5.166141	0.000257	2.565575	0.434620	-0.005132
1489	7.4400e-01	5.1149	5.133214	0.000329	3.292489	0.557763	-0.006585
1490	7.4450e-01	5.1031	5.117819	0.000154	1.539345	0.260772	-0.003079
1491	7.4500e-01	5.0958	5.080616	0.000372	3.720084	0.630199	-0.007441
1492	7.4550e-01	5.0833	5.044268	0.000363	3.634565	0.615712	-0.007270
1493	7.4600e-01	5.0745	5.013051	0.000312	3.121450	0.528788	-0.006243
1494	7.4650e-01	5.0659	4.963874	0.000492	4.917353	0.833022	-0.009835
1495	7.4700e-01	5.0549	4.928809	0.000351	3.506286	0.593981	-0.007013
1496	7.4750e-01	5.0446	4.900586	0.000282	2.822133	0.478082	-0.005645
1497	7.4800e-01	5.0323	4.884764	0.000158	1.582105	0.268016	-0.003164
1498	7.4850e-01	5.0247	4.831738	0.000530	5.302189	0.898215	-0.010605
1499	7.4900e-01	5.0159	4.809929	0.000218	2.180739	0.369427	-0.004362
1500	7.4950e-01	5.0076	4.772298	0.000376	3.762844	0.637443	-0.007526
1501	7.5000e-01	4.9952	4.730818	0.000415	4.147680	0.702636	-0.008296
1502	7.5050e-01	4.9864	4.703023	0.000278	2.779373	0.470839	-0.005559
1503	7.5100e-01	4.9768	4.670523	0.000325	3.249729	0.550519	-0.006500
1504	7.5150e-01	4.9648	4.623057	0.000475	4.746315	0.804047	-0.009493
1505	7.5200e-01	4.9557	4.605952	0.000171	1.710384	0.289747	-0.003421
1506	7.5250e-01	4.9460	4.558913	0.000470	4.703555	0.796804	-0.009408
1507	7.5300e-01	4.9332	4.541808	0.000171	1.710384	0.289747	-0.003421
1508	7.5350e-01	4.9251	4.499901	0.000419	4.190440	0.709880	-0.008381
1509	7.5400e-01	4.9152	4.466118	0.000338	3.378008	0.572250	-0.006756
1510	7.5450e-01	4.9054	4.443454	0.000227	2.266258	0.383915	-0.004533
1511	7.5500e-01	4.8953	4.393850	0.000496	4.960113	0.840266	-0.009921
1512	7.5550e-01	4.8853	4.365626	0.000282	2.822133	0.478082	-0.005645
1513	7.5600e-01	4.8755	4.328851	0.000368	3.677325	0.622956	-0.007355
1514	7.5650e-01	4.8651	4.277108	0.000517	5.173911	0.876484	-0.010349
1515	7.5700e-01	4.8538	4.257010	0.000201	2.009701	0.340453	-0.004020
1516	7.5750e-01	4.8453	4.218096	0.000389	3.891123	0.659174	-0.007783
1517	7.5800e-01	4.8346	4.178754	0.000393	3.933882	0.666418	-0.007868
1518	7.5850e-01	4.8254	4.151814	0.000269	2.693854	0.456351	-0.005388
1519	7.5900e-01	4.8138	4.096650	0.000552	5.515987	0.934434	-0.011033
1520	7.5950e-01	4.8062	4.088953	0.000077	0.769673	0.130386	-0.001539
1521	7.6000e-01	4.7958	4.055170	0.000338	3.378008	0.572250	-0.006756
1522	7.6050e-01	4.7852	4.007704	0.000475	4.746315	0.804047	-0.009493
1523	7.6100e-01	4.7755	3.979481	0.000282	2.822133	0.478082	-0.005645
1524	7.6150e-01	4.7647	3.929876	0.000496	4.960113	0.840266	-0.009921
1525	7.6200e-01	4.7533	3.926455	0.000034	0.342077	0.057949	-0.000684
1526	7.6250e-01	4.7449	3.867015	0.000594	5.943583	1.006870	-0.011888
1527	7.6300e-01	4.7372	3.845634	0.000214	2.137980	0.362184	-0.004276
1528	7.6350e-01	4.7253	3.809714	0.000359	3.591806	0.608468	-0.007184
1529	7.6400e-01	4.7165	3.759681	0.000500	5.002872	0.847509	-0.010006
1530	7.6450e-01	4.7054	3.741721	0.000180	1.795903	0.304234	-0.003592
1531	7.6500e-01	4.6924	3.710077	0.000316	3.164210	0.536032	-0.006329
1532	7.6550e-01	4.6844	3.679715	0.000304	3.035931	0.514301	-0.006072
1533	7.6600e-01	4.6762	3.642084	0.000376	3.762844	0.637443	-0.007526
1534	7.6650e-01	4.6671	3.596756	0.000453	4.532517	0.767829	-0.009066
1535	7.6700e-01	4.6552	3.567250	0.000295	2.950412	0.499813	-0.005901
1536	7.6750e-01	4.6472	3.523205	0.000440	4.404238	0.746098	-0.008809
1537	7.6800e-01	4.6368	3.476593	0.000466	4.660795	0.789560	-0.009322
1538	7.6850e-01	4.6253	3.469751	0.000068	0.684153	0.115899	-0.001368
1539	7.6900e-01	4.6164	3.416726	0.000530	5.302189	0.898215	-0.010605
1540	7.6950e-01	4.6037	3.402187	0.000145	1.453826	0.246285	-0.002908
1541	7.7000e-01	4.5950	3.359852	0.000423	4.233200	0.717123	-0.008467
1542	7.7050e-01	4.5848	3.316662	0.000432	4.318719	0.731611	-0.008638
1543	7.7100e-01	4.5770	3.308964	0.000077	0.769673	0.130386	-0.001539
1544	7.7150e-01	4.5673	3.246959	0.000620	6.200141	1.050332	-0.012401
1545	7.7200e-01	4.5551	3.206334	0.000406	4.062161	0.688149	-0.008125
1546	7.7250e-01	4.5456	3.168276	0.000381	3.805604	0.644687	-0.007612
1547	7.7300e-01	4.5358	3.141335	0.000269	2.693854	0.456351	-0.005388
1548	7.7350e-01	4.5288	3.106270	0.000351	3.506286	0.593981	-0.007013
1549	7.7400e-01	4.5158	3.057093	0.000492	4.917353	0.833022	-0.009835
1550	7.7450e-01	4.5074	3.017752	0.000393	3.933882	0.666418	-0.007868
1551	7.7500e-01	4.4946	2.996798	0.000210	2.095220	0.354940	-0.004191
1552	7.7550e-01	4.4861	2.960450	0.000363	3.634565	0.615712	-0.007270
1553	7.7600e-01	4.4763	2.931371	0.000291	2.907652	0.492570	-0.005816
1554	7.7650e-01	4.4653	2.892457	0.000389	3.891123	0.659174	-0.007783
1555	7.7700e-01	4.4531	2.856964	0.000355	3.549046	0.601225	-0.007099
1556	7.7750e-01	4.4464	2.820189	0.000368	3.677325	0.622956	-0.007355
1557	7.7800e-01	4.4363	2.788972	0.000312	3.121450	0.528788	-0.006243
1558	7.7850e-01	4.4275	2.754762	0.000342	3.420767	0.579494	-0.006842
1559	7.7900e-01	4.4202	2.725684	0.000291	2.907652	0.492570	-0.005816
1560	7.7950e-01	4.4057	2.704302	0.000214	2.137980	0.362184	-0.004276
1561	7.8000e-01	4.3948	2.651704	0.000526	5.259430	0.890972	-0.010520
1562	7.8050e-01	4.3855	2.610225	0.000415	4.147680	0.702636	-0.008296
1563	7.8100e-01	4.3768	2.587988	0.000222	2.223499	0.376671	-0.004447
1564	7.8150e-01	4.3646	2.534107	0.000539	5.387709	0.912703	-0.010776
1565	7.8200e-01	4.3530	2.504601	0.000295	2.950412	0.499813	-0.005901
1566	7.8250e-01	4.3439	2.463977	0.000406	4.062161	0.688149	-0.008125
1567	7.8300e-01	4.3324	2.433615	0.000304	3.035931	0.514301	-0.006072
1568	7.8350e-01	4.3256	2.391281	0.000423	4.233200	0.717123	-0.008467
1569	7.8400e-01	4.3134	2.372037	0.000192	1.924182	0.325965	-0.003849
1570	7.8450e-01	4.3060	2.337400	0.000346	3.463527	0.586737	-0.006928
1571	7.8500e-01	4.2969	2.276249	0.000611	6.114622	1.035845	-0.012230
1572	7.8550e-01	4.2873	2.256151	0.000201	2.009701	0.340453	-0.004020
1573	7.8600e-01	4.2755	2.221513	0.000346	3.463527	0.586737	-0.006928
1574	7.8650e-01	4.2670	2.184310	0.000372	3.720084	0.630199	-0.007441
1575	7.8700e-01	4.2529	2.150100	0.000342	3.420767	0.579494	-0.006842
1576	7.8750e-01	4.2444	2.109475	0.000406	4.062161	0.688149	-0.008125
1577	7.8800e-01	4.2338	2.088522	0.000210	2.095220	0.354940	-0.004191
1578	7.8850e-01	4.2279	2.046187	0.000423	4.233200	0.717123	-0.008467
1579	7.8900e-01	4.2166	2.007273	0.000389	3.891123	0.659174	-0.007783
1580	7.8950e-01	4.2050	1.966221	0.000410	4.104921	0.695392	-0.008210
1581	7.9000e-01	4.1960	1.930728	0.000355	3.549046	0.601225	-0.007099
1582	7.9050e-01	4.1852	1.890531	0.000402	4.019402	0.680905	-0.008039
1583	7.9100e-01	4.1735	1.865729	0.000248	2.480056	0.420133	-0.004960
1584	7.9150e-01	4.1669	1.827243	0.000385	3.848363	0.651930	-0.007697
1585	7.9200e-01	4.1560	1.819546	0.000077	0.769673	0.130386	-0.001539
1586	7.9250e-01	4.1446	1.747704	0.000718	7.183611	1.216937	-0.014368
1587	7.9300e-01	4.1351	1.714350	0.000334	3.335248	0.565006	-0.006671
1588	7.9350e-01	4.1260	1.672442	0.000419	4.190440	0.709880	-0.008381
1589	7.9400e-01	4.1150	1.639515	0.000329	3.292489	0.557763	-0.006585
1590	7.9450e-01	4.1064	1.622410	0.000171	1.710384	0.289747	-0.003421
1591	7.9500e-01	4.0955	1.566819	0.000556	5.558747	0.941677	-0.011118
1592	7.9550e-01	4.0869	1.533892	0.000329	3.292489	0.557763	-0.006585
1593	7.9600e-01	4.0772	1.497116	0.000368	3.677325	0.622956	-0.007355
1594	7.9650e-01	4.0656	1.473169	0.000239	2.394537	0.405646	-0.004789
1595	7.9700e-01	4.0555	1.426130	0.000470	4.703555	0.796804	-0.009408
1596	7.9750e-01	4.0436	1.379519	0.000466	4.660795	0.789560	-0.009322
1597	7.9800e-01	4.0393	1.354717	0.000248	2.480056	0.420133	-0.004960
1598	7.9850e-01	4.0240	1.308961	0.000458	4.575276	0.775073	-0.009151
1599	7.9900e-01	4.0158	1.275606	0.000334	3.335248	0.565006	-0.006671
1600	7.9950e-01	4.0063	1.252942	0.000227	2.266258	0.383915	-0.004533
1601	8.0000e-01	3.9938	1.207186	0.000458	4.575276	0.775073	-0.009151
1602	8.0050e-01	3.9850	1.171693	0.000355	3.549046	0.601225	-0.007099
1603	8.0100e-01	3.9743	1.104128	0.000676	6.756015	1.144500	-0.013513
1604	8.0150e-01	3.9664	1.115674	-0.000115	-1.154509	-0.195579	0.002309
1605	8.0200e-01	3.9548	1.060938	0.000547	5.473228	0.927190	-0.010947
1606	8.0250e-01	3.9460	1.015610	0.000453	4.532517	0.767829	-0.009066
1607	8.0300e-01	3.9331	1.004492	0.000111	1.111749	0.188335	-0.002224
1608	8.0350e-01	3.9264	0.948045	0.000564	5.644266	0.956165	-0.011289
1609	8.0400e-01	3.9182	0.923671	0.000244	2.437297	0.412889	-0.004875
1610	8.0450e-01	3.9052	0.872356	0.000513	5.131151	0.869241	-0.010263
1611	8.0500e-01	3.8922	0.850119	0.000222	2.223499	0.376671	-0.004447
1612	8.0550e-01	3.8876	0.806074	0.000440	4.404238	0.746098	-0.008809
1613	8.0600e-01	3.8758	0.758180	0.000479	4.789074	0.811291	-0.009579
1614	8.0650e-01	3.8644	0.729956	0.000282	2.822133	0.478082	-0.005645
1615	8.0700e-01	3.8562	0.674365	0.000556	5.558747	0.941677	-0.011118
1616	8.0750e-01	3.8455	0.637162	0.000372	3.720084	0.630199	-0.007441
1617	8.0800e-01	3.8319	0.603807	0.000334	3.335248	0.565006	-0.006671
1618	8.0850e-01	3.8242	0.582853	0.000210	2.095220	0.354940	-0.004191
1619	8.0900e-01	3.8133	0.553347	0.000295	2.950412	0.499813	-0.005901
1620	8.0950e-01	3.8037	0.493480	0.000599	5.986343	1.014114	-0.011974
1621	8.1000e-01	3.7942	0.454993	0.000385	3.848363	0.651930	-0.007697
1622	8.1050e-01	3.7839	0.441737	0.000133	1.325547	0.224554	-0.002651
1623	8.1100e-01	3.7708	0.392560	0.000492	4.917353	0.833022	-0.009835
1624	8.1150e-01	3.7625	0.349797	0.000428	4.275959	0.724367	-0.008553
1625	8.1200e-01	3.7565	0.302331	0.000475	4.746315	0.804047	-0.009493
1626	8.1250e-01	3.7488	0.283943	0.000184	1.838662	0.311478	-0.003678
1627	8.1300e-01	3.7376	0.225359	0.000586	5.858064	0.992383	-0.011717
1628	8.1350e-01	3.7260	0.188583	0.000368	3.677325	0.622956	-0.007355
1629	8.1400e-01	3.7158	0.171478	0.000171	1.710384	0.289747	-0.003421
1630	8.1450e-01	3.7054	0.124011	0.000475	4.746315	0.804047	-0.009493
1631	8.1500e-01	3.6975	0.089374	0.000346	3.463527	0.586737	-0.006928
1632	8.1550e-01	3.6841	0.074834	0.000145	1.453826	0.246285	-0.002908
1633	8.1600e-01	3.6762	0.007697	0.000671	6.713256	1.137256	-0.013427
1634	8.1650e-01	3.6658	-0.015395	0.000231	2.309018	0.391158	-0.004618
1635	8.1700e-01	3.6548	-0.041480	0.000261	2.608335	0.441864	-0.005217
1636	8.1750e-01	3.6459	-0.100064	0.000586	5.858064	0.992383	-0.011717
1637	8.1800e-01	3.6347	-0.131281	0.000312	3.121450	0.528788	-0.006243
1638	8.1850e-01	3.6258	-0.171905	0.000406	4.062161	0.688149	-0.008125
1639	8.1900e-01	3.6140	-0.212530	0.000406	4.062161	0.688149	-0.008125
1640	8.1950e-01	3.6069	-0.249733	0.000372	3.720084	0.630199	-0.007441
1641	8.2000e-01	3.5974	-0.278384	0.000286	2.864893	0.485326	-0.005730
1642	8.2050e-01	3.5864	-0.329271	0.000509	5.088391	0.861997	-0.010177
1643	8.2100e-01	3.5758	-0.361343	0.000321	3.206969	0.543275	-0.006414
1644	8.2150e-01	3.5672	-0.390422	0.000291	2.907652	0.492570	-0.005816
1645	8.2200e-01	3.5578	-0.449862	0.000594	5.943583	1.006870	-0.011888
1646	8.2250e-01	3.5471	-0.481934	0.000321	3.206969	0.543275	-0.006414
1647	8.2300e-01	3.5339	-0.513150	0.000312	3.121450	0.528788	-0.006243
1648	8.2350e-01	3.5257	-0.558479	0.000453	4.532517	0.767829	-0.009066
1649	8.2400e-01	3.5149	-0.577722	0.000192	1.924182	0.325965	-0.003849
1650	8.2450e-01	3.5052	-0.610221	0.000325	3.249729	0.550519	-0.006500
1651	8.2500e-01	3.4956	-0.669661	0.000594	5.943583	1.006870	-0.011888
1652	8.2550e-01	3.4843	-0.715845	0.000462	4.618036	0.782316	-0.009237
1653	8.2600e-01	3.4766	-0.756041	0.000402	4.019402	0.680905	-0.008039
1654	8.2650e-01	3.4674	-0.772291	0.000162	1.624864	0.275259	-0.003250
1655	8.2700e-01	3.4540	-0.820613	0.000483	4.831834	0.818535	-0.009664
1656	8.2750e-01	3.4460	-0.851830	0.000312	3.121450	0.528788	-0.006243
1657	8.2800e-01	3.4351	-0.892026	0.000402	4.019402	0.680905	-0.008039
1658	8.2850e-01	3.4248	-0.936499	0.000445	4.446998	0.753342	-0.008895
1659	8.2900e-01	3.4152	-0.986959	0.000505	5.045632	0.854753	-0.010092
1660	8.2950e-01	3.4053	-1.010906	0.000239	2.394537	0.405646	-0.004789
1661	8.3000e-01	3.3950	-1.066925	0.000560	5.601506	0.948921	-0.011204
1662	8.3050e-01	3.3865	-1.092583	0.000257	2.565575	0.434620	-0.005132
1663	8.3100e-01	3.3756	-1.110543	0.000180	1.795903	0.304234	-0.003592
1664	8.3150e-01	3.3659	-1.164424	0.000539	5.387709	0.912703	-0.010776
1665	8.3200e-01	3.3559	-1.187515	0.000231	2.309018	0.391158	-0.004618
1666	8.3250e-01	3.3438	-1.224719	0.000372	3.720084	0.630199	-0.007441
1667	8.3300e-01	3.3359	-1.290145	0.000654	6.542217	1.108282	-0.013085
1668	8.3350e-01	3.3255	-1.333336	0.000432	4.318719	0.731611	-0.008638
1669	8.3400e-01	3.3167	-1.359848	0.000265	2.651095	0.449108	-0.005303
1670	8.3450e-01	3.3069	-1.403466	0.000436	4.361478	0.738854	-0.008724
1671	8.3500e-01	3.2965	-1.432972	0.000295	2.950412	0.499813	-0.005901
1672	8.3550e-01	3.2883	-1.489419	0.000564	5.644266	0.956165	-0.011289
1673	8.3600e-01	3.2748	-1.509090	0.000197	1.966941	0.333209	-0.003934
1674	8.3650e-01	3.2632	-1.564253	0.000552	5.515987	0.934434	-0.011033
1675	8.3700e-01	3.2547	-1.600601	0.000363	3.634565	0.615712	-0.007270
1676	8.3750e-01	3.2455	-1.624976	0.000244	2.437297	0.412889	-0.004875
1677	8.3800e-01	3.2364	-1.680995	0.000560	5.601506	0.948921	-0.011204
1678	8.3850e-01	3.2227	-1.714350	0.000334	3.335248	0.565006	-0.006671
1679	8.3900e-01	3.2172	-1.770369	0.000560	5.601506	0.948921	-0.011204
1680	8.3950e-01	3.2050	-1.805006	0.000346	3.463527	0.586737	-0.006928
1681	8.4000e-01	3.1961	-1.826815	0.000218	2.180739	0.369427	-0.004362
1682	8.4050e-01	3.1848	-1.858032	0.000312	3.121450	0.528788	-0.006243
1683	8.4100e-01	3.1743	-1.911057	0.000530	5.302189	0.898215	-0.010605
1684	8.4150e-01	3.1641	-1.949544	0.000385	3.848363	0.651930	-0.007697
1685	8.4200e-01	3.1563	-1.974774	0.000252	2.522816	0.427377	-0.005046
1686	8.4250e-01	3.1433	-2.029510	0.000547	5.473228	0.927190	-0.010947
1687	8.4300e-01	3.1360	-2.065002	0.000355	3.549046	0.601225	-0.007099
1688	8.4350e-01	3.1247	-2.110758	0.000458	4.575276	0.775073	-0.009151
1689	8.4400e-01	3.1171	-2.144541	0.000338	3.378008	0.572250	-0.006756
1690	8.4450e-01	3.1074	-2.180461	0.000359	3.591806	0.608468	-0.007184
1691	8.4500e-01	3.0969	-2.219375	0.000389	3.891123	0.659174	-0.007783
1692	8.4550e-01	3.0861	-2.251875	0.000325	3.249729	0.550519	-0.006500
1693	8.4600e-01	3.0772	-2.292071	0.000402	4.019402	0.680905	-0.008039
1694	8.4650e-01	3.0661	-2.339966	0.000479	4.789074	0.811291	-0.009579
1695	8.4700e-01	3.0554	-2.387004	0.000470	4.703555	0.796804	-0.009408
1696	8.4750e-01	3.0447	-2.407958	0.000210	2.095220	0.354940	-0.004191
1697	8.4800e-01	3.0344	-2.459701	0.000517	5.173911	0.876484	-0.010349
1698	8.4850e-01	3.0241	-2.502891	0.000432	4.318719	0.731611	-0.008638
1699	8.4900e-01	3.0151	-2.531114	0.000282	2.822133	0.478082	-0.005645
1700	8.4950e-01	3.0054	-2.583712	0.000526	5.259430	0.890972	-0.010520
1701	8.5000e-01	2.9939	-2.600389	0.000167	1.667624	0.282503	-0.003335
1702	8.5050e-01	2.9852	-2.666671	0.000663	6.627737	1.122769	-0.013256
1703	8.5100e-01	2.9755	-2.691473	0.000248	2.480056	0.420133	-0.004960
1704	8.5150e-01	2.9646	-2.733381	0.000419	4.190440	0.709880	-0.008381
1705	8.5200e-01	2.9547	-2.763315	0.000299	2.993171	0.507057	-0.005987
1706	8.5250e-01	2.9444	-2.828741	0.000654	6.542217	1.108282	-0.013085
1707	8.5300e-01	2.9346	-2.868938	0.000402	4.019402	0.680905	-0.008039
1708	8.5350e-01	2.9272	-2.912128	0.000432	4.318719	0.731611	-0.008638
1709	8.5400e-01	2.9150	-2.933509	0.000214	2.137980	0.362184	-0.004276
1710	8.5450e-01	2.9036	-2.980121	0.000466	4.660795	0.789560	-0.009322
1711	8.5500e-01	2.8954	-3.033146	0.000530	5.302189	0.898215	-0.010605
1712	8.5550e-01	2.8848	-3.063507	0.000304	3.035931	0.514301	-0.006072
1713	8.5600e-01	2.8761	-3.101994	0.000385	3.848363	0.651930	-0.007697
1714	8.5650e-01	2.8635	-3.162289	0.000603	6.029102	1.021358	-0.012059
1715	8.5700e-01	2.8555	-3.196499	0.000342	3.420767	0.579494	-0.006842
1716	8.5750e-01	2.8452	-3.241827	0.000453	4.532517	0.767829	-0.009066
1717	8.5800e-01	2.8363	-3.282879	0.000410	4.104921	0.695392	-0.008210
1718	8.5850e-01	2.8262	-3.297418	0.000145	1.453826	0.246285	-0.002908
1719	8.5900e-01	2.8134	-3.321793	0.000244	2.437297	0.412889	-0.004875
1720	8.5950e-01	2.8038	-3.390213	0.000684	6.841535	1.158987	-0.013684
1721	8.6000e-01	2.7956	-3.420575	0.000304	3.035931	0.514301	-0.006072
1722	8.6050e-01	2.7821	-3.469324	0.000487	4.874593	0.825778	-0.009750
1723	8.6100e-01	2.7771	-3.494981	0.000257	2.565575	0.434620	-0.005132
1724	8.6150e-01	2.7670	-3.550145	0.000552	5.515987	0.934434	-0.011033
1725	8.6200e-01	2.7545	-3.578368	0.000282	2.822133	0.478082	-0.005645
1726	8.6250e-01	2.7476	-3.634815	0.000564	5.644266	0.956165	-0.011289
1727	8.6300e-01	2.7345	-3.682281	0.000475	4.746315	0.804047	-0.009493
1728	8.6350e-01	2.7243	-3.702380	0.000201	2.009701	0.340453	-0.004020
1729	8.6400e-01	2.7142	-3.759681	0.000573	5.729785	0.970652	-0.011460
1730	8.6450e-01	2.7051	-3.801589	0.000419	4.190440	0.709880	-0.008381
1731	8.6500e-01	2.6947	-3.849910	0.000483	4.831834	0.818535	-0.009664
1732	8.6550e-01	2.6852	-3.883693	0.000338	3.378008	0.572250	-0.006756
1733	8.6600e-01	2.6755	-3.926455	0.000428	4.275959	0.724367	-0.008553
1734	8.6650e-01	2.6685	-3.942705	0.000162	1.624864	0.275259	-0.003250
1735	8.6700e-01	2.6541	-3.979908	0.000372	3.720084	0.630199	-0.007441
1736	8.6750e-01	2.6459	-4.038921	0.000590	5.900824	0.999627	-0.011802
1737	8.6800e-01	2.6355	-4.080400	0.000415	4.147680	0.702636	-0.008296
1738	8.6850e-01	2.6240	-4.110334	0.000299	2.993171	0.507057	-0.005987
1739	8.6900e-01	2.6172	-4.166781	0.000564	5.644266	0.956165	-0.011289
1740	8.6950e-01	2.6075	-4.206550	0.000398	3.976642	0.673661	-0.007954
1741	8.7000e-01	2.5922	-4.231780	0.000252	2.522816	0.427377	-0.005046
1742	8.7050e-01	2.5845	-4.292930	0.000611	6.114622	1.035845	-0.012230
1743	8.7100e-01	2.5764	-4.328851	0.000359	3.591806	0.608468	-0.007184
1744	8.7150e-01	2.5674	-4.386152	0.000573	5.729785	0.970652	-0.011460
1745	8.7200e-01	2.5550	-4.401119	0.000150	1.496586	0.253528	-0.002993
1746	8.7250e-01	2.5433	-4.452434	0.000513	5.131151	0.869241	-0.010263
1747	8.7300e-01	2.5361	-4.493059	0.000406	4.062161	0.688149	-0.008125
1748	8.7350e-01	2.5259	-4.525986	0.000329	3.292489	0.557763	-0.006585
1749	8.7400e-01	2.5136	-4.574735	0.000487	4.874593	0.825778	-0.009750
1750	8.7450e-01	2.5062	-4.611511	0.000368	3.677325	0.622956	-0.007355
1751	8.7500e-01	2.4924	-4.652135	0.000406	4.062161	0.688149	-0.008125
1752	8.7550e-01	2.4866	-4.712431	0.000603	6.029102	1.021358	-0.012059
1753	8.7600e-01	2.4725	-4.750917	0.000385	3.848363	0.651930	-0.007697
1754	8.7650e-01	2.4648	-4.791114	0.000402	4.019402	0.680905	-0.008039
1755	8.7700e-01	2.4561	-4.826179	0.000351	3.506286	0.593981	-0.007013
1756	8.7750e-01	2.4451	-4.876211	0.000500	5.002872	0.847509	-0.010006
1757	8.7800e-01	2.4362	-4.911276	0.000351	3.506286	0.593981	-0.007013
1758	8.7850e-01	2.4263	-4.963874	0.000526	5.259430	0.890972	-0.010520
1759	8.7900e-01	2.4147	-4.996801	0.000329	3.292489	0.557763	-0.006585
1760	8.7950e-01	2.4045	-5.011768	0.000150	1.496586	0.253528	-0.002993
1761	8.8000e-01	2.3956	-5.084037	0.000723	7.226371	1.224180	-0.014454
1762	8.8050e-01	2.3840	-5.126799	0.000428	4.275959	0.724367	-0.008553
1763	8.8100e-01	2.3743	-5.152029	0.000252	2.522816	0.427377	-0.005046
1764	8.8150e-01	2.3659	-5.198213	0.000462	4.618036	0.782316	-0.009237
1765	8.8200e-01	2.3552	-5.243541	0.000453	4.532517	0.767829	-0.009066
1766	8.8250e-01	2.3493	-5.305547	0.000620	6.200141	1.050332	-0.012401
1767	8.8300e-01	2.3358	-5.326073	0.000205	2.052460	0.347696	-0.004105
1768	8.8350e-01	2.3267	-5.365414	0.000393	3.933882	0.666418	-0.007868
1769	8.8400e-01	2.3163	-5.441959	0.000765	7.653967	1.296617	-0.015309
1770	8.8450e-01	2.3043	-5.447946	0.000060	0.598634	0.101411	-0.001197
1771	8.8500e-01	2.2974	-5.497551	0.000496	4.960113	0.840266	-0.009921
1772	8.8550e-01	2.2858	-5.522780	0.000252	2.522816	0.427377	-0.005046
1773	8.8600e-01	2.2742	-5.577944	0.000552	5.515987	0.934434	-0.011033
1774	8.8650e-01	2.2658	-5.640377	0.000624	6.242900	1.057576	-0.012487
1775	8.8700e-01	2.2559	-5.667745	0.000274	2.736614	0.463595	-0.005474
1776	8.8750e-01	2.2443	-5.718205	0.000505	5.045632	0.854753	-0.010092
1777	8.8800e-01	2.2343	-5.758402	0.000402	4.019402	0.680905	-0.008039
1778	8.8850e-01	2.2263	-5.816131	0.000577	5.772545	0.977896	-0.011546
1779	8.8900e-01	2.2142	-5.846493	0.000304	3.035931	0.514301	-0.006072
1780	8.8950e-01	2.2067	-5.888400	0.000419	4.190440	0.709880	-0.008381
1781	8.9000e-01	2.1934	-5.942281	0.000539	5.387709	0.912703	-0.010776
1782	8.9050e-01	2.1841	-5.976063	0.000338	3.378008	0.572250	-0.006756
1783	8.9100e-01	2.1750	-6.005142	0.000291	2.907652	0.492570	-0.005816
1784	8.9150e-01	2.1655	-6.050898	0.000458	4.575276	0.775073	-0.009151
1785	8.9200e-01	2.1548	-6.097081	0.000462	4.618036	0.782316	-0.009237
1786	8.9250e-01	2.1484	-6.164218	0.000671	6.713256	1.137256	-0.013427
1787	8.9300e-01	2.1373	-6.190303	0.000261	2.608335	0.441864	-0.005217
1788	8.9350e-01	2.1260	-6.227507	0.000372	3.720084	0.630199	-0.007441
1789	8.9400e-01	2.1155	-6.263427	0.000359	3.591806	0.608468	-0.007184
1790	8.9450e-01	2.1037	-6.307900	0.000445	4.446998	0.753342	-0.008895
1791	8.9500e-01	2.0947	-6.368196	0.000603	6.029102	1.021358	-0.012059
1792	8.9550e-01	2.0860	-6.404544	0.000363	3.634565	0.615712	-0.007270
1793	8.9600e-01	2.0755	-6.455859	0.000513	5.131151	0.869241	-0.010263
1794	8.9650e-01	2.0648	-6.499477	0.000436	4.361478	0.738854	-0.008724
1795	8.9700e-01	2.0526	-6.525989	0.000265	2.651095	0.449108	-0.005303
1796	8.9750e-01	2.0471	-6.591844	0.000658	6.584977	1.115525	-0.013171
1797	8.9800e-01	2.0334	-6.640593	0.000487	4.874593	0.825778	-0.009750
1798	8.9850e-01	2.0255	-6.669244	0.000286	2.864893	0.485326	-0.005730
1799	8.9900e-01	2.0183	-6.711579	0.000423	4.233200	0.717123	-0.008467
1800	8.9950e-01	2.0059	-6.735953	0.000244	2.437297	0.412889	-0.004875
1801	9.0000e-01	1.9954	-6.805656	0.000697	6.969813	1.180718	-0.013941
1802	9.0050e-01	1.9876	-6.840294	0.000346	3.463527	0.586737	-0.006928
1803	9.0100e-01	1.9781	-6.871511	0.000312	3.121450	0.528788	-0.006243
1804	9.0150e-01	1.9656	-6.925819	0.000543	5.430468	0.919946	-0.010862
1805	9.0200e-01	1.9524	-6.974568	0.000487	4.874593	0.825778	-0.009750
1806	9.0250e-01	1.9458	-7.014337	0.000398	3.976642	0.673661	-0.007954
1807	9.0300e-01	1.9360	-7.050258	0.000359	3.591806	0.608468	-0.007184
1808	9.0350e-01	1.9233	-7.097297	0.000470	4.703555	0.796804	-0.009408
1809	9.0400e-01	1.9165	-7.157164	0.000599	5.986343	1.014114	-0.011974
1810	9.0450e-01	1.9043	-7.183677	0.000265	2.651095	0.449108	-0.005303
1811	9.0500e-01	1.8945	-7.236275	0.000526	5.259430	0.890972	-0.010520
1812	9.0550e-01	1.8844	-7.291439	0.000552	5.515987	0.934434	-0.011033
1813	9.0600e-01	1.8748	-7.345747	0.000543	5.430468	0.919946	-0.010862
1814	9.0650e-01	1.8683	-7.358576	0.000128	1.282788	0.217310	-0.002566
1815	9.0700e-01	1.8539	-7.421437	0.000629	6.285660	1.064820	-0.012572
1816	9.0750e-01	1.8467	-7.474462	0.000530	5.302189	0.898215	-0.010605
1817	9.0800e-01	1.8356	-7.502685	0.000282	2.822133	0.478082	-0.005645
1818	9.0850e-01	1.8249	-7.549724	0.000470	4.703555	0.796804	-0.009408
1819	9.0900e-01	1.8161	-7.603605	0.000539	5.387709	0.912703	-0.010776
1820	9.0950e-01	1.8068	-7.651071	0.000475	4.746315	0.804047	-0.009493
1821	9.1000e-01	1.7981	-7.675446	0.000244	2.437297	0.412889	-0.004875
1822	9.1050e-01	1.7862	-7.701531	0.000261	2.608335	0.441864	-0.005217
1823	9.1100e-01	1.7771	-7.793043	0.000915	9.150553	1.550146	-0.018302
1824	9.1150e-01	1.7637	-7.806727	0.000137	1.368307	0.231797	-0.002737
1825	9.1200e-01	1.7558	-7.846069	0.000393	3.933882	0.666418	-0.007868
1826	9.1250e-01	1.7451	-7.914916	0.000688	6.884294	1.166231	-0.013770
1827	9.1300e-01	1.7338	-7.967942	0.000530	5.302189	0.898215	-0.010605
1828	9.1350e-01	1.7233	-7.980771	0.000128	1.282788	0.217310	-0.002566
1829	9.1400e-01	1.7152	-8.041493	0.000607	6.071862	1.028601	-0.012145
1830	9.1450e-01	1.7060	-8.079980	0.000385	3.848363	0.651930	-0.007697
1831	9.1500e-01	1.6937	-8.146261	0.000663	6.627737	1.122769	-0.013256
1832	9.1550e-01	1.6885	-8.180472	0.000342	3.420767	0.579494	-0.006842
1833	9.1600e-01	1.6772	-8.221096	0.000406	4.062161	0.688149	-0.008125
1834	9.1650e-01	1.6650	-8.259155	0.000381	3.805604	0.644687	-0.007612
1835	9.1700e-01	1.6558	-8.317312	0.000582	5.815304	0.985139	-0.011631
1836	9.1750e-01	1.6447	-8.364350	0.000470	4.703555	0.796804	-0.009408
1837	9.1800e-01	1.6370	-8.410106	0.000458	4.575276	0.775073	-0.009151
1838	9.1850e-01	1.6214	-8.454152	0.000440	4.404238	0.746098	-0.008809
1839	9.1900e-01	1.6150	-8.498625	0.000445	4.446998	0.753342	-0.008895
1840	9.1950e-01	1.6039	-8.553361	0.000547	5.473228	0.927190	-0.010947
1841	9.2000e-01	1.5955	-8.575170	0.000218	2.180739	0.369427	-0.004362
1842	9.2050e-01	1.5829	-8.642734	0.000676	6.756015	1.144500	-0.013513
1843	9.2100e-01	1.5753	-8.691056	0.000483	4.831834	0.818535	-0.009664
1844	9.2150e-01	1.5657	-8.744509	0.000534	5.344949	0.905459	-0.010691
1845	9.2200e-01	1.5543	-8.777864	0.000334	3.335248	0.565006	-0.006671
1846	9.2250e-01	1.5460	-8.839014	0.000611	6.114622	1.035845	-0.012230
1847	9.2300e-01	1.5358	-8.857830	0.000188	1.881422	0.318722	-0.003763
1848	9.2350e-01	1.5244	-8.912994	0.000552	5.515987	0.934434	-0.011033
1849	9.2400e-01	1.5160	-8.945921	0.000329	3.292489	0.557763	-0.006585
1850	9.2450e-01	1.5059	-8.995953	0.000500	5.002872	0.847509	-0.010006
1851	9.2500e-01	1.4948	-9.057959	0.000620	6.200141	1.050332	-0.012401
1852	9.2550e-01	1.4852	-9.094307	0.000363	3.634565	0.615712	-0.007270
1853	9.2600e-01	1.4761	-9.135359	0.000410	4.104921	0.695392	-0.008210
1854	9.2650e-01	1.4651	-9.183680	0.000483	4.831834	0.818535	-0.009664
1855	9.2700e-01	1.4541	-9.232857	0.000492	4.917353	0.833022	-0.009835
1856	9.2750e-01	1.4442	-9.274765	0.000419	4.190440	0.709880	-0.008381
1857	9.2800e-01	1.4338	-9.347461	0.000727	7.269131	1.231424	-0.014539
1858	9.2850e-01	1.4253	-9.367987	0.000205	2.052460	0.347696	-0.004105
1859	9.2900e-01	1.4151	-9.415026	0.000470	4.703555	0.796804	-0.009408
1860	9.2950e-01	1.4029	-9.456933	0.000419	4.190440	0.709880	-0.008381
1861	9.3000e-01	1.3956	-9.526636	0.000697	6.969813	1.180718	-0.013941
1862	9.3050e-01	1.3847	-9.559563	0.000329	3.292489	0.557763	-0.006585
1863	9.3100e-01	1.3754	-9.612161	0.000526	5.259430	0.890972	-0.010520
1864	9.3150e-01	1.3654	-9.639101	0.000269	2.693854	0.456351	-0.005388
1865	9.3200e-01	1.3528	-9.713080	0.000740	7.397409	1.253155	-0.014796
1866	9.3250e-01	1.3473	-9.748146	0.000351	3.506286	0.593981	-0.007013
1867	9.3300e-01	1.3356	-9.794757	0.000466	4.660795	0.789560	-0.009322
1868	9.3350e-01	1.3246	-9.844789	0.000500	5.002872	0.847509	-0.010006
1869	9.3400e-01	1.3158	-9.868736	0.000239	2.394537	0.405646	-0.004789
1870	9.3450e-01	1.3039	-9.946564	0.000778	7.782246	1.318348	-0.015566
1871	9.3500e-01	1.2946	-9.968800	0.000222	2.223499	0.376671	-0.004447
1872	9.3550e-01	1.2836	-10.029951	0.000611	6.114622	1.035845	-0.012230
1873	9.3600e-01	1.2748	-10.082976	0.000530	5.302189	0.898215	-0.010605
1874	9.3650e-01	1.2647	-10.140706	0.000577	5.772545	0.977896	-0.011546
1875	9.3700e-01	1.2550	-10.162515	0.000218	2.180739	0.369427	-0.004362
1876	9.3750e-01	1.2448	-10.206132	0.000436	4.361478	0.738854	-0.008724
1877	9.3800e-01	1.2337	-10.260013	0.000539	5.387709	0.912703	-0.010776
1878	9.3850e-01	1.2278	-10.303631	0.000436	4.361478	0.738854	-0.008724
1879	9.3900e-01	1.2148	-10.359650	0.000560	5.601506	0.948921	-0.011204
1880	9.3950e-01	1.2058	-10.399419	0.000398	3.976642	0.673661	-0.007954
1881	9.4000e-01	1.1948	-10.449879	0.000505	5.045632	0.854753	-0.010092
1882	9.4050e-01	1.1847	-10.499911	0.000500	5.002872	0.847509	-0.010006
1883	9.4100e-01	1.1751	-10.557213	0.000573	5.729785	0.970652	-0.011460
1884	9.4150e-01	1.1668	-10.572180	0.000150	1.496586	0.253528	-0.002993
1885	9.4200e-01	1.1548	-10.636323	0.000641	6.413939	1.086551	-0.012829
1886	9.4250e-01	1.1466	-10.684217	0.000479	4.789074	0.811291	-0.009579
1887	9.4300e-01	1.1356	-10.734677	0.000505	5.045632	0.854753	-0.010092
1888	9.4350e-01	1.1252	-10.787703	0.000530	5.302189	0.898215	-0.010605
1889	9.4400e-01	1.1175	-10.812933	0.000252	2.522816	0.427377	-0.005046
1890	9.4450e-01	1.1078	-10.888622	0.000757	7.568448	1.282130	-0.015138
1891	9.4500e-01	1.0925	-10.915990	0.000274	2.736614	0.463595	-0.005474
1892	9.4550e-01	1.0831	-10.966878	0.000509	5.088391	0.861997	-0.010177
1893	9.4600e-01	1.0745	-11.028456	0.000616	6.157381	1.043089	-0.012316
1894	9.4650e-01	1.0633	-11.056679	0.000282	2.822133	0.478082	-0.005645
1895	9.4700e-01	1.0537	-11.138783	0.000821	8.209842	1.390785	-0.016421
1896	9.4750e-01	1.0461	-11.155461	0.000167	1.667624	0.282503	-0.003335
1897	9.4800e-01	1.0378	-11.213190	0.000577	5.772545	0.977896	-0.011546
1898	9.4850e-01	1.0242	-11.256380	0.000432	4.318719	0.731611	-0.008638
1899	9.4900e-01	1.0149	-11.311116	0.000547	5.473228	0.927190	-0.010947
1900	9.4950e-01	1.0033	-11.380391	0.000693	6.927054	1.173475	-0.013855
1901	9.5000e-01	0.9949	-11.411608	0.000312	3.121450	0.528788	-0.006243
1902	9.5050e-01	0.9857	-11.456509	0.000449	4.489757	0.760585	-0.008980
1903	9.5100e-01	0.9747	-11.501409	0.000449	4.489757	0.760585	-0.008980
1904	9.5150e-01	0.9660	-11.546310	0.000449	4.489757	0.760585	-0.008980
1905	9.5200e-01	0.9564	-11.595059	0.000487	4.874593	0.825778	-0.009750
1906	9.5250e-01	0.9468	-11.641670	0.000466	4.660795	0.789560	-0.009322
1907	9.5300e-01	0.9348	-11.707525	0.000658	6.584977	1.115525	-0.013171
1908	9.5350e-01	0.9262	-11.741307	0.000338	3.378008	0.572250	-0.006756
1909	9.5400e-01	0.9171	-11.777655	0.000363	3.634565	0.615712	-0.007270
1910	9.5450e-01	0.9050	-11.828115	0.000505	5.045632	0.854753	-0.010092
1911	9.5500e-01	0.8937	-11.893114	0.000650	6.499458	1.101038	-0.013000
1912	9.5550e-01	0.8875	-11.947850	0.000547	5.473228	0.927190	-0.010947
1913	9.5600e-01	0.8746	-11.972225	0.000244	2.437297	0.412889	-0.004875
1914	9.5650e-01	0.8658	-12.049625	0.000774	7.739486	1.311104	-0.015480
1915	9.5700e-01	0.8535	-12.095809	0.000462	4.618036	0.782316	-0.009237
1916	9.5750e-01	0.8482	-12.137716	0.000419	4.190440	0.709880	-0.008381
1917	9.5800e-01	0.8356	-12.203998	0.000663	6.627737	1.122769	-0.013256
1918	9.5850e-01	0.8260	-12.241629	0.000376	3.762844	0.637443	-0.007526
1919	9.5900e-01	0.8165	-12.289523	0.000479	4.789074	0.811291	-0.009579
1920	9.5950e-01	0.8047	-12.331002	0.000415	4.147680	0.702636	-0.008296
1921	9.6000e-01	0.7929	-12.389587	0.000586	5.858064	0.992383	-0.011717
1922	9.6050e-01	0.7846	-12.443468	0.000539	5.387709	0.912703	-0.010776
1923	9.6100e-01	0.7739	-12.490934	0.000475	4.746315	0.804047	-0.009493
1924	9.6150e-01	0.7638	-12.540966	0.000500	5.002872	0.847509	-0.010006
1925	9.6200e-01	0.7558	-12.576459	0.000355	3.549046	0.601225	-0.007099
1926	9.6250e-01	0.7429	-12.642314	0.000658	6.584977	1.115525	-0.013171
1927	9.6300e-01	0.7342	-12.699188	0.000569	5.687026	0.963408	-0.011375
1928	9.6350e-01	0.7234	-12.720997	0.000218	2.180739	0.369427	-0.004362
1929	9.6400e-01	0.7133	-12.809943	0.000889	8.893995	1.506684	-0.017789
1930	9.6450e-01	0.7037	-12.845436	0.000355	3.549046	0.601225	-0.007099
1931	9.6500e-01	0.6946	-12.887343	0.000419	4.190440	0.709880	-0.008381
1932	9.6550e-01	0.6837	-12.934809	0.000475	4.746315	0.804047	-0.009493
1933	9.6600e-01	0.6760	-12.979710	0.000449	4.489757	0.760585	-0.008980
1934	9.6650e-01	0.6667	-13.029742	0.000500	5.002872	0.847509	-0.010006
1935	9.6700e-01	0.6558	-13.100300	0.000706	7.055333	1.195206	-0.014112
1936	9.6750e-01	0.6463	-13.145629	0.000453	4.532517	0.767829	-0.009066
1937	9.6800e-01	0.6337	-13.183687	0.000381	3.805604	0.644687	-0.007612
1938	9.6850e-01	0.6264	-13.247831	0.000641	6.413939	1.086551	-0.012829
1939	9.6900e-01	0.6167	-13.295297	0.000475	4.746315	0.804047	-0.009493
1940	9.6950e-01	0.6059	-13.329935	0.000346	3.463527	0.586737	-0.006928
1941	9.7000e-01	0.5949	-13.406908	0.000770	7.696726	1.303861	-0.015395
1942	9.7050e-01	0.5862	-13.446249	0.000393	3.933882	0.666418	-0.007868
1943	9.7100e-01	0.5732	-13.475755	0.000295	2.950412	0.499813	-0.005901
1944	9.7150e-01	0.5655	-13.541182	0.000654	6.542217	1.108282	-0.013085
1945	9.7200e-01	0.5588	-13.595063	0.000539	5.387709	0.912703	-0.010776
1946	9.7250e-01	0.5450	-13.651937	0.000569	5.687026	0.963408	-0.011375
1947	9.7300e-01	0.5350	-13.698548	0.000466	4.660795	0.789560	-0.009322
1948	9.7350e-01	0.5247	-13.739172	0.000406	4.062161	0.688149	-0.008125
1949	9.7400e-01	0.5164	-13.798185	0.000590	5.900824	0.999627	-0.011802
1950	9.7450e-01	0.5055	-13.848645	0.000505	5.045632	0.854753	-0.010092
1951	9.7500e-01	0.4958	-13.905091	0.000564	5.644266	0.956165	-0.011289
1952	9.7550e-01	0.4873	-13.955551	0.000505	5.045632	0.854753	-0.010092
1953	9.7600e-01	0.4772	-13.981636	0.000261	2.608335	0.441864	-0.005217
1954	9.7650e-01	0.4674	-14.050056	0.000684	6.841535	1.158987	-0.013684
1955	9.7700e-01	0.4533	-14.114627	0.000646	6.456698	1.093794	-0.012914
1956	9.7750e-01	0.4443	-14.145416	0.000308	3.078691	0.521544	-0.006158
1957	9.7800e-01	0.4359	-14.215547	0.000701	7.012573	1.187962	-0.014026
1958	9.7850e-01	0.4230	-14.245908	0.000304	3.035931	0.514301	-0.006072
1959	9.7900e-01	0.4148	-14.306631	0.000607	6.071862	1.028601	-0.012145
1960	9.7950e-01	0.4049	-14.346828	0.000402	4.019402	0.680905	-0.008039
1961	9.8000e-01	0.3951	-14.418241	0.000714	7.140852	1.209693	-0.014283
1962	9.8050e-01	0.3819	-14.469984	0.000517	5.173911	0.876484	-0.010349
1963	9.8100e-01	0.3743	-14.518733	0.000487	4.874593	0.825778	-0.009750
1964	9.8150e-01	0.3642	-14.571759	0.000530	5.302189	0.898215	-0.010605
1965	9.8200e-01	0.3529	-14.624357	0.000526	5.259430	0.890972	-0.010520
1966	9.8250e-01	0.3459	-14.676527	0.000522	5.216670	0.883728	-0.010434
1967	9.8300e-01	0.3341	-14.722283	0.000458	4.575276	0.775073	-0.009151
1968	9.8350e-01	0.3246	-14.786854	0.000646	6.456698	1.093794	-0.012914
1969	9.8400e-01	0.3144	-14.821064	0.000342	3.420767	0.579494	-0.006842
1970	9.8450e-01	0.3045	-14.901030	0.000800	7.996044	1.354566	-0.015993
1971	9.8500e-01	0.2941	-14.946786	0.000458	4.575276	0.775073	-0.009151
1972	9.8550e-01	0.2834	-14.969450	0.000227	2.266258	0.383915	-0.004533
1973	9.8600e-01	0.2772	-15.044712	0.000753	7.525688	1.274886	-0.015052
1974	9.8650e-01	0.2633	-15.087903	0.000432	4.318719	0.731611	-0.008638
1975	9.8700e-01	0.2549	-15.134086	0.000462	4.618036	0.782316	-0.009237
1976	9.8750e-01	0.2453	-15.172572	0.000385	3.848363	0.651930	-0.007697
1977	9.8800e-01	0.2341	-15.239710	0.000671	6.713256	1.137256	-0.013427
1978	9.8850e-01	0.2249	-15.307274	0.000676	6.756015	1.144500	-0.013513
1979	9.8900e-01	0.2133	-15.353458	0.000462	4.618036	0.782316	-0.009237
1980	9.8950e-01	0.2036	-15.416319	0.000629	6.285660	1.064820	-0.012572
1981	9.9000e-01	0.1961	-15.456943	0.000406	4.062161	0.688149	-0.008125
1982	9.9050e-01	0.1868	-15.521087	0.000641	6.413939	1.086551	-0.012829
1983	9.9100e-01	0.1754	-15.565988	0.000449	4.489757	0.760585	-0.008980
1984	9.9150e-01	0.1655	-15.619013	0.000530	5.302189	0.898215	-0.010605
1985	9.9200e-01	0.1533	-15.668618	0.000496	4.960113	0.840266	-0.009921
1986	9.9250e-01	0.1452	-15.712235	0.000436	4.361478	0.738854	-0.008724
1987	9.9300e-01	0.1343	-15.770393	0.000582	5.815304	0.985139	-0.011631
1988	9.9350e-01	0.1241	-15.845227	0.000748	7.482928	1.267642	-0.014967
1989	9.9400e-01	0.1170	-15.896970	0.000517	5.173911	0.876484	-0.010349
1990	9.9450e-01	0.1060	-15.942725	0.000458	4.575276	0.775073	-0.009151
1991	9.9500e-01	0.0970	-16.011146	0.000684	6.841535	1.158987	-0.013684
1992	9.9550e-01	0.0867	-16.042790	0.000316	3.164210	0.536032	-0.006329
1993	9.9600e-01	0.0755	-16.091539	0.000487	4.874593	0.825778	-0.009750
1994	9.9650e-01	0.0654	-16.150124	0.000586	5.858064	0.992383	-0.011717
1995	9.9700e-01	0.0547	-16.204432	0.000543	5.430468	0.919946	-0.010862
1996	9.9750e-01	0.0483	-16.252754	0.000483	4.831834	0.818535	-0.009664
1997	9.9800e-01	0.0340	-16.305352	0.000526	5.259430	0.890972	-0.010520
1998	9.9850e-01	0.0245	-16.372061	0.000667	6.670496	1.130013	-0.013342
1999	9.9900e-01	0.0155	-16.419528	0.000475	4.746315	0.804047	-0.009493
2000	9.9950e-01	0.0044	-16.464001	0.000445	4.446998	0.753342	-0.008895
2001	1.0000e+00	-0.0053	-16.525151	0.000445	4.446998	0.753342	-0.012230

PMax (uC/cm2):	3.77e+01
Pr (uC/cm2):	2.32e+00
-Pr (uC/cm2):	0.00e+00
PLoss (uC/cm2):	0.00e+00
C (Max-Eff) (nF):	3.77e-01
K (Eff):	6.39e+02
Vert. (+/-Pr) Shift (uC/cm2):	1.16e+00
Offset (uC/cm2):	1.88e+01

A (Loop Area - uC/cm2·Volts):	-2.19e-02



Hysteresis Version: 5.48.1 - Radiant Technologies, Inc., 1999 - 9/12/24

