»»»»»»»»»»»»»»»»»»»»»»»»»»»»»»»»»»»» Hysteresis ««««««««««««««««««««««««««««««««««««
»»»  Executed Version:	5.48.1
»»»  Vision Version:	5.48.4 (R)
»»»  Vision Compiled:	9/18/24
»»»  Driver Version:	5.47.0
»»»  Windows Version:	Windows 8 or 8.1
»»»  Processor Information:	x86 (AMD or Intel) - 32 Processors
»»»  Tester Name:	PMF21124-494 (100V)
»»»  Tester S/N:	PMF21124-494
»»»  Internal Amp Type:	100V RevK 270k
»»»  Internal Amp S/N:	iAB2-596/K     
»»»  Execution Count:	1
»»»»»»»»»»»»»»»»»»»»»»»»»»»»»»»»»»»»»»»»»»««««««««««««««««««««««««««««««««««««««««««

Stored:	6/27/2025 - 14:1:11
Configured:	06/27/25 11:23:28 AM
Executed:	06/27/25 02:00:48 PM

»»»»»»»»»»»»»»»»»»»»»»»»»»»»»»»»»»» Sample Info ««««««««««««««««««««««««««««««««««««
Sample Name:	
Lot Name:	
Wafer Name:	
Die Row/Column:	0/0
Capacitor Number:	0
Sample Area (cm2):	1.00e-04
Sample Thickness (microns):	1.50e-01

Amplifier:	Internal

»»»»»»»»»»»»»»»»»»»»»»»»»»»»»»»»»»» Tester Info «««««««««««««««««««««««««««««««««««
Tester Name:	PMF21124-494 (100V)
Tester Serial Number:	PMF21124-494
Return Signal Amp. Level:	1.79 [Index: 2]

»»»»»»»»»»»»»»»»»»»»»»»»»»»»»»»» Hysteresis Info ««««««««««««««««««««««««««««««««««
Task Name:	Hyst-1276
Volts:	10.00
Field:	666.67 (kV/cm)
DCBias:	0.00
DCField:	0.00 (kV/cm)
Hysteresis Period (ms):	1.00e+00
Preset:	Enabled
Preset Delay (ms):	1.00e+03
Profile:	Standard Monopolar

»»»»»»»»»»»»»»»»»»»»»»»»»»»»»»»»»»»»»» Data «««««««««««««««««««««««««««««««««««««««
Points:	2001

Valid Data

Point	Time (ms)	Drive Voltage	Measured Polarization (uC/cm2)	Capacitance (uF)	Normalized Capacitance (uF/cm2)	Dielectric Constant	Instantaneous Current (mA)
   1	0.0000e+00	-0.0041	-15.951492	0.000693	6.926922	1.173452	0.013855
   2	5.0000e-04	0.0047	-15.882217	0.000693	6.926922	1.173452	0.013855
   3	1.0000e-03	0.0168	-15.817645	0.000646	6.456575	1.093773	0.012914
   4	1.5000e-03	0.0249	-15.791560	0.000261	2.608285	0.441855	0.005217
   5	2.0000e-03	0.0359	-15.724850	0.000667	6.670369	1.129991	0.013342
   6	2.5000e-03	0.0456	-15.700903	0.000239	2.394491	0.405638	0.004789
   7	3.0000e-03	0.0554	-15.668404	0.000325	3.249667	0.550508	0.006500
   8	3.5000e-03	0.0652	-15.620510	0.000479	4.788983	0.811276	0.009579
   9	4.0000e-03	0.0756	-15.582024	0.000385	3.848290	0.651918	0.007697
  10	4.5000e-03	0.0880	-15.534130	0.000479	4.788983	0.811276	0.009579
  11	5.0000e-03	0.0958	-15.478966	0.000552	5.515882	0.934416	0.011033
  12	5.5000e-03	0.1047	-15.437914	0.000410	4.104842	0.695379	0.008210
  13	6.0000e-03	0.1164	-15.384888	0.000530	5.302088	0.898198	0.010605
  14	6.5000e-03	0.1280	-15.374625	0.000103	1.026211	0.173845	0.002053
  15	7.0000e-03	0.1363	-15.298080	0.000765	7.653821	1.296592	0.015309
  16	7.5000e-03	0.1451	-15.259594	0.000385	3.848290	0.651918	0.007697
  17	8.0000e-03	0.1572	-15.228377	0.000312	3.121391	0.528778	0.006243
  18	8.5000e-03	0.1675	-15.180483	0.000479	4.788983	0.811276	0.009579
  19	9.0000e-03	0.1765	-15.150550	0.000299	2.993114	0.507047	0.005987
  20	9.5000e-03	0.1860	-15.098379	0.000522	5.216571	0.883711	0.010434
  21	1.0000e-02	0.1953	-15.056472	0.000419	4.190360	0.709866	0.008381
  22	1.0500e-02	0.2055	-14.994039	0.000624	6.242781	1.057556	0.012487
  23	1.1000e-02	0.2163	-14.970947	0.000231	2.308974	0.391151	0.004618
  24	1.1500e-02	0.2268	-14.907659	0.000633	6.328299	1.072043	0.012658
  25	1.2000e-02	0.2358	-14.877297	0.000304	3.035873	0.514291	0.006072
  26	1.2500e-02	0.2442	-14.836245	0.000410	4.104842	0.695379	0.008210
  27	1.3000e-02	0.2539	-14.780226	0.000560	5.601400	0.948903	0.011204
  28	1.3500e-02	0.2652	-14.727628	0.000526	5.259329	0.890955	0.010520
  29	1.4000e-02	0.2739	-14.695984	0.000316	3.164149	0.536021	0.006329
  30	1.4500e-02	0.2883	-14.633551	0.000624	6.242781	1.057556	0.012487
  31	1.5000e-02	0.2953	-14.585657	0.000479	4.788983	0.811276	0.009579
  32	1.5500e-02	0.3064	-14.559572	0.000261	2.608285	0.441855	0.005217
  33	1.6000e-02	0.3165	-14.507401	0.000522	5.216571	0.883711	0.010434
  34	1.6500e-02	0.3257	-14.487303	0.000201	2.009662	0.340446	0.004020
  35	1.7000e-02	0.3351	-14.408620	0.000787	7.867615	1.332810	0.015737
  36	1.7500e-02	0.3436	-14.395791	0.000128	1.282763	0.217306	0.002566
  37	1.8000e-02	0.3555	-14.330364	0.000654	6.542093	1.108261	0.013085
  38	1.8500e-02	0.3651	-14.312404	0.000180	1.795869	0.304228	0.003592
  39	1.9000e-02	0.3750	-14.265365	0.000470	4.703465	0.796789	0.009408
  40	1.9500e-02	0.3860	-14.232866	0.000325	3.249667	0.550508	0.006500
  41	2.0000e-02	0.3949	-14.172571	0.000603	6.028987	1.021338	0.012059
  42	2.0500e-02	0.4057	-14.122966	0.000496	4.960018	0.840250	0.009921
  43	2.1000e-02	0.4155	-14.080631	0.000423	4.233119	0.717110	0.008467
  44	2.1500e-02	0.4268	-14.051980	0.000286	2.864838	0.485317	0.005730
  45	2.2000e-02	0.4371	-14.001948	0.000500	5.002777	0.847493	0.010006
  46	2.2500e-02	0.4453	-13.976718	0.000252	2.522768	0.427368	0.005046
  47	2.3000e-02	0.4559	-13.913002	0.000637	6.371058	1.079286	0.012743
  48	2.3500e-02	0.4673	-13.862115	0.000509	5.088294	0.861980	0.010177
  49	2.4000e-02	0.4730	-13.826622	0.000355	3.548978	0.601213	0.007099
  50	2.4500e-02	0.4861	-13.768465	0.000582	5.815194	0.985120	0.011631
  51	2.5000e-02	0.4975	-13.748366	0.000201	2.009662	0.340446	0.004020
  52	2.5500e-02	0.5047	-13.687216	0.000611	6.114505	1.035825	0.012230
  53	2.6000e-02	0.5136	-13.652578	0.000346	3.463461	0.586726	0.006928
  54	2.6500e-02	0.5273	-13.614520	0.000381	3.805531	0.644674	0.007612
  55	2.7000e-02	0.5353	-13.570902	0.000436	4.361395	0.738840	0.008724
  56	2.7500e-02	0.5478	-13.527284	0.000436	4.361395	0.738840	0.008724
  57	2.8000e-02	0.5576	-13.508896	0.000184	1.838627	0.311472	0.003678
  58	2.8500e-02	0.5655	-13.440904	0.000680	6.798645	1.151722	0.013598
  59	2.9000e-02	0.5802	-13.396431	0.000445	4.446913	0.753327	0.008895
  60	2.9500e-02	0.5853	-13.339557	0.000569	5.686917	0.963390	0.011375
  61	3.0000e-02	0.5970	-13.336991	0.000026	0.256553	0.043461	0.000513
  62	3.0500e-02	0.6089	-13.261301	0.000757	7.568303	1.282105	0.015138
  63	3.1000e-02	0.6126	-13.214690	0.000466	4.660707	0.789545	0.009322
  64	3.1500e-02	0.6230	-13.188177	0.000265	2.651044	0.449099	0.005303
  65	3.2000e-02	0.6363	-13.134296	0.000539	5.387606	0.912685	0.010776
  66	3.2500e-02	0.6457	-13.103935	0.000304	3.035873	0.514291	0.006072
  67	3.3000e-02	0.6551	-13.057324	0.000466	4.660707	0.789545	0.009322
  68	3.3500e-02	0.6645	-13.019693	0.000376	3.762772	0.637431	0.007526
  69	3.4000e-02	0.6770	-12.985911	0.000338	3.377943	0.572239	0.006756
  70	3.4500e-02	0.6845	-12.933313	0.000526	5.259329	0.890955	0.010520
  71	3.5000e-02	0.6949	-12.879432	0.000539	5.387606	0.912685	0.010776
  72	3.5500e-02	0.7069	-12.853774	0.000257	2.565527	0.434612	0.005132
  73	3.6000e-02	0.7141	-12.799038	0.000547	5.473123	0.927172	0.010947
  74	3.6500e-02	0.7246	-12.751572	0.000475	4.746224	0.804032	0.009493
  75	3.7000e-02	0.7378	-12.726770	0.000248	2.480009	0.420125	0.004960
  76	3.7500e-02	0.7460	-12.662626	0.000641	6.413816	1.086530	0.012829
  77	3.8000e-02	0.7590	-12.631409	0.000312	3.121391	0.528778	0.006243
  78	3.8500e-02	0.7654	-12.592495	0.000389	3.891049	0.659161	0.007783
  79	3.9000e-02	0.7745	-12.559568	0.000329	3.292426	0.557752	0.006585
  80	3.9500e-02	0.7856	-12.503977	0.000556	5.558641	0.941659	0.011118
  81	4.0000e-02	0.7956	-12.463780	0.000402	4.019325	0.680892	0.008039
  82	4.0500e-02	0.8053	-12.420162	0.000436	4.361395	0.738840	0.008724
  83	4.1000e-02	0.8158	-12.381676	0.000385	3.848290	0.651918	0.007697
  84	4.1500e-02	0.8246	-12.321808	0.000599	5.986229	1.014095	0.011974
  85	4.2000e-02	0.8362	-12.276908	0.000449	4.489671	0.760571	0.008980
  86	4.2500e-02	0.8426	-12.245691	0.000312	3.121391	0.528778	0.006243
  87	4.3000e-02	0.8545	-12.199508	0.000462	4.617948	0.782302	0.009237
  88	4.3500e-02	0.8665	-12.175133	0.000244	2.437250	0.412881	0.004875
  89	4.4000e-02	0.8755	-12.122963	0.000522	5.216571	0.883711	0.010434
  90	4.4500e-02	0.8855	-12.076352	0.000466	4.660707	0.789545	0.009322
  91	4.5000e-02	0.8972	-12.023754	0.000526	5.259329	0.890955	0.010520
  92	4.5500e-02	0.9042	-12.008787	0.000150	1.496557	0.253524	0.002993
  93	4.6000e-02	0.9152	-11.944643	0.000641	6.413816	1.086530	0.012829
  94	4.6500e-02	0.9264	-11.902736	0.000419	4.190360	0.709866	0.008381
  95	4.7000e-02	0.9375	-11.885203	0.000175	1.753110	0.296985	0.003507
  96	4.7500e-02	0.9457	-11.825336	0.000599	5.986229	1.014095	0.011974
  97	4.8000e-02	0.9566	-11.793691	0.000316	3.164149	0.536021	0.006329
  98	4.8500e-02	0.9684	-11.766323	0.000274	2.736562	0.463586	0.005474
  99	4.9000e-02	0.9790	-11.698758	0.000676	6.755887	1.144478	0.013513
 100	4.9500e-02	0.9842	-11.660272	0.000385	3.848290	0.651918	0.007697
 101	5.0000e-02	0.9968	-11.627345	0.000329	3.292426	0.557752	0.006585
 102	5.0500e-02	1.0047	-11.596128	0.000312	3.121391	0.528778	0.006243
 103	5.1000e-02	1.0194	-11.554221	0.000419	4.190360	0.709866	0.008381
 104	5.1500e-02	1.0266	-11.498630	0.000556	5.558641	0.941659	0.011118
 105	5.2000e-02	1.0376	-11.471262	0.000274	2.736562	0.463586	0.005474
 106	5.2500e-02	1.0451	-11.404980	0.000663	6.627610	1.122748	0.013256
 107	5.3000e-02	1.0580	-11.380178	0.000248	2.480009	0.420125	0.004960
 108	5.3500e-02	1.0640	-11.332284	0.000479	4.788983	0.811276	0.009579
 109	5.4000e-02	1.0795	-11.286100	0.000462	4.617948	0.782302	0.009237
 110	5.4500e-02	1.0880	-11.258304	0.000278	2.779320	0.470830	0.005559
 111	5.5000e-02	1.0988	-11.229654	0.000286	2.864838	0.485317	0.005730
 112	5.5500e-02	1.1081	-11.171496	0.000582	5.815194	0.985120	0.011631
 113	5.6000e-02	1.1180	-11.135148	0.000363	3.634496	0.615700	0.007270
 114	5.6500e-02	1.1286	-11.105215	0.000299	2.993114	0.507047	0.005987
 115	5.7000e-02	1.1374	-11.056038	0.000492	4.917259	0.833006	0.009835
 116	5.7500e-02	1.1444	-11.000019	0.000560	5.601400	0.948903	0.011204
 117	5.8000e-02	1.1551	-10.969230	0.000308	3.078632	0.521534	0.006158
 118	5.8500e-02	1.1652	-10.933737	0.000355	3.548978	0.601213	0.007099
 119	5.9000e-02	1.1758	-10.895678	0.000381	3.805531	0.644674	0.007612
 120	5.9500e-02	1.1871	-10.866172	0.000295	2.950356	0.499804	0.005901
 121	6.0000e-02	1.1975	-10.806305	0.000599	5.986229	1.014095	0.011974
 122	6.0500e-02	1.2053	-10.774660	0.000316	3.164149	0.536021	0.006329
 123	6.1000e-02	1.2148	-10.736174	0.000385	3.848290	0.651918	0.007697
 124	6.1500e-02	1.2275	-10.706668	0.000295	2.950356	0.499804	0.005901
 125	6.2000e-02	1.2366	-10.650221	0.000564	5.644158	0.956146	0.011289
 126	6.2500e-02	1.2467	-10.611307	0.000389	3.891049	0.659161	0.007783
 127	6.3000e-02	1.2565	-10.586505	0.000248	2.480009	0.420125	0.004960
 128	6.3500e-02	1.2677	-10.530059	0.000564	5.644158	0.956146	0.011289
 129	6.4000e-02	1.2756	-10.516375	0.000137	1.368281	0.231793	0.002737
 130	6.4500e-02	1.2837	-10.454369	0.000620	6.200023	1.050312	0.012401
 131	6.5000e-02	1.2965	-10.425290	0.000291	2.907597	0.492560	0.005816
 132	6.5500e-02	1.3062	-10.377824	0.000475	4.746224	0.804032	0.009493
 133	6.6000e-02	1.3165	-10.344042	0.000338	3.377943	0.572239	0.006756
 134	6.6500e-02	1.3265	-10.287167	0.000569	5.686917	0.963390	0.011375
 135	6.7000e-02	1.3339	-10.260655	0.000265	2.651044	0.449099	0.005303
 136	6.7500e-02	1.3454	-10.208912	0.000517	5.173812	0.876467	0.010349
 137	6.8000e-02	1.3546	-10.169998	0.000389	3.891049	0.659161	0.007783
 138	6.8500e-02	1.3666	-10.110986	0.000590	5.900711	0.999608	0.011802
 139	6.9000e-02	1.3747	-10.099868	0.000111	1.111728	0.188332	0.002224
 140	6.9500e-02	1.3878	-10.079769	0.000201	2.009662	0.340446	0.004020
 141	7.0000e-02	1.3962	-10.018191	0.000616	6.157264	1.043069	0.012316
 142	7.0500e-02	1.4075	-10.000658	0.000175	1.753110	0.296985	0.003507
 143	7.1000e-02	1.4160	-9.945922	0.000547	5.473123	0.927172	0.010947
 144	7.1500e-02	1.4244	-9.898884	0.000470	4.703465	0.796789	0.009408
 145	7.2000e-02	1.4339	-9.855266	0.000436	4.361395	0.738840	0.008724
 146	7.2500e-02	1.4473	-9.825332	0.000299	2.993114	0.507047	0.005987
 147	7.3000e-02	1.4564	-9.794543	0.000308	3.078632	0.521534	0.006158
 148	7.3500e-02	1.4676	-9.743656	0.000509	5.088294	0.861980	0.010177
 149	7.4000e-02	1.4752	-9.695762	0.000479	4.788983	0.811276	0.009579
 150	7.4500e-02	1.4851	-9.650006	0.000458	4.575189	0.775058	0.009151
 151	7.5000e-02	1.4960	-9.628197	0.000218	2.180698	0.369420	0.004362
 152	7.5500e-02	1.5028	-9.600401	0.000278	2.779320	0.470830	0.005559
 153	7.6000e-02	1.5188	-9.540106	0.000603	6.028987	1.021338	0.012059
 154	7.6500e-02	1.5282	-9.505041	0.000351	3.506220	0.593970	0.007013
 155	7.7000e-02	1.5350	-9.459713	0.000453	4.532430	0.767814	0.009066
 156	7.7500e-02	1.5448	-9.424647	0.000351	3.506220	0.593970	0.007013
 157	7.8000e-02	1.5556	-9.405832	0.000188	1.881386	0.318715	0.003763
 158	7.8500e-02	1.5654	-9.376326	0.000295	2.950356	0.499804	0.005901
 159	7.9000e-02	1.5744	-9.314320	0.000620	6.200023	1.050312	0.012401
 160	7.9500e-02	1.5890	-9.286952	0.000274	2.736562	0.463586	0.005474
 161	8.0000e-02	1.5967	-9.235637	0.000513	5.131053	0.869224	0.010263
 162	8.0500e-02	1.6057	-9.199289	0.000363	3.634496	0.615700	0.007270
 163	8.1000e-02	1.6180	-9.163796	0.000355	3.548978	0.601213	0.007099
 164	8.1500e-02	1.6238	-9.118468	0.000453	4.532430	0.767814	0.009066
 165	8.2000e-02	1.6376	-9.085540	0.000329	3.292426	0.557752	0.006585
 166	8.2500e-02	1.6444	-9.024390	0.000611	6.114505	1.035825	0.012230
 167	8.3000e-02	1.6554	-9.008995	0.000154	1.539316	0.260767	0.003079
 168	8.3500e-02	1.6652	-8.967516	0.000415	4.147601	0.702623	0.008296
 169	8.4000e-02	1.6746	-8.935444	0.000321	3.206908	0.543265	0.006414
 170	8.4500e-02	1.6879	-8.884129	0.000513	5.131053	0.869224	0.010263
 171	8.5000e-02	1.6980	-8.855050	0.000291	2.907597	0.492560	0.005816
 172	8.5500e-02	1.7068	-8.816992	0.000381	3.805531	0.644674	0.007612
 173	8.6000e-02	1.7166	-8.778078	0.000389	3.891049	0.659161	0.007783
 174	8.6500e-02	1.7259	-8.713506	0.000646	6.456575	1.093773	0.012914
 175	8.7000e-02	1.7376	-8.691270	0.000222	2.223456	0.376664	0.004447
 176	8.7500e-02	1.7476	-8.662619	0.000286	2.864838	0.485317	0.005730
 177	8.8000e-02	1.7557	-8.612587	0.000500	5.002777	0.847493	0.010006
 178	8.8500e-02	1.7664	-8.566403	0.000462	4.617948	0.782302	0.009237
 179	8.9000e-02	1.7757	-8.547588	0.000188	1.881386	0.318715	0.003763
 180	8.9500e-02	1.7844	-8.512095	0.000355	3.548978	0.601213	0.007099
 181	9.0000e-02	1.7947	-8.450089	0.000620	6.200023	1.050312	0.012401
 182	9.0500e-02	1.8063	-8.446668	0.000034	0.342070	0.057948	0.000684
 183	9.1000e-02	1.8143	-8.397064	0.000496	4.960018	0.840250	0.009921
 184	9.1500e-02	1.8256	-8.357295	0.000398	3.976566	0.673649	0.007954
 185	9.2000e-02	1.8372	-8.315387	0.000419	4.190360	0.709866	0.008381
 186	9.2500e-02	1.8457	-8.284171	0.000312	3.121391	0.528778	0.006243
 187	9.3000e-02	1.8569	-8.244401	0.000398	3.976566	0.673649	0.007954
 188	9.3500e-02	1.8698	-8.196507	0.000479	4.788983	0.811276	0.009579
 189	9.4000e-02	1.8775	-8.171278	0.000252	2.522768	0.427368	0.005046
 190	9.4500e-02	1.8881	-8.122956	0.000483	4.831742	0.818519	0.009664
 191	9.5000e-02	1.8964	-8.074634	0.000483	4.831742	0.818519	0.009664
 192	9.5500e-02	1.9046	-8.069503	0.000051	0.513105	0.086922	0.001026
 193	9.6000e-02	1.9160	-8.020326	0.000492	4.917259	0.833006	0.009835
 194	9.6500e-02	1.9248	-7.999800	0.000205	2.052421	0.347690	0.004105
 195	9.7000e-02	1.9374	-7.949340	0.000505	5.045536	0.854737	0.010092
 196	9.7500e-02	1.9464	-7.898453	0.000509	5.088294	0.861980	0.010177
 197	9.8000e-02	1.9584	-7.861249	0.000372	3.720014	0.630187	0.007441
 198	9.8500e-02	1.9644	-7.811645	0.000496	4.960018	0.840250	0.009921
 199	9.9000e-02	1.9765	-7.792402	0.000192	1.924145	0.325959	0.003849
 200	9.9500e-02	1.9853	-7.744080	0.000483	4.831742	0.818519	0.009664
 201	1.0000e-01	1.9968	-7.725264	0.000188	1.881386	0.318715	0.003763
 202	1.0050e-01	2.0054	-7.688916	0.000363	3.634496	0.615700	0.007270
 203	1.0100e-01	2.0180	-7.635463	0.000534	5.344847	0.905442	0.010691
 204	1.0150e-01	2.0271	-7.619641	0.000158	1.582075	0.268011	0.003164
 205	1.0200e-01	2.0364	-7.560629	0.000590	5.900711	0.999608	0.011802
 206	1.0250e-01	2.0441	-7.532833	0.000278	2.779320	0.470830	0.005559
 207	1.0300e-01	2.0557	-7.484084	0.000487	4.874500	0.825763	0.009750
 208	1.0350e-01	2.0638	-7.455433	0.000286	2.864838	0.485317	0.005730
 209	1.0400e-01	2.0743	-7.419940	0.000355	3.548978	0.601213	0.007099
 210	1.0450e-01	2.0841	-7.376750	0.000432	4.318636	0.731597	0.008638
 211	1.0500e-01	2.0948	-7.359645	0.000171	1.710351	0.289741	0.003421
 212	1.0550e-01	2.1074	-7.311751	0.000479	4.788983	0.811276	0.009579
 213	1.0600e-01	2.1158	-7.267278	0.000445	4.446913	0.753327	0.008895
 214	1.0650e-01	2.1259	-7.215963	0.000513	5.131053	0.869224	0.010263
 215	1.0700e-01	2.1341	-7.164648	0.000513	5.131053	0.869224	0.010263
 216	1.0750e-01	2.1461	-7.156095	0.000086	0.855176	0.144871	0.001711
 217	1.0800e-01	2.1561	-7.116754	0.000393	3.933807	0.666405	0.007868
 218	1.0850e-01	2.1653	-7.095800	0.000210	2.095180	0.354933	0.004191
 219	1.0900e-01	2.1768	-7.051327	0.000445	4.446913	0.753327	0.008895
 220	1.0950e-01	2.1844	-7.002150	0.000492	4.917259	0.833006	0.009835
 221	1.1000e-01	2.1945	-6.974782	0.000274	2.736562	0.463586	0.005474
 222	1.1050e-01	2.2070	-6.937579	0.000372	3.720014	0.630187	0.007441
 223	1.1100e-01	2.2137	-6.890540	0.000470	4.703465	0.796789	0.009408
 224	1.1150e-01	2.2247	-6.860606	0.000299	2.993114	0.507047	0.005987
 225	1.1200e-01	2.2385	-6.825541	0.000351	3.506220	0.593970	0.007013
 226	1.1250e-01	2.2461	-6.774653	0.000509	5.088294	0.861980	0.010177
 227	1.1300e-01	2.2548	-6.757976	0.000167	1.667592	0.282498	0.003335
 228	1.1350e-01	2.2664	-6.701957	0.000560	5.601400	0.948903	0.011204
 229	1.1400e-01	2.2769	-6.683142	0.000188	1.881386	0.318715	0.003763
 230	1.1450e-01	2.2858	-6.641662	0.000415	4.147601	0.702623	0.008296
 231	1.1500e-01	2.2973	-6.605741	0.000359	3.591737	0.608457	0.007184
 232	1.1550e-01	2.3061	-6.549295	0.000564	5.644158	0.956146	0.011289
 233	1.1600e-01	2.3163	-6.516795	0.000325	3.249667	0.550508	0.006500
 234	1.1650e-01	2.3267	-6.487717	0.000291	2.907597	0.492560	0.005816
 235	1.1700e-01	2.3373	-6.440250	0.000475	4.746224	0.804032	0.009493
 236	1.1750e-01	2.3489	-6.421007	0.000192	1.924145	0.325959	0.003849
 237	1.1800e-01	2.3566	-6.382949	0.000381	3.805531	0.644674	0.007612
 238	1.1850e-01	2.3655	-6.364133	0.000188	1.881386	0.318715	0.003763
 239	1.1900e-01	2.3747	-6.314529	0.000496	4.960018	0.840250	0.009921
 240	1.1950e-01	2.3847	-6.275187	0.000393	3.933807	0.666405	0.007868
 241	1.2000e-01	2.3975	-6.231569	0.000436	4.361395	0.738840	0.008724
 242	1.2050e-01	2.4109	-6.214464	0.000171	1.710351	0.289741	0.003421
 243	1.2100e-01	2.4179	-6.172129	0.000423	4.233119	0.717110	0.008467
 244	1.2150e-01	2.4268	-6.122097	0.000500	5.002777	0.847493	0.010006
 245	1.2200e-01	2.4391	-6.098150	0.000239	2.394491	0.405638	0.004789
 246	1.2250e-01	2.4495	-6.053677	0.000445	4.446913	0.753327	0.008895
 247	1.2300e-01	2.4577	-6.026309	0.000274	2.736562	0.463586	0.005474
 248	1.2350e-01	2.4655	-5.973711	0.000526	5.259329	0.890955	0.010520
 249	1.2400e-01	2.4786	-5.958744	0.000150	1.496557	0.253524	0.002993
 250	1.2450e-01	2.4852	-5.927100	0.000316	3.164149	0.536021	0.006329
 251	1.2500e-01	2.4988	-5.901443	0.000257	2.565527	0.434612	0.005132
 252	1.2550e-01	2.5047	-5.827463	0.000740	7.397268	1.253131	0.014796
 253	1.2600e-01	2.5192	-5.800523	0.000269	2.693803	0.456343	0.005388
 254	1.2650e-01	2.5272	-5.775721	0.000248	2.480009	0.420125	0.004960
 255	1.2700e-01	2.5363	-5.734241	0.000415	4.147601	0.702623	0.008296
 256	1.2750e-01	2.5464	-5.693617	0.000406	4.062084	0.688136	0.008125
 257	1.2800e-01	2.5554	-5.663683	0.000299	2.993114	0.507047	0.005987
 258	1.2850e-01	2.5659	-5.620920	0.000428	4.275878	0.724353	0.008553
 259	1.2900e-01	2.5773	-5.590987	0.000299	2.993114	0.507047	0.005987
 260	1.2950e-01	2.5867	-5.561053	0.000299	2.993114	0.507047	0.005987
 261	1.3000e-01	2.5961	-5.519573	0.000415	4.147601	0.702623	0.008296
 262	1.3050e-01	2.6051	-5.485791	0.000338	3.377943	0.572239	0.006756
 263	1.3100e-01	2.6163	-5.458423	0.000274	2.736562	0.463586	0.005474
 264	1.3150e-01	2.6270	-5.400266	0.000582	5.815194	0.985120	0.011631
 265	1.3200e-01	2.6372	-5.387009	0.000133	1.325522	0.224550	0.002651
 266	1.3250e-01	2.6459	-5.338260	0.000487	4.874500	0.825763	0.009750
 267	1.3300e-01	2.6567	-5.317306	0.000210	2.095180	0.354933	0.004191
 268	1.3350e-01	2.6640	-5.285662	0.000316	3.164149	0.536021	0.006329
 269	1.3400e-01	2.6764	-5.236913	0.000487	4.874500	0.825763	0.009750
 270	1.3450e-01	2.6865	-5.201848	0.000351	3.506220	0.593970	0.007013
 271	1.3500e-01	2.6950	-5.161651	0.000402	4.019325	0.680892	0.008039
 272	1.3550e-01	2.7071	-5.114184	0.000475	4.746224	0.804032	0.009493
 273	1.3600e-01	2.7188	-5.087244	0.000269	2.693803	0.456343	0.005388
 274	1.3650e-01	2.7277	-5.051324	0.000359	3.591737	0.608457	0.007184
 275	1.3700e-01	2.7380	-5.026094	0.000252	2.522768	0.427368	0.005046
 276	1.3750e-01	2.7472	-4.986325	0.000398	3.976566	0.673649	0.007954
 277	1.3800e-01	2.7558	-4.954253	0.000321	3.206908	0.543265	0.006414
 278	1.3850e-01	2.7646	-4.918332	0.000359	3.591737	0.608457	0.007184
 279	1.3900e-01	2.7795	-4.890964	0.000274	2.736562	0.463586	0.005474
 280	1.3950e-01	2.7881	-4.846491	0.000445	4.446913	0.753327	0.008895
 281	1.4000e-01	2.7982	-4.814847	0.000316	3.164149	0.536021	0.006329
 282	1.4050e-01	2.8061	-4.781920	0.000329	3.292426	0.557752	0.006585
 283	1.4100e-01	2.8165	-4.754124	0.000278	2.779320	0.470830	0.005559
 284	1.4150e-01	2.8259	-4.718203	0.000359	3.591737	0.608457	0.007184
 285	1.4200e-01	2.8372	-4.663467	0.000547	5.473123	0.927172	0.010947
 286	1.4250e-01	2.8455	-4.636099	0.000274	2.736562	0.463586	0.005474
 287	1.4300e-01	2.8595	-4.595475	0.000406	4.062084	0.688136	0.008125
 288	1.4350e-01	2.8656	-4.576232	0.000192	1.924145	0.325959	0.003849
 289	1.4400e-01	2.8754	-4.545870	0.000304	3.035873	0.514291	0.006072
 290	1.4450e-01	2.8845	-4.516364	0.000295	2.950356	0.499804	0.005901
 291	1.4500e-01	2.8964	-4.448800	0.000676	6.755887	1.144478	0.013513
 292	1.4550e-01	2.9077	-4.435116	0.000137	1.368281	0.231793	0.002737
 293	1.4600e-01	2.9195	-4.408175	0.000269	2.693803	0.456343	0.005388
 294	1.4650e-01	2.9266	-4.337189	0.000710	7.097957	1.202426	0.014197
 295	1.4700e-01	2.9370	-4.329920	0.000073	0.726899	0.123140	0.001454
 296	1.4750e-01	2.9472	-4.291433	0.000385	3.848290	0.651918	0.007697
 297	1.4800e-01	2.9565	-4.258079	0.000334	3.335185	0.564996	0.006671
 298	1.4850e-01	2.9675	-4.219592	0.000385	3.848290	0.651918	0.007697
 299	1.4900e-01	2.9797	-4.169988	0.000496	4.960018	0.840250	0.009921
 300	1.4950e-01	2.9875	-4.158014	0.000120	1.197246	0.202819	0.002395
 301	1.5000e-01	2.9977	-4.114824	0.000432	4.318636	0.731597	0.008638
 302	1.5050e-01	3.0061	-4.081897	0.000329	3.292426	0.557752	0.006585
 303	1.5100e-01	3.0176	-4.048970	0.000329	3.292426	0.557752	0.006585
 304	1.5150e-01	3.0243	-4.011767	0.000372	3.720014	0.630187	0.007441
 305	1.5200e-01	3.0359	-3.968576	0.000432	4.318636	0.731597	0.008638
 306	1.5250e-01	3.0460	-3.941208	0.000274	2.736562	0.463586	0.005474
 307	1.5300e-01	3.0566	-3.898018	0.000432	4.318636	0.731597	0.008638
 308	1.5350e-01	3.0668	-3.880058	0.000180	1.795869	0.304228	0.003592
 309	1.5400e-01	3.0734	-3.855683	0.000244	2.437250	0.412881	0.004875
 310	1.5450e-01	3.0850	-3.805224	0.000505	5.045536	0.854737	0.010092
 311	1.5500e-01	3.0972	-3.779566	0.000257	2.565527	0.434612	0.005132
 312	1.5550e-01	3.1079	-3.741507	0.000381	3.805531	0.644674	0.007612
 313	1.5600e-01	3.1178	-3.709435	0.000321	3.206908	0.543265	0.006414
 314	1.5650e-01	3.1265	-3.675653	0.000338	3.377943	0.572239	0.006756
 315	1.5700e-01	3.1367	-3.631180	0.000445	4.446913	0.753327	0.008895
 316	1.5750e-01	3.1470	-3.602529	0.000286	2.864838	0.485317	0.005730
 317	1.5800e-01	3.1569	-3.565326	0.000372	3.720014	0.630187	0.007441
 318	1.5850e-01	3.1659	-3.507596	0.000577	5.772435	0.977877	0.011546
 319	1.5900e-01	3.1781	-3.492629	0.000150	1.496557	0.253524	0.002993
 320	1.5950e-01	3.1885	-3.481511	0.000111	1.111728	0.188332	0.002224
 321	1.6000e-01	3.1958	-3.428058	0.000534	5.344847	0.905442	0.010691
 322	1.6050e-01	3.2045	-3.402400	0.000257	2.565527	0.434612	0.005132
 323	1.6100e-01	3.2161	-3.361348	0.000410	4.104842	0.695379	0.008210
 324	1.6150e-01	3.2278	-3.336119	0.000252	2.522768	0.427368	0.005046
 325	1.6200e-01	3.2376	-3.305757	0.000304	3.035873	0.514291	0.006072
 326	1.6250e-01	3.2477	-3.280100	0.000257	2.565527	0.434612	0.005132
 327	1.6300e-01	3.2545	-3.238620	0.000415	4.147601	0.702623	0.008296
 328	1.6350e-01	3.2655	-3.183029	0.000556	5.558641	0.941659	0.011118
 329	1.6400e-01	3.2791	-3.170628	0.000124	1.240005	0.210062	0.002480
 330	1.6450e-01	3.2867	-3.111615	0.000590	5.900711	0.999608	0.011802
 331	1.6500e-01	3.2961	-3.092800	0.000188	1.881386	0.318715	0.003763
 332	1.6550e-01	3.3069	-3.070991	0.000218	2.180698	0.369420	0.004362
 333	1.6600e-01	3.3179	-3.014972	0.000560	5.601400	0.948903	0.011204
 334	1.6650e-01	3.3249	-2.985466	0.000295	2.950356	0.499804	0.005901
 335	1.6700e-01	3.3383	-2.958098	0.000274	2.736562	0.463586	0.005474
 336	1.6750e-01	3.3459	-2.914908	0.000432	4.318636	0.731597	0.008638
 337	1.6800e-01	3.3557	-2.867441	0.000475	4.746224	0.804032	0.009493
 338	1.6850e-01	3.3681	-2.854185	0.000133	1.325522	0.224550	0.002651
 339	1.6900e-01	3.3777	-2.825534	0.000286	2.864838	0.485317	0.005730
 340	1.6950e-01	3.3853	-2.777640	0.000479	4.788983	0.811276	0.009579
 341	1.7000e-01	3.3963	-2.760107	0.000175	1.753110	0.296985	0.003507
 342	1.7050e-01	3.4058	-2.729746	0.000304	3.035873	0.514291	0.006072
 343	1.7100e-01	3.4189	-2.685273	0.000445	4.446913	0.753327	0.008895
 344	1.7150e-01	3.4241	-2.635668	0.000496	4.960018	0.840250	0.009921
 345	1.7200e-01	3.4363	-2.610011	0.000257	2.565527	0.434612	0.005132
 346	1.7250e-01	3.4488	-2.583498	0.000265	2.651044	0.449099	0.005303
 347	1.7300e-01	3.4576	-2.574946	0.000086	0.855176	0.144871	0.001711
 348	1.7350e-01	3.4680	-2.512085	0.000629	6.285540	1.064799	0.012572
 349	1.7400e-01	3.4756	-2.493269	0.000188	1.881386	0.318715	0.003763
 350	1.7450e-01	3.4862	-2.444520	0.000487	4.874500	0.825763	0.009750
 351	1.7500e-01	3.4964	-2.423566	0.000210	2.095180	0.354933	0.004191
 352	1.7550e-01	3.5063	-2.390639	0.000329	3.292426	0.557752	0.006585
 353	1.7600e-01	3.5165	-2.353863	0.000368	3.677255	0.622944	0.007355
 354	1.7650e-01	3.5284	-2.320509	0.000334	3.335185	0.564996	0.006671
 355	1.7700e-01	3.5376	-2.286299	0.000342	3.420702	0.579483	0.006842
 356	1.7750e-01	3.5468	-2.240970	0.000453	4.532430	0.767814	0.009066
 357	1.7800e-01	3.5571	-2.229852	0.000111	1.111728	0.188332	0.002224
 358	1.7850e-01	3.5675	-2.181103	0.000487	4.874500	0.825763	0.009750
 359	1.7900e-01	3.5750	-2.128505	0.000526	5.259329	0.890955	0.010520
 360	1.7950e-01	3.5849	-2.116104	0.000124	1.240005	0.210062	0.002480
 361	1.8000e-01	3.5959	-2.085315	0.000308	3.078632	0.521534	0.006158
 362	1.8050e-01	3.6079	-2.052815	0.000325	3.249667	0.550508	0.006500
 363	1.8100e-01	3.6179	-2.014756	0.000381	3.805531	0.644674	0.007612
 364	1.8150e-01	3.6276	-1.998507	0.000162	1.624833	0.275254	0.003250
 365	1.8200e-01	3.6377	-1.935646	0.000629	6.285540	1.064799	0.012572
 366	1.8250e-01	3.6456	-1.896732	0.000389	3.891049	0.659161	0.007783
 367	1.8300e-01	3.6588	-1.888179	0.000086	0.855176	0.144871	0.001711
 368	1.8350e-01	3.6676	-1.840285	0.000479	4.788983	0.811276	0.009579
 369	1.8400e-01	3.6763	-1.823180	0.000171	1.710351	0.289741	0.003421
 370	1.8450e-01	3.6847	-1.780418	0.000428	4.275878	0.724353	0.008553
 371	1.8500e-01	3.7000	-1.751339	0.000291	2.907597	0.492560	0.005816
 372	1.8550e-01	3.7049	-1.707722	0.000436	4.361395	0.738840	0.008724
 373	1.8600e-01	3.7186	-1.690189	0.000175	1.753110	0.296985	0.003507
 374	1.8650e-01	3.7260	-1.640584	0.000496	4.960018	0.840250	0.009921
 375	1.8700e-01	3.7354	-1.617493	0.000231	2.308974	0.391151	0.004618
 376	1.8750e-01	3.7476	-1.580717	0.000368	3.677255	0.622944	0.007355
 377	1.8800e-01	3.7531	-1.567033	0.000137	1.368281	0.231793	0.002737
 378	1.8850e-01	3.7628	-1.502461	0.000646	6.456575	1.093773	0.012914
 379	1.8900e-01	3.7766	-1.490060	0.000124	1.240005	0.210062	0.002480
 380	1.8950e-01	3.7878	-1.470390	0.000197	1.966904	0.333203	0.003934
 381	1.9000e-01	3.7984	-1.409239	0.000611	6.114505	1.035825	0.012230
 382	1.9050e-01	3.8055	-1.381016	0.000282	2.822079	0.478073	0.005645
 383	1.9100e-01	3.8177	-1.354075	0.000269	2.693803	0.456343	0.005388
 384	1.9150e-01	3.8251	-1.309175	0.000449	4.489671	0.760571	0.008980
 385	1.9200e-01	3.8344	-1.279669	0.000295	2.950356	0.499804	0.005901
 386	1.9250e-01	3.8474	-1.262136	0.000175	1.753110	0.296985	0.003507
 387	1.9300e-01	3.8574	-1.228354	0.000338	3.377943	0.572239	0.006756
 388	1.9350e-01	3.8678	-1.186446	0.000419	4.190360	0.709866	0.008381
 389	1.9400e-01	3.8766	-1.159934	0.000265	2.651044	0.449099	0.005303
 390	1.9450e-01	3.8828	-1.108619	0.000513	5.131053	0.869224	0.010263
 391	1.9500e-01	3.8966	-1.125724	-0.000171	-1.710351	-0.289741	-0.003421
 392	1.9550e-01	3.9044	-1.076119	0.000496	4.960018	0.840250	0.009921
 393	1.9600e-01	3.9174	-1.011975	0.000641	6.413816	1.086530	0.012829
 394	1.9650e-01	3.9262	-0.998719	0.000133	1.325522	0.224550	0.002651
 395	1.9700e-01	3.9371	-0.976910	0.000218	2.180698	0.369420	0.004362
 396	1.9750e-01	3.9478	-0.917470	0.000594	5.943470	1.006851	0.011888
 397	1.9800e-01	3.9578	-0.902931	0.000145	1.453798	0.246280	0.002908
 398	1.9850e-01	3.9671	-0.848195	0.000547	5.473123	0.927172	0.010947
 399	1.9900e-01	3.9764	-0.821254	0.000269	2.693803	0.456343	0.005388
 400	1.9950e-01	3.9853	-0.813129	0.000081	0.812417	0.137627	0.001625
 401	2.0000e-01	3.9966	-0.756683	0.000564	5.644158	0.956146	0.011289
 402	2.0050e-01	4.0082	-0.739150	0.000175	1.753110	0.296985	0.003507
 403	2.0100e-01	4.0179	-0.696388	0.000428	4.275878	0.724353	0.008553
 404	2.0150e-01	4.0295	-0.672868	0.000235	2.351733	0.398394	0.004704
 405	2.0200e-01	4.0367	-0.642935	0.000299	2.993114	0.507047	0.005987
 406	2.0250e-01	4.0474	-0.610863	0.000321	3.206908	0.543265	0.006414
 407	2.0300e-01	4.0573	-0.574942	0.000359	3.591737	0.608457	0.007184
 408	2.0350e-01	4.0662	-0.541587	0.000334	3.335185	0.564996	0.006671
 409	2.0400e-01	4.0771	-0.512937	0.000286	2.864838	0.485317	0.005730
 410	2.0450e-01	4.0869	-0.486424	0.000265	2.651044	0.449099	0.005303
 411	2.0500e-01	4.0967	-0.457345	0.000291	2.907597	0.492560	0.005816
 412	2.0550e-01	4.1052	-0.416721	0.000406	4.062084	0.688136	0.008125
 413	2.0600e-01	4.1162	-0.375669	0.000410	4.104842	0.695379	0.008210
 414	2.0650e-01	4.1245	-0.357709	0.000180	1.795869	0.304228	0.003592
 415	2.0700e-01	4.1360	-0.314518	0.000432	4.318636	0.731597	0.008638
 416	2.0750e-01	4.1470	-0.287578	0.000269	2.693803	0.456343	0.005388
 417	2.0800e-01	4.1571	-0.262348	0.000252	2.522768	0.427368	0.005046
 418	2.0850e-01	4.1708	-0.215737	0.000466	4.660707	0.789545	0.009322
 419	2.0900e-01	4.1766	-0.184948	0.000308	3.078632	0.521534	0.006158
 420	2.0950e-01	4.1864	-0.156297	0.000286	2.864838	0.485317	0.005730
 421	2.1000e-01	4.1969	-0.119949	0.000363	3.634496	0.615700	0.007270
 422	2.1050e-01	4.2059	-0.086594	0.000334	3.335185	0.564996	0.006671
 423	2.1100e-01	4.2146	-0.059654	0.000269	2.693803	0.456343	0.005388
 424	2.1150e-01	4.2262	-0.032286	0.000274	2.736562	0.463586	0.005474
 425	2.1200e-01	4.2352	0.009194	0.000415	4.147601	0.702623	0.008296
 426	2.1250e-01	4.2482	0.023306	0.000141	1.411040	0.239037	0.002822
 427	2.1300e-01	4.2543	0.048108	0.000248	2.480009	0.420125	0.004960
 428	2.1350e-01	4.2657	0.103699	0.000556	5.558641	0.941659	0.011118
 429	2.1400e-01	4.2761	0.130640	0.000269	2.693803	0.456343	0.005388
 430	2.1450e-01	4.2871	0.164850	0.000342	3.420702	0.579483	0.006842
 431	2.1500e-01	4.2950	0.207184	0.000423	4.233119	0.717110	0.008467
 432	2.1550e-01	4.3060	0.235408	0.000282	2.822079	0.478073	0.005645
 433	2.1600e-01	4.3158	0.253796	0.000184	1.838627	0.311472	0.003678
 434	2.1650e-01	4.3269	0.299979	0.000462	4.617948	0.782302	0.009237
 435	2.1700e-01	4.3375	0.317939	0.000180	1.795869	0.304228	0.003592
 436	2.1750e-01	4.3494	0.347446	0.000295	2.950356	0.499804	0.005901
 437	2.1800e-01	4.3564	0.393629	0.000462	4.617948	0.782302	0.009237
 438	2.1850e-01	4.3658	0.418431	0.000248	2.480009	0.420125	0.004960
 439	2.1900e-01	4.3756	0.437674	0.000192	1.924145	0.325959	0.003849
 440	2.1950e-01	4.3872	0.492838	0.000552	5.515882	0.934416	0.011033
 441	2.2000e-01	4.3982	0.515930	0.000231	2.308974	0.391151	0.004618
 442	2.2050e-01	4.4088	0.546719	0.000308	3.078632	0.521534	0.006158
 443	2.2100e-01	4.4177	0.565107	0.000184	1.838627	0.311472	0.003678
 444	2.2150e-01	4.4315	0.613856	0.000487	4.874500	0.825763	0.009750
 445	2.2200e-01	4.4357	0.641224	0.000274	2.736562	0.463586	0.005474
 446	2.2250e-01	4.4446	0.663461	0.000222	2.223456	0.376664	0.004447
 447	2.2300e-01	4.4550	0.693394	0.000299	2.993114	0.507047	0.005987
 448	2.2350e-01	4.4704	0.738723	0.000453	4.532430	0.767814	0.009066
 449	2.2400e-01	4.4775	0.770367	0.000316	3.164149	0.536021	0.006329
 450	2.2450e-01	4.4867	0.788327	0.000180	1.795869	0.304228	0.003592
 451	2.2500e-01	4.4983	0.819971	0.000316	3.164149	0.536021	0.006329
 452	2.2550e-01	4.5064	0.867438	0.000475	4.746224	0.804032	0.009493
 453	2.2600e-01	4.5149	0.888392	0.000210	2.095180	0.354933	0.004191
 454	2.2650e-01	4.5251	0.935003	0.000466	4.660707	0.789545	0.009322
 455	2.2700e-01	4.5346	0.951680	0.000167	1.667592	0.282498	0.003335
 456	2.2750e-01	4.5465	0.955956	0.000043	0.427588	0.072435	0.000855
 457	2.2800e-01	4.5538	1.011548	0.000556	5.558641	0.941659	0.011118
 458	2.2850e-01	4.5673	1.050034	0.000385	3.848290	0.651918	0.007697
 459	2.2900e-01	4.5766	1.084244	0.000342	3.420702	0.579483	0.006842
 460	2.2950e-01	4.5863	1.118454	0.000342	3.420702	0.579483	0.006842
 461	2.3000e-01	4.5975	1.138980	0.000205	2.052421	0.347690	0.004105
 462	2.3050e-01	4.6066	1.178749	0.000398	3.976566	0.673649	0.007954
 463	2.3100e-01	4.6167	1.207828	0.000291	2.907597	0.492560	0.005816
 464	2.3150e-01	4.6266	1.239044	0.000312	3.121391	0.528778	0.006243
 465	2.3200e-01	4.6371	1.273254	0.000342	3.420702	0.579483	0.006842
 466	2.3250e-01	4.6472	1.307037	0.000338	3.377943	0.572239	0.006756
 467	2.3300e-01	4.6564	1.333549	0.000265	2.651044	0.449099	0.005303
 468	2.3350e-01	4.6652	1.361345	0.000278	2.779320	0.470830	0.005559
 469	2.3400e-01	4.6750	1.392134	0.000308	3.078632	0.521534	0.006158
 470	2.3450e-01	4.6894	1.408811	0.000167	1.667592	0.282498	0.003335
 471	2.3500e-01	4.6973	1.448581	0.000398	3.976566	0.673649	0.007954
 472	2.3550e-01	4.7073	1.492198	0.000436	4.361395	0.738840	0.008724
 473	2.3600e-01	4.7186	1.514435	0.000222	2.223456	0.376664	0.004447
 474	2.3650e-01	4.7272	1.540520	0.000261	2.608285	0.441855	0.005217
 475	2.3700e-01	4.7374	1.575158	0.000346	3.463461	0.586726	0.006928
 476	2.3750e-01	4.7479	1.601670	0.000265	2.651044	0.449099	0.005303
 477	2.3800e-01	4.7589	1.638874	0.000372	3.720014	0.630187	0.007441
 478	2.3850e-01	4.7662	1.663249	0.000244	2.437250	0.412881	0.004875
 479	2.3900e-01	4.7760	1.725682	0.000624	6.242781	1.057556	0.012487
 480	2.3950e-01	4.7870	1.701307	-0.000244	-2.437250	-0.412881	-0.004875
 481	2.4000e-01	4.7961	1.769727	0.000684	6.841404	1.158965	0.013684
 482	2.4050e-01	4.8083	1.788115	0.000184	1.838627	0.311472	0.003678
 483	2.4100e-01	4.8157	1.829595	0.000415	4.147601	0.702623	0.008296
 484	2.4150e-01	4.8242	1.871074	0.000415	4.147601	0.702623	0.008296
 485	2.4200e-01	4.8364	1.885186	0.000141	1.411040	0.239037	0.002822
 486	2.4250e-01	4.8468	1.927949	0.000428	4.275878	0.724353	0.008553
 487	2.4300e-01	4.8560	1.944198	0.000162	1.624833	0.275254	0.003250
 488	2.4350e-01	4.8670	1.959165	0.000150	1.496557	0.253524	0.002993
 489	2.4400e-01	4.8773	2.008342	0.000492	4.917259	0.833006	0.009835
 490	2.4450e-01	4.8871	2.035710	0.000274	2.736562	0.463586	0.005474
 491	2.4500e-01	4.8987	2.068210	0.000325	3.249667	0.550508	0.006500
 492	2.4550e-01	4.9092	2.092584	0.000244	2.437250	0.412881	0.004875
 493	2.4600e-01	4.9179	2.146893	0.000543	5.430365	0.919929	0.010862
 494	2.4650e-01	4.9274	2.155018	0.000081	0.812417	0.137627	0.001625
 495	2.4700e-01	4.9368	2.169129	0.000141	1.411040	0.239037	0.002822
 496	2.4750e-01	4.9477	2.228141	0.000590	5.900711	0.999608	0.011802
 497	2.4800e-01	4.9574	2.248668	0.000205	2.052421	0.347690	0.004105
 498	2.4850e-01	4.9648	2.274325	0.000257	2.565527	0.434612	0.005132
 499	2.4900e-01	4.9786	2.315805	0.000415	4.147601	0.702623	0.008296
 500	2.4950e-01	4.9869	2.342317	0.000265	2.651044	0.449099	0.005303
 501	2.5000e-01	4.9969	2.385935	0.000436	4.361395	0.738840	0.008724
 502	2.5050e-01	5.0061	2.417579	0.000316	3.164149	0.536021	0.006329
 503	2.5100e-01	5.0171	2.450934	0.000334	3.335185	0.564996	0.006671
 504	2.5150e-01	5.0287	2.458204	0.000073	0.726899	0.123140	0.001454
 505	2.5200e-01	5.0372	2.490276	0.000321	3.206908	0.543265	0.006414
 506	2.5250e-01	5.0500	2.518071	0.000278	2.779320	0.470830	0.005559
 507	2.5300e-01	5.0586	2.538597	0.000205	2.052421	0.347690	0.004105
 508	2.5350e-01	5.0671	2.593333	0.000547	5.473123	0.927172	0.010947
 509	2.5400e-01	5.0745	2.631392	0.000381	3.805531	0.644674	0.007612
 510	2.5450e-01	5.0876	2.648070	0.000167	1.667592	0.282498	0.003335
 511	2.5500e-01	5.0977	2.671161	0.000231	2.308974	0.391151	0.004618
 512	2.5550e-01	5.1062	2.697246	0.000261	2.608285	0.441855	0.005217
 513	2.5600e-01	5.1178	2.748561	0.000513	5.131053	0.869224	0.010263
 514	2.5650e-01	5.1273	2.765666	0.000171	1.710351	0.289741	0.003421
 515	2.5700e-01	5.1351	2.818264	0.000526	5.259329	0.890955	0.010520
 516	2.5750e-01	5.1468	2.832376	0.000141	1.411040	0.239037	0.002822
 517	2.5800e-01	5.1544	2.852047	0.000197	1.966904	0.333203	0.003934
 518	2.5850e-01	5.1669	2.891816	0.000398	3.976566	0.673649	0.007954
 519	2.5900e-01	5.1779	2.906783	0.000150	1.496557	0.253524	0.002993
 520	2.5950e-01	5.1851	2.941848	0.000351	3.506220	0.593970	0.007013
 521	2.6000e-01	5.1997	2.978624	0.000368	3.677255	0.622944	0.007355
 522	2.6050e-01	5.2076	3.003854	0.000252	2.522768	0.427368	0.005046
 523	2.6100e-01	5.2209	3.022242	0.000184	1.838627	0.311472	0.003678
 524	2.6150e-01	5.2290	3.070563	0.000483	4.831742	0.818519	0.009664
 525	2.6200e-01	5.2376	3.109905	0.000393	3.933807	0.666405	0.007868
 526	2.6250e-01	5.2454	3.118457	0.000086	0.855176	0.144871	0.001711
 527	2.6300e-01	5.2582	3.164213	0.000458	4.575189	0.775058	0.009151
 528	2.6350e-01	5.2669	3.220660	0.000564	5.644158	0.956146	0.011289
 529	2.6400e-01	5.2771	3.221515	0.000009	0.085518	0.014487	0.000171
 530	2.6450e-01	5.2856	3.231778	0.000103	1.026211	0.173845	0.002053
 531	2.6500e-01	5.2963	3.278389	0.000466	4.660707	0.789545	0.009322
 532	2.6550e-01	5.3079	3.320724	0.000423	4.233119	0.717110	0.008467
 533	2.6600e-01	5.3174	3.342533	0.000218	2.180698	0.369420	0.004362
 534	2.6650e-01	5.3271	3.366908	0.000244	2.437250	0.412881	0.004875
 535	2.6700e-01	5.3369	3.388716	0.000218	2.180698	0.369420	0.004362
 536	2.6750e-01	5.3464	3.427203	0.000385	3.848290	0.651918	0.007697
 537	2.6800e-01	5.3564	3.464834	0.000376	3.762772	0.637431	0.007526
 538	2.6850e-01	5.3680	3.502037	0.000372	3.720014	0.630187	0.007441
 539	2.6900e-01	5.3754	3.529405	0.000274	2.736562	0.463586	0.005474
 540	2.6950e-01	5.3853	3.544800	0.000154	1.539316	0.260767	0.003079
 541	2.7000e-01	5.3955	3.585424	0.000406	4.062084	0.688136	0.008125
 542	2.7050e-01	5.4065	3.596970	0.000115	1.154487	0.195575	0.002309
 543	2.7100e-01	5.4150	3.657693	0.000607	6.071746	1.028582	0.012145
 544	2.7150e-01	5.4263	3.661114	0.000034	0.342070	0.057948	0.000684
 545	2.7200e-01	5.4376	3.691903	0.000308	3.078632	0.521534	0.006158
 546	2.7250e-01	5.4456	3.738514	0.000466	4.660707	0.789545	0.009322
 547	2.7300e-01	5.4578	3.746211	0.000077	0.769658	0.130384	0.001539
 548	2.7350e-01	5.4675	3.767165	0.000210	2.095180	0.354933	0.004191
 549	2.7400e-01	5.4767	3.827888	0.000607	6.071746	1.028582	0.012145
 550	2.7450e-01	5.4855	3.844137	0.000162	1.624833	0.275254	0.003250
 551	2.7500e-01	5.4999	3.857821	0.000137	1.368281	0.231793	0.002737
 552	2.7550e-01	5.5070	3.894597	0.000368	3.677255	0.622944	0.007355
 553	2.7600e-01	5.5186	3.945912	0.000513	5.131053	0.869224	0.010263
 554	2.7650e-01	5.5276	3.971570	0.000257	2.565527	0.434612	0.005132
 555	2.7700e-01	5.5402	3.985254	0.000137	1.368281	0.231793	0.002737
 556	2.7750e-01	5.5446	4.021602	0.000363	3.634496	0.615700	0.007270
 557	2.7800e-01	5.5560	4.049825	0.000282	2.822079	0.478073	0.005645
 558	2.7850e-01	5.5673	4.080614	0.000308	3.078632	0.521534	0.006158
 559	2.7900e-01	5.5780	4.098574	0.000180	1.795869	0.304228	0.003592
 560	2.7950e-01	5.5872	4.130219	0.000316	3.164149	0.536021	0.006329
 561	2.8000e-01	5.5971	4.157587	0.000274	2.736562	0.463586	0.005474
 562	2.8050e-01	5.6051	4.201632	0.000440	4.404154	0.746084	0.008809
 563	2.8100e-01	5.6171	4.252520	0.000509	5.088294	0.861980	0.010177
 564	2.8150e-01	5.6250	4.246533	-0.000060	-0.598623	-0.101409	-0.001197
 565	2.8200e-01	5.6345	4.285447	0.000389	3.891049	0.659161	0.007783
 566	2.8250e-01	5.6470	4.317519	0.000321	3.206908	0.543265	0.006414
 567	2.8300e-01	5.6540	4.334624	0.000171	1.710351	0.289741	0.003421
 568	2.8350e-01	5.6671	4.358571	0.000239	2.394491	0.405638	0.004789
 569	2.8400e-01	5.6775	4.386794	0.000282	2.822079	0.478073	0.005645
 570	2.8450e-01	5.6854	4.416300	0.000295	2.950356	0.499804	0.005901
 571	2.8500e-01	5.6955	4.464194	0.000479	4.788983	0.811276	0.009579
 572	2.8550e-01	5.7092	4.484720	0.000205	2.052421	0.347690	0.004105
 573	2.8600e-01	5.7166	4.523634	0.000389	3.891049	0.659161	0.007783
 574	2.8650e-01	5.7275	4.546298	0.000227	2.266215	0.383907	0.004533
 575	2.8700e-01	5.7388	4.577942	0.000316	3.164149	0.536021	0.006329
 576	2.8750e-01	5.7462	4.593765	0.000158	1.582075	0.268011	0.003164
 577	2.8800e-01	5.7571	4.642941	0.000492	4.917259	0.833006	0.009835
 578	2.8850e-01	5.7697	4.648928	0.000060	0.598623	0.101409	0.001197
 579	2.8900e-01	5.7773	4.701098	0.000522	5.216571	0.883711	0.010434
 580	2.8950e-01	5.7910	4.735308	0.000342	3.420702	0.579483	0.006842
 581	2.9000e-01	5.7983	4.751986	0.000167	1.667592	0.282498	0.003335
 582	2.9050e-01	5.8057	4.771657	0.000197	1.966904	0.333203	0.003934
 583	2.9100e-01	5.8149	4.806722	0.000351	3.506220	0.593970	0.007013
 584	2.9150e-01	5.8243	4.826820	0.000201	2.009662	0.340446	0.004020
 585	2.9200e-01	5.8376	4.866162	0.000393	3.933807	0.666405	0.007868
 586	2.9250e-01	5.8466	4.905076	0.000389	3.891049	0.659161	0.007783
 587	2.9300e-01	5.8600	4.913628	0.000086	0.855176	0.144871	0.001711
 588	2.9350e-01	5.8698	4.958529	0.000449	4.489671	0.760571	0.008980
 589	2.9400e-01	5.8771	4.978627	0.000201	2.009662	0.340446	0.004020
 590	2.9450e-01	5.8859	5.003430	0.000248	2.480009	0.420125	0.004960
 591	2.9500e-01	5.8954	5.025666	0.000222	2.223456	0.376664	0.004447
 592	2.9550e-01	5.9073	5.068856	0.000432	4.318636	0.731597	0.008638
 593	2.9600e-01	5.9174	5.096224	0.000274	2.736562	0.463586	0.005474
 594	2.9650e-01	5.9268	5.127013	0.000308	3.078632	0.521534	0.006158
 595	2.9700e-01	5.9369	5.158658	0.000316	3.164149	0.536021	0.006329
 596	2.9750e-01	5.9467	5.190729	0.000321	3.206908	0.543265	0.006414
 597	2.9800e-01	5.9576	5.244183	0.000534	5.344847	0.905442	0.010691
 598	2.9850e-01	5.9645	5.255301	0.000111	1.111728	0.188332	0.002224
 599	2.9900e-01	5.9747	5.280103	0.000248	2.480009	0.420125	0.004960
 600	2.9950e-01	5.9888	5.304905	0.000248	2.480009	0.420125	0.004960
 601	3.0000e-01	5.9967	5.326714	0.000218	2.180698	0.369420	0.004362
 602	3.0050e-01	6.0059	5.357076	0.000304	3.035873	0.514291	0.006072
 603	3.0100e-01	6.0188	5.404970	0.000479	4.788983	0.811276	0.009579
 604	3.0150e-01	6.0272	5.408818	0.000038	0.384829	0.065192	0.000770
 605	3.0200e-01	6.0376	5.452436	0.000436	4.361395	0.738840	0.008724
 606	3.0250e-01	6.0475	5.481087	0.000286	2.864838	0.485317	0.005730
 607	3.0300e-01	6.0574	5.491350	0.000103	1.026211	0.173845	0.002053
 608	3.0350e-01	6.0669	5.527698	0.000363	3.634496	0.615700	0.007270
 609	3.0400e-01	6.0742	5.567040	0.000393	3.933807	0.666405	0.007868
 610	3.0450e-01	6.0852	5.577730	0.000107	1.068969	0.181088	0.002138
 611	3.0500e-01	6.0965	5.604671	0.000269	2.693803	0.456343	0.005388
 612	3.0550e-01	6.1060	5.642302	0.000376	3.762772	0.637431	0.007526
 613	3.0600e-01	6.1169	5.669242	0.000269	2.693803	0.456343	0.005388
 614	3.0650e-01	6.1302	5.688913	0.000197	1.966904	0.333203	0.003934
 615	3.0700e-01	6.1346	5.729537	0.000406	4.062084	0.688136	0.008125
 616	3.0750e-01	6.1487	5.744504	0.000150	1.496557	0.253524	0.002993
 617	3.0800e-01	6.1569	5.796247	0.000517	5.173812	0.876467	0.010349
 618	3.0850e-01	6.1691	5.823615	0.000274	2.736562	0.463586	0.005474
 619	3.0900e-01	6.1768	5.862529	0.000389	3.891049	0.659161	0.007783
 620	3.0950e-01	6.1871	5.881772	0.000192	1.924145	0.325959	0.003849
 621	3.1000e-01	6.1947	5.898022	0.000162	1.624833	0.275254	0.003250
 622	3.1050e-01	6.2048	5.929666	0.000316	3.164149	0.536021	0.006329
 623	3.1100e-01	6.2170	5.946771	0.000171	1.710351	0.289741	0.003421
 624	3.1150e-01	6.2268	5.969435	0.000227	2.266215	0.383907	0.004533
 625	3.1200e-01	6.2372	6.030158	0.000607	6.071746	1.028582	0.012145
 626	3.1250e-01	6.2473	6.036145	0.000060	0.598623	0.101409	0.001197
 627	3.1300e-01	6.2575	6.072920	0.000368	3.677255	0.622944	0.007355
 628	3.1350e-01	6.2653	6.115683	0.000428	4.275878	0.724353	0.008553
 629	3.1400e-01	6.2775	6.130222	0.000145	1.453798	0.246280	0.002908
 630	3.1450e-01	6.2872	6.127656	-0.000026	-0.256553	-0.043461	-0.000513
 631	3.1500e-01	6.2973	6.155024	0.000274	2.736562	0.463586	0.005474
 632	3.1550e-01	6.3074	6.173840	0.000188	1.881386	0.318715	0.003763
 633	3.1600e-01	6.3184	6.240549	0.000667	6.670369	1.129991	0.013342
 634	3.1650e-01	6.3281	6.269628	0.000291	2.907597	0.492560	0.005816
 635	3.1700e-01	6.3379	6.299562	0.000299	2.993114	0.507047	0.005987
 636	3.1750e-01	6.3452	6.308114	0.000086	0.855176	0.144871	0.001711
 637	3.1800e-01	6.3562	6.358574	0.000505	5.045536	0.854737	0.010092
 638	3.1850e-01	6.3660	6.370548	0.000120	1.197246	0.202819	0.002395
 639	3.1900e-01	6.3751	6.422718	0.000522	5.216571	0.883711	0.010434
 640	3.1950e-01	6.3867	6.443671	0.000210	2.095180	0.354933	0.004191
 641	3.2000e-01	6.3995	6.453507	0.000098	0.983452	0.166601	0.001967
 642	3.2050e-01	6.4063	6.501401	0.000479	4.788983	0.811276	0.009579
 643	3.2100e-01	6.4163	6.514230	0.000128	1.282763	0.217306	0.002566
 644	3.2150e-01	6.4276	6.539887	0.000257	2.565527	0.434612	0.005132
 645	3.2200e-01	6.4355	6.577946	0.000381	3.805531	0.644674	0.007612
 646	3.2250e-01	6.4479	6.578801	0.000009	0.085518	0.014487	0.000171
 647	3.2300e-01	6.4575	6.632682	0.000539	5.387606	0.912685	0.010776
 648	3.2350e-01	6.4661	6.646366	0.000137	1.368281	0.231793	0.002737
 649	3.2400e-01	6.4764	6.703240	0.000569	5.686917	0.963390	0.011375
 650	3.2450e-01	6.4880	6.716496	0.000133	1.325522	0.224550	0.002651
 651	3.2500e-01	6.4966	6.737450	0.000210	2.095180	0.354933	0.004191
 652	3.2550e-01	6.5063	6.775081	0.000376	3.762772	0.637431	0.007526
 653	3.2600e-01	6.5167	6.794752	0.000197	1.966904	0.333203	0.003934
 654	3.2650e-01	6.5259	6.822120	0.000274	2.736562	0.463586	0.005474
 655	3.2700e-01	6.5399	6.867876	0.000458	4.575189	0.775058	0.009151
 656	3.2750e-01	6.5472	6.879422	0.000115	1.154487	0.195575	0.002309
 657	3.2800e-01	6.5582	6.934158	0.000547	5.473123	0.927172	0.010947
 658	3.2850e-01	6.5656	6.941000	0.000068	0.684140	0.115897	0.001368
 659	3.2900e-01	6.5771	6.977348	0.000363	3.634496	0.615700	0.007270
 660	3.2950e-01	6.5851	6.977775	0.000004	0.042759	0.007244	0.000086
 661	3.3000e-01	6.5985	7.011985	0.000342	3.420702	0.579483	0.006842
 662	3.3050e-01	6.6080	7.071425	0.000594	5.943470	1.006851	0.011888
 663	3.3100e-01	6.6165	7.081261	0.000098	0.983452	0.166601	0.001967
 664	3.3150e-01	6.6266	7.088958	0.000077	0.769658	0.130384	0.001539
 665	3.3200e-01	6.6395	7.122740	0.000338	3.377943	0.572239	0.006756
 666	3.3250e-01	6.6467	7.153102	0.000304	3.035873	0.514291	0.006072
 667	3.3300e-01	6.6577	7.196720	0.000436	4.361395	0.738840	0.008724
 668	3.3350e-01	6.6664	7.222805	0.000261	2.608285	0.441855	0.005217
 669	3.3400e-01	6.6797	7.245041	0.000222	2.223456	0.376664	0.004447
 670	3.3450e-01	6.6858	7.265995	0.000210	2.095180	0.354933	0.004191
 671	3.3500e-01	6.6989	7.306192	0.000402	4.019325	0.680892	0.008039
 672	3.3550e-01	6.7084	7.333132	0.000269	2.693803	0.456343	0.005388
 673	3.3600e-01	6.7157	7.348954	0.000158	1.582075	0.268011	0.003164
 674	3.3650e-01	6.7267	7.385730	0.000368	3.677255	0.622944	0.007355
 675	3.3700e-01	6.7377	7.403690	0.000180	1.795869	0.304228	0.003592
 676	3.3750e-01	6.7451	7.437900	0.000342	3.420702	0.579483	0.006842
 677	3.3800e-01	6.7560	7.465696	0.000278	2.779320	0.470830	0.005559
 678	3.3850e-01	6.7679	7.486222	0.000205	2.052421	0.347690	0.004105
 679	3.3900e-01	6.7773	7.522570	0.000363	3.634496	0.615700	0.007270
 680	3.3950e-01	6.7871	7.547800	0.000252	2.522768	0.427368	0.005046
 681	3.4000e-01	6.7989	7.569181	0.000214	2.137939	0.362177	0.004276
 682	3.4050e-01	6.8066	7.604674	0.000355	3.548978	0.601213	0.007099
 683	3.4100e-01	6.8170	7.630759	0.000261	2.608285	0.441855	0.005217
 684	3.4150e-01	6.8268	7.656844	0.000261	2.608285	0.441855	0.005217
 685	3.4200e-01	6.8378	7.683785	0.000269	2.693803	0.456343	0.005388
 686	3.4250e-01	6.8469	7.725264	0.000415	4.147601	0.702623	0.008296
 687	3.4300e-01	6.8561	7.738093	0.000128	1.282763	0.217306	0.002566
 688	3.4350e-01	6.8669	7.770165	0.000321	3.206908	0.543265	0.006414
 689	3.4400e-01	6.8781	7.794540	0.000244	2.437250	0.412881	0.004875
 690	3.4450e-01	6.8855	7.807368	0.000128	1.282763	0.217306	0.002566
 691	3.4500e-01	6.8982	7.856973	0.000496	4.960018	0.840250	0.009921
 692	3.4550e-01	6.9073	7.868946	0.000120	1.197246	0.202819	0.002395
 693	3.4600e-01	6.9171	7.900591	0.000316	3.164149	0.536021	0.006329
 694	3.4650e-01	6.9275	7.930097	0.000295	2.950356	0.499804	0.005901
 695	3.4700e-01	6.9360	7.935228	0.000051	0.513105	0.086922	0.001026
 696	3.4750e-01	6.9485	7.984833	0.000496	4.960018	0.840250	0.009921
 697	3.4800e-01	6.9574	8.009635	0.000248	2.480009	0.420125	0.004960
 698	3.4850e-01	6.9672	8.025457	0.000158	1.582075	0.268011	0.003164
 699	3.4900e-01	6.9765	8.071213	0.000458	4.575189	0.775058	0.009151
 700	3.4950e-01	6.9861	8.076772	0.000056	0.555864	0.094166	0.001112
 701	3.5000e-01	6.9971	8.135357	0.000586	5.857952	0.992364	0.011717
 702	3.5050e-01	7.0078	8.132364	-0.000030	-0.299311	-0.050705	-0.000599
 703	3.5100e-01	7.0166	8.172988	0.000406	4.062084	0.688136	0.008125
 704	3.5150e-01	7.0276	8.194797	0.000218	2.180698	0.369420	0.004362
 705	3.5200e-01	7.0319	8.234566	0.000398	3.976566	0.673649	0.007954
 706	3.5250e-01	7.0483	8.254664	0.000201	2.009662	0.340446	0.004020
 707	3.5300e-01	7.0572	8.270914	0.000162	1.624833	0.275254	0.003250
 708	3.5350e-01	7.0670	8.314960	0.000440	4.404154	0.746084	0.008809
 709	3.5400e-01	7.0764	8.330782	0.000158	1.582075	0.268011	0.003164
 710	3.5450e-01	7.0856	8.357722	0.000269	2.693803	0.456343	0.005388
 711	3.5500e-01	7.0990	8.395781	0.000381	3.805531	0.644674	0.007612
 712	3.5550e-01	7.1060	8.419300	0.000235	2.351733	0.398394	0.004704
 713	3.5600e-01	7.1167	8.458642	0.000393	3.933807	0.666405	0.007868
 714	3.5650e-01	7.1277	8.485582	0.000269	2.693803	0.456343	0.005388
 715	3.5700e-01	7.1384	8.500977	0.000154	1.539316	0.260767	0.003079
 716	3.5750e-01	7.1460	8.535187	0.000342	3.420702	0.579483	0.006842
 717	3.5800e-01	7.1594	8.548443	0.000133	1.325522	0.224550	0.002651
 718	3.5850e-01	7.1680	8.608738	0.000603	6.028987	1.021338	0.012059
 719	3.5900e-01	7.1771	8.613442	0.000047	0.470347	0.079679	0.000941
 720	3.5950e-01	7.1875	8.626271	0.000128	1.282763	0.217306	0.002566
 721	3.6000e-01	7.1979	8.681435	0.000552	5.515882	0.934416	0.011033
 722	3.6050e-01	7.2058	8.681862	0.000004	0.042759	0.007244	0.000086
 723	3.6100e-01	7.2174	8.731039	0.000492	4.917259	0.833006	0.009835
 724	3.6150e-01	7.2260	8.741302	0.000103	1.026211	0.173845	0.002053
 725	3.6200e-01	7.2357	8.799887	0.000586	5.857952	0.992364	0.011717
 726	3.6250e-01	7.2491	8.791334	-0.000086	-0.855176	-0.144871	-0.001711
 727	3.6300e-01	7.2574	8.834952	0.000436	4.361395	0.738840	0.008724
 728	3.6350e-01	7.2693	8.844787	0.000098	0.983452	0.166601	0.001967
 729	3.6400e-01	7.2778	8.880280	0.000355	3.548978	0.601213	0.007099
 730	3.6450e-01	7.2879	8.894820	0.000145	1.453798	0.246280	0.002908
 731	3.6500e-01	7.2968	8.933306	0.000385	3.848290	0.651918	0.007697
 732	3.6550e-01	7.3055	8.960674	0.000274	2.736562	0.463586	0.005474
 733	3.6600e-01	7.3175	8.976924	0.000162	1.624833	0.275254	0.003250
 734	3.6650e-01	7.3267	9.027811	0.000509	5.088294	0.861980	0.010177
 735	3.6700e-01	7.3383	9.042778	0.000150	1.496557	0.253524	0.002993
 736	3.6750e-01	7.3480	9.068863	0.000261	2.608285	0.441855	0.005217
 737	3.6800e-01	7.3566	9.095803	0.000269	2.693803	0.456343	0.005388
 738	3.6850e-01	7.3676	9.110770	0.000150	1.496557	0.253524	0.002993
 739	3.6900e-01	7.3785	9.148401	0.000376	3.762772	0.637431	0.007526
 740	3.6950e-01	7.3871	9.178763	0.000304	3.035873	0.514291	0.006072
 741	3.7000e-01	7.3975	9.196295	0.000175	1.753110	0.296985	0.003507
 742	3.7050e-01	7.4072	9.227512	0.000312	3.121391	0.528778	0.006243
 743	3.7100e-01	7.4182	9.233499	0.000060	0.598623	0.101409	0.001197
 744	3.7150e-01	7.4292	9.274978	0.000415	4.147601	0.702623	0.008296
 745	3.7200e-01	7.4347	9.336129	0.000611	6.114505	1.035825	0.012230
 746	3.7250e-01	7.4463	9.330997	-0.000051	-0.513105	-0.086922	-0.001026
 747	3.7300e-01	7.4570	9.364780	0.000338	3.377943	0.572239	0.006756
 748	3.7350e-01	7.4653	9.385733	0.000210	2.095180	0.354933	0.004191
 749	3.7400e-01	7.4762	9.408397	0.000227	2.266215	0.383907	0.004533
 750	3.7450e-01	7.4847	9.440897	0.000325	3.249667	0.550508	0.006500
 751	3.7500e-01	7.4954	9.468693	0.000278	2.779320	0.470830	0.005559
 752	3.7550e-01	7.5061	9.503330	0.000346	3.463461	0.586726	0.006928
 753	3.7600e-01	7.5168	9.530271	0.000269	2.693803	0.456343	0.005388
 754	3.7650e-01	7.5256	9.540106	0.000098	0.983452	0.166601	0.001967
 755	3.7700e-01	7.5372	9.569185	0.000291	2.907597	0.492560	0.005816
 756	3.7750e-01	7.5464	9.605960	0.000368	3.677255	0.622944	0.007355
 757	3.7800e-01	7.5562	9.636322	0.000304	3.035873	0.514291	0.006072
 758	3.7850e-01	7.5684	9.611947	-0.000244	-2.437250	-0.412881	-0.004875
 759	3.7900e-01	7.5751	9.681650	0.000697	6.969680	1.180696	0.013941
 760	3.7950e-01	7.5891	9.696617	0.000150	1.496557	0.253524	0.002993
 761	3.8000e-01	7.5970	9.709018	0.000124	1.240005	0.210062	0.002480
 762	3.8050e-01	7.6059	9.759050	0.000500	5.002777	0.847493	0.010006
 763	3.8100e-01	7.6172	9.799247	0.000402	4.019325	0.680892	0.008039
 764	3.8150e-01	7.6239	9.809082	0.000098	0.983452	0.166601	0.001967
 765	3.8200e-01	7.6385	9.820628	0.000115	1.154487	0.195575	0.002309
 766	3.8250e-01	7.6477	9.860825	0.000402	4.019325	0.680892	0.008039
 767	3.8300e-01	7.6556	9.889048	0.000282	2.822079	0.478073	0.005645
 768	3.8350e-01	7.6662	9.927535	0.000385	3.848290	0.651918	0.007697
 769	3.8400e-01	7.6770	9.937370	0.000098	0.983452	0.166601	0.001967
 770	3.8450e-01	7.6837	9.959606	0.000222	2.223456	0.376664	0.004447
 771	3.8500e-01	7.6965	10.003652	0.000440	4.404154	0.746084	0.008809
 772	3.8550e-01	7.7078	10.031875	0.000282	2.822079	0.478073	0.005645
 773	3.8600e-01	7.7145	10.056677	0.000248	2.480009	0.420125	0.004960
 774	3.8650e-01	7.7261	10.072072	0.000154	1.539316	0.260767	0.003079
 775	3.8700e-01	7.7371	10.099868	0.000278	2.779320	0.470830	0.005559
 776	3.8750e-01	7.7460	10.121249	0.000214	2.137939	0.362177	0.004276
 777	3.8800e-01	7.7582	10.154604	0.000334	3.335185	0.564996	0.006671
 778	3.8850e-01	7.7655	10.190096	0.000355	3.548978	0.601213	0.007099
 779	3.8900e-01	7.7759	10.204636	0.000145	1.453798	0.246280	0.002908
 780	3.8950e-01	7.7887	10.208484	0.000038	0.384829	0.065192	0.000770
 781	3.9000e-01	7.7956	10.276477	0.000680	6.798645	1.151722	0.013598
 782	3.9050e-01	7.8082	10.291444	0.000150	1.496557	0.253524	0.002993
 783	3.9100e-01	7.8131	10.311970	0.000205	2.052421	0.347690	0.004105
 784	3.9150e-01	7.8278	10.341903	0.000299	2.993114	0.507047	0.005987
 785	3.9200e-01	7.8369	10.376969	0.000351	3.506220	0.593970	0.007013
 786	3.9250e-01	7.8448	10.399205	0.000222	2.223456	0.376664	0.004447
 787	3.9300e-01	7.8552	10.426573	0.000274	2.736562	0.463586	0.005474
 788	3.9350e-01	7.8650	10.451803	0.000252	2.522768	0.427368	0.005046
 789	3.9400e-01	7.8754	10.462066	0.000103	1.026211	0.173845	0.002053
 790	3.9450e-01	7.8876	10.486441	0.000244	2.437250	0.412881	0.004875
 791	3.9500e-01	7.8986	10.517657	0.000312	3.121391	0.528778	0.006243
 792	3.9550e-01	7.9077	10.553150	0.000355	3.548978	0.601213	0.007099
 793	3.9600e-01	7.9156	10.579235	0.000261	2.608285	0.441855	0.005217
 794	3.9650e-01	7.9272	10.590354	0.000111	1.111728	0.188332	0.002224
 795	3.9700e-01	7.9358	10.623709	0.000334	3.335185	0.564996	0.006671
 796	3.9750e-01	7.9456	10.654070	0.000304	3.035873	0.514291	0.006072
 797	3.9800e-01	7.9584	10.657063	0.000030	0.299311	0.050705	0.000599
 798	3.9850e-01	7.9636	10.697688	0.000406	4.062084	0.688136	0.008125
 799	3.9900e-01	7.9761	10.728049	0.000304	3.035873	0.514291	0.006072
 800	3.9950e-01	7.9837	10.752424	0.000244	2.437250	0.412881	0.004875
 801	4.0000e-01	7.9938	10.775943	0.000235	2.351733	0.398394	0.004704
 802	4.0050e-01	8.0075	10.796469	0.000205	2.052421	0.347690	0.004105
 803	4.0100e-01	8.0151	10.844363	0.000479	4.788983	0.811276	0.009579
 804	4.0150e-01	8.0280	10.876007	0.000316	3.164149	0.536021	0.006329
 805	4.0200e-01	8.0374	10.887981	0.000120	1.197246	0.202819	0.002395
 806	4.0250e-01	8.0490	10.908935	0.000210	2.095180	0.354933	0.004191
 807	4.0300e-01	8.0563	10.927750	0.000188	1.881386	0.318715	0.003763
 808	4.0350e-01	8.0707	10.961105	0.000334	3.335185	0.564996	0.006671
 809	4.0400e-01	8.0801	11.005578	0.000445	4.446913	0.753327	0.008895
 810	4.0450e-01	8.0841	11.020972	0.000154	1.539316	0.260767	0.003079
 811	4.0500e-01	8.0969	11.032518	0.000115	1.154487	0.195575	0.002309
 812	4.0550e-01	8.1067	11.051334	0.000188	1.881386	0.318715	0.003763
 813	4.0600e-01	8.1140	11.073570	0.000222	2.223456	0.376664	0.004447
 814	4.0650e-01	8.1274	11.120181	0.000466	4.660707	0.789545	0.009322
 815	4.0700e-01	8.1354	11.158240	0.000381	3.805531	0.644674	0.007612
 816	4.0750e-01	8.1470	11.162516	0.000043	0.427588	0.072435	0.000855
 817	4.0800e-01	8.1564	11.195444	0.000329	3.292426	0.557752	0.006585
 818	4.0850e-01	8.1647	11.236496	0.000410	4.104842	0.695379	0.008210
 819	4.0900e-01	8.1775	11.248041	0.000115	1.154487	0.195575	0.002309
 820	4.0950e-01	8.1848	11.274982	0.000269	2.693803	0.456343	0.005388
 821	4.1000e-01	8.1970	11.268140	-0.000068	-0.684140	-0.115897	-0.001368
 822	4.1050e-01	8.2080	11.333139	0.000650	6.499334	1.101017	0.013000
 823	4.1100e-01	8.2166	11.353665	0.000205	2.052421	0.347690	0.004105
 824	4.1150e-01	8.2275	11.386592	0.000329	3.292426	0.557752	0.006585
 825	4.1200e-01	8.2352	11.400704	0.000141	1.411040	0.239037	0.002822
 826	4.1250e-01	8.2472	11.429782	0.000291	2.907597	0.492560	0.005816
 827	4.1300e-01	8.2611	11.462709	0.000329	3.292426	0.557752	0.006585
 828	4.1350e-01	8.2666	11.489222	0.000265	2.651044	0.449099	0.005303
 829	4.1400e-01	8.2794	11.522149	0.000329	3.292426	0.557752	0.006585
 830	4.1450e-01	8.2886	11.543530	0.000214	2.137939	0.362177	0.004276
 831	4.1500e-01	8.2959	11.567477	0.000239	2.394491	0.405638	0.004789
 832	4.1550e-01	8.3049	11.592280	0.000248	2.480009	0.420125	0.004960
 833	4.1600e-01	8.3185	11.590569	-0.000017	-0.171035	-0.028974	-0.000342
 834	4.1650e-01	8.3264	11.654713	0.000641	6.413816	1.086530	0.012829
 835	4.1700e-01	8.3356	11.670108	0.000154	1.539316	0.260767	0.003079
 836	4.1750e-01	8.3472	11.694910	0.000248	2.480009	0.420125	0.004960
 837	4.1800e-01	8.3582	11.720140	0.000252	2.522768	0.427368	0.005046
 838	4.1850e-01	8.3670	11.730403	0.000103	1.026211	0.173845	0.002053
 839	4.1900e-01	8.3777	11.759481	0.000291	2.907597	0.492560	0.005816
 840	4.1950e-01	8.3887	11.805237	0.000458	4.575189	0.775058	0.009151
 841	4.2000e-01	8.3963	11.813790	0.000086	0.855176	0.144871	0.001711
 842	4.2050e-01	8.4076	11.864677	0.000509	5.088294	0.861980	0.010177
 843	4.2100e-01	8.4167	11.868098	0.000034	0.342070	0.057948	0.000684
 844	4.2150e-01	8.4271	11.897604	0.000295	2.950356	0.499804	0.005901
 845	4.2200e-01	8.4393	11.910861	0.000133	1.325522	0.224550	0.002651
 846	4.2250e-01	8.4456	11.947636	0.000368	3.677255	0.622944	0.007355
 847	4.2300e-01	8.4558	11.978853	0.000312	3.121391	0.528778	0.006243
 848	4.2350e-01	8.4680	11.999379	0.000205	2.052421	0.347690	0.004105
 849	4.2400e-01	8.4772	12.023754	0.000244	2.437250	0.412881	0.004875
 850	4.2450e-01	8.4888	12.066944	0.000432	4.318636	0.731597	0.008638
 851	4.2500e-01	8.4955	12.074641	0.000077	0.769658	0.130384	0.001539
 852	4.2550e-01	8.5059	12.118259	0.000436	4.361395	0.738840	0.008724
 853	4.2600e-01	8.5175	12.118259	0.000000	0.000000	0.000000	0.000000
 854	4.2650e-01	8.5266	12.156745	0.000385	3.848290	0.651918	0.007697
 855	4.2700e-01	8.5364	12.188389	0.000316	3.164149	0.536021	0.006329
 856	4.2750e-01	8.5461	12.212764	0.000244	2.437250	0.412881	0.004875
 857	4.2800e-01	8.5565	12.231152	0.000184	1.838627	0.311472	0.003678
 858	4.2850e-01	8.5657	12.248685	0.000175	1.753110	0.296985	0.003507
 859	4.2900e-01	8.5773	12.266645	0.000180	1.795869	0.304228	0.003592
 860	4.2950e-01	8.5858	12.332071	0.000654	6.542093	1.108261	0.013085
 861	4.3000e-01	8.5968	12.335492	0.000034	0.342070	0.057948	0.000684
 862	4.3050e-01	8.6084	12.356446	0.000210	2.095180	0.354933	0.004191
 863	4.3100e-01	8.6194	12.377827	0.000214	2.137939	0.362177	0.004276
 864	4.3150e-01	8.6276	12.416314	0.000385	3.848290	0.651918	0.007697
 865	4.3200e-01	8.6377	12.454372	0.000381	3.805531	0.644674	0.007612
 866	4.3250e-01	8.6487	12.460359	0.000060	0.598623	0.101409	0.001197
 867	4.3300e-01	8.6566	12.487299	0.000269	2.693803	0.456343	0.005388
 868	4.3350e-01	8.6682	12.519799	0.000325	3.249667	0.550508	0.006500
 869	4.3400e-01	8.6804	12.550588	0.000308	3.078632	0.521534	0.006158
 870	4.3450e-01	8.6871	12.551016	0.000004	0.042759	0.007244	0.000086
 871	4.3500e-01	8.6957	12.594206	0.000432	4.318636	0.731597	0.008638
 872	4.3550e-01	8.7094	12.634403	0.000402	4.019325	0.680892	0.008039
 873	4.3600e-01	8.7180	12.628843	-0.000056	-0.555864	-0.094166	-0.001112
 874	4.3650e-01	8.7277	12.675455	0.000466	4.660707	0.789545	0.009322
 875	4.3700e-01	8.7360	12.712230	0.000368	3.677255	0.622944	0.007355
 876	4.3750e-01	8.7457	12.714368	0.000021	0.213794	0.036218	0.000428
 877	4.3800e-01	8.7573	12.749006	0.000346	3.463461	0.586726	0.006928
 878	4.3850e-01	8.7659	12.785354	0.000363	3.634496	0.615700	0.007270
 879	4.3900e-01	8.7762	12.795190	0.000098	0.983452	0.166601	0.001967
 880	4.3950e-01	8.7878	12.825979	0.000308	3.078632	0.521534	0.006158
 881	4.4000e-01	8.7946	12.856340	0.000304	3.035873	0.514291	0.006072
 882	4.4050e-01	8.8068	12.886274	0.000299	2.993114	0.507047	0.005987
 883	4.4100e-01	8.8165	12.898675	0.000124	1.240005	0.210062	0.002480
 884	4.4150e-01	8.8287	12.928609	0.000299	2.993114	0.507047	0.005987
 885	4.4200e-01	8.8391	12.965812	0.000372	3.720014	0.630187	0.007441
 886	4.4250e-01	8.8458	12.980779	0.000150	1.496557	0.253524	0.002993
 887	4.4300e-01	8.8574	13.009002	0.000282	2.822079	0.478073	0.005645
 888	4.4350e-01	8.8681	13.021403	0.000124	1.240005	0.210062	0.002480
 889	4.4400e-01	8.8779	13.060745	0.000393	3.933807	0.666405	0.007868
 890	4.4450e-01	8.8843	13.084264	0.000235	2.351733	0.398394	0.004704
 891	4.4500e-01	8.8947	13.107356	0.000231	2.308974	0.391151	0.004618
 892	4.4550e-01	8.9050	13.136435	0.000291	2.907597	0.492560	0.005816
 893	4.4600e-01	8.9175	13.159526	0.000231	2.308974	0.391151	0.004618
 894	4.4650e-01	8.9261	13.194592	0.000351	3.506220	0.593970	0.007013
 895	4.4700e-01	8.9392	13.201006	0.000064	0.641382	0.108653	0.001283
 896	4.4750e-01	8.9490	13.247617	0.000466	4.660707	0.789545	0.009322
 897	4.4800e-01	8.9554	13.278406	0.000308	3.078632	0.521534	0.006158
 898	4.4850e-01	8.9661	13.284393	0.000060	0.598623	0.101409	0.001197
 899	4.4900e-01	8.9752	13.321596	0.000372	3.720014	0.630187	0.007441
 900	4.4950e-01	8.9874	13.329721	0.000081	0.812417	0.137627	0.001625
 901	4.5000e-01	8.9978	13.358800	0.000291	2.907597	0.492560	0.005816
 902	4.5050e-01	9.0100	13.387878	0.000291	2.907597	0.492560	0.005816
 903	4.5100e-01	9.0186	13.406266	0.000184	1.838627	0.311472	0.003678
 904	4.5150e-01	9.0247	13.445608	0.000393	3.933807	0.666405	0.007868
 905	4.5200e-01	9.0356	13.463996	0.000184	1.838627	0.311472	0.003678
 906	4.5250e-01	9.0479	13.497350	0.000334	3.335185	0.564996	0.006671
 907	4.5300e-01	9.0558	13.526001	0.000286	2.864838	0.485317	0.005730
 908	4.5350e-01	9.0668	13.537547	0.000115	1.154487	0.195575	0.002309
 909	4.5400e-01	9.0784	13.569191	0.000316	3.164149	0.536021	0.006329
 910	4.5450e-01	9.0875	13.600836	0.000316	3.164149	0.536021	0.006329
 911	4.5500e-01	9.0961	13.622645	0.000218	2.180698	0.369420	0.004362
 912	4.5550e-01	9.1064	13.637611	0.000150	1.496557	0.253524	0.002993
 913	4.5600e-01	9.1199	13.686361	0.000487	4.874500	0.825763	0.009750
 914	4.5650e-01	9.1260	13.697479	0.000111	1.111728	0.188332	0.002224
 915	4.5700e-01	9.1370	13.751787	0.000543	5.430365	0.919929	0.010862
 916	4.5750e-01	9.1467	13.756919	0.000051	0.513105	0.086922	0.001026
 917	4.5800e-01	9.1583	13.789846	0.000329	3.292426	0.557752	0.006585
 918	4.5850e-01	9.1672	13.792412	0.000026	0.256553	0.043461	0.000513
 919	4.5900e-01	9.1760	13.856556	0.000641	6.413816	1.086530	0.012829
 920	4.5950e-01	9.1861	13.853135	-0.000034	-0.342070	-0.057948	-0.000684
 921	4.6000e-01	9.1986	13.883068	0.000299	2.993114	0.507047	0.005987
 922	4.6050e-01	9.2084	13.925831	0.000428	4.275878	0.724353	0.008553
 923	4.6100e-01	9.2163	13.933528	0.000077	0.769658	0.130384	0.001539
 924	4.6150e-01	9.2273	13.946785	0.000133	1.325522	0.224550	0.002651
 925	4.6200e-01	9.2352	14.001093	0.000543	5.430365	0.919929	0.010862
 926	4.6250e-01	9.2462	14.014777	0.000137	1.368281	0.231793	0.002737
 927	4.6300e-01	9.2569	14.040862	0.000261	2.608285	0.441855	0.005217
 928	4.6350e-01	9.2670	14.066520	0.000257	2.565527	0.434612	0.005132
 929	4.6400e-01	9.2767	14.090039	0.000235	2.351733	0.398394	0.004704
 930	4.6450e-01	9.2868	14.116552	0.000265	2.651044	0.449099	0.005303
 931	4.6500e-01	9.2969	14.155893	0.000393	3.933807	0.666405	0.007868
 932	4.6550e-01	9.3056	14.164446	0.000086	0.855176	0.144871	0.001711
 933	4.6600e-01	9.3182	14.195235	0.000308	3.078632	0.521534	0.006158
 934	4.6650e-01	9.3268	14.208919	0.000137	1.368281	0.231793	0.002737
 935	4.6700e-01	9.3372	14.234576	0.000257	2.565527	0.434612	0.005132
 936	4.6750e-01	9.3457	14.266221	0.000316	3.164149	0.536021	0.006329
 937	4.6800e-01	9.3567	14.290595	0.000244	2.437250	0.412881	0.004875
 938	4.6850e-01	9.3677	14.294444	0.000038	0.384829	0.065192	0.000770
 939	4.6900e-01	9.3781	14.340627	0.000462	4.617948	0.782302	0.009237
 940	4.6950e-01	9.3878	14.375693	0.000351	3.506220	0.593970	0.007013
 941	4.7000e-01	9.3988	14.391087	0.000154	1.539316	0.260767	0.003079
 942	4.7050e-01	9.4080	14.430001	0.000389	3.891049	0.659161	0.007783
 943	4.7100e-01	9.4168	14.447106	0.000171	1.710351	0.289741	0.003421
 944	4.7150e-01	9.4305	14.477040	0.000299	2.993114	0.507047	0.005987
 945	4.7200e-01	9.4366	14.496283	0.000192	1.924145	0.325959	0.003849
 946	4.7250e-01	9.4446	14.528783	0.000325	3.249667	0.550508	0.006500
 947	4.7300e-01	9.4577	14.544605	0.000158	1.582075	0.268011	0.003164
 948	4.7350e-01	9.4672	14.567269	0.000227	2.266215	0.383907	0.004533
 949	4.7400e-01	9.4763	14.619867	0.000526	5.259329	0.890955	0.010520
 950	4.7450e-01	9.4885	14.639965	0.000201	2.009662	0.340446	0.004020
 951	4.7500e-01	9.4983	14.666478	0.000265	2.651044	0.449099	0.005303
 952	4.7550e-01	9.5044	14.689997	0.000235	2.351733	0.398394	0.004704
 953	4.7600e-01	9.5160	14.714372	0.000244	2.437250	0.412881	0.004875
 954	4.7650e-01	9.5261	14.739602	0.000252	2.522768	0.427368	0.005046
 955	4.7700e-01	9.5355	14.764832	0.000252	2.522768	0.427368	0.005046
 956	4.7750e-01	9.5483	14.783220	0.000184	1.838627	0.311472	0.003678
 957	4.7800e-01	9.5575	14.820851	0.000376	3.762772	0.637431	0.007526
 958	4.7850e-01	9.5648	14.835390	0.000145	1.453798	0.246280	0.002908
 959	4.7900e-01	9.5758	14.855488	0.000201	2.009662	0.340446	0.004020
 960	4.7950e-01	9.5868	14.896540	0.000410	4.104842	0.695379	0.008210
 961	4.8000e-01	9.5966	14.900389	0.000038	0.384829	0.065192	0.000770
 962	4.8050e-01	9.6039	14.945290	0.000449	4.489671	0.760571	0.008980
 963	4.8100e-01	9.6161	14.974368	0.000291	2.907597	0.492560	0.005816
 964	4.8150e-01	9.6265	14.997032	0.000227	2.266215	0.383907	0.004533
 965	4.8200e-01	9.6390	15.017131	0.000201	2.009662	0.340446	0.004020
 966	4.8250e-01	9.6466	15.041933	0.000248	2.480009	0.420125	0.004960
 967	4.8300e-01	9.6576	15.068873	0.000269	2.693803	0.456343	0.005388
 968	4.8350e-01	9.6683	15.113346	0.000445	4.446913	0.753327	0.008895
 969	4.8400e-01	9.6747	15.124892	0.000115	1.154487	0.195575	0.002309
 970	4.8450e-01	9.6863	15.159530	0.000346	3.463461	0.586726	0.006928
 971	4.8500e-01	9.6954	15.172359	0.000128	1.282763	0.217306	0.002566
 972	4.8550e-01	9.7052	15.207424	0.000351	3.506220	0.593970	0.007013
 973	4.8600e-01	9.7168	15.208279	0.000009	0.085518	0.014487	0.000171
 974	4.8650e-01	9.7269	15.258311	0.000500	5.002777	0.847493	0.010006
 975	4.8700e-01	9.7351	15.295515	0.000372	3.720014	0.630187	0.007441
 976	4.8750e-01	9.7491	15.308343	0.000128	1.282763	0.217306	0.002566
 977	4.8800e-01	9.7562	15.322455	0.000141	1.411040	0.239037	0.002822
 978	4.8850e-01	9.7665	15.381895	0.000594	5.943470	1.006851	0.011888
 979	4.8900e-01	9.7754	15.377619	-0.000043	-0.427588	-0.072435	-0.000855
 980	4.8950e-01	9.7845	15.417388	0.000398	3.976566	0.673649	0.007954
 981	4.9000e-01	9.7954	15.428506	0.000111	1.111728	0.188332	0.002224
 982	4.9050e-01	9.8056	15.449460	0.000210	2.095180	0.354933	0.004191
 983	4.9100e-01	9.8157	15.486663	0.000372	3.720014	0.630187	0.007441
 984	4.9150e-01	9.8273	15.508044	0.000214	2.137939	0.362177	0.004276
 985	4.9200e-01	9.8370	15.539689	0.000316	3.164149	0.536021	0.006329
 986	4.9250e-01	9.8450	15.573043	0.000334	3.335185	0.564996	0.006671
 987	4.9300e-01	9.8584	15.577320	0.000043	0.427588	0.072435	0.000855
 988	4.9350e-01	9.8689	15.624358	0.000470	4.703465	0.796789	0.009408
 989	4.9400e-01	9.8743	15.631628	0.000073	0.726899	0.123140	0.001454
 990	4.9450e-01	9.8840	15.668832	0.000372	3.720014	0.630187	0.007441
 991	4.9500e-01	9.8944	15.707745	0.000389	3.891049	0.659161	0.007783
 992	4.9550e-01	9.9060	15.706890	-0.000009	-0.085518	-0.014487	-0.000171
 993	4.9600e-01	9.9152	15.756922	0.000500	5.002777	0.847493	0.010006
 994	4.9650e-01	9.9246	15.774883	0.000180	1.795869	0.304228	0.003592
 995	4.9700e-01	9.9347	15.806954	0.000321	3.206908	0.543265	0.006414
 996	4.9750e-01	9.9460	15.825770	0.000188	1.881386	0.318715	0.003763
 997	4.9800e-01	9.9548	15.834322	0.000086	0.855176	0.144871	0.001711
 998	4.9850e-01	9.9673	15.871098	0.000368	3.677255	0.622944	0.007355
 999	4.9900e-01	9.9774	15.900604	0.000295	2.950356	0.499804	0.005901
1000	4.9950e-01	9.9847	15.930966	0.000304	3.035873	0.514291	0.006072
1001	5.0000e-01	9.9963	15.951492	0.000205	2.052421	0.347690	0.004105
1002	5.0050e-01	9.9866	15.912578	0.000389	3.891049	0.659161	-0.007783
1003	5.0100e-01	9.9744	15.900604	0.000120	1.197246	0.202819	-0.002395
1004	5.0150e-01	9.9677	15.900177	0.000004	0.042759	0.007244	-0.000086
1005	5.0200e-01	9.9567	15.869815	0.000304	3.035873	0.514291	-0.006072
1006	5.0250e-01	9.9463	15.836033	0.000338	3.377943	0.572239	-0.006756
1007	5.0300e-01	9.9350	15.827908	0.000081	0.812417	0.137627	-0.001625
1008	5.0350e-01	9.9249	15.822777	0.000051	0.513105	0.086922	-0.001026
1009	5.0400e-01	9.9146	15.794126	0.000286	2.864838	0.485317	-0.005730
1010	5.0450e-01	9.9066	15.772317	0.000218	2.180698	0.369420	-0.004362
1011	5.0500e-01	9.8956	15.765047	0.000073	0.726899	0.123140	-0.001454
1012	5.0550e-01	9.8828	15.748797	0.000162	1.624833	0.275254	-0.003250
1013	5.0600e-01	9.8718	15.720574	0.000282	2.822079	0.478073	-0.005645
1014	5.0650e-01	9.8657	15.711594	0.000090	0.897934	0.152114	-0.001796
1015	5.0700e-01	9.8547	15.704324	0.000073	0.726899	0.123140	-0.001454
1016	5.0750e-01	9.8444	15.653009	0.000513	5.131053	0.869224	-0.010263
1017	5.0800e-01	9.8343	15.672680	-0.000197	-1.966904	-0.333203	0.003934
1018	5.0850e-01	9.8230	15.628635	0.000440	4.404154	0.746084	-0.008809
1019	5.0900e-01	9.8157	15.624786	0.000038	0.384829	0.065192	-0.000770
1020	5.0950e-01	9.8047	15.591859	0.000329	3.292426	0.557752	-0.006585
1021	5.1000e-01	9.7980	15.578603	0.000133	1.325522	0.224550	-0.002651
1022	5.1050e-01	9.7839	15.549524	0.000291	2.907597	0.492560	-0.005816
1023	5.1100e-01	9.7760	15.530281	0.000192	1.924145	0.325959	-0.003849
1024	5.1150e-01	9.7656	15.515314	0.000150	1.496557	0.253524	-0.002993
1025	5.1200e-01	9.7562	15.482387	0.000329	3.292426	0.557752	-0.006585
1026	5.1250e-01	9.7485	15.467848	0.000145	1.453798	0.246280	-0.002908
1027	5.1300e-01	9.7351	15.443901	0.000239	2.394491	0.405638	-0.004789
1028	5.1350e-01	9.7235	15.444328	-0.000004	-0.042759	-0.007244	0.000086
1029	5.1400e-01	9.7162	15.418243	0.000261	2.608285	0.441855	-0.005217
1030	5.1450e-01	9.7083	15.411829	0.000064	0.641382	0.108653	-0.001283
1031	5.1500e-01	9.6967	15.380612	0.000312	3.121391	0.528778	-0.006243
1032	5.1550e-01	9.6857	15.350251	0.000304	3.035873	0.514291	-0.006072
1033	5.1600e-01	9.6716	15.356237	-0.000060	-0.598623	-0.101409	0.001197
1034	5.1650e-01	9.6667	15.323738	0.000325	3.249667	0.550508	-0.006500
1035	5.1700e-01	9.6570	15.305350	0.000184	1.838627	0.311472	-0.003678
1036	5.1750e-01	9.6472	15.277554	0.000278	2.779320	0.470830	-0.005559
1037	5.1800e-01	9.6375	15.268574	0.000090	0.897934	0.152114	-0.001796
1038	5.1850e-01	9.6246	15.242917	0.000257	2.565527	0.434612	-0.005132
1039	5.1900e-01	9.6161	15.236075	0.000068	0.684140	0.115897	-0.001368
1040	5.1950e-01	9.6063	15.209562	0.000265	2.651044	0.449099	-0.005303
1041	5.2000e-01	9.5972	15.174497	0.000351	3.506220	0.593970	-0.007013
1042	5.2050e-01	9.5862	15.171503	0.000030	0.299311	0.050705	-0.000599
1043	5.2100e-01	9.5752	15.138149	0.000334	3.335185	0.564996	-0.006671
1044	5.2150e-01	9.5660	15.141570	-0.000034	-0.342070	-0.057948	0.000684
1045	5.2200e-01	9.5551	15.110353	0.000312	3.121391	0.528778	-0.006243
1046	5.2250e-01	9.5453	15.079991	0.000304	3.035873	0.514291	-0.006072
1047	5.2300e-01	9.5355	15.076143	0.000038	0.384829	0.065192	-0.000770
1048	5.2350e-01	9.5245	15.057327	0.000188	1.881386	0.318715	-0.003763
1049	5.2400e-01	9.5154	15.049202	0.000081	0.812417	0.137627	-0.001625
1050	5.2450e-01	9.5038	15.025255	0.000239	2.394491	0.405638	-0.004789
1051	5.2500e-01	9.4952	14.988480	0.000368	3.677255	0.622944	-0.007355
1052	5.2550e-01	9.4864	14.984631	0.000038	0.384829	0.065192	-0.000770
1053	5.2600e-01	9.4769	14.933316	0.000513	5.131053	0.869224	-0.010263
1054	5.2650e-01	9.4653	14.936309	-0.000030	-0.299311	-0.050705	0.000599
1055	5.2700e-01	9.4550	14.922625	0.000137	1.368281	0.231793	-0.002737
1056	5.2750e-01	9.4452	14.891409	0.000312	3.121391	0.528778	-0.006243
1057	5.2800e-01	9.4348	14.867462	0.000239	2.394491	0.405638	-0.004789
1058	5.2850e-01	9.4238	14.832824	0.000346	3.463461	0.586726	-0.006928
1059	5.2900e-01	9.4165	14.834535	-0.000017	-0.171035	-0.028974	0.000342
1060	5.2950e-01	9.4046	14.805884	0.000286	2.864838	0.485317	-0.005730
1061	5.3000e-01	9.3970	14.775095	0.000308	3.078632	0.521534	-0.006158
1062	5.3050e-01	9.3848	14.758417	0.000167	1.667592	0.282498	-0.003335
1063	5.3100e-01	9.3750	14.736181	0.000222	2.223456	0.376664	-0.004447
1064	5.3150e-01	9.3640	14.712234	0.000239	2.394491	0.405638	-0.004789
1065	5.3200e-01	9.3567	14.684438	0.000278	2.779320	0.470830	-0.005559
1066	5.3250e-01	9.3430	14.675458	0.000090	0.897934	0.152114	-0.001796
1067	5.3300e-01	9.3341	14.654077	0.000214	2.137939	0.362177	-0.004276
1068	5.3350e-01	9.3250	14.626281	0.000278	2.779320	0.470830	-0.005559
1069	5.3400e-01	9.3152	14.616873	0.000094	0.940693	0.159358	-0.001882
1070	5.3450e-01	9.3048	14.593782	0.000231	2.308974	0.391151	-0.004618
1071	5.3500e-01	9.2957	14.576677	0.000171	1.710351	0.289741	-0.003421
1072	5.3550e-01	9.2859	14.566414	0.000103	1.026211	0.173845	-0.002053
1073	5.3600e-01	9.2749	14.519802	0.000466	4.660707	0.789545	-0.009322
1074	5.3650e-01	9.2657	14.508684	0.000111	1.111728	0.188332	-0.002224
1075	5.3700e-01	9.2548	14.495000	0.000137	1.368281	0.231793	-0.002737
1076	5.3750e-01	9.2450	14.474902	0.000201	2.009662	0.340446	-0.004020
1077	5.3800e-01	9.2383	14.468487	0.000064	0.641382	0.108653	-0.001283
1078	5.3850e-01	9.2255	14.414607	0.000539	5.387606	0.912685	-0.010776
1079	5.3900e-01	9.2139	14.402205	0.000124	1.240005	0.210062	-0.002480
1080	5.3950e-01	9.2059	14.370561	0.000316	3.164149	0.536021	-0.006329
1081	5.4000e-01	9.1962	14.365430	0.000051	0.513105	0.086922	-0.001026
1082	5.4050e-01	9.1858	14.331220	0.000342	3.420702	0.579483	-0.006842
1083	5.4100e-01	9.1748	14.302569	0.000286	2.864838	0.485317	-0.005730
1084	5.4150e-01	9.1650	14.290168	0.000124	1.240005	0.210062	-0.002480
1085	5.4200e-01	9.1541	14.267931	0.000222	2.223456	0.376664	-0.004447
1086	5.4250e-01	9.1455	14.248260	0.000197	1.966904	0.333203	-0.003934
1087	5.4300e-01	9.1370	14.233293	0.000150	1.496557	0.253524	-0.002993
1088	5.4350e-01	9.1257	14.202504	0.000308	3.078632	0.521534	-0.006158
1089	5.4400e-01	9.1125	14.187110	0.000154	1.539316	0.260767	-0.003079
1090	5.4450e-01	9.1046	14.168722	0.000184	1.838627	0.311472	-0.003678
1091	5.4500e-01	9.0958	14.137078	0.000316	3.164149	0.536021	-0.006329
1092	5.4550e-01	9.0845	14.108854	0.000282	2.822079	0.478073	-0.005645
1093	5.4600e-01	9.0735	14.103295	0.000056	0.555864	0.094166	-0.001112
1094	5.4650e-01	9.0643	14.085335	0.000180	1.795869	0.304228	-0.003592
1095	5.4700e-01	9.0576	14.050697	0.000346	3.463461	0.586726	-0.006928
1096	5.4750e-01	9.0460	14.025040	0.000257	2.565527	0.434612	-0.005132
1097	5.4800e-01	9.0369	14.001948	0.000231	2.308974	0.391151	-0.004618
1098	5.4850e-01	9.0228	13.988264	0.000137	1.368281	0.231793	-0.002737
1099	5.4900e-01	9.0155	13.957048	0.000312	3.121391	0.528778	-0.006243
1100	5.4950e-01	9.0057	13.956192	0.000009	0.085518	0.014487	-0.000171
1101	5.5000e-01	8.9993	13.927969	0.000282	2.822079	0.478073	-0.005645
1102	5.5050e-01	8.9847	13.895897	0.000321	3.206908	0.543265	-0.006414
1103	5.5100e-01	8.9749	13.878792	0.000171	1.710351	0.289741	-0.003421
1104	5.5150e-01	8.9636	13.860404	0.000184	1.838627	0.311472	-0.003678
1105	5.5200e-01	8.9581	13.834319	0.000261	2.608285	0.441855	-0.005217
1106	5.5250e-01	8.9453	13.794122	0.000402	4.019325	0.680892	-0.008039
1107	5.5300e-01	8.9380	13.783432	0.000107	1.068969	0.181088	-0.002138
1108	5.5350e-01	8.9240	13.766327	0.000171	1.710351	0.289741	-0.003421
1109	5.5400e-01	8.9172	13.755208	0.000111	1.111728	0.188332	-0.002224
1110	5.5450e-01	8.9038	13.723564	0.000316	3.164149	0.536021	-0.006329
1111	5.5500e-01	8.8953	13.685933	0.000376	3.762772	0.637431	-0.007526
1112	5.5550e-01	8.8850	13.679091	0.000068	0.684140	0.115897	-0.001368
1113	5.5600e-01	8.8763	13.653006	0.000261	2.608285	0.441855	-0.005217
1114	5.5650e-01	8.8660	13.621789	0.000312	3.121391	0.528778	-0.006243
1115	5.5700e-01	8.8538	13.591428	0.000304	3.035873	0.514291	-0.006072
1116	5.5750e-01	8.8440	13.592283	-0.000009	-0.085518	-0.014487	0.000171
1117	5.5800e-01	8.8351	13.556363	0.000359	3.591737	0.608457	-0.007184
1118	5.5850e-01	8.8275	13.541823	0.000145	1.453798	0.246280	-0.002908
1119	5.5900e-01	8.8141	13.540968	0.000009	0.085518	0.014487	-0.000171
1120	5.5950e-01	8.8080	13.499488	0.000415	4.147601	0.702623	-0.008296
1121	5.6000e-01	8.7958	13.481528	0.000180	1.795869	0.304228	-0.003592
1122	5.6050e-01	8.7875	13.429786	0.000517	5.173812	0.876467	-0.010349
1123	5.6100e-01	8.7750	13.419523	0.000103	1.026211	0.173845	-0.002053
1124	5.6150e-01	8.7674	13.382747	0.000368	3.677255	0.622944	-0.007355
1125	5.6200e-01	8.7573	13.377188	0.000056	0.555864	0.094166	-0.001112
1126	5.6250e-01	8.7445	13.355379	0.000218	2.180698	0.369420	-0.004362
1127	5.6300e-01	8.7384	13.338274	0.000171	1.710351	0.289741	-0.003421
1128	5.6350e-01	8.7253	13.311333	0.000269	2.693803	0.456343	-0.005388
1129	5.6400e-01	8.7177	13.282255	0.000291	2.907597	0.492560	-0.005816
1130	5.6450e-01	8.7042	13.278406	0.000038	0.384829	0.065192	-0.000770
1131	5.6500e-01	8.6951	13.260018	0.000184	1.838627	0.311472	-0.003678
1132	5.6550e-01	8.6832	13.232223	0.000278	2.779320	0.470830	-0.005559
1133	5.6600e-01	8.6774	13.205282	0.000269	2.693803	0.456343	-0.005388
1134	5.6650e-01	8.6639	13.170645	0.000346	3.463461	0.586726	-0.006928
1135	5.6700e-01	8.6578	13.154395	0.000162	1.624833	0.275254	-0.003250
1136	5.6750e-01	8.6456	13.127882	0.000265	2.651044	0.449099	-0.005303
1137	5.6800e-01	8.6386	13.104790	0.000231	2.308974	0.391151	-0.004618
1138	5.6850e-01	8.6255	13.083837	0.000210	2.095180	0.354933	-0.004191
1139	5.6900e-01	8.6169	13.056469	0.000274	2.736562	0.463586	-0.005474
1140	5.6950e-01	8.6047	13.051765	0.000047	0.470347	0.079679	-0.000941
1141	5.7000e-01	8.5962	13.025680	0.000261	2.608285	0.441855	-0.005217
1142	5.7050e-01	8.5858	13.004298	0.000214	2.137939	0.362177	-0.004276
1143	5.7100e-01	8.5754	12.963246	0.000410	4.104842	0.695379	-0.008210
1144	5.7150e-01	8.5681	12.948707	0.000145	1.453798	0.246280	-0.002908
1145	5.7200e-01	8.5577	12.940582	0.000081	0.812417	0.137627	-0.001625
1146	5.7250e-01	8.5468	12.912787	0.000278	2.779320	0.470830	-0.005559
1147	5.7300e-01	8.5364	12.894399	0.000184	1.838627	0.311472	-0.003678
1148	5.7350e-01	8.5278	12.857623	0.000368	3.677255	0.622944	-0.007355
1149	5.7400e-01	8.5156	12.825979	0.000316	3.164149	0.536021	-0.006329
1150	5.7450e-01	8.5077	12.819137	0.000068	0.684140	0.115897	-0.001368
1151	5.7500e-01	8.4943	12.805025	0.000141	1.411040	0.239037	-0.002822
1152	5.7550e-01	8.4851	12.775947	0.000291	2.907597	0.492560	-0.005816
1153	5.7600e-01	8.4766	12.742592	0.000334	3.335185	0.564996	-0.006671
1154	5.7650e-01	8.4674	12.723776	0.000188	1.881386	0.318715	-0.003763
1155	5.7700e-01	8.4576	12.701540	0.000222	2.223456	0.376664	-0.004447
1156	5.7750e-01	8.4479	12.684862	0.000167	1.667592	0.282498	-0.003335
1157	5.7800e-01	8.4344	12.665192	0.000197	1.966904	0.333203	-0.003934
1158	5.7850e-01	8.4283	12.635258	0.000299	2.993114	0.507047	-0.005987
1159	5.7900e-01	8.4155	12.618153	0.000171	1.710351	0.289741	-0.003421
1160	5.7950e-01	8.4067	12.579667	0.000385	3.848290	0.651918	-0.007697
1161	5.8000e-01	8.3978	12.577528	0.000021	0.213794	0.036218	-0.000428
1162	5.8050e-01	8.3856	12.535621	0.000419	4.190360	0.709866	-0.008381
1163	5.8100e-01	8.3749	12.540325	-0.000047	-0.470347	-0.079679	0.000941
1164	5.8150e-01	8.3667	12.483878	0.000564	5.644158	0.956146	-0.011289
1165	5.8200e-01	8.3585	12.471050	0.000128	1.282763	0.217306	-0.002566
1166	5.8250e-01	8.3435	12.468056	0.000030	0.299311	0.050705	-0.000599
1167	5.8300e-01	8.3377	12.410755	0.000573	5.729676	0.970633	-0.011460
1168	5.8350e-01	8.3273	12.389373	0.000214	2.137939	0.362177	-0.004276
1169	5.8400e-01	8.3142	12.370130	0.000192	1.924145	0.325959	-0.003849
1170	5.8450e-01	8.3075	12.356446	0.000137	1.368281	0.231793	-0.002737
1171	5.8500e-01	8.2971	12.323519	0.000329	3.292426	0.557752	-0.006585
1172	5.8550e-01	8.2857	12.314111	0.000094	0.940693	0.159358	-0.001882
1173	5.8600e-01	8.2779	12.257665	0.000564	5.644158	0.956146	-0.011289
1174	5.8650e-01	8.2654	12.253388	0.000043	0.427588	0.072435	-0.000855
1175	5.8700e-01	8.2556	12.245264	0.000081	0.812417	0.137627	-0.001625
1176	5.8750e-01	8.2483	12.219178	0.000261	2.608285	0.441855	-0.005217
1177	5.8800e-01	8.2382	12.183258	0.000359	3.591737	0.608457	-0.007184
1178	5.8850e-01	8.2251	12.168291	0.000150	1.496557	0.253524	-0.002993
1179	5.8900e-01	8.2172	12.147765	0.000205	2.052421	0.347690	-0.004105
1180	5.8950e-01	8.2050	12.127667	0.000201	2.009662	0.340446	-0.004020
1181	5.9000e-01	8.1931	12.099016	0.000286	2.864838	0.485317	-0.005730
1182	5.9050e-01	8.1830	12.095595	0.000034	0.342070	0.057948	-0.000684
1183	5.9100e-01	8.1775	12.048984	0.000466	4.660707	0.789545	-0.009322
1184	5.9150e-01	8.1641	12.010925	0.000381	3.805531	0.644674	-0.007612
1185	5.9200e-01	8.1561	11.995103	0.000158	1.582075	0.268011	-0.003164
1186	5.9250e-01	8.1464	11.992965	0.000021	0.213794	0.036218	-0.000428
1187	5.9300e-01	8.1398	11.941650	0.000513	5.131053	0.869224	-0.010263
1188	5.9350e-01	8.1250	11.950202	-0.000086	-0.855176	-0.144871	0.001711
1189	5.9400e-01	8.1152	11.914709	0.000355	3.548978	0.601213	-0.007099
1190	5.9450e-01	8.1085	11.892473	0.000222	2.223456	0.376664	-0.004447
1191	5.9500e-01	8.0945	11.863822	0.000286	2.864838	0.485317	-0.005730
1192	5.9550e-01	8.0865	11.830039	0.000338	3.377943	0.572239	-0.006756
1193	5.9600e-01	8.0786	11.818494	0.000115	1.154487	0.195575	-0.002309
1194	5.9650e-01	8.0661	11.801816	0.000167	1.667592	0.282498	-0.003335
1195	5.9700e-01	8.0566	11.754777	0.000470	4.703465	0.796789	-0.009408
1196	5.9750e-01	8.0463	11.732968	0.000218	2.180698	0.369420	-0.004362
1197	5.9800e-01	8.0365	11.721850	0.000111	1.111728	0.188332	-0.002224
1198	5.9850e-01	8.0249	11.721423	0.000004	0.042759	0.007244	-0.000086
1199	5.9900e-01	8.0136	11.661127	0.000603	6.028987	1.021338	-0.012059
1200	5.9950e-01	8.0054	11.639319	0.000218	2.180698	0.369420	-0.004362
1201	6.0000e-01	7.9944	11.607247	0.000321	3.206908	0.543265	-0.006414
1202	6.0050e-01	7.9846	11.608957	-0.000017	-0.171035	-0.028974	0.000342
1203	6.0100e-01	7.9749	11.591852	0.000171	1.710351	0.289741	-0.003421
1204	6.0150e-01	7.9669	11.542675	0.000492	4.917259	0.833006	-0.009835
1205	6.0200e-01	7.9568	11.527281	0.000154	1.539316	0.260767	-0.003079
1206	6.0250e-01	7.9459	11.507610	0.000197	1.966904	0.333203	-0.003934
1207	6.0300e-01	7.9343	11.467841	0.000398	3.976566	0.673649	-0.007954
1208	6.0350e-01	7.9257	11.442611	0.000252	2.522768	0.427368	-0.005046
1209	6.0400e-01	7.9181	11.434058	0.000086	0.855176	0.144871	-0.001711
1210	6.0450e-01	7.9066	11.414388	0.000197	1.966904	0.333203	-0.003934
1211	6.0500e-01	7.8992	11.387875	0.000265	2.651044	0.449099	-0.005303
1212	6.0550e-01	7.8839	11.337415	0.000505	5.045536	0.854737	-0.010092
1213	6.0600e-01	7.8754	11.340836	-0.000034	-0.342070	-0.057948	0.000684
1214	6.0650e-01	7.8662	11.304060	0.000368	3.677255	0.622944	-0.007355
1215	6.0700e-01	7.8552	11.282251	0.000218	2.180698	0.369420	-0.004362
1216	6.0750e-01	7.8444	11.249752	0.000325	3.249667	0.550508	-0.006500
1217	6.0800e-01	7.8357	11.237351	0.000124	1.240005	0.210062	-0.002480
1218	6.0850e-01	7.8241	11.213404	0.000239	2.394491	0.405638	-0.004789
1219	6.0900e-01	7.8149	11.211266	0.000021	0.213794	0.036218	-0.000428
1220	6.0950e-01	7.8088	11.172779	0.000385	3.848290	0.651918	-0.007697
1221	6.1000e-01	7.7966	11.128306	0.000445	4.446913	0.753327	-0.008895
1222	6.1050e-01	7.7863	11.133010	-0.000047	-0.470347	-0.079679	0.000941
1223	6.1100e-01	7.7765	11.103076	0.000299	2.993114	0.507047	-0.005987
1224	6.1150e-01	7.7667	11.072715	0.000304	3.035873	0.514291	-0.006072
1225	6.1200e-01	7.7582	11.055182	0.000175	1.753110	0.296985	-0.003507
1226	6.1250e-01	7.7463	11.008999	0.000462	4.617948	0.782302	-0.009237
1227	6.1300e-01	7.7356	11.019262	-0.000103	-1.026211	-0.173845	0.002053
1228	6.1350e-01	7.7243	10.969230	0.000500	5.002777	0.847493	-0.010006
1229	6.1400e-01	7.7136	10.951697	0.000175	1.753110	0.296985	-0.003507
1230	6.1450e-01	7.7069	10.931599	0.000201	2.009662	0.340446	-0.004020
1231	6.1500e-01	7.6973	10.912356	0.000192	1.924145	0.325959	-0.003849
1232	6.1550e-01	7.6849	10.873014	0.000393	3.933807	0.666405	-0.007868
1233	6.1600e-01	7.6740	10.835383	0.000376	3.762772	0.637431	-0.007526
1234	6.1650e-01	7.6666	10.825120	0.000103	1.026211	0.173845	-0.002053
1235	6.1700e-01	7.6553	10.807587	0.000175	1.753110	0.296985	-0.003507
1236	6.1750e-01	7.6474	10.774233	0.000334	3.335185	0.564996	-0.006671
1237	6.1800e-01	7.6361	10.746865	0.000274	2.736562	0.463586	-0.005474
1238	6.1850e-01	7.6251	10.703247	0.000436	4.361395	0.738840	-0.008724
1239	6.1900e-01	7.6143	10.692129	0.000111	1.111728	0.188332	-0.002224
1240	6.1950e-01	7.6062	10.693839	-0.000017	-0.171035	-0.028974	0.000342
1241	6.2000e-01	7.5928	10.655353	0.000385	3.848290	0.651918	-0.007697
1242	6.2050e-01	7.5867	10.632261	0.000231	2.308974	0.391151	-0.004618
1243	6.2100e-01	7.5787	10.602755	0.000295	2.950356	0.499804	-0.005901
1244	6.2150e-01	7.5659	10.585222	0.000175	1.753110	0.296985	-0.003507
1245	6.2200e-01	7.5540	10.590354	-0.000051	-0.513105	-0.086922	0.001026
1246	6.2250e-01	7.5464	10.512954	0.000774	7.739338	1.311079	-0.015480
1247	6.2300e-01	7.5360	10.505684	0.000073	0.726899	0.123140	-0.001454
1248	6.2350e-01	7.5262	10.475750	0.000299	2.993114	0.507047	-0.005987
1249	6.2400e-01	7.5159	10.461639	0.000141	1.411040	0.239037	-0.002822
1250	6.2450e-01	7.5049	10.422725	0.000389	3.891049	0.659161	-0.007783
1251	6.2500e-01	7.4957	10.418021	0.000047	0.470347	0.079679	-0.000941
1252	6.2550e-01	7.4829	10.409896	0.000081	0.812417	0.137627	-0.001625
1253	6.2600e-01	7.4762	10.359436	0.000505	5.045536	0.854737	-0.010092
1254	6.2650e-01	7.4664	10.337627	0.000218	2.180698	0.369420	-0.004362
1255	6.2700e-01	7.4567	10.289733	0.000479	4.788983	0.811276	-0.009579
1256	6.2750e-01	7.4463	10.291444	-0.000017	-0.171035	-0.028974	0.000342
1257	6.2800e-01	7.4350	10.270062	0.000214	2.137939	0.362177	-0.004276
1258	6.2850e-01	7.4243	10.243550	0.000265	2.651044	0.449099	-0.005303
1259	6.2900e-01	7.4146	10.232431	0.000111	1.111728	0.188332	-0.002224
1260	6.2950e-01	7.4097	10.209340	0.000231	2.308974	0.391151	-0.004618
1261	6.3000e-01	7.3984	10.156742	0.000526	5.259329	0.890955	-0.010520
1262	6.3050e-01	7.3856	10.123387	0.000334	3.335185	0.564996	-0.006671
1263	6.3100e-01	7.3749	10.110558	0.000128	1.282763	0.217306	-0.002566
1264	6.3150e-01	7.3639	10.099012	0.000115	1.154487	0.195575	-0.002309
1265	6.3200e-01	7.3560	10.059243	0.000398	3.976566	0.673649	-0.007954
1266	6.3250e-01	7.3453	10.044276	0.000150	1.496557	0.253524	-0.002993
1267	6.3300e-01	7.3347	10.013060	0.000312	3.121391	0.528778	-0.006243
1268	6.3350e-01	7.3254	9.983553	0.000295	2.950356	0.499804	-0.005901
1269	6.3400e-01	7.3151	9.978850	0.000047	0.470347	0.079679	-0.000941
1270	6.3450e-01	7.3032	9.953192	0.000257	2.565527	0.434612	-0.005132
1271	6.3500e-01	7.2946	9.920265	0.000329	3.292426	0.557752	-0.006585
1272	6.3550e-01	7.2845	9.875792	0.000445	4.446913	0.753327	-0.008895
1273	6.3600e-01	7.2763	9.851845	0.000239	2.394491	0.405638	-0.004789
1274	6.3650e-01	7.2641	9.837306	0.000145	1.453798	0.246280	-0.002908
1275	6.3700e-01	7.2546	9.820628	0.000167	1.667592	0.282498	-0.003335
1276	6.3750e-01	7.2449	9.774445	0.000462	4.617948	0.782302	-0.009237
1277	6.3800e-01	7.2363	9.771024	0.000034	0.342070	0.057948	-0.000684
1278	6.3850e-01	7.2253	9.747932	0.000231	2.308974	0.391151	-0.004618
1279	6.3900e-01	7.2162	9.724413	0.000235	2.351733	0.398394	-0.004704
1280	6.3950e-01	7.2058	9.700038	0.000244	2.437250	0.412881	-0.004875
1281	6.4000e-01	7.1948	9.682505	0.000175	1.753110	0.296985	-0.003507
1282	6.4050e-01	7.1851	9.654710	0.000278	2.779320	0.470830	-0.005559
1283	6.4100e-01	7.1753	9.610237	0.000445	4.446913	0.753327	-0.008895
1284	6.4150e-01	7.1655	9.584579	0.000257	2.565527	0.434612	-0.005132
1285	6.4200e-01	7.1555	9.552507	0.000321	3.206908	0.543265	-0.006414
1286	6.4250e-01	7.1463	9.542672	0.000098	0.983452	0.166601	-0.001967
1287	6.4300e-01	7.1350	9.511455	0.000312	3.121391	0.528778	-0.006243
1288	6.4350e-01	7.1259	9.481521	0.000299	2.993114	0.507047	-0.005987
1289	6.4400e-01	7.1130	9.471258	0.000103	1.026211	0.173845	-0.002053
1290	6.4450e-01	7.1036	9.428923	0.000423	4.233119	0.717110	-0.008467
1291	6.4500e-01	7.0947	9.416522	0.000124	1.240005	0.210062	-0.002480
1292	6.4550e-01	7.0837	9.381457	0.000351	3.506220	0.593970	-0.007013
1293	6.4600e-01	7.0740	9.361359	0.000201	2.009662	0.340446	-0.004020
1294	6.4650e-01	7.0648	9.333135	0.000282	2.822079	0.478073	-0.005645
1295	6.4700e-01	7.0544	9.320307	0.000128	1.282763	0.217306	-0.002566
1296	6.4750e-01	7.0471	9.299781	0.000205	2.052421	0.347690	-0.004105
1297	6.4800e-01	7.0367	9.257018	0.000428	4.275878	0.724353	-0.008553
1298	6.4850e-01	7.0270	9.253170	0.000038	0.384829	0.065192	-0.000770
1299	6.4900e-01	7.0157	9.200144	0.000530	5.302088	0.898198	-0.010605
1300	6.4950e-01	7.0056	9.169355	0.000308	3.078632	0.521534	-0.006158
1301	6.5000e-01	6.9940	9.150539	0.000188	1.881386	0.318715	-0.003763
1302	6.5050e-01	6.9830	9.127875	0.000227	2.266215	0.383907	-0.004533
1303	6.5100e-01	6.9739	9.114191	0.000137	1.368281	0.231793	-0.002737
1304	6.5150e-01	6.9650	9.077843	0.000363	3.634496	0.615700	-0.007270
1305	6.5200e-01	6.9565	9.032942	0.000449	4.489671	0.760571	-0.008980
1306	6.5250e-01	6.9458	9.024818	0.000081	0.812417	0.137627	-0.001625
1307	6.5300e-01	6.9348	8.982055	0.000428	4.275878	0.724353	-0.008553
1308	6.5350e-01	6.9258	8.987614	-0.000056	-0.555864	-0.094166	0.001112
1309	6.5400e-01	6.9171	8.939720	0.000479	4.788983	0.811276	-0.009579
1310	6.5450e-01	6.9084	8.926464	0.000133	1.325522	0.224550	-0.002651
1311	6.5500e-01	6.8945	8.914490	0.000120	1.197246	0.202819	-0.002395
1312	6.5550e-01	6.8854	8.873866	0.000406	4.062084	0.688136	-0.008125
1313	6.5600e-01	6.8762	8.860610	0.000133	1.325522	0.224550	-0.002651
1314	6.5650e-01	6.8671	8.829820	0.000308	3.078632	0.521534	-0.006158
1315	6.5700e-01	6.8549	8.787486	0.000423	4.233119	0.717110	-0.008467
1316	6.5750e-01	6.8463	8.790479	-0.000030	-0.299311	-0.050705	0.000599
1317	6.5800e-01	6.8393	8.734888	0.000556	5.558641	0.941659	-0.011118
1318	6.5850e-01	6.8246	8.731039	0.000038	0.384829	0.065192	-0.000770
1319	6.5900e-01	6.8158	8.694691	0.000363	3.634496	0.615700	-0.007270
1320	6.5950e-01	6.8042	8.684428	0.000103	1.026211	0.173845	-0.002053
1321	6.6000e-01	6.7969	8.639100	0.000453	4.532430	0.767814	-0.009066
1322	6.6050e-01	6.7841	8.638244	0.000009	0.085518	0.014487	-0.000171
1323	6.6100e-01	6.7740	8.607455	0.000308	3.078632	0.521534	-0.006158
1324	6.6150e-01	6.7645	8.559561	0.000479	4.788983	0.811276	-0.009579
1325	6.6200e-01	6.7575	8.538608	0.000210	2.095180	0.354933	-0.004191
1326	6.6250e-01	6.7471	8.502687	0.000359	3.591737	0.608457	-0.007184
1327	6.6300e-01	6.7355	8.504825	-0.000021	-0.213794	-0.036218	0.000428
1328	6.6350e-01	6.7267	8.475319	0.000295	2.950356	0.499804	-0.005901
1329	6.6400e-01	6.7151	8.418873	0.000564	5.644158	0.956146	-0.011289
1330	6.6450e-01	6.7044	8.406899	0.000120	1.197246	0.202819	-0.002395
1331	6.6500e-01	6.6974	8.385090	0.000218	2.180698	0.369420	-0.004362
1332	6.6550e-01	6.6846	8.341472	0.000436	4.361395	0.738840	-0.008724
1333	6.6600e-01	6.6750	8.326933	0.000145	1.453798	0.246280	-0.002908
1334	6.6650e-01	6.6669	8.305124	0.000218	2.180698	0.369420	-0.004362
1335	6.6700e-01	6.6537	8.265355	0.000398	3.976566	0.673649	-0.007954
1336	6.6750e-01	6.6437	8.257230	0.000081	0.812417	0.137627	-0.001625
1337	6.6800e-01	6.6350	8.226014	0.000312	3.121391	0.528778	-0.006243
1338	6.6850e-01	6.6237	8.214468	0.000115	1.154487	0.195575	-0.002309
1339	6.6900e-01	6.6144	8.191804	0.000227	2.266215	0.383907	-0.004533
1340	6.6950e-01	6.6049	8.141344	0.000505	5.045536	0.854737	-0.010092
1341	6.7000e-01	6.5962	8.113548	0.000278	2.779320	0.470830	-0.005559
1342	6.7050e-01	6.5869	8.102858	0.000107	1.068969	0.181088	-0.002138
1343	6.7100e-01	6.5732	8.072068	0.000308	3.078632	0.521534	-0.006158
1344	6.7150e-01	6.5656	8.039997	0.000321	3.206908	0.543265	-0.006414
1345	6.7200e-01	6.5588	8.023319	0.000167	1.667592	0.282498	-0.003335
1346	6.7250e-01	6.5451	7.995951	0.000274	2.736562	0.463586	-0.005474
1347	6.7300e-01	6.5344	7.983978	0.000120	1.197246	0.202819	-0.002395
1348	6.7350e-01	6.5234	7.950195	0.000338	3.377943	0.572239	-0.006756
1349	6.7400e-01	6.5131	7.898453	0.000517	5.173812	0.876467	-0.010349
1350	6.7450e-01	6.5018	7.901018	-0.000026	-0.256553	-0.043461	0.000513
1351	6.7500e-01	6.4948	7.855690	0.000453	4.532430	0.767814	-0.009066
1352	6.7550e-01	6.4856	7.835164	0.000205	2.052421	0.347690	-0.004105
1353	6.7600e-01	6.4740	7.803947	0.000312	3.121391	0.528778	-0.006243
1354	6.7650e-01	6.4661	7.772303	0.000316	3.164149	0.536021	-0.006329
1355	6.7700e-01	6.4560	7.756053	0.000162	1.624833	0.275254	-0.003250
1356	6.7750e-01	6.4467	7.736383	0.000197	1.966904	0.333203	-0.003934
1357	6.7800e-01	6.4371	7.704738	0.000316	3.164149	0.536021	-0.006329
1358	6.7850e-01	6.4258	7.679936	0.000248	2.480009	0.420125	-0.004960
1359	6.7900e-01	6.4142	7.646581	0.000334	3.335185	0.564996	-0.006671
1360	6.7950e-01	6.4063	7.629904	0.000167	1.667592	0.282498	-0.003335
1361	6.8000e-01	6.3940	7.596549	0.000334	3.335185	0.564996	-0.006671
1362	6.8050e-01	6.3867	7.576878	0.000197	1.966904	0.333203	-0.003934
1363	6.8100e-01	6.3791	7.542668	0.000342	3.420702	0.579483	-0.006842
1364	6.8150e-01	6.3660	7.515300	0.000274	2.736562	0.463586	-0.005474
1365	6.8200e-01	6.3568	7.499478	0.000158	1.582075	0.268011	-0.003164
1366	6.8250e-01	6.3464	7.457571	0.000419	4.190360	0.709866	-0.008381
1367	6.8300e-01	6.3344	7.438328	0.000192	1.924145	0.325959	-0.003849
1368	6.8350e-01	6.3248	7.415664	0.000227	2.266215	0.383907	-0.004533
1369	6.8400e-01	6.3153	7.387013	0.000286	2.864838	0.485317	-0.005730
1370	6.8450e-01	6.3034	7.357934	0.000291	2.907597	0.492560	-0.005816
1371	6.8500e-01	6.2958	7.357934	-0.000000	-0.000000	-0.000000	0.000000
1372	6.8550e-01	6.2851	7.303198	0.000547	5.473123	0.927172	-0.010947
1373	6.8600e-01	6.2796	7.289087	0.000141	1.411040	0.239037	-0.002822
1374	6.8650e-01	6.2656	7.257870	0.000312	3.121391	0.528778	-0.006243
1375	6.8700e-01	6.2573	7.228791	0.000291	2.907597	0.492560	-0.005816
1376	6.8750e-01	6.2469	7.194581	0.000342	3.420702	0.579483	-0.006842
1377	6.8800e-01	6.2329	7.176194	0.000184	1.838627	0.311472	-0.003678
1378	6.8850e-01	6.2276	7.167213	0.000090	0.897934	0.152114	-0.001796
1379	6.8900e-01	6.2177	7.108201	0.000590	5.900711	0.999608	-0.011802
1380	6.8950e-01	6.2079	7.082971	0.000252	2.522768	0.427368	-0.005046
1381	6.9000e-01	6.1975	7.048334	0.000346	3.463461	0.586726	-0.006928
1382	6.9050e-01	6.1847	7.047906	0.000004	0.042759	0.007244	-0.000086
1383	6.9100e-01	6.1752	7.014979	0.000329	3.292426	0.557752	-0.006585
1384	6.9150e-01	6.1688	6.984190	0.000308	3.078632	0.521534	-0.006158
1385	6.9200e-01	6.1563	6.973072	0.000111	1.111728	0.188332	-0.002224
1386	6.9250e-01	6.1435	6.932447	0.000406	4.062084	0.688136	-0.008125
1387	6.9300e-01	6.1395	6.901230	0.000312	3.121391	0.528778	-0.006243
1388	6.9350e-01	6.1292	6.879849	0.000214	2.137939	0.362177	-0.004276
1389	6.9400e-01	6.1182	6.843073	0.000368	3.677255	0.622944	-0.007355
1390	6.9450e-01	6.1053	6.809291	0.000338	3.377943	0.572239	-0.006756
1391	6.9500e-01	6.0944	6.815705	-0.000064	-0.641382	-0.108653	0.001283
1392	6.9550e-01	6.0844	6.761825	0.000539	5.387606	0.912685	-0.010776
1393	6.9600e-01	6.0760	6.747713	0.000141	1.411040	0.239037	-0.002822
1394	6.9650e-01	6.0651	6.711365	0.000363	3.634496	0.615700	-0.007270
1395	6.9700e-01	6.0571	6.690839	0.000205	2.052421	0.347690	-0.004105
1396	6.9750e-01	6.0475	6.657912	0.000329	3.292426	0.557752	-0.006585
1397	6.9800e-01	6.0355	6.631399	0.000265	2.651044	0.449099	-0.005303
1398	6.9850e-01	6.0217	6.621991	0.000094	0.940693	0.159358	-0.001882
1399	6.9900e-01	6.0175	6.567683	0.000543	5.430365	0.919929	-0.010862
1400	6.9950e-01	6.0074	6.548867	0.000188	1.881386	0.318715	-0.003763
1401	7.0000e-01	5.9964	6.536894	0.000120	1.197246	0.202819	-0.002395
1402	7.0050e-01	5.9866	6.497980	0.000389	3.891049	0.659161	-0.007783
1403	7.0100e-01	5.9766	6.460776	0.000372	3.720014	0.630187	-0.007441
1404	7.0150e-01	5.9644	6.440250	0.000205	2.052421	0.347690	-0.004105
1405	7.0200e-01	5.9561	6.424428	0.000158	1.582075	0.268011	-0.003164
1406	7.0250e-01	5.9467	6.394922	0.000295	2.950356	0.499804	-0.005901
1407	7.0300e-01	5.9351	6.367554	0.000274	2.736562	0.463586	-0.005474
1408	7.0350e-01	5.9262	6.343180	0.000244	2.437250	0.412881	-0.004875
1409	7.0400e-01	5.9167	6.297851	0.000453	4.532430	0.767814	-0.009066
1410	7.0450e-01	5.9064	6.280319	0.000175	1.753110	0.296985	-0.003507
1411	7.0500e-01	5.8954	6.248247	0.000321	3.206908	0.543265	-0.006414
1412	7.0550e-01	5.8862	6.232425	0.000158	1.582075	0.268011	-0.003164
1413	7.0600e-01	5.8789	6.191800	0.000406	4.062084	0.688136	-0.008125
1414	7.0650e-01	5.8633	6.164432	0.000274	2.736562	0.463586	-0.005474
1415	7.0700e-01	5.8545	6.145189	0.000192	1.924145	0.325959	-0.003849
1416	7.0750e-01	5.8472	6.116538	0.000286	2.864838	0.485317	-0.005730
1417	7.0800e-01	5.8347	6.090881	0.000257	2.565527	0.434612	-0.005132
1418	7.0850e-01	5.8252	6.054105	0.000368	3.677255	0.622944	-0.007355
1419	7.0900e-01	5.8185	6.031441	0.000227	2.266215	0.383907	-0.004533
1420	7.0950e-01	5.8072	5.990389	0.000410	4.104842	0.695379	-0.008210
1421	7.1000e-01	5.7968	5.973284	0.000171	1.710351	0.289741	-0.003421
1422	7.1050e-01	5.7855	5.959172	0.000141	1.411040	0.239037	-0.002822
1423	7.1100e-01	5.7770	5.910423	0.000487	4.874500	0.825763	-0.009750
1424	7.1150e-01	5.7678	5.871509	0.000389	3.891049	0.659161	-0.007783
1425	7.1200e-01	5.7556	5.878351	-0.000068	-0.684140	-0.115897	0.001368
1426	7.1250e-01	5.7443	5.819339	0.000590	5.900711	0.999608	-0.011802
1427	7.1300e-01	5.7370	5.817200	0.000021	0.213794	0.036218	-0.000428
1428	7.1350e-01	5.7263	5.795392	0.000218	2.180698	0.369420	-0.004362
1429	7.1400e-01	5.7159	5.749208	0.000462	4.617948	0.782302	-0.009237
1430	7.1450e-01	5.7053	5.737234	0.000120	1.197246	0.202819	-0.002395
1431	7.1500e-01	5.6953	5.707728	0.000295	2.950356	0.499804	-0.005901
1432	7.1550e-01	5.6842	5.679505	0.000282	2.822079	0.478073	-0.005645
1433	7.1600e-01	5.6755	5.631183	0.000483	4.831742	0.818519	-0.009664
1434	7.1650e-01	5.6628	5.643157	-0.000120	-1.197246	-0.202819	0.002395
1435	7.1700e-01	5.6549	5.597401	0.000458	4.575189	0.775058	-0.009151
1436	7.1750e-01	5.6473	5.552928	0.000445	4.446913	0.753327	-0.008895
1437	7.1800e-01	5.6372	5.529836	0.000231	2.308974	0.391151	-0.004618
1438	7.1850e-01	5.6245	5.490495	0.000393	3.933807	0.666405	-0.007868
1439	7.1900e-01	5.6152	5.478094	0.000124	1.240005	0.210062	-0.002480
1440	7.1950e-01	5.6055	5.449443	0.000286	2.864838	0.485317	-0.005730
1441	7.2000e-01	5.5963	5.447732	0.000017	0.171035	0.028974	-0.000342
1442	7.2050e-01	5.5841	5.400693	0.000470	4.703465	0.796789	-0.009408
1443	7.2100e-01	5.5743	5.368194	0.000325	3.249667	0.550508	-0.006500
1444	7.2150e-01	5.5678	5.340826	0.000274	2.736562	0.463586	-0.005474
1445	7.2200e-01	5.5557	5.326287	0.000145	1.453798	0.246280	-0.002908
1446	7.2250e-01	5.5481	5.280958	0.000453	4.532430	0.767814	-0.009066
1447	7.2300e-01	5.5359	5.251452	0.000295	2.950356	0.499804	-0.005901
1448	7.2350e-01	5.5249	5.209117	0.000423	4.233119	0.717110	-0.008467
1449	7.2400e-01	5.5182	5.199710	0.000094	0.940693	0.159358	-0.001882
1450	7.2450e-01	5.5060	5.167210	0.000325	3.249667	0.550508	-0.006500
1451	7.2500e-01	5.4956	5.138987	0.000282	2.822079	0.478073	-0.005645
1452	7.2550e-01	5.4852	5.124875	0.000141	1.411040	0.239037	-0.002822
1453	7.2600e-01	5.4755	5.089810	0.000351	3.506220	0.593970	-0.007013
1454	7.2650e-01	5.4675	5.049185	0.000406	4.062084	0.688136	-0.008125
1455	7.2700e-01	5.4550	5.026949	0.000222	2.223456	0.376664	-0.004447
1456	7.2750e-01	5.4474	5.011127	0.000158	1.582075	0.268011	-0.003164
1457	7.2800e-01	5.4373	4.984614	0.000265	2.651044	0.449099	-0.005303
1458	7.2850e-01	5.4239	4.943562	0.000410	4.104842	0.695379	-0.008210
1459	7.2900e-01	5.4150	4.925174	0.000184	1.838627	0.311472	-0.003678
1460	7.2950e-01	5.4065	4.908069	0.000171	1.710351	0.289741	-0.003421
1461	7.3000e-01	5.3952	4.866589	0.000415	4.147601	0.702623	-0.008296
1462	7.3050e-01	5.3836	4.827248	0.000393	3.933807	0.666405	-0.007868
1463	7.3100e-01	5.3754	4.796887	0.000304	3.035873	0.514291	-0.006072
1464	7.3150e-01	5.3663	4.772940	0.000239	2.394491	0.405638	-0.004789
1465	7.3200e-01	5.3528	4.764815	0.000081	0.812417	0.137627	-0.001625
1466	7.3250e-01	5.3438	4.708368	0.000564	5.644158	0.956146	-0.011289
1467	7.3300e-01	5.3366	4.688270	0.000201	2.009662	0.340446	-0.004020
1468	7.3350e-01	5.3253	4.669027	0.000192	1.924145	0.325959	-0.003849
1469	7.3400e-01	5.3168	4.627119	0.000419	4.190360	0.709866	-0.008381
1470	7.3450e-01	5.3088	4.615573	0.000115	1.154487	0.195575	-0.002309
1471	7.3500e-01	5.2945	4.577515	0.000381	3.805531	0.644674	-0.007612
1472	7.3550e-01	5.2872	4.556561	0.000210	2.095180	0.354933	-0.004191
1473	7.3600e-01	5.2750	4.523634	0.000329	3.292426	0.557752	-0.006585
1474	7.3650e-01	5.2673	4.500115	0.000235	2.351733	0.398394	-0.004704
1475	7.3700e-01	5.2551	4.470181	0.000299	2.993114	0.507047	-0.005987
1476	7.3750e-01	5.2454	4.426991	0.000432	4.318636	0.731597	-0.008638
1477	7.3800e-01	5.2362	4.424853	0.000021	0.213794	0.036218	-0.000428
1478	7.3850e-01	5.2234	4.378669	0.000462	4.617948	0.782302	-0.009237
1479	7.3900e-01	5.2136	4.347452	0.000312	3.121391	0.528778	-0.006243
1480	7.3950e-01	5.2022	4.326071	0.000214	2.137939	0.362177	-0.004276
1481	7.4000e-01	5.1965	4.294427	0.000316	3.164149	0.536021	-0.006329
1482	7.4050e-01	5.1840	4.265776	0.000286	2.864838	0.485317	-0.005730
1483	7.4100e-01	5.1740	4.233704	0.000321	3.206908	0.543265	-0.006414
1484	7.4150e-01	5.1667	4.211040	0.000227	2.266215	0.383907	-0.004533
1485	7.4200e-01	5.1544	4.198639	0.000124	1.240005	0.210062	-0.002480
1486	7.4250e-01	5.1462	4.152028	0.000466	4.660707	0.789545	-0.009322
1487	7.4300e-01	5.1389	4.132784	0.000192	1.924145	0.325959	-0.003849
1488	7.4350e-01	5.1247	4.099857	0.000329	3.292426	0.557752	-0.006585
1489	7.4400e-01	5.1138	4.064792	0.000351	3.506220	0.593970	-0.007013
1490	7.4450e-01	5.1056	4.018609	0.000462	4.617948	0.782302	-0.009237
1491	7.4500e-01	5.0967	4.003214	0.000154	1.539316	0.260767	-0.003079
1492	7.4550e-01	5.0890	3.969859	0.000334	3.335185	0.564996	-0.006671
1493	7.4600e-01	5.0763	3.931373	0.000385	3.848290	0.651918	-0.007697
1494	7.4650e-01	5.0653	3.918117	0.000133	1.325522	0.224550	-0.002651
1495	7.4700e-01	5.0568	3.889038	0.000291	2.907597	0.492560	-0.005816
1496	7.4750e-01	5.0464	3.861242	0.000278	2.779320	0.470830	-0.005559
1497	7.4800e-01	5.0333	3.839434	0.000218	2.180698	0.369420	-0.004362
1498	7.4850e-01	5.0275	3.781276	0.000582	5.815194	0.985120	-0.011631
1499	7.4900e-01	5.0159	3.767165	0.000141	1.411040	0.239037	-0.002822
1500	7.4950e-01	5.0073	3.748349	0.000188	1.881386	0.318715	-0.003763
1501	7.5000e-01	4.9957	3.711574	0.000368	3.677255	0.622944	-0.007355
1502	7.5050e-01	4.9867	3.675653	0.000359	3.591737	0.608457	-0.007184
1503	7.5100e-01	4.9762	3.634173	0.000415	4.147601	0.702623	-0.008296
1504	7.5150e-01	4.9658	3.622628	0.000115	1.154487	0.195575	-0.002309
1505	7.5200e-01	4.9564	3.585852	0.000368	3.677255	0.622944	-0.007355
1506	7.5250e-01	4.9455	3.581575	0.000043	0.427588	0.072435	-0.000855
1507	7.5300e-01	4.9350	3.534537	0.000470	4.703465	0.796789	-0.009408
1508	7.5350e-01	4.9239	3.516149	0.000184	1.838627	0.311472	-0.003678
1509	7.5400e-01	4.9139	3.487070	0.000291	2.907597	0.492560	-0.005816
1510	7.5450e-01	4.9055	3.446446	0.000406	4.062084	0.688136	-0.008125
1511	7.5500e-01	4.8932	3.432762	0.000137	1.368281	0.231793	-0.002737
1512	7.5550e-01	4.8846	3.383585	0.000492	4.917259	0.833006	-0.009835
1513	7.5600e-01	4.8769	3.373750	0.000098	0.983452	0.166601	-0.001967
1514	7.5650e-01	4.8659	3.304047	0.000697	6.969680	1.180696	-0.013941
1515	7.5700e-01	4.8543	3.310461	-0.000064	-0.641382	-0.108653	0.001283
1516	7.5750e-01	4.8483	3.281810	0.000286	2.864838	0.485317	-0.005730
1517	7.5800e-01	4.8364	3.251449	0.000304	3.035873	0.514291	-0.006072
1518	7.5850e-01	4.8273	3.208686	0.000428	4.275878	0.724353	-0.008553
1519	7.5900e-01	4.8169	3.206548	0.000021	0.213794	0.036218	-0.000428
1520	7.5950e-01	4.8038	3.161647	0.000449	4.489671	0.760571	-0.008980
1521	7.6000e-01	4.7922	3.119740	0.000419	4.190360	0.709866	-0.008381
1522	7.6050e-01	4.7861	3.094510	0.000252	2.522768	0.427368	-0.005046
1523	7.6100e-01	4.7745	3.065859	0.000286	2.864838	0.485317	-0.005730
1524	7.6150e-01	4.7644	3.026946	0.000389	3.891049	0.659161	-0.007783
1525	7.6200e-01	4.7562	3.011979	0.000150	1.496557	0.253524	-0.002993
1526	7.6250e-01	4.7449	2.966223	0.000458	4.575189	0.775058	-0.009151
1527	7.6300e-01	4.7351	2.945697	0.000205	2.052421	0.347690	-0.004105
1528	7.6350e-01	4.7235	2.925598	0.000201	2.009662	0.340446	-0.004020
1529	7.6400e-01	4.7174	2.888395	0.000372	3.720014	0.630187	-0.007441
1530	7.6450e-01	4.7067	2.850764	0.000376	3.762772	0.637431	-0.007526
1531	7.6500e-01	4.6948	2.831093	0.000197	1.966904	0.333203	-0.003934
1532	7.6550e-01	4.6857	2.812705	0.000184	1.838627	0.311472	-0.003678
1533	7.6600e-01	4.6753	2.790041	0.000227	2.266215	0.383907	-0.004533
1534	7.6650e-01	4.6661	2.751982	0.000381	3.805531	0.644674	-0.007612
1535	7.6700e-01	4.6567	2.702806	0.000492	4.917259	0.833006	-0.009835
1536	7.6750e-01	4.6469	2.682707	0.000201	2.009662	0.340446	-0.004020
1537	7.6800e-01	4.6352	2.645076	0.000376	3.762772	0.637431	-0.007526
1538	7.6850e-01	4.6252	2.609583	0.000355	3.548978	0.601213	-0.007099
1539	7.6900e-01	4.6143	2.595472	0.000141	1.411040	0.239037	-0.002822
1540	7.6950e-01	4.6083	2.568104	0.000274	2.736562	0.463586	-0.005474
1541	7.7000e-01	4.5947	2.525769	0.000423	4.233119	0.717110	-0.008467
1542	7.7050e-01	4.5874	2.490703	0.000351	3.506220	0.593970	-0.007013
1543	7.7100e-01	4.5776	2.462053	0.000286	2.864838	0.485317	-0.005730
1544	7.7150e-01	4.5667	2.440671	0.000214	2.137939	0.362177	-0.004276
1545	7.7200e-01	4.5557	2.411165	0.000295	2.950356	0.499804	-0.005901
1546	7.7250e-01	4.5465	2.368403	0.000428	4.275878	0.724353	-0.008553
1547	7.7300e-01	4.5355	2.347449	0.000210	2.095180	0.354933	-0.004191
1548	7.7350e-01	4.5245	2.318798	0.000286	2.864838	0.485317	-0.005730
1549	7.7400e-01	4.5163	2.285443	0.000334	3.335185	0.564996	-0.006671
1550	7.7450e-01	4.5065	2.268766	0.000167	1.667592	0.282498	-0.003335
1551	7.7500e-01	4.4960	2.240970	0.000278	2.779320	0.470830	-0.005559
1552	7.7550e-01	4.4833	2.193931	0.000470	4.703465	0.796789	-0.009408
1553	7.7600e-01	4.4760	2.177682	0.000162	1.624833	0.275254	-0.003250
1554	7.7650e-01	4.4638	2.136630	0.000410	4.104842	0.695379	-0.008210
1555	7.7700e-01	4.4543	2.116531	0.000201	2.009662	0.340446	-0.004020
1556	7.7750e-01	4.4434	2.089163	0.000274	2.736562	0.463586	-0.005474
1557	7.7800e-01	4.4373	2.054526	0.000346	3.463461	0.586726	-0.006928
1558	7.7850e-01	4.4252	2.008770	0.000458	4.575189	0.775058	-0.009151
1559	7.7900e-01	4.4153	1.979691	0.000291	2.907597	0.492560	-0.005816
1560	7.7950e-01	4.4064	1.950613	0.000291	2.907597	0.492560	-0.005816
1561	7.8000e-01	4.3970	1.933508	0.000171	1.710351	0.289741	-0.003421
1562	7.8050e-01	4.3831	1.914692	0.000188	1.881386	0.318715	-0.003763
1563	7.8100e-01	4.3753	1.866371	0.000483	4.831742	0.818519	-0.009664
1564	7.8150e-01	4.3669	1.836864	0.000295	2.950356	0.499804	-0.005901
1565	7.8200e-01	4.3555	1.803510	0.000334	3.335185	0.564996	-0.006671
1566	7.8250e-01	4.3462	1.773576	0.000299	2.993114	0.507047	-0.005987
1567	7.8300e-01	4.3369	1.735517	0.000381	3.805531	0.644674	-0.007612
1568	7.8350e-01	4.3250	1.696176	0.000393	3.933807	0.666405	-0.007868
1569	7.8400e-01	4.3164	1.677788	0.000184	1.838627	0.311472	-0.003678
1570	7.8450e-01	4.3056	1.655124	0.000227	2.266215	0.383907	-0.004533
1571	7.8500e-01	4.2978	1.618348	0.000368	3.677255	0.622944	-0.007355
1572	7.8550e-01	4.2841	1.598677	0.000197	1.966904	0.333203	-0.003934
1573	7.8600e-01	4.2743	1.581144	0.000175	1.753110	0.296985	-0.003507
1574	7.8650e-01	4.2650	1.530257	0.000509	5.088294	0.861980	-0.010177
1575	7.8700e-01	4.2554	1.494337	0.000359	3.591737	0.608457	-0.007184
1576	7.8750e-01	4.2444	1.459699	0.000346	3.463461	0.586726	-0.006928
1577	7.8800e-01	4.2348	1.436607	0.000231	2.308974	0.391151	-0.004618
1578	7.8850e-01	4.2268	1.429337	0.000073	0.726899	0.123140	-0.001454
1579	7.8900e-01	4.2142	1.378022	0.000513	5.131053	0.869224	-0.010263
1580	7.8950e-01	4.2033	1.343812	0.000342	3.420702	0.579483	-0.006842
1581	7.9000e-01	4.1975	1.311313	0.000325	3.249667	0.550508	-0.006500
1582	7.9050e-01	4.1846	1.300622	0.000107	1.068969	0.181088	-0.002138
1583	7.9100e-01	4.1743	1.242038	0.000586	5.857952	0.992364	-0.011717
1584	7.9150e-01	4.1650	1.233057	0.000090	0.897934	0.152114	-0.001796
1585	7.9200e-01	4.1602	1.181742	0.000513	5.131053	0.869224	-0.010263
1586	7.9250e-01	4.1437	1.162499	0.000192	1.924145	0.325959	-0.003849
1587	7.9300e-01	4.1317	1.152236	0.000103	1.026211	0.173845	-0.002053
1588	7.9350e-01	4.1251	1.112467	0.000398	3.976566	0.673649	-0.007954
1589	7.9400e-01	4.1113	1.076547	0.000359	3.591737	0.608457	-0.007184
1590	7.9450e-01	4.1058	1.019672	0.000569	5.686917	0.963390	-0.011375
1591	7.9500e-01	4.0945	0.998719	0.000210	2.095180	0.354933	-0.004191
1592	7.9550e-01	4.0833	0.966219	0.000325	3.249667	0.550508	-0.006500
1593	7.9600e-01	4.0759	0.934147	0.000321	3.206908	0.543265	-0.006414
1594	7.9650e-01	4.0662	0.908918	0.000252	2.522768	0.427368	-0.005046
1595	7.9700e-01	4.0553	0.878984	0.000299	2.993114	0.507047	-0.005987
1596	7.9750e-01	4.0451	0.848622	0.000304	3.035873	0.514291	-0.006072
1597	7.9800e-01	4.0332	0.814412	0.000342	3.420702	0.579483	-0.006842
1598	7.9850e-01	4.0234	0.800301	0.000141	1.411040	0.239037	-0.002822
1599	7.9900e-01	4.0176	0.742999	0.000573	5.729676	0.970633	-0.011460
1600	7.9950e-01	4.0033	0.707934	0.000351	3.506220	0.593970	-0.007013
1601	8.0000e-01	3.9948	0.684842	0.000231	2.308974	0.391151	-0.004618
1602	8.0050e-01	3.9844	0.664316	0.000205	2.052421	0.347690	-0.004105
1603	8.0100e-01	3.9749	0.632244	0.000321	3.206908	0.543265	-0.006414
1604	8.0150e-01	3.9676	0.610435	0.000218	2.180698	0.369420	-0.004362
1605	8.0200e-01	3.9560	0.552706	0.000577	5.772435	0.977877	-0.011546
1606	8.0250e-01	3.9467	0.542015	0.000107	1.068969	0.181088	-0.002138
1607	8.0300e-01	3.9355	0.489845	0.000522	5.216571	0.883711	-0.010434
1608	8.0350e-01	3.9218	0.462477	0.000274	2.736562	0.463586	-0.005474
1609	8.0400e-01	3.9136	0.447510	0.000150	1.496557	0.253524	-0.002993
1610	8.0450e-01	3.9044	0.390208	0.000573	5.729676	0.970633	-0.011460
1611	8.0500e-01	3.8956	0.376952	0.000133	1.325522	0.224550	-0.002651
1612	8.0550e-01	3.8857	0.352149	0.000248	2.480009	0.420125	-0.004960
1613	8.0600e-01	3.8736	0.305966	0.000462	4.617948	0.782302	-0.009237
1614	8.0650e-01	3.8635	0.267480	0.000385	3.848290	0.651918	-0.007697
1615	8.0700e-01	3.8568	0.266197	0.000013	0.128276	0.021731	-0.000257
1616	8.0750e-01	3.8437	0.208895	0.000573	5.729676	0.970633	-0.011460
1617	8.0800e-01	3.8351	0.188369	0.000205	2.052421	0.347690	-0.004105
1618	8.0850e-01	3.8254	0.159718	0.000286	2.864838	0.485317	-0.005730
1619	8.0900e-01	3.8148	0.142185	0.000175	1.753110	0.296985	-0.003507
1620	8.0950e-01	3.8043	0.088305	0.000539	5.387606	0.912685	-0.010776
1621	8.1000e-01	3.7967	0.057088	0.000312	3.121391	0.528778	-0.006243
1622	8.1050e-01	3.7854	0.036990	0.000201	2.009662	0.340446	-0.004020
1623	8.1100e-01	3.7790	0.003207	0.000338	3.377943	0.572239	-0.006756
1624	8.1150e-01	3.7640	-0.048963	0.000522	5.216571	0.883711	-0.010434
1625	8.1200e-01	3.7567	-0.091726	0.000428	4.275878	0.724353	-0.008553
1626	8.1250e-01	3.7457	-0.106693	0.000150	1.496557	0.253524	-0.002993
1627	8.1300e-01	3.7387	-0.135771	0.000291	2.907597	0.492560	-0.005816
1628	8.1350e-01	3.7250	-0.154159	0.000184	1.838627	0.311472	-0.003678
1629	8.1400e-01	3.7146	-0.189652	0.000355	3.548978	0.601213	-0.007099
1630	8.1450e-01	3.7042	-0.237973	0.000483	4.831742	0.818519	-0.009664
1631	8.1500e-01	3.6966	-0.258072	0.000201	2.009662	0.340446	-0.004020
1632	8.1550e-01	3.6877	-0.302117	0.000440	4.404154	0.746084	-0.008809
1633	8.1600e-01	3.6755	-0.311525	0.000094	0.940693	0.159358	-0.001882
1634	8.1650e-01	3.6676	-0.353860	0.000423	4.233119	0.717110	-0.008467
1635	8.1700e-01	3.6551	-0.378235	0.000244	2.437250	0.412881	-0.004875
1636	8.1750e-01	3.6453	-0.424846	0.000466	4.660707	0.789545	-0.009322
1637	8.1800e-01	3.6337	-0.460339	0.000355	3.548978	0.601213	-0.007099
1638	8.1850e-01	3.6258	-0.491983	0.000316	3.164149	0.536021	-0.006329
1639	8.1900e-01	3.6172	-0.513792	0.000218	2.180698	0.369420	-0.004362
1640	8.1950e-01	3.6063	-0.561686	0.000479	4.788983	0.811276	-0.009579
1641	8.2000e-01	3.5970	-0.583922	0.000222	2.223456	0.376664	-0.004447
1642	8.2050e-01	3.5831	-0.625402	0.000415	4.147601	0.702623	-0.008296
1643	8.2100e-01	3.5748	-0.655763	0.000304	3.035873	0.514291	-0.006072
1644	8.2150e-01	3.5669	-0.665599	0.000098	0.983452	0.166601	-0.001967
1645	8.2200e-01	3.5565	-0.691256	0.000257	2.565527	0.434612	-0.005132
1646	8.2250e-01	3.5440	-0.735302	0.000440	4.404154	0.746084	-0.008809
1647	8.2300e-01	3.5333	-0.775926	0.000406	4.062084	0.688136	-0.008125
1648	8.2350e-01	3.5260	-0.801156	0.000252	2.522768	0.427368	-0.005046
1649	8.2400e-01	3.5144	-0.840925	0.000398	3.976566	0.673649	-0.007954
1650	8.2450e-01	3.5045	-0.859313	0.000184	1.838627	0.311472	-0.003678
1651	8.2500e-01	3.4949	-0.910628	0.000513	5.131053	0.869224	-0.010263
1652	8.2550e-01	3.4851	-0.944410	0.000338	3.377943	0.572239	-0.006756
1653	8.2600e-01	3.4736	-0.981186	0.000368	3.677255	0.622944	-0.007355
1654	8.2650e-01	3.4627	-0.997864	0.000167	1.667592	0.282498	-0.003335
1655	8.2700e-01	3.4561	-1.061152	0.000633	6.328299	1.072043	-0.012658
1656	8.2750e-01	3.4454	-1.077402	0.000162	1.624833	0.275254	-0.003250
1657	8.2800e-01	3.4343	-1.109901	0.000325	3.249667	0.550508	-0.006500
1658	8.2850e-01	3.4256	-1.165920	0.000560	5.601400	0.948903	-0.011204
1659	8.2900e-01	3.4161	-1.180887	0.000150	1.496557	0.253524	-0.002993
1660	8.2950e-01	3.4048	-1.206545	0.000257	2.565527	0.434612	-0.005132
1661	8.3000e-01	3.3972	-1.259998	0.000534	5.344847	0.905442	-0.010691
1662	8.3050e-01	3.3856	-1.272399	0.000124	1.240005	0.210062	-0.002480
1663	8.3100e-01	3.3742	-1.311313	0.000389	3.891049	0.659161	-0.007783
1664	8.3150e-01	3.3630	-1.354931	0.000436	4.361395	0.738840	-0.008724
1665	8.3200e-01	3.3541	-1.373319	0.000184	1.838627	0.311472	-0.003678
1666	8.3250e-01	3.3456	-1.413088	0.000398	3.976566	0.673649	-0.007954
1667	8.3300e-01	3.3344	-1.440883	0.000278	2.779320	0.470830	-0.005559
1668	8.3350e-01	3.3267	-1.475093	0.000342	3.420702	0.579483	-0.006842
1669	8.3400e-01	3.3167	-1.504600	0.000295	2.950356	0.499804	-0.005901
1670	8.3450e-01	3.3033	-1.534106	0.000295	2.950356	0.499804	-0.005901
1671	8.3500e-01	3.2935	-1.537954	0.000038	0.384829	0.065192	-0.000770
1672	8.3550e-01	3.2862	-1.598249	0.000603	6.028987	1.021338	-0.012059
1673	8.3600e-01	3.2761	-1.633315	0.000351	3.506220	0.593970	-0.007013
1674	8.3650e-01	3.2663	-1.668380	0.000351	3.506220	0.593970	-0.007013
1675	8.3700e-01	3.2552	-1.714136	0.000458	4.575189	0.775058	-0.009151
1676	8.3750e-01	3.2461	-1.723971	0.000098	0.983452	0.166601	-0.001967
1677	8.3800e-01	3.2352	-1.774003	0.000500	5.002777	0.847493	-0.010006
1678	8.3850e-01	3.2263	-1.820187	0.000462	4.617948	0.782302	-0.009237
1679	8.3900e-01	3.2146	-1.831733	0.000115	1.154487	0.195575	-0.002309
1680	8.3950e-01	3.2040	-1.882620	0.000509	5.088294	0.861980	-0.010177
1681	8.4000e-01	3.1956	-1.885614	0.000030	0.299311	0.050705	-0.000599
1682	8.4050e-01	3.1849	-1.937356	0.000517	5.173812	0.876467	-0.010349
1683	8.4100e-01	3.1769	-1.971139	0.000338	3.377943	0.572239	-0.006756
1684	8.4150e-01	3.1647	-2.009625	0.000385	3.848290	0.651918	-0.007697
1685	8.4200e-01	3.1531	-2.018177	0.000086	0.855176	0.144871	-0.001711
1686	8.4250e-01	3.1425	-2.047684	0.000295	2.950356	0.499804	-0.005901
1687	8.4300e-01	3.1323	-2.080183	0.000325	3.249667	0.550508	-0.006500
1688	8.4350e-01	3.1265	-2.131498	0.000513	5.131053	0.869224	-0.010263
1689	8.4400e-01	3.1189	-2.184951	0.000534	5.344847	0.905442	-0.010691
1690	8.4450e-01	3.1067	-2.200346	0.000154	1.539316	0.260767	-0.003079
1691	8.4500e-01	3.0958	-2.242681	0.000423	4.233119	0.717110	-0.008467
1692	8.4550e-01	3.0872	-2.261069	0.000184	1.838627	0.311472	-0.003678
1693	8.4600e-01	3.0760	-2.302121	0.000410	4.104842	0.695379	-0.008210
1694	8.4650e-01	3.0670	-2.350015	0.000479	4.788983	0.811276	-0.009579
1695	8.4700e-01	3.0542	-2.373962	0.000239	2.394491	0.405638	-0.004789
1696	8.4750e-01	3.0432	-2.389356	0.000154	1.539316	0.260767	-0.003079
1697	8.4800e-01	3.0334	-2.447086	0.000577	5.772435	0.977877	-0.011546
1698	8.4850e-01	3.0225	-2.470177	0.000231	2.308974	0.391151	-0.004618
1699	8.4900e-01	3.0154	-2.536459	0.000663	6.627610	1.122748	-0.013256
1700	8.4950e-01	3.0063	-2.533038	-0.000034	-0.342070	-0.057948	0.000684
1701	8.5000e-01	2.9935	-2.569386	0.000363	3.634496	0.615700	-0.007270
1702	8.5050e-01	2.9868	-2.600175	0.000308	3.078632	0.521534	-0.006158
1703	8.5100e-01	2.9755	-2.633530	0.000334	3.335185	0.564996	-0.006671
1704	8.5150e-01	2.9657	-2.677148	0.000436	4.361395	0.738840	-0.008724
1705	8.5200e-01	2.9555	-2.716917	0.000398	3.976566	0.673649	-0.007954
1706	8.5250e-01	2.9464	-2.745568	0.000286	2.864838	0.485317	-0.005730
1707	8.5300e-01	2.9358	-2.759680	0.000141	1.411040	0.239037	-0.002822
1708	8.5350e-01	2.9243	-2.810139	0.000505	5.045536	0.854737	-0.010092
1709	8.5400e-01	2.9152	-2.840073	0.000299	2.993114	0.507047	-0.005987
1710	8.5450e-01	2.9047	-2.879842	0.000398	3.976566	0.673649	-0.007954
1711	8.5500e-01	2.8957	-2.897803	0.000180	1.795869	0.304228	-0.003592
1712	8.5550e-01	2.8848	-2.956387	0.000586	5.857952	0.992364	-0.011717
1713	8.5600e-01	2.8751	-2.977341	0.000210	2.095180	0.354933	-0.004191
1714	8.5650e-01	2.8681	-3.016683	0.000393	3.933807	0.666405	-0.007868
1715	8.5700e-01	2.8546	-3.041057	0.000244	2.437250	0.412881	-0.004875
1716	8.5750e-01	2.8436	-3.076122	0.000351	3.506220	0.593970	-0.007013
1717	8.5800e-01	2.8345	-3.113326	0.000372	3.720014	0.630187	-0.007441
1718	8.5850e-01	2.8254	-3.153095	0.000398	3.976566	0.673649	-0.007954
1719	8.5900e-01	2.8168	-3.202699	0.000496	4.960018	0.840250	-0.009921
1720	8.5950e-01	2.8046	-3.246745	0.000440	4.404154	0.746084	-0.008809
1721	8.6000e-01	2.7943	-3.251021	0.000043	0.427588	0.072435	-0.000855
1722	8.6050e-01	2.7846	-3.295494	0.000445	4.446913	0.753327	-0.008895
1723	8.6100e-01	2.7740	-3.333980	0.000385	3.848290	0.651918	-0.007697
1724	8.6150e-01	2.7658	-3.352368	0.000184	1.838627	0.311472	-0.003678
1725	8.6200e-01	2.7565	-3.403256	0.000509	5.088294	0.861980	-0.010177
1726	8.6250e-01	2.7485	-3.433617	0.000304	3.035873	0.514291	-0.006072
1727	8.6300e-01	2.7357	-3.470821	0.000372	3.720014	0.630187	-0.007441
1728	8.6350e-01	2.7272	-3.508452	0.000376	3.762772	0.637431	-0.007526
1729	8.6400e-01	2.7133	-3.555918	0.000475	4.746224	0.804032	-0.009493
1730	8.6450e-01	2.7028	-3.560622	0.000047	0.470347	0.079679	-0.000941
1731	8.6500e-01	2.6965	-3.606805	0.000462	4.617948	0.782302	-0.009237
1732	8.6550e-01	2.6846	-3.635029	0.000282	2.822079	0.478073	-0.005645
1733	8.6600e-01	2.6734	-3.668811	0.000338	3.377943	0.572239	-0.006756
1734	8.6650e-01	2.6649	-3.706870	0.000381	3.805531	0.644674	-0.007612
1735	8.6700e-01	2.6559	-3.737659	0.000308	3.078632	0.521534	-0.006158
1736	8.6750e-01	2.6440	-3.780421	0.000428	4.275878	0.724353	-0.008553
1737	8.6800e-01	2.6331	-3.808645	0.000282	2.822079	0.478073	-0.005645
1738	8.6850e-01	2.6247	-3.853973	0.000453	4.532430	0.767814	-0.009066
1739	8.6900e-01	2.6144	-3.885617	0.000316	3.164149	0.536021	-0.006329
1740	8.6950e-01	2.6039	-3.904860	0.000192	1.924145	0.325959	-0.003849
1741	8.7000e-01	2.5949	-3.961734	0.000569	5.686917	0.963390	-0.011375
1742	8.7050e-01	2.5885	-4.016898	0.000552	5.515882	0.934416	-0.011033
1743	8.7100e-01	2.5772	-4.028872	0.000120	1.197246	0.202819	-0.002395
1744	8.7150e-01	2.5641	-4.053246	0.000244	2.437250	0.412881	-0.004875
1745	8.7200e-01	2.5546	-4.104561	0.000513	5.131053	0.869224	-0.010263
1746	8.7250e-01	2.5452	-4.141765	0.000372	3.720014	0.630187	-0.007441
1747	8.7300e-01	2.5351	-4.166139	0.000244	2.437250	0.412881	-0.004875
1748	8.7350e-01	2.5256	-4.202487	0.000363	3.634496	0.615700	-0.007270
1749	8.7400e-01	2.5141	-4.226862	0.000244	2.437250	0.412881	-0.004875
1750	8.7450e-01	2.5032	-4.284164	0.000573	5.729676	0.970633	-0.011460
1751	8.7500e-01	2.4968	-4.308111	0.000239	2.394491	0.405638	-0.004789
1752	8.7550e-01	2.4857	-4.344459	0.000363	3.634496	0.615700	-0.007270
1753	8.7600e-01	2.4750	-4.381662	0.000372	3.720014	0.630187	-0.007441
1754	8.7650e-01	2.4670	-4.410741	0.000291	2.907597	0.492560	-0.005816
1755	8.7700e-01	2.4560	-4.461201	0.000505	5.045536	0.854737	-0.010092
1756	8.7750e-01	2.4487	-4.479589	0.000184	1.838627	0.311472	-0.003678
1757	8.7800e-01	2.4350	-4.521496	0.000419	4.190360	0.709866	-0.008381
1758	8.7850e-01	2.4255	-4.567252	0.000458	4.575189	0.775058	-0.009151
1759	8.7900e-01	2.4149	-4.580081	0.000128	1.282763	0.217306	-0.002566
1760	8.7950e-01	2.4069	-4.654915	0.000748	7.482786	1.267618	-0.014967
1761	8.8000e-01	2.3965	-4.663467	0.000086	0.855176	0.144871	-0.001711
1762	8.8050e-01	2.3846	-4.691263	0.000278	2.779320	0.470830	-0.005559
1763	8.8100e-01	2.3758	-4.736591	0.000453	4.532430	0.767814	-0.009066
1764	8.8150e-01	2.3674	-4.787479	0.000509	5.088294	0.861980	-0.010177
1765	8.8200e-01	2.3560	-4.799452	0.000120	1.197246	0.202819	-0.002395
1766	8.8250e-01	2.3447	-4.855899	0.000564	5.644158	0.956146	-0.011289
1767	8.8300e-01	2.3344	-4.897378	0.000415	4.147601	0.702623	-0.008296
1768	8.8350e-01	2.3257	-4.905931	0.000086	0.855176	0.144871	-0.001711
1769	8.8400e-01	2.3141	-4.938430	0.000325	3.249667	0.550508	-0.006500
1770	8.8450e-01	2.3035	-5.000009	0.000616	6.157264	1.043069	-0.012316
1771	8.8500e-01	2.2949	-5.012410	0.000124	1.240005	0.210062	-0.002480
1772	8.8550e-01	2.2847	-5.058166	0.000458	4.575189	0.775058	-0.009151
1773	8.8600e-01	2.2743	-5.094514	0.000363	3.634496	0.615700	-0.007270
1774	8.8650e-01	2.2659	-5.139842	0.000453	4.532430	0.767814	-0.009066
1775	8.8700e-01	2.2533	-5.174480	0.000346	3.463461	0.586726	-0.006928
1776	8.8750e-01	2.2449	-5.215104	0.000406	4.062084	0.688136	-0.008125
1777	8.8800e-01	2.2345	-5.231354	0.000162	1.624833	0.275254	-0.003250
1778	8.8850e-01	2.2250	-5.279675	0.000483	4.831742	0.818519	-0.009664
1779	8.8900e-01	2.2141	-5.317734	0.000381	3.805531	0.644674	-0.007612
1780	8.8950e-01	2.2063	-5.348095	0.000304	3.035873	0.514291	-0.006072
1781	8.9000e-01	2.1937	-5.387009	0.000389	3.891049	0.659161	-0.007783
1782	8.9050e-01	2.1847	-5.421219	0.000342	3.420702	0.579483	-0.006842
1783	8.9100e-01	2.1738	-5.464837	0.000436	4.361395	0.738840	-0.008724
1784	8.9150e-01	2.1632	-5.510165	0.000453	4.532430	0.767814	-0.009066
1785	8.9200e-01	2.1546	-5.529836	0.000197	1.966904	0.333203	-0.003934
1786	8.9250e-01	2.1460	-5.558915	0.000291	2.907597	0.492560	-0.005816
1787	8.9300e-01	2.1343	-5.599112	0.000402	4.019325	0.680892	-0.008039
1788	8.9350e-01	2.1252	-5.636315	0.000372	3.720014	0.630187	-0.007441
1789	8.9400e-01	2.1146	-5.679505	0.000432	4.318636	0.731597	-0.008638
1790	8.9450e-01	2.1046	-5.706445	0.000269	2.693803	0.456343	-0.005388
1791	8.9500e-01	2.0949	-5.738090	0.000316	3.164149	0.536021	-0.006329
1792	8.9550e-01	2.0852	-5.808648	0.000706	7.055198	1.195183	-0.014112
1793	8.9600e-01	2.0761	-5.830457	0.000218	2.180698	0.369420	-0.004362
1794	8.9650e-01	2.0648	-5.869371	0.000389	3.891049	0.659161	-0.007783
1795	8.9700e-01	2.0554	-5.901015	0.000316	3.164149	0.536021	-0.006329
1796	8.9750e-01	2.0462	-5.961738	0.000607	6.071746	1.028582	-0.012145
1797	8.9800e-01	2.0371	-5.968580	0.000068	0.684140	0.115897	-0.001368
1798	8.9850e-01	2.0258	-5.999369	0.000308	3.078632	0.521534	-0.006158
1799	8.9900e-01	2.0164	-6.045125	0.000458	4.575189	0.775058	-0.009151
1800	8.9950e-01	2.0053	-6.075058	0.000299	2.993114	0.507047	-0.005987
1801	9.0000e-01	1.9952	-6.119531	0.000445	4.446913	0.753327	-0.008895
1802	9.0050e-01	1.9819	-6.155452	0.000359	3.591737	0.608457	-0.007184
1803	9.0100e-01	1.9751	-6.187524	0.000321	3.206908	0.543265	-0.006414
1804	9.0150e-01	1.9662	-6.233280	0.000458	4.575189	0.775058	-0.009151
1805	9.0200e-01	1.9546	-6.270056	0.000368	3.677255	0.622944	-0.007355
1806	9.0250e-01	1.9450	-6.305548	0.000355	3.548978	0.601213	-0.007099
1807	9.0300e-01	1.9351	-6.347456	0.000419	4.190360	0.709866	-0.008381
1808	9.0350e-01	1.9265	-6.385942	0.000385	3.848290	0.651918	-0.007697
1809	9.0400e-01	1.9144	-6.422290	0.000363	3.634496	0.615700	-0.007270
1810	9.0450e-01	1.9054	-6.450513	0.000282	2.822079	0.478073	-0.005645
1811	9.0500e-01	1.8964	-6.503539	0.000530	5.302088	0.898198	-0.010605
1812	9.0550e-01	1.8835	-6.527058	0.000235	2.351733	0.398394	-0.004704
1813	9.0600e-01	1.8756	-6.549723	0.000227	2.266215	0.383907	-0.004533
1814	9.0650e-01	1.8623	-6.617715	0.000680	6.798645	1.151722	-0.013598
1815	9.0700e-01	1.8585	-6.636103	0.000184	1.838627	0.311472	-0.003678
1816	9.0750e-01	1.8454	-6.688273	0.000522	5.216571	0.883711	-0.010434
1817	9.0800e-01	1.8349	-6.716069	0.000278	2.779320	0.470830	-0.005559
1818	9.0850e-01	1.8262	-6.764818	0.000487	4.874500	0.825763	-0.009750
1819	9.0900e-01	1.8140	-6.781068	0.000162	1.624833	0.275254	-0.003250
1820	9.0950e-01	1.8057	-6.824686	0.000436	4.361395	0.738840	-0.008724
1821	9.1000e-01	1.7931	-6.870869	0.000462	4.617948	0.782302	-0.009237
1822	9.1050e-01	1.7860	-6.899520	0.000286	2.864838	0.485317	-0.005730
1823	9.1100e-01	1.7738	-6.947842	0.000483	4.831742	0.818519	-0.009664
1824	9.1150e-01	1.7667	-6.975637	0.000278	2.779320	0.470830	-0.005559
1825	9.1200e-01	1.7545	-7.014124	0.000385	3.848290	0.651918	-0.007697
1826	9.1250e-01	1.7462	-7.058169	0.000440	4.404154	0.746084	-0.008809
1827	9.1300e-01	1.7354	-7.095372	0.000372	3.720014	0.630187	-0.007441
1828	9.1350e-01	1.7268	-7.148398	0.000530	5.302088	0.898198	-0.010605
1829	9.1400e-01	1.7163	-7.175338	0.000269	2.693803	0.456343	-0.005388
1830	9.1450e-01	1.7039	-7.209121	0.000338	3.377943	0.572239	-0.006756
1831	9.1500e-01	1.6953	-7.263001	0.000539	5.387606	0.912685	-0.010776
1832	9.1550e-01	1.6846	-7.294218	0.000312	3.121391	0.528778	-0.006243
1833	9.1600e-01	1.6744	-7.327145	0.000329	3.292426	0.557752	-0.006585
1834	9.1650e-01	1.6649	-7.361783	0.000346	3.463461	0.586726	-0.006928
1835	9.1700e-01	1.6537	-7.411815	0.000500	5.002777	0.847493	-0.010006
1836	9.1750e-01	1.6451	-7.473821	0.000620	6.200023	1.050312	-0.012401
1837	9.1800e-01	1.6363	-7.476386	0.000026	0.256553	0.043461	-0.000513
1838	9.1850e-01	1.6239	-7.499906	0.000235	2.351733	0.398394	-0.004704
1839	9.1900e-01	1.6150	-7.558491	0.000586	5.857952	0.992364	-0.011717
1840	9.1950e-01	1.6050	-7.611516	0.000530	5.302088	0.898198	-0.010605
1841	9.2000e-01	1.5945	-7.632470	0.000210	2.095180	0.354933	-0.004191
1842	9.2050e-01	1.5842	-7.681219	0.000487	4.874500	0.825763	-0.009750
1843	9.2100e-01	1.5735	-7.728258	0.000470	4.703465	0.796789	-0.009408
1844	9.2150e-01	1.5634	-7.753060	0.000248	2.480009	0.420125	-0.004960
1845	9.2200e-01	1.5517	-7.803947	0.000509	5.088294	0.861980	-0.010177
1846	9.2250e-01	1.5437	-7.819770	0.000158	1.582075	0.268011	-0.003164
1847	9.2300e-01	1.5347	-7.863387	0.000436	4.361395	0.738840	-0.008724
1848	9.2350e-01	1.5275	-7.917696	0.000543	5.430365	0.919929	-0.010862
1849	9.2400e-01	1.5165	-7.933090	0.000154	1.539316	0.260767	-0.003079
1850	9.2450e-01	1.5034	-7.972859	0.000398	3.976566	0.673649	-0.007954
1851	9.2500e-01	1.4967	-8.020326	0.000475	4.746224	0.804032	-0.009493
1852	9.2550e-01	1.4825	-8.063516	0.000432	4.318636	0.731597	-0.008638
1853	9.2600e-01	1.4753	-8.111410	0.000479	4.788983	0.811276	-0.009579
1854	9.2650e-01	1.4655	-8.131936	0.000205	2.052421	0.347690	-0.004105
1855	9.2700e-01	1.4587	-8.185389	0.000534	5.344847	0.905442	-0.010691
1856	9.2750e-01	1.4465	-8.222593	0.000372	3.720014	0.630187	-0.007441
1857	9.2800e-01	1.4343	-8.246112	0.000235	2.351733	0.398394	-0.004704
1858	9.2850e-01	1.4267	-8.285026	0.000389	3.891049	0.659161	-0.007783
1859	9.2900e-01	1.4153	-8.335058	0.000500	5.002777	0.847493	-0.010006
1860	9.2950e-01	1.4053	-8.373544	0.000385	3.848290	0.651918	-0.007697
1861	9.3000e-01	1.3960	-8.430418	0.000569	5.686917	0.963390	-0.011375
1862	9.3050e-01	1.3867	-8.448806	0.000184	1.838627	0.311472	-0.003678
1863	9.3100e-01	1.3731	-8.512523	0.000637	6.371058	1.079286	-0.012743
1864	9.3150e-01	1.3661	-8.542884	0.000304	3.035873	0.514291	-0.006072
1865	9.3200e-01	1.3543	-8.592488	0.000496	4.960018	0.840250	-0.009921
1866	9.3250e-01	1.3431	-8.616435	0.000239	2.394491	0.405638	-0.004789
1867	9.3300e-01	1.3338	-8.669889	0.000534	5.344847	0.905442	-0.010691
1868	9.3350e-01	1.3242	-8.702816	0.000329	3.292426	0.557752	-0.006585
1869	9.3400e-01	1.3145	-8.735743	0.000329	3.292426	0.557752	-0.006585
1870	9.3450e-01	1.3045	-8.768242	0.000325	3.249667	0.550508	-0.006500
1871	9.3500e-01	1.2929	-8.811005	0.000428	4.275878	0.724353	-0.008553
1872	9.3550e-01	1.2833	-8.846498	0.000355	3.548978	0.601213	-0.007099
1873	9.3600e-01	1.2766	-8.904655	0.000582	5.815194	0.985120	-0.011631
1874	9.3650e-01	1.2642	-8.940575	0.000359	3.591737	0.608457	-0.007184
1875	9.3700e-01	1.2527	-8.967943	0.000274	2.736562	0.463586	-0.005474
1876	9.3750e-01	1.2438	-9.000871	0.000329	3.292426	0.557752	-0.006585
1877	9.3800e-01	1.2347	-9.026100	0.000252	2.522768	0.427368	-0.005046
1878	9.3850e-01	1.2250	-9.100080	0.000740	7.397268	1.253131	-0.014796
1879	9.3900e-01	1.2158	-9.140704	0.000406	4.062084	0.688136	-0.008125
1880	9.3950e-01	1.2039	-9.181756	0.000410	4.104842	0.695379	-0.008210
1881	9.4000e-01	1.1942	-9.210835	0.000291	2.907597	0.492560	-0.005816
1882	9.4050e-01	1.1858	-9.247610	0.000368	3.677255	0.622944	-0.007355
1883	9.4100e-01	1.1743	-9.312609	0.000650	6.499334	1.101017	-0.013000
1884	9.4150e-01	1.1652	-9.336984	0.000244	2.437250	0.412881	-0.004875
1885	9.4200e-01	1.1559	-9.362214	0.000252	2.522768	0.427368	-0.005046
1886	9.4250e-01	1.1459	-9.387016	0.000248	2.480009	0.420125	-0.004960
1887	9.4300e-01	1.1347	-9.449450	0.000624	6.242781	1.057556	-0.012487
1888	9.4350e-01	1.1267	-9.482377	0.000329	3.292426	0.557752	-0.006585
1889	9.4400e-01	1.1156	-9.530271	0.000479	4.788983	0.811276	-0.009579
1890	9.4450e-01	1.1046	-9.585862	0.000556	5.558641	0.941659	-0.011118
1891	9.4500e-01	1.0992	-9.603822	0.000180	1.795869	0.304228	-0.003592
1892	9.4550e-01	1.0840	-9.668821	0.000650	6.499334	1.101017	-0.013000
1893	9.4600e-01	1.0751	-9.700893	0.000321	3.206908	0.543265	-0.006414
1894	9.4650e-01	1.0648	-9.742800	0.000419	4.190360	0.709866	-0.008381
1895	9.4700e-01	1.0544	-9.787701	0.000449	4.489671	0.760571	-0.008980
1896	9.4750e-01	1.0468	-9.816780	0.000291	2.907597	0.492560	-0.005816
1897	9.4800e-01	1.0378	-9.851845	0.000351	3.506220	0.593970	-0.007013
1898	9.4850e-01	1.0233	-9.880923	0.000291	2.907597	0.492560	-0.005816
1899	9.4900e-01	1.0138	-9.935232	0.000543	5.430365	0.919929	-0.010862
1900	9.4950e-01	1.0050	-9.991251	0.000560	5.601400	0.948903	-0.011204
1901	9.5000e-01	0.9952	-10.029737	0.000385	3.848290	0.651918	-0.007697
1902	9.5050e-01	0.9862	-10.078914	0.000492	4.917259	0.833006	-0.009835
1903	9.5100e-01	0.9739	-10.088322	0.000094	0.940693	0.159358	-0.001882
1904	9.5150e-01	0.9666	-10.152465	0.000641	6.413816	1.086530	-0.012829
1905	9.5200e-01	0.9573	-10.201642	0.000492	4.917259	0.833006	-0.009835
1906	9.5250e-01	0.9445	-10.216182	0.000145	1.453798	0.246280	-0.002908
1907	9.5300e-01	0.9338	-10.269207	0.000530	5.302088	0.898198	-0.010605
1908	9.5350e-01	0.9241	-10.318384	0.000492	4.917259	0.833006	-0.009835
1909	9.5400e-01	0.9135	-10.353022	0.000346	3.463461	0.586726	-0.006928
1910	9.5450e-01	0.9058	-10.390653	0.000376	3.762772	0.637431	-0.007526
1911	9.5500e-01	0.8978	-10.442823	0.000522	5.216571	0.883711	-0.010434
1912	9.5550e-01	0.8842	-10.491572	0.000487	4.874500	0.825763	-0.009750
1913	9.5600e-01	0.8777	-10.524072	0.000325	3.249667	0.550508	-0.006500
1914	9.5650e-01	0.8647	-10.551440	0.000274	2.736562	0.463586	-0.005474
1915	9.5700e-01	0.8543	-10.596340	0.000449	4.489671	0.760571	-0.008980
1916	9.5750e-01	0.8467	-10.653642	0.000573	5.729676	0.970633	-0.011460
1917	9.5800e-01	0.8340	-10.684004	0.000304	3.035873	0.514291	-0.006072
1918	9.5850e-01	0.8231	-10.741305	0.000573	5.729676	0.970633	-0.011460
1919	9.5900e-01	0.8157	-10.784923	0.000436	4.361395	0.738840	-0.008724
1920	9.5950e-01	0.8055	-10.801173	0.000162	1.624833	0.275254	-0.003250
1921	9.6000e-01	0.7953	-10.858047	0.000569	5.686917	0.963390	-0.011375
1922	9.6050e-01	0.7840	-10.902093	0.000440	4.404154	0.746084	-0.008809
1923	9.6100e-01	0.7750	-10.943572	0.000415	4.147601	0.702623	-0.008296
1924	9.6150e-01	0.7643	-10.987190	0.000436	4.361395	0.738840	-0.008724
1925	9.6200e-01	0.7565	-11.029097	0.000419	4.190360	0.709866	-0.008381
1926	9.6250e-01	0.7453	-11.070577	0.000415	4.147601	0.702623	-0.008296
1927	9.6300e-01	0.7350	-11.112057	0.000415	4.147601	0.702623	-0.008296
1928	9.6350e-01	0.7278	-11.157385	0.000453	4.532430	0.767814	-0.009066
1929	9.6400e-01	0.7160	-11.187746	0.000304	3.035873	0.514291	-0.006072
1930	9.6450e-01	0.7038	-11.237351	0.000496	4.960018	0.840250	-0.009921
1931	9.6500e-01	0.6963	-11.277548	0.000402	4.019325	0.680892	-0.008039
1932	9.6550e-01	0.6848	-11.325869	0.000483	4.831742	0.818519	-0.009664
1933	9.6600e-01	0.6747	-11.372908	0.000470	4.703465	0.796789	-0.009408
1934	9.6650e-01	0.6662	-11.405408	0.000325	3.249667	0.550508	-0.006500
1935	9.6700e-01	0.6545	-11.451163	0.000458	4.575189	0.775058	-0.009151
1936	9.6750e-01	0.6435	-11.493498	0.000423	4.233119	0.717110	-0.008467
1937	9.6800e-01	0.6361	-11.555076	0.000616	6.157264	1.043069	-0.012316
1938	9.6850e-01	0.6230	-11.563629	0.000086	0.855176	0.144871	-0.001711
1939	9.6900e-01	0.6146	-11.614089	0.000505	5.045536	0.854737	-0.010092
1940	9.6950e-01	0.6047	-11.666687	0.000526	5.259329	0.890955	-0.010520
1941	9.7000e-01	0.5954	-11.706028	0.000393	3.933807	0.666405	-0.007868
1942	9.7050e-01	0.5886	-11.741949	0.000359	3.591737	0.608457	-0.007184
1943	9.7100e-01	0.5738	-11.804810	0.000629	6.285540	1.064799	-0.012572
1944	9.7150e-01	0.5637	-11.844579	0.000398	3.976566	0.673649	-0.007954
1945	9.7200e-01	0.5569	-11.888624	0.000440	4.404154	0.746084	-0.008809
1946	9.7250e-01	0.5458	-11.932669	0.000440	4.404154	0.746084	-0.008809
1947	9.7300e-01	0.5354	-11.979708	0.000470	4.703465	0.796789	-0.009408
1948	9.7350e-01	0.5269	-12.018195	0.000385	3.848290	0.651918	-0.007697
1949	9.7400e-01	0.5164	-12.063095	0.000449	4.489671	0.760571	-0.008980
1950	9.7450e-01	0.5065	-12.092174	0.000291	2.907597	0.492560	-0.005816
1951	9.7500e-01	0.4968	-12.131943	0.000398	3.976566	0.673649	-0.007954
1952	9.7550e-01	0.4831	-12.175133	0.000432	4.318636	0.731597	-0.008638
1953	9.7600e-01	0.4765	-12.219178	0.000440	4.404154	0.746084	-0.008809
1954	9.7650e-01	0.4655	-12.280756	0.000616	6.157264	1.043069	-0.012316
1955	9.7700e-01	0.4558	-12.329078	0.000483	4.831742	0.818519	-0.009664
1956	9.7750e-01	0.4456	-12.362861	0.000338	3.377943	0.572239	-0.006756
1957	9.7800e-01	0.4339	-12.420162	0.000573	5.729676	0.970633	-0.011460
1958	9.7850e-01	0.4240	-12.445392	0.000252	2.522768	0.427368	-0.005046
1959	9.7900e-01	0.4173	-12.480885	0.000355	3.548978	0.601213	-0.007099
1960	9.7950e-01	0.4057	-12.557858	0.000770	7.696580	1.303836	-0.015395
1961	9.8000e-01	0.3975	-12.595061	0.000372	3.720014	0.630187	-0.007441
1962	9.8050e-01	0.3830	-12.652363	0.000573	5.729676	0.970633	-0.011460
1963	9.8100e-01	0.3767	-12.670323	0.000180	1.795869	0.304228	-0.003592
1964	9.8150e-01	0.3671	-12.715651	0.000453	4.532430	0.767814	-0.009066
1965	9.8200e-01	0.3565	-12.764401	0.000487	4.874500	0.825763	-0.009750
1966	9.8250e-01	0.3433	-12.802032	0.000376	3.762772	0.637431	-0.007526
1967	9.8300e-01	0.3358	-12.846077	0.000440	4.404154	0.746084	-0.008809
1968	9.8350e-01	0.3220	-12.885419	0.000393	3.933807	0.666405	-0.007868
1969	9.8400e-01	0.3136	-12.918773	0.000334	3.335185	0.564996	-0.006671
1970	9.8450e-01	0.3030	-13.000450	0.000817	8.166926	1.383515	-0.016335
1971	9.8500e-01	0.2946	-13.023969	0.000235	2.351733	0.398394	-0.004704
1972	9.8550e-01	0.2866	-13.073574	0.000496	4.960018	0.840250	-0.009921
1973	9.8600e-01	0.2758	-13.123178	0.000496	4.960018	0.840250	-0.009921
1974	9.8650e-01	0.2634	-13.162092	0.000389	3.891049	0.659161	-0.007783
1975	9.8700e-01	0.2552	-13.209559	0.000475	4.746224	0.804032	-0.009493
1976	9.8750e-01	0.2460	-13.241630	0.000321	3.206908	0.543265	-0.006414
1977	9.8800e-01	0.2361	-13.306202	0.000646	6.456575	1.093773	-0.012914
1978	9.8850e-01	0.2239	-13.343833	0.000376	3.762772	0.637431	-0.007526
1979	9.8900e-01	0.2138	-13.396431	0.000526	5.259329	0.890955	-0.010520
1980	9.8950e-01	0.2052	-13.435772	0.000393	3.933807	0.666405	-0.007868
1981	9.9000e-01	0.1965	-13.478535	0.000428	4.275878	0.724353	-0.008553
1982	9.9050e-01	0.1832	-13.521725	0.000432	4.318636	0.731597	-0.008638
1983	9.9100e-01	0.1743	-13.582020	0.000603	6.028987	1.021338	-0.012059
1984	9.9150e-01	0.1647	-13.605112	0.000231	2.308974	0.391151	-0.004618
1985	9.9200e-01	0.1572	-13.658137	0.000530	5.302088	0.898198	-0.010605
1986	9.9250e-01	0.1448	-13.697479	0.000393	3.933807	0.666405	-0.007868
1987	9.9300e-01	0.1353	-13.750505	0.000530	5.302088	0.898198	-0.010605
1988	9.9350e-01	0.1215	-13.774024	0.000235	2.351733	0.398394	-0.004704
1989	9.9400e-01	0.1151	-13.848003	0.000740	7.397268	1.253131	-0.014796
1990	9.9450e-01	0.1043	-13.881785	0.000338	3.377943	0.572239	-0.006756
1991	9.9500e-01	0.0961	-13.922838	0.000410	4.104842	0.695379	-0.008210
1992	9.9550e-01	0.0816	-13.964317	0.000415	4.147601	0.702623	-0.008296
1993	9.9600e-01	0.0761	-14.043428	0.000791	7.910374	1.340054	-0.015822
1994	9.9650e-01	0.0637	-14.088756	0.000453	4.532430	0.767814	-0.009066
1995	9.9700e-01	0.0549	-14.107999	0.000192	1.924145	0.325959	-0.003849
1996	9.9750e-01	0.0446	-14.155038	0.000470	4.703465	0.796789	-0.009408
1997	9.9800e-01	0.0354	-14.197373	0.000423	4.233119	0.717110	-0.008467
1998	9.9850e-01	0.0249	-14.267076	0.000697	6.969680	1.180696	-0.013941
1999	9.9900e-01	0.0155	-14.308128	0.000410	4.104842	0.695379	-0.008210
2000	9.9950e-01	0.0045	-14.347469	0.000393	3.933807	0.666405	-0.007868
2001	1.0000e+00	-0.0050	-14.396219	0.000393	3.933807	0.666405	-0.009750

PMax (uC/cm2):	3.19e+01
Pr (uC/cm2):	1.55e+00
-Pr (uC/cm2):	0.00e+00
PLoss (uC/cm2):	0.00e+00
C (Max-Eff) (nF):	3.19e-01
K (Eff):	5.41e+02
Vert. (+/-Pr) Shift (uC/cm2):	7.74e-01
Offset (uC/cm2):	1.59e+01

A (Loop Area - uC/cm2·Volts):	-1.39e-02



Hysteresis Version: 5.48.1 - Radiant Technologies, Inc., 1999 - 9/12/24

