»»»»»»»»»»»»»»»»»»»»»»»»»»»»»»»»»»»» Hysteresis ««««««««««««««««««««««««««««««««««««
»»»  Executed Version:	5.48.1
»»»  Vision Version:	5.48.4 (R)
»»»  Vision Compiled:	9/18/24
»»»  Driver Version:	5.47.0
»»»  Windows Version:	Windows 8 or 8.1
»»»  Processor Information:	x86 (AMD or Intel) - 32 Processors
»»»  Tester Name:	PMF21124-494 (100V)
»»»  Tester S/N:	PMF21124-494
»»»  Internal Amp Type:	100V RevK 270k
»»»  Internal Amp S/N:	iAB2-596/K     
»»»  Execution Count:	1
»»»»»»»»»»»»»»»»»»»»»»»»»»»»»»»»»»»»»»»»»»««««««««««««««««««««««««««««««««««««««««««

Stored:	6/27/2025 - 14:34:5
Configured:	06/27/25 11:23:28 AM
Executed:	06/27/25 02:33:43 PM

»»»»»»»»»»»»»»»»»»»»»»»»»»»»»»»»»»» Sample Info ««««««««««««««««««««««««««««««««««««
Sample Name:	
Lot Name:	
Wafer Name:	
Die Row/Column:	0/0
Capacitor Number:	0
Sample Area (cm2):	1.00e-04
Sample Thickness (microns):	1.50e-01

Amplifier:	Internal

»»»»»»»»»»»»»»»»»»»»»»»»»»»»»»»»»»» Tester Info «««««««««««««««««««««««««««««««««««
Tester Name:	PMF21124-494 (100V)
Tester Serial Number:	PMF21124-494
Return Signal Amp. Level:	1.79 [Index: 2]

»»»»»»»»»»»»»»»»»»»»»»»»»»»»»»»» Hysteresis Info ««««««««««««««««««««««««««««««««««
Task Name:	Hyst-1276
Volts:	10.00
Field:	666.67 (kV/cm)
DCBias:	0.00
DCField:	0.00 (kV/cm)
Hysteresis Period (ms):	1.00e+00
Preset:	Enabled
Preset Delay (ms):	1.00e+03
Profile:	Standard Monopolar

»»»»»»»»»»»»»»»»»»»»»»»»»»»»»»»»»»»»»» Data «««««««««««««««««««««««««««««««««««««««
Points:	2001

Valid Data

Point	Time (ms)	Drive Voltage	Measured Polarization (uC/cm2)	Capacitance (uF)	Normalized Capacitance (uF/cm2)	Dielectric Constant	Instantaneous Current (mA)
   1	0.0000e+00	-0.0037	-19.097959	0.000761	7.611701	1.289457	0.015223
   2	5.0000e-04	0.0041	-19.021841	0.000761	7.611701	1.289457	0.015223
   3	1.0000e-03	0.0161	-18.974375	0.000475	4.746622	0.804100	0.009493
   4	1.5000e-03	0.0261	-18.925626	0.000487	4.874910	0.825832	0.009750
   5	2.0000e-03	0.0363	-18.879442	0.000462	4.618335	0.782367	0.009237
   6	2.5000e-03	0.0442	-18.808884	0.000706	7.055790	1.195283	0.014112
   7	3.0000e-03	0.0565	-18.765266	0.000436	4.361761	0.738902	0.008724
   8	3.5000e-03	0.0663	-18.710102	0.000552	5.516345	0.934494	0.011033
   9	4.0000e-03	0.0778	-18.660070	0.000500	5.003197	0.847564	0.010006
  10	4.5000e-03	0.0855	-18.615597	0.000445	4.447286	0.753391	0.008895
  11	5.0000e-03	0.0959	-18.560434	0.000552	5.516345	0.934494	0.011033
  12	5.5000e-03	0.1064	-18.510829	0.000496	4.960434	0.840320	0.009921
  13	6.0000e-03	0.1140	-18.470205	0.000406	4.062425	0.688193	0.008125
  14	6.5000e-03	0.1294	-18.415896	0.000543	5.430820	0.920006	0.010862
  15	7.0000e-03	0.1357	-18.359877	0.000560	5.601870	0.948982	0.011204
  16	7.5000e-03	0.1469	-18.299155	0.000607	6.072256	1.028668	0.012145
  17	8.0000e-03	0.1559	-18.239715	0.000594	5.943969	1.006936	0.011888
  18	8.5000e-03	0.1643	-18.195242	0.000445	4.447286	0.753391	0.008895
  19	9.0000e-03	0.1752	-18.161887	0.000334	3.335464	0.565043	0.006671
  20	9.5000e-03	0.1875	-18.096888	0.000650	6.499879	1.101109	0.013000
  21	1.0000e-02	0.1945	-18.049421	0.000475	4.746622	0.804100	0.009493
  22	1.0500e-02	0.2036	-17.980574	0.000688	6.884741	1.166307	0.013770
  23	1.1000e-02	0.2167	-17.938666	0.000419	4.190712	0.709926	0.008381
  24	1.1500e-02	0.2270	-17.883930	0.000547	5.473583	0.927250	0.010947
  25	1.2000e-02	0.2362	-17.843306	0.000406	4.062425	0.688193	0.008125
  26	1.2500e-02	0.2483	-17.783866	0.000594	5.943969	1.006936	0.011888
  27	1.3000e-02	0.2556	-17.721860	0.000620	6.200543	1.050400	0.012401
  28	1.3500e-02	0.2666	-17.690644	0.000312	3.121653	0.528822	0.006243
  29	1.4000e-02	0.2773	-17.636763	0.000539	5.388058	0.912762	0.010776
  30	1.4500e-02	0.2859	-17.575185	0.000616	6.157780	1.043156	0.012316
  31	1.5000e-02	0.2946	-17.530712	0.000445	4.447286	0.753391	0.008895
  32	1.5500e-02	0.3061	-17.491370	0.000393	3.934138	0.666461	0.007868
  33	1.6000e-02	0.3176	-17.410122	0.000812	8.124849	1.376387	0.016250
  34	1.6500e-02	0.3278	-17.365649	0.000445	4.447286	0.753391	0.008895
  35	1.7000e-02	0.3349	-17.319037	0.000466	4.661098	0.789611	0.009322
  36	1.7500e-02	0.3468	-17.272426	0.000466	4.661098	0.789611	0.009322
  37	1.8000e-02	0.3558	-17.200585	0.000718	7.184077	1.217016	0.014368
  38	1.8500e-02	0.3681	-17.150553	0.000500	5.003197	0.847564	0.010006
  39	1.9000e-02	0.3777	-17.094534	0.000560	5.601870	0.948982	0.011204
  40	1.9500e-02	0.3857	-17.053055	0.000415	4.147949	0.702682	0.008296
  41	2.0000e-02	0.3963	-17.006443	0.000466	4.661098	0.789611	0.009322
  42	2.0500e-02	0.4047	-16.944438	0.000620	6.200543	1.050400	0.012401
  43	2.1000e-02	0.4166	-16.886281	0.000582	5.815682	0.985203	0.011631
  44	2.1500e-02	0.4266	-16.858913	0.000274	2.736791	0.463625	0.005474
  45	2.2000e-02	0.4355	-16.793486	0.000654	6.542642	1.108354	0.013085
  46	2.2500e-02	0.4432	-16.749868	0.000436	4.361761	0.738902	0.008724
  47	2.3000e-02	0.4561	-16.698553	0.000513	5.131484	0.869297	0.010263
  48	2.3500e-02	0.4674	-16.655791	0.000428	4.276236	0.724414	0.008553
  49	2.4000e-02	0.4775	-16.594213	0.000616	6.157780	1.043156	0.012316
  50	2.4500e-02	0.4836	-16.536056	0.000582	5.815682	0.985203	0.011631
  51	2.5000e-02	0.4946	-16.476616	0.000594	5.943969	1.006936	0.011888
  52	2.5500e-02	0.5060	-16.416748	0.000599	5.986731	1.014180	0.011974
  53	2.6000e-02	0.5161	-16.371847	0.000449	4.490048	0.760635	0.008980
  54	2.6500e-02	0.5270	-16.332934	0.000389	3.891375	0.659217	0.007783
  55	2.7000e-02	0.5382	-16.282474	0.000505	5.045959	0.854809	0.010092
  56	2.7500e-02	0.5460	-16.218758	0.000637	6.371592	1.079377	0.012743
  57	2.8000e-02	0.5569	-16.173857	0.000449	4.490048	0.760635	0.008980
  58	2.8500e-02	0.5672	-16.124680	0.000492	4.917672	0.833076	0.009835
  59	2.9000e-02	0.5753	-16.072937	0.000517	5.174246	0.876541	0.010349
  60	2.9500e-02	0.5874	-16.015636	0.000573	5.730157	0.970715	0.011460
  61	3.0000e-02	0.5971	-15.973728	0.000419	4.190712	0.709926	0.008381
  62	3.0500e-02	0.6077	-15.904025	0.000697	6.970265	1.180795	0.013941
  63	3.1000e-02	0.6168	-15.881361	0.000227	2.266405	0.383939	0.004533
  64	3.1500e-02	0.6258	-15.812941	0.000684	6.841978	1.159062	0.013684
  65	3.2000e-02	0.6364	-15.765902	0.000470	4.703860	0.796855	0.009408
  66	3.2500e-02	0.6457	-15.708173	0.000577	5.772919	0.977959	0.011546
  67	3.3000e-02	0.6550	-15.658568	0.000496	4.960434	0.840320	0.009921
  68	3.3500e-02	0.6684	-15.627779	0.000308	3.078890	0.521578	0.006158
  69	3.4000e-02	0.6741	-15.575182	0.000526	5.259771	0.891029	0.010520
  70	3.4500e-02	0.6821	-15.515314	0.000599	5.986731	1.014180	0.011974
  71	3.5000e-02	0.6956	-15.461006	0.000543	5.430820	0.920006	0.010862
  72	3.5500e-02	0.7044	-15.413112	0.000479	4.789385	0.811344	0.009579
  73	3.6000e-02	0.7148	-15.354099	0.000590	5.901206	0.999691	0.011802
  74	3.6500e-02	0.7260	-15.312192	0.000419	4.190712	0.709926	0.008381
  75	3.7000e-02	0.7358	-15.253607	0.000586	5.858444	0.992447	0.011717
  76	3.7500e-02	0.7468	-15.197588	0.000560	5.601870	0.948982	0.011204
  77	3.8000e-02	0.7579	-15.158675	0.000389	3.891375	0.659217	0.007783
  78	3.8500e-02	0.7637	-15.120188	0.000385	3.848613	0.651973	0.007697
  79	3.9000e-02	0.7765	-15.064597	0.000556	5.559107	0.941738	0.011118
  80	3.9500e-02	0.7867	-14.997887	0.000667	6.670929	1.130086	0.013342
  81	4.0000e-02	0.7982	-14.959829	0.000381	3.805850	0.644729	0.007612
  82	4.0500e-02	0.8084	-14.923908	0.000359	3.592039	0.608508	0.007184
  83	4.1000e-02	0.8151	-14.868745	0.000552	5.516345	0.934494	0.011033
  84	4.1500e-02	0.8276	-14.804173	0.000646	6.457117	1.093865	0.012914
  85	4.2000e-02	0.8348	-14.761838	0.000423	4.233474	0.717170	0.008467
  86	4.2500e-02	0.8482	-14.712661	0.000492	4.917672	0.833076	0.009835
  87	4.3000e-02	0.8582	-14.659636	0.000530	5.302533	0.898273	0.010605
  88	4.3500e-02	0.8667	-14.600196	0.000594	5.943969	1.006936	0.011888
  89	4.4000e-02	0.8765	-14.545460	0.000547	5.473583	0.927250	0.010947
  90	4.4500e-02	0.8849	-14.521513	0.000239	2.394692	0.405672	0.004789
  91	4.5000e-02	0.8969	-14.474046	0.000475	4.746622	0.804100	0.009493
  92	4.5500e-02	0.9042	-14.414179	0.000599	5.986731	1.014180	0.011974
  93	4.6000e-02	0.9164	-14.359871	0.000543	5.430820	0.920006	0.010862
  94	4.6500e-02	0.9271	-14.320529	0.000393	3.934138	0.666461	0.007868
  95	4.7000e-02	0.9355	-14.271352	0.000492	4.917672	0.833076	0.009835
  96	4.7500e-02	0.9496	-14.220892	0.000505	5.045959	0.854809	0.010092
  97	4.8000e-02	0.9550	-14.175564	0.000453	4.532811	0.767879	0.009066
  98	4.8500e-02	0.9658	-14.132374	0.000432	4.318999	0.731658	0.008638
  99	4.9000e-02	0.9760	-14.070368	0.000620	6.200543	1.050400	0.012401
 100	4.9500e-02	0.9879	-14.035303	0.000351	3.506514	0.594020	0.007013
 101	5.0000e-02	0.9967	-13.960896	0.000744	7.440651	1.260480	0.014881
 102	5.0500e-02	1.0067	-13.920699	0.000402	4.019662	0.680949	0.008039
 103	5.1000e-02	1.0175	-13.874088	0.000466	4.661098	0.789611	0.009322
 104	5.1500e-02	1.0267	-13.843727	0.000304	3.036128	0.514334	0.006072
 105	5.2000e-02	1.0371	-13.773169	0.000706	7.055790	1.195283	0.014112
 106	5.2500e-02	1.0449	-13.715867	0.000573	5.730157	0.970715	0.011460
 107	5.3000e-02	1.0542	-13.688499	0.000274	2.736791	0.463625	0.005474
 108	5.3500e-02	1.0648	-13.626066	0.000624	6.243305	1.057645	0.012487
 109	5.4000e-02	1.0755	-13.570474	0.000556	5.559107	0.941738	0.011118
 110	5.4500e-02	1.0880	-13.537547	0.000329	3.292702	0.557799	0.006585
 111	5.5000e-02	1.0978	-13.483666	0.000539	5.388058	0.912762	0.010776
 112	5.5500e-02	1.1069	-13.442614	0.000411	4.105187	0.695437	0.008210
 113	5.6000e-02	1.1166	-13.381036	0.000616	6.157780	1.043156	0.012316
 114	5.6500e-02	1.1237	-13.329721	0.000513	5.131484	0.869297	0.010263
 115	5.7000e-02	1.1380	-13.307485	0.000222	2.223643	0.376695	0.004447
 116	5.7500e-02	1.1475	-13.216828	0.000907	9.065621	1.535758	0.018131
 117	5.8000e-02	1.1550	-13.188177	0.000287	2.865078	0.485357	0.005730
 118	5.8500e-02	1.1639	-13.131303	0.000569	5.687394	0.963471	0.011375
 119	5.9000e-02	1.1746	-13.091962	0.000393	3.934138	0.666461	0.007868
 120	5.9500e-02	1.1848	-13.036798	0.000552	5.516345	0.934494	0.011033
 121	6.0000e-02	1.1955	-12.981207	0.000556	5.559107	0.941738	0.011118
 122	6.0500e-02	1.2048	-12.956404	0.000248	2.480217	0.420160	0.004960
 123	6.1000e-02	1.2164	-12.895682	0.000607	6.072256	1.028668	0.012145
 124	6.1500e-02	1.2270	-12.858051	0.000376	3.763088	0.637484	0.007526
 125	6.2000e-02	1.2387	-12.822130	0.000359	3.592039	0.608508	0.007184
 126	6.2500e-02	1.2480	-12.761835	0.000603	6.029493	1.021424	0.012059
 127	6.3000e-02	1.2564	-12.726342	0.000355	3.549276	0.601264	0.007099
 128	6.3500e-02	1.2672	-12.674172	0.000522	5.217008	0.883785	0.010434
 129	6.4000e-02	1.2741	-12.628843	0.000453	4.532811	0.767879	0.009066
 130	6.4500e-02	1.2864	-12.581377	0.000475	4.746622	0.804100	0.009493
 131	6.5000e-02	1.2946	-12.509536	0.000718	7.184077	1.217016	0.014368
 132	6.5500e-02	1.3068	-12.474898	0.000346	3.463752	0.586775	0.006928
 133	6.6000e-02	1.3136	-12.424011	0.000509	5.088721	0.862053	0.010177
 134	6.6500e-02	1.3268	-12.389373	0.000346	3.463752	0.586775	0.006928
 135	6.7000e-02	1.3330	-12.341052	0.000483	4.832147	0.818588	0.009664
 136	6.7500e-02	1.3425	-12.291019	0.000500	5.003197	0.847564	0.010006
 137	6.8000e-02	1.3547	-12.248685	0.000423	4.233474	0.717170	0.008467
 138	6.8500e-02	1.3634	-12.187107	0.000616	6.157780	1.043156	0.012316
 139	6.9000e-02	1.3756	-12.134509	0.000526	5.259771	0.891029	0.010520
 140	6.9500e-02	1.3867	-12.093029	0.000415	4.147949	0.702682	0.008296
 141	7.0000e-02	1.3935	-12.054970	0.000381	3.805850	0.644729	0.007612
 142	7.0500e-02	1.4076	-12.002800	0.000522	5.217008	0.883785	0.010434
 143	7.1000e-02	1.4143	-11.960465	0.000423	4.233474	0.717170	0.008467
 144	7.1500e-02	1.4275	-11.903591	0.000569	5.687394	0.963471	0.011375
 145	7.2000e-02	1.4368	-11.852276	0.000513	5.131484	0.869297	0.010263
 146	7.2500e-02	1.4457	-11.816783	0.000355	3.549276	0.601264	0.007099
 147	7.3000e-02	1.4587	-11.775731	0.000411	4.105187	0.695437	0.008210
 148	7.3500e-02	1.4654	-11.728265	0.000475	4.746622	0.804100	0.009493
 149	7.4000e-02	1.4732	-11.684647	0.000436	4.361761	0.738902	0.008724
 150	7.4500e-02	1.4851	-11.644450	0.000402	4.019662	0.680949	0.008039
 151	7.5000e-02	1.4920	-11.561063	0.000834	8.338661	1.412607	0.016677
 152	7.5500e-02	1.5057	-11.529846	0.000312	3.121653	0.528822	0.006243
 153	7.6000e-02	1.5181	-11.477676	0.000522	5.217008	0.883785	0.010434
 154	7.6500e-02	1.5259	-11.449881	0.000278	2.779554	0.470869	0.005559
 155	7.7000e-02	1.5341	-11.393434	0.000564	5.644632	0.956227	0.011289
 156	7.7500e-02	1.5469	-11.350671	0.000428	4.276236	0.724414	0.008553
 157	7.8000e-02	1.5573	-11.310047	0.000406	4.062425	0.688193	0.008125
 158	7.8500e-02	1.5662	-11.276265	0.000338	3.378227	0.572287	0.006756
 159	7.9000e-02	1.5749	-11.227943	0.000483	4.832147	0.818588	0.009664
 160	7.9500e-02	1.5857	-11.163799	0.000641	6.414355	1.086621	0.012829
 161	8.0000e-02	1.5930	-11.112912	0.000509	5.088721	0.862053	0.010177
 162	8.0500e-02	1.6048	-11.068439	0.000445	4.447286	0.753391	0.008895
 163	8.1000e-02	1.6165	-11.030380	0.000381	3.805850	0.644729	0.007612
 164	8.1500e-02	1.6273	-10.974361	0.000560	5.601870	0.948982	0.011204
 165	8.2000e-02	1.6346	-10.921336	0.000530	5.302533	0.898273	0.010605
 166	8.2500e-02	1.6480	-10.873442	0.000479	4.789385	0.811344	0.009579
 167	8.3000e-02	1.6557	-10.842225	0.000312	3.121653	0.528822	0.006243
 168	8.3500e-02	1.6663	-10.805877	0.000363	3.634801	0.615752	0.007270
 169	8.4000e-02	1.6731	-10.755417	0.000505	5.045959	0.854809	0.010092
 170	8.4500e-02	1.6855	-10.693411	0.000620	6.200543	1.050400	0.012401
 171	8.5000e-02	1.6948	-10.649366	0.000440	4.404524	0.746146	0.008809
 172	8.5500e-02	1.7068	-10.604038	0.000453	4.532811	0.767879	0.009066
 173	8.6000e-02	1.7172	-10.560420	0.000436	4.361761	0.738902	0.008724
 174	8.6500e-02	1.7291	-10.524927	0.000355	3.549276	0.601264	0.007099
 175	8.7000e-02	1.7353	-10.485158	0.000398	3.976900	0.673705	0.007954
 176	8.7500e-02	1.7464	-10.431277	0.000539	5.388058	0.912762	0.010776
 177	8.8000e-02	1.7558	-10.365850	0.000654	6.542642	1.108354	0.013085
 178	8.8500e-02	1.7666	-10.332068	0.000338	3.378227	0.572287	0.006756
 179	8.9000e-02	1.7765	-10.289733	0.000423	4.233474	0.717170	0.008467
 180	8.9500e-02	1.7868	-10.221741	0.000680	6.799216	1.151818	0.013598
 181	9.0000e-02	1.7992	-10.203780	0.000180	1.796019	0.304254	0.003592
 182	9.0500e-02	1.8047	-10.161018	0.000428	4.276236	0.724414	0.008553
 183	9.1000e-02	1.8143	-10.099440	0.000616	6.157780	1.043156	0.012316
 184	9.1500e-02	1.8262	-10.075493	0.000239	2.394692	0.405672	0.004789
 185	9.2000e-02	1.8381	-10.024606	0.000509	5.088721	0.862053	0.010177
 186	9.2500e-02	1.8463	-9.965166	0.000594	5.943969	1.006936	0.011888
 187	9.3000e-02	1.8576	-9.931811	0.000334	3.335464	0.565043	0.006671
 188	9.3500e-02	1.8640	-9.882206	0.000496	4.960434	0.840320	0.009921
 189	9.4000e-02	1.8762	-9.833457	0.000487	4.874910	0.825832	0.009750
 190	9.4500e-02	1.8849	-9.798392	0.000351	3.506514	0.594020	0.007013
 191	9.5000e-02	1.8979	-9.747932	0.000505	5.045959	0.854809	0.010092
 192	9.5500e-02	1.9051	-9.695334	0.000526	5.259771	0.891029	0.010520
 193	9.6000e-02	1.9147	-9.655993	0.000393	3.934138	0.666461	0.007868
 194	9.6500e-02	1.9272	-9.613230	0.000428	4.276236	0.724414	0.008553
 195	9.7000e-02	1.9391	-9.576454	0.000368	3.677563	0.622996	0.007355
 196	9.7500e-02	1.9460	-9.517870	0.000586	5.858444	0.992447	0.011717
 197	9.8000e-02	1.9544	-9.483232	0.000346	3.463752	0.586775	0.006928
 198	9.8500e-02	1.9664	-9.429351	0.000539	5.388058	0.912762	0.010776
 199	9.9000e-02	1.9773	-9.391720	0.000376	3.763088	0.637484	0.007526
 200	9.9500e-02	1.9868	-9.337412	0.000543	5.430820	0.920006	0.010862
 201	1.0000e-01	1.9942	-9.284386	0.000530	5.302533	0.898273	0.010605
 202	1.0050e-01	2.0053	-9.236064	0.000483	4.832147	0.818588	0.009664
 203	1.0100e-01	2.0160	-9.203137	0.000329	3.292702	0.557799	0.006585
 204	1.0150e-01	2.0291	-9.152250	0.000509	5.088721	0.862053	0.010177
 205	1.0200e-01	2.0360	-9.108632	0.000436	4.361761	0.738902	0.008724
 206	1.0250e-01	2.0447	-9.062876	0.000458	4.575573	0.775123	0.009151
 207	1.0300e-01	2.0551	-9.021824	0.000411	4.105187	0.695437	0.008210
 208	1.0350e-01	2.0667	-8.973930	0.000479	4.789385	0.811344	0.009579
 209	1.0400e-01	2.0772	-8.941003	0.000329	3.292702	0.557799	0.006585
 210	1.0450e-01	2.0861	-8.889688	0.000513	5.131484	0.869297	0.010263
 211	1.0500e-01	2.0982	-8.846925	0.000428	4.276236	0.724414	0.008553
 212	1.0550e-01	2.1069	-8.799459	0.000475	4.746622	0.804100	0.009493
 213	1.0600e-01	2.1157	-8.740447	0.000590	5.901206	0.999691	0.011802
 214	1.0650e-01	2.1265	-8.722059	0.000184	1.838782	0.311498	0.003678
 215	1.0700e-01	2.1342	-8.668606	0.000535	5.345296	0.905518	0.010691
 216	1.0750e-01	2.1463	-8.616863	0.000517	5.174246	0.876541	0.010349
 217	1.0800e-01	2.1538	-8.584791	0.000321	3.207177	0.543311	0.006414
 218	1.0850e-01	2.1663	-8.549298	0.000355	3.549276	0.601264	0.007099
 219	1.0900e-01	2.1755	-8.493707	0.000556	5.559107	0.941738	0.011118
 220	1.0950e-01	2.1875	-8.448379	0.000453	4.532811	0.767879	0.009066
 221	1.1000e-01	2.1954	-8.415879	0.000325	3.249940	0.550555	0.006500
 222	1.1050e-01	2.2052	-8.377393	0.000385	3.848613	0.651973	0.007697
 223	1.1100e-01	2.2157	-8.317953	0.000594	5.943969	1.006936	0.011888
 224	1.1150e-01	2.2253	-8.277756	0.000402	4.019662	0.680949	0.008039
 225	1.1200e-01	2.2377	-8.222165	0.000556	5.559107	0.941738	0.011118
 226	1.1250e-01	2.2467	-8.190093	0.000321	3.207177	0.543311	0.006414
 227	1.1300e-01	2.2552	-8.148613	0.000415	4.147949	0.702682	0.008296
 228	1.1350e-01	2.2647	-8.104140	0.000445	4.447286	0.753391	0.008895
 229	1.1400e-01	2.2763	-8.040424	0.000637	6.371592	1.079377	0.012743
 230	1.1450e-01	2.2861	-8.009635	0.000308	3.078890	0.521578	0.006158
 231	1.1500e-01	2.2983	-7.963024	0.000466	4.661098	0.789611	0.009322
 232	1.1550e-01	2.3067	-7.910426	0.000526	5.259771	0.891029	0.010520
 233	1.1600e-01	2.3175	-7.883058	0.000274	2.736791	0.463625	0.005474
 234	1.1650e-01	2.3270	-7.855262	0.000278	2.779554	0.470869	0.005559
 235	1.1700e-01	2.3326	-7.788981	0.000663	6.628166	1.122842	0.013256
 236	1.1750e-01	2.3457	-7.741942	0.000470	4.703860	0.796855	0.009408
 237	1.1800e-01	2.3581	-7.712008	0.000299	2.993366	0.507090	0.005987
 238	1.1850e-01	2.3653	-7.652140	0.000599	5.986731	1.014180	0.011974
 239	1.1900e-01	2.3756	-7.627766	0.000244	2.437455	0.412916	0.004875
 240	1.1950e-01	2.3872	-7.579872	0.000479	4.789385	0.811344	0.009579
 241	1.2000e-01	2.3956	-7.538820	0.000411	4.105187	0.695437	0.008210
 242	1.2050e-01	2.4088	-7.481090	0.000577	5.772919	0.977959	0.011546
 243	1.2100e-01	2.4176	-7.440038	0.000411	4.105187	0.695437	0.008210
 244	1.2150e-01	2.4274	-7.394282	0.000458	4.575573	0.775123	0.009151
 245	1.2200e-01	2.4362	-7.356651	0.000376	3.763088	0.637484	0.007526
 246	1.2250e-01	2.4460	-7.308330	0.000483	4.832147	0.818588	0.009664
 247	1.2300e-01	2.4592	-7.282672	0.000257	2.565742	0.434648	0.005132
 248	1.2350e-01	2.4716	-7.232640	0.000500	5.003197	0.847564	0.010006
 249	1.2400e-01	2.4775	-7.185174	0.000475	4.746622	0.804100	0.009493
 250	1.2450e-01	2.4854	-7.154812	0.000304	3.036128	0.514334	0.006072
 251	1.2500e-01	2.4964	-7.090241	0.000646	6.457117	1.093865	0.012914
 252	1.2550e-01	2.5055	-7.060307	0.000299	2.993366	0.507090	0.005987
 253	1.2600e-01	2.5160	-7.014979	0.000453	4.532811	0.767879	0.009066
 254	1.2650e-01	2.5282	-6.966230	0.000487	4.874910	0.825832	0.009750
 255	1.2700e-01	2.5349	-6.926033	0.000402	4.019662	0.680949	0.008039
 256	1.2750e-01	2.5446	-6.882415	0.000436	4.361761	0.738902	0.008724
 257	1.2800e-01	2.5562	-6.840935	0.000415	4.147949	0.702682	0.008296
 258	1.2850e-01	2.5659	-6.797318	0.000436	4.361761	0.738902	0.008724
 259	1.2900e-01	2.5775	-6.760114	0.000372	3.720326	0.630240	0.007441
 260	1.2950e-01	2.5876	-6.715214	0.000449	4.490048	0.760635	0.008980
 261	1.3000e-01	2.5974	-6.672451	0.000428	4.276236	0.724414	0.008553
 262	1.3050e-01	2.6033	-6.626267	0.000462	4.618335	0.782367	0.009237
 263	1.3100e-01	2.6141	-6.574952	0.000513	5.131484	0.869297	0.010263
 264	1.3150e-01	2.6261	-6.533900	0.000411	4.105187	0.695437	0.008210
 265	1.3200e-01	2.6398	-6.503111	0.000308	3.078890	0.521578	0.006158
 266	1.3250e-01	2.6485	-6.447092	0.000560	5.601870	0.948982	0.011204
 267	1.3300e-01	2.6573	-6.409034	0.000381	3.805850	0.644729	0.007612
 268	1.3350e-01	2.6707	-6.356864	0.000522	5.217008	0.883785	0.010434
 269	1.3400e-01	2.6762	-6.323936	0.000329	3.292702	0.557799	0.006585
 270	1.3450e-01	2.6874	-6.279036	0.000449	4.490048	0.760635	0.008980
 271	1.3500e-01	2.6942	-6.232425	0.000466	4.661098	0.789611	0.009322
 272	1.3550e-01	2.7043	-6.194794	0.000376	3.763088	0.637484	0.007526
 273	1.3600e-01	2.7168	-6.159301	0.000355	3.549276	0.601264	0.007099
 274	1.3650e-01	2.7243	-6.096012	0.000633	6.328830	1.072133	0.012658
 275	1.3700e-01	2.7362	-6.089170	0.000068	0.684198	0.115906	0.001368
 276	1.3750e-01	2.7462	-6.026309	0.000629	6.286068	1.064889	0.012572
 277	1.3800e-01	2.7554	-5.980126	0.000462	4.618335	0.782367	0.009237
 278	1.3850e-01	2.7643	-5.947199	0.000329	3.292702	0.557799	0.006585
 279	1.3900e-01	2.7736	-5.889469	0.000577	5.772919	0.977959	0.011546
 280	1.3950e-01	2.7869	-5.844996	0.000445	4.447286	0.753391	0.008895
 281	1.4000e-01	2.7962	-5.797102	0.000479	4.789385	0.811344	0.009579
 282	1.4050e-01	2.8046	-5.768451	0.000287	2.865078	0.485357	0.005730
 283	1.4100e-01	2.8162	-5.744504	0.000239	2.394692	0.405672	0.004789
 284	1.4150e-01	2.8268	-5.696610	0.000479	4.789385	0.811344	0.009579
 285	1.4200e-01	2.8368	-5.655986	0.000406	4.062425	0.688193	0.008125
 286	1.4250e-01	2.8481	-5.616644	0.000393	3.934138	0.666461	0.007868
 287	1.4300e-01	2.8571	-5.556349	0.000603	6.029493	1.021424	0.012059
 288	1.4350e-01	2.8674	-5.539244	0.000171	1.710495	0.289766	0.003421
 289	1.4400e-01	2.8762	-5.472534	0.000667	6.670929	1.130086	0.013342
 290	1.4450e-01	2.8854	-5.446877	0.000257	2.565742	0.434648	0.005132
 291	1.4500e-01	2.8983	-5.408818	0.000381	3.805850	0.644729	0.007612
 292	1.4550e-01	2.9080	-5.366911	0.000419	4.190712	0.709926	0.008381
 293	1.4600e-01	2.9169	-5.317734	0.000492	4.917672	0.833076	0.009835
 294	1.4650e-01	2.9274	-5.276254	0.000415	4.147949	0.702682	0.008296
 295	1.4700e-01	2.9382	-5.232209	0.000440	4.404524	0.746146	0.008809
 296	1.4750e-01	2.9456	-5.186881	0.000453	4.532811	0.767879	0.009066
 297	1.4800e-01	2.9559	-5.155664	0.000312	3.121653	0.528822	0.006243
 298	1.4850e-01	2.9669	-5.107342	0.000483	4.832147	0.818588	0.009664
 299	1.4900e-01	2.9752	-5.044482	0.000629	6.286068	1.064889	0.012572
 300	1.4950e-01	2.9865	-5.041916	0.000026	0.256574	0.043465	0.000513
 301	1.5000e-01	2.9967	-4.962377	0.000795	7.953800	1.347410	0.015908
 302	1.5050e-01	3.0072	-4.939713	0.000227	2.266405	0.383939	0.004533
 303	1.5100e-01	3.0170	-4.893957	0.000458	4.575573	0.775123	0.009151
 304	1.5150e-01	3.0263	-4.852050	0.000419	4.190712	0.709926	0.008381
 305	1.5200e-01	3.0350	-4.828958	0.000231	2.309168	0.391184	0.004618
 306	1.5250e-01	3.0463	-4.774650	0.000543	5.430820	0.920006	0.010862
 307	1.5300e-01	3.0560	-4.744716	0.000299	2.993366	0.507090	0.005987
 308	1.5350e-01	3.0670	-4.683993	0.000607	6.072256	1.028668	0.012145
 309	1.5400e-01	3.0756	-4.644652	0.000393	3.934138	0.666461	0.007868
 310	1.5450e-01	3.0862	-4.613863	0.000308	3.078890	0.521578	0.006158
 311	1.5500e-01	3.0983	-4.559554	0.000543	5.430820	0.920006	0.010862
 312	1.5550e-01	3.1076	-4.515937	0.000436	4.361761	0.738902	0.008724
 313	1.5600e-01	3.1172	-4.485575	0.000304	3.036128	0.514334	0.006072
 314	1.5650e-01	3.1256	-4.435971	0.000496	4.960434	0.840320	0.009921
 315	1.5700e-01	3.1354	-4.401761	0.000342	3.420989	0.579531	0.006842
 316	1.5750e-01	3.1445	-4.358998	0.000428	4.276236	0.724414	0.008553
 317	1.5800e-01	3.1580	-4.318801	0.000402	4.019662	0.680949	0.008039
 318	1.5850e-01	3.1676	-4.258934	0.000599	5.986731	1.014180	0.011974
 319	1.5900e-01	3.1750	-4.221303	0.000376	3.763088	0.637484	0.007526
 320	1.5950e-01	3.1866	-4.189231	0.000321	3.207177	0.543311	0.006414
 321	1.6000e-01	3.1973	-4.158442	0.000308	3.078890	0.521578	0.006158
 322	1.6050e-01	3.2066	-4.087029	0.000714	7.141315	1.209771	0.014283
 323	1.6100e-01	3.2162	-4.058805	0.000282	2.822316	0.478113	0.005645
 324	1.6150e-01	3.2263	-4.015188	0.000436	4.361761	0.738902	0.008724
 325	1.6200e-01	3.2359	-3.983116	0.000321	3.207177	0.543311	0.006414
 326	1.6250e-01	3.2477	-3.945057	0.000381	3.805850	0.644729	0.007612
 327	1.6300e-01	3.2544	-3.915978	0.000291	2.907841	0.492602	0.005816
 328	1.6350e-01	3.2664	-3.873216	0.000428	4.276236	0.724414	0.008553
 329	1.6400e-01	3.2755	-3.811210	0.000620	6.200543	1.050400	0.012401
 330	1.6450e-01	3.2863	-3.788118	0.000231	2.309168	0.391184	0.004618
 331	1.6500e-01	3.2961	-3.754764	0.000334	3.335464	0.565043	0.006671
 332	1.6550e-01	3.3044	-3.702166	0.000526	5.259771	0.891029	0.010520
 333	1.6600e-01	3.3130	-3.655982	0.000462	4.618335	0.782367	0.009237
 334	1.6650e-01	3.3264	-3.612365	0.000436	4.361761	0.738902	0.008724
 335	1.6700e-01	3.3363	-3.579010	0.000334	3.335464	0.565043	0.006671
 336	1.6750e-01	3.3444	-3.530260	0.000487	4.874910	0.825832	0.009750
 337	1.6800e-01	3.3572	-3.509734	0.000205	2.052593	0.347719	0.004105
 338	1.6850e-01	3.3673	-3.458419	0.000513	5.131484	0.869297	0.010263
 339	1.6900e-01	3.3786	-3.415657	0.000428	4.276236	0.724414	0.008553
 340	1.6950e-01	3.3873	-3.365197	0.000505	5.045959	0.854809	0.010092
 341	1.7000e-01	3.3983	-3.339112	0.000261	2.608504	0.441893	0.005217
 342	1.7050e-01	3.4094	-3.291646	0.000475	4.746622	0.804100	0.009493
 343	1.7100e-01	3.4155	-3.246317	0.000453	4.532811	0.767879	0.009066
 344	1.7150e-01	3.4256	-3.217666	0.000287	2.865078	0.485357	0.005730
 345	1.7200e-01	3.4363	-3.171055	0.000466	4.661098	0.789611	0.009322
 346	1.7250e-01	3.4485	-3.127865	0.000432	4.318999	0.731658	0.008638
 347	1.7300e-01	3.4549	-3.094510	0.000334	3.335464	0.565043	0.006671
 348	1.7350e-01	3.4653	-3.036781	0.000577	5.772919	0.977959	0.011546
 349	1.7400e-01	3.4753	-2.996584	0.000402	4.019662	0.680949	0.008039
 350	1.7450e-01	3.4909	-2.975203	0.000214	2.138118	0.362207	0.004276
 351	1.7500e-01	3.4970	-2.934151	0.000411	4.105187	0.695437	0.008210
 352	1.7550e-01	3.5060	-2.889250	0.000449	4.490048	0.760635	0.008980
 353	1.7600e-01	3.5144	-2.848626	0.000406	4.062425	0.688193	0.008125
 354	1.7650e-01	3.5272	-2.830238	0.000184	1.838782	0.311498	0.003678
 355	1.7700e-01	3.5361	-2.775929	0.000543	5.430820	0.920006	0.010862
 356	1.7750e-01	3.5445	-2.734450	0.000415	4.147949	0.702682	0.008296
 357	1.7800e-01	3.5574	-2.695536	0.000389	3.891375	0.659217	0.007783
 358	1.7850e-01	3.5661	-2.651063	0.000445	4.447286	0.753391	0.008895
 359	1.7900e-01	3.5764	-2.607017	0.000440	4.404524	0.746146	0.008809
 360	1.7950e-01	3.5863	-2.564683	0.000423	4.233474	0.717170	0.008467
 361	1.8000e-01	3.5971	-2.530473	0.000342	3.420989	0.579531	0.006842
 362	1.8050e-01	3.6066	-2.502249	0.000282	2.822316	0.478113	0.005645
 363	1.8100e-01	3.6177	-2.437678	0.000646	6.457117	1.093865	0.012914
 364	1.8150e-01	3.6259	-2.400047	0.000376	3.763088	0.637484	0.007526
 365	1.8200e-01	3.6380	-2.365837	0.000342	3.420989	0.579531	0.006842
 366	1.8250e-01	3.6478	-2.330772	0.000351	3.506514	0.594020	0.007013
 367	1.8300e-01	3.6587	-2.293141	0.000376	3.763088	0.637484	0.007526
 368	1.8350e-01	3.6674	-2.256365	0.000368	3.677563	0.622996	0.007355
 369	1.8400e-01	3.6780	-2.214457	0.000419	4.190712	0.709926	0.008381
 370	1.8450e-01	3.6877	-2.163570	0.000509	5.088721	0.862053	0.010177
 371	1.8500e-01	3.6972	-2.143899	0.000197	1.967069	0.333230	0.003934
 372	1.8550e-01	3.7030	-2.070348	0.000736	7.355127	1.245992	0.014710
 373	1.8600e-01	3.7183	-2.050249	0.000201	2.009831	0.340475	0.004020
 374	1.8650e-01	3.7277	-2.011763	0.000385	3.848613	0.651973	0.007697
 375	1.8700e-01	3.7366	-1.964724	0.000470	4.703860	0.796855	0.009408
 376	1.8750e-01	3.7447	-1.924528	0.000402	4.019662	0.680949	0.008039
 377	1.8800e-01	3.7570	-1.892028	0.000325	3.249940	0.550555	0.006500
 378	1.8850e-01	3.7674	-1.856535	0.000355	3.549276	0.601264	0.007099
 379	1.8900e-01	3.7802	-1.819332	0.000372	3.720326	0.630240	0.007441
 380	1.8950e-01	3.7885	-1.775714	0.000436	4.361761	0.738902	0.008724
 381	1.9000e-01	3.7973	-1.751767	0.000239	2.394692	0.405672	0.004789
 382	1.9050e-01	3.8074	-1.697886	0.000539	5.388058	0.912762	0.010776
 383	1.9100e-01	3.8148	-1.655124	0.000428	4.276236	0.724414	0.008553
 384	1.9150e-01	3.8235	-1.623052	0.000321	3.207177	0.543311	0.006414
 385	1.9200e-01	3.8356	-1.564467	0.000586	5.858444	0.992447	0.011717
 386	1.9250e-01	3.8477	-1.538810	0.000257	2.565742	0.434648	0.005132
 387	1.9300e-01	3.8562	-1.499896	0.000389	3.891375	0.659217	0.007783
 388	1.9350e-01	3.8670	-1.462265	0.000376	3.763088	0.637484	0.007526
 389	1.9400e-01	3.8760	-1.419930	0.000423	4.233474	0.717170	0.008467
 390	1.9450e-01	3.8855	-1.375029	0.000449	4.490048	0.760635	0.008980
 391	1.9500e-01	3.8966	-1.335688	0.000393	3.934138	0.666461	0.007868
 392	1.9550e-01	3.9056	-1.304471	0.000312	3.121653	0.528822	0.006243
 393	1.9600e-01	3.9174	-1.271971	0.000325	3.249940	0.550555	0.006500
 394	1.9650e-01	3.9265	-1.207400	0.000646	6.457117	1.093865	0.012914
 395	1.9700e-01	3.9377	-1.187729	0.000197	1.967069	0.333230	0.003934
 396	1.9750e-01	3.9441	-1.143256	0.000445	4.447286	0.753391	0.008895
 397	1.9800e-01	3.9548	-1.107763	0.000355	3.549276	0.601264	0.007099
 398	1.9850e-01	3.9673	-1.058586	0.000492	4.917672	0.833076	0.009835
 399	1.9900e-01	3.9749	-1.017962	0.000406	4.062425	0.688193	0.008125
 400	1.9950e-01	3.9868	-0.989739	0.000282	2.822316	0.478113	0.005645
 401	2.0000e-01	3.9954	-0.944838	0.000449	4.490048	0.760635	0.008980
 402	2.0050e-01	4.0070	-0.893523	0.000513	5.131484	0.869297	0.010263
 403	2.0100e-01	4.0169	-0.872997	0.000205	2.052593	0.347719	0.004105
 404	2.0150e-01	4.0271	-0.825958	0.000470	4.703860	0.796855	0.009408
 405	2.0200e-01	4.0378	-0.787044	0.000389	3.891375	0.659217	0.007783
 406	2.0250e-01	4.0466	-0.758821	0.000282	2.822316	0.478113	0.005645
 407	2.0300e-01	4.0555	-0.723756	0.000351	3.506514	0.594020	0.007013
 408	2.0350e-01	4.0692	-0.675862	0.000479	4.789385	0.811344	0.009579
 409	2.0400e-01	4.0766	-0.627112	0.000487	4.874910	0.825832	0.009750
 410	2.0450e-01	4.0857	-0.604448	0.000227	2.266405	0.383939	0.004533
 411	2.0500e-01	4.0991	-0.570238	0.000342	3.420989	0.579531	0.006842
 412	2.0550e-01	4.1071	-0.518923	0.000513	5.131484	0.869297	0.010263
 413	2.0600e-01	4.1150	-0.477871	0.000411	4.105187	0.695437	0.008210
 414	2.0650e-01	4.1272	-0.439813	0.000381	3.805850	0.644729	0.007612
 415	2.0700e-01	4.1364	-0.416721	0.000231	2.309168	0.391184	0.004618
 416	2.0750e-01	4.1462	-0.377807	0.000389	3.891375	0.659217	0.007783
 417	2.0800e-01	4.1573	-0.327347	0.000505	5.045959	0.854809	0.010092
 418	2.0850e-01	4.1663	-0.291427	0.000359	3.592039	0.608508	0.007184
 419	2.0900e-01	4.1754	-0.252513	0.000389	3.891375	0.659217	0.007783
 420	2.0950e-01	4.1840	-0.213171	0.000393	3.934138	0.666461	0.007868
 421	2.1000e-01	4.1974	-0.177251	0.000359	3.592039	0.608508	0.007184
 422	2.1050e-01	4.2075	-0.117811	0.000594	5.943969	1.006936	0.011888
 423	2.1100e-01	4.2154	-0.080180	0.000376	3.763088	0.637484	0.007526
 424	2.1150e-01	4.2264	-0.065640	0.000145	1.453920	0.246301	0.002908
 425	2.1200e-01	4.2371	-0.023306	0.000423	4.233474	0.717170	0.008467
 426	2.1250e-01	4.2480	0.006628	0.000299	2.993366	0.507090	0.005987
 427	2.1300e-01	4.2572	0.061364	0.000547	5.473583	0.927250	0.010947
 428	2.1350e-01	4.2635	0.093436	0.000321	3.207177	0.543311	0.006414
 429	2.1400e-01	4.2758	0.131067	0.000376	3.763088	0.637484	0.007526
 430	2.1450e-01	4.2877	0.175540	0.000445	4.447286	0.753391	0.008895
 431	2.1500e-01	4.2972	0.213171	0.000376	3.763088	0.637484	0.007526
 432	2.1550e-01	4.3079	0.265341	0.000522	5.217008	0.883785	0.010434
 433	2.1600e-01	4.3170	0.267907	0.000026	0.256574	0.043465	0.000513
 434	2.1650e-01	4.3259	0.327775	0.000599	5.986731	1.014180	0.011974
 435	2.1700e-01	4.3396	0.366261	0.000385	3.848613	0.651973	0.007697
 436	2.1750e-01	4.3475	0.397478	0.000312	3.121653	0.528822	0.006243
 437	2.1800e-01	4.3573	0.444089	0.000466	4.661098	0.789611	0.009322
 438	2.1850e-01	4.3677	0.486424	0.000423	4.233474	0.717170	0.008467
 439	2.1900e-01	4.3762	0.511226	0.000248	2.480217	0.420160	0.004960
 440	2.1950e-01	4.3878	0.545008	0.000338	3.378227	0.572287	0.006756
 441	2.2000e-01	4.3979	0.582212	0.000372	3.720326	0.630240	0.007441
 442	2.2050e-01	4.4092	0.633527	0.000513	5.131484	0.869297	0.010263
 443	2.2100e-01	4.4199	0.684414	0.000509	5.088721	0.862053	0.010177
 444	2.2150e-01	4.4281	0.704085	0.000197	1.967069	0.333230	0.003934
 445	2.2200e-01	4.4370	0.749841	0.000458	4.575573	0.775123	0.009151
 446	2.2250e-01	4.4461	0.782768	0.000329	3.292702	0.557799	0.006585
 447	2.2300e-01	4.4551	0.840497	0.000577	5.772919	0.977959	0.011546
 448	2.2350e-01	4.4678	0.864017	0.000235	2.351930	0.398428	0.004704
 449	2.2400e-01	4.4766	0.892668	0.000287	2.865078	0.485357	0.005730
 450	2.2450e-01	4.4868	0.932437	0.000398	3.976900	0.673705	0.007954
 451	2.2500e-01	4.4980	0.964081	0.000316	3.164415	0.536066	0.006329
 452	2.2550e-01	4.5065	1.026087	0.000620	6.200543	1.050400	0.012401
 453	2.2600e-01	4.5139	1.055593	0.000295	2.950603	0.499846	0.005901
 454	2.2650e-01	4.5285	1.067139	0.000115	1.154584	0.195592	0.002309
 455	2.2700e-01	4.5377	1.125296	0.000582	5.815682	0.985203	0.011631
 456	2.2750e-01	4.5471	1.160361	0.000351	3.506514	0.594020	0.007013
 457	2.2800e-01	4.5569	1.194571	0.000342	3.420989	0.579531	0.006842
 458	2.2850e-01	4.5676	1.244603	0.000500	5.003197	0.847564	0.010006
 459	2.2900e-01	4.5764	1.265129	0.000205	2.052593	0.347719	0.004105
 460	2.2950e-01	4.5874	1.309602	0.000445	4.447286	0.753391	0.008895
 461	2.3000e-01	4.5990	1.352793	0.000432	4.318999	0.731658	0.008638
 462	2.3050e-01	4.6083	1.384437	0.000316	3.164415	0.536066	0.006329
 463	2.3100e-01	4.6152	1.416936	0.000325	3.249940	0.550555	0.006500
 464	2.3150e-01	4.6280	1.460982	0.000440	4.404524	0.746146	0.008809
 465	2.3200e-01	4.6408	1.497330	0.000363	3.634801	0.615752	0.007270
 466	2.3250e-01	4.6490	1.526408	0.000291	2.907841	0.492602	0.005816
 467	2.3300e-01	4.6570	1.582000	0.000556	5.559107	0.941738	0.011118
 468	2.3350e-01	4.6686	1.621769	0.000398	3.976900	0.673705	0.007954
 469	2.3400e-01	4.6790	1.657262	0.000355	3.549276	0.601264	0.007099
 470	2.3450e-01	4.6863	1.685913	0.000287	2.865078	0.485357	0.005730
 471	2.3500e-01	4.6982	1.726965	0.000411	4.105187	0.695437	0.008210
 472	2.3550e-01	4.7083	1.769300	0.000423	4.233474	0.717170	0.008467
 473	2.3600e-01	4.7156	1.786832	0.000175	1.753257	0.297010	0.003507
 474	2.3650e-01	4.7256	1.828739	0.000419	4.190712	0.709926	0.008381
 475	2.3700e-01	4.7409	1.891173	0.000624	6.243305	1.057645	0.012487
 476	2.3750e-01	4.7467	1.901863	0.000107	1.069059	0.181104	0.002138
 477	2.3800e-01	4.7536	1.969428	0.000676	6.756454	1.144574	0.013513
 478	2.3850e-01	4.7688	1.973704	0.000043	0.427624	0.072441	0.000855
 479	2.3900e-01	4.7775	2.031006	0.000573	5.730157	0.970715	0.011460
 480	2.3950e-01	4.7879	2.069065	0.000381	3.805850	0.644729	0.007612
 481	2.4000e-01	4.7952	2.118669	0.000496	4.960434	0.840320	0.009921
 482	2.4050e-01	4.8065	2.140906	0.000222	2.223643	0.376695	0.004447
 483	2.4100e-01	4.8177	2.163998	0.000231	2.309168	0.391184	0.004618
 484	2.4150e-01	4.8270	2.201629	0.000376	3.763088	0.637484	0.007526
 485	2.4200e-01	4.8373	2.247385	0.000458	4.575573	0.775123	0.009151
 486	2.4250e-01	4.8468	2.276463	0.000291	2.907841	0.492602	0.005816
 487	2.4300e-01	4.8566	2.315377	0.000389	3.891375	0.659217	0.007783
 488	2.4350e-01	4.8694	2.342317	0.000269	2.694029	0.456381	0.005388
 489	2.4400e-01	4.8767	2.390639	0.000483	4.832147	0.818588	0.009664
 490	2.4450e-01	4.8872	2.439816	0.000492	4.917672	0.833076	0.009835
 491	2.4500e-01	4.8975	2.469322	0.000295	2.950603	0.499846	0.005901
 492	2.4550e-01	4.9036	2.506953	0.000376	3.763088	0.637484	0.007526
 493	2.4600e-01	4.9174	2.536459	0.000295	2.950603	0.499846	0.005901
 494	2.4650e-01	4.9280	2.573663	0.000372	3.720326	0.630240	0.007441
 495	2.4700e-01	4.9355	2.613004	0.000393	3.934138	0.666461	0.007868
 496	2.4750e-01	4.9463	2.663892	0.000509	5.088721	0.862053	0.010177
 497	2.4800e-01	4.9579	2.684418	0.000205	2.052593	0.347719	0.004105
 498	2.4850e-01	4.9670	2.734022	0.000496	4.960434	0.840320	0.009921
 499	2.4900e-01	4.9780	2.762673	0.000287	2.865078	0.485357	0.005730
 500	2.4950e-01	4.9875	2.799449	0.000368	3.677563	0.622996	0.007355
 501	2.5000e-01	4.9963	2.828955	0.000295	2.950603	0.499846	0.005901
 502	2.5050e-01	5.0067	2.875566	0.000466	4.661098	0.789611	0.009322
 503	2.5100e-01	5.0165	2.912770	0.000372	3.720326	0.630240	0.007441
 504	2.5150e-01	5.0262	2.951683	0.000389	3.891375	0.659217	0.007783
 505	2.5200e-01	5.0385	2.973920	0.000222	2.223643	0.376695	0.004447
 506	2.5250e-01	5.0500	3.014117	0.000402	4.019662	0.680949	0.008039
 507	2.5300e-01	5.0557	3.061583	0.000475	4.746622	0.804100	0.009493
 508	2.5350e-01	5.0677	3.102208	0.000406	4.062425	0.688193	0.008125
 509	2.5400e-01	5.0769	3.123161	0.000210	2.095356	0.354963	0.004191
 510	2.5450e-01	5.0870	3.153095	0.000299	2.993366	0.507090	0.005987
 511	2.5500e-01	5.0955	3.215528	0.000624	6.243305	1.057645	0.012487
 512	2.5550e-01	5.1050	3.246745	0.000312	3.121653	0.528822	0.006243
 513	2.5600e-01	5.1181	3.272830	0.000261	2.608504	0.441893	0.005217
 514	2.5650e-01	5.1251	3.321579	0.000487	4.874910	0.825832	0.009750
 515	2.5700e-01	5.1361	3.348092	0.000265	2.651267	0.449137	0.005303
 516	2.5750e-01	5.1471	3.386151	0.000381	3.805850	0.644729	0.007612
 517	2.5800e-01	5.1572	3.426348	0.000402	4.019662	0.680949	0.008039
 518	2.5850e-01	5.1657	3.447301	0.000210	2.095356	0.354963	0.004191
 519	2.5900e-01	5.1759	3.481084	0.000338	3.378227	0.572287	0.006756
 520	2.5950e-01	5.1862	3.520853	0.000398	3.976900	0.673705	0.007954
 521	2.6000e-01	5.1949	3.568319	0.000475	4.746622	0.804100	0.009493
 522	2.6050e-01	5.2063	3.590128	0.000218	2.180881	0.369451	0.004362
 523	2.6100e-01	5.2179	3.644009	0.000539	5.388058	0.912762	0.010776
 524	2.6150e-01	5.2241	3.677791	0.000338	3.378227	0.572287	0.006756
 525	2.6200e-01	5.2350	3.715422	0.000376	3.763088	0.637484	0.007526
 526	2.6250e-01	5.2502	3.736803	0.000214	2.138118	0.362207	0.004276
 527	2.6300e-01	5.2554	3.767165	0.000304	3.036128	0.514334	0.006072
 528	2.6350e-01	5.2658	3.818052	0.000509	5.088721	0.862053	0.010177
 529	2.6400e-01	5.2777	3.859104	0.000411	4.105187	0.695437	0.008210
 530	2.6450e-01	5.2867	3.883479	0.000244	2.437455	0.412916	0.004875
 531	2.6500e-01	5.2974	3.918972	0.000355	3.549276	0.601264	0.007099
 532	2.6550e-01	5.3064	3.955320	0.000363	3.634801	0.615752	0.007270
 533	2.6600e-01	5.3162	3.992096	0.000368	3.677563	0.622996	0.007355
 534	2.6650e-01	5.3262	4.025878	0.000338	3.378227	0.572287	0.006756
 535	2.6700e-01	5.3363	4.066075	0.000402	4.019662	0.680949	0.008039
 536	2.6750e-01	5.3467	4.101995	0.000359	3.592039	0.608508	0.007184
 537	2.6800e-01	5.3564	4.131502	0.000295	2.950603	0.499846	0.005901
 538	2.6850e-01	5.3677	4.169133	0.000376	3.763088	0.637484	0.007526
 539	2.6900e-01	5.3757	4.212750	0.000436	4.361761	0.738902	0.008724
 540	2.6950e-01	5.3896	4.243539	0.000308	3.078890	0.521578	0.006158
 541	2.7000e-01	5.3986	4.276467	0.000329	3.292702	0.557799	0.006585
 542	2.7050e-01	5.4083	4.311959	0.000355	3.549276	0.601264	0.007099
 543	2.7100e-01	5.4169	4.347880	0.000359	3.592039	0.608508	0.007184
 544	2.7150e-01	5.4254	4.370544	0.000227	2.266405	0.383939	0.004533
 545	2.7200e-01	5.4364	4.439392	0.000688	6.884741	1.166307	0.013770
 546	2.7250e-01	5.4480	4.466760	0.000274	2.736791	0.463625	0.005474
 547	2.7300e-01	5.4584	4.492845	0.000261	2.608504	0.441893	0.005217
 548	2.7350e-01	5.4663	4.530476	0.000376	3.763088	0.637484	0.007526
 549	2.7400e-01	5.4785	4.570673	0.000402	4.019662	0.680949	0.008039
 550	2.7450e-01	5.4886	4.596758	0.000261	2.608504	0.441893	0.005217
 551	2.7500e-01	5.4980	4.652349	0.000556	5.559107	0.941738	0.011118
 552	2.7550e-01	5.5090	4.672875	0.000205	2.052593	0.347719	0.004105
 553	2.7600e-01	5.5188	4.706658	0.000338	3.378227	0.572287	0.006756
 554	2.7650e-01	5.5266	4.757973	0.000513	5.131484	0.869297	0.010263
 555	2.7700e-01	5.5389	4.781064	0.000231	2.309168	0.391184	0.004618
 556	2.7750e-01	5.5452	4.815702	0.000346	3.463752	0.586775	0.006928
 557	2.7800e-01	5.5554	4.849912	0.000342	3.420989	0.579531	0.006842
 558	2.7850e-01	5.5664	4.896951	0.000470	4.703860	0.796855	0.009408
 559	2.7900e-01	5.5774	4.910635	0.000137	1.368396	0.231812	0.002737
 560	2.7950e-01	5.5855	4.953825	0.000432	4.318999	0.731658	0.008638
 561	2.8000e-01	5.5957	4.986325	0.000325	3.249940	0.550555	0.006500
 562	2.8050e-01	5.6097	5.035074	0.000487	4.874910	0.825832	0.009750
 563	2.8100e-01	5.6168	5.049613	0.000145	1.453920	0.246301	0.002908
 564	2.8150e-01	5.6281	5.090237	0.000406	4.062425	0.688193	0.008125
 565	2.8200e-01	5.6393	5.123165	0.000329	3.292702	0.557799	0.006585
 566	2.8250e-01	5.6451	5.162934	0.000398	3.976900	0.673705	0.007954
 567	2.8300e-01	5.6580	5.230499	0.000676	6.756454	1.144574	0.013513
 568	2.8350e-01	5.6668	5.235202	0.000047	0.470386	0.079686	0.000941
 569	2.8400e-01	5.6760	5.275827	0.000406	4.062425	0.688193	0.008125
 570	2.8450e-01	5.6866	5.319017	0.000432	4.318999	0.731658	0.008638
 571	2.8500e-01	5.6970	5.345957	0.000269	2.694029	0.456381	0.005388
 572	2.8550e-01	5.7059	5.386154	0.000402	4.019662	0.680949	0.008039
 573	2.8600e-01	5.7153	5.416943	0.000308	3.078890	0.521578	0.006158
 574	2.8650e-01	5.7269	5.450298	0.000334	3.335464	0.565043	0.006671
 575	2.8700e-01	5.7362	5.478949	0.000287	2.865078	0.485357	0.005730
 576	2.8750e-01	5.7458	5.513586	0.000346	3.463752	0.586775	0.006928
 577	2.8800e-01	5.7558	5.546941	0.000334	3.335464	0.565043	0.006671
 578	2.8850e-01	5.7672	5.573454	0.000265	2.651267	0.449137	0.005303
 579	2.8900e-01	5.7767	5.625624	0.000522	5.217008	0.883785	0.010434
 580	2.8950e-01	5.7867	5.655130	0.000295	2.950603	0.499846	0.005901
 581	2.9000e-01	5.7956	5.696610	0.000415	4.147949	0.702682	0.008296
 582	2.9050e-01	5.8057	5.735524	0.000389	3.891375	0.659217	0.007783
 583	2.9100e-01	5.8186	5.757333	0.000218	2.180881	0.369451	0.004362
 584	2.9150e-01	5.8273	5.791543	0.000342	3.420989	0.579531	0.006842
 585	2.9200e-01	5.8368	5.822760	0.000312	3.121653	0.528822	0.006243
 586	2.9250e-01	5.8447	5.855687	0.000329	3.292702	0.557799	0.006585
 587	2.9300e-01	5.8534	5.904436	0.000487	4.874910	0.825832	0.009750
 588	2.9350e-01	5.8665	5.944205	0.000398	3.976900	0.673705	0.007954
 589	2.9400e-01	5.8765	5.964731	0.000205	2.052593	0.347719	0.004105
 590	2.9450e-01	5.8864	6.000224	0.000355	3.549276	0.601264	0.007099
 591	2.9500e-01	5.8972	6.038710	0.000385	3.848613	0.651973	0.007697
 592	2.9550e-01	5.9065	6.074631	0.000359	3.592039	0.608508	0.007184
 593	2.9600e-01	5.9174	6.109268	0.000346	3.463752	0.586775	0.006928
 594	2.9650e-01	5.9268	6.146044	0.000368	3.677563	0.622996	0.007355
 595	2.9700e-01	5.9366	6.181537	0.000355	3.549276	0.601264	0.007099
 596	2.9750e-01	5.9485	6.192655	0.000111	1.111821	0.188348	0.002224
 597	2.9800e-01	5.9583	6.240977	0.000483	4.832147	0.818588	0.009664
 598	2.9850e-01	5.9668	6.284595	0.000436	4.361761	0.738902	0.008724
 599	2.9900e-01	5.9743	6.329068	0.000445	4.447286	0.753391	0.008895
 600	2.9950e-01	5.9860	6.347456	0.000184	1.838782	0.311498	0.003678
 601	3.0000e-01	5.9967	6.390218	0.000428	4.276236	0.724414	0.008553
 602	3.0050e-01	6.0060	6.414165	0.000239	2.394692	0.405672	0.004789
 603	3.0100e-01	6.0162	6.456928	0.000428	4.276236	0.724414	0.008553
 604	3.0150e-01	6.0278	6.496697	0.000398	3.976900	0.673705	0.007954
 605	3.0200e-01	6.0367	6.520216	0.000235	2.351930	0.398428	0.004704
 606	3.0250e-01	6.0474	6.561268	0.000411	4.105187	0.695437	0.008210
 607	3.0300e-01	6.0574	6.587354	0.000261	2.608504	0.441893	0.005217
 608	3.0350e-01	6.0657	6.624557	0.000372	3.720326	0.630240	0.007441
 609	3.0400e-01	6.0770	6.654491	0.000299	2.993366	0.507090	0.005987
 610	3.0450e-01	6.0873	6.682286	0.000278	2.779554	0.470869	0.005559
 611	3.0500e-01	6.0962	6.725049	0.000428	4.276236	0.724414	0.008553
 612	3.0550e-01	6.1072	6.755838	0.000308	3.078890	0.521578	0.006158
 613	3.0600e-01	6.1176	6.796035	0.000402	4.019662	0.680949	0.008039
 614	3.0650e-01	6.1261	6.837942	0.000419	4.190712	0.709926	0.008381
 615	3.0700e-01	6.1371	6.863172	0.000252	2.522979	0.427404	0.005046
 616	3.0750e-01	6.1476	6.905507	0.000423	4.233474	0.717170	0.008467
 617	3.0800e-01	6.1600	6.940144	0.000346	3.463752	0.586775	0.006928
 618	3.0850e-01	6.1658	6.970506	0.000304	3.036128	0.514334	0.006072
 619	3.0900e-01	6.1783	7.000012	0.000295	2.950603	0.499846	0.005901
 620	3.0950e-01	6.1867	7.041064	0.000411	4.105187	0.695437	0.008210
 621	3.1000e-01	6.1981	7.074419	0.000334	3.335464	0.565043	0.006671
 622	3.1050e-01	6.2076	7.098366	0.000239	2.394692	0.405672	0.004789
 623	3.1100e-01	6.2186	7.134714	0.000363	3.634801	0.615752	0.007270
 624	3.1150e-01	6.2262	7.167641	0.000329	3.292702	0.557799	0.006585
 625	3.1200e-01	6.2386	7.212114	0.000445	4.447286	0.753391	0.008895
 626	3.1250e-01	6.2466	7.246324	0.000342	3.420989	0.579531	0.006842
 627	3.1300e-01	6.2582	7.285238	0.000389	3.891375	0.659217	0.007783
 628	3.1350e-01	6.2646	7.297211	0.000120	1.197346	0.202836	0.002395
 629	3.1400e-01	6.2759	7.346816	0.000496	4.960434	0.840320	0.009921
 630	3.1450e-01	6.2869	7.384875	0.000381	3.805850	0.644729	0.007612
 631	3.1500e-01	6.2973	7.415236	0.000304	3.036128	0.514334	0.006072
 632	3.1550e-01	6.3083	7.428492	0.000133	1.325633	0.224568	0.002651
 633	3.1600e-01	6.3190	7.478525	0.000500	5.003197	0.847564	0.010006
 634	3.1650e-01	6.3257	7.515728	0.000372	3.720326	0.630240	0.007441
 635	3.1700e-01	6.3361	7.540530	0.000248	2.480217	0.420160	0.004960
 636	3.1750e-01	6.3452	7.582010	0.000415	4.147949	0.702682	0.008296
 637	3.1800e-01	6.3596	7.607240	0.000252	2.522979	0.427404	0.005046
 638	3.1850e-01	6.3678	7.649575	0.000423	4.233474	0.717170	0.008467
 639	3.1900e-01	6.3788	7.681647	0.000321	3.207177	0.543311	0.006414
 640	3.1950e-01	6.3855	7.720133	0.000385	3.848613	0.651973	0.007697
 641	3.2000e-01	6.3979	7.761185	0.000411	4.105187	0.695437	0.008210
 642	3.2050e-01	6.4064	7.768455	0.000073	0.726960	0.123150	0.001454
 643	3.2100e-01	6.4172	7.817204	0.000487	4.874910	0.825832	0.009750
 644	3.2150e-01	6.4270	7.852269	0.000351	3.506514	0.594020	0.007013
 645	3.2200e-01	6.4343	7.889045	0.000368	3.677563	0.622996	0.007355
 646	3.2250e-01	6.4484	7.909143	0.000201	2.009831	0.340475	0.004020
 647	3.2300e-01	6.4563	7.947630	0.000385	3.848613	0.651973	0.007697
 648	3.2350e-01	6.4697	7.974570	0.000269	2.694029	0.456381	0.005388
 649	3.2400e-01	6.4787	8.023747	0.000492	4.917672	0.833076	0.009835
 650	3.2450e-01	6.4874	8.048121	0.000244	2.437455	0.412916	0.004875
 651	3.2500e-01	6.4970	8.089174	0.000411	4.105187	0.695437	0.008210
 652	3.2550e-01	6.5073	8.122956	0.000338	3.378227	0.572287	0.006756
 653	3.2600e-01	6.5167	8.148186	0.000252	2.522979	0.427404	0.005046
 654	3.2650e-01	6.5259	8.186672	0.000385	3.848613	0.651973	0.007697
 655	3.2700e-01	6.5369	8.231573	0.000449	4.490048	0.760635	0.008980
 656	3.2750e-01	6.5480	8.245684	0.000141	1.411158	0.239057	0.002822
 657	3.2800e-01	6.5588	8.284598	0.000389	3.891375	0.659217	0.007783
 658	3.2850e-01	6.5643	8.332492	0.000479	4.789385	0.811344	0.009579
 659	3.2900e-01	6.5793	8.351735	0.000192	1.924306	0.325986	0.003849
 660	3.2950e-01	6.5854	8.399202	0.000475	4.746622	0.804100	0.009493
 661	3.3000e-01	6.5967	8.427425	0.000282	2.822316	0.478113	0.005645
 662	3.3050e-01	6.6071	8.453083	0.000257	2.565742	0.434648	0.005132
 663	3.3100e-01	6.6187	8.480451	0.000274	2.736791	0.463625	0.005474
 664	3.3150e-01	6.6290	8.509529	0.000291	2.907841	0.492602	0.005816
 665	3.3200e-01	6.6364	8.555713	0.000462	4.618335	0.782367	0.009237
 666	3.3250e-01	6.6467	8.566403	0.000107	1.069059	0.181104	0.002138
 667	3.3300e-01	6.6553	8.614725	0.000483	4.832147	0.818588	0.009664
 668	3.3350e-01	6.6684	8.653639	0.000389	3.891375	0.659217	0.007783
 669	3.3400e-01	6.6803	8.676303	0.000227	2.266405	0.383939	0.004533
 670	3.3450e-01	6.6861	8.716927	0.000406	4.062425	0.688193	0.008125
 671	3.3500e-01	6.6962	8.746434	0.000295	2.950603	0.499846	0.005901
 672	3.3550e-01	6.7055	8.799459	0.000530	5.302533	0.898273	0.010605
 673	3.3600e-01	6.7157	8.828538	0.000291	2.907841	0.492602	0.005816
 674	3.3650e-01	6.7282	8.858899	0.000304	3.036128	0.514334	0.006072
 675	3.3700e-01	6.7355	8.881991	0.000231	2.309168	0.391184	0.004618
 676	3.3750e-01	6.7458	8.913635	0.000316	3.164415	0.536066	0.006329
 677	3.3800e-01	6.7566	8.944852	0.000312	3.121653	0.528822	0.006243
 678	3.3850e-01	6.7688	8.964950	0.000201	2.009831	0.340475	0.004020
 679	3.3900e-01	6.7773	9.021824	0.000569	5.687394	0.963471	0.011375
 680	3.3950e-01	6.7865	9.049620	0.000278	2.779554	0.470869	0.005559
 681	3.4000e-01	6.7963	9.078698	0.000291	2.907841	0.492602	0.005816
 682	3.4050e-01	6.8066	9.128731	0.000500	5.003197	0.847564	0.010006
 683	3.4100e-01	6.8152	9.149684	0.000210	2.095356	0.354963	0.004191
 684	3.4150e-01	6.8280	9.171493	0.000218	2.180881	0.369451	0.004362
 685	3.4200e-01	6.8372	9.200999	0.000295	2.950603	0.499846	0.005901
 686	3.4250e-01	6.8494	9.251031	0.000500	5.003197	0.847564	0.010006
 687	3.4300e-01	6.8564	9.292511	0.000415	4.147949	0.702682	0.008296
 688	3.4350e-01	6.8678	9.327149	0.000346	3.463752	0.586775	0.006928
 689	3.4400e-01	6.8762	9.354944	0.000278	2.779554	0.470869	0.005559
 690	3.4450e-01	6.8860	9.369056	0.000141	1.411158	0.239057	0.002822
 691	3.4500e-01	6.8964	9.410108	0.000411	4.105187	0.695437	0.008210
 692	3.4550e-01	6.9073	9.442180	0.000321	3.207177	0.543311	0.006414
 693	3.4600e-01	6.9189	9.461851	0.000197	1.967069	0.333230	0.003934
 694	3.4650e-01	6.9269	9.499054	0.000372	3.720326	0.630240	0.007441
 695	3.4700e-01	6.9356	9.550797	0.000517	5.174246	0.876541	0.010349
 696	3.4750e-01	6.9452	9.589283	0.000385	3.848613	0.651973	0.007697
 697	3.4800e-01	6.9586	9.588000	-0.000013	-0.128287	-0.021732	-0.000257
 698	3.4850e-01	6.9672	9.636749	0.000487	4.874910	0.825832	0.009750
 699	3.4900e-01	6.9763	9.665828	0.000291	2.907841	0.492602	0.005816
 700	3.4950e-01	6.9858	9.688920	0.000231	2.309168	0.391184	0.004618
 701	3.5000e-01	6.9980	9.755202	0.000663	6.628166	1.122842	0.013256
 702	3.5050e-01	7.0056	9.776155	0.000210	2.095356	0.354963	0.004191
 703	3.5100e-01	7.0145	9.806089	0.000299	2.993366	0.507090	0.005987
 704	3.5150e-01	7.0258	9.848424	0.000423	4.233474	0.717170	0.008467
 705	3.5200e-01	7.0401	9.858687	0.000103	1.026297	0.173859	0.002053
 706	3.5250e-01	7.0474	9.910857	0.000522	5.217008	0.883785	0.010434
 707	3.5300e-01	7.0581	9.937798	0.000269	2.694029	0.456381	0.005388
 708	3.5350e-01	7.0667	9.959179	0.000214	2.138118	0.362207	0.004276
 709	3.5400e-01	7.0789	9.990395	0.000312	3.121653	0.528822	0.006243
 710	3.5450e-01	7.0871	10.020329	0.000299	2.993366	0.507090	0.005987
 711	3.5500e-01	7.0985	10.062664	0.000423	4.233474	0.717170	0.008467
 712	3.5550e-01	7.1063	10.088749	0.000261	2.608504	0.441893	0.005217
 713	3.5600e-01	7.1179	10.124670	0.000359	3.592039	0.608508	0.007184
 714	3.5650e-01	7.1295	10.161446	0.000368	3.677563	0.622996	0.007355
 715	3.5700e-01	7.1378	10.189241	0.000278	2.779554	0.470869	0.005559
 716	3.5750e-01	7.1472	10.218747	0.000295	2.950603	0.499846	0.005901
 717	3.5800e-01	7.1545	10.255096	0.000363	3.634801	0.615752	0.007270
 718	3.5850e-01	7.1649	10.275194	0.000201	2.009831	0.340475	0.004020
 719	3.5900e-01	7.1765	10.302134	0.000269	2.694029	0.456381	0.005388
 720	3.5950e-01	7.1869	10.346607	0.000445	4.447286	0.753391	0.008895
 721	3.6000e-01	7.1976	10.394074	0.000475	4.746622	0.804100	0.009493
 722	3.6050e-01	7.2067	10.423580	0.000295	2.950603	0.499846	0.005901
 723	3.6100e-01	7.2168	10.443678	0.000201	2.009831	0.340475	0.004020
 724	3.6150e-01	7.2260	10.486013	0.000423	4.233474	0.717170	0.008467
 725	3.6200e-01	7.2345	10.514236	0.000282	2.822316	0.478113	0.005645
 726	3.6250e-01	7.2485	10.551012	0.000368	3.677563	0.622996	0.007355
 727	3.6300e-01	7.2583	10.577525	0.000265	2.651267	0.449137	0.005303
 728	3.6350e-01	7.2668	10.608742	0.000312	3.121653	0.528822	0.006243
 729	3.6400e-01	7.2760	10.650221	0.000415	4.147949	0.702682	0.008296
 730	3.6450e-01	7.2839	10.684431	0.000342	3.420989	0.579531	0.006842
 731	3.6500e-01	7.2949	10.711372	0.000269	2.694029	0.456381	0.005388
 732	3.6550e-01	7.3047	10.731042	0.000197	1.967069	0.333230	0.003934
 733	3.6600e-01	7.3181	10.768673	0.000376	3.763088	0.637484	0.007526
 734	3.6650e-01	7.3303	10.801173	0.000325	3.249940	0.550555	0.006500
 735	3.6700e-01	7.3352	10.836666	0.000355	3.549276	0.601264	0.007099
 736	3.6750e-01	7.3474	10.872159	0.000355	3.549276	0.601264	0.007099
 737	3.6800e-01	7.3572	10.904231	0.000321	3.207177	0.543311	0.006414
 738	3.6850e-01	7.3685	10.922619	0.000184	1.838782	0.311498	0.003678
 739	3.6900e-01	7.3743	10.964098	0.000415	4.147949	0.702682	0.008296
 740	3.6950e-01	7.3895	10.997881	0.000338	3.378227	0.572287	0.006756
 741	3.7000e-01	7.3950	11.023111	0.000252	2.522979	0.427404	0.005046
 742	3.7050e-01	7.4072	11.053472	0.000304	3.036128	0.514334	0.006072
 743	3.7100e-01	7.4161	11.099655	0.000462	4.618335	0.782367	0.009237
 744	3.7150e-01	7.4268	11.112484	0.000128	1.282871	0.217324	0.002566
 745	3.7200e-01	7.4347	11.155247	0.000428	4.276236	0.724414	0.008553
 746	3.7250e-01	7.4454	11.160378	0.000051	0.513148	0.086930	0.001026
 747	3.7300e-01	7.4564	11.236496	0.000761	7.611701	1.289457	0.015223
 748	3.7350e-01	7.4664	11.263436	0.000269	2.694029	0.456381	0.005388
 749	3.7400e-01	7.4768	11.277120	0.000137	1.368396	0.231812	0.002737
 750	3.7450e-01	7.4879	11.293370	0.000162	1.624970	0.275277	0.003250
 751	3.7500e-01	7.4982	11.350671	0.000573	5.730157	0.970715	0.011460
 752	3.7550e-01	7.5073	11.364783	0.000141	1.411158	0.239057	0.002822
 753	3.7600e-01	7.5195	11.404125	0.000393	3.934138	0.666461	0.007868
 754	3.7650e-01	7.5262	11.442611	0.000385	3.848613	0.651973	0.007697
 755	3.7700e-01	7.5339	11.478959	0.000363	3.634801	0.615752	0.007270
 756	3.7750e-01	7.5464	11.526425	0.000475	4.746622	0.804100	0.009493
 757	3.7800e-01	7.5574	11.535833	0.000094	0.940772	0.159371	0.001882
 758	3.7850e-01	7.5671	11.554221	0.000184	1.838782	0.311498	0.003678
 759	3.7900e-01	7.5784	11.607247	0.000530	5.302533	0.898273	0.010605
 760	3.7950e-01	7.5848	11.632049	0.000248	2.480217	0.420160	0.004960
 761	3.8000e-01	7.5952	11.671390	0.000393	3.934138	0.666461	0.007868
 762	3.8050e-01	7.6044	11.702607	0.000312	3.121653	0.528822	0.006243
 763	3.8100e-01	7.6147	11.740238	0.000376	3.763088	0.637484	0.007526
 764	3.8150e-01	7.6263	11.758626	0.000184	1.838782	0.311498	0.003678
 765	3.8200e-01	7.6373	11.812079	0.000535	5.345296	0.905518	0.010691
 766	3.8250e-01	7.6477	11.819776	0.000077	0.769723	0.130395	0.001539
 767	3.8300e-01	7.6553	11.860828	0.000411	4.105187	0.695437	0.008210
 768	3.8350e-01	7.6654	11.901025	0.000402	4.019662	0.680949	0.008039
 769	3.8400e-01	7.6773	11.910433	0.000094	0.940772	0.159371	0.001882
 770	3.8450e-01	7.6862	11.937373	0.000269	2.694029	0.456381	0.005388
 771	3.8500e-01	7.6971	11.993392	0.000560	5.601870	0.948982	0.011204
 772	3.8550e-01	7.7063	12.004511	0.000111	1.111821	0.188348	0.002224
 773	3.8600e-01	7.7161	12.037438	0.000329	3.292702	0.557799	0.006585
 774	3.8650e-01	7.7289	12.071220	0.000338	3.378227	0.572287	0.006756
 775	3.8700e-01	7.7344	12.089608	0.000184	1.838782	0.311498	0.003678
 776	3.8750e-01	7.7460	12.138785	0.000492	4.917672	0.833076	0.009835
 777	3.8800e-01	7.7563	12.175561	0.000368	3.677563	0.622996	0.007355
 778	3.8850e-01	7.7649	12.206777	0.000312	3.121653	0.528822	0.006243
 779	3.8900e-01	7.7783	12.228586	0.000218	2.180881	0.369451	0.004362
 780	3.8950e-01	7.7869	12.251678	0.000231	2.309168	0.391184	0.004618
 781	3.9000e-01	7.7979	12.296151	0.000445	4.447286	0.753391	0.008895
 782	3.9050e-01	7.8076	12.311118	0.000150	1.496683	0.253545	0.002993
 783	3.9100e-01	7.8204	12.359012	0.000479	4.789385	0.811344	0.009579
 784	3.9150e-01	7.8265	12.376972	0.000180	1.796019	0.304254	0.003592
 785	3.9200e-01	7.8369	12.413748	0.000368	3.677563	0.622996	0.007355
 786	3.9250e-01	7.8473	12.446675	0.000329	3.292702	0.557799	0.006585
 787	3.9300e-01	7.8589	12.473615	0.000269	2.694029	0.456381	0.005388
 788	3.9350e-01	7.8677	12.521082	0.000475	4.746622	0.804100	0.009493
 789	3.9400e-01	7.8760	12.543318	0.000222	2.223643	0.376695	0.004447
 790	3.9450e-01	7.8839	12.580094	0.000368	3.677563	0.622996	0.007355
 791	3.9500e-01	7.8973	12.614732	0.000346	3.463752	0.586775	0.006928
 792	3.9550e-01	7.9050	12.636968	0.000222	2.223643	0.376695	0.004447
 793	3.9600e-01	7.9187	12.676310	0.000393	3.934138	0.666461	0.007868
 794	3.9650e-01	7.9279	12.685718	0.000094	0.940772	0.159371	0.001882
 795	3.9700e-01	7.9382	12.727625	0.000419	4.190712	0.709926	0.008381
 796	3.9750e-01	7.9504	12.766539	0.000389	3.891375	0.659217	0.007783
 797	3.9800e-01	7.9568	12.793052	0.000265	2.651267	0.449137	0.005303
 798	3.9850e-01	7.9663	12.852064	0.000590	5.901206	0.999691	0.011802
 799	3.9900e-01	7.9739	12.869596	0.000175	1.753257	0.297010	0.003507
 800	3.9950e-01	7.9874	12.886701	0.000171	1.710495	0.289766	0.003421
 801	4.0000e-01	7.9971	12.920056	0.000334	3.335464	0.565043	0.006671
 802	4.0050e-01	8.0045	12.932885	0.000128	1.282871	0.217324	0.002566
 803	4.0100e-01	8.0176	12.973937	0.000411	4.105187	0.695437	0.008210
 804	4.0150e-01	8.0249	13.002160	0.000282	2.822316	0.478113	0.005645
 805	4.0200e-01	8.0359	13.049199	0.000470	4.703860	0.796855	0.009408
 806	4.0250e-01	8.0481	13.077850	0.000287	2.865078	0.485357	0.005730
 807	4.0300e-01	8.0573	13.102225	0.000244	2.437455	0.412916	0.004875
 808	4.0350e-01	8.0688	13.151829	0.000496	4.960434	0.840320	0.009921
 809	4.0400e-01	8.0759	13.174921	0.000231	2.309168	0.391184	0.004618
 810	4.0450e-01	8.0873	13.211697	0.000368	3.677563	0.622996	0.007355
 811	4.0500e-01	8.0969	13.230512	0.000188	1.881544	0.318742	0.003763
 812	4.0550e-01	8.1073	13.257025	0.000265	2.651267	0.449137	0.005303
 813	4.0600e-01	8.1172	13.288669	0.000316	3.164415	0.536066	0.006329
 814	4.0650e-01	8.1281	13.315610	0.000269	2.694029	0.456381	0.005388
 815	4.0700e-01	8.1378	13.347682	0.000321	3.207177	0.543311	0.006414
 816	4.0750e-01	8.1525	13.393010	0.000453	4.532811	0.767879	0.009066
 817	4.0800e-01	8.1573	13.427220	0.000342	3.420989	0.579531	0.006842
 818	4.0850e-01	8.1677	13.454588	0.000274	2.736791	0.463625	0.005474
 819	4.0900e-01	8.1769	13.473403	0.000188	1.881544	0.318742	0.003763
 820	4.0950e-01	8.1873	13.508469	0.000351	3.506514	0.594020	0.007013
 821	4.1000e-01	8.1958	13.546527	0.000381	3.805850	0.644729	0.007612
 822	4.1050e-01	8.2062	13.564060	0.000175	1.753257	0.297010	0.003507
 823	4.1100e-01	8.2179	13.598270	0.000342	3.420989	0.579531	0.006842
 824	4.1150e-01	8.2269	13.641460	0.000432	4.318999	0.731658	0.008638
 825	4.1200e-01	8.2416	13.664552	0.000231	2.309168	0.391184	0.004618
 826	4.1250e-01	8.2483	13.710308	0.000458	4.575573	0.775123	0.009151
 827	4.1300e-01	8.2562	13.735538	0.000252	2.522979	0.427404	0.005046
 828	4.1350e-01	8.2635	13.741952	0.000064	0.641435	0.108662	0.001283
 829	4.1400e-01	8.2761	13.790274	0.000483	4.832147	0.818588	0.009664
 830	4.1450e-01	8.2861	13.828332	0.000381	3.805850	0.644729	0.007612
 831	4.1500e-01	8.2959	13.846293	0.000180	1.796019	0.304254	0.003592
 832	4.1550e-01	8.3081	13.882641	0.000363	3.634801	0.615752	0.007270
 833	4.1600e-01	8.3191	13.916851	0.000342	3.420989	0.579531	0.006842
 834	4.1650e-01	8.3276	13.949778	0.000329	3.292702	0.557799	0.006585
 835	4.1700e-01	8.3356	13.978856	0.000291	2.907841	0.492602	0.005816
 836	4.1750e-01	8.3453	14.009218	0.000304	3.036128	0.514334	0.006072
 837	4.1800e-01	8.3588	14.047704	0.000385	3.848613	0.651973	0.007697
 838	4.1850e-01	8.3667	14.070796	0.000231	2.309168	0.391184	0.004618
 839	4.1900e-01	8.3768	14.096026	0.000252	2.522979	0.427404	0.005046
 840	4.1950e-01	8.3905	14.121256	0.000252	2.522979	0.427404	0.005046
 841	4.2000e-01	8.3960	14.143920	0.000227	2.266405	0.383939	0.004533
 842	4.2050e-01	8.4048	14.198656	0.000547	5.473583	0.927250	0.010947
 843	4.2100e-01	8.4167	14.227307	0.000287	2.865078	0.485357	0.005730
 844	4.2150e-01	8.4265	14.251254	0.000239	2.394692	0.405672	0.004789
 845	4.2200e-01	8.4363	14.286319	0.000351	3.506514	0.594020	0.007013
 846	4.2250e-01	8.4509	14.297437	0.000111	1.111821	0.188348	0.002224
 847	4.2300e-01	8.4558	14.341910	0.000445	4.447286	0.753391	0.008895
 848	4.2350e-01	8.4662	14.390232	0.000483	4.832147	0.818588	0.009664
 849	4.2400e-01	8.4796	14.414179	0.000239	2.394692	0.405672	0.004789
 850	4.2450e-01	8.4863	14.447106	0.000329	3.292702	0.557799	0.006585
 851	4.2500e-01	8.4961	14.468915	0.000218	2.180881	0.369451	0.004362
 852	4.2550e-01	8.5083	14.509112	0.000402	4.019662	0.680949	0.008039
 853	4.2600e-01	8.5172	14.518520	0.000094	0.940772	0.159371	0.001882
 854	4.2650e-01	8.5248	14.573683	0.000552	5.516345	0.934494	0.011033
 855	4.2700e-01	8.5358	14.581380	0.000077	0.769723	0.130395	0.001539
 856	4.2750e-01	8.5461	14.624998	0.000436	4.361761	0.738902	0.008724
 857	4.2800e-01	8.5571	14.678879	0.000539	5.388058	0.912762	0.010776
 858	4.2850e-01	8.5669	14.687004	0.000081	0.812485	0.137639	0.001625
 859	4.2900e-01	8.5782	14.716510	0.000295	2.950603	0.499846	0.005901
 860	4.2950e-01	8.5867	14.747727	0.000312	3.121653	0.528822	0.006243
 861	4.3000e-01	8.5977	14.778943	0.000312	3.121653	0.528822	0.006243
 862	4.3050e-01	8.6047	14.822133	0.000432	4.318999	0.731658	0.008638
 863	4.3100e-01	8.6176	14.849074	0.000269	2.694029	0.456381	0.005388
 864	4.3150e-01	8.6292	14.885850	0.000368	3.677563	0.622996	0.007355
 865	4.3200e-01	8.6356	14.910224	0.000244	2.437455	0.412916	0.004875
 866	4.3250e-01	8.6469	14.922198	0.000120	1.197346	0.202836	0.002395
 867	4.3300e-01	8.6591	14.965816	0.000436	4.361761	0.738902	0.008724
 868	4.3350e-01	8.6667	15.002591	0.000368	3.677563	0.622996	0.007355
 869	4.3400e-01	8.6755	15.018841	0.000162	1.624970	0.275277	0.003250
 870	4.3450e-01	8.6853	15.064169	0.000453	4.532811	0.767879	0.009066
 871	4.3500e-01	8.6981	15.088972	0.000248	2.480217	0.420160	0.004960
 872	4.3550e-01	8.7064	15.121471	0.000325	3.249940	0.550555	0.006500
 873	4.3600e-01	8.7177	15.135155	0.000137	1.368396	0.231812	0.002737
 874	4.3650e-01	8.7268	15.181766	0.000466	4.661098	0.789611	0.009322
 875	4.3700e-01	8.7354	15.204858	0.000231	2.309168	0.391184	0.004618
 876	4.3750e-01	8.7473	15.248903	0.000440	4.404524	0.746146	0.008809
 877	4.3800e-01	8.7549	15.268574	0.000197	1.967069	0.333230	0.003934
 878	4.3850e-01	8.7671	15.289528	0.000210	2.095356	0.354963	0.004191
 879	4.3900e-01	8.7769	15.341271	0.000517	5.174246	0.876541	0.010349
 880	4.3950e-01	8.7854	15.362224	0.000210	2.095356	0.354963	0.004191
 881	4.4000e-01	8.7976	15.378902	0.000167	1.667732	0.282521	0.003335
 882	4.4050e-01	8.8092	15.430644	0.000517	5.174246	0.876541	0.010349
 883	4.4100e-01	8.8159	15.469130	0.000385	3.848613	0.651973	0.007697
 884	4.4150e-01	8.8275	15.472979	0.000038	0.384861	0.065197	0.000770
 885	4.4200e-01	8.8367	15.520018	0.000470	4.703860	0.796855	0.009408
 886	4.4250e-01	8.8470	15.548241	0.000282	2.822316	0.478113	0.005645
 887	4.4300e-01	8.8556	15.582451	0.000342	3.420989	0.579531	0.006842
 888	4.4350e-01	8.8647	15.620082	0.000376	3.763088	0.637484	0.007526
 889	4.4400e-01	8.8770	15.648733	0.000287	2.865078	0.485357	0.005730
 890	4.4450e-01	8.8867	15.664983	0.000162	1.624970	0.275277	0.003250
 891	4.4500e-01	8.8962	15.708173	0.000432	4.318999	0.731658	0.008638
 892	4.4550e-01	8.9075	15.724423	0.000162	1.624970	0.275277	0.003250
 893	4.4600e-01	8.9154	15.760771	0.000363	3.634801	0.615752	0.007270
 894	4.4650e-01	8.9276	15.778731	0.000180	1.796019	0.304254	0.003592
 895	4.4700e-01	8.9349	15.817645	0.000389	3.891375	0.659217	0.007783
 896	4.4750e-01	8.9423	15.856131	0.000385	3.848613	0.651973	0.007697
 897	4.4800e-01	8.9563	15.870671	0.000145	1.453920	0.246301	0.002908
 898	4.4850e-01	8.9648	15.915144	0.000445	4.447286	0.753391	0.008895
 899	4.4900e-01	8.9758	15.954913	0.000398	3.976900	0.673705	0.007954
 900	4.4950e-01	8.9862	15.972445	0.000175	1.753257	0.297010	0.003507
 901	4.5000e-01	8.9912	16.025471	0.000530	5.302533	0.898273	0.010605
 902	4.5050e-01	9.0070	16.028464	0.000030	0.299337	0.050709	0.000599
 903	4.5100e-01	9.0173	16.054977	0.000265	2.651267	0.449137	0.005303
 904	4.5150e-01	9.0240	16.124252	0.000693	6.927503	1.173551	0.013855
 905	4.5200e-01	9.0375	16.123825	-0.000004	-0.042762	-0.007244	-0.000086
 906	4.5250e-01	9.0472	16.159745	0.000359	3.592039	0.608508	0.007184
 907	4.5300e-01	9.0588	16.190534	0.000308	3.078890	0.521578	0.006158
 908	4.5350e-01	9.0649	16.228593	0.000381	3.805850	0.644729	0.007612
 909	4.5400e-01	9.0775	16.273494	0.000449	4.490048	0.760635	0.008980
 910	4.5450e-01	9.0869	16.279053	0.000056	0.555911	0.094174	0.001112
 911	4.5500e-01	9.0961	16.336355	0.000573	5.730157	0.970715	0.011460
 912	4.5550e-01	9.1089	16.350039	0.000137	1.368396	0.231812	0.002737
 913	4.5600e-01	9.1165	16.378262	0.000282	2.822316	0.478113	0.005645
 914	4.5650e-01	9.1284	16.409478	0.000312	3.121653	0.528822	0.006243
 915	4.5700e-01	9.1373	16.439412	0.000299	2.993366	0.507090	0.005987
 916	4.5750e-01	9.1461	16.471057	0.000316	3.164415	0.536066	0.006329
 917	4.5800e-01	9.1565	16.494576	0.000235	2.351930	0.398428	0.004704
 918	4.5850e-01	9.1675	16.536483	0.000419	4.190712	0.709926	0.008381
 919	4.5900e-01	9.1772	16.557437	0.000210	2.095356	0.354963	0.004191
 920	4.5950e-01	9.1864	16.586943	0.000295	2.950603	0.499846	0.005901
 921	4.6000e-01	9.1980	16.639113	0.000522	5.217008	0.883785	0.010434
 922	4.6050e-01	9.2055	16.645100	0.000060	0.598673	0.101418	0.001197
 923	4.6100e-01	9.2169	16.692566	0.000475	4.746622	0.804100	0.009493
 924	4.6150e-01	9.2285	16.728915	0.000363	3.634801	0.615752	0.007270
 925	4.6200e-01	9.2334	16.754144	0.000252	2.522979	0.427404	0.005046
 926	4.6250e-01	9.2456	16.790920	0.000368	3.677563	0.622996	0.007355
 927	4.6300e-01	9.2560	16.805459	0.000145	1.453920	0.246301	0.002908
 928	4.6350e-01	9.2657	16.830262	0.000248	2.480217	0.420160	0.004960
 929	4.6400e-01	9.2737	16.856775	0.000265	2.651267	0.449137	0.005303
 930	4.6450e-01	9.2859	16.905096	0.000483	4.832147	0.818588	0.009664
 931	4.6500e-01	9.2957	16.937596	0.000325	3.249940	0.550555	0.006500
 932	4.6550e-01	9.3057	16.961115	0.000235	2.351930	0.398428	0.004704
 933	4.6600e-01	9.3182	16.987628	0.000265	2.651267	0.449137	0.005303
 934	4.6650e-01	9.3256	17.029108	0.000415	4.147949	0.702682	0.008296
 935	4.6700e-01	9.3365	17.058614	0.000295	2.950603	0.499846	0.005901
 936	4.6750e-01	9.3445	17.087265	0.000287	2.865078	0.485357	0.005730
 937	4.6800e-01	9.3570	17.116343	0.000291	2.907841	0.492602	0.005816
 938	4.6850e-01	9.3665	17.140718	0.000244	2.437455	0.412916	0.004875
 939	4.6900e-01	9.3759	17.181770	0.000411	4.105187	0.695437	0.008210
 940	4.6950e-01	9.3848	17.198019	0.000162	1.624970	0.275277	0.003250
 941	4.7000e-01	9.3958	17.233085	0.000351	3.506514	0.594020	0.007013
 942	4.7050e-01	9.4061	17.283545	0.000505	5.045959	0.854809	0.010092
 943	4.7100e-01	9.4180	17.298939	0.000154	1.539445	0.260789	0.003079
 944	4.7150e-01	9.4266	17.315616	0.000167	1.667732	0.282521	0.003335
 945	4.7200e-01	9.4370	17.358807	0.000432	4.318999	0.731658	0.008638
 946	4.7250e-01	9.4458	17.399859	0.000411	4.105187	0.695437	0.008210
 947	4.7300e-01	9.4543	17.419529	0.000197	1.967069	0.333230	0.003934
 948	4.7350e-01	9.4678	17.465285	0.000458	4.575573	0.775123	0.009151
 949	4.7400e-01	9.4769	17.487094	0.000218	2.180881	0.369451	0.004362
 950	4.7450e-01	9.4830	17.524725	0.000376	3.763088	0.637484	0.007526
 951	4.7500e-01	9.4946	17.550383	0.000257	2.565742	0.434648	0.005132
 952	4.7550e-01	9.5053	17.578178	0.000278	2.779554	0.470869	0.005559
 953	4.7600e-01	9.5190	17.607684	0.000295	2.950603	0.499846	0.005901
 954	4.7650e-01	9.5251	17.637191	0.000295	2.950603	0.499846	0.005901
 955	4.7700e-01	9.5349	17.676960	0.000398	3.976900	0.673705	0.007954
 956	4.7750e-01	9.5474	17.714163	0.000372	3.720326	0.630240	0.007441
 957	4.7800e-01	9.5581	17.738538	0.000244	2.437455	0.412916	0.004875
 958	4.7850e-01	9.5630	17.771465	0.000329	3.292702	0.557799	0.006585
 959	4.7900e-01	9.5752	17.788998	0.000175	1.753257	0.297010	0.003507
 960	4.7950e-01	9.5865	17.818931	0.000299	2.993366	0.507090	0.005987
 961	4.8000e-01	9.5959	17.866825	0.000479	4.789385	0.811344	0.009579
 962	4.8050e-01	9.6057	17.896332	0.000295	2.950603	0.499846	0.005901
 963	4.8100e-01	9.6161	17.927976	0.000316	3.164415	0.536066	0.006329
 964	4.8150e-01	9.6252	17.952350	0.000244	2.437455	0.412916	0.004875
 965	4.8200e-01	9.6375	17.975442	0.000231	2.309168	0.391184	0.004618
 966	4.8250e-01	9.6448	18.012218	0.000368	3.677563	0.622996	0.007355
 967	4.8300e-01	9.6564	18.041297	0.000291	2.907841	0.492602	0.005816
 968	4.8350e-01	9.6661	18.062250	0.000210	2.095356	0.354963	0.004191
 969	4.8400e-01	9.6765	18.098171	0.000359	3.592039	0.608508	0.007184
 970	4.8450e-01	9.6881	18.123401	0.000252	2.522979	0.427404	0.005046
 971	4.8500e-01	9.6985	18.153334	0.000299	2.993366	0.507090	0.005987
 972	4.8550e-01	9.7058	18.192676	0.000393	3.934138	0.666461	0.007868
 973	4.8600e-01	9.7153	18.229452	0.000368	3.677563	0.622996	0.007355
 974	4.8650e-01	9.7256	18.261096	0.000316	3.164415	0.536066	0.006329
 975	4.8700e-01	9.7357	18.288036	0.000269	2.694029	0.456381	0.005388
 976	4.8750e-01	9.7455	18.315404	0.000274	2.736791	0.463625	0.005474
 977	4.8800e-01	9.7577	18.358594	0.000432	4.318999	0.731658	0.008638
 978	4.8850e-01	9.7656	18.386390	0.000278	2.779554	0.470869	0.005559
 979	4.8900e-01	9.7766	18.406061	0.000197	1.967069	0.333230	0.003934
 980	4.8950e-01	9.7839	18.449679	0.000436	4.361761	0.738902	0.008724
 981	4.9000e-01	9.7949	18.460369	0.000107	1.069059	0.181104	0.002138
 982	4.9050e-01	9.8047	18.515105	0.000547	5.473583	0.927250	0.010947
 983	4.9100e-01	9.8141	18.547605	0.000325	3.249940	0.550555	0.006500
 984	4.9150e-01	9.8254	18.579249	0.000316	3.164415	0.536066	0.006329
 985	4.9200e-01	9.8364	18.601913	0.000227	2.266405	0.383939	0.004533
 986	4.9250e-01	9.8456	18.649807	0.000479	4.789385	0.811344	0.009579
 987	4.9300e-01	9.8566	18.659643	0.000098	0.983534	0.166615	0.001967
 988	4.9350e-01	9.8645	18.697274	0.000376	3.763088	0.637484	0.007526
 989	4.9400e-01	9.8755	18.723786	0.000265	2.651267	0.449137	0.005303
 990	4.9450e-01	9.8843	18.750727	0.000269	2.694029	0.456381	0.005388
 991	4.9500e-01	9.8956	18.794772	0.000440	4.404524	0.746146	0.008809
 992	4.9550e-01	9.9054	18.823423	0.000287	2.865078	0.485357	0.005730
 993	4.9600e-01	9.9176	18.858061	0.000346	3.463752	0.586775	0.006928
 994	4.9650e-01	9.9255	18.870890	0.000128	1.282871	0.217324	0.002566
 995	4.9700e-01	9.9399	18.900396	0.000295	2.950603	0.499846	0.005901
 996	4.9750e-01	9.9457	18.938454	0.000381	3.805850	0.644729	0.007612
 997	4.9800e-01	9.9573	18.982072	0.000436	4.361761	0.738902	0.008724
 998	4.9850e-01	9.9655	19.023552	0.000415	4.147949	0.702682	0.008296
 999	4.9900e-01	9.9768	19.042367	0.000188	1.881544	0.318742	0.003763
1000	4.9950e-01	9.9866	19.062893	0.000205	2.052593	0.347719	0.004105
1001	5.0000e-01	9.9960	19.097959	0.000351	3.506514	0.594020	0.007013
1002	5.0050e-01	9.9832	19.051347	0.000466	4.661098	0.789611	-0.009322
1003	5.0100e-01	9.9780	19.022697	0.000287	2.865078	0.485357	-0.005730
1004	5.0150e-01	9.9658	19.009868	0.000128	1.282871	0.217324	-0.002566
1005	5.0200e-01	9.9554	18.996184	0.000137	1.368396	0.231812	-0.002737
1006	5.0250e-01	9.9451	18.968816	0.000274	2.736791	0.463625	-0.005474
1007	5.0300e-01	9.9353	18.958980	0.000098	0.983534	0.166615	-0.001967
1008	5.0350e-01	9.9268	18.933323	0.000257	2.565742	0.434648	-0.005132
1009	5.0400e-01	9.9176	18.904672	0.000287	2.865078	0.485357	-0.005730
1010	5.0450e-01	9.9051	18.893981	0.000107	1.069059	0.181104	-0.002138
1011	5.0500e-01	9.8962	18.879442	0.000145	1.453920	0.246301	-0.002908
1012	5.0550e-01	9.8871	18.837107	0.000423	4.233474	0.717170	-0.008467
1013	5.0600e-01	9.8746	18.834969	0.000021	0.213812	0.036221	-0.000428
1014	5.0650e-01	9.8663	18.814015	0.000210	2.095356	0.354963	-0.004191
1015	5.0700e-01	9.8560	18.793062	0.000210	2.095356	0.354963	-0.004191
1016	5.0750e-01	9.8444	18.774246	0.000188	1.881544	0.318742	-0.003763
1017	5.0800e-01	9.8340	18.754575	0.000197	1.967069	0.333230	-0.003934
1018	5.0850e-01	9.8230	18.723786	0.000308	3.078890	0.521578	-0.006158
1019	5.0900e-01	9.8138	18.705826	0.000180	1.796019	0.304254	-0.003592
1020	5.0950e-01	9.8059	18.680169	0.000257	2.565742	0.434648	-0.005132
1021	5.1000e-01	9.7943	18.663064	0.000171	1.710495	0.289766	-0.003421
1022	5.1050e-01	9.7861	18.645531	0.000175	1.753257	0.297010	-0.003507
1023	5.1100e-01	9.7742	18.613887	0.000316	3.164415	0.536066	-0.006329
1024	5.1150e-01	9.7632	18.592078	0.000218	2.180881	0.369451	-0.004362
1025	5.1200e-01	9.7577	18.575400	0.000167	1.667732	0.282521	-0.003335
1026	5.1250e-01	9.7485	18.539052	0.000363	3.634801	0.615752	-0.007270
1027	5.1300e-01	9.7357	18.524513	0.000145	1.453920	0.246301	-0.002908
1028	5.1350e-01	9.7255	18.486882	0.000376	3.763088	0.637484	-0.007526
1029	5.1400e-01	9.7150	18.486454	0.000004	0.042762	0.007244	-0.000086
1030	5.1450e-01	9.7055	18.449251	0.000372	3.720326	0.630240	-0.007441
1031	5.1500e-01	9.6960	18.432574	0.000167	1.667732	0.282521	-0.003335
1032	5.1550e-01	9.6875	18.418034	0.000145	1.453920	0.246301	-0.002908
1033	5.1600e-01	9.6753	18.409054	0.000090	0.898010	0.152127	-0.001796
1034	5.1650e-01	9.6634	18.367575	0.000415	4.147949	0.702682	-0.008296
1035	5.1700e-01	9.6558	18.328233	0.000393	3.934138	0.666461	-0.007868
1036	5.1750e-01	9.6429	18.320963	0.000073	0.726960	0.123150	-0.001454
1037	5.1800e-01	9.6375	18.297444	0.000235	2.351930	0.398428	-0.004704
1038	5.1850e-01	9.6246	18.279911	0.000175	1.753257	0.297010	-0.003507
1039	5.1900e-01	9.6185	18.245701	0.000342	3.420989	0.579531	-0.006842
1040	5.1950e-01	9.6088	18.231162	0.000145	1.453920	0.246301	-0.002908
1041	5.2000e-01	9.5966	18.206360	0.000248	2.480217	0.420160	-0.004960
1042	5.2050e-01	9.5844	18.195242	0.000111	1.111821	0.188348	-0.002224
1043	5.2100e-01	9.5755	18.162314	0.000329	3.292702	0.557799	-0.006585
1044	5.2150e-01	9.5660	18.138795	0.000235	2.351930	0.398428	-0.004704
1045	5.2200e-01	9.5563	18.109717	0.000291	2.907841	0.492602	-0.005816
1046	5.2250e-01	9.5459	18.090901	0.000188	1.881544	0.318742	-0.003763
1047	5.2300e-01	9.5355	18.041297	0.000496	4.960434	0.840320	-0.009921
1048	5.2350e-01	9.5258	18.046428	-0.000051	-0.513148	-0.086930	0.001026
1049	5.2400e-01	9.5163	18.018632	0.000278	2.779554	0.470869	-0.005559
1050	5.2450e-01	9.5068	17.971166	0.000475	4.746622	0.804100	-0.009493
1051	5.2500e-01	9.4934	17.971166	-0.000000	-0.000000	-0.000000	0.000000
1052	5.2550e-01	9.4873	17.947647	0.000235	2.351930	0.398428	-0.004704
1053	5.2600e-01	9.4739	17.909160	0.000385	3.848613	0.651973	-0.007697
1054	5.2650e-01	9.4653	17.884786	0.000244	2.437455	0.412916	-0.004875
1055	5.2700e-01	9.4531	17.871957	0.000128	1.282871	0.217324	-0.002566
1056	5.2750e-01	9.4470	17.845872	0.000261	2.608504	0.441893	-0.005217
1057	5.2800e-01	9.4348	17.832615	0.000133	1.325633	0.224568	-0.002651
1058	5.2850e-01	9.4269	17.790280	0.000423	4.233474	0.717170	-0.008467
1059	5.2900e-01	9.4159	17.780017	0.000103	1.026297	0.173859	-0.002053
1060	5.2950e-01	9.4055	17.745380	0.000346	3.463752	0.586775	-0.006928
1061	5.3000e-01	9.3912	17.736400	0.000090	0.898010	0.152127	-0.001796
1062	5.3050e-01	9.3866	17.702190	0.000342	3.420989	0.579531	-0.006842
1063	5.3100e-01	9.3756	17.683374	0.000188	1.881544	0.318742	-0.003763
1064	5.3150e-01	9.3683	17.650875	0.000325	3.249940	0.550555	-0.006500
1065	5.3200e-01	9.3567	17.634625	0.000162	1.624970	0.275277	-0.003250
1066	5.3250e-01	9.3475	17.600842	0.000338	3.378227	0.572287	-0.006756
1067	5.3300e-01	9.3359	17.578178	0.000227	2.266405	0.383939	-0.004533
1068	5.3350e-01	9.3213	17.551666	0.000265	2.651267	0.449137	-0.005303
1069	5.3400e-01	9.3158	17.524298	0.000274	2.736791	0.463625	-0.005474
1070	5.3450e-01	9.3048	17.486667	0.000376	3.763088	0.637484	-0.007526
1071	5.3500e-01	9.2957	17.478969	0.000077	0.769723	0.130395	-0.001539
1072	5.3550e-01	9.2877	17.464002	0.000150	1.496683	0.253545	-0.002993
1073	5.3600e-01	9.2792	17.416964	0.000470	4.703860	0.796855	-0.009408
1074	5.3650e-01	9.2651	17.398148	0.000188	1.881544	0.318742	-0.003763
1075	5.3700e-01	9.2578	17.371208	0.000269	2.694029	0.456381	-0.005388
1076	5.3750e-01	9.2450	17.366076	0.000051	0.513148	0.086930	-0.001026
1077	5.3800e-01	9.2352	17.335715	0.000304	3.036128	0.514334	-0.006072
1078	5.3850e-01	9.2242	17.292952	0.000428	4.276236	0.724414	-0.008553
1079	5.3900e-01	9.2145	17.287393	0.000056	0.555911	0.094174	-0.001112
1080	5.3950e-01	9.2065	17.264729	0.000227	2.266405	0.383939	-0.004533
1081	5.4000e-01	9.1956	17.218973	0.000458	4.575573	0.775123	-0.009151
1082	5.4050e-01	9.1879	17.192460	0.000265	2.651267	0.449137	-0.005303
1083	5.4100e-01	9.1779	17.168086	0.000244	2.437455	0.412916	-0.004875
1084	5.4150e-01	9.1663	17.148415	0.000197	1.967069	0.333230	-0.003934
1085	5.4200e-01	9.1583	17.115915	0.000325	3.249940	0.550555	-0.006500
1086	5.4250e-01	9.1455	17.097955	0.000180	1.796019	0.304254	-0.003592
1087	5.4300e-01	9.1345	17.082133	0.000158	1.582207	0.268033	-0.003164
1088	5.4350e-01	9.1254	17.046213	0.000359	3.592039	0.608508	-0.007184
1089	5.4400e-01	9.1156	17.019272	0.000269	2.694029	0.456381	-0.005388
1090	5.4450e-01	9.1037	16.999174	0.000201	2.009831	0.340475	-0.004020
1091	5.4500e-01	9.0967	16.965391	0.000338	3.378227	0.572287	-0.006756
1092	5.4550e-01	9.0814	16.962826	0.000026	0.256574	0.043465	-0.000513
1093	5.4600e-01	9.0759	16.930754	0.000321	3.207177	0.543311	-0.006414
1094	5.4650e-01	9.0656	16.892267	0.000385	3.848613	0.651973	-0.007697
1095	5.4700e-01	9.0552	16.879439	0.000128	1.282871	0.217324	-0.002566
1096	5.4750e-01	9.0479	16.852071	0.000274	2.736791	0.463625	-0.005474
1097	5.4800e-01	9.0363	16.826841	0.000252	2.522979	0.427404	-0.005046
1098	5.4850e-01	9.0274	16.801183	0.000257	2.565742	0.434648	-0.005132
1099	5.4900e-01	9.0173	16.763552	0.000376	3.763088	0.637484	-0.007526
1100	5.4950e-01	9.0054	16.740460	0.000231	2.309168	0.391184	-0.004618
1101	5.5000e-01	8.9960	16.721645	0.000188	1.881544	0.318742	-0.003763
1102	5.5050e-01	8.9856	16.692139	0.000295	2.950603	0.499846	-0.005901
1103	5.5100e-01	8.9746	16.666054	0.000261	2.608504	0.441893	-0.005217
1104	5.5150e-01	8.9655	16.649804	0.000162	1.624970	0.275277	-0.003250
1105	5.5200e-01	8.9539	16.631844	0.000180	1.796019	0.304254	-0.003592
1106	5.5250e-01	8.9465	16.591219	0.000406	4.062425	0.688193	-0.008125
1107	5.5300e-01	8.9346	16.548884	0.000423	4.233474	0.717170	-0.008467
1108	5.5350e-01	8.9258	16.536911	0.000120	1.197346	0.202836	-0.002395
1109	5.5400e-01	8.9145	16.512536	0.000244	2.437455	0.412916	-0.004875
1110	5.5450e-01	8.9050	16.486879	0.000257	2.565742	0.434648	-0.005132
1111	5.5500e-01	8.8947	16.474905	0.000120	1.197346	0.202836	-0.002395
1112	5.5550e-01	8.8873	16.424873	0.000500	5.003197	0.847564	-0.010006
1113	5.5600e-01	8.8757	16.388525	0.000363	3.634801	0.615752	-0.007270
1114	5.5650e-01	8.8660	16.395367	-0.000068	-0.684198	-0.115906	0.001368
1115	5.5700e-01	8.8574	16.343197	0.000522	5.217008	0.883785	-0.010434
1116	5.5750e-01	8.8464	16.316256	0.000269	2.694029	0.456381	-0.005388
1117	5.5800e-01	8.8361	16.305993	0.000103	1.026297	0.173859	-0.002053
1118	5.5850e-01	8.8239	16.271783	0.000342	3.420989	0.579531	-0.006842
1119	5.5900e-01	8.8147	16.269217	0.000026	0.256574	0.043465	-0.000513
1120	5.5950e-01	8.8068	16.223461	0.000458	4.575573	0.775123	-0.009151
1121	5.6000e-01	8.7970	16.194383	0.000291	2.907841	0.492602	-0.005816
1122	5.6050e-01	8.7872	16.177706	0.000167	1.667732	0.282521	-0.003335
1123	5.6100e-01	8.7732	16.149910	0.000278	2.779554	0.470869	-0.005559
1124	5.6150e-01	8.7659	16.125535	0.000244	2.437455	0.412916	-0.004875
1125	5.6200e-01	8.7531	16.101161	0.000244	2.437455	0.412916	-0.004875
1126	5.6250e-01	8.7442	16.062247	0.000389	3.891375	0.659217	-0.007783
1127	5.6300e-01	8.7354	16.032741	0.000295	2.950603	0.499846	-0.005901
1128	5.6350e-01	8.7238	16.008794	0.000239	2.394692	0.405672	-0.004789
1129	5.6400e-01	8.7152	15.987840	0.000210	2.095356	0.354963	-0.004191
1130	5.6450e-01	8.7061	15.954485	0.000334	3.335464	0.565043	-0.006671
1131	5.6500e-01	8.6957	15.921986	0.000325	3.249940	0.550555	-0.006500
1132	5.6550e-01	8.6896	15.905308	0.000167	1.667732	0.282521	-0.003335
1133	5.6600e-01	8.6774	15.894618	0.000107	1.069059	0.181104	-0.002138
1134	5.6650e-01	8.6664	15.844585	0.000500	5.003197	0.847564	-0.010006
1135	5.6700e-01	8.6584	15.828763	0.000158	1.582207	0.268033	-0.003164
1136	5.6750e-01	8.6462	15.800540	0.000282	2.822316	0.478113	-0.005645
1137	5.6800e-01	8.6359	15.770606	0.000299	2.993366	0.507090	-0.005987
1138	5.6850e-01	8.6261	15.744949	0.000257	2.565742	0.434648	-0.005132
1139	5.6900e-01	8.6172	15.720574	0.000244	2.437455	0.412916	-0.004875
1140	5.6950e-01	8.6047	15.689358	0.000312	3.121653	0.528822	-0.006243
1141	5.7000e-01	8.5968	15.652582	0.000368	3.677563	0.622996	-0.007355
1142	5.7050e-01	8.5864	15.642319	0.000103	1.026297	0.173859	-0.002053
1143	5.7100e-01	8.5748	15.616234	0.000261	2.608504	0.441893	-0.005217
1144	5.7150e-01	8.5654	15.583306	0.000329	3.292702	0.557799	-0.006585
1145	5.7200e-01	8.5550	15.568767	0.000145	1.453920	0.246301	-0.002908
1146	5.7250e-01	8.5492	15.543110	0.000257	2.565742	0.434648	-0.005132
1147	5.7300e-01	8.5364	15.504196	0.000389	3.891375	0.659217	-0.007783
1148	5.7350e-01	8.5272	15.482387	0.000218	2.180881	0.369451	-0.004362
1149	5.7400e-01	8.5156	15.440480	0.000419	4.190712	0.709926	-0.008381
1150	5.7450e-01	8.5095	15.427651	0.000128	1.282871	0.217324	-0.002566
1151	5.7500e-01	8.4961	15.401566	0.000261	2.608504	0.441893	-0.005217
1152	5.7550e-01	8.4851	15.370777	0.000308	3.078890	0.521578	-0.006158
1153	5.7600e-01	8.4775	15.354099	0.000167	1.667732	0.282521	-0.003335
1154	5.7650e-01	8.4668	15.309199	0.000449	4.490048	0.760635	-0.008980
1155	5.7700e-01	8.4564	15.281403	0.000278	2.779554	0.470869	-0.005559
1156	5.7750e-01	8.4476	15.242489	0.000389	3.891375	0.659217	-0.007783
1157	5.7800e-01	8.4363	15.234792	0.000077	0.769723	0.130395	-0.001539
1158	5.7850e-01	8.4247	15.209990	0.000248	2.480217	0.420160	-0.004960
1159	5.7900e-01	8.4174	15.195878	0.000141	1.411158	0.239057	-0.002822
1160	5.7950e-01	8.4082	15.150550	0.000453	4.532811	0.767879	-0.009066
1161	5.8000e-01	8.3972	15.127886	0.000227	2.266405	0.383939	-0.004533
1162	5.8050e-01	8.3862	15.097952	0.000299	2.993366	0.507090	-0.005987
1163	5.8100e-01	8.3789	15.074860	0.000231	2.309168	0.391184	-0.004618
1164	5.8150e-01	8.3661	15.051768	0.000231	2.309168	0.391184	-0.004618
1165	5.8200e-01	8.3551	15.024828	0.000269	2.694029	0.456381	-0.005388
1166	5.8250e-01	8.3469	14.997887	0.000269	2.694029	0.456381	-0.005388
1167	5.8300e-01	8.3383	14.964960	0.000329	3.292702	0.557799	-0.006585
1168	5.8350e-01	8.3264	14.940158	0.000248	2.480217	0.420160	-0.004960
1169	5.8400e-01	8.3148	14.900817	0.000393	3.934138	0.666461	-0.007868
1170	5.8450e-01	8.3063	14.880718	0.000201	2.009831	0.340475	-0.004020
1171	5.8500e-01	8.2983	14.841377	0.000393	3.934138	0.666461	-0.007868
1172	5.8550e-01	8.2874	14.814864	0.000265	2.651267	0.449137	-0.005303
1173	5.8600e-01	8.2791	14.794338	0.000205	2.052593	0.347719	-0.004105
1174	5.8650e-01	8.2663	14.766115	0.000282	2.822316	0.478113	-0.005645
1175	5.8700e-01	8.2581	14.736181	0.000299	2.993366	0.507090	-0.005987
1176	5.8750e-01	8.2468	14.707530	0.000287	2.865078	0.485357	-0.005730
1177	5.8800e-01	8.2391	14.681872	0.000257	2.565742	0.434648	-0.005132
1178	5.8850e-01	8.2269	14.654932	0.000269	2.694029	0.456381	-0.005388
1179	5.8900e-01	8.2166	14.629702	0.000252	2.522979	0.427404	-0.005046
1180	5.8950e-01	8.2056	14.581380	0.000483	4.832147	0.818588	-0.009664
1181	5.9000e-01	8.1964	14.576677	0.000047	0.470386	0.079686	-0.000941
1182	5.9050e-01	8.1860	14.555723	0.000210	2.095356	0.354963	-0.004191
1183	5.9100e-01	8.1787	14.529210	0.000265	2.651267	0.449137	-0.005303
1184	5.9150e-01	8.1650	14.495855	0.000334	3.335464	0.565043	-0.006671
1185	5.9200e-01	8.1543	14.473191	0.000227	2.266405	0.383939	-0.004533
1186	5.9250e-01	8.1424	14.461645	0.000115	1.154584	0.195592	-0.002309
1187	5.9300e-01	8.1348	14.406482	0.000552	5.516345	0.934494	-0.011033
1188	5.9350e-01	8.1250	14.382535	0.000239	2.394692	0.405672	-0.004789
1189	5.9400e-01	8.1168	14.347897	0.000346	3.463752	0.586775	-0.006928
1190	5.9450e-01	8.1049	14.326516	0.000214	2.138118	0.362207	-0.004276
1191	5.9500e-01	8.0963	14.298720	0.000278	2.779554	0.470869	-0.005559
1192	5.9550e-01	8.0856	14.279049	0.000197	1.967069	0.333230	-0.003934
1193	5.9600e-01	8.0750	14.252964	0.000261	2.608504	0.441893	-0.005217
1194	5.9650e-01	8.0649	14.206353	0.000466	4.661098	0.789611	-0.009322
1195	5.9700e-01	8.0560	14.179413	0.000269	2.694029	0.456381	-0.005388
1196	5.9750e-01	8.0469	14.154610	0.000248	2.480217	0.420160	-0.004960
1197	5.9800e-01	8.0359	14.118262	0.000363	3.634801	0.615752	-0.007270
1198	5.9850e-01	8.0261	14.107999	0.000103	1.026297	0.173859	-0.002053
1199	5.9900e-01	8.0164	14.080204	0.000278	2.779554	0.470869	-0.005559
1200	5.9950e-01	8.0078	14.041290	0.000389	3.891375	0.659217	-0.007783
1201	6.0000e-01	7.9980	14.001521	0.000398	3.976900	0.673705	-0.007954
1202	6.0050e-01	7.9843	13.968593	0.000329	3.292702	0.557799	-0.006585
1203	6.0100e-01	7.9761	13.959186	0.000094	0.940772	0.159371	-0.001882
1204	6.0150e-01	7.9663	13.929680	0.000295	2.950603	0.499846	-0.005901
1205	6.0200e-01	7.9559	13.913430	0.000162	1.624970	0.275277	-0.003250
1206	6.0250e-01	7.9453	13.888200	0.000252	2.522979	0.427404	-0.005046
1207	6.0300e-01	7.9352	13.834319	0.000539	5.388058	0.912762	-0.010776
1208	6.0350e-01	7.9242	13.830043	0.000043	0.427624	0.072441	-0.000855
1209	6.0400e-01	7.9175	13.801820	0.000282	2.822316	0.478113	-0.005645
1210	6.0450e-01	7.9059	13.734682	0.000671	6.713691	1.137330	-0.013427
1211	6.0500e-01	7.8952	13.734255	0.000004	0.042762	0.007244	-0.000086
1212	6.0550e-01	7.8833	13.710308	0.000239	2.394692	0.405672	-0.004789
1213	6.0600e-01	7.8751	13.694913	0.000154	1.539445	0.260789	-0.003079
1214	6.0650e-01	7.8687	13.641460	0.000535	5.345296	0.905518	-0.010691
1215	6.0700e-01	7.8564	13.619224	0.000222	2.223643	0.376695	-0.004447
1216	6.0750e-01	7.8485	13.586724	0.000325	3.249940	0.550555	-0.006500
1217	6.0800e-01	7.8366	13.560639	0.000261	2.608504	0.441893	-0.005217
1218	6.0850e-01	7.8271	13.533699	0.000269	2.694029	0.456381	-0.005388
1219	6.0900e-01	7.8143	13.512317	0.000214	2.138118	0.362207	-0.004276
1220	6.0950e-01	7.8055	13.503337	0.000090	0.898010	0.152127	-0.001796
1221	6.1000e-01	7.7954	13.448173	0.000552	5.516345	0.934494	-0.011033
1222	6.1050e-01	7.7850	13.425509	0.000227	2.266405	0.383939	-0.004533
1223	6.1100e-01	7.7777	13.383602	0.000419	4.190712	0.709926	-0.008381
1224	6.1150e-01	7.7637	13.350675	0.000329	3.292702	0.557799	-0.006585
1225	6.1200e-01	7.7545	13.337419	0.000133	1.325633	0.224568	-0.002651
1226	6.1250e-01	7.7454	13.296366	0.000411	4.105187	0.695437	-0.008210
1227	6.1300e-01	7.7377	13.278834	0.000175	1.753257	0.297010	-0.003507
1228	6.1350e-01	7.7280	13.241630	0.000372	3.720326	0.630240	-0.007441
1229	6.1400e-01	7.7148	13.214262	0.000274	2.736791	0.463625	-0.005474
1230	6.1450e-01	7.7039	13.201434	0.000128	1.282871	0.217324	-0.002566
1231	6.1500e-01	7.6962	13.173638	0.000278	2.779554	0.470869	-0.005559
1232	6.1550e-01	7.6828	13.152684	0.000210	2.095356	0.354963	-0.004191
1233	6.1600e-01	7.6736	13.117619	0.000351	3.506514	0.594020	-0.007013
1234	6.1650e-01	7.6636	13.084264	0.000334	3.335464	0.565043	-0.006671
1235	6.1700e-01	7.6569	13.058179	0.000261	2.608504	0.441893	-0.005217
1236	6.1750e-01	7.6465	13.015844	0.000423	4.233474	0.717170	-0.008467
1237	6.1800e-01	7.6352	12.994035	0.000218	2.180881	0.369451	-0.004362
1238	6.1850e-01	7.6251	12.957260	0.000368	3.677563	0.622996	-0.007355
1239	6.1900e-01	7.6172	12.932885	0.000244	2.437455	0.412916	-0.004875
1240	6.1950e-01	7.6074	12.902951	0.000299	2.993366	0.507090	-0.005987
1241	6.2000e-01	7.5970	12.877294	0.000257	2.565742	0.434648	-0.005132
1242	6.2050e-01	7.5861	12.846932	0.000304	3.036128	0.514334	-0.006072
1243	6.2100e-01	7.5757	12.823413	0.000235	2.351930	0.398428	-0.004704
1244	6.2150e-01	7.5641	12.791341	0.000321	3.207177	0.543311	-0.006414
1245	6.2200e-01	7.5534	12.780223	0.000111	1.111821	0.188348	-0.002224
1246	6.2250e-01	7.5464	12.728480	0.000517	5.174246	0.876541	-0.010349
1247	6.2300e-01	7.5354	12.691704	0.000368	3.677563	0.622996	-0.007355
1248	6.2350e-01	7.5281	12.686573	0.000051	0.513148	0.086930	-0.001026
1249	6.2400e-01	7.5165	12.653646	0.000329	3.292702	0.557799	-0.006585
1250	6.2450e-01	7.5055	12.613021	0.000406	4.062425	0.688193	-0.008125
1251	6.2500e-01	7.4945	12.581805	0.000312	3.121653	0.528822	-0.006243
1252	6.2550e-01	7.4832	12.552298	0.000295	2.950603	0.499846	-0.005901
1253	6.2600e-01	7.4744	12.522365	0.000299	2.993366	0.507090	-0.005987
1254	6.2650e-01	7.4673	12.479602	0.000428	4.276236	0.724414	-0.008553
1255	6.2700e-01	7.4579	12.468484	0.000111	1.111821	0.188348	-0.002224
1256	6.2750e-01	7.4438	12.447103	0.000214	2.138118	0.362207	-0.004276
1257	6.2800e-01	7.4368	12.401774	0.000453	4.532811	0.767879	-0.009066
1258	6.2850e-01	7.4289	12.372268	0.000295	2.950603	0.499846	-0.005901
1259	6.2900e-01	7.4164	12.345755	0.000265	2.651267	0.449137	-0.005303
1260	6.2950e-01	7.4023	12.326940	0.000188	1.881544	0.318742	-0.003763
1261	6.3000e-01	7.3956	12.298717	0.000282	2.822316	0.478113	-0.005645
1262	6.3050e-01	7.3874	12.252961	0.000458	4.575573	0.775123	-0.009151
1263	6.3100e-01	7.3755	12.227731	0.000252	2.522979	0.427404	-0.005046
1264	6.3150e-01	7.3676	12.203356	0.000244	2.437455	0.412916	-0.004875
1265	6.3200e-01	7.3557	12.159738	0.000436	4.361761	0.738902	-0.008724
1266	6.3250e-01	7.3453	12.152896	0.000068	0.684198	0.115906	-0.001368
1267	6.3300e-01	7.3386	12.115265	0.000376	3.763088	0.637484	-0.007526
1268	6.3350e-01	7.3245	12.089180	0.000261	2.608504	0.441893	-0.005217
1269	6.3400e-01	7.3163	12.056681	0.000325	3.249940	0.550555	-0.006500
1270	6.3450e-01	7.3053	12.024181	0.000325	3.249940	0.550555	-0.006500
1271	6.3500e-01	7.2955	11.989116	0.000351	3.506514	0.594020	-0.007013
1272	6.3550e-01	7.2858	11.975860	0.000133	1.325633	0.224568	-0.002651
1273	6.3600e-01	7.2760	11.939939	0.000359	3.592039	0.608508	-0.007184
1274	6.3650e-01	7.2656	11.906157	0.000338	3.378227	0.572287	-0.006756
1275	6.3700e-01	7.2565	11.879644	0.000265	2.651267	0.449137	-0.005303
1276	6.3750e-01	7.2449	11.849710	0.000299	2.993366	0.507090	-0.005987
1277	6.3800e-01	7.2363	11.826191	0.000235	2.351930	0.398428	-0.004704
1278	6.3850e-01	7.2278	11.782573	0.000436	4.361761	0.738902	-0.008724
1279	6.3900e-01	7.2144	11.768461	0.000141	1.411158	0.239057	-0.002822
1280	6.3950e-01	7.2028	11.738528	0.000299	2.993366	0.507090	-0.005987
1281	6.4000e-01	7.1954	11.711160	0.000274	2.736791	0.463625	-0.005474
1282	6.4050e-01	7.1857	11.674811	0.000363	3.634801	0.615752	-0.007270
1283	6.4100e-01	7.1765	11.638036	0.000368	3.677563	0.622996	-0.007355
1284	6.4150e-01	7.1661	11.608102	0.000299	2.993366	0.507090	-0.005987
1285	6.4200e-01	7.1552	11.582872	0.000252	2.522979	0.427404	-0.005046
1286	6.4250e-01	7.1475	11.555076	0.000278	2.779554	0.470869	-0.005559
1287	6.4300e-01	7.1384	11.540537	0.000145	1.453920	0.246301	-0.002908
1288	6.4350e-01	7.1277	11.479387	0.000612	6.115018	1.035912	-0.012230
1289	6.4400e-01	7.1169	11.486229	-0.000068	-0.684198	-0.115906	0.001368
1290	6.4450e-01	7.1048	11.439190	0.000470	4.703860	0.796855	-0.009408
1291	6.4500e-01	7.1008	11.422085	0.000171	1.710495	0.289766	-0.003421
1292	6.4550e-01	7.0874	11.383599	0.000385	3.848613	0.651973	-0.007697
1293	6.4600e-01	7.0752	11.343829	0.000398	3.976900	0.673705	-0.007954
1294	6.4650e-01	7.0636	11.303633	0.000402	4.019662	0.680949	-0.008039
1295	6.4700e-01	7.0563	11.302777	0.000009	0.085525	0.014488	-0.000171
1296	6.4750e-01	7.0459	11.254883	0.000479	4.789385	0.811344	-0.009579
1297	6.4800e-01	7.0401	11.221101	0.000338	3.378227	0.572287	-0.006756
1298	6.4850e-01	7.0245	11.195871	0.000252	2.522979	0.427404	-0.005046
1299	6.4900e-01	7.0166	11.179194	0.000167	1.667732	0.282521	-0.003335
1300	6.4950e-01	7.0050	11.138142	0.000411	4.105187	0.695437	-0.008210
1301	6.5000e-01	6.9940	11.114195	0.000239	2.394692	0.405672	-0.004789
1302	6.5050e-01	6.9870	11.073570	0.000406	4.062425	0.688193	-0.008125
1303	6.5100e-01	6.9760	11.041926	0.000316	3.164415	0.536066	-0.006329
1304	6.5150e-01	6.9635	11.035084	0.000068	0.684198	0.115906	-0.001368
1305	6.5200e-01	6.9559	10.973078	0.000620	6.200543	1.050400	-0.012401
1306	6.5250e-01	6.9470	10.952125	0.000210	2.095356	0.354963	-0.004191
1307	6.5300e-01	6.9348	10.915777	0.000363	3.634801	0.615752	-0.007270
1308	6.5350e-01	6.9244	10.892685	0.000231	2.309168	0.391184	-0.004618
1309	6.5400e-01	6.9156	10.870021	0.000227	2.266405	0.383939	-0.004533
1310	6.5450e-01	6.9055	10.820844	0.000492	4.917672	0.833076	-0.009835
1311	6.5500e-01	6.8961	10.811864	0.000090	0.898010	0.152127	-0.001796
1312	6.5550e-01	6.8887	10.784496	0.000274	2.736791	0.463625	-0.005474
1313	6.5600e-01	6.8762	10.749003	0.000355	3.549276	0.601264	-0.007099
1314	6.5650e-01	6.8665	10.720779	0.000282	2.822316	0.478113	-0.005645
1315	6.5700e-01	6.8573	10.677589	0.000432	4.318999	0.731658	-0.008638
1316	6.5750e-01	6.8494	10.658346	0.000192	1.924306	0.325986	-0.003849
1317	6.5800e-01	6.8372	10.617722	0.000406	4.062425	0.688193	-0.008125
1318	6.5850e-01	6.8259	10.597196	0.000205	2.052593	0.347719	-0.004105
1319	6.5900e-01	6.8152	10.571538	0.000257	2.565742	0.434648	-0.005132
1320	6.5950e-01	6.8097	10.543743	0.000278	2.779554	0.470869	-0.005559
1321	6.6000e-01	6.7944	10.504401	0.000393	3.934138	0.666461	-0.007868
1322	6.6050e-01	6.7859	10.472329	0.000321	3.207177	0.543311	-0.006414
1323	6.6100e-01	6.7749	10.432988	0.000393	3.934138	0.666461	-0.007868
1324	6.6150e-01	6.7657	10.400060	0.000329	3.292702	0.557799	-0.006585
1325	6.6200e-01	6.7548	10.380817	0.000192	1.924306	0.325986	-0.003849
1326	6.6250e-01	6.7459	10.344897	0.000359	3.592039	0.608508	-0.007184
1327	6.6300e-01	6.7365	10.319239	0.000257	2.565742	0.434648	-0.005132
1328	6.6350e-01	6.7255	10.294865	0.000244	2.437455	0.412916	-0.004875
1329	6.6400e-01	6.7151	10.269635	0.000252	2.522979	0.427404	-0.005046
1330	6.6450e-01	6.7090	10.237991	0.000316	3.164415	0.536066	-0.006329
1331	6.6500e-01	6.6937	10.196083	0.000419	4.190712	0.709926	-0.008381
1332	6.6550e-01	6.6846	10.169570	0.000265	2.651267	0.449137	-0.005303
1333	6.6600e-01	6.6743	10.140492	0.000291	2.907841	0.492602	-0.005816
1334	6.6650e-01	6.6666	10.098585	0.000419	4.190712	0.709926	-0.008381
1335	6.6700e-01	6.6547	10.072927	0.000257	2.565742	0.434648	-0.005132
1336	6.6750e-01	6.6449	10.045132	0.000278	2.779554	0.470869	-0.005559
1337	6.6800e-01	6.6373	10.013487	0.000316	3.164415	0.536066	-0.006329
1338	6.6850e-01	6.6238	9.979277	0.000342	3.420989	0.579531	-0.006842
1339	6.6900e-01	6.6168	9.941646	0.000376	3.763088	0.637484	-0.007526
1340	6.6950e-01	6.6052	9.913851	0.000278	2.779554	0.470869	-0.005559
1341	6.7000e-01	6.5942	9.897601	0.000162	1.624970	0.275277	-0.003250
1342	6.7050e-01	6.5878	9.847569	0.000500	5.003197	0.847564	-0.010006
1343	6.7100e-01	6.5759	9.823194	0.000244	2.437455	0.412916	-0.004875
1344	6.7150e-01	6.5631	9.793260	0.000299	2.993366	0.507090	-0.005987
1345	6.7200e-01	6.5558	9.763326	0.000299	2.993366	0.507090	-0.005987
1346	6.7250e-01	6.5424	9.732537	0.000308	3.078890	0.521578	-0.006158
1347	6.7300e-01	6.5327	9.699183	0.000334	3.335464	0.565043	-0.006671
1348	6.7350e-01	6.5277	9.670532	0.000287	2.865078	0.485357	-0.005730
1349	6.7400e-01	6.5173	9.638032	0.000325	3.249940	0.550555	-0.006500
1350	6.7450e-01	6.5070	9.623921	0.000141	1.411158	0.239057	-0.002822
1351	6.7500e-01	6.4935	9.593132	0.000308	3.078890	0.521578	-0.006158
1352	6.7550e-01	6.4838	9.536685	0.000564	5.644632	0.956227	-0.011289
1353	6.7600e-01	6.4734	9.506751	0.000299	2.993366	0.507090	-0.005987
1354	6.7650e-01	6.4655	9.485798	0.000210	2.095356	0.354963	-0.004191
1355	6.7700e-01	6.4539	9.463561	0.000222	2.223643	0.376695	-0.004447
1356	6.7750e-01	6.4441	9.421654	0.000419	4.190712	0.709926	-0.008381
1357	6.7800e-01	6.4349	9.388299	0.000334	3.335464	0.565043	-0.006671
1358	6.7850e-01	6.4261	9.355800	0.000325	3.249940	0.550555	-0.006500
1359	6.7900e-01	6.4163	9.325438	0.000304	3.036128	0.514334	-0.006072
1360	6.7950e-01	6.4044	9.294649	0.000308	3.078890	0.521578	-0.006158
1361	6.8000e-01	6.3947	9.280110	0.000145	1.453920	0.246301	-0.002908
1362	6.8050e-01	6.3858	9.228795	0.000513	5.131484	0.869297	-0.010263
1363	6.8100e-01	6.3782	9.198006	0.000308	3.078890	0.521578	-0.006158
1364	6.8150e-01	6.3660	9.153533	0.000445	4.447286	0.753391	-0.008895
1365	6.8200e-01	6.3565	9.142842	0.000107	1.069059	0.181104	-0.002138
1366	6.8250e-01	6.3458	9.094948	0.000479	4.789385	0.811344	-0.009579
1367	6.8300e-01	6.3361	9.077843	0.000171	1.710495	0.289766	-0.003421
1368	6.8350e-01	6.3258	9.053469	0.000244	2.437455	0.412916	-0.004875
1369	6.8400e-01	6.3135	8.997450	0.000560	5.601870	0.948982	-0.011204
1370	6.8450e-01	6.3043	8.984621	0.000128	1.282871	0.217324	-0.002566
1371	6.8500e-01	6.2970	8.968371	0.000162	1.624970	0.275277	-0.003250
1372	6.8550e-01	6.2854	8.913635	0.000547	5.473583	0.927250	-0.010947
1373	6.8600e-01	6.2778	8.885412	0.000282	2.822316	0.478113	-0.005645
1374	6.8650e-01	6.2671	8.856761	0.000287	2.865078	0.485357	-0.005730
1375	6.8700e-01	6.2576	8.817847	0.000389	3.891375	0.659217	-0.007783
1376	6.8750e-01	6.2442	8.787058	0.000308	3.078890	0.521578	-0.006158
1377	6.8800e-01	6.2378	8.755841	0.000312	3.121653	0.528822	-0.006243
1378	6.8850e-01	6.2262	8.734032	0.000218	2.180881	0.369451	-0.004362
1379	6.8900e-01	6.2183	8.707092	0.000269	2.694029	0.456381	-0.005388
1380	6.8950e-01	6.2070	8.661764	0.000453	4.532811	0.767879	-0.009066
1381	6.9000e-01	6.2006	8.632258	0.000295	2.950603	0.499846	-0.005901
1382	6.9050e-01	6.1865	8.620284	0.000120	1.197346	0.202836	-0.002395
1383	6.9100e-01	6.1761	8.566831	0.000535	5.345296	0.905518	-0.010691
1384	6.9150e-01	6.1678	8.534759	0.000321	3.207177	0.543311	-0.006414
1385	6.9200e-01	6.1580	8.507391	0.000274	2.736791	0.463625	-0.005474
1386	6.9250e-01	6.1462	8.466767	0.000406	4.062425	0.688193	-0.008125
1387	6.9300e-01	6.1359	8.442820	0.000239	2.394692	0.405672	-0.004789
1388	6.9350e-01	6.1274	8.408182	0.000346	3.463752	0.586775	-0.006928
1389	6.9400e-01	6.1172	8.393215	0.000150	1.496683	0.253545	-0.002993
1390	6.9450e-01	6.1069	8.344466	0.000487	4.874910	0.825832	-0.009750
1391	6.9500e-01	6.0971	8.308973	0.000355	3.549276	0.601264	-0.007099
1392	6.9550e-01	6.0864	8.288875	0.000201	2.009831	0.340475	-0.004020
1393	6.9600e-01	6.0742	8.252526	0.000363	3.634801	0.615752	-0.007270
1394	6.9650e-01	6.0648	8.214468	0.000381	3.805850	0.644729	-0.007612
1395	6.9700e-01	6.0577	8.201639	0.000128	1.282871	0.217324	-0.002566
1396	6.9750e-01	6.0443	8.145192	0.000564	5.644632	0.956227	-0.011289
1397	6.9800e-01	6.0330	8.122956	0.000222	2.223643	0.376695	-0.004447
1398	6.9850e-01	6.0260	8.076345	0.000466	4.661098	0.789611	-0.009322
1399	6.9900e-01	6.0168	8.048121	0.000282	2.822316	0.478113	-0.005645
1400	6.9950e-01	6.0059	8.027168	0.000210	2.095356	0.354963	-0.004191
1401	7.0000e-01	5.9961	7.990392	0.000368	3.677563	0.622996	-0.007355
1402	7.0050e-01	5.9863	7.971149	0.000192	1.924306	0.325986	-0.003849
1403	7.0100e-01	5.9775	7.930525	0.000406	4.062425	0.688193	-0.008125
1404	7.0150e-01	5.9659	7.901018	0.000295	2.950603	0.499846	-0.005901
1405	7.0200e-01	5.9573	7.867236	0.000338	3.378227	0.572287	-0.006756
1406	7.0250e-01	5.9460	7.833454	0.000338	3.378227	0.572287	-0.006756
1407	7.0300e-01	5.9366	7.797105	0.000363	3.634801	0.615752	-0.007270
1408	7.0350e-01	5.9247	7.759474	0.000376	3.763088	0.637484	-0.007526
1409	7.0400e-01	5.9164	7.724837	0.000346	3.463752	0.586775	-0.006928
1410	7.0450e-01	5.9058	7.702600	0.000222	2.223643	0.376695	-0.004447
1411	7.0500e-01	5.8945	7.664542	0.000381	3.805850	0.644729	-0.007612
1412	7.0550e-01	5.8847	7.637174	0.000274	2.736791	0.463625	-0.005474
1413	7.0600e-01	5.8766	7.618786	0.000184	1.838782	0.311498	-0.003678
1414	7.0650e-01	5.8655	7.584576	0.000342	3.420989	0.579531	-0.006842
1415	7.0700e-01	5.8600	7.539675	0.000449	4.490048	0.760635	-0.008980
1416	7.0750e-01	5.8447	7.505893	0.000338	3.378227	0.572287	-0.006756
1417	7.0800e-01	5.8380	7.478097	0.000278	2.779554	0.470869	-0.005559
1418	7.0850e-01	5.8272	7.437473	0.000406	4.062425	0.688193	-0.008125
1419	7.0900e-01	5.8163	7.428065	0.000094	0.940772	0.159371	-0.001882
1420	7.0950e-01	5.8051	7.392572	0.000355	3.549276	0.601264	-0.007099
1421	7.1000e-01	5.7971	7.344678	0.000479	4.789385	0.811344	-0.009579
1422	7.1050e-01	5.7851	7.324580	0.000201	2.009831	0.340475	-0.004020
1423	7.1100e-01	5.7774	7.283527	0.000411	4.105187	0.695437	-0.008210
1424	7.1150e-01	5.7666	7.234351	0.000492	4.917672	0.833076	-0.009835
1425	7.1200e-01	5.7547	7.214680	0.000197	1.967069	0.333230	-0.003934
1426	7.1250e-01	5.7483	7.174055	0.000406	4.062425	0.688193	-0.008125
1427	7.1300e-01	5.7349	7.159516	0.000145	1.453920	0.246301	-0.002908
1428	7.1350e-01	5.7228	7.112050	0.000475	4.746622	0.804100	-0.009493
1429	7.1400e-01	5.7153	7.092807	0.000192	1.924306	0.325986	-0.003849
1430	7.1450e-01	5.7071	7.052610	0.000402	4.019662	0.680949	-0.008039
1431	7.1500e-01	5.6989	7.008992	0.000436	4.361761	0.738902	-0.008724
1432	7.1550e-01	5.6854	6.982907	0.000261	2.608504	0.441893	-0.005217
1433	7.1600e-01	5.6750	6.962381	0.000205	2.052593	0.347719	-0.004105
1434	7.1650e-01	5.6680	6.920046	0.000423	4.233474	0.717170	-0.008467
1435	7.1700e-01	5.6595	6.889685	0.000304	3.036128	0.514334	-0.006072
1436	7.1750e-01	5.6470	6.863599	0.000261	2.608504	0.441893	-0.005217
1437	7.1800e-01	5.6354	6.817844	0.000458	4.575573	0.775123	-0.009151
1438	7.1850e-01	5.6250	6.774653	0.000432	4.318999	0.731658	-0.008638
1439	7.1900e-01	5.6165	6.761397	0.000133	1.325633	0.224568	-0.002651
1440	7.1950e-01	5.6049	6.723766	0.000376	3.763088	0.637484	-0.007526
1441	7.2000e-01	5.5965	6.689556	0.000342	3.420989	0.579531	-0.006842
1442	7.2050e-01	5.5856	6.657484	0.000321	3.207177	0.543311	-0.006414
1443	7.2100e-01	5.5774	6.626267	0.000312	3.121653	0.528822	-0.006243
1444	7.2150e-01	5.5666	6.595906	0.000304	3.036128	0.514334	-0.006072
1445	7.2200e-01	5.5573	6.552288	0.000436	4.361761	0.738902	-0.008724
1446	7.2250e-01	5.5469	6.515940	0.000363	3.634801	0.615752	-0.007270
1447	7.2300e-01	5.5363	6.479592	0.000363	3.634801	0.615752	-0.007270
1448	7.2350e-01	5.5280	6.458211	0.000214	2.138118	0.362207	-0.004276
1449	7.2400e-01	5.5139	6.424428	0.000338	3.378227	0.572287	-0.006756
1450	7.2450e-01	5.5063	6.383376	0.000411	4.105187	0.695437	-0.008210
1451	7.2500e-01	5.4951	6.358146	0.000252	2.522979	0.427404	-0.005046
1452	7.2550e-01	5.4858	6.335910	0.000222	2.223643	0.376695	-0.004447
1453	7.2600e-01	5.4767	6.274332	0.000616	6.157780	1.043156	-0.012316
1454	7.2650e-01	5.4672	6.239694	0.000346	3.463752	0.586775	-0.006928
1455	7.2700e-01	5.4541	6.232852	0.000068	0.684198	0.115906	-0.001368
1456	7.2750e-01	5.4446	6.181965	0.000509	5.088721	0.862053	-0.010177
1457	7.2800e-01	5.4379	6.148182	0.000338	3.378227	0.572287	-0.006756
1458	7.2850e-01	5.4248	6.129794	0.000184	1.838782	0.311498	-0.003678
1459	7.2900e-01	5.4156	6.084894	0.000449	4.490048	0.760635	-0.008980
1460	7.2950e-01	5.4047	6.067789	0.000171	1.710495	0.289766	-0.003421
1461	7.3000e-01	5.3937	6.016046	0.000517	5.174246	0.876541	-0.010349
1462	7.3050e-01	5.3856	5.996375	0.000197	1.967069	0.333230	-0.003934
1463	7.3100e-01	5.3732	5.966014	0.000304	3.036128	0.514334	-0.006072
1464	7.3150e-01	5.3667	5.932232	0.000338	3.378227	0.572287	-0.006756
1465	7.3200e-01	5.3587	5.897166	0.000351	3.506514	0.594020	-0.007013
1466	7.3250e-01	5.3458	5.850128	0.000470	4.703860	0.796855	-0.009408
1467	7.3300e-01	5.3327	5.802234	0.000479	4.789385	0.811344	-0.009579
1468	7.3350e-01	5.3265	5.783418	0.000188	1.881544	0.318742	-0.003763
1469	7.3400e-01	5.3168	5.753912	0.000295	2.950603	0.499846	-0.005901
1470	7.3450e-01	5.3079	5.714570	0.000393	3.934138	0.666461	-0.007868
1471	7.3500e-01	5.2972	5.685064	0.000295	2.950603	0.499846	-0.005901
1472	7.3550e-01	5.2863	5.657696	0.000274	2.736791	0.463625	-0.005474
1473	7.3600e-01	5.2750	5.599112	0.000586	5.858444	0.992447	-0.011717
1474	7.3650e-01	5.2673	5.578586	0.000205	2.052593	0.347719	-0.004105
1475	7.3700e-01	5.2570	5.545658	0.000329	3.292702	0.557799	-0.006585
1476	7.3750e-01	5.2451	5.513159	0.000325	3.249940	0.550555	-0.006500
1477	7.3800e-01	5.2351	5.479376	0.000338	3.378227	0.572287	-0.006756
1478	7.3850e-01	5.2264	5.447732	0.000316	3.164415	0.536066	-0.006329
1479	7.3900e-01	5.2156	5.395562	0.000522	5.217008	0.883785	-0.010434
1480	7.3950e-01	5.2042	5.372043	0.000235	2.351930	0.398428	-0.004704
1481	7.4000e-01	5.1991	5.335267	0.000368	3.677563	0.622996	-0.007355
1482	7.4050e-01	5.1852	5.312175	0.000231	2.309168	0.391184	-0.004618
1483	7.4100e-01	5.1813	5.254018	0.000582	5.815682	0.985203	-0.011631
1484	7.4150e-01	5.1666	5.225795	0.000282	2.822316	0.478113	-0.005645
1485	7.4200e-01	5.1570	5.202275	0.000235	2.351930	0.398428	-0.004704
1486	7.4250e-01	5.1468	5.179611	0.000227	2.266405	0.383939	-0.004533
1487	7.4300e-01	5.1346	5.136849	0.000428	4.276236	0.724414	-0.008553
1488	7.4350e-01	5.1276	5.097935	0.000389	3.891375	0.659217	-0.007783
1489	7.4400e-01	5.1141	5.081685	0.000162	1.624970	0.275277	-0.003250
1490	7.4450e-01	5.1068	5.031653	0.000500	5.003197	0.847564	-0.010006
1491	7.4500e-01	5.0952	5.007278	0.000244	2.437455	0.412916	-0.004875
1492	7.4550e-01	5.0861	4.972641	0.000346	3.463752	0.586775	-0.006928
1493	7.4600e-01	5.0751	4.934582	0.000381	3.805850	0.644729	-0.007612
1494	7.4650e-01	5.0671	4.896951	0.000376	3.763088	0.637484	-0.007526
1495	7.4700e-01	5.0566	4.858037	0.000389	3.891375	0.659217	-0.007783
1496	7.4750e-01	5.0429	4.821689	0.000363	3.634801	0.615752	-0.007270
1497	7.4800e-01	5.0348	4.783203	0.000385	3.848613	0.651973	-0.007697
1498	7.4850e-01	5.0275	4.754552	0.000287	2.865078	0.485357	-0.005730
1499	7.4900e-01	5.0159	4.719486	0.000351	3.506514	0.594020	-0.007013
1500	7.4950e-01	5.0079	4.674158	0.000453	4.532811	0.767879	-0.009066
1501	7.5000e-01	4.9951	4.663040	0.000111	1.111821	0.188348	-0.002224
1502	7.5050e-01	4.9872	4.608731	0.000543	5.430820	0.920006	-0.010862
1503	7.5100e-01	4.9763	4.590771	0.000180	1.796019	0.304254	-0.003592
1504	7.5150e-01	4.9670	4.548009	0.000428	4.276236	0.724414	-0.008553
1505	7.5200e-01	4.9573	4.503536	0.000445	4.447286	0.753391	-0.008895
1506	7.5250e-01	4.9464	4.485148	0.000184	1.838782	0.311498	-0.003678
1507	7.5300e-01	4.9390	4.464194	0.000210	2.095356	0.354963	-0.004191
1508	7.5350e-01	4.9261	4.409030	0.000552	5.516345	0.934494	-0.011033
1509	7.5400e-01	4.9170	4.375248	0.000338	3.378227	0.572287	-0.006756
1510	7.5450e-01	4.9072	4.330775	0.000445	4.447286	0.753391	-0.008895
1511	7.5500e-01	4.8975	4.310249	0.000205	2.052593	0.347719	-0.004105
1512	7.5550e-01	4.8862	4.262783	0.000475	4.746622	0.804100	-0.009493
1513	7.5600e-01	4.8755	4.240118	0.000227	2.266405	0.383939	-0.004533
1514	7.5650e-01	4.8645	4.210185	0.000299	2.993366	0.507090	-0.005987
1515	7.5700e-01	4.8553	4.153310	0.000569	5.687394	0.963471	-0.011375
1516	7.5750e-01	4.8486	4.134495	0.000188	1.881544	0.318742	-0.003763
1517	7.5800e-01	4.8364	4.093443	0.000411	4.105187	0.695437	-0.008210
1518	7.5850e-01	4.8258	4.072489	0.000210	2.095356	0.354963	-0.004191
1519	7.5900e-01	4.8169	4.025451	0.000470	4.703860	0.796855	-0.009408
1520	7.5950e-01	4.8055	4.006635	0.000188	1.881544	0.318742	-0.003763
1521	7.6000e-01	4.7992	3.971997	0.000346	3.463752	0.586775	-0.006928
1522	7.6050e-01	4.7853	3.937360	0.000346	3.463752	0.586775	-0.006928
1523	7.6100e-01	4.7748	3.883907	0.000535	5.345296	0.905518	-0.010691
1524	7.6150e-01	4.7662	3.864663	0.000192	1.924306	0.325986	-0.003849
1525	7.6200e-01	4.7534	3.808645	0.000560	5.601870	0.948982	-0.011204
1526	7.6250e-01	4.7473	3.786836	0.000218	2.180881	0.369451	-0.004362
1527	7.6300e-01	4.7348	3.740224	0.000466	4.661098	0.789611	-0.009322
1528	7.6350e-01	4.7255	3.717988	0.000222	2.223643	0.376695	-0.004447
1529	7.6400e-01	4.7156	3.669666	0.000483	4.832147	0.818588	-0.009664
1530	7.6450e-01	4.7052	3.656838	0.000128	1.282871	0.217324	-0.002566
1531	7.6500e-01	4.6960	3.609371	0.000475	4.746622	0.804100	-0.009493
1532	7.6550e-01	4.6851	3.573878	0.000355	3.549276	0.601264	-0.007099
1533	7.6600e-01	4.6754	3.530260	0.000436	4.361761	0.738902	-0.008724
1534	7.6650e-01	4.6637	3.495623	0.000346	3.463752	0.586775	-0.006928
1535	7.6700e-01	4.6539	3.452433	0.000432	4.318999	0.731658	-0.008638
1536	7.6750e-01	4.6439	3.442170	0.000103	1.026297	0.173859	-0.002053
1537	7.6800e-01	4.6384	3.391282	0.000509	5.088721	0.862053	-0.010177
1538	7.6850e-01	4.6274	3.351941	0.000393	3.934138	0.666461	-0.007868
1539	7.6900e-01	4.6155	3.325428	0.000265	2.651267	0.449137	-0.005303
1540	7.6950e-01	4.6072	3.283521	0.000419	4.190712	0.709926	-0.008381
1541	7.7000e-01	4.5963	3.246745	0.000368	3.677563	0.622996	-0.007355
1542	7.7050e-01	4.5863	3.229212	0.000175	1.753257	0.297010	-0.003507
1543	7.7100e-01	4.5776	3.177470	0.000517	5.174246	0.876541	-0.010349
1544	7.7150e-01	4.5648	3.135135	0.000423	4.233474	0.717170	-0.008467
1545	7.7200e-01	4.5578	3.113753	0.000214	2.138118	0.362207	-0.004276
1546	7.7250e-01	4.5462	3.055169	0.000586	5.858444	0.992447	-0.011717
1547	7.7300e-01	4.5366	3.030367	0.000248	2.480217	0.420160	-0.004960
1548	7.7350e-01	4.5251	3.000433	0.000299	2.993366	0.507090	-0.005987
1549	7.7400e-01	4.5190	2.966223	0.000342	3.420989	0.579531	-0.006842
1550	7.7450e-01	4.5059	2.932013	0.000342	3.420989	0.579531	-0.006842
1551	7.7500e-01	4.4968	2.884546	0.000475	4.746622	0.804100	-0.009493
1552	7.7550e-01	4.4888	2.853330	0.000312	3.121653	0.528822	-0.006243
1553	7.7600e-01	4.4769	2.825106	0.000282	2.822316	0.478113	-0.005645
1554	7.7650e-01	4.4659	2.785337	0.000398	3.976900	0.673705	-0.007954
1555	7.7700e-01	4.4539	2.756686	0.000287	2.865078	0.485357	-0.005730
1556	7.7750e-01	4.4476	2.716917	0.000398	3.976900	0.673705	-0.007954
1557	7.7800e-01	4.4363	2.682707	0.000342	3.420989	0.579531	-0.006842
1558	7.7850e-01	4.4269	2.636524	0.000462	4.618335	0.782367	-0.009237
1559	7.7900e-01	4.4177	2.592906	0.000436	4.361761	0.738902	-0.008724
1560	7.7950e-01	4.4055	2.578367	0.000145	1.453920	0.246301	-0.002908
1561	7.8000e-01	4.3973	2.538170	0.000402	4.019662	0.680949	-0.008039
1562	7.8050e-01	4.3860	2.490703	0.000475	4.746622	0.804100	-0.009493
1563	7.8100e-01	4.3765	2.468039	0.000227	2.266405	0.383939	-0.004533
1564	7.8150e-01	4.3675	2.431691	0.000363	3.634801	0.615752	-0.007270
1565	7.8200e-01	4.3571	2.394488	0.000372	3.720326	0.630240	-0.007441
1566	7.8250e-01	4.3433	2.350442	0.000440	4.404524	0.746146	-0.008809
1567	7.8300e-01	4.3343	2.318370	0.000321	3.207177	0.543311	-0.006414
1568	7.8350e-01	4.3271	2.266200	0.000522	5.217008	0.883785	-0.010434
1569	7.8400e-01	4.3146	2.236266	0.000299	2.993366	0.507090	-0.005987
1570	7.8450e-01	4.3073	2.222582	0.000137	1.368396	0.231812	-0.002737
1571	7.8500e-01	4.2943	2.180675	0.000419	4.190712	0.709926	-0.008381
1572	7.8550e-01	4.2853	2.135774	0.000449	4.490048	0.760635	-0.008980
1573	7.8600e-01	4.2722	2.110972	0.000248	2.480217	0.420160	-0.004960
1574	7.8650e-01	4.2659	2.060085	0.000509	5.088721	0.862053	-0.010177
1575	7.8700e-01	4.2596	2.006632	0.000535	5.345296	0.905518	-0.010691
1576	7.8750e-01	4.2462	1.985250	0.000214	2.138118	0.362207	-0.004276
1577	7.8800e-01	4.2355	1.968145	0.000171	1.710495	0.289766	-0.003421
1578	7.8850e-01	4.2262	1.915547	0.000526	5.259771	0.891029	-0.010520
1579	7.8900e-01	4.2181	1.880055	0.000355	3.549276	0.601264	-0.007099
1580	7.8950e-01	4.2082	1.829167	0.000509	5.088721	0.862053	-0.010177
1581	7.9000e-01	4.1943	1.801799	0.000274	2.736791	0.463625	-0.005474
1582	7.9050e-01	4.1858	1.778707	0.000231	2.309168	0.391184	-0.004618
1583	7.9100e-01	4.1760	1.741932	0.000368	3.677563	0.622996	-0.007355
1584	7.9150e-01	4.1672	1.673084	0.000688	6.884741	1.166307	-0.013770
1585	7.9200e-01	4.1556	1.648282	0.000248	2.480217	0.420160	-0.004960
1586	7.9250e-01	4.1446	1.606802	0.000415	4.147949	0.702682	-0.008296
1587	7.9300e-01	4.1357	1.587559	0.000192	1.924306	0.325986	-0.003849
1588	7.9350e-01	4.1266	1.541375	0.000462	4.618335	0.782367	-0.009237
1589	7.9400e-01	4.1174	1.510586	0.000308	3.078890	0.521578	-0.006158
1590	7.9450e-01	4.1072	1.477232	0.000334	3.335464	0.565043	-0.006671
1591	7.9500e-01	4.0982	1.429337	0.000479	4.789385	0.811344	-0.009579
1592	7.9550e-01	4.0851	1.409667	0.000197	1.967069	0.333230	-0.003934
1593	7.9600e-01	4.0765	1.368615	0.000411	4.105187	0.695437	-0.008210
1594	7.9650e-01	4.0656	1.307037	0.000616	6.157780	1.043156	-0.012316
1595	7.9700e-01	4.0549	1.288221	0.000188	1.881544	0.318742	-0.003763
1596	7.9750e-01	4.0462	1.240327	0.000479	4.789385	0.811344	-0.009579
1597	7.9800e-01	4.0372	1.202268	0.000381	3.805850	0.644729	-0.007612
1598	7.9850e-01	4.0269	1.175328	0.000269	2.694029	0.456381	-0.005388
1599	7.9900e-01	4.0158	1.140690	0.000346	3.463752	0.586775	-0.006928
1600	7.9950e-01	4.0076	1.087237	0.000535	5.345296	0.905518	-0.010691
1601	8.0000e-01	3.9954	1.045330	0.000419	4.190712	0.709926	-0.008381
1602	8.0050e-01	3.9847	1.009837	0.000355	3.549276	0.601264	-0.007099
1603	8.0100e-01	3.9758	0.984607	0.000252	2.522979	0.427404	-0.005046
1604	8.0150e-01	3.9658	0.956384	0.000282	2.822316	0.478113	-0.005645
1605	8.0200e-01	3.9526	0.926450	0.000299	2.993366	0.507090	-0.005987
1606	8.0250e-01	3.9447	0.869148	0.000573	5.730157	0.970715	-0.011460
1607	8.0300e-01	3.9353	0.830234	0.000389	3.891375	0.659217	-0.007783
1608	8.0350e-01	3.9267	0.805860	0.000244	2.437455	0.412916	-0.004875
1609	8.0400e-01	3.9124	0.765663	0.000402	4.019662	0.680949	-0.008039
1610	8.0450e-01	3.9017	0.701947	0.000637	6.371592	1.079377	-0.012743
1611	8.0500e-01	3.8968	0.680566	0.000214	2.138118	0.362207	-0.004276
1612	8.0550e-01	3.8860	0.657046	0.000235	2.351930	0.398428	-0.004704
1613	8.0600e-01	3.8773	0.610863	0.000462	4.618335	0.782367	-0.009237
1614	8.0650e-01	3.8672	0.582639	0.000282	2.822316	0.478113	-0.005645
1615	8.0700e-01	3.8519	0.529186	0.000535	5.345296	0.905518	-0.010691
1616	8.0750e-01	3.8452	0.494121	0.000351	3.506514	0.594020	-0.007013
1617	8.0800e-01	3.8342	0.465042	0.000291	2.907841	0.492602	-0.005816
1618	8.0850e-01	3.8249	0.416293	0.000487	4.874910	0.825832	-0.009750
1619	8.0900e-01	3.8171	0.381656	0.000346	3.463752	0.586775	-0.006928
1620	8.0950e-01	3.8037	0.344452	0.000372	3.720326	0.630240	-0.007441
1621	8.1000e-01	3.7932	0.305538	0.000389	3.891375	0.659217	-0.007783
1622	8.1050e-01	3.7860	0.279453	0.000261	2.608504	0.441893	-0.005217
1623	8.1100e-01	3.7729	0.245671	0.000338	3.378227	0.572287	-0.006756
1624	8.1150e-01	3.7677	0.199487	0.000462	4.618335	0.782367	-0.009237
1625	8.1200e-01	3.7573	0.173830	0.000257	2.565742	0.434648	-0.005132
1626	8.1250e-01	3.7451	0.132778	0.000411	4.105187	0.695437	-0.008210
1627	8.1300e-01	3.7358	0.089160	0.000436	4.361761	0.738902	-0.008724
1628	8.1350e-01	3.7263	0.056660	0.000325	3.249940	0.550555	-0.006500
1629	8.1400e-01	3.7161	-0.004490	0.000612	6.115018	1.035912	-0.012230
1630	8.1450e-01	3.7061	-0.019885	0.000154	1.539445	0.260789	-0.003079
1631	8.1500e-01	3.6954	-0.062647	0.000428	4.276236	0.724414	-0.008553
1632	8.1550e-01	3.6865	-0.122942	0.000603	6.029493	1.021424	-0.012059
1633	8.1600e-01	3.6752	-0.146034	0.000231	2.309168	0.391184	-0.004618
1634	8.1650e-01	3.6661	-0.196066	0.000500	5.003197	0.847564	-0.010006
1635	8.1700e-01	3.6520	-0.215737	0.000197	1.967069	0.333230	-0.003934
1636	8.1750e-01	3.6455	-0.255506	0.000398	3.976900	0.673705	-0.007954
1637	8.1800e-01	3.6357	-0.289716	0.000342	3.420989	0.579531	-0.006842
1638	8.1850e-01	3.6227	-0.332479	0.000428	4.276236	0.724414	-0.008553
1639	8.1900e-01	3.6139	-0.382083	0.000496	4.960434	0.840320	-0.009921
1640	8.1950e-01	3.6069	-0.416293	0.000342	3.420989	0.579531	-0.006842
1641	8.2000e-01	3.5970	-0.441951	0.000257	2.565742	0.434648	-0.005132
1642	8.2050e-01	3.5841	-0.494121	0.000522	5.217008	0.883785	-0.010434
1643	8.2100e-01	3.5757	-0.526193	0.000321	3.207177	0.543311	-0.006414
1644	8.2150e-01	3.5648	-0.582639	0.000564	5.644632	0.956227	-0.011289
1645	8.2200e-01	3.5543	-0.601883	0.000192	1.924306	0.325986	-0.003849
1646	8.2250e-01	3.5455	-0.640796	0.000389	3.891375	0.659217	-0.007783
1647	8.2300e-01	3.5364	-0.681421	0.000406	4.062425	0.688193	-0.008125
1648	8.2350e-01	3.5266	-0.717341	0.000359	3.592039	0.608508	-0.007184
1649	8.2400e-01	3.5153	-0.752834	0.000355	3.549276	0.601264	-0.007099
1650	8.2450e-01	3.5065	-0.804577	0.000517	5.174246	0.876541	-0.010349
1651	8.2500e-01	3.4969	-0.855892	0.000513	5.131484	0.869297	-0.010263
1652	8.2550e-01	3.4868	-0.879411	0.000235	2.351930	0.398428	-0.004704
1653	8.2600e-01	3.4763	-0.931154	0.000517	5.174246	0.876541	-0.010349
1654	8.2650e-01	3.4681	-0.946549	0.000154	1.539445	0.260789	-0.003079
1655	8.2700e-01	3.4557	-0.992304	0.000458	4.575573	0.775123	-0.009151
1656	8.2750e-01	3.4460	-1.050034	0.000577	5.772919	0.977959	-0.011546
1657	8.2800e-01	3.4348	-1.059014	0.000090	0.898010	0.152127	-0.001796
1658	8.2850e-01	3.4226	-1.098356	0.000393	3.934138	0.666461	-0.007868
1659	8.2900e-01	3.4149	-1.148815	0.000505	5.045959	0.854809	-0.010092
1660	8.2950e-01	3.4053	-1.187302	0.000385	3.848613	0.651973	-0.007697
1661	8.3000e-01	3.3942	-1.247597	0.000603	6.029493	1.021424	-0.012059
1662	8.3050e-01	3.3870	-1.266840	0.000192	1.924306	0.325986	-0.003849
1663	8.3100e-01	3.3786	-1.301905	0.000351	3.506514	0.594020	-0.007013
1664	8.3150e-01	3.3670	-1.342530	0.000406	4.062425	0.688193	-0.008125
1665	8.3200e-01	3.3542	-1.395983	0.000535	5.345296	0.905518	-0.010691
1666	8.3250e-01	3.3504	-1.422495	0.000265	2.651267	0.449137	-0.005303
1667	8.3300e-01	3.3367	-1.456278	0.000338	3.378227	0.572287	-0.006756
1668	8.3350e-01	3.3266	-1.512297	0.000560	5.601870	0.948982	-0.011204
1669	8.3400e-01	3.3162	-1.571309	0.000590	5.901206	0.999691	-0.011802
1670	8.3450e-01	3.3069	-1.583710	0.000124	1.240109	0.210080	-0.002480
1671	8.3500e-01	3.2950	-1.625617	0.000419	4.190712	0.709926	-0.008381
1672	8.3550e-01	3.2867	-1.669663	0.000440	4.404524	0.746146	-0.008809
1673	8.3600e-01	3.2764	-1.698741	0.000291	2.907841	0.492602	-0.005816
1674	8.3650e-01	3.2645	-1.739366	0.000406	4.062425	0.688193	-0.008125
1675	8.3700e-01	3.2539	-1.790681	0.000513	5.131484	0.869297	-0.010263
1676	8.3750e-01	3.2446	-1.809496	0.000188	1.881544	0.318742	-0.003763
1677	8.3800e-01	3.2336	-1.844562	0.000351	3.506514	0.594020	-0.007013
1678	8.3850e-01	3.2263	-1.899298	0.000547	5.473583	0.927250	-0.010947
1679	8.3900e-01	3.2162	-1.917258	0.000180	1.796019	0.304254	-0.003592
1680	8.3950e-01	3.2056	-1.974987	0.000577	5.772919	0.977959	-0.011546
1681	8.4000e-01	3.1937	-2.013474	0.000385	3.848613	0.651973	-0.007697
1682	8.4050e-01	3.1866	-2.069065	0.000556	5.559107	0.941738	-0.011118
1683	8.4100e-01	3.1750	-2.087453	0.000184	1.838782	0.311498	-0.003678
1684	8.4150e-01	3.1622	-2.129788	0.000423	4.233474	0.717170	-0.008467
1685	8.4200e-01	3.1538	-2.178965	0.000492	4.917672	0.833076	-0.009835
1686	8.4250e-01	3.1458	-2.211464	0.000325	3.249940	0.550555	-0.006500
1687	8.4300e-01	3.1367	-2.255937	0.000445	4.447286	0.753391	-0.008895
1688	8.4350e-01	3.1264	-2.299555	0.000436	4.361761	0.738902	-0.008724
1689	8.4400e-01	3.1177	-2.343173	0.000436	4.361761	0.738902	-0.008724
1690	8.4450e-01	3.1049	-2.375245	0.000321	3.207177	0.543311	-0.006414
1691	8.4500e-01	3.0949	-2.429125	0.000539	5.388058	0.912762	-0.010776
1692	8.4550e-01	3.0854	-2.452645	0.000235	2.351930	0.398428	-0.004704
1693	8.4600e-01	3.0737	-2.516361	0.000637	6.371592	1.079377	-0.012743
1694	8.4650e-01	3.0646	-2.546295	0.000299	2.993366	0.507090	-0.005987
1695	8.4700e-01	3.0540	-2.590768	0.000445	4.447286	0.753391	-0.008895
1696	8.4750e-01	3.0452	-2.626261	0.000355	3.549276	0.601264	-0.007099
1697	8.4800e-01	3.0359	-2.665175	0.000389	3.891375	0.659217	-0.007783
1698	8.4850e-01	3.0283	-2.697246	0.000321	3.207177	0.543311	-0.006414
1699	8.4900e-01	3.0151	-2.746423	0.000492	4.917672	0.833076	-0.009835
1700	8.4950e-01	3.0063	-2.786192	0.000398	3.976900	0.673705	-0.007954
1701	8.5000e-01	2.9977	-2.844777	0.000586	5.858444	0.992447	-0.011717
1702	8.5050e-01	2.9837	-2.872145	0.000274	2.736791	0.463625	-0.005474
1703	8.5100e-01	2.9755	-2.916191	0.000440	4.404524	0.746146	-0.008809
1704	8.5150e-01	2.9633	-2.926026	0.000098	0.983534	0.166615	-0.001967
1705	8.5200e-01	2.9542	-2.993163	0.000671	6.713691	1.137330	-0.013427
1706	8.5250e-01	2.9445	-3.037209	0.000440	4.404524	0.746146	-0.008809
1707	8.5300e-01	2.9358	-3.069280	0.000321	3.207177	0.543311	-0.006414
1708	8.5350e-01	2.9254	-3.106056	0.000368	3.677563	0.622996	-0.007355
1709	8.5400e-01	2.9192	-3.140266	0.000342	3.420989	0.579531	-0.006842
1710	8.5450e-01	2.9060	-3.187305	0.000470	4.703860	0.796855	-0.009408
1711	8.5500e-01	2.8969	-3.208259	0.000210	2.095356	0.354963	-0.004191
1712	8.5550e-01	2.8883	-3.259146	0.000509	5.088721	0.862053	-0.010177
1713	8.5600e-01	2.8745	-3.292501	0.000334	3.335464	0.565043	-0.006671
1714	8.5650e-01	2.8661	-3.345526	0.000530	5.302533	0.898273	-0.010605
1715	8.5700e-01	2.8534	-3.381019	0.000355	3.549276	0.601264	-0.007099
1716	8.5750e-01	2.8446	-3.431051	0.000500	5.003197	0.847564	-0.010006
1717	8.5800e-01	2.8372	-3.474242	0.000432	4.318999	0.731658	-0.008638
1718	8.5850e-01	2.8236	-3.505031	0.000308	3.078890	0.521578	-0.006158
1719	8.5900e-01	2.8154	-3.558911	0.000539	5.388058	0.912762	-0.010776
1720	8.5950e-01	2.8052	-3.594832	0.000359	3.592039	0.608508	-0.007184
1721	8.6000e-01	2.7937	-3.638022	0.000432	4.318999	0.731658	-0.008638
1722	8.6050e-01	2.7866	-3.682495	0.000445	4.447286	0.753391	-0.008895
1723	8.6100e-01	2.7779	-3.716277	0.000338	3.378227	0.572287	-0.006756
1724	8.6150e-01	2.7660	-3.754764	0.000385	3.848613	0.651973	-0.007697
1725	8.6200e-01	2.7568	-3.809500	0.000547	5.473583	0.927250	-0.010947
1726	8.6250e-01	2.7451	-3.847558	0.000381	3.805850	0.644729	-0.007612
1727	8.6300e-01	2.7339	-3.885617	0.000381	3.805850	0.644729	-0.007612
1728	8.6350e-01	2.7242	-3.921965	0.000363	3.634801	0.615752	-0.007270
1729	8.6400e-01	2.7167	-3.979267	0.000573	5.730157	0.970715	-0.011460
1730	8.6450e-01	2.7084	-4.017753	0.000385	3.848613	0.651973	-0.007697
1731	8.6500e-01	2.6959	-4.056240	0.000385	3.848613	0.651973	-0.007697
1732	8.6550e-01	2.6872	-4.106272	0.000500	5.003197	0.847564	-0.010006
1733	8.6600e-01	2.6767	-4.144758	0.000385	3.848613	0.651973	-0.007697
1734	8.6650e-01	2.6651	-4.188803	0.000440	4.404524	0.746146	-0.008809
1735	8.6700e-01	2.6540	-4.226007	0.000372	3.720326	0.630240	-0.007441
1736	8.6750e-01	2.6474	-4.256796	0.000308	3.078890	0.521578	-0.006158
1737	8.6800e-01	2.6376	-4.313242	0.000564	5.644632	0.956227	-0.011289
1738	8.6850e-01	2.6239	-4.352156	0.000389	3.891375	0.659217	-0.007783
1739	8.6900e-01	2.6161	-4.383373	0.000312	3.121653	0.528822	-0.006243
1740	8.6950e-01	2.6062	-4.442385	0.000590	5.901206	0.999691	-0.011802
1741	8.7000e-01	2.5934	-4.488569	0.000462	4.618335	0.782367	-0.009237
1742	8.7050e-01	2.5851	-4.520641	0.000321	3.207177	0.543311	-0.006414
1743	8.7100e-01	2.5781	-4.549291	0.000287	2.865078	0.485357	-0.005730
1744	8.7150e-01	2.5657	-4.619850	0.000706	7.055790	1.195283	-0.014112
1745	8.7200e-01	2.5566	-4.642514	0.000227	2.266405	0.383939	-0.004533
1746	8.7250e-01	2.5458	-4.694684	0.000522	5.217008	0.883785	-0.010434
1747	8.7300e-01	2.5362	-4.731460	0.000368	3.677563	0.622996	-0.007355
1748	8.7350e-01	2.5238	-4.768663	0.000372	3.720326	0.630240	-0.007441
1749	8.7400e-01	2.5134	-4.809288	0.000406	4.062425	0.688193	-0.008125
1750	8.7450e-01	2.5024	-4.853761	0.000445	4.447286	0.753391	-0.008895
1751	8.7500e-01	2.4994	-4.902938	0.000492	4.917672	0.833076	-0.009835
1752	8.7550e-01	2.4873	-4.939713	0.000368	3.677563	0.622996	-0.007355
1753	8.7600e-01	2.4745	-4.983759	0.000440	4.404524	0.746146	-0.008809
1754	8.7650e-01	2.4658	-5.031653	0.000479	4.789385	0.811344	-0.009579
1755	8.7700e-01	2.4574	-5.066718	0.000351	3.506514	0.594020	-0.007013
1756	8.7750e-01	2.4445	-5.096224	0.000295	2.950603	0.499846	-0.005901
1757	8.7800e-01	2.4359	-5.144973	0.000487	4.874910	0.825832	-0.009750
1758	8.7850e-01	2.4260	-5.167638	0.000227	2.266405	0.383939	-0.004533
1759	8.7900e-01	2.4156	-5.227505	0.000599	5.986731	1.014180	-0.011974
1760	8.7950e-01	2.4037	-5.274116	0.000466	4.661098	0.789611	-0.009322
1761	8.8000e-01	2.3947	-5.311747	0.000376	3.763088	0.637484	-0.007526
1762	8.8050e-01	2.3868	-5.365201	0.000535	5.345296	0.905518	-0.010691
1763	8.8100e-01	2.3769	-5.401121	0.000359	3.592039	0.608508	-0.007184
1764	8.8150e-01	2.3657	-5.447732	0.000466	4.661098	0.789611	-0.009322
1765	8.8200e-01	2.3553	-5.485363	0.000376	3.763088	0.637484	-0.007526
1766	8.8250e-01	2.3447	-5.534968	0.000496	4.960434	0.840320	-0.009921
1767	8.8300e-01	2.3348	-5.585000	0.000500	5.003197	0.847564	-0.010006
1768	8.8350e-01	2.3242	-5.615789	0.000308	3.078890	0.521578	-0.006158
1769	8.8400e-01	2.3151	-5.664538	0.000487	4.874910	0.825832	-0.009750
1770	8.8450e-01	2.3065	-5.706873	0.000423	4.233474	0.717170	-0.008467
1771	8.8500e-01	2.2922	-5.725261	0.000184	1.838782	0.311498	-0.003678
1772	8.8550e-01	2.2876	-5.791115	0.000659	6.585404	1.115598	-0.013171
1773	8.8600e-01	2.2755	-5.830457	0.000393	3.934138	0.666461	-0.007868
1774	8.8650e-01	2.2662	-5.890324	0.000599	5.986731	1.014180	-0.011974
1775	8.8700e-01	2.2602	-5.912988	0.000227	2.266405	0.383939	-0.004533
1776	8.8750e-01	2.2470	-5.961310	0.000483	4.832147	0.818588	-0.009664
1777	8.8800e-01	2.2372	-6.004928	0.000436	4.361761	0.738902	-0.008724
1778	8.8850e-01	2.2264	-6.053677	0.000487	4.874910	0.825832	-0.009750
1779	8.8900e-01	2.2179	-6.081045	0.000274	2.736791	0.463625	-0.005474
1780	8.8950e-01	2.2052	-6.135781	0.000547	5.473583	0.927250	-0.010947
1781	8.9000e-01	2.1959	-6.193938	0.000582	5.815682	0.985203	-0.011631
1782	8.9050e-01	2.1872	-6.231569	0.000376	3.763088	0.637484	-0.007526
1783	8.9100e-01	2.1762	-6.264069	0.000325	3.249940	0.550555	-0.006500
1784	8.9150e-01	2.1652	-6.325219	0.000612	6.115018	1.035912	-0.012230
1785	8.9200e-01	2.1550	-6.366699	0.000415	4.147949	0.702682	-0.008296
1786	8.9250e-01	2.1458	-6.390218	0.000235	2.351930	0.398428	-0.004704
1787	8.9300e-01	2.1365	-6.450513	0.000603	6.029493	1.021424	-0.012059
1788	8.9350e-01	2.1263	-6.500118	0.000496	4.960434	0.840320	-0.009921
1789	8.9400e-01	2.1146	-6.519361	0.000192	1.924306	0.325986	-0.003849
1790	8.9450e-01	2.1052	-6.562124	0.000428	4.276236	0.724414	-0.008553
1791	8.9500e-01	2.0972	-6.612156	0.000500	5.003197	0.847564	-0.010006
1792	8.9550e-01	2.0869	-6.652353	0.000402	4.019662	0.680949	-0.008039
1793	8.9600e-01	2.0750	-6.726759	0.000744	7.440651	1.260480	-0.014881
1794	8.9650e-01	2.0671	-6.762252	0.000355	3.549276	0.601264	-0.007099
1795	8.9700e-01	2.0572	-6.789193	0.000269	2.694029	0.456381	-0.005388
1796	8.9750e-01	2.0453	-6.847350	0.000582	5.815682	0.985203	-0.011631
1797	8.9800e-01	2.0344	-6.881132	0.000338	3.378227	0.572287	-0.006756
1798	8.9850e-01	2.0291	-6.929026	0.000479	4.789385	0.811344	-0.009579
1799	8.9900e-01	2.0164	-6.986328	0.000573	5.730157	0.970715	-0.011460
1800	8.9950e-01	2.0045	-7.019683	0.000334	3.335464	0.565043	-0.006671
1801	9.0000e-01	1.9953	-7.053465	0.000338	3.378227	0.572287	-0.006756
1802	9.0050e-01	1.9848	-7.106063	0.000526	5.259771	0.891029	-0.010520
1803	9.0100e-01	1.9751	-7.140701	0.000346	3.463752	0.586775	-0.006928
1804	9.0150e-01	1.9672	-7.188595	0.000479	4.789385	0.811344	-0.009579
1805	9.0200e-01	1.9568	-7.232640	0.000440	4.404524	0.746146	-0.008809
1806	9.0250e-01	1.9470	-7.270699	0.000381	3.805850	0.644729	-0.007612
1807	9.0300e-01	1.9352	-7.330994	0.000603	6.029493	1.021424	-0.012059
1808	9.0350e-01	1.9241	-7.368625	0.000376	3.763088	0.637484	-0.007526
1809	9.0400e-01	1.9183	-7.406684	0.000381	3.805850	0.644729	-0.007612
1810	9.0450e-01	1.9052	-7.455433	0.000487	4.874910	0.825832	-0.009750
1811	9.0500e-01	1.8948	-7.490070	0.000346	3.463752	0.586775	-0.006928
1812	9.0550e-01	1.8848	-7.543524	0.000535	5.345296	0.905518	-0.010691
1813	9.0600e-01	1.8744	-7.597404	0.000539	5.388058	0.912762	-0.010776
1814	9.0650e-01	1.8649	-7.638029	0.000406	4.062425	0.688193	-0.008125
1815	9.0700e-01	1.8552	-7.685068	0.000470	4.703860	0.796855	-0.009408
1816	9.0750e-01	1.8448	-7.726547	0.000415	4.147949	0.702682	-0.008296
1817	9.0800e-01	1.8329	-7.756481	0.000299	2.993366	0.507090	-0.005987
1818	9.0850e-01	1.8272	-7.813355	0.000569	5.687394	0.963471	-0.011375
1819	9.0900e-01	1.8176	-7.875361	0.000620	6.200543	1.050400	-0.012401
1820	9.0950e-01	1.8062	-7.904439	0.000291	2.907841	0.492602	-0.005816
1821	9.1000e-01	1.7939	-7.960031	0.000556	5.559107	0.941738	-0.011118
1822	9.1050e-01	1.7848	-8.007497	0.000475	4.746622	0.804100	-0.009493
1823	9.1100e-01	1.7746	-8.049404	0.000419	4.190712	0.709926	-0.008381
1824	9.1150e-01	1.7647	-8.080193	0.000308	3.078890	0.521578	-0.006158
1825	9.1200e-01	1.7584	-8.127232	0.000470	4.703860	0.796855	-0.009408
1826	9.1250e-01	1.7468	-8.186244	0.000590	5.901206	0.999691	-0.011802
1827	9.1300e-01	1.7352	-8.229862	0.000436	4.361761	0.738902	-0.008724
1828	9.1350e-01	1.7244	-8.254237	0.000244	2.437455	0.412916	-0.004875
1829	9.1400e-01	1.7163	-8.306407	0.000522	5.217008	0.883785	-0.010434
1830	9.1450e-01	1.7056	-8.363709	0.000573	5.730157	0.970715	-0.011460
1831	9.1500e-01	1.6943	-8.418017	0.000543	5.430820	0.920006	-0.010862
1832	9.1550e-01	1.6867	-8.451372	0.000334	3.335464	0.565043	-0.006671
1833	9.1600e-01	1.6785	-8.481306	0.000299	2.993366	0.507090	-0.005987
1834	9.1650e-01	1.6667	-8.552719	0.000714	7.141315	1.209771	-0.014283
1835	9.1700e-01	1.6565	-8.602751	0.000500	5.003197	0.847564	-0.010006
1836	9.1750e-01	1.6454	-8.642521	0.000398	3.976900	0.673705	-0.007954
1837	9.1800e-01	1.6351	-8.685711	0.000432	4.318999	0.731658	-0.008638
1838	9.1850e-01	1.6274	-8.716072	0.000304	3.036128	0.514334	-0.006072
1839	9.1900e-01	1.6161	-8.773802	0.000577	5.772919	0.977959	-0.011546
1840	9.1950e-01	1.6046	-8.815709	0.000419	4.190712	0.709926	-0.008381
1841	9.2000e-01	1.5961	-8.871300	0.000556	5.559107	0.941738	-0.011118
1842	9.2050e-01	1.5845	-8.906793	0.000355	3.549276	0.601264	-0.007099
1843	9.2100e-01	1.5755	-8.961957	0.000552	5.516345	0.934494	-0.011033
1844	9.2150e-01	1.5674	-9.010278	0.000483	4.832147	0.818588	-0.009664
1845	9.2200e-01	1.5564	-9.046626	0.000363	3.634801	0.615752	-0.007270
1846	9.2250e-01	1.5455	-9.102218	0.000556	5.559107	0.941738	-0.011118
1847	9.2300e-01	1.5374	-9.144553	0.000423	4.233474	0.717170	-0.008467
1848	9.2350e-01	1.5260	-9.187315	0.000428	4.276236	0.724414	-0.008553
1849	9.2400e-01	1.5152	-9.238630	0.000513	5.131484	0.869297	-0.010263
1850	9.2450e-01	1.5073	-9.299781	0.000612	6.115018	1.035912	-0.012230
1851	9.2500e-01	1.4970	-9.331853	0.000321	3.207177	0.543311	-0.006414
1852	9.2550e-01	1.4864	-9.387444	0.000556	5.559107	0.941738	-0.011118
1853	9.2600e-01	1.4738	-9.426358	0.000389	3.891375	0.659217	-0.007783
1854	9.2650e-01	1.4661	-9.458857	0.000325	3.249940	0.550555	-0.006500
1855	9.2700e-01	1.4572	-9.510172	0.000513	5.131484	0.869297	-0.010263
1856	9.2750e-01	1.4447	-9.576027	0.000659	6.585404	1.115598	-0.013171
1857	9.2800e-01	1.4363	-9.607671	0.000316	3.164415	0.536066	-0.006329
1858	9.2850e-01	1.4238	-9.654710	0.000470	4.703860	0.796855	-0.009408
1859	9.2900e-01	1.4139	-9.696189	0.000415	4.147949	0.702682	-0.008296
1860	9.2950e-01	1.4040	-9.749215	0.000530	5.302533	0.898273	-0.010605
1861	9.3000e-01	1.3976	-9.806944	0.000577	5.772919	0.977959	-0.011546
1862	9.3050e-01	1.3835	-9.838161	0.000312	3.121653	0.528822	-0.006243
1863	9.3100e-01	1.3731	-9.910857	0.000727	7.269602	1.231504	-0.014539
1864	9.3150e-01	1.3635	-9.929245	0.000184	1.838782	0.311498	-0.003678
1865	9.3200e-01	1.3544	-9.981843	0.000526	5.259771	0.891029	-0.010520
1866	9.3250e-01	1.3452	-10.030165	0.000483	4.832147	0.818588	-0.009664
1867	9.3300e-01	1.3348	-10.075065	0.000449	4.490048	0.760635	-0.008980
1868	9.3350e-01	1.3245	-10.140064	0.000650	6.499879	1.101109	-0.013000
1869	9.3400e-01	1.3155	-10.187103	0.000470	4.703860	0.796855	-0.009408
1870	9.3450e-01	1.3040	-10.238418	0.000513	5.131484	0.869297	-0.010263
1871	9.3500e-01	1.2938	-10.267069	0.000287	2.865078	0.485357	-0.005730
1872	9.3550e-01	1.2831	-10.340621	0.000736	7.355127	1.245992	-0.014710
1873	9.3600e-01	1.2735	-10.356870	0.000162	1.624970	0.275277	-0.003250
1874	9.3650e-01	1.2608	-10.413745	0.000569	5.687394	0.963471	-0.011375
1875	9.3700e-01	1.2514	-10.467198	0.000535	5.345296	0.905518	-0.010691
1876	9.3750e-01	1.2460	-10.506539	0.000393	3.934138	0.666461	-0.007868
1877	9.3800e-01	1.2351	-10.556999	0.000505	5.045959	0.854809	-0.010092
1878	9.3850e-01	1.2244	-10.609597	0.000526	5.259771	0.891029	-0.010520
1879	9.3900e-01	1.2141	-10.647228	0.000376	3.763088	0.637484	-0.007526
1880	9.3950e-01	1.2068	-10.715648	0.000684	6.841978	1.159062	-0.013684
1881	9.4000e-01	1.1946	-10.768246	0.000526	5.259771	0.891029	-0.010520
1882	9.4050e-01	1.1862	-10.789199	0.000210	2.095356	0.354963	-0.004191
1883	9.4100e-01	1.1737	-10.873442	0.000842	8.424186	1.427096	-0.016848
1884	9.4150e-01	1.1661	-10.888409	0.000150	1.496683	0.253545	-0.002993
1885	9.4200e-01	1.1538	-10.957684	0.000693	6.927503	1.173551	-0.013855
1886	9.4250e-01	1.1499	-10.995315	0.000376	3.763088	0.637484	-0.007526
1887	9.4300e-01	1.1375	-11.026104	0.000308	3.078890	0.521578	-0.006158
1888	9.4350e-01	1.1252	-11.094524	0.000684	6.841978	1.159062	-0.013684
1889	9.4400e-01	1.1170	-11.112912	0.000184	1.838782	0.311498	-0.003678
1890	9.4450e-01	1.1051	-11.181332	0.000684	6.841978	1.159062	-0.013684
1891	9.4500e-01	1.0970	-11.236496	0.000552	5.516345	0.934494	-0.011033
1892	9.4550e-01	1.0877	-11.280113	0.000436	4.361761	0.738902	-0.008724
1893	9.4600e-01	1.0802	-11.335277	0.000552	5.516345	0.934494	-0.011033
1894	9.4650e-01	1.0645	-11.387875	0.000526	5.259771	0.891029	-0.010520
1895	9.4700e-01	1.0554	-11.438762	0.000509	5.088721	0.862053	-0.010177
1896	9.4750e-01	1.0449	-11.469551	0.000308	3.078890	0.521578	-0.006158
1897	9.4800e-01	1.0345	-11.530702	0.000612	6.115018	1.035912	-0.012230
1898	9.4850e-01	1.0251	-11.563629	0.000329	3.292702	0.557799	-0.006585
1899	9.4900e-01	1.0159	-11.631621	0.000680	6.799216	1.151818	-0.013598
1900	9.4950e-01	1.0088	-11.668825	0.000372	3.720326	0.630240	-0.007441
1901	9.5000e-01	0.9949	-11.723988	0.000552	5.516345	0.934494	-0.011033
1902	9.5050e-01	0.9856	-11.767178	0.000432	4.318999	0.731658	-0.008638
1903	9.5100e-01	0.9762	-11.833460	0.000663	6.628166	1.122842	-0.013256
1904	9.5150e-01	0.9657	-11.866815	0.000334	3.335464	0.565043	-0.006671
1905	9.5200e-01	0.9544	-11.911716	0.000449	4.490048	0.760635	-0.008980
1906	9.5250e-01	0.9480	-11.956189	0.000445	4.447286	0.753391	-0.008895
1907	9.5300e-01	0.9338	-12.023326	0.000671	6.713691	1.137330	-0.013427
1908	9.5350e-01	0.9262	-12.071220	0.000479	4.789385	0.811344	-0.009579
1909	9.5400e-01	0.9171	-12.133653	0.000624	6.243305	1.057645	-0.012487
1910	9.5450e-01	0.9074	-12.173850	0.000402	4.019662	0.680949	-0.008039
1911	9.5500e-01	0.8955	-12.220461	0.000466	4.661098	0.789611	-0.009322
1912	9.5550e-01	0.8853	-12.280329	0.000599	5.986731	1.014180	-0.011974
1913	9.5600e-01	0.8783	-12.332071	0.000517	5.174246	0.876541	-0.010349
1914	9.5650e-01	0.8652	-12.368847	0.000368	3.677563	0.622996	-0.007355
1915	9.5700e-01	0.8572	-12.417597	0.000487	4.874910	0.825832	-0.009750
1916	9.5750e-01	0.8456	-12.462070	0.000445	4.447286	0.753391	-0.008895
1917	9.5800e-01	0.8344	-12.503549	0.000415	4.147949	0.702682	-0.008296
1918	9.5850e-01	0.8266	-12.569404	0.000659	6.585404	1.115598	-0.013171
1919	9.5900e-01	0.8157	-12.610028	0.000406	4.062425	0.688193	-0.008125
1920	9.5950e-01	0.8038	-12.666474	0.000564	5.644632	0.956227	-0.011289
1921	9.6000e-01	0.7993	-12.718645	0.000522	5.217008	0.883785	-0.010434
1922	9.6050e-01	0.7843	-12.777229	0.000586	5.858444	0.992447	-0.011717
1923	9.6100e-01	0.7771	-12.803742	0.000265	2.651267	0.449137	-0.005303
1924	9.6150e-01	0.7686	-12.862754	0.000590	5.901206	0.999691	-0.011802
1925	9.6200e-01	0.7559	-12.918773	0.000560	5.601870	0.948982	-0.011204
1926	9.6250e-01	0.7435	-12.959825	0.000411	4.105187	0.695437	-0.008210
1927	9.6300e-01	0.7308	-13.022259	0.000624	6.243305	1.057645	-0.012487
1928	9.6350e-01	0.7243	-13.070580	0.000483	4.832147	0.818588	-0.009664
1929	9.6400e-01	0.7137	-13.124033	0.000535	5.345296	0.905518	-0.010691
1930	9.6450e-01	0.7072	-13.184329	0.000603	6.029493	1.021424	-0.012059
1931	9.6500e-01	0.6961	-13.221532	0.000372	3.720326	0.630240	-0.007441
1932	9.6550e-01	0.6860	-13.276268	0.000547	5.473583	0.927250	-0.010947
1933	9.6600e-01	0.6760	-13.329294	0.000530	5.302533	0.898273	-0.010605
1934	9.6650e-01	0.6660	-13.381036	0.000517	5.174246	0.876541	-0.010349
1935	9.6700e-01	0.6573	-13.427647	0.000466	4.661098	0.789611	-0.009322
1936	9.6750e-01	0.6464	-13.485377	0.000577	5.772919	0.977959	-0.011546
1937	9.6800e-01	0.6355	-13.531560	0.000462	4.618335	0.782367	-0.009237
1938	9.6850e-01	0.6255	-13.587152	0.000556	5.559107	0.941738	-0.011118
1939	9.6900e-01	0.6129	-13.638039	0.000509	5.088721	0.862053	-0.010177
1940	9.6950e-01	0.6062	-13.665835	0.000278	2.779554	0.470869	-0.005559
1941	9.7000e-01	0.5965	-13.757347	0.000915	9.151146	1.550246	-0.018302
1942	9.7050e-01	0.5861	-13.782576	0.000252	2.522979	0.427404	-0.005046
1943	9.7100e-01	0.5728	-13.818069	0.000355	3.549276	0.601264	-0.007099
1944	9.7150e-01	0.5670	-13.892476	0.000744	7.440651	1.260480	-0.014881
1945	9.7200e-01	0.5575	-13.939515	0.000470	4.703860	0.796855	-0.009408
1946	9.7250e-01	0.5466	-13.994251	0.000547	5.473583	0.927250	-0.010947
1947	9.7300e-01	0.5348	-14.038296	0.000440	4.404524	0.746146	-0.008809
1948	9.7350e-01	0.5234	-14.094743	0.000564	5.644632	0.956227	-0.011289
1949	9.7400e-01	0.5148	-14.146058	0.000513	5.131484	0.869297	-0.010263
1950	9.7450e-01	0.5037	-14.196945	0.000509	5.088721	0.862053	-0.010177
1951	9.7500e-01	0.4961	-14.252964	0.000560	5.601870	0.948982	-0.011204
1952	9.7550e-01	0.4851	-14.307700	0.000547	5.473583	0.927250	-0.010947
1953	9.7600e-01	0.4735	-14.362864	0.000552	5.516345	0.934494	-0.011033
1954	9.7650e-01	0.4656	-14.418028	0.000552	5.516345	0.934494	-0.011033
1955	9.7700e-01	0.4529	-14.462501	0.000445	4.447286	0.753391	-0.008895
1956	9.7750e-01	0.4465	-14.521085	0.000586	5.858444	0.992447	-0.011717
1957	9.7800e-01	0.4367	-14.560854	0.000398	3.976900	0.673705	-0.007954
1958	9.7850e-01	0.4247	-14.610459	0.000496	4.960434	0.840320	-0.009921
1959	9.7900e-01	0.4147	-14.681017	0.000706	7.055790	1.195283	-0.014112
1960	9.7950e-01	0.4053	-14.716938	0.000359	3.592039	0.608508	-0.007184
1961	9.8000e-01	0.3943	-14.772957	0.000560	5.601870	0.948982	-0.011204
1962	9.8050e-01	0.3864	-14.844798	0.000718	7.184077	1.217016	-0.014368
1963	9.8100e-01	0.3775	-14.887560	0.000428	4.276236	0.724414	-0.008553
1964	9.8150e-01	0.3636	-14.923481	0.000359	3.592039	0.608508	-0.007184
1965	9.8200e-01	0.3551	-14.990190	0.000667	6.670929	1.130086	-0.013342
1966	9.8250e-01	0.3445	-15.060321	0.000701	7.013028	1.188039	-0.014026
1967	9.8300e-01	0.3377	-15.099662	0.000393	3.934138	0.666461	-0.007868
1968	9.8350e-01	0.3267	-15.147129	0.000475	4.746622	0.804100	-0.009493
1969	9.8400e-01	0.3129	-15.206996	0.000599	5.986731	1.014180	-0.011974
1970	9.8450e-01	0.3072	-15.260022	0.000530	5.302533	0.898273	-0.010605
1971	9.8500e-01	0.2959	-15.314330	0.000543	5.430820	0.920006	-0.010862
1972	9.8550e-01	0.2867	-15.344264	0.000299	2.993366	0.507090	-0.005987
1973	9.8600e-01	0.2771	-15.411401	0.000671	6.713691	1.137330	-0.013427
1974	9.8650e-01	0.2647	-15.479394	0.000680	6.799216	1.151818	-0.013598
1975	9.8700e-01	0.2544	-15.531564	0.000522	5.217008	0.883785	-0.010434
1976	9.8750e-01	0.2449	-15.579030	0.000475	4.746622	0.804100	-0.009493
1977	9.8800e-01	0.2386	-15.625214	0.000462	4.618335	0.782367	-0.009237
1978	9.8850e-01	0.2270	-15.696200	0.000710	7.098552	1.202527	-0.014197
1979	9.8900e-01	0.2163	-15.750936	0.000547	5.473583	0.927250	-0.010947
1980	9.8950e-01	0.2042	-15.795409	0.000445	4.447286	0.753391	-0.008895
1981	9.9000e-01	0.1943	-15.859552	0.000641	6.414355	1.086621	-0.012829
1982	9.9050e-01	0.1884	-15.919420	0.000599	5.986731	1.014180	-0.011974
1983	9.9100e-01	0.1731	-15.961327	0.000419	4.190712	0.709926	-0.008381
1984	9.9150e-01	0.1615	-16.010076	0.000487	4.874910	0.825832	-0.009750
1985	9.9200e-01	0.1562	-16.083628	0.000736	7.355127	1.245992	-0.014710
1986	9.9250e-01	0.1466	-16.124252	0.000406	4.062425	0.688193	-0.008125
1987	9.9300e-01	0.1353	-16.176423	0.000522	5.217008	0.883785	-0.010434
1988	9.9350e-01	0.1281	-16.232442	0.000560	5.601870	0.948982	-0.011204
1989	9.9400e-01	0.1153	-16.284612	0.000522	5.217008	0.883785	-0.010434
1990	9.9450e-01	0.1064	-16.364578	0.000800	7.996562	1.354654	-0.015993
1991	9.9500e-01	0.0944	-16.400071	0.000355	3.549276	0.601264	-0.007099
1992	9.9550e-01	0.0869	-16.436846	0.000368	3.677563	0.622996	-0.007355
1993	9.9600e-01	0.0775	-16.512109	0.000753	7.526176	1.274969	-0.015052
1994	9.9650e-01	0.0646	-16.562141	0.000500	5.003197	0.847564	-0.010006
1995	9.9700e-01	0.0523	-16.615166	0.000530	5.302533	0.898273	-0.010605
1996	9.9750e-01	0.0461	-16.695560	0.000804	8.039324	1.361898	-0.016079
1997	9.9800e-01	0.0350	-16.737039	0.000415	4.147949	0.702682	-0.008296
1998	9.9850e-01	0.0243	-16.787499	0.000505	5.045959	0.854809	-0.010092
1999	9.9900e-01	0.0138	-16.838814	0.000513	5.131484	0.869297	-0.010263
2000	9.9950e-01	0.0050	-16.900392	0.000616	6.157780	1.043156	-0.012316
2001	1.0000e+00	-0.0043	-16.954273	0.000616	6.157780	1.043156	-0.010776

PMax (uC/cm2):	3.82e+01
Pr (uC/cm2):	2.14e+00
-Pr (uC/cm2):	0.00e+00
PLoss (uC/cm2):	0.00e+00
C (Max-Eff) (nF):	3.82e-01
K (Eff):	6.47e+02
Vert. (+/-Pr) Shift (uC/cm2):	1.07e+00
Offset (uC/cm2):	1.91e+01

A (Loop Area - uC/cm2·Volts):	-1.98e-02



Hysteresis Version: 5.48.1 - Radiant Technologies, Inc., 1999 - 9/12/24

