»»»»»»»»»»»»»»»»»»»»»»»»»»»»»»»»»»»» Hysteresis ««««««««««««««««««««««««««««««««««««
»»»  Executed Version:	5.48.1
»»»  Vision Version:	5.48.4 (R)
»»»  Vision Compiled:	9/18/24
»»»  Driver Version:	5.47.0
»»»  Windows Version:	Windows 8 or 8.1
»»»  Processor Information:	x86 (AMD or Intel) - 32 Processors
»»»  Tester Name:	PMF21124-494 (100V)
»»»  Tester S/N:	PMF21124-494
»»»  Internal Amp Type:	100V RevK 270k
»»»  Internal Amp S/N:	iAB2-596/K     
»»»  Execution Count:	1
»»»»»»»»»»»»»»»»»»»»»»»»»»»»»»»»»»»»»»»»»»««««««««««««««««««««««««««««««««««««««««««

Stored:	6/25/2025 - 15:47:14
Configured:	06/25/25 10:44:40 AM
Executed:	06/25/25 03:46:10 PM

»»»»»»»»»»»»»»»»»»»»»»»»»»»»»»»»»»» Sample Info ««««««««««««««««««««««««««««««««««««
Sample Name:	
Lot Name:	
Wafer Name:	
Die Row/Column:	0/0
Capacitor Number:	0
Sample Area (cm2):	1.00e-04
Sample Thickness (microns):	1.50e-01

Amplifier:	Internal

»»»»»»»»»»»»»»»»»»»»»»»»»»»»»»»»»»» Tester Info «««««««««««««««««««««««««««««««««««
Tester Name:	PMF21124-494 (100V)
Tester Serial Number:	PMF21124-494
Return Signal Amp. Level:	1.79 [Index: 2]

»»»»»»»»»»»»»»»»»»»»»»»»»»»»»»»» Hysteresis Info ««««««««««««««««««««««««««««««««««
Task Name:	Hyst-116
Volts:	10.00
Field:	666.67 (kV/cm)
DCBias:	0.00
DCField:	0.00 (kV/cm)
Hysteresis Period (ms):	1.00e+00
Preset:	Enabled
Preset Delay (ms):	1.00e+03
Profile:	Standard Monopolar

»»»»»»»»»»»»»»»»»»»»»»»»»»»»»»»»»»»»»» Data «««««««««««««««««««««««««««««««««««««««
Points:	2001

Valid Data

Point	Time (ms)	Drive Voltage	Measured Polarization (uC/cm2)	Capacitance (uF)	Normalized Capacitance (uF/cm2)	Dielectric Constant	Instantaneous Current (mA)
   1	0.0000e+00	-0.0038	-21.305146	0.000509	5.089576	0.862197	0.010177
   2	5.0000e-04	0.0057	-21.254259	0.000509	5.089576	0.862197	0.010177
   3	1.0000e-03	0.0150	-21.183701	0.000706	7.056975	1.195484	0.014112
   4	1.5000e-03	0.0252	-21.121695	0.000620	6.201584	1.050577	0.012401
   5	2.0000e-03	0.0368	-21.074229	0.000475	4.747419	0.804235	0.009493
   6	2.5000e-03	0.0473	-21.028045	0.000462	4.619111	0.782499	0.009237
   7	3.0000e-03	0.0563	-20.954494	0.000736	7.356361	1.246201	0.014710
   8	3.5000e-03	0.0645	-20.907027	0.000475	4.747419	0.804235	0.009493
   9	4.0000e-03	0.0735	-20.861271	0.000458	4.576341	0.775253	0.009151
  10	4.5000e-03	0.0829	-20.797983	0.000633	6.329892	1.072313	0.012658
  11	5.0000e-03	0.0947	-20.739826	0.000582	5.816658	0.985369	0.011631
  12	5.5000e-03	0.1025	-20.684235	0.000556	5.560041	0.941896	0.011118
  13	6.0000e-03	0.1158	-20.619663	0.000646	6.458201	1.094049	0.012914
  14	6.5000e-03	0.1264	-20.567493	0.000522	5.217884	0.883934	0.010434
  15	7.0000e-03	0.1334	-20.511902	0.000556	5.560041	0.941896	0.011118
  16	7.5000e-03	0.1437	-20.461442	0.000505	5.046806	0.854952	0.010092
  17	8.0000e-03	0.1556	-20.399008	0.000624	6.244353	1.057822	0.012487
  18	8.5000e-03	0.1641	-20.337003	0.000620	6.201584	1.050577	0.012401
  19	9.0000e-03	0.1730	-20.283550	0.000535	5.346193	0.905670	0.010691
  20	9.5000e-03	0.1839	-20.227103	0.000565	5.645580	0.956387	0.011289
  21	1.0000e-02	0.1957	-20.173222	0.000539	5.388962	0.912915	0.010776
  22	1.0500e-02	0.2042	-20.118059	0.000552	5.517271	0.934651	0.011033
  23	1.1000e-02	0.2168	-20.055625	0.000624	6.244353	1.057822	0.012487
  24	1.1500e-02	0.2253	-20.005593	0.000500	5.004037	0.847707	0.010006
  25	1.2000e-02	0.2364	-19.944870	0.000607	6.073275	1.028841	0.012145
  26	1.2500e-02	0.2450	-19.890134	0.000547	5.474502	0.927406	0.010947
  27	1.3000e-02	0.2553	-19.833688	0.000565	5.645580	0.956387	0.011289
  28	1.3500e-02	0.2628	-19.765695	0.000680	6.800357	1.152012	0.013598
  29	1.4000e-02	0.2739	-19.707966	0.000577	5.773888	0.978123	0.011546
  30	1.4500e-02	0.2857	-19.657934	0.000500	5.004037	0.847707	0.010006
  31	1.5000e-02	0.2965	-19.613888	0.000441	4.405263	0.746272	0.008809
  32	1.5500e-02	0.3052	-19.556159	0.000577	5.773888	0.978123	0.011546
  33	1.6000e-02	0.3168	-19.492871	0.000633	6.329892	1.072313	0.012658
  34	1.6500e-02	0.3275	-19.425306	0.000676	6.757588	1.144766	0.013513
  35	1.7000e-02	0.3362	-19.375274	0.000500	5.004037	0.847707	0.010006
  36	1.7500e-02	0.3474	-19.335932	0.000393	3.934798	0.666573	0.007868
  37	1.8000e-02	0.3572	-19.267084	0.000689	6.885896	1.166502	0.013770
  38	1.8500e-02	0.3649	-19.208072	0.000590	5.902197	0.999859	0.011802
  39	1.9000e-02	0.3729	-19.155474	0.000526	5.260654	0.891179	0.010520
  40	1.9500e-02	0.3865	-19.101166	0.000543	5.431732	0.920160	0.010862
  41	2.0000e-02	0.3967	-19.035311	0.000659	6.586510	1.115785	0.013171
  42	2.0500e-02	0.4054	-18.977582	0.000577	5.773888	0.978123	0.011546
  43	2.1000e-02	0.4188	-18.925412	0.000522	5.217884	0.883934	0.010434
  44	2.1500e-02	0.4236	-18.871531	0.000539	5.388962	0.912915	0.010776
  45	2.2000e-02	0.4343	-18.804821	0.000667	6.672049	1.130276	0.013342
  46	2.2500e-02	0.4434	-18.759921	0.000449	4.490802	0.760762	0.008980
  47	2.3000e-02	0.4588	-18.709461	0.000505	5.046806	0.854952	0.010092
  48	2.3500e-02	0.4689	-18.639330	0.000701	7.014205	1.188239	0.014026
  49	2.4000e-02	0.4767	-18.597423	0.000419	4.191415	0.710045	0.008381
  50	2.4500e-02	0.4871	-18.537128	0.000603	6.030506	1.021595	0.012059
  51	2.5000e-02	0.4969	-18.481537	0.000556	5.560041	0.941896	0.011118
  52	2.5500e-02	0.5064	-18.417821	0.000637	6.372662	1.079558	0.012743
  53	2.6000e-02	0.5152	-18.365223	0.000526	5.260654	0.891179	0.010520
  54	2.6500e-02	0.5275	-18.310059	0.000552	5.517271	0.934651	0.011033
  55	2.7000e-02	0.5373	-18.261737	0.000483	4.832958	0.818725	0.009664
  56	2.7500e-02	0.5441	-18.197166	0.000646	6.458201	1.094049	0.012914
  57	2.8000e-02	0.5574	-18.137298	0.000599	5.987736	1.014350	0.011974
  58	2.8500e-02	0.5685	-18.091970	0.000453	4.533572	0.768008	0.009066
  59	2.9000e-02	0.5762	-18.031675	0.000603	6.030506	1.021595	0.012059
  60	2.9500e-02	0.5857	-17.970952	0.000607	6.073275	1.028841	0.012145
  61	3.0000e-02	0.5958	-17.921775	0.000492	4.918497	0.833216	0.009835
  62	3.0500e-02	0.6085	-17.864046	0.000577	5.773888	0.978123	0.011546
  63	3.1000e-02	0.6169	-17.806744	0.000573	5.731119	0.970878	0.011460
  64	3.1500e-02	0.6257	-17.751153	0.000556	5.560041	0.941896	0.011118
  65	3.2000e-02	0.6358	-17.695561	0.000556	5.560041	0.941896	0.011118
  66	3.2500e-02	0.6455	-17.639115	0.000565	5.645580	0.956387	0.011289
  67	3.3000e-02	0.6537	-17.593787	0.000453	4.533572	0.768008	0.009066
  68	3.3500e-02	0.6708	-17.531781	0.000620	6.201584	1.050577	0.012401
  69	3.4000e-02	0.6738	-17.472769	0.000590	5.902197	0.999859	0.011802
  70	3.4500e-02	0.6845	-17.423164	0.000496	4.961267	0.840461	0.009921
  71	3.5000e-02	0.6970	-17.372704	0.000505	5.046806	0.854952	0.010092
  72	3.5500e-02	0.7063	-17.305995	0.000667	6.672049	1.130276	0.013342
  73	3.6000e-02	0.7161	-17.269647	0.000364	3.635411	0.615855	0.007270
  74	3.6500e-02	0.7279	-17.209352	0.000603	6.030506	1.021595	0.012059
  75	3.7000e-02	0.7334	-17.146491	0.000629	6.287123	1.065067	0.012572
  76	3.7500e-02	0.7465	-17.088334	0.000582	5.816658	0.985369	0.011631
  77	3.8000e-02	0.7558	-17.035308	0.000530	5.303423	0.898424	0.010605
  78	3.8500e-02	0.7654	-16.972447	0.000629	6.287123	1.065067	0.012572
  79	3.9000e-02	0.7744	-16.927974	0.000445	4.448032	0.753517	0.008895
  80	3.9500e-02	0.7872	-16.863830	0.000642	6.415431	1.086804	0.012829
  81	4.0000e-02	0.7935	-16.811232	0.000526	5.260654	0.891179	0.010520
  82	4.0500e-02	0.8062	-16.758207	0.000530	5.303423	0.898424	0.010605
  83	4.1000e-02	0.8173	-16.701333	0.000569	5.688349	0.963632	0.011375
  84	4.1500e-02	0.8255	-16.648735	0.000526	5.260654	0.891179	0.010520
  85	4.2000e-02	0.8355	-16.600841	0.000479	4.790189	0.811480	0.009579
  86	4.2500e-02	0.8453	-16.540118	0.000607	6.073275	1.028841	0.012145
  87	4.3000e-02	0.8562	-16.488803	0.000513	5.132345	0.869443	0.010263
  88	4.3500e-02	0.8630	-16.427653	0.000612	6.116045	1.036086	0.012230
  89	4.4000e-02	0.8780	-16.373772	0.000539	5.388962	0.912915	0.010776
  90	4.4500e-02	0.8847	-16.337424	0.000364	3.635411	0.615855	0.007270
  91	4.5000e-02	0.8954	-16.266010	0.000714	7.142514	1.209975	0.014283
  92	4.5500e-02	0.9039	-16.210419	0.000556	5.560041	0.941896	0.011118
  93	4.6000e-02	0.9161	-16.163380	0.000470	4.704650	0.796989	0.009408
  94	4.6500e-02	0.9272	-16.109927	0.000535	5.346193	0.905670	0.010691
  95	4.7000e-02	0.9346	-16.050915	0.000590	5.902197	0.999859	0.011802
  96	4.7500e-02	0.9474	-15.991902	0.000590	5.902197	0.999859	0.011802
  97	4.8000e-02	0.9568	-15.942298	0.000496	4.961267	0.840461	0.009921
  98	4.8500e-02	0.9652	-15.886707	0.000556	5.560041	0.941896	0.011118
  99	4.9000e-02	0.9769	-15.829405	0.000573	5.731119	0.970878	0.011460
 100	4.9500e-02	0.9854	-15.769110	0.000603	6.030506	1.021595	0.012059
 101	5.0000e-02	0.9948	-15.718222	0.000509	5.089576	0.862197	0.010177
 102	5.0500e-02	1.0065	-15.671183	0.000470	4.704650	0.796989	0.009408
 103	5.1000e-02	1.0151	-15.614309	0.000569	5.688349	0.963632	0.011375
 104	5.1500e-02	1.0265	-15.555297	0.000590	5.902197	0.999859	0.011802
 105	5.2000e-02	1.0368	-15.516811	0.000385	3.849259	0.652082	0.007697
 106	5.2500e-02	1.0461	-15.447535	0.000693	6.928666	1.173748	0.013855
 107	5.3000e-02	1.0568	-15.408194	0.000393	3.934798	0.666573	0.007868
 108	5.3500e-02	1.0660	-15.354313	0.000539	5.388962	0.912915	0.010776
 109	5.4000e-02	1.0773	-15.293163	0.000612	6.116045	1.036086	0.012230
 110	5.4500e-02	1.0861	-15.238427	0.000547	5.474502	0.927406	0.010947
 111	5.5000e-02	1.0959	-15.182408	0.000560	5.602810	0.949142	0.011204
 112	5.5500e-02	1.1066	-15.137507	0.000449	4.490802	0.760762	0.008980
 113	5.6000e-02	1.1131	-15.065666	0.000719	7.185283	1.217220	0.014368
 114	5.6500e-02	1.1271	-15.022904	0.000428	4.276954	0.724536	0.008553
 115	5.7000e-02	1.1377	-14.972871	0.000500	5.004037	0.847707	0.010006
 116	5.7500e-02	1.1472	-14.918991	0.000539	5.388962	0.912915	0.010776
 117	5.8000e-02	1.1540	-14.871952	0.000470	4.704650	0.796989	0.009408
 118	5.8500e-02	1.1660	-14.813367	0.000586	5.859427	0.992614	0.011717
 119	5.9000e-02	1.1761	-14.760769	0.000526	5.260654	0.891179	0.010520
 120	5.9500e-02	1.1893	-14.706033	0.000547	5.474502	0.927406	0.010947
 121	6.0000e-02	1.1970	-14.658994	0.000470	4.704650	0.796989	0.009408
 122	6.0500e-02	1.2051	-14.610245	0.000488	4.875728	0.825971	0.009750
 123	6.1000e-02	1.2177	-14.551660	0.000586	5.859427	0.992614	0.011717
 124	6.1500e-02	1.2259	-14.503339	0.000483	4.832958	0.818725	0.009664
 125	6.2000e-02	1.2357	-14.455017	0.000483	4.832958	0.818725	0.009664
 126	6.2500e-02	1.2445	-14.393867	0.000612	6.116045	1.036086	0.012230
 127	6.3000e-02	1.2534	-14.344262	0.000496	4.961267	0.840461	0.009921
 128	6.3500e-02	1.2665	-14.285678	0.000586	5.859427	0.992614	0.011717
 129	6.4000e-02	1.2733	-14.226665	0.000590	5.902197	0.999859	0.011802
 130	6.4500e-02	1.2862	-14.189034	0.000376	3.763720	0.637591	0.007526
 131	6.5000e-02	1.2930	-14.137292	0.000518	5.175115	0.876688	0.010349
 132	6.5500e-02	1.3057	-14.059036	0.000783	7.826826	1.325900	0.015651
 133	6.6000e-02	1.3136	-14.023116	0.000359	3.592642	0.608610	0.007184
 134	6.6500e-02	1.3255	-13.965814	0.000573	5.731119	0.970878	0.011460
 135	6.7000e-02	1.3340	-13.922196	0.000436	4.362493	0.739026	0.008724
 136	6.7500e-02	1.3467	-13.876440	0.000458	4.576341	0.775253	0.009151
 137	6.8000e-02	1.3554	-13.818711	0.000577	5.773888	0.978123	0.011546
 138	6.8500e-02	1.3635	-13.754995	0.000637	6.372662	1.079558	0.012743
 139	6.9000e-02	1.3757	-13.717364	0.000376	3.763720	0.637591	0.007526
 140	6.9500e-02	1.3844	-13.657924	0.000594	5.944966	1.007105	0.011888
 141	7.0000e-02	1.3936	-13.604043	0.000539	5.388962	0.912915	0.010776
 142	7.0500e-02	1.4046	-13.556576	0.000475	4.747419	0.804235	0.009493
 143	7.1000e-02	1.4171	-13.498419	0.000582	5.816658	0.985369	0.011631
 144	7.1500e-02	1.4278	-13.449670	0.000488	4.875728	0.825971	0.009750
 145	7.2000e-02	1.4368	-13.405625	0.000441	4.405263	0.746272	0.008809
 146	7.2500e-02	1.4463	-13.344474	0.000612	6.116045	1.036086	0.012230
 147	7.3000e-02	1.4563	-13.289311	0.000552	5.517271	0.934651	0.011033
 148	7.3500e-02	1.4644	-13.246121	0.000432	4.319724	0.731781	0.008638
 149	7.4000e-02	1.4769	-13.192240	0.000539	5.388962	0.912915	0.010776
 150	7.4500e-02	1.4832	-13.139214	0.000530	5.303423	0.898424	0.010605
 151	7.5000e-02	1.4948	-13.083195	0.000560	5.602810	0.949142	0.011204
 152	7.5500e-02	1.5028	-13.037867	0.000453	4.533572	0.768008	0.009066
 153	7.6000e-02	1.5159	-12.982276	0.000556	5.560041	0.941896	0.011118
 154	7.6500e-02	1.5247	-12.933954	0.000483	4.832958	0.818725	0.009664
 155	7.7000e-02	1.5350	-12.884777	0.000492	4.918497	0.833216	0.009835
 156	7.7500e-02	1.5459	-12.826192	0.000586	5.859427	0.992614	0.011717
 157	7.8000e-02	1.5553	-12.773595	0.000526	5.260654	0.891179	0.010520
 158	7.8500e-02	1.5643	-12.728694	0.000449	4.490802	0.760762	0.008980
 159	7.9000e-02	1.5775	-12.667116	0.000616	6.158814	1.043331	0.012316
 160	7.9500e-02	1.5823	-12.620932	0.000462	4.619111	0.782499	0.009237
 161	8.0000e-02	1.5929	-12.564913	0.000560	5.602810	0.949142	0.011204
 162	8.0500e-02	1.6039	-12.511460	0.000535	5.346193	0.905670	0.010691
 163	8.1000e-02	1.6140	-12.470408	0.000411	4.105876	0.695554	0.008210
 164	8.1500e-02	1.6266	-12.429784	0.000406	4.063107	0.688309	0.008125
 165	8.2000e-02	1.6360	-12.361791	0.000680	6.800357	1.152012	0.013598
 166	8.2500e-02	1.6463	-12.316891	0.000449	4.490802	0.760762	0.008980
 167	8.3000e-02	1.6553	-12.263865	0.000530	5.303423	0.898424	0.010605
 168	8.3500e-02	1.6651	-12.219820	0.000441	4.405263	0.746272	0.008809
 169	8.4000e-02	1.6791	-12.165084	0.000547	5.474502	0.927406	0.010947
 170	8.4500e-02	1.6876	-12.120611	0.000445	4.448032	0.753517	0.008895
 171	8.5000e-02	1.6959	-12.052191	0.000684	6.843127	1.159257	0.013684
 172	8.5500e-02	1.7055	-12.009001	0.000432	4.319724	0.731781	0.008638
 173	8.6000e-02	1.7151	-11.966666	0.000423	4.234185	0.717290	0.008467
 174	8.6500e-02	1.7258	-11.904232	0.000624	6.244353	1.057822	0.012487
 175	8.7000e-02	1.7368	-11.856338	0.000479	4.790189	0.811480	0.009579
 176	8.7500e-02	1.7456	-11.805023	0.000513	5.132345	0.869443	0.010263
 177	8.8000e-02	1.7536	-11.754564	0.000505	5.046806	0.854952	0.010092
 178	8.8500e-02	1.7679	-11.707097	0.000475	4.747419	0.804235	0.009493
 179	8.9000e-02	1.7761	-11.651933	0.000552	5.517271	0.934651	0.011033
 180	8.9500e-02	1.7842	-11.600618	0.000513	5.132345	0.869443	0.010263
 181	9.0000e-02	1.7937	-11.563843	0.000368	3.678181	0.623101	0.007355
 182	9.0500e-02	1.8063	-11.508679	0.000552	5.517271	0.934651	0.011033
 183	9.1000e-02	1.8167	-11.449239	0.000594	5.944966	1.007105	0.011888
 184	9.1500e-02	1.8250	-11.403056	0.000462	4.619111	0.782499	0.009237
 185	9.2000e-02	1.8376	-11.353451	0.000496	4.961267	0.840461	0.009921
 186	9.2500e-02	1.8457	-11.306840	0.000466	4.661880	0.789744	0.009322
 187	9.3000e-02	1.8549	-11.258091	0.000488	4.875728	0.825971	0.009750
 188	9.3500e-02	1.8661	-11.200789	0.000573	5.731119	0.970878	0.011460
 189	9.4000e-02	1.8758	-11.149474	0.000513	5.132345	0.869443	0.010263
 190	9.4500e-02	1.8861	-11.103290	0.000462	4.619111	0.782499	0.009237
 191	9.5000e-02	1.8945	-11.055396	0.000479	4.790189	0.811480	0.009579
 192	9.5500e-02	1.9043	-11.011778	0.000436	4.362493	0.739026	0.008724
 193	9.6000e-02	1.9168	-10.951483	0.000603	6.030506	1.021595	0.012059
 194	9.6500e-02	1.9235	-10.900596	0.000509	5.089576	0.862197	0.010177
 195	9.7000e-02	1.9357	-10.858689	0.000419	4.191415	0.710045	0.008381
 196	9.7500e-02	1.9462	-10.802242	0.000565	5.645580	0.956387	0.011289
 197	9.8000e-02	1.9529	-10.744085	0.000582	5.816658	0.985369	0.011631
 198	9.8500e-02	1.9664	-10.709020	0.000351	3.507103	0.594119	0.007013
 199	9.9000e-02	1.9763	-10.669251	0.000398	3.977568	0.673818	0.007954
 200	9.9500e-02	1.9839	-10.614087	0.000552	5.517271	0.934651	0.011033
 201	1.0000e-01	1.9955	-10.561489	0.000526	5.260654	0.891179	0.010520
 202	1.0050e-01	2.0067	-10.514450	0.000470	4.704650	0.796989	0.009408
 203	1.0100e-01	2.0146	-10.452017	0.000624	6.244353	1.057822	0.012487
 204	1.0150e-01	2.0273	-10.413531	0.000385	3.849259	0.652082	0.007697
 205	1.0200e-01	2.0350	-10.362643	0.000509	5.089576	0.862197	0.010177
 206	1.0250e-01	2.0459	-10.314749	0.000479	4.790189	0.811480	0.009579
 207	1.0300e-01	2.0551	-10.254454	0.000603	6.030506	1.021595	0.012059
 208	1.0350e-01	2.0652	-10.201429	0.000530	5.303423	0.898424	0.010605
 209	1.0400e-01	2.0755	-10.165080	0.000364	3.635411	0.615855	0.007270
 210	1.0450e-01	2.0836	-10.108206	0.000569	5.688349	0.963632	0.011375
 211	1.0500e-01	2.0955	-10.066299	0.000419	4.191415	0.710045	0.008381
 212	1.0550e-01	2.1068	-10.019260	0.000470	4.704650	0.796989	0.009408
 213	1.0600e-01	2.1173	-9.963241	0.000560	5.602810	0.949142	0.011204
 214	1.0650e-01	2.1259	-9.928176	0.000351	3.507103	0.594119	0.007013
 215	1.0700e-01	2.1375	-9.867026	0.000612	6.116045	1.036086	0.012230
 216	1.0750e-01	2.1460	-9.808869	0.000582	5.816658	0.985369	0.011631
 217	1.0800e-01	2.1554	-9.787060	0.000218	2.181247	0.369513	0.004362
 218	1.0850e-01	2.1651	-9.725909	0.000612	6.116045	1.036086	0.012230
 219	1.0900e-01	2.1754	-9.672884	0.000530	5.303423	0.898424	0.010605
 220	1.0950e-01	2.1867	-9.619003	0.000539	5.388962	0.912915	0.010776
 221	1.1000e-01	2.1967	-9.581372	0.000376	3.763720	0.637591	0.007526
 222	1.1050e-01	2.2061	-9.522787	0.000586	5.859427	0.992614	0.011717
 223	1.1100e-01	2.2162	-9.480452	0.000423	4.234185	0.717290	0.008467
 224	1.1150e-01	2.2229	-9.438545	0.000419	4.191415	0.710045	0.008381
 225	1.1200e-01	2.2360	-9.379105	0.000594	5.944966	1.007105	0.011888
 226	1.1250e-01	2.2465	-9.341046	0.000381	3.806489	0.644837	0.007612
 227	1.1300e-01	2.2534	-9.289304	0.000518	5.175115	0.876688	0.010349
 228	1.1350e-01	2.2657	-9.233713	0.000556	5.560041	0.941896	0.011118
 229	1.1400e-01	2.2760	-9.197364	0.000364	3.635411	0.615855	0.007270
 230	1.1450e-01	2.2867	-9.148615	0.000488	4.875728	0.825971	0.009750
 231	1.1500e-01	2.2966	-9.097300	0.000513	5.132345	0.869443	0.010263
 232	1.1550e-01	2.3050	-9.050689	0.000466	4.661880	0.789744	0.009322
 233	1.1600e-01	2.3176	-9.005361	0.000453	4.533572	0.768008	0.009066
 234	1.1650e-01	2.3270	-8.950625	0.000547	5.474502	0.927406	0.010947
 235	1.1700e-01	2.3336	-8.894606	0.000560	5.602810	0.949142	0.011204
 236	1.1750e-01	2.3438	-8.849705	0.000449	4.490802	0.760762	0.008980
 237	1.1800e-01	2.3550	-8.791120	0.000586	5.859427	0.992614	0.011717
 238	1.1850e-01	2.3647	-8.765463	0.000257	2.566173	0.434721	0.005132
 239	1.1900e-01	2.3767	-8.705168	0.000603	6.030506	1.021595	0.012059
 240	1.1950e-01	2.3888	-8.658984	0.000462	4.619111	0.782499	0.009237
 241	1.2000e-01	2.3949	-8.622636	0.000364	3.635411	0.615855	0.007270
 242	1.2050e-01	2.4039	-8.557637	0.000650	6.500971	1.101294	0.013000
 243	1.2100e-01	2.4173	-8.522144	0.000355	3.549872	0.601365	0.007099
 244	1.2150e-01	2.4281	-8.474678	0.000475	4.747419	0.804235	0.009493
 245	1.2200e-01	2.4350	-8.419942	0.000547	5.474502	0.927406	0.010947
 246	1.2250e-01	2.4469	-8.375896	0.000441	4.405263	0.746272	0.008809
 247	1.2300e-01	2.4567	-8.317739	0.000582	5.816658	0.985369	0.011631
 248	1.2350e-01	2.4638	-8.287378	0.000304	3.036638	0.514420	0.006072
 249	1.2400e-01	2.4762	-8.234780	0.000526	5.260654	0.891179	0.010520
 250	1.2450e-01	2.4852	-8.174485	0.000603	6.030506	1.021595	0.012059
 251	1.2500e-01	2.4989	-8.141130	0.000334	3.336024	0.565138	0.006671
 252	1.2550e-01	2.5070	-8.092381	0.000488	4.875728	0.825971	0.009750
 253	1.2600e-01	2.5159	-8.050473	0.000419	4.191415	0.710045	0.008381
 254	1.2650e-01	2.5290	-7.988468	0.000620	6.201584	1.050577	0.012401
 255	1.2700e-01	2.5342	-7.948699	0.000398	3.977568	0.673818	0.007954
 256	1.2750e-01	2.5459	-7.908502	0.000402	4.020337	0.681064	0.008039
 257	1.2800e-01	2.5565	-7.858470	0.000500	5.004037	0.847707	0.010006
 258	1.2850e-01	2.5638	-7.811431	0.000470	4.704650	0.796989	0.009408
 259	1.2900e-01	2.5726	-7.757122	0.000543	5.431732	0.920160	0.010862
 260	1.2950e-01	2.5862	-7.713932	0.000432	4.319724	0.731781	0.008638
 261	1.3000e-01	2.5970	-7.662617	0.000513	5.132345	0.869443	0.010263
 262	1.3050e-01	2.6050	-7.623276	0.000393	3.934798	0.666573	0.007868
 263	1.3100e-01	2.6148	-7.569395	0.000539	5.388962	0.912915	0.010776
 264	1.3150e-01	2.6297	-7.527488	0.000419	4.191415	0.710045	0.008381
 265	1.3200e-01	2.6340	-7.478738	0.000488	4.875728	0.825971	0.009750
 266	1.3250e-01	2.6450	-7.436831	0.000419	4.191415	0.710045	0.008381
 267	1.3300e-01	2.6566	-7.383806	0.000530	5.303423	0.898424	0.010605
 268	1.3350e-01	2.6660	-7.340615	0.000432	4.319724	0.731781	0.008638
 269	1.3400e-01	2.6783	-7.290156	0.000505	5.046806	0.854952	0.010092
 270	1.3450e-01	2.6869	-7.251669	0.000385	3.849259	0.652082	0.007697
 271	1.3500e-01	2.6974	-7.200354	0.000513	5.132345	0.869443	0.010263
 272	1.3550e-01	2.7037	-7.152033	0.000483	4.832958	0.818725	0.009664
 273	1.3600e-01	2.7153	-7.116112	0.000359	3.592642	0.608610	0.007184
 274	1.3650e-01	2.7258	-7.060093	0.000560	5.602810	0.949142	0.011204
 275	1.3700e-01	2.7370	-7.021607	0.000385	3.849259	0.652082	0.007697
 276	1.3750e-01	2.7466	-6.974568	0.000470	4.704650	0.796989	0.009408
 277	1.3800e-01	2.7544	-6.922398	0.000522	5.217884	0.883934	0.010434
 278	1.3850e-01	2.7641	-6.871938	0.000505	5.046806	0.854952	0.010092
 279	1.3900e-01	2.7755	-6.830886	0.000411	4.105876	0.695554	0.008210
 280	1.3950e-01	2.7836	-6.780426	0.000505	5.046806	0.854952	0.010092
 281	1.4000e-01	2.7956	-6.732532	0.000479	4.790189	0.811480	0.009579
 282	1.4050e-01	2.8078	-6.690197	0.000423	4.234185	0.717290	0.008467
 283	1.4100e-01	2.8149	-6.644442	0.000458	4.576341	0.775253	0.009151
 284	1.4150e-01	2.8256	-6.600396	0.000441	4.405263	0.746272	0.008809
 285	1.4200e-01	2.8366	-6.541811	0.000586	5.859427	0.992614	0.011717
 286	1.4250e-01	2.8448	-6.510595	0.000312	3.122177	0.528911	0.006243
 287	1.4300e-01	2.8567	-6.452438	0.000582	5.816658	0.985369	0.011631
 288	1.4350e-01	2.8691	-6.418228	0.000342	3.421563	0.579629	0.006842
 289	1.4400e-01	2.8754	-6.367340	0.000509	5.089576	0.862197	0.010177
 290	1.4450e-01	2.8873	-6.325861	0.000415	4.148646	0.702800	0.008296
 291	1.4500e-01	2.8952	-6.274546	0.000513	5.132345	0.869443	0.010263
 292	1.4550e-01	2.9039	-6.234349	0.000402	4.020337	0.681064	0.008039
 293	1.4600e-01	2.9166	-6.182606	0.000518	5.175115	0.876688	0.010349
 294	1.4650e-01	2.9251	-6.146258	0.000364	3.635411	0.615855	0.007270
 295	1.4700e-01	2.9385	-6.096226	0.000500	5.004037	0.847707	0.010006
 296	1.4750e-01	2.9465	-6.053891	0.000423	4.234185	0.717290	0.008467
 297	1.4800e-01	2.9553	-6.002576	0.000513	5.132345	0.869443	0.010263
 298	1.4850e-01	2.9660	-5.955537	0.000470	4.704650	0.796989	0.009408
 299	1.4900e-01	2.9768	-5.910209	0.000453	4.533572	0.768008	0.009066
 300	1.4950e-01	2.9871	-5.870012	0.000402	4.020337	0.681064	0.008039
 301	1.5000e-01	2.9964	-5.822546	0.000475	4.747419	0.804235	0.009493
 302	1.5050e-01	3.0048	-5.779783	0.000428	4.276954	0.724536	0.008553
 303	1.5100e-01	3.0142	-5.737876	0.000419	4.191415	0.710045	0.008381
 304	1.5150e-01	3.0257	-5.692548	0.000453	4.533572	0.768008	0.009066
 305	1.5200e-01	3.0344	-5.639094	0.000535	5.346193	0.905670	0.010691
 306	1.5250e-01	3.0463	-5.591200	0.000479	4.790189	0.811480	0.009579
 307	1.5300e-01	3.0569	-5.559129	0.000321	3.207716	0.543402	0.006414
 308	1.5350e-01	3.0646	-5.505248	0.000539	5.388962	0.912915	0.010776
 309	1.5400e-01	3.0774	-5.460347	0.000449	4.490802	0.760762	0.008980
 310	1.5450e-01	3.0853	-5.414591	0.000458	4.576341	0.775253	0.009151
 311	1.5500e-01	3.0975	-5.374394	0.000402	4.020337	0.681064	0.008039
 312	1.5550e-01	3.1071	-5.323935	0.000505	5.046806	0.854952	0.010092
 313	1.5600e-01	3.1148	-5.273475	0.000505	5.046806	0.854952	0.010092
 314	1.5650e-01	3.1232	-5.230712	0.000428	4.276954	0.724536	0.008553
 315	1.5700e-01	3.1367	-5.192226	0.000385	3.849259	0.652082	0.007697
 316	1.5750e-01	3.1454	-5.132786	0.000594	5.944966	1.007105	0.011888
 317	1.5800e-01	3.1564	-5.112688	0.000201	2.010169	0.340532	0.004020
 318	1.5850e-01	3.1653	-5.059662	0.000530	5.303423	0.898424	0.010605
 319	1.5900e-01	3.1757	-5.012196	0.000475	4.747419	0.804235	0.009493
 320	1.5950e-01	3.1851	-4.968150	0.000441	4.405263	0.746272	0.008809
 321	1.6000e-01	3.1976	-4.928809	0.000393	3.934798	0.666573	0.007868
 322	1.6050e-01	3.2083	-4.882625	0.000462	4.619111	0.782499	0.009237
 323	1.6100e-01	3.2175	-4.826179	0.000565	5.645580	0.956387	0.011289
 324	1.6150e-01	3.2277	-4.790258	0.000359	3.592642	0.608610	0.007184
 325	1.6200e-01	3.2382	-4.747068	0.000432	4.319724	0.731781	0.008638
 326	1.6250e-01	3.2439	-4.700885	0.000462	4.619111	0.782499	0.009237
 327	1.6300e-01	3.2535	-4.652563	0.000483	4.832958	0.818725	0.009664
 328	1.6350e-01	3.2672	-4.610228	0.000423	4.234185	0.717290	0.008467
 329	1.6400e-01	3.2776	-4.589274	0.000210	2.095708	0.355022	0.004191
 330	1.6450e-01	3.2870	-4.517861	0.000714	7.142514	1.209975	0.014283
 331	1.6500e-01	3.2936	-4.479375	0.000385	3.849259	0.652082	0.007697
 332	1.6550e-01	3.3088	-4.441744	0.000376	3.763720	0.637591	0.007526
 333	1.6600e-01	3.3143	-4.380166	0.000616	6.158814	1.043331	0.012316
 334	1.6650e-01	3.3270	-4.355791	0.000244	2.437864	0.412985	0.004875
 335	1.6700e-01	3.3353	-4.292930	0.000629	6.287123	1.065067	0.012572
 336	1.6750e-01	3.3444	-4.260858	0.000321	3.207716	0.543402	0.006414
 337	1.6800e-01	3.3539	-4.214675	0.000462	4.619111	0.782499	0.009237
 338	1.6850e-01	3.3649	-4.175761	0.000389	3.892028	0.659327	0.007783
 339	1.6900e-01	3.3771	-4.114183	0.000616	6.158814	1.043331	0.012316
 340	1.6950e-01	3.3856	-4.075269	0.000389	3.892028	0.659327	0.007783
 341	1.7000e-01	3.3966	-4.049611	0.000257	2.566173	0.434721	0.005132
 342	1.7050e-01	3.4058	-3.994875	0.000547	5.474502	0.927406	0.010947
 343	1.7100e-01	3.4138	-3.946981	0.000479	4.790189	0.811480	0.009579
 344	1.7150e-01	3.4229	-3.901225	0.000458	4.576341	0.775253	0.009151
 345	1.7200e-01	3.4366	-3.863167	0.000381	3.806489	0.644837	0.007612
 346	1.7250e-01	3.4470	-3.828101	0.000351	3.507103	0.594119	0.007013
 347	1.7300e-01	3.4559	-3.769089	0.000590	5.902197	0.999859	0.011802
 348	1.7350e-01	3.4686	-3.737873	0.000312	3.122177	0.528911	0.006243
 349	1.7400e-01	3.4775	-3.699386	0.000385	3.849259	0.652082	0.007697
 350	1.7450e-01	3.4866	-3.651065	0.000483	4.832958	0.818725	0.009664
 351	1.7500e-01	3.4952	-3.603598	0.000475	4.747419	0.804235	0.009493
 352	1.7550e-01	3.5052	-3.558270	0.000453	4.533572	0.768008	0.009066
 353	1.7600e-01	3.5156	-3.518501	0.000398	3.977568	0.673818	0.007954
 354	1.7650e-01	3.5277	-3.469751	0.000488	4.875728	0.825971	0.009750
 355	1.7700e-01	3.5364	-3.430410	0.000393	3.934798	0.666573	0.007868
 356	1.7750e-01	3.5474	-3.385937	0.000445	4.448032	0.753517	0.008895
 357	1.7800e-01	3.5559	-3.335477	0.000505	5.046806	0.854952	0.010092
 358	1.7850e-01	3.5638	-3.305543	0.000299	2.993868	0.507175	0.005987
 359	1.7900e-01	3.5773	-3.257649	0.000479	4.790189	0.811480	0.009579
 360	1.7950e-01	3.5881	-3.215314	0.000423	4.234185	0.717290	0.008467
 361	1.8000e-01	3.5982	-3.176828	0.000385	3.849259	0.652082	0.007697
 362	1.8050e-01	3.6066	-3.122092	0.000547	5.474502	0.927406	0.010947
 363	1.8100e-01	3.6166	-3.077619	0.000445	4.448032	0.753517	0.008895
 364	1.8150e-01	3.6272	-3.035284	0.000423	4.234185	0.717290	0.008467
 365	1.8200e-01	3.6331	-2.994232	0.000411	4.105876	0.695554	0.008210
 366	1.8250e-01	3.6469	-2.955746	0.000385	3.849259	0.652082	0.007697
 367	1.8300e-01	3.6566	-2.915121	0.000406	4.063107	0.688309	0.008125
 368	1.8350e-01	3.6660	-2.865517	0.000496	4.961267	0.840461	0.009921
 369	1.8400e-01	3.6765	-2.832590	0.000329	3.293255	0.557892	0.006585
 370	1.8450e-01	3.6853	-2.781275	0.000513	5.132345	0.869443	0.010263
 371	1.8500e-01	3.6943	-2.732953	0.000483	4.832958	0.818725	0.009664
 372	1.8550e-01	3.7045	-2.692756	0.000402	4.020337	0.681064	0.008039
 373	1.8600e-01	3.7122	-2.646573	0.000462	4.619111	0.782499	0.009237
 374	1.8650e-01	3.7260	-2.605521	0.000411	4.105876	0.695554	0.008210
 375	1.8700e-01	3.7360	-2.573449	0.000321	3.207716	0.543402	0.006414
 376	1.8750e-01	3.7469	-2.524700	0.000488	4.875728	0.825971	0.009750
 377	1.8800e-01	3.7567	-2.484930	0.000398	3.977568	0.673818	0.007954
 378	1.8850e-01	3.7671	-2.440885	0.000441	4.405263	0.746272	0.008809
 379	1.8900e-01	3.7757	-2.399405	0.000415	4.148646	0.702800	0.008296
 380	1.8950e-01	3.7869	-2.357071	0.000423	4.234185	0.717290	0.008467
 381	1.9000e-01	3.7976	-2.316446	0.000406	4.063107	0.688309	0.008125
 382	1.9050e-01	3.8074	-2.276677	0.000398	3.977568	0.673818	0.007954
 383	1.9100e-01	3.8148	-2.240329	0.000364	3.635411	0.615855	0.007270
 384	1.9150e-01	3.8257	-2.181317	0.000590	5.902197	0.999859	0.011802
 385	1.9200e-01	3.8348	-2.150528	0.000308	3.079407	0.521666	0.006158
 386	1.9250e-01	3.8483	-2.102206	0.000483	4.832958	0.818725	0.009664
 387	1.9300e-01	3.8577	-2.061154	0.000411	4.105876	0.695554	0.008210
 388	1.9350e-01	3.8657	-2.019674	0.000415	4.148646	0.702800	0.008296
 389	1.9400e-01	3.8762	-1.976056	0.000436	4.362493	0.739026	0.008724
 390	1.9450e-01	3.8852	-1.927307	0.000488	4.875728	0.825971	0.009750
 391	1.9500e-01	3.8953	-1.878130	0.000492	4.918497	0.833216	0.009835
 392	1.9550e-01	3.9059	-1.853328	0.000248	2.480633	0.420231	0.004960
 393	1.9600e-01	3.9146	-1.800730	0.000526	5.260654	0.891179	0.010520
 394	1.9650e-01	3.9272	-1.770369	0.000304	3.036638	0.514420	0.006072
 395	1.9700e-01	3.9354	-1.724185	0.000462	4.619111	0.782499	0.009237
 396	1.9750e-01	3.9447	-1.672442	0.000518	5.175115	0.876688	0.010349
 397	1.9800e-01	3.9575	-1.642936	0.000295	2.951098	0.499930	0.005901
 398	1.9850e-01	3.9667	-1.590338	0.000526	5.260654	0.891179	0.010520
 399	1.9900e-01	3.9746	-1.551424	0.000389	3.892028	0.659327	0.007783
 400	1.9950e-01	3.9871	-1.509517	0.000419	4.191415	0.710045	0.008381
 401	2.0000e-01	3.9948	-1.480011	0.000295	2.951098	0.499930	0.005901
 402	2.0050e-01	4.0070	-1.439387	0.000406	4.063107	0.688309	0.008125
 403	2.0100e-01	4.0161	-1.380374	0.000590	5.902197	0.999859	0.011802
 404	2.0150e-01	4.0262	-1.349158	0.000312	3.122177	0.528911	0.006243
 405	2.0200e-01	4.0363	-1.300836	0.000483	4.832958	0.818725	0.009664
 406	2.0250e-01	4.0438	-1.261067	0.000398	3.977568	0.673818	0.007954
 407	2.0300e-01	4.0552	-1.224291	0.000368	3.678181	0.623101	0.007355
 408	2.0350e-01	4.0662	-1.187943	0.000364	3.635411	0.615855	0.007270
 409	2.0400e-01	4.0726	-1.130641	0.000573	5.731119	0.970878	0.011460
 410	2.0450e-01	4.0865	-1.102846	0.000278	2.780020	0.470948	0.005559
 411	2.0500e-01	4.0959	-1.061794	0.000411	4.105876	0.695554	0.008210
 412	2.0550e-01	4.1068	-1.010479	0.000513	5.132345	0.869443	0.010263
 413	2.0600e-01	4.1159	-0.971992	0.000385	3.849259	0.652082	0.007697
 414	2.0650e-01	4.1267	-0.935644	0.000364	3.635411	0.615855	0.007270
 415	2.0700e-01	4.1364	-0.888178	0.000475	4.747419	0.804235	0.009493
 416	2.0750e-01	4.1444	-0.849264	0.000389	3.892028	0.659327	0.007783
 417	2.0800e-01	4.1586	-0.806929	0.000423	4.234185	0.717290	0.008467
 418	2.0850e-01	4.1675	-0.759035	0.000479	4.790189	0.811480	0.009579
 419	2.0900e-01	4.1754	-0.733377	0.000257	2.566173	0.434721	0.005132
 420	2.0950e-01	4.1840	-0.674793	0.000586	5.859427	0.992614	0.011717
 421	2.1000e-01	4.1980	-0.644431	0.000304	3.036638	0.514420	0.006072
 422	2.1050e-01	4.2056	-0.598675	0.000458	4.576341	0.775253	0.009151
 423	2.1100e-01	4.2143	-0.550354	0.000483	4.832958	0.818725	0.009664
 424	2.1150e-01	4.2270	-0.533249	0.000171	1.710782	0.289814	0.003421
 425	2.1200e-01	4.2377	-0.476802	0.000565	5.645580	0.956387	0.011289
 426	2.1250e-01	4.2511	-0.442165	0.000346	3.464333	0.586874	0.006928
 427	2.1300e-01	4.2569	-0.399402	0.000428	4.276954	0.724536	0.008553
 428	2.1350e-01	4.2652	-0.341673	0.000577	5.773888	0.978123	0.011546
 429	2.1400e-01	4.2769	-0.318581	0.000231	2.309555	0.391249	0.004618
 430	2.1450e-01	4.2835	-0.271114	0.000475	4.747419	0.804235	0.009493
 431	2.1500e-01	4.2970	-0.224076	0.000470	4.704650	0.796989	0.009408
 432	2.1550e-01	4.3056	-0.189438	0.000346	3.464333	0.586874	0.006928
 433	2.1600e-01	4.3164	-0.152235	0.000372	3.720950	0.630346	0.007441
 434	2.1650e-01	4.3279	-0.109044	0.000432	4.319724	0.731781	0.008638
 435	2.1700e-01	4.3378	-0.061150	0.000479	4.790189	0.811480	0.009579
 436	2.1750e-01	4.3446	-0.036776	0.000244	2.437864	0.412985	0.004875
 437	2.1800e-01	4.3576	0.016677	0.000535	5.346193	0.905670	0.010691
 438	2.1850e-01	4.3661	0.050887	0.000342	3.421563	0.579629	0.006842
 439	2.1900e-01	4.3723	0.085525	0.000346	3.464333	0.586874	0.006928
 440	2.1950e-01	4.3874	0.143254	0.000577	5.773888	0.978123	0.011546
 441	2.2000e-01	4.3964	0.174043	0.000308	3.079407	0.521666	0.006158
 442	2.2050e-01	4.4067	0.221938	0.000479	4.790189	0.811480	0.009579
 443	2.2100e-01	4.4165	0.248023	0.000261	2.608942	0.441967	0.005217
 444	2.2150e-01	4.4235	0.302331	0.000543	5.431732	0.920160	0.010862
 445	2.2200e-01	4.4379	0.340390	0.000381	3.806489	0.644837	0.007612
 446	2.2250e-01	4.4470	0.363054	0.000227	2.266786	0.384004	0.004533
 447	2.2300e-01	4.4571	0.421639	0.000586	5.859427	0.992614	0.011717
 448	2.2350e-01	4.4649	0.462263	0.000406	4.063107	0.688309	0.008125
 449	2.2400e-01	4.4763	0.499039	0.000368	3.678181	0.623101	0.007355
 450	2.2450e-01	4.4849	0.544795	0.000458	4.576341	0.775253	0.009151
 451	2.2500e-01	4.4965	0.572163	0.000274	2.737251	0.463703	0.005474
 452	2.2550e-01	4.5070	0.625188	0.000530	5.303423	0.898424	0.010605
 453	2.2600e-01	4.5190	0.662819	0.000376	3.763720	0.637591	0.007526
 454	2.2650e-01	4.5258	0.700023	0.000372	3.720950	0.630346	0.007441
 455	2.2700e-01	4.5383	0.735515	0.000355	3.549872	0.601365	0.007099
 456	2.2750e-01	4.5444	0.787258	0.000518	5.175115	0.876688	0.010349
 457	2.2800e-01	4.5576	0.822751	0.000355	3.549872	0.601365	0.007099
 458	2.2850e-01	4.5676	0.855251	0.000325	3.250485	0.550647	0.006500
 459	2.2900e-01	4.5778	0.903145	0.000479	4.790189	0.811480	0.009579
 460	2.2950e-01	4.5868	0.942914	0.000398	3.977568	0.673818	0.007954
 461	2.3000e-01	4.5967	0.967288	0.000244	2.437864	0.412985	0.004875
 462	2.3050e-01	4.6065	1.019459	0.000522	5.217884	0.883934	0.010434
 463	2.3100e-01	4.6186	1.055379	0.000359	3.592642	0.608610	0.007184
 464	2.3150e-01	4.6259	1.099852	0.000445	4.448032	0.753517	0.008895
 465	2.3200e-01	4.6371	1.131496	0.000316	3.164946	0.536156	0.006329
 466	2.3250e-01	4.6466	1.177252	0.000458	4.576341	0.775253	0.009151
 467	2.3300e-01	4.6588	1.216594	0.000393	3.934798	0.666573	0.007868
 468	2.3350e-01	4.6652	1.254225	0.000376	3.763720	0.637591	0.007526
 469	2.3400e-01	4.6779	1.296987	0.000428	4.276954	0.724536	0.008553
 470	2.3450e-01	4.6864	1.333336	0.000364	3.635411	0.615855	0.007270
 471	2.3500e-01	4.6945	1.370967	0.000376	3.763720	0.637591	0.007526
 472	2.3550e-01	4.7055	1.406887	0.000359	3.592642	0.608610	0.007184
 473	2.3600e-01	4.7162	1.449650	0.000428	4.276954	0.724536	0.008553
 474	2.3650e-01	4.7244	1.494550	0.000449	4.490802	0.760762	0.008980
 475	2.3700e-01	4.7351	1.531754	0.000372	3.720950	0.630346	0.007441
 476	2.3750e-01	4.7452	1.581786	0.000500	5.004037	0.847707	0.010006
 477	2.3800e-01	4.7586	1.612575	0.000308	3.079407	0.521666	0.006158
 478	2.3850e-01	4.7653	1.645930	0.000334	3.336024	0.565138	0.006671
 479	2.3900e-01	4.7752	1.686982	0.000411	4.105876	0.695554	0.008210
 480	2.3950e-01	4.7864	1.717343	0.000304	3.036638	0.514420	0.006072
 481	2.4000e-01	4.7986	1.776355	0.000590	5.902197	0.999859	0.011802
 482	2.4050e-01	4.8080	1.800730	0.000244	2.437864	0.412985	0.004875
 483	2.4100e-01	4.8195	1.842210	0.000415	4.148646	0.702800	0.008296
 484	2.4150e-01	4.8276	1.884117	0.000419	4.191415	0.710045	0.008381
 485	2.4200e-01	4.8358	1.926452	0.000423	4.234185	0.717290	0.008467
 486	2.4250e-01	4.8486	1.963228	0.000368	3.678181	0.623101	0.007355
 487	2.4300e-01	4.8550	2.004707	0.000415	4.148646	0.702800	0.008296
 488	2.4350e-01	4.8672	2.040200	0.000355	3.549872	0.601365	0.007099
 489	2.4400e-01	4.8744	2.080397	0.000402	4.020337	0.681064	0.008039
 490	2.4450e-01	4.8871	2.125298	0.000449	4.490802	0.760762	0.008980
 491	2.4500e-01	4.8987	2.172336	0.000470	4.704650	0.796989	0.009408
 492	2.4550e-01	4.9054	2.198849	0.000265	2.651712	0.449212	0.005303
 493	2.4600e-01	4.9139	2.245888	0.000470	4.704650	0.796989	0.009408
 494	2.4650e-01	4.9265	2.278815	0.000329	3.293255	0.557892	0.006585
 495	2.4700e-01	4.9329	2.319867	0.000411	4.105876	0.695554	0.008210
 496	2.4750e-01	4.9484	2.348090	0.000282	2.822790	0.478194	0.005645
 497	2.4800e-01	4.9579	2.389570	0.000415	4.148646	0.702800	0.008296
 498	2.4850e-01	4.9665	2.440885	0.000513	5.132345	0.869443	0.010263
 499	2.4900e-01	4.9762	2.469536	0.000287	2.865559	0.485439	0.005730
 500	2.4950e-01	4.9866	2.510588	0.000411	4.105876	0.695554	0.008210
 501	2.5000e-01	4.9971	2.546509	0.000359	3.592642	0.608610	0.007184
 502	2.5050e-01	5.0043	2.573021	0.000265	2.651712	0.449212	0.005303
 503	2.5100e-01	5.0165	2.633744	0.000607	6.073275	1.028841	0.012145
 504	2.5150e-01	5.0281	2.666671	0.000329	3.293255	0.557892	0.006585
 505	2.5200e-01	5.0378	2.696177	0.000295	2.951098	0.499930	0.005901
 506	2.5250e-01	5.0494	2.747065	0.000509	5.089576	0.862197	0.010177
 507	2.5300e-01	5.0533	2.772722	0.000257	2.566173	0.434721	0.005132
 508	2.5350e-01	5.0677	2.822754	0.000500	5.004037	0.847707	0.010006
 509	2.5400e-01	5.0769	2.840715	0.000180	1.796321	0.304305	0.003592
 510	2.5450e-01	5.0861	2.893740	0.000530	5.303423	0.898424	0.010605
 511	2.5500e-01	5.0952	2.936503	0.000428	4.276954	0.724536	0.008553
 512	2.5550e-01	5.1074	2.971996	0.000355	3.549872	0.601365	0.007099
 513	2.5600e-01	5.1192	3.007916	0.000359	3.592642	0.608610	0.007184
 514	2.5650e-01	5.1273	3.041699	0.000338	3.378794	0.572383	0.006756
 515	2.5700e-01	5.1392	3.082323	0.000406	4.063107	0.688309	0.008125
 516	2.5750e-01	5.1454	3.116533	0.000342	3.421563	0.579629	0.006842
 517	2.5800e-01	5.1578	3.154164	0.000376	3.763720	0.637591	0.007526
 518	2.5850e-01	5.1666	3.195644	0.000415	4.148646	0.702800	0.008296
 519	2.5900e-01	5.1759	3.232847	0.000372	3.720950	0.630346	0.007441
 520	2.5950e-01	5.1837	3.286728	0.000539	5.388962	0.912915	0.010776
 521	2.6000e-01	5.1965	3.309820	0.000231	2.309555	0.391249	0.004618
 522	2.6050e-01	5.2082	3.329063	0.000192	1.924629	0.326041	0.003849
 523	2.6100e-01	5.2161	3.382516	0.000535	5.346193	0.905670	0.010691
 524	2.6150e-01	5.2271	3.415871	0.000334	3.336024	0.565138	0.006671
 525	2.6200e-01	5.2351	3.463765	0.000479	4.790189	0.811480	0.009579
 526	2.6250e-01	5.2478	3.499685	0.000359	3.592642	0.608610	0.007184
 527	2.6300e-01	5.2576	3.545441	0.000458	4.576341	0.775253	0.009151
 528	2.6350e-01	5.2637	3.580934	0.000355	3.549872	0.601365	0.007099
 529	2.6400e-01	5.2762	3.616427	0.000355	3.549872	0.601365	0.007099
 530	2.6450e-01	5.2882	3.657479	0.000411	4.105876	0.695554	0.008210
 531	2.6500e-01	5.2939	3.707939	0.000505	5.046806	0.854952	0.010092
 532	2.6550e-01	5.3055	3.725044	0.000171	1.710782	0.289814	0.003421
 533	2.6600e-01	5.3180	3.765241	0.000402	4.020337	0.681064	0.008039
 534	2.6650e-01	5.3265	3.801589	0.000364	3.635411	0.615855	0.007270
 535	2.6700e-01	5.3357	3.850338	0.000488	4.875728	0.825971	0.009750
 536	2.6750e-01	5.3465	3.881982	0.000316	3.164946	0.536156	0.006329
 537	2.6800e-01	5.3590	3.924745	0.000428	4.276954	0.724536	0.008553
 538	2.6850e-01	5.3665	3.954251	0.000295	2.951098	0.499930	0.005901
 539	2.6900e-01	5.3775	3.990599	0.000364	3.635411	0.615855	0.007270
 540	2.6950e-01	5.3860	4.038065	0.000475	4.747419	0.804235	0.009493
 541	2.7000e-01	5.3967	4.070565	0.000325	3.250485	0.550647	0.006500
 542	2.7050e-01	5.4044	4.104775	0.000342	3.421563	0.579629	0.006842
 543	2.7100e-01	5.4175	4.134709	0.000299	2.993868	0.507175	0.005987
 544	2.7150e-01	5.4260	4.189017	0.000543	5.431732	0.920160	0.010862
 545	2.7200e-01	5.4364	4.216813	0.000278	2.780020	0.470948	0.005559
 546	2.7250e-01	5.4437	4.254016	0.000372	3.720950	0.630346	0.007441
 547	2.7300e-01	5.4565	4.299772	0.000458	4.576341	0.775253	0.009151
 548	2.7350e-01	5.4691	4.324147	0.000244	2.437864	0.412985	0.004875
 549	2.7400e-01	5.4730	4.380166	0.000560	5.602810	0.949142	0.011204
 550	2.7450e-01	5.4880	4.410527	0.000304	3.036638	0.514420	0.006072
 551	2.7500e-01	5.4968	4.432336	0.000218	2.181247	0.369513	0.004362
 552	2.7550e-01	5.5060	4.484506	0.000522	5.217884	0.883934	0.010434
 553	2.7600e-01	5.5173	4.511019	0.000265	2.651712	0.449212	0.005303
 554	2.7650e-01	5.5267	4.559768	0.000488	4.875728	0.825971	0.009750
 555	2.7700e-01	5.5371	4.594406	0.000346	3.464333	0.586874	0.006928
 556	2.7750e-01	5.5469	4.626050	0.000316	3.164946	0.536156	0.006329
 557	2.7800e-01	5.5566	4.671379	0.000453	4.533572	0.768008	0.009066
 558	2.7850e-01	5.5640	4.705589	0.000342	3.421563	0.579629	0.006842
 559	2.7900e-01	5.5804	4.731674	0.000261	2.608942	0.441967	0.005217
 560	2.7950e-01	5.5853	4.776574	0.000449	4.490802	0.760762	0.008980
 561	2.8000e-01	5.5957	4.811212	0.000346	3.464333	0.586874	0.006928
 562	2.8050e-01	5.6070	4.865093	0.000539	5.388962	0.912915	0.010776
 563	2.8100e-01	5.6186	4.886046	0.000210	2.095708	0.355022	0.004191
 564	2.8150e-01	5.6281	4.935651	0.000496	4.961267	0.840461	0.009921
 565	2.8200e-01	5.6378	4.964302	0.000287	2.865559	0.485439	0.005730
 566	2.8250e-01	5.6470	4.998512	0.000342	3.421563	0.579629	0.006842
 567	2.8300e-01	5.6537	5.036570	0.000381	3.806489	0.644837	0.007612
 568	2.8350e-01	5.6653	5.076767	0.000402	4.020337	0.681064	0.008039
 569	2.8400e-01	5.6769	5.112260	0.000355	3.549872	0.601365	0.007099
 570	2.8450e-01	5.6850	5.149891	0.000376	3.763720	0.637591	0.007526
 571	2.8500e-01	5.6937	5.185384	0.000355	3.549872	0.601365	0.007099
 572	2.8550e-01	5.7043	5.224298	0.000389	3.892028	0.659327	0.007783
 573	2.8600e-01	5.7141	5.262357	0.000381	3.806489	0.644837	0.007612
 574	2.8650e-01	5.7237	5.310251	0.000479	4.790189	0.811480	0.009579
 575	2.8700e-01	5.7373	5.330349	0.000201	2.010169	0.340532	0.004020
 576	2.8750e-01	5.7462	5.370973	0.000406	4.063107	0.688309	0.008125
 577	2.8800e-01	5.7593	5.397059	0.000261	2.608942	0.441967	0.005217
 578	2.8850e-01	5.7660	5.439393	0.000423	4.234185	0.717290	0.008467
 579	2.8900e-01	5.7764	5.480018	0.000406	4.063107	0.688309	0.008125
 580	2.8950e-01	5.7874	5.515938	0.000359	3.592642	0.608610	0.007184
 581	2.9000e-01	5.7959	5.561694	0.000458	4.576341	0.775253	0.009151
 582	2.9050e-01	5.8051	5.589490	0.000278	2.780020	0.470948	0.005559
 583	2.9100e-01	5.8148	5.624555	0.000351	3.507103	0.594119	0.007013
 584	2.9150e-01	5.8246	5.659193	0.000346	3.464333	0.586874	0.006928
 585	2.9200e-01	5.8380	5.697252	0.000381	3.806489	0.644837	0.007612
 586	2.9250e-01	5.8472	5.739159	0.000419	4.191415	0.710045	0.008381
 587	2.9300e-01	5.8566	5.770375	0.000312	3.122177	0.528911	0.006243
 588	2.9350e-01	5.8661	5.820408	0.000500	5.004037	0.847707	0.010006
 589	2.9400e-01	5.8774	5.850769	0.000304	3.036638	0.514420	0.006072
 590	2.9450e-01	5.8862	5.888828	0.000381	3.806489	0.644837	0.007612
 591	2.9500e-01	5.8966	5.914485	0.000257	2.566173	0.434721	0.005132
 592	2.9550e-01	5.9045	5.956820	0.000423	4.234185	0.717290	0.008467
 593	2.9600e-01	5.9143	6.003859	0.000470	4.704650	0.796989	0.009408
 594	2.9650e-01	5.9254	6.026523	0.000227	2.266786	0.384004	0.004533
 595	2.9700e-01	5.9357	6.065009	0.000385	3.849259	0.652082	0.007697
 596	2.9750e-01	5.9479	6.109055	0.000441	4.405263	0.746272	0.008809
 597	2.9800e-01	5.9541	6.148396	0.000393	3.934798	0.666573	0.007868
 598	2.9850e-01	5.9686	6.173198	0.000248	2.480633	0.420231	0.004960
 599	2.9900e-01	5.9796	6.200139	0.000269	2.694481	0.456457	0.005388
 600	2.9950e-01	5.9859	6.239053	0.000389	3.892028	0.659327	0.007783
 601	3.0000e-01	5.9979	6.288230	0.000492	4.918497	0.833216	0.009835
 602	3.0050e-01	6.0071	6.322012	0.000338	3.378794	0.572383	0.006756
 603	3.0100e-01	6.0193	6.359643	0.000376	3.763720	0.637591	0.007526
 604	3.0150e-01	6.0266	6.387866	0.000282	2.822790	0.478194	0.005645
 605	3.0200e-01	6.0358	6.418228	0.000304	3.036638	0.514420	0.006072
 606	3.0250e-01	6.0477	6.469970	0.000518	5.175115	0.876688	0.010349
 607	3.0300e-01	6.0587	6.493490	0.000235	2.352325	0.398495	0.004704
 608	3.0350e-01	6.0657	6.532831	0.000393	3.934798	0.666573	0.007868
 609	3.0400e-01	6.0760	6.580725	0.000479	4.790189	0.811480	0.009579
 610	3.0450e-01	6.0852	6.619639	0.000389	3.892028	0.659327	0.007783
 611	3.0500e-01	6.0974	6.636317	0.000167	1.668012	0.282569	0.003335
 612	3.0550e-01	6.1081	6.673948	0.000376	3.763720	0.637591	0.007526
 613	3.0600e-01	6.1171	6.721414	0.000475	4.747419	0.804235	0.009493
 614	3.0650e-01	6.1261	6.744933	0.000235	2.352325	0.398495	0.004704
 615	3.0700e-01	6.1365	6.787268	0.000423	4.234185	0.717290	0.008467
 616	3.0750e-01	6.1456	6.827465	0.000402	4.020337	0.681064	0.008039
 617	3.0800e-01	6.1542	6.866807	0.000393	3.934798	0.666573	0.007868
 618	3.0850e-01	6.1690	6.898023	0.000312	3.122177	0.528911	0.006243
 619	3.0900e-01	6.1777	6.918122	0.000201	2.010169	0.340532	0.004020
 620	3.0950e-01	6.1865	6.965588	0.000475	4.747419	0.804235	0.009493
 621	3.1000e-01	6.1975	7.008351	0.000428	4.276954	0.724536	0.008553
 622	3.1050e-01	6.2067	7.046409	0.000381	3.806489	0.644837	0.007612
 623	3.1100e-01	6.2170	7.082330	0.000359	3.592642	0.608610	0.007184
 624	3.1150e-01	6.2282	7.109270	0.000269	2.694481	0.456457	0.005388
 625	3.1200e-01	6.2367	7.138776	0.000295	2.951098	0.499930	0.005901
 626	3.1250e-01	6.2469	7.181111	0.000423	4.234185	0.717290	0.008467
 627	3.1300e-01	6.2569	7.209335	0.000282	2.822790	0.478194	0.005645
 628	3.1350e-01	6.2668	7.255090	0.000458	4.576341	0.775253	0.009151
 629	3.1400e-01	6.2805	7.283314	0.000282	2.822790	0.478194	0.005645
 630	3.1450e-01	6.2872	7.321372	0.000381	3.806489	0.644837	0.007612
 631	3.1500e-01	6.2973	7.365845	0.000445	4.448032	0.753517	0.008895
 632	3.1550e-01	6.3074	7.398773	0.000329	3.293255	0.557892	0.006585
 633	3.1600e-01	6.3135	7.426141	0.000274	2.737251	0.463703	0.005474
 634	3.1650e-01	6.3269	7.461206	0.000351	3.507103	0.594119	0.007013
 635	3.1700e-01	6.3370	7.500975	0.000398	3.977568	0.673818	0.007954
 636	3.1750e-01	6.3458	7.527060	0.000261	2.608942	0.441967	0.005217
 637	3.1800e-01	6.3574	7.575382	0.000483	4.832958	0.818725	0.009664
 638	3.1850e-01	6.3654	7.606598	0.000312	3.122177	0.528911	0.006243
 639	3.1900e-01	6.3776	7.647223	0.000406	4.063107	0.688309	0.008125
 640	3.1950e-01	6.3867	7.675446	0.000282	2.822790	0.478194	0.005645
 641	3.2000e-01	6.3971	7.716070	0.000406	4.063107	0.688309	0.008125
 642	3.2050e-01	6.4050	7.755840	0.000398	3.977568	0.673818	0.007954
 643	3.2100e-01	6.4178	7.774655	0.000188	1.881860	0.318796	0.003763
 644	3.2150e-01	6.4264	7.820839	0.000462	4.619111	0.782499	0.009237
 645	3.2200e-01	6.4362	7.866595	0.000458	4.576341	0.775253	0.009151
 646	3.2250e-01	6.4484	7.895673	0.000291	2.908329	0.492684	0.005816
 647	3.2300e-01	6.4581	7.923469	0.000278	2.780020	0.470948	0.005559
 648	3.2350e-01	6.4670	7.958534	0.000351	3.507103	0.594119	0.007013
 649	3.2400e-01	6.4758	7.990606	0.000321	3.207716	0.543402	0.006414
 650	3.2450e-01	6.4874	8.024388	0.000338	3.378794	0.572383	0.006756
 651	3.2500e-01	6.4990	8.057315	0.000329	3.293255	0.557892	0.006585
 652	3.2550e-01	6.5055	8.098367	0.000411	4.105876	0.695554	0.008210
 653	3.2600e-01	6.5155	8.131295	0.000329	3.293255	0.557892	0.006585
 654	3.2650e-01	6.5247	8.181754	0.000505	5.046806	0.854952	0.010092
 655	3.2700e-01	6.5369	8.217675	0.000359	3.592642	0.608610	0.007184
 656	3.2750e-01	6.5466	8.245043	0.000274	2.737251	0.463703	0.005474
 657	3.2800e-01	6.5565	8.278398	0.000334	3.336024	0.565138	0.006671
 658	3.2850e-01	6.5646	8.317739	0.000393	3.934798	0.666573	0.007868
 659	3.2900e-01	6.5759	8.354087	0.000364	3.635411	0.615855	0.007270
 660	3.2950e-01	6.5858	8.386587	0.000325	3.250485	0.550647	0.006500
 661	3.3000e-01	6.5945	8.428067	0.000415	4.148646	0.702800	0.008296
 662	3.3050e-01	6.6040	8.460994	0.000329	3.293255	0.557892	0.006585
 663	3.3100e-01	6.6180	8.484513	0.000235	2.352325	0.398495	0.004704
 664	3.3150e-01	6.6241	8.524710	0.000402	4.020337	0.681064	0.008039
 665	3.3200e-01	6.6351	8.565762	0.000411	4.105876	0.695554	0.008210
 666	3.3250e-01	6.6461	8.592275	0.000265	2.651712	0.449212	0.005303
 667	3.3300e-01	6.6547	8.632471	0.000402	4.020337	0.681064	0.008039
 668	3.3350e-01	6.6684	8.650859	0.000184	1.839090	0.311550	0.003678
 669	3.3400e-01	6.6751	8.703457	0.000526	5.260654	0.891179	0.010520
 670	3.3450e-01	6.6858	8.735529	0.000321	3.207716	0.543402	0.006414
 671	3.3500e-01	6.6986	8.761187	0.000257	2.566173	0.434721	0.005132
 672	3.3550e-01	6.7065	8.800956	0.000398	3.977568	0.673818	0.007954
 673	3.3600e-01	6.7157	8.839442	0.000385	3.849259	0.652082	0.007697
 674	3.3650e-01	6.7255	8.875790	0.000364	3.635411	0.615855	0.007270
 675	3.3700e-01	6.7383	8.899737	0.000240	2.395094	0.405740	0.004789
 676	3.3750e-01	6.7480	8.945921	0.000462	4.619111	0.782499	0.009237
 677	3.3800e-01	6.7566	8.973289	0.000274	2.737251	0.463703	0.005474
 678	3.3850e-01	6.7651	9.015196	0.000419	4.191415	0.710045	0.008381
 679	3.3900e-01	6.7743	9.054538	0.000393	3.934798	0.666573	0.007868
 680	3.3950e-01	6.7859	9.078912	0.000244	2.437864	0.412985	0.004875
 681	3.4000e-01	6.7969	9.120819	0.000419	4.191415	0.710045	0.008381
 682	3.4050e-01	6.8051	9.151181	0.000304	3.036638	0.514420	0.006072
 683	3.4100e-01	6.8182	9.185819	0.000346	3.464333	0.586874	0.006928
 684	3.4150e-01	6.8256	9.226443	0.000406	4.063107	0.688309	0.008125
 685	3.4200e-01	6.8399	9.261508	0.000351	3.507103	0.594119	0.007013
 686	3.4250e-01	6.8475	9.291014	0.000295	2.951098	0.499930	0.005901
 687	3.4300e-01	6.8539	9.333777	0.000428	4.276954	0.724536	0.008553
 688	3.4350e-01	6.8671	9.354731	0.000210	2.095708	0.355022	0.004191
 689	3.4400e-01	6.8762	9.395355	0.000406	4.063107	0.688309	0.008125
 690	3.4450e-01	6.8867	9.431275	0.000359	3.592642	0.608610	0.007184
 691	3.4500e-01	6.8958	9.474466	0.000432	4.319724	0.731781	0.008638
 692	3.4550e-01	6.9055	9.500123	0.000257	2.566173	0.434721	0.005132
 693	3.4600e-01	6.9156	9.535616	0.000355	3.549872	0.601365	0.007099
 694	3.4650e-01	6.9250	9.579661	0.000441	4.405263	0.746272	0.008809
 695	3.4700e-01	6.9379	9.596766	0.000171	1.710782	0.289814	0.003421
 696	3.4750e-01	6.9458	9.639529	0.000428	4.276954	0.724536	0.008553
 697	3.4800e-01	6.9562	9.670318	0.000308	3.079407	0.521666	0.006158
 698	3.4850e-01	6.9666	9.714791	0.000445	4.448032	0.753517	0.008895
 699	3.4900e-01	6.9746	9.744725	0.000299	2.993868	0.507175	0.005987
 700	3.4950e-01	6.9843	9.775941	0.000312	3.122177	0.528911	0.006243
 701	3.5000e-01	6.9980	9.812290	0.000364	3.635411	0.615855	0.007270
 702	3.5050e-01	7.0074	9.840513	0.000282	2.822790	0.478194	0.005645
 703	3.5100e-01	7.0172	9.884558	0.000441	4.405263	0.746272	0.008809
 704	3.5150e-01	7.0251	9.917485	0.000329	3.293255	0.557892	0.006585
 705	3.5200e-01	7.0343	9.936729	0.000192	1.924629	0.326041	0.003849
 706	3.5250e-01	7.0449	9.983767	0.000470	4.704650	0.796989	0.009408
 707	3.5300e-01	7.0575	10.021398	0.000376	3.763720	0.637591	0.007526
 708	3.5350e-01	7.0660	10.056891	0.000355	3.549872	0.601365	0.007099
 709	3.5400e-01	7.0770	10.088963	0.000321	3.207716	0.543402	0.006414
 710	3.5450e-01	7.0871	10.127022	0.000381	3.806489	0.644837	0.007612
 711	3.5500e-01	7.0959	10.155245	0.000282	2.822790	0.478194	0.005645
 712	3.5550e-01	7.1051	10.189455	0.000342	3.421563	0.579629	0.006842
 713	3.5600e-01	7.1149	10.231790	0.000423	4.234185	0.717290	0.008467
 714	3.5650e-01	7.1265	10.257875	0.000261	2.608942	0.441967	0.005217
 715	3.5700e-01	7.1350	10.294651	0.000368	3.678181	0.623101	0.007355
 716	3.5750e-01	7.1478	10.327150	0.000325	3.250485	0.550647	0.006500
 717	3.5800e-01	7.1576	10.368202	0.000411	4.105876	0.695554	0.008210
 718	3.5850e-01	7.1680	10.403268	0.000351	3.507103	0.594119	0.007013
 719	3.5900e-01	7.1771	10.432346	0.000291	2.908329	0.492684	0.005816
 720	3.5950e-01	7.1875	10.470832	0.000385	3.849259	0.652082	0.007697
 721	3.6000e-01	7.1960	10.495635	0.000248	2.480633	0.420231	0.004960
 722	3.6050e-01	7.2061	10.539680	0.000441	4.405263	0.746272	0.008809
 723	3.6100e-01	7.2174	10.573890	0.000342	3.421563	0.579629	0.006842
 724	3.6150e-01	7.2266	10.602969	0.000291	2.908329	0.492684	0.005816
 725	3.6200e-01	7.2375	10.647869	0.000449	4.490802	0.760762	0.008980
 726	3.6250e-01	7.2458	10.665402	0.000175	1.753551	0.297060	0.003507
 727	3.6300e-01	7.2574	10.706882	0.000415	4.148646	0.702800	0.008296
 728	3.6350e-01	7.2649	10.757341	0.000505	5.046806	0.854952	0.010092
 729	3.6400e-01	7.2754	10.764183	0.000068	0.684313	0.115926	0.001368
 730	3.6450e-01	7.2845	10.810795	0.000466	4.661880	0.789744	0.009322
 731	3.6500e-01	7.2955	10.846715	0.000359	3.592642	0.608610	0.007184
 732	3.6550e-01	7.3047	10.881780	0.000351	3.507103	0.594119	0.007013
 733	3.6600e-01	7.3157	10.928819	0.000470	4.704650	0.796989	0.009408
 734	3.6650e-01	7.3282	10.951483	0.000227	2.266786	0.384004	0.004533
 735	3.6700e-01	7.3358	10.990825	0.000393	3.934798	0.666573	0.007868
 736	3.6750e-01	7.3468	11.031449	0.000406	4.063107	0.688309	0.008125
 737	3.6800e-01	7.3572	11.049837	0.000184	1.839090	0.311550	0.003678
 738	3.6850e-01	7.3651	11.094738	0.000449	4.490802	0.760762	0.008980
 739	3.6900e-01	7.3792	11.115264	0.000205	2.052938	0.347777	0.004105
 740	3.6950e-01	7.3889	11.150757	0.000355	3.549872	0.601365	0.007099
 741	3.7000e-01	7.3962	11.182401	0.000316	3.164946	0.536156	0.006329
 742	3.7050e-01	7.4060	11.212335	0.000299	2.993868	0.507175	0.005987
 743	3.7100e-01	7.4170	11.253387	0.000411	4.105876	0.695554	0.008210
 744	3.7150e-01	7.4268	11.287597	0.000342	3.421563	0.579629	0.006842
 745	3.7200e-01	7.4396	11.321807	0.000342	3.421563	0.579629	0.006842
 746	3.7250e-01	7.4487	11.368846	0.000470	4.704650	0.796989	0.009408
 747	3.7300e-01	7.4568	11.405194	0.000364	3.635411	0.615855	0.007270
 748	3.7350e-01	7.4658	11.425292	0.000201	2.010169	0.340532	0.004020
 749	3.7400e-01	7.4771	11.468055	0.000428	4.276954	0.724536	0.008553
 750	3.7450e-01	7.4855	11.506969	0.000389	3.892028	0.659327	0.007783
 751	3.7500e-01	7.4963	11.539468	0.000325	3.250485	0.550647	0.006500
 752	3.7550e-01	7.5079	11.565981	0.000265	2.651712	0.449212	0.005303
 753	3.7600e-01	7.5137	11.602757	0.000368	3.678181	0.623101	0.007355
 754	3.7650e-01	7.5282	11.645947	0.000432	4.319724	0.731781	0.008638
 755	3.7700e-01	7.5360	11.670749	0.000248	2.480633	0.420231	0.004960
 756	3.7750e-01	7.5458	11.705387	0.000346	3.464333	0.586874	0.006928
 757	3.7800e-01	7.5568	11.750287	0.000449	4.490802	0.760762	0.008980
 758	3.7850e-01	7.5677	11.771669	0.000214	2.138477	0.362268	0.004276
 759	3.7900e-01	7.5763	11.810582	0.000389	3.892028	0.659327	0.007783
 760	3.7950e-01	7.5864	11.844792	0.000342	3.421563	0.579629	0.006842
 761	3.8000e-01	7.5964	11.894825	0.000500	5.004037	0.847707	0.010006
 762	3.8050e-01	7.6065	11.925186	0.000304	3.036638	0.514420	0.006072
 763	3.8100e-01	7.6169	11.950416	0.000252	2.523403	0.427476	0.005046
 764	3.8150e-01	7.6276	11.989330	0.000389	3.892028	0.659327	0.007783
 765	3.8200e-01	7.6355	12.005580	0.000163	1.625243	0.275324	0.003250
 766	3.8250e-01	7.6465	12.054329	0.000488	4.875728	0.825971	0.009750
 767	3.8300e-01	7.6553	12.087684	0.000334	3.336024	0.565138	0.006671
 768	3.8350e-01	7.6672	12.117190	0.000295	2.951098	0.499930	0.005901
 769	3.8400e-01	7.6765	12.157387	0.000402	4.020337	0.681064	0.008039
 770	3.8450e-01	7.6849	12.190314	0.000329	3.293255	0.557892	0.006585
 771	3.8500e-01	7.6965	12.230510	0.000402	4.020337	0.681064	0.008039
 772	3.8550e-01	7.7051	12.262582	0.000321	3.207716	0.543402	0.006414
 773	3.8600e-01	7.7148	12.289950	0.000274	2.737251	0.463703	0.005474
 774	3.8650e-01	7.7258	12.335279	0.000453	4.533572	0.768008	0.009066
 775	3.8700e-01	7.7374	12.360081	0.000248	2.480633	0.420231	0.004960
 776	3.8750e-01	7.7472	12.404126	0.000441	4.405263	0.746272	0.008809
 777	3.8800e-01	7.7551	12.437909	0.000338	3.378794	0.572383	0.006756
 778	3.8850e-01	7.7655	12.472119	0.000342	3.421563	0.579629	0.006842
 779	3.8900e-01	7.7750	12.514454	0.000423	4.234185	0.717290	0.008467
 780	3.8950e-01	7.7856	12.531986	0.000175	1.753551	0.297060	0.003507
 781	3.9000e-01	7.7966	12.586722	0.000547	5.474502	0.927406	0.010947
 782	3.9050e-01	7.8082	12.606393	0.000197	1.967399	0.333286	0.003934
 783	3.9100e-01	7.8174	12.635044	0.000287	2.865559	0.485439	0.005730
 784	3.9150e-01	7.8284	12.679517	0.000445	4.448032	0.753517	0.008895
 785	3.9200e-01	7.8363	12.709451	0.000299	2.993868	0.507175	0.005987
 786	3.9250e-01	7.8462	12.745799	0.000364	3.635411	0.615855	0.007270
 787	3.9300e-01	7.8552	12.770601	0.000248	2.480633	0.420231	0.004960
 788	3.9350e-01	7.8656	12.808232	0.000376	3.763720	0.637591	0.007526
 789	3.9400e-01	7.8754	12.844153	0.000359	3.592642	0.608610	0.007184
 790	3.9450e-01	7.8870	12.892902	0.000488	4.875728	0.825971	0.009750
 791	3.9500e-01	7.8955	12.925829	0.000329	3.293255	0.557892	0.006585
 792	3.9550e-01	7.9041	12.963888	0.000381	3.806489	0.644837	0.007612
 793	3.9600e-01	7.9163	12.987835	0.000240	2.395094	0.405740	0.004789
 794	3.9650e-01	7.9230	13.033163	0.000453	4.533572	0.768008	0.009066
 795	3.9700e-01	7.9388	13.065663	0.000325	3.250485	0.550647	0.006500
 796	3.9750e-01	7.9456	13.106287	0.000406	4.063107	0.688309	0.008125
 797	3.9800e-01	7.9535	13.132800	0.000265	2.651712	0.449212	0.005303
 798	3.9850e-01	7.9642	13.162306	0.000295	2.951098	0.499930	0.005901
 799	3.9900e-01	7.9758	13.190529	0.000282	2.822790	0.478194	0.005645
 800	3.9950e-01	7.9865	13.236713	0.000462	4.619111	0.782499	0.009237
 801	4.0000e-01	7.9962	13.262798	0.000261	2.608942	0.441967	0.005217
 802	4.0050e-01	8.0054	13.306416	0.000436	4.362493	0.739026	0.008724
 803	4.0100e-01	8.0157	13.339343	0.000329	3.293255	0.557892	0.006585
 804	4.0150e-01	8.0243	13.370132	0.000308	3.079407	0.521666	0.006158
 805	4.0200e-01	8.0371	13.413750	0.000436	4.362493	0.739026	0.008724
 806	4.0250e-01	8.0461	13.448387	0.000346	3.464333	0.586874	0.006928
 807	4.0300e-01	8.0566	13.485163	0.000368	3.678181	0.623101	0.007355
 808	4.0350e-01	8.0670	13.511248	0.000261	2.608942	0.441967	0.005217
 809	4.0400e-01	8.0762	13.555294	0.000441	4.405263	0.746272	0.008809
 810	4.0450e-01	8.0872	13.580096	0.000248	2.480633	0.420231	0.004960
 811	4.0500e-01	8.0963	13.631839	0.000518	5.175115	0.876688	0.010349
 812	4.0550e-01	8.1055	13.666049	0.000342	3.421563	0.579629	0.006842
 813	4.0600e-01	8.1168	13.694699	0.000287	2.865559	0.485439	0.005730
 814	4.0650e-01	8.1259	13.726344	0.000316	3.164946	0.536156	0.006329
 815	4.0700e-01	8.1348	13.775093	0.000488	4.875728	0.825971	0.009750
 816	4.0750e-01	8.1464	13.791770	0.000167	1.668012	0.282569	0.003335
 817	4.0800e-01	8.1549	13.838809	0.000470	4.704650	0.796989	0.009408
 818	4.0850e-01	8.1671	13.879006	0.000402	4.020337	0.681064	0.008039
 819	4.0900e-01	8.1775	13.893973	0.000150	1.496934	0.253587	0.002993
 820	4.0950e-01	8.1870	13.944860	0.000509	5.089576	0.862197	0.010177
 821	4.1000e-01	8.1964	13.978215	0.000334	3.336024	0.565138	0.006671
 822	4.1050e-01	8.2080	14.018412	0.000402	4.020337	0.681064	0.008039
 823	4.1100e-01	8.2184	14.050056	0.000316	3.164946	0.536156	0.006329
 824	4.1150e-01	8.2251	14.075286	0.000252	2.523403	0.427476	0.005046
 825	4.1200e-01	8.2355	14.121897	0.000466	4.661880	0.789744	0.009322
 826	4.1250e-01	8.2458	14.156962	0.000351	3.507103	0.594119	0.007013
 827	4.1300e-01	8.2544	14.198014	0.000411	4.105876	0.695554	0.008210
 828	4.1350e-01	8.2648	14.240349	0.000423	4.234185	0.717290	0.008467
 829	4.1400e-01	8.2764	14.262158	0.000218	2.181247	0.369513	0.004362
 830	4.1450e-01	8.2855	14.305348	0.000432	4.319724	0.731781	0.008638
 831	4.1500e-01	8.2974	14.337420	0.000321	3.207716	0.543402	0.006414
 832	4.1550e-01	8.3041	14.378900	0.000415	4.148646	0.702800	0.008296
 833	4.1600e-01	8.3160	14.415248	0.000364	3.635411	0.615855	0.007270
 834	4.1650e-01	8.3252	14.451596	0.000364	3.635411	0.615855	0.007270
 835	4.1700e-01	8.3374	14.478109	0.000265	2.651712	0.449212	0.005303
 836	4.1750e-01	8.3438	14.516168	0.000381	3.806489	0.644837	0.007612
 837	4.1800e-01	8.3600	14.553799	0.000376	3.763720	0.637591	0.007526
 838	4.1850e-01	8.3655	14.586298	0.000325	3.250485	0.550647	0.006500
 839	4.1900e-01	8.3746	14.623929	0.000376	3.763720	0.637591	0.007526
 840	4.1950e-01	8.3856	14.663698	0.000398	3.977568	0.673818	0.007954
 841	4.2000e-01	8.3939	14.702185	0.000385	3.849259	0.652082	0.007697
 842	4.2050e-01	8.4076	14.728697	0.000265	2.651712	0.449212	0.005303
 843	4.2100e-01	8.4180	14.760769	0.000321	3.207716	0.543402	0.006414
 844	4.2150e-01	8.4290	14.795407	0.000346	3.464333	0.586874	0.006928
 845	4.2200e-01	8.4357	14.845439	0.000500	5.004037	0.847707	0.010006
 846	4.2250e-01	8.4473	14.878794	0.000334	3.336024	0.565138	0.006671
 847	4.2300e-01	8.4583	14.920273	0.000415	4.148646	0.702800	0.008296
 848	4.2350e-01	8.4650	14.943365	0.000231	2.309555	0.391249	0.004618
 849	4.2400e-01	8.4766	14.989549	0.000462	4.619111	0.782499	0.009237
 850	4.2450e-01	8.4875	15.025042	0.000355	3.549872	0.601365	0.007099
 851	4.2500e-01	8.4991	15.051554	0.000265	2.651712	0.449212	0.005303
 852	4.2550e-01	8.5065	15.098593	0.000470	4.704650	0.796989	0.009408
 853	4.2600e-01	8.5162	15.133658	0.000351	3.507103	0.594119	0.007013
 854	4.2650e-01	8.5272	15.168724	0.000351	3.507103	0.594119	0.007013
 855	4.2700e-01	8.5358	15.207638	0.000389	3.892028	0.659327	0.007783
 856	4.2750e-01	8.5461	15.242275	0.000346	3.464333	0.586874	0.006928
 857	4.2800e-01	8.5571	15.283327	0.000411	4.105876	0.695554	0.008210
 858	4.2850e-01	8.5689	15.307274	0.000240	2.395094	0.405740	0.004789
 859	4.2900e-01	8.5748	15.362438	0.000552	5.517271	0.934651	0.011033
 860	4.2950e-01	8.5855	15.394938	0.000325	3.250485	0.550647	0.006500
 861	4.3000e-01	8.5962	15.424871	0.000299	2.993868	0.507175	0.005987
 862	4.3050e-01	8.6060	15.459081	0.000342	3.421563	0.579629	0.006842
 863	4.3100e-01	8.6163	15.511252	0.000522	5.217884	0.883934	0.010434
 864	4.3150e-01	8.6273	15.540330	0.000291	2.908329	0.492684	0.005816
 865	4.3200e-01	8.6371	15.574968	0.000346	3.464333	0.586874	0.006928
 866	4.3250e-01	8.6469	15.614309	0.000393	3.934798	0.666573	0.007868
 867	4.3300e-01	8.6554	15.647664	0.000334	3.336024	0.565138	0.006671
 868	4.3350e-01	8.6664	15.671183	0.000235	2.352325	0.398495	0.004704
 869	4.3400e-01	8.6749	15.725492	0.000543	5.431732	0.920160	0.010862
 870	4.3450e-01	8.6871	15.759702	0.000342	3.421563	0.579629	0.006842
 871	4.3500e-01	8.6961	15.791774	0.000321	3.207716	0.543402	0.006414
 872	4.3550e-01	8.7054	15.842661	0.000509	5.089576	0.862197	0.010177
 873	4.3600e-01	8.7140	15.866608	0.000240	2.395094	0.405740	0.004789
 874	4.3650e-01	8.7286	15.916213	0.000496	4.961267	0.840461	0.009921
 875	4.3700e-01	8.7396	15.943153	0.000269	2.694481	0.456457	0.005388
 876	4.3750e-01	8.7451	15.985916	0.000428	4.276954	0.724536	0.008553
 877	4.3800e-01	8.7579	16.017988	0.000321	3.207716	0.543402	0.006414
 878	4.3850e-01	8.7677	16.057757	0.000398	3.977568	0.673818	0.007954
 879	4.3900e-01	8.7756	16.107361	0.000496	4.961267	0.840461	0.009921
 880	4.3950e-01	8.7854	16.133446	0.000261	2.608942	0.441967	0.005217
 881	4.4000e-01	8.7952	16.189465	0.000560	5.602810	0.949142	0.011204
 882	4.4050e-01	8.8062	16.206570	0.000171	1.710782	0.289814	0.003421
 883	4.4100e-01	8.8165	16.254464	0.000479	4.790189	0.811480	0.009579
 884	4.4150e-01	8.8318	16.289957	0.000355	3.549872	0.601365	0.007099
 885	4.4200e-01	8.8367	16.322457	0.000325	3.250485	0.550647	0.006500
 886	4.4250e-01	8.8452	16.358377	0.000359	3.592642	0.608610	0.007184
 887	4.4300e-01	8.8550	16.402423	0.000441	4.405263	0.746272	0.008809
 888	4.4350e-01	8.8678	16.440054	0.000376	3.763720	0.637591	0.007526
 889	4.4400e-01	8.8779	16.472553	0.000325	3.250485	0.550647	0.006500
 890	4.4450e-01	8.8855	16.517881	0.000453	4.533572	0.768008	0.009066
 891	4.4500e-01	8.8972	16.559789	0.000419	4.191415	0.710045	0.008381
 892	4.4550e-01	8.9050	16.591861	0.000321	3.207716	0.543402	0.006414
 893	4.4600e-01	8.9162	16.634196	0.000423	4.234185	0.717290	0.008467
 894	4.4650e-01	8.9264	16.675675	0.000415	4.148646	0.702800	0.008296
 895	4.4700e-01	8.9398	16.710740	0.000351	3.507103	0.594119	0.007013
 896	4.4750e-01	8.9459	16.748799	0.000381	3.806489	0.644837	0.007612
 897	4.4800e-01	8.9569	16.789424	0.000406	4.063107	0.688309	0.008125
 898	4.4850e-01	8.9685	16.827482	0.000381	3.806489	0.644837	0.007612
 899	4.4900e-01	8.9783	16.870245	0.000428	4.276954	0.724536	0.008553
 900	4.4950e-01	8.9880	16.908303	0.000381	3.806489	0.644837	0.007612
 901	4.5000e-01	8.9966	16.942513	0.000342	3.421563	0.579629	0.006842
 902	4.5050e-01	9.0063	16.983993	0.000415	4.148646	0.702800	0.008296
 903	4.5100e-01	9.0186	17.026328	0.000423	4.234185	0.717290	0.008467
 904	4.5150e-01	9.0253	17.060110	0.000338	3.378794	0.572383	0.006756
 905	4.5200e-01	9.0384	17.109287	0.000492	4.918497	0.833216	0.009835
 906	4.5250e-01	9.0491	17.132807	0.000235	2.352325	0.398495	0.004704
 907	4.5300e-01	9.0564	17.179845	0.000470	4.704650	0.796989	0.009408
 908	4.5350e-01	9.0643	17.220470	0.000406	4.063107	0.688309	0.008125
 909	4.5400e-01	9.0759	17.261094	0.000406	4.063107	0.688309	0.008125
 910	4.5450e-01	9.0833	17.303429	0.000423	4.234185	0.717290	0.008467
 911	4.5500e-01	9.0979	17.335501	0.000321	3.207716	0.543402	0.006414
 912	4.5550e-01	9.1064	17.373560	0.000381	3.806489	0.644837	0.007612
 913	4.5600e-01	9.1187	17.420171	0.000466	4.661880	0.789744	0.009322
 914	4.5650e-01	9.1284	17.446256	0.000261	2.608942	0.441967	0.005217
 915	4.5700e-01	9.1370	17.493295	0.000470	4.704650	0.796989	0.009408
 916	4.5750e-01	9.1461	17.540334	0.000470	4.704650	0.796989	0.009408
 917	4.5800e-01	9.1554	17.578820	0.000385	3.849259	0.652082	0.007697
 918	4.5850e-01	9.1675	17.623293	0.000445	4.448032	0.753517	0.008895
 919	4.5900e-01	9.1751	17.662634	0.000393	3.934798	0.666573	0.007868
 920	4.5950e-01	9.1870	17.701121	0.000385	3.849259	0.652082	0.007697
 921	4.6000e-01	9.1968	17.738752	0.000376	3.763720	0.637591	0.007526
 922	4.6050e-01	9.2059	17.783652	0.000449	4.490802	0.760762	0.008980
 923	4.6100e-01	9.2151	17.812303	0.000287	2.865559	0.485439	0.005730
 924	4.6150e-01	9.2249	17.863618	0.000513	5.132345	0.869443	0.010263
 925	4.6200e-01	9.2346	17.919210	0.000556	5.560041	0.941896	0.011118
 926	4.6250e-01	9.2456	17.939736	0.000205	2.052938	0.347777	0.004105
 927	4.6300e-01	9.2542	17.989768	0.000500	5.004037	0.847707	0.010006
 928	4.6350e-01	9.2665	18.027399	0.000376	3.763720	0.637591	0.007526
 929	4.6400e-01	9.2780	18.059471	0.000321	3.207716	0.543402	0.006414
 930	4.6450e-01	9.2865	18.109075	0.000496	4.961267	0.840461	0.009921
 931	4.6500e-01	9.2944	18.159963	0.000509	5.089576	0.862197	0.010177
 932	4.6550e-01	9.3048	18.180916	0.000210	2.095708	0.355022	0.004191
 933	4.6600e-01	9.3158	18.233942	0.000530	5.303423	0.898424	0.010605
 934	4.6650e-01	9.3268	18.270717	0.000368	3.678181	0.623101	0.007355
 935	4.6700e-01	9.3353	18.311342	0.000406	4.063107	0.688309	0.008125
 936	4.6750e-01	9.3481	18.352822	0.000415	4.148646	0.702800	0.008296
 937	4.6800e-01	9.3597	18.400716	0.000479	4.790189	0.811480	0.009579
 938	4.6850e-01	9.3655	18.442623	0.000419	4.191415	0.710045	0.008381
 939	4.6900e-01	9.3756	18.479399	0.000368	3.678181	0.623101	0.007355
 940	4.6950e-01	9.3854	18.535845	0.000565	5.645580	0.956387	0.011289
 941	4.7000e-01	9.3976	18.570483	0.000346	3.464333	0.586874	0.006928
 942	4.7050e-01	9.4049	18.617522	0.000470	4.704650	0.796989	0.009408
 943	4.7100e-01	9.4168	18.650449	0.000329	3.293255	0.557892	0.006585
 944	4.7150e-01	9.4244	18.696205	0.000458	4.576341	0.775253	0.009151
 945	4.7200e-01	9.4330	18.744526	0.000483	4.832958	0.818725	0.009664
 946	4.7250e-01	9.4437	18.784723	0.000402	4.020337	0.681064	0.008039
 947	4.7300e-01	9.4562	18.829624	0.000449	4.490802	0.760762	0.008980
 948	4.7350e-01	9.4666	18.862123	0.000325	3.250485	0.550647	0.006500
 949	4.7400e-01	9.4748	18.914294	0.000522	5.217884	0.883934	0.010434
 950	4.7450e-01	9.4891	18.959194	0.000449	4.490802	0.760762	0.008980
 951	4.7500e-01	9.4946	18.994259	0.000351	3.507103	0.594119	0.007013
 952	4.7550e-01	9.5062	19.049423	0.000552	5.517271	0.934651	0.011033
 953	4.7600e-01	9.5172	19.085344	0.000359	3.592642	0.608610	0.007184
 954	4.7650e-01	9.5264	19.125113	0.000398	3.977568	0.673818	0.007954
 955	4.7700e-01	9.5374	19.158468	0.000334	3.336024	0.565138	0.006671
 956	4.7750e-01	9.5474	19.212348	0.000539	5.388962	0.912915	0.010776
 957	4.7800e-01	9.5569	19.275209	0.000629	6.287123	1.065067	0.012572
 958	4.7850e-01	9.5660	19.302150	0.000269	2.694481	0.456457	0.005388
 959	4.7900e-01	9.5734	19.356458	0.000543	5.431732	0.920160	0.010862
 960	4.7950e-01	9.5856	19.396227	0.000398	3.977568	0.673818	0.007954
 961	4.8000e-01	9.5941	19.431292	0.000351	3.507103	0.594119	0.007013
 962	4.8050e-01	9.6066	19.487739	0.000565	5.645580	0.956387	0.011289
 963	4.8100e-01	9.6149	19.522804	0.000351	3.507103	0.594119	0.007013
 964	4.8150e-01	9.6252	19.560863	0.000381	3.806489	0.644837	0.007612
 965	4.8200e-01	9.6323	19.619448	0.000586	5.859427	0.992614	0.011717
 966	4.8250e-01	9.6448	19.652802	0.000334	3.336024	0.565138	0.006671
 967	4.8300e-01	9.6564	19.710104	0.000573	5.731119	0.970878	0.011460
 968	4.8350e-01	9.6680	19.746880	0.000368	3.678181	0.623101	0.007355
 969	4.8400e-01	9.6771	19.796057	0.000492	4.918497	0.833216	0.009835
 970	4.8450e-01	9.6851	19.837964	0.000419	4.191415	0.710045	0.008381
 971	4.8500e-01	9.6954	19.884148	0.000462	4.619111	0.782499	0.009237
 972	4.8550e-01	9.7076	19.946153	0.000620	6.201584	1.050577	0.012401
 973	4.8600e-01	9.7156	19.982501	0.000364	3.635411	0.615855	0.007270
 974	4.8650e-01	9.7253	20.033816	0.000513	5.132345	0.869443	0.010263
 975	4.8700e-01	9.7348	20.074441	0.000406	4.063107	0.688309	0.008125
 976	4.8750e-01	9.7467	20.112072	0.000376	3.763720	0.637591	0.007526
 977	4.8800e-01	9.7577	20.176216	0.000642	6.415431	1.086804	0.012829
 978	4.8850e-01	9.7659	20.207432	0.000312	3.122177	0.528911	0.006243
 979	4.8900e-01	9.7754	20.251478	0.000441	4.405263	0.746272	0.008809
 980	4.8950e-01	9.7870	20.298089	0.000466	4.661880	0.789744	0.009322
 981	4.9000e-01	9.7937	20.346838	0.000488	4.875728	0.825971	0.009750
 982	4.9050e-01	9.8090	20.392166	0.000453	4.533572	0.768008	0.009066
 983	4.9100e-01	9.8166	20.432791	0.000406	4.063107	0.688309	0.008125
 984	4.9150e-01	9.8297	20.492231	0.000594	5.944966	1.007105	0.011888
 985	4.9200e-01	9.8346	20.537559	0.000453	4.533572	0.768008	0.009066
 986	4.9250e-01	9.8450	20.580322	0.000428	4.276954	0.724536	0.008553
 987	4.9300e-01	9.8560	20.626505	0.000462	4.619111	0.782499	0.009237
 988	4.9350e-01	9.8663	20.682952	0.000565	5.645580	0.956387	0.011289
 989	4.9400e-01	9.8767	20.723148	0.000402	4.020337	0.681064	0.008039
 990	4.9450e-01	9.8853	20.793279	0.000701	7.014205	1.188239	0.014026
 991	4.9500e-01	9.8969	20.827061	0.000338	3.378794	0.572383	0.006756
 992	4.9550e-01	9.9066	20.865120	0.000381	3.806489	0.644837	0.007612
 993	4.9600e-01	9.9133	20.928409	0.000633	6.329892	1.072313	0.012658
 994	4.9650e-01	9.9261	20.963474	0.000351	3.507103	0.594119	0.007013
 995	4.9700e-01	9.9371	21.011795	0.000483	4.832958	0.818725	0.009664
 996	4.9750e-01	9.9463	21.069525	0.000577	5.773888	0.978123	0.011546
 997	4.9800e-01	9.9597	21.105445	0.000359	3.592642	0.608610	0.007184
 998	4.9850e-01	9.9695	21.151629	0.000462	4.619111	0.782499	0.009237
 999	4.9900e-01	9.9744	21.198668	0.000470	4.704650	0.796989	0.009408
1000	4.9950e-01	9.9841	21.254687	0.000560	5.602810	0.949142	0.011204
1001	5.0000e-01	9.9945	21.305146	0.000505	5.046806	0.854952	0.010092
1002	5.0050e-01	9.9863	21.290607	0.000145	1.454164	0.246342	-0.002908
1003	5.0100e-01	9.9750	21.290180	0.000004	0.042770	0.007245	-0.000086
1004	5.0150e-01	9.9664	21.285903	0.000043	0.427695	0.072454	-0.000855
1005	5.0200e-01	9.9561	21.288041	-0.000021	-0.213848	-0.036227	0.000428
1006	5.0250e-01	9.9451	21.289324	-0.000013	-0.128309	-0.021736	0.000257
1007	5.0300e-01	9.9353	21.271364	0.000180	1.796321	0.304305	-0.003592
1008	5.0350e-01	9.9255	21.273502	-0.000021	-0.213848	-0.036227	0.000428
1009	5.0400e-01	9.9152	21.259391	0.000141	1.411395	0.239097	-0.002822
1010	5.0450e-01	9.9078	21.253831	0.000056	0.556004	0.094190	-0.001112
1011	5.0500e-01	9.8987	21.247845	0.000060	0.598774	0.101435	-0.001197
1012	5.0550e-01	9.8865	21.244424	0.000034	0.342156	0.057963	-0.000684
1013	5.0600e-01	9.8769	21.236299	0.000081	0.812621	0.137662	-0.001625
1014	5.0650e-01	9.8654	21.216628	0.000197	1.967399	0.333286	-0.003934
1015	5.0700e-01	9.8572	21.223470	-0.000068	-0.684313	-0.115926	0.001368
1016	5.0750e-01	9.8444	21.200806	0.000227	2.266786	0.384004	-0.004533
1017	5.0800e-01	9.8376	21.202089	-0.000013	-0.128309	-0.021736	0.000257
1018	5.0850e-01	9.8273	21.192681	0.000094	0.940930	0.159398	-0.001882
1019	5.0900e-01	9.8157	21.181135	0.000115	1.154778	0.195625	-0.002309
1020	5.0950e-01	9.8071	21.163175	0.000180	1.796321	0.304305	-0.003592
1021	5.1000e-01	9.7955	21.152912	0.000103	1.026469	0.173889	-0.002053
1022	5.1050e-01	9.7864	21.155050	-0.000021	-0.213848	-0.036227	0.000428
1023	5.1100e-01	9.7754	21.135379	0.000197	1.967399	0.333286	-0.003934
1024	5.1150e-01	9.7675	21.112287	0.000231	2.309555	0.391249	-0.004618
1025	5.1200e-01	9.7559	21.107156	0.000051	0.513235	0.086944	-0.001026
1026	5.1250e-01	9.7449	21.096465	0.000107	1.069239	0.181134	-0.002138
1027	5.1300e-01	9.7348	21.075084	0.000214	2.138477	0.362268	-0.004276
1028	5.1350e-01	9.7241	21.072091	0.000030	0.299387	0.050717	-0.000599
1029	5.1400e-01	9.7168	21.045578	0.000265	2.651712	0.449212	-0.005303
1030	5.1450e-01	9.7040	21.044295	0.000013	0.128309	0.021736	-0.000257
1031	5.1500e-01	9.6936	21.018637	0.000257	2.566173	0.434721	-0.005132
1032	5.1550e-01	9.6863	21.010940	0.000077	0.769852	0.130416	-0.001539
1033	5.1600e-01	9.6753	21.004526	0.000064	0.641543	0.108680	-0.001283
1034	5.1650e-01	9.6658	20.975875	0.000287	2.865559	0.485439	-0.005730
1035	5.1700e-01	9.6558	20.973309	0.000026	0.256617	0.043472	-0.000513
1036	5.1750e-01	9.6460	20.941665	0.000316	3.164946	0.536156	-0.006329
1037	5.1800e-01	9.6338	20.932685	0.000090	0.898160	0.152152	-0.001796
1038	5.1850e-01	9.6268	20.904462	0.000282	2.822790	0.478194	-0.005645
1039	5.1900e-01	9.6198	20.894626	0.000098	0.983699	0.166643	-0.001967
1040	5.1950e-01	9.6082	20.884363	0.000103	1.026469	0.173889	-0.002053
1041	5.2000e-01	9.5947	20.860416	0.000240	2.395094	0.405740	-0.004789
1042	5.2050e-01	9.5856	20.853574	0.000068	0.684313	0.115926	-0.001368
1043	5.2100e-01	9.5737	20.837324	0.000163	1.625243	0.275324	-0.003250
1044	5.2150e-01	9.5657	20.823213	0.000141	1.411395	0.239097	-0.002822
1045	5.2200e-01	9.5551	20.797128	0.000261	2.608942	0.441967	-0.005217
1046	5.2250e-01	9.5462	20.776174	0.000210	2.095708	0.355022	-0.004191
1047	5.2300e-01	9.5349	20.765483	0.000107	1.069239	0.181134	-0.002138
1048	5.2350e-01	9.5270	20.739826	0.000257	2.566173	0.434721	-0.005132
1049	5.2400e-01	9.5178	20.734694	0.000051	0.513235	0.086944	-0.001026
1050	5.2450e-01	9.5038	20.712458	0.000222	2.224016	0.376759	-0.004447
1051	5.2500e-01	9.4949	20.691504	0.000210	2.095708	0.355022	-0.004191
1052	5.2550e-01	9.4861	20.679531	0.000120	1.197547	0.202870	-0.002395
1053	5.2600e-01	9.4745	20.659860	0.000197	1.967399	0.333286	-0.003934
1054	5.2650e-01	9.4656	20.639334	0.000205	2.052938	0.347777	-0.004105
1055	5.2700e-01	9.4568	20.605124	0.000342	3.421563	0.579629	-0.006842
1056	5.2750e-01	9.4479	20.604696	0.000004	0.042770	0.007245	-0.000086
1057	5.2800e-01	9.4360	20.582032	0.000227	2.266786	0.384004	-0.004533
1058	5.2850e-01	9.4254	20.552098	0.000299	2.993868	0.507175	-0.005987
1059	5.2900e-01	9.4165	20.549533	0.000026	0.256617	0.043472	-0.000513
1060	5.2950e-01	9.4043	20.526013	0.000235	2.352325	0.398495	-0.004704
1061	5.3000e-01	9.3970	20.504632	0.000214	2.138477	0.362268	-0.004276
1062	5.3050e-01	9.3835	20.484961	0.000197	1.967399	0.333286	-0.003934
1063	5.3100e-01	9.3768	20.462297	0.000227	2.266786	0.384004	-0.004533
1064	5.3150e-01	9.3634	20.445192	0.000171	1.710782	0.289814	-0.003421
1065	5.3200e-01	9.3536	20.436212	0.000090	0.898160	0.152152	-0.001796
1066	5.3250e-01	9.3475	20.415686	0.000205	2.052938	0.347777	-0.004105
1067	5.3300e-01	9.3359	20.388318	0.000274	2.737251	0.463703	-0.005474
1068	5.3350e-01	9.3265	20.360950	0.000274	2.737251	0.463703	-0.005474
1069	5.3400e-01	9.3140	20.354108	0.000068	0.684313	0.115926	-0.001368
1070	5.3450e-01	9.3048	20.321608	0.000325	3.250485	0.550647	-0.006500
1071	5.3500e-01	9.2993	20.303220	0.000184	1.839090	0.311550	-0.003678
1072	5.3550e-01	9.2865	20.281839	0.000214	2.138477	0.362268	-0.004276
1073	5.3600e-01	9.2776	20.264307	0.000175	1.753551	0.297060	-0.003507
1074	5.3650e-01	9.2633	20.251905	0.000124	1.240317	0.210115	-0.002480
1075	5.3700e-01	9.2566	20.212136	0.000398	3.977568	0.673818	-0.007954
1076	5.3750e-01	9.2474	20.204439	0.000077	0.769852	0.130416	-0.001539
1077	5.3800e-01	9.2389	20.182630	0.000218	2.181247	0.369513	-0.004362
1078	5.3850e-01	9.2249	20.165097	0.000175	1.753551	0.297060	-0.003507
1079	5.3900e-01	9.2166	20.133453	0.000316	3.164946	0.536156	-0.006329
1080	5.3950e-01	9.2059	20.111644	0.000218	2.181247	0.369513	-0.004362
1081	5.4000e-01	9.1949	20.099243	0.000124	1.240317	0.210115	-0.002480
1082	5.4050e-01	9.1852	20.065461	0.000338	3.378794	0.572383	-0.006756
1083	5.4100e-01	9.1779	20.041941	0.000235	2.352325	0.398495	-0.004704
1084	5.4150e-01	9.1663	20.023553	0.000184	1.839090	0.311550	-0.003678
1085	5.4200e-01	9.1571	19.994903	0.000287	2.865559	0.485439	-0.005730
1086	5.4250e-01	9.1437	19.988488	0.000064	0.641543	0.108680	-0.001283
1087	5.4300e-01	9.1354	19.959837	0.000287	2.865559	0.485439	-0.005730
1088	5.4350e-01	9.1248	19.935890	0.000240	2.395094	0.405740	-0.004789
1089	5.4400e-01	9.1162	19.916647	0.000192	1.924629	0.326041	-0.003849
1090	5.4450e-01	9.1046	19.893983	0.000227	2.266786	0.384004	-0.004533
1091	5.4500e-01	9.0964	19.859345	0.000346	3.464333	0.586874	-0.006928
1092	5.4550e-01	9.0826	19.848655	0.000107	1.069239	0.181134	-0.002138
1093	5.4600e-01	9.0750	19.821714	0.000269	2.694481	0.456457	-0.005388
1094	5.4650e-01	9.0662	19.793063	0.000287	2.865559	0.485439	-0.005730
1095	5.4700e-01	9.0558	19.772965	0.000201	2.010169	0.340532	-0.004020
1096	5.4750e-01	9.0454	19.739183	0.000338	3.378794	0.572383	-0.006756
1097	5.4800e-01	9.0366	19.731058	0.000081	0.812621	0.137662	-0.001625
1098	5.4850e-01	9.0265	19.705828	0.000252	2.523403	0.427476	-0.005046
1099	5.4900e-01	9.0143	19.670763	0.000351	3.507103	0.594119	-0.007013
1100	5.4950e-01	9.0070	19.664776	0.000060	0.598774	0.101435	-0.001197
1101	5.5000e-01	8.9972	19.633132	0.000316	3.164946	0.536156	-0.006329
1102	5.5050e-01	8.9819	19.613461	0.000197	1.967399	0.333286	-0.003934
1103	5.5100e-01	8.9758	19.601060	0.000124	1.240317	0.210115	-0.002480
1104	5.5150e-01	8.9636	19.579251	0.000218	2.181247	0.369513	-0.004362
1105	5.5200e-01	8.9551	19.555304	0.000240	2.395094	0.405740	-0.004789
1106	5.5250e-01	8.9465	19.524515	0.000308	3.079407	0.521666	-0.006158
1107	5.5300e-01	8.9392	19.491160	0.000334	3.336024	0.565138	-0.006671
1108	5.5350e-01	8.9264	19.478759	0.000124	1.240317	0.210115	-0.002480
1109	5.5400e-01	8.9172	19.447970	0.000308	3.079407	0.521666	-0.006158
1110	5.5450e-01	8.9081	19.432148	0.000158	1.582473	0.268078	-0.003164
1111	5.5500e-01	8.8977	19.394089	0.000381	3.806489	0.644837	-0.007612
1112	5.5550e-01	8.8843	19.379550	0.000145	1.454164	0.246342	-0.002908
1113	5.5600e-01	8.8782	19.360734	0.000188	1.881860	0.318796	-0.003763
1114	5.5650e-01	8.8660	19.329090	0.000316	3.164946	0.536156	-0.006329
1115	5.5700e-01	8.8550	19.307709	0.000214	2.138477	0.362268	-0.004276
1116	5.5750e-01	8.8477	19.282907	0.000248	2.480633	0.420231	-0.004960
1117	5.5800e-01	8.8361	19.248696	0.000342	3.421563	0.579629	-0.006842
1118	5.5850e-01	8.8263	19.238433	0.000103	1.026469	0.173889	-0.002053
1119	5.5900e-01	8.8161	19.211493	0.000269	2.694481	0.456457	-0.005388
1120	5.5950e-01	8.8092	19.196099	0.000154	1.539704	0.260833	-0.003079
1121	5.6000e-01	8.7970	19.158895	0.000372	3.720950	0.630346	-0.007441
1122	5.6050e-01	8.7848	19.138369	0.000205	2.052938	0.347777	-0.004105
1123	5.6100e-01	8.7769	19.108863	0.000295	2.951098	0.499930	-0.005901
1124	5.6150e-01	8.7671	19.089620	0.000192	1.924629	0.326041	-0.003849
1125	5.6200e-01	8.7561	19.066528	0.000231	2.309555	0.391249	-0.004618
1126	5.6250e-01	8.7451	19.040443	0.000261	2.608942	0.441967	-0.005217
1127	5.6300e-01	8.7366	19.015213	0.000252	2.523403	0.427476	-0.005046
1128	5.6350e-01	8.7256	18.986562	0.000287	2.865559	0.485439	-0.005730
1129	5.6400e-01	8.7137	18.963898	0.000227	2.266786	0.384004	-0.004533
1130	5.6450e-01	8.7070	18.936530	0.000274	2.737251	0.463703	-0.005474
1131	5.6500e-01	8.6987	18.897616	0.000389	3.892028	0.659327	-0.007783
1132	5.6550e-01	8.6865	18.883077	0.000145	1.454164	0.246342	-0.002908
1133	5.6600e-01	8.6792	18.865972	0.000171	1.710782	0.289814	-0.003421
1134	5.6650e-01	8.6670	18.836466	0.000295	2.951098	0.499930	-0.005901
1135	5.6700e-01	8.6578	18.814657	0.000218	2.181247	0.369513	-0.004362
1136	5.6750e-01	8.6469	18.785151	0.000295	2.951098	0.499930	-0.005901
1137	5.6800e-01	8.6359	18.765052	0.000201	2.010169	0.340532	-0.004020
1138	5.6850e-01	8.6255	18.741105	0.000240	2.395094	0.405740	-0.004789
1139	5.6900e-01	8.6182	18.702191	0.000389	3.892028	0.659327	-0.007783
1140	5.6950e-01	8.6078	18.691928	0.000103	1.026469	0.173889	-0.002053
1141	5.7000e-01	8.5956	18.655580	0.000364	3.635411	0.615855	-0.007270
1142	5.7050e-01	8.5846	18.645745	0.000098	0.983699	0.166643	-0.001967
1143	5.7100e-01	8.5748	18.618804	0.000269	2.694481	0.456457	-0.005388
1144	5.7150e-01	8.5657	18.578180	0.000406	4.063107	0.688309	-0.008125
1145	5.7200e-01	8.5571	18.565351	0.000128	1.283086	0.217361	-0.002566
1146	5.7250e-01	8.5461	18.518740	0.000466	4.661880	0.789744	-0.009322
1147	5.7300e-01	8.5370	18.503346	0.000154	1.539704	0.260833	-0.003079
1148	5.7350e-01	8.5278	18.472984	0.000304	3.036638	0.514420	-0.006072
1149	5.7400e-01	8.5144	18.449465	0.000235	2.352325	0.398495	-0.004704
1150	5.7450e-01	8.5049	18.429794	0.000197	1.967399	0.333286	-0.003934
1151	5.7500e-01	8.4991	18.390025	0.000398	3.977568	0.673818	-0.007954
1152	5.7550e-01	8.4882	18.368216	0.000218	2.181247	0.369513	-0.004362
1153	5.7600e-01	8.4775	18.345980	0.000222	2.224016	0.376759	-0.004447
1154	5.7650e-01	8.4662	18.319039	0.000269	2.694481	0.456457	-0.005388
1155	5.7700e-01	8.4558	18.294237	0.000248	2.480633	0.420231	-0.004960
1156	5.7750e-01	8.4454	18.266869	0.000274	2.737251	0.463703	-0.005474
1157	5.7800e-01	8.4381	18.240356	0.000265	2.651712	0.449212	-0.005303
1158	5.7850e-01	8.4265	18.220685	0.000197	1.967399	0.333286	-0.003934
1159	5.7900e-01	8.4167	18.189896	0.000308	3.079407	0.521666	-0.006158
1160	5.7950e-01	8.4061	18.165094	0.000248	2.480633	0.420231	-0.004960
1161	5.8000e-01	8.3960	18.142858	0.000222	2.224016	0.376759	-0.004447
1162	5.8050e-01	8.3850	18.120193	0.000227	2.266786	0.384004	-0.004533
1163	5.8100e-01	8.3768	18.071444	0.000488	4.875728	0.825971	-0.009750
1164	5.8150e-01	8.3673	18.056905	0.000145	1.454164	0.246342	-0.002908
1165	5.8200e-01	8.3582	18.031675	0.000252	2.523403	0.427476	-0.005046
1166	5.8250e-01	8.3453	18.006017	0.000257	2.566173	0.434721	-0.005132
1167	5.8300e-01	8.3386	17.979505	0.000265	2.651712	0.449212	-0.005303
1168	5.8350e-01	8.3264	17.941446	0.000381	3.806489	0.644837	-0.007612
1169	5.8400e-01	8.3173	17.919210	0.000222	2.224016	0.376759	-0.004447
1170	5.8450e-01	8.3054	17.884572	0.000346	3.464333	0.586874	-0.006928
1171	5.8500e-01	8.2959	17.866612	0.000180	1.796321	0.304305	-0.003592
1172	5.8550e-01	8.2867	17.839244	0.000274	2.737251	0.463703	-0.005474
1173	5.8600e-01	8.2741	17.817007	0.000222	2.224016	0.376759	-0.004447
1174	5.8650e-01	8.2654	17.793060	0.000240	2.395094	0.405740	-0.004789
1175	5.8700e-01	8.2545	17.757140	0.000359	3.592642	0.608610	-0.007184
1176	5.8750e-01	8.2465	17.726778	0.000304	3.036638	0.514420	-0.006072
1177	5.8800e-01	8.2367	17.709673	0.000171	1.710782	0.289814	-0.003421
1178	5.8850e-01	8.2288	17.678456	0.000312	3.122177	0.528911	-0.006243
1179	5.8900e-01	8.2178	17.656648	0.000218	2.181247	0.369513	-0.004362
1180	5.8950e-01	8.2101	17.624148	0.000325	3.250485	0.550647	-0.006500
1181	5.9000e-01	8.1940	17.595925	0.000282	2.822790	0.478194	-0.005645
1182	5.9050e-01	8.1857	17.575399	0.000205	2.052938	0.347777	-0.004105
1183	5.9100e-01	8.1775	17.543327	0.000321	3.207716	0.543402	-0.006414
1184	5.9150e-01	8.1667	17.514676	0.000287	2.865559	0.485439	-0.005730
1185	5.9200e-01	8.1567	17.494150	0.000205	2.052938	0.347777	-0.004105
1186	5.9250e-01	8.1476	17.458229	0.000359	3.592642	0.608610	-0.007184
1187	5.9300e-01	8.1372	17.432144	0.000261	2.608942	0.441967	-0.005217
1188	5.9350e-01	8.1302	17.403921	0.000282	2.822790	0.478194	-0.005645
1189	5.9400e-01	8.1171	17.379974	0.000240	2.395094	0.405740	-0.004789
1190	5.9450e-01	8.1058	17.348330	0.000316	3.164946	0.536156	-0.006329
1191	5.9500e-01	8.0981	17.320962	0.000274	2.737251	0.463703	-0.005474
1192	5.9550e-01	8.0859	17.286752	0.000342	3.421563	0.579629	-0.006842
1193	5.9600e-01	8.0765	17.267081	0.000197	1.967399	0.333286	-0.003934
1194	5.9650e-01	8.0652	17.231160	0.000359	3.592642	0.608610	-0.007184
1195	5.9700e-01	8.0566	17.199944	0.000312	3.122177	0.528911	-0.006243
1196	5.9750e-01	8.0472	17.196950	0.000030	0.299387	0.050717	-0.000599
1197	5.9800e-01	8.0344	17.155898	0.000411	4.105876	0.695554	-0.008210
1198	5.9850e-01	8.0292	17.131524	0.000244	2.437864	0.412985	-0.004875
1199	5.9900e-01	8.0151	17.097314	0.000342	3.421563	0.579629	-0.006842
1200	5.9950e-01	8.0060	17.074222	0.000231	2.309555	0.391249	-0.004618
1201	6.0000e-01	7.9980	17.054551	0.000197	1.967399	0.333286	-0.003934
1202	6.0050e-01	7.9871	17.013072	0.000415	4.148646	0.702800	-0.008296
1203	6.0100e-01	7.9785	16.992118	0.000210	2.095708	0.355022	-0.004191
1204	6.0150e-01	7.9651	16.962184	0.000299	2.993868	0.507175	-0.005987
1205	6.0200e-01	7.9555	16.941231	0.000210	2.095708	0.355022	-0.004191
1206	6.0250e-01	7.9465	16.905310	0.000359	3.592642	0.608610	-0.007184
1207	6.0300e-01	7.9379	16.881791	0.000235	2.352325	0.398495	-0.004704
1208	6.0350e-01	7.9260	16.856561	0.000252	2.523403	0.427476	-0.005046
1209	6.0400e-01	7.9150	16.820213	0.000364	3.635411	0.615855	-0.007270
1210	6.0450e-01	7.9068	16.789424	0.000308	3.079407	0.521666	-0.006158
1211	6.0500e-01	7.8983	16.765904	0.000235	2.352325	0.398495	-0.004704
1212	6.0550e-01	7.8845	16.730839	0.000351	3.507103	0.594119	-0.007013
1213	6.0600e-01	7.8778	16.709885	0.000210	2.095708	0.355022	-0.004191
1214	6.0650e-01	7.8662	16.685938	0.000240	2.395094	0.405740	-0.004789
1215	6.0700e-01	7.8561	16.654722	0.000312	3.122177	0.528911	-0.006243
1216	6.0750e-01	7.8448	16.630775	0.000240	2.395094	0.405740	-0.004789
1217	6.0800e-01	7.8369	16.583736	0.000470	4.704650	0.796989	-0.009408
1218	6.0850e-01	7.8262	16.560644	0.000231	2.309555	0.391249	-0.004618
1219	6.0900e-01	7.8149	16.532421	0.000282	2.822790	0.478194	-0.005645
1220	6.0950e-01	7.8073	16.503342	0.000291	2.908329	0.492684	-0.005816
1221	6.1000e-01	7.7991	16.467422	0.000359	3.592642	0.608610	-0.007184
1222	6.1050e-01	7.7875	16.445613	0.000218	2.181247	0.369513	-0.004362
1223	6.1100e-01	7.7756	16.430646	0.000150	1.496934	0.253587	-0.002993
1224	6.1150e-01	7.7655	16.384890	0.000458	4.576341	0.775253	-0.009151
1225	6.1200e-01	7.7582	16.353246	0.000316	3.164946	0.536156	-0.006329
1226	6.1250e-01	7.7454	16.324595	0.000287	2.865559	0.485439	-0.005730
1227	6.1300e-01	7.7368	16.313904	0.000107	1.069239	0.181134	-0.002138
1228	6.1350e-01	7.7277	16.286109	0.000278	2.780020	0.470948	-0.005559
1229	6.1400e-01	7.7148	16.239497	0.000466	4.661880	0.789744	-0.009322
1230	6.1450e-01	7.7069	16.212557	0.000269	2.694481	0.456457	-0.005388
1231	6.1500e-01	7.6953	16.182623	0.000299	2.993868	0.507175	-0.005987
1232	6.1550e-01	7.6851	16.168084	0.000145	1.454164	0.246342	-0.002908
1233	6.1600e-01	7.6813	16.135157	0.000329	3.293255	0.557892	-0.006585
1234	6.1650e-01	7.6674	16.100947	0.000342	3.421563	0.579629	-0.006842
1235	6.1700e-01	7.6578	16.068447	0.000325	3.250485	0.550647	-0.006500
1236	6.1750e-01	7.6495	16.035948	0.000325	3.250485	0.550647	-0.006500
1237	6.1800e-01	7.6331	16.017132	0.000188	1.881860	0.318796	-0.003763
1238	6.1850e-01	7.6263	15.977791	0.000393	3.934798	0.666573	-0.007868
1239	6.1900e-01	7.6160	15.960686	0.000171	1.710782	0.289814	-0.003421
1240	6.1950e-01	7.6068	15.932890	0.000278	2.780020	0.470948	-0.005559
1241	6.2000e-01	7.5977	15.902956	0.000299	2.993868	0.507175	-0.005987
1242	6.2050e-01	7.5864	15.857200	0.000458	4.576341	0.775253	-0.009151
1243	6.2100e-01	7.5763	15.837957	0.000192	1.924629	0.326041	-0.003849
1244	6.2150e-01	7.5659	15.810589	0.000274	2.737251	0.463703	-0.005474
1245	6.2200e-01	7.5555	15.782794	0.000278	2.780020	0.470948	-0.005559
1246	6.2250e-01	7.5482	15.751149	0.000316	3.164946	0.536156	-0.006329
1247	6.2300e-01	7.5385	15.726775	0.000244	2.437864	0.412985	-0.004875
1248	6.2350e-01	7.5275	15.685723	0.000411	4.105876	0.695554	-0.008210
1249	6.2400e-01	7.5201	15.656644	0.000291	2.908329	0.492684	-0.005816
1250	6.2450e-01	7.5031	15.634835	0.000218	2.181247	0.369513	-0.004362
1251	6.2500e-01	7.4969	15.609178	0.000257	2.566173	0.434721	-0.005132
1252	6.2550e-01	7.4866	15.578389	0.000308	3.079407	0.521666	-0.006158
1253	6.2600e-01	7.4771	15.548883	0.000295	2.951098	0.499930	-0.005901
1254	6.2650e-01	7.4677	15.505692	0.000432	4.319724	0.731781	-0.008638
1255	6.2700e-01	7.4561	15.470627	0.000351	3.507103	0.594119	-0.007013
1256	6.2750e-01	7.4469	15.464213	0.000064	0.641543	0.108680	-0.001283
1257	6.2800e-01	7.4371	15.432996	0.000312	3.122177	0.528911	-0.006243
1258	6.2850e-01	7.4257	15.393227	0.000398	3.977568	0.673818	-0.007954
1259	6.2900e-01	7.4158	15.364148	0.000291	2.908329	0.492684	-0.005816
1260	6.2950e-01	7.4072	15.343195	0.000210	2.095708	0.355022	-0.004191
1261	6.3000e-01	7.3962	15.315827	0.000274	2.737251	0.463703	-0.005474
1262	6.3050e-01	7.3865	15.285465	0.000304	3.036638	0.514420	-0.006072
1263	6.3100e-01	7.3785	15.252111	0.000334	3.336024	0.565138	-0.006671
1264	6.3150e-01	7.3672	15.218328	0.000338	3.378794	0.572383	-0.006756
1265	6.3200e-01	7.3563	15.194381	0.000240	2.395094	0.405740	-0.004789
1266	6.3250e-01	7.3471	15.166586	0.000278	2.780020	0.470948	-0.005559
1267	6.3300e-01	7.3347	15.139645	0.000269	2.694481	0.456457	-0.005388
1268	6.3350e-01	7.3260	15.093034	0.000466	4.661880	0.789744	-0.009322
1269	6.3400e-01	7.3169	15.075929	0.000171	1.710782	0.289814	-0.003421
1270	6.3450e-01	7.3077	15.036588	0.000393	3.934798	0.666573	-0.007868
1271	6.3500e-01	7.2974	15.007081	0.000295	2.951098	0.499930	-0.005901
1272	6.3550e-01	7.2902	14.964746	0.000423	4.234185	0.717290	-0.008467
1273	6.3600e-01	7.2748	14.953201	0.000115	1.154778	0.195625	-0.002309
1274	6.3650e-01	7.2662	14.922412	0.000308	3.079407	0.521666	-0.006158
1275	6.3700e-01	7.2598	14.879649	0.000428	4.276954	0.724536	-0.008553
1276	6.3750e-01	7.2430	14.857413	0.000222	2.224016	0.376759	-0.004447
1277	6.3800e-01	7.2369	14.825768	0.000316	3.164946	0.536156	-0.006329
1278	6.3850e-01	7.2261	14.789420	0.000364	3.635411	0.615855	-0.007270
1279	6.3900e-01	7.2198	14.768894	0.000205	2.052938	0.347777	-0.004105
1280	6.3950e-01	7.2052	14.731691	0.000372	3.720950	0.630346	-0.007441
1281	6.4000e-01	7.1968	14.710737	0.000210	2.095708	0.355022	-0.004191
1282	6.4050e-01	7.1857	14.676955	0.000338	3.378794	0.572383	-0.006756
1283	6.4100e-01	7.1759	14.637186	0.000398	3.977568	0.673818	-0.007954
1284	6.4150e-01	7.1646	14.613239	0.000240	2.395094	0.405740	-0.004789
1285	6.4200e-01	7.1539	14.582877	0.000304	3.036638	0.514420	-0.006072
1286	6.4250e-01	7.1463	14.558930	0.000240	2.395094	0.405740	-0.004789
1287	6.4300e-01	7.1375	14.513602	0.000453	4.533572	0.768008	-0.009066
1288	6.4350e-01	7.1246	14.499490	0.000141	1.411395	0.239097	-0.002822
1289	6.4400e-01	7.1136	14.456728	0.000428	4.276954	0.724536	-0.008553
1290	6.4450e-01	7.1077	14.433208	0.000235	2.352325	0.398495	-0.004704
1291	6.4500e-01	7.0953	14.408834	0.000244	2.437864	0.412985	-0.004875
1292	6.4550e-01	7.0856	14.369064	0.000398	3.977568	0.673818	-0.007954
1293	6.4600e-01	7.0755	14.337420	0.000316	3.164946	0.536156	-0.006329
1294	6.4650e-01	7.0670	14.318605	0.000188	1.881860	0.318796	-0.003763
1295	6.4700e-01	7.0563	14.272421	0.000462	4.619111	0.782499	-0.009237
1296	6.4750e-01	7.0462	14.254461	0.000180	1.796321	0.304305	-0.003592
1297	6.4800e-01	7.0334	14.215975	0.000385	3.849259	0.652082	-0.007697
1298	6.4850e-01	7.0264	14.185186	0.000308	3.079407	0.521666	-0.006158
1299	6.4900e-01	7.0184	14.152258	0.000329	3.293255	0.557892	-0.006585
1300	6.4950e-01	7.0062	14.124463	0.000278	2.780020	0.470948	-0.005559
1301	6.5000e-01	6.9965	14.100943	0.000235	2.352325	0.398495	-0.004704
1302	6.5050e-01	6.9879	14.059891	0.000411	4.105876	0.695554	-0.008210
1303	6.5100e-01	6.9757	14.027820	0.000321	3.207716	0.543402	-0.006414
1304	6.5150e-01	6.9666	13.997886	0.000299	2.993868	0.507175	-0.005987
1305	6.5200e-01	6.9577	13.977787	0.000201	2.010169	0.340532	-0.004020
1306	6.5250e-01	6.9449	13.940156	0.000376	3.763720	0.637591	-0.007526
1307	6.5300e-01	6.9348	13.907229	0.000329	3.293255	0.557892	-0.006585
1308	6.5350e-01	6.9244	13.888414	0.000188	1.881860	0.318796	-0.003763
1309	6.5400e-01	6.9128	13.842658	0.000458	4.576341	0.775253	-0.009151
1310	6.5450e-01	6.9043	13.814862	0.000278	2.780020	0.470948	-0.005559
1311	6.5500e-01	6.8948	13.779369	0.000355	3.549872	0.601365	-0.007099
1312	6.5550e-01	6.8835	13.756277	0.000231	2.309555	0.391249	-0.004618
1313	6.5600e-01	6.8756	13.725061	0.000312	3.122177	0.528911	-0.006243
1314	6.5650e-01	6.8655	13.696838	0.000282	2.822790	0.478194	-0.005645
1315	6.5700e-01	6.8549	13.661772	0.000351	3.507103	0.594119	-0.007013
1316	6.5750e-01	6.8463	13.627562	0.000342	3.421563	0.579629	-0.006842
1317	6.5800e-01	6.8384	13.592497	0.000351	3.507103	0.594119	-0.007013
1318	6.5850e-01	6.8262	13.566839	0.000257	2.566173	0.434721	-0.005132
1319	6.5900e-01	6.8149	13.525787	0.000411	4.105876	0.695554	-0.008210
1320	6.5950e-01	6.8060	13.499702	0.000261	2.608942	0.441967	-0.005217
1321	6.6000e-01	6.7957	13.460788	0.000389	3.892028	0.659327	-0.007783
1322	6.6050e-01	6.7845	13.440262	0.000205	2.052938	0.347777	-0.004105
1323	6.6100e-01	6.7767	13.406908	0.000334	3.336024	0.565138	-0.006671
1324	6.6150e-01	6.7664	13.378684	0.000282	2.822790	0.478194	-0.005645
1325	6.6200e-01	6.7560	13.347468	0.000312	3.122177	0.528911	-0.006243
1326	6.6250e-01	6.7462	13.306843	0.000406	4.063107	0.688309	-0.008125
1327	6.6300e-01	6.7371	13.275199	0.000316	3.164946	0.536156	-0.006329
1328	6.6350e-01	6.7273	13.247831	0.000274	2.737251	0.463703	-0.005474
1329	6.6400e-01	6.7151	13.206779	0.000411	4.105876	0.695554	-0.008210
1330	6.6450e-01	6.7035	13.183687	0.000231	2.309555	0.391249	-0.004618
1331	6.6500e-01	6.6957	13.150332	0.000334	3.336024	0.565138	-0.006671
1332	6.6550e-01	6.6870	13.117833	0.000325	3.250485	0.550647	-0.006500
1333	6.6600e-01	6.6769	13.087899	0.000299	2.993868	0.507175	-0.005987
1334	6.6650e-01	6.6672	13.057538	0.000304	3.036638	0.514420	-0.006072
1335	6.6700e-01	6.6553	13.023328	0.000342	3.421563	0.579629	-0.006842
1336	6.6750e-01	6.6437	12.991256	0.000321	3.207716	0.543402	-0.006414
1337	6.6800e-01	6.6339	12.965598	0.000257	2.566173	0.434721	-0.005132
1338	6.6850e-01	6.6284	12.926684	0.000389	3.892028	0.659327	-0.007783
1339	6.6900e-01	6.6162	12.890764	0.000359	3.592642	0.608610	-0.007184
1340	6.6950e-01	6.6071	12.870238	0.000205	2.052938	0.347777	-0.004105
1341	6.7000e-01	6.5973	12.834745	0.000355	3.549872	0.601365	-0.007099
1342	6.7050e-01	6.5869	12.806094	0.000287	2.865559	0.485439	-0.005730
1343	6.7100e-01	6.5759	12.762049	0.000441	4.405263	0.746272	-0.008809
1344	6.7150e-01	6.5674	12.739385	0.000227	2.266786	0.384004	-0.004533
1345	6.7200e-01	6.5567	12.706030	0.000334	3.336024	0.565138	-0.006671
1346	6.7250e-01	6.5460	12.668826	0.000372	3.720950	0.630346	-0.007441
1347	6.7300e-01	6.5381	12.647445	0.000214	2.138477	0.362268	-0.004276
1348	6.7350e-01	6.5247	12.602544	0.000449	4.490802	0.760762	-0.008980
1349	6.7400e-01	6.5155	12.573894	0.000287	2.865559	0.485439	-0.005730
1350	6.7450e-01	6.5042	12.543532	0.000304	3.036638	0.514420	-0.006072
1351	6.7500e-01	6.4944	12.516164	0.000274	2.737251	0.463703	-0.005474
1352	6.7550e-01	6.4859	12.488369	0.000278	2.780020	0.470948	-0.005559
1353	6.7600e-01	6.4771	12.446889	0.000415	4.148646	0.702800	-0.008296
1354	6.7650e-01	6.4661	12.428073	0.000188	1.881860	0.318796	-0.003763
1355	6.7700e-01	6.4539	12.386594	0.000415	4.148646	0.702800	-0.008296
1356	6.7750e-01	6.4450	12.347252	0.000393	3.934798	0.666573	-0.007868
1357	6.7800e-01	6.4343	12.323305	0.000240	2.395094	0.405740	-0.004789
1358	6.7850e-01	6.4264	12.280543	0.000428	4.276954	0.724536	-0.008553
1359	6.7900e-01	6.4188	12.254030	0.000265	2.651712	0.449212	-0.005303
1360	6.7950e-01	6.4056	12.218109	0.000359	3.592642	0.608610	-0.007184
1361	6.8000e-01	6.3977	12.189458	0.000287	2.865559	0.485439	-0.005730
1362	6.8050e-01	6.3843	12.171926	0.000175	1.753551	0.297060	-0.003507
1363	6.8100e-01	6.3770	12.117190	0.000547	5.474502	0.927406	-0.010947
1364	6.8150e-01	6.3660	12.081697	0.000355	3.549872	0.601365	-0.007099
1365	6.8200e-01	6.3562	12.056039	0.000257	2.566173	0.434721	-0.005132
1366	6.8250e-01	6.3486	12.024823	0.000312	3.122177	0.528911	-0.006243
1367	6.8300e-01	6.3344	11.991896	0.000329	3.293255	0.557892	-0.006585
1368	6.8350e-01	6.3278	11.958968	0.000329	3.293255	0.557892	-0.006585
1369	6.8400e-01	6.3177	11.915351	0.000436	4.362493	0.739026	-0.008724
1370	6.8450e-01	6.3068	11.893542	0.000218	2.181247	0.369513	-0.004362
1371	6.8500e-01	6.2939	11.865746	0.000278	2.780020	0.470948	-0.005559
1372	6.8550e-01	6.2878	11.839661	0.000261	2.608942	0.441967	-0.005217
1373	6.8600e-01	6.2769	11.793050	0.000466	4.661880	0.789744	-0.009322
1374	6.8650e-01	6.2659	11.779793	0.000133	1.325856	0.224606	-0.002651
1375	6.8700e-01	6.2567	11.731899	0.000479	4.790189	0.811480	-0.009579
1376	6.8750e-01	6.2479	11.700683	0.000312	3.122177	0.528911	-0.006243
1377	6.8800e-01	6.2384	11.662196	0.000385	3.849259	0.652082	-0.007697
1378	6.8850e-01	6.2286	11.616868	0.000453	4.533572	0.768008	-0.009066
1379	6.8900e-01	6.2180	11.605750	0.000111	1.112008	0.188379	-0.002224
1380	6.8950e-01	6.2067	11.565553	0.000402	4.020337	0.681064	-0.008039
1381	6.9000e-01	6.1975	11.530488	0.000351	3.507103	0.594119	-0.007013
1382	6.9050e-01	6.1877	11.497561	0.000329	3.293255	0.557892	-0.006585
1383	6.9100e-01	6.1755	11.451805	0.000458	4.576341	0.775253	-0.009151
1384	6.9150e-01	6.1661	11.444108	0.000077	0.769852	0.130416	-0.001539
1385	6.9200e-01	6.1526	11.406049	0.000381	3.806489	0.644837	-0.007612
1386	6.9250e-01	6.1469	11.362004	0.000441	4.405263	0.746272	-0.008809
1387	6.9300e-01	6.1389	11.335918	0.000261	2.608942	0.441967	-0.005217
1388	6.9350e-01	6.1282	11.303847	0.000321	3.207716	0.543402	-0.006414
1389	6.9400e-01	6.1176	11.276051	0.000278	2.780020	0.470948	-0.005559
1390	6.9450e-01	6.1060	11.225591	0.000505	5.046806	0.854952	-0.010092
1391	6.9500e-01	6.0965	11.197795	0.000278	2.780020	0.470948	-0.005559
1392	6.9550e-01	6.0886	11.168289	0.000295	2.951098	0.499930	-0.005901
1393	6.9600e-01	6.0780	11.120823	0.000475	4.747419	0.804235	-0.009493
1394	6.9650e-01	6.0663	11.100297	0.000205	2.052938	0.347777	-0.004105
1395	6.9700e-01	6.0590	11.064804	0.000355	3.549872	0.601365	-0.007099
1396	6.9750e-01	6.0461	11.033160	0.000316	3.164946	0.536156	-0.006329
1397	6.9800e-01	6.0370	10.994246	0.000389	3.892028	0.659327	-0.007783
1398	6.9850e-01	6.0248	10.971154	0.000231	2.309555	0.391249	-0.004618
1399	6.9900e-01	6.0175	10.943358	0.000278	2.780020	0.470948	-0.005559
1400	6.9950e-01	6.0077	10.893754	0.000496	4.961267	0.840461	-0.009921
1401	7.0000e-01	5.9967	10.856978	0.000368	3.678181	0.623101	-0.007355
1402	7.0050e-01	5.9860	10.830893	0.000261	2.608942	0.441967	-0.005217
1403	7.0100e-01	5.9776	10.797111	0.000338	3.378794	0.572383	-0.006756
1404	7.0150e-01	5.9680	10.762045	0.000351	3.507103	0.594119	-0.007013
1405	7.0200e-01	5.9554	10.729546	0.000325	3.250485	0.550647	-0.006500
1406	7.0250e-01	5.9467	10.702605	0.000269	2.694481	0.456457	-0.005388
1407	7.0300e-01	5.9375	10.657277	0.000453	4.533572	0.768008	-0.009066
1408	7.0350e-01	5.9235	10.634185	0.000231	2.309555	0.391249	-0.004618
1409	7.0400e-01	5.9181	10.589712	0.000445	4.448032	0.753517	-0.008895
1410	7.0450e-01	5.9052	10.568759	0.000210	2.095708	0.355022	-0.004191
1411	7.0500e-01	5.8966	10.538397	0.000304	3.036638	0.514420	-0.006072
1412	7.0550e-01	5.8864	10.496490	0.000419	4.191415	0.710045	-0.008381
1413	7.0600e-01	5.8789	10.461852	0.000346	3.464333	0.586874	-0.006928
1414	7.0650e-01	5.8673	10.426787	0.000351	3.507103	0.594119	-0.007013
1415	7.0700e-01	5.8557	10.391294	0.000355	3.549872	0.601365	-0.007099
1416	7.0750e-01	5.8453	10.366920	0.000244	2.437864	0.412985	-0.004875
1417	7.0800e-01	5.8356	10.328006	0.000389	3.892028	0.659327	-0.007783
1418	7.0850e-01	5.8258	10.279684	0.000483	4.832958	0.818725	-0.009664
1419	7.0900e-01	5.8173	10.254454	0.000252	2.523403	0.427476	-0.005046
1420	7.0950e-01	5.8060	10.228369	0.000261	2.608942	0.441967	-0.005217
1421	7.1000e-01	5.7944	10.201001	0.000274	2.737251	0.463703	-0.005474
1422	7.1050e-01	5.7880	10.151824	0.000492	4.918497	0.833216	-0.009835
1423	7.1100e-01	5.7803	10.121035	0.000308	3.079407	0.521666	-0.006158
1424	7.1150e-01	5.7660	10.085542	0.000355	3.549872	0.601365	-0.007099
1425	7.1200e-01	5.7565	10.042780	0.000428	4.276954	0.724536	-0.008553
1426	7.1250e-01	5.7471	10.010280	0.000325	3.250485	0.550647	-0.006500
1427	7.1300e-01	5.7349	9.985478	0.000248	2.480633	0.420231	-0.004960
1428	7.1350e-01	5.7269	9.949130	0.000364	3.635411	0.615855	-0.007270
1429	7.1400e-01	5.7179	9.906795	0.000423	4.234185	0.717290	-0.008467
1430	7.1450e-01	5.7071	9.883703	0.000231	2.309555	0.391249	-0.004618
1431	7.1500e-01	5.6946	9.840940	0.000428	4.276954	0.724536	-0.008553
1432	7.1550e-01	5.6873	9.807586	0.000334	3.336024	0.565138	-0.006671
1433	7.1600e-01	5.6760	9.769527	0.000381	3.806489	0.644837	-0.007612
1434	7.1650e-01	5.6653	9.743870	0.000257	2.566173	0.434721	-0.005132
1435	7.1700e-01	5.6580	9.714791	0.000291	2.908329	0.492684	-0.005816
1436	7.1750e-01	5.6451	9.665614	0.000492	4.918497	0.833216	-0.009835
1437	7.1800e-01	5.6348	9.645516	0.000201	2.010169	0.340532	-0.004020
1438	7.1850e-01	5.6247	9.609595	0.000359	3.592642	0.608610	-0.007184
1439	7.1900e-01	5.6183	9.562556	0.000470	4.704650	0.796989	-0.009408
1440	7.1950e-01	5.6070	9.537754	0.000248	2.480633	0.420231	-0.004960
1441	7.2000e-01	5.5984	9.493281	0.000445	4.448032	0.753517	-0.008895
1442	7.2050e-01	5.5859	9.461209	0.000321	3.207716	0.543402	-0.006414
1443	7.2100e-01	5.5811	9.423151	0.000381	3.806489	0.644837	-0.007612
1444	7.2150e-01	5.5682	9.387658	0.000355	3.549872	0.601365	-0.007099
1445	7.2200e-01	5.5585	9.357724	0.000299	2.993868	0.507175	-0.005987
1446	7.2250e-01	5.5457	9.321803	0.000359	3.592642	0.608610	-0.007184
1447	7.2300e-01	5.5380	9.298284	0.000235	2.352325	0.398495	-0.004704
1448	7.2350e-01	5.5243	9.260225	0.000381	3.806489	0.644837	-0.007612
1449	7.2400e-01	5.5176	9.208483	0.000518	5.175115	0.876688	-0.010349
1450	7.2450e-01	5.5048	9.196082	0.000124	1.240317	0.210115	-0.002480
1451	7.2500e-01	5.4976	9.154602	0.000415	4.148646	0.702800	-0.008296
1452	7.2550e-01	5.4872	9.122102	0.000325	3.250485	0.550647	-0.006500
1453	7.2600e-01	5.4768	9.074636	0.000475	4.747419	0.804235	-0.009493
1454	7.2650e-01	5.4669	9.040426	0.000342	3.421563	0.579629	-0.006842
1455	7.2700e-01	5.4541	9.013913	0.000265	2.651712	0.449212	-0.005303
1456	7.2750e-01	5.4445	8.969868	0.000441	4.405263	0.746272	-0.008809
1457	7.2800e-01	5.4373	8.938223	0.000316	3.164946	0.536156	-0.006329
1458	7.2850e-01	5.4272	8.900592	0.000376	3.763720	0.637591	-0.007526
1459	7.2900e-01	5.4146	8.871514	0.000291	2.908329	0.492684	-0.005816
1460	7.2950e-01	5.4065	8.830890	0.000406	4.063107	0.688309	-0.008125
1461	7.3000e-01	5.3973	8.796680	0.000342	3.421563	0.579629	-0.006842
1462	7.3050e-01	5.3867	8.753917	0.000428	4.276954	0.724536	-0.008553
1463	7.3100e-01	5.3790	8.715431	0.000385	3.849259	0.652082	-0.007697
1464	7.3150e-01	5.3656	8.694049	0.000214	2.138477	0.362268	-0.004276
1465	7.3200e-01	5.3546	8.664543	0.000295	2.951098	0.499930	-0.005901
1466	7.3250e-01	5.3485	8.623064	0.000415	4.148646	0.702800	-0.008296
1467	7.3300e-01	5.3357	8.585860	0.000372	3.720950	0.630346	-0.007441
1468	7.3350e-01	5.3271	8.546946	0.000389	3.892028	0.659327	-0.007783
1469	7.3400e-01	5.3162	8.528131	0.000188	1.881860	0.318796	-0.003763
1470	7.3450e-01	5.3064	8.468263	0.000599	5.987736	1.014350	-0.011974
1471	7.3500e-01	5.2975	8.448165	0.000201	2.010169	0.340532	-0.004020
1472	7.3550e-01	5.2850	8.399843	0.000483	4.832958	0.818725	-0.009664
1473	7.3600e-01	5.2765	8.367771	0.000321	3.207716	0.543402	-0.006414
1474	7.3650e-01	5.2679	8.340831	0.000269	2.694481	0.456457	-0.005388
1475	7.3700e-01	5.2563	8.305338	0.000355	3.549872	0.601365	-0.007099
1476	7.3750e-01	5.2454	8.260865	0.000445	4.448032	0.753517	-0.008895
1477	7.3800e-01	5.2368	8.228793	0.000321	3.207716	0.543402	-0.006414
1478	7.3850e-01	5.2264	8.198859	0.000299	2.993868	0.507175	-0.005987
1479	7.3900e-01	5.2142	8.154814	0.000441	4.405263	0.746272	-0.008809
1480	7.3950e-01	5.2066	8.117183	0.000376	3.763720	0.637591	-0.007526
1481	7.4000e-01	5.1979	8.084683	0.000325	3.250485	0.550647	-0.006500
1482	7.4050e-01	5.1868	8.048763	0.000359	3.592642	0.608610	-0.007184
1483	7.4100e-01	5.1770	8.005145	0.000436	4.362493	0.739026	-0.008724
1484	7.4150e-01	5.1685	7.972218	0.000329	3.293255	0.557892	-0.006585
1485	7.4200e-01	5.1587	7.925179	0.000470	4.704650	0.796989	-0.009408
1486	7.4250e-01	5.1477	7.908929	0.000163	1.625243	0.275324	-0.003250
1487	7.4300e-01	5.1373	7.849490	0.000594	5.944966	1.007105	-0.011888
1488	7.4350e-01	5.1270	7.830674	0.000188	1.881860	0.318796	-0.003763
1489	7.4400e-01	5.1196	7.793471	0.000372	3.720950	0.630346	-0.007441
1490	7.4450e-01	5.1045	7.748142	0.000453	4.533572	0.768008	-0.009066
1491	7.4500e-01	5.0964	7.731893	0.000163	1.625243	0.275324	-0.003250
1492	7.4550e-01	5.0906	7.684426	0.000475	4.747419	0.804235	-0.009493
1493	7.4600e-01	5.0763	7.658341	0.000261	2.608942	0.441967	-0.005217
1494	7.4650e-01	5.0671	7.616861	0.000415	4.148646	0.702800	-0.008296
1495	7.4700e-01	5.0568	7.574526	0.000423	4.234185	0.717290	-0.008467
1496	7.4750e-01	5.0461	7.536895	0.000376	3.763720	0.637591	-0.007526
1497	7.4800e-01	5.0345	7.499264	0.000376	3.763720	0.637591	-0.007526
1498	7.4850e-01	5.0256	7.461206	0.000381	3.806489	0.644837	-0.007612
1499	7.4900e-01	5.0184	7.431272	0.000299	2.993868	0.507175	-0.005987
1500	7.4950e-01	5.0061	7.399628	0.000316	3.164946	0.536156	-0.006329
1501	7.5000e-01	4.9960	7.353872	0.000458	4.576341	0.775253	-0.009151
1502	7.5050e-01	4.9847	7.329497	0.000244	2.437864	0.412985	-0.004875
1503	7.5100e-01	4.9780	7.293577	0.000359	3.592642	0.608610	-0.007184
1504	7.5150e-01	4.9643	7.257656	0.000359	3.592642	0.608610	-0.007184
1505	7.5200e-01	4.9597	7.210617	0.000470	4.704650	0.796989	-0.009408
1506	7.5250e-01	4.9500	7.171703	0.000389	3.892028	0.659327	-0.007783
1507	7.5300e-01	4.9362	7.140487	0.000312	3.122177	0.528911	-0.006243
1508	7.5350e-01	4.9274	7.109698	0.000308	3.079407	0.521666	-0.006158
1509	7.5400e-01	4.9152	7.070356	0.000393	3.934798	0.666573	-0.007868
1510	7.5450e-01	4.9045	7.031442	0.000389	3.892028	0.659327	-0.007783
1511	7.5500e-01	4.8965	6.985259	0.000462	4.619111	0.782499	-0.009237
1512	7.5550e-01	4.8886	6.945490	0.000398	3.977568	0.673818	-0.007954
1513	7.5600e-01	4.8758	6.913418	0.000321	3.207716	0.543402	-0.006414
1514	7.5650e-01	4.8651	6.879635	0.000338	3.378794	0.572383	-0.006756
1515	7.5700e-01	4.8566	6.843715	0.000359	3.592642	0.608610	-0.007184
1516	7.5750e-01	4.8486	6.807794	0.000359	3.592642	0.608610	-0.007184
1517	7.5800e-01	4.8352	6.759900	0.000479	4.790189	0.811480	-0.009579
1518	7.5850e-01	4.8279	6.723980	0.000359	3.592642	0.608610	-0.007184
1519	7.5900e-01	4.8135	6.696612	0.000274	2.737251	0.463703	-0.005474
1520	7.5950e-01	4.8068	6.668389	0.000282	2.822790	0.478194	-0.005645
1521	7.6000e-01	4.7961	6.613225	0.000552	5.517271	0.934651	-0.011033
1522	7.6050e-01	4.7849	6.571745	0.000415	4.148646	0.702800	-0.008296
1523	7.6100e-01	4.7763	6.538818	0.000329	3.293255	0.557892	-0.006585
1524	7.6150e-01	4.7656	6.502898	0.000359	3.592642	0.608610	-0.007184
1525	7.6200e-01	4.7580	6.466549	0.000364	3.635411	0.615855	-0.007270
1526	7.6250e-01	4.7461	6.423359	0.000432	4.319724	0.731781	-0.008638
1527	7.6300e-01	4.7363	6.388294	0.000351	3.507103	0.594119	-0.007013
1528	7.6350e-01	4.7266	6.365630	0.000227	2.266786	0.384004	-0.004533
1529	7.6400e-01	4.7153	6.316453	0.000492	4.918497	0.833216	-0.009835
1530	7.6450e-01	4.7052	6.286092	0.000304	3.036638	0.514420	-0.006072
1531	7.6500e-01	4.6961	6.233921	0.000522	5.217884	0.883934	-0.010434
1532	7.6550e-01	4.6872	6.213823	0.000201	2.010169	0.340532	-0.004020
1533	7.6600e-01	4.6729	6.162080	0.000518	5.175115	0.876688	-0.010349
1534	7.6650e-01	4.6660	6.126160	0.000359	3.592642	0.608610	-0.007184
1535	7.6700e-01	4.6564	6.091094	0.000351	3.507103	0.594119	-0.007013
1536	7.6750e-01	4.6472	6.053891	0.000372	3.720950	0.630346	-0.007441
1537	7.6800e-01	4.6347	6.017970	0.000359	3.592642	0.608610	-0.007184
1538	7.6850e-01	4.6265	5.980339	0.000376	3.763720	0.637591	-0.007526
1539	7.6900e-01	4.6143	5.941853	0.000385	3.849259	0.652082	-0.007697
1540	7.6950e-01	4.6060	5.907216	0.000346	3.464333	0.586874	-0.006928
1541	7.7000e-01	4.5955	5.871295	0.000359	3.592642	0.608610	-0.007184
1542	7.7050e-01	4.5850	5.837085	0.000342	3.421563	0.579629	-0.006842
1543	7.7100e-01	4.5770	5.787480	0.000496	4.961267	0.840461	-0.009921
1544	7.7150e-01	4.5638	5.754553	0.000329	3.293255	0.557892	-0.006585
1545	7.7200e-01	4.5581	5.708797	0.000458	4.576341	0.775253	-0.009151
1546	7.7250e-01	4.5465	5.675015	0.000338	3.378794	0.572383	-0.006756
1547	7.7300e-01	4.5386	5.641233	0.000338	3.378794	0.572383	-0.006756
1548	7.7350e-01	4.5253	5.591628	0.000496	4.961267	0.840461	-0.009921
1549	7.7400e-01	4.5175	5.565115	0.000265	2.651712	0.449212	-0.005303
1550	7.7450e-01	4.5074	5.530905	0.000342	3.421563	0.579629	-0.006842
1551	7.7500e-01	4.4971	5.473604	0.000573	5.731119	0.970878	-0.011460
1552	7.7550e-01	4.4862	5.447518	0.000261	2.608942	0.441967	-0.005217
1553	7.7600e-01	4.4785	5.409032	0.000385	3.849259	0.652082	-0.007697
1554	7.7650e-01	4.4641	5.385085	0.000240	2.395094	0.405740	-0.004789
1555	7.7700e-01	4.4565	5.327356	0.000577	5.773888	0.978123	-0.011546
1556	7.7750e-01	4.4482	5.290152	0.000372	3.720950	0.630346	-0.007441
1557	7.7800e-01	4.4373	5.257653	0.000325	3.250485	0.550647	-0.006500
1558	7.7850e-01	4.4258	5.204200	0.000535	5.346193	0.905670	-0.010691
1559	7.7900e-01	4.4183	5.173411	0.000308	3.079407	0.521666	-0.006158
1560	7.7950e-01	4.4058	5.134924	0.000385	3.849259	0.652082	-0.007697
1561	7.8000e-01	4.3961	5.101570	0.000334	3.336024	0.565138	-0.006671
1562	7.8050e-01	4.3861	5.058807	0.000428	4.276954	0.724536	-0.008553
1563	7.8100e-01	4.3774	5.009202	0.000496	4.961267	0.840461	-0.009921
1564	7.8150e-01	4.3668	4.983545	0.000257	2.566173	0.434721	-0.005132
1565	7.8200e-01	4.3573	4.947624	0.000359	3.592642	0.608610	-0.007184
1566	7.8250e-01	4.3481	4.899303	0.000483	4.832958	0.818725	-0.009664
1567	7.8300e-01	4.3356	4.871507	0.000278	2.780020	0.470948	-0.005559
1568	7.8350e-01	4.3237	4.827889	0.000436	4.362493	0.739026	-0.008724
1569	7.8400e-01	4.3134	4.803942	0.000240	2.395094	0.405740	-0.004789
1570	7.8450e-01	4.3033	4.749206	0.000547	5.474502	0.927406	-0.010947
1571	7.8500e-01	4.2944	4.718845	0.000304	3.036638	0.514420	-0.006072
1572	7.8550e-01	4.2865	4.670096	0.000488	4.875728	0.825971	-0.009750
1573	7.8600e-01	4.2764	4.620919	0.000492	4.918497	0.833216	-0.009835
1574	7.8650e-01	4.2667	4.594406	0.000265	2.651712	0.449212	-0.005303
1575	7.8700e-01	4.2554	4.549505	0.000449	4.490802	0.760762	-0.008980
1576	7.8750e-01	4.2468	4.517433	0.000321	3.207716	0.543402	-0.006414
1577	7.8800e-01	4.2347	4.470395	0.000470	4.704650	0.796989	-0.009408
1578	7.8850e-01	4.2281	4.437895	0.000325	3.250485	0.550647	-0.006500
1579	7.8900e-01	4.2155	4.401975	0.000359	3.592642	0.608610	-0.007184
1580	7.8950e-01	4.2078	4.348521	0.000535	5.346193	0.905670	-0.010691
1581	7.9000e-01	4.1968	4.310463	0.000381	3.806489	0.644837	-0.007612
1582	7.9050e-01	4.1890	4.273259	0.000372	3.720950	0.630346	-0.007441
1583	7.9100e-01	4.1757	4.234345	0.000389	3.892028	0.659327	-0.007783
1584	7.9150e-01	4.1638	4.207833	0.000265	2.651712	0.449212	-0.005303
1585	7.9200e-01	4.1568	4.157801	0.000500	5.004037	0.847707	-0.010006
1586	7.9250e-01	4.1443	4.118031	0.000398	3.977568	0.673818	-0.007954
1587	7.9300e-01	4.1397	4.081683	0.000364	3.635411	0.615855	-0.007270
1588	7.9350e-01	4.1235	4.045335	0.000364	3.635411	0.615855	-0.007270
1589	7.9400e-01	4.1156	4.007704	0.000376	3.763720	0.637591	-0.007526
1590	7.9450e-01	4.1058	3.962376	0.000453	4.533572	0.768008	-0.009066
1591	7.9500e-01	4.0955	3.925600	0.000368	3.678181	0.623101	-0.007355
1592	7.9550e-01	4.0857	3.867443	0.000582	5.816658	0.985369	-0.011631
1593	7.9600e-01	4.0759	3.847345	0.000201	2.010169	0.340532	-0.004020
1594	7.9650e-01	4.0668	3.808858	0.000385	3.849259	0.652082	-0.007697
1595	7.9700e-01	4.0549	3.758399	0.000505	5.046806	0.854952	-0.010092
1596	7.9750e-01	4.0488	3.721623	0.000368	3.678181	0.623101	-0.007355
1597	7.9800e-01	4.0350	3.682709	0.000389	3.892028	0.659327	-0.007783
1598	7.9850e-01	4.0266	3.639946	0.000428	4.276954	0.724536	-0.008553
1599	7.9900e-01	4.0125	3.605736	0.000342	3.421563	0.579629	-0.006842
1600	7.9950e-01	4.0070	3.556132	0.000496	4.961267	0.840461	-0.009921
1601	8.0000e-01	3.9978	3.522349	0.000338	3.378794	0.572383	-0.006756
1602	8.0050e-01	3.9859	3.469324	0.000530	5.303423	0.898424	-0.010605
1603	8.0100e-01	3.9764	3.439818	0.000295	2.951098	0.499930	-0.005901
1604	8.0150e-01	3.9653	3.399621	0.000402	4.020337	0.681064	-0.008039
1605	8.0200e-01	3.9572	3.365411	0.000342	3.421563	0.579629	-0.006842
1606	8.0250e-01	3.9450	3.325642	0.000398	3.977568	0.673818	-0.007954
1607	8.0300e-01	3.9362	3.279458	0.000462	4.619111	0.782499	-0.009237
1608	8.0350e-01	3.9261	3.243965	0.000355	3.549872	0.601365	-0.007099
1609	8.0400e-01	3.9154	3.194788	0.000492	4.918497	0.833216	-0.009835
1610	8.0450e-01	3.9050	3.166565	0.000282	2.822790	0.478194	-0.005645
1611	8.0500e-01	3.8971	3.122520	0.000441	4.405263	0.746272	-0.008809
1612	8.0550e-01	3.8901	3.074626	0.000479	4.790189	0.811480	-0.009579
1613	8.0600e-01	3.8770	3.038278	0.000364	3.635411	0.615855	-0.007270
1614	8.0650e-01	3.8644	2.997653	0.000406	4.063107	0.688309	-0.008125
1615	8.0700e-01	3.8574	2.958312	0.000393	3.934798	0.666573	-0.007868
1616	8.0750e-01	3.8458	2.921536	0.000368	3.678181	0.623101	-0.007355
1617	8.0800e-01	3.8373	2.861668	0.000599	5.987736	1.014350	-0.011974
1618	8.0850e-01	3.8251	2.850550	0.000111	1.112008	0.188379	-0.002224
1619	8.0900e-01	3.8171	2.781702	0.000689	6.885896	1.166502	-0.013770
1620	8.0950e-01	3.8052	2.749203	0.000325	3.250485	0.550647	-0.006500
1621	8.1000e-01	3.7970	2.712855	0.000364	3.635411	0.615855	-0.007270
1622	8.1050e-01	3.7863	2.667954	0.000449	4.490802	0.760762	-0.008980
1623	8.1100e-01	3.7744	2.631178	0.000368	3.678181	0.623101	-0.007355
1624	8.1150e-01	3.7695	2.586705	0.000445	4.448032	0.753517	-0.008895
1625	8.1200e-01	3.7573	2.554633	0.000321	3.207716	0.543402	-0.006414
1626	8.1250e-01	3.7457	2.504174	0.000505	5.046806	0.854952	-0.010092
1627	8.1300e-01	3.7378	2.457990	0.000462	4.619111	0.782499	-0.009237
1628	8.1350e-01	3.7268	2.428484	0.000295	2.951098	0.499930	-0.005901
1629	8.1400e-01	3.7164	2.376741	0.000518	5.175115	0.876688	-0.010349
1630	8.1450e-01	3.7061	2.338255	0.000385	3.849259	0.652082	-0.007697
1631	8.1500e-01	3.6960	2.297631	0.000406	4.063107	0.688309	-0.008125
1632	8.1550e-01	3.6868	2.262138	0.000355	3.549872	0.601365	-0.007099
1633	8.1600e-01	3.6780	2.216382	0.000458	4.576341	0.775253	-0.009151
1634	8.1650e-01	3.6682	2.172336	0.000441	4.405263	0.746272	-0.008809
1635	8.1700e-01	3.6591	2.136416	0.000359	3.592642	0.608610	-0.007184
1636	8.1750e-01	3.6469	2.094509	0.000419	4.191415	0.710045	-0.008381
1637	8.1800e-01	3.6369	2.056022	0.000385	3.849259	0.652082	-0.007697
1638	8.1850e-01	3.6264	2.010694	0.000453	4.533572	0.768008	-0.009066
1639	8.1900e-01	3.6143	1.976484	0.000342	3.421563	0.579629	-0.006842
1640	8.1950e-01	3.6047	1.928590	0.000479	4.790189	0.811480	-0.009579
1641	8.2000e-01	3.5957	1.886255	0.000423	4.234185	0.717290	-0.008467
1642	8.2050e-01	3.5844	1.850762	0.000355	3.549872	0.601365	-0.007099
1643	8.2100e-01	3.5788	1.806717	0.000441	4.405263	0.746272	-0.008809
1644	8.2150e-01	3.5675	1.766092	0.000406	4.063107	0.688309	-0.008125
1645	8.2200e-01	3.5550	1.722047	0.000441	4.405263	0.746272	-0.008809
1646	8.2250e-01	3.5464	1.670304	0.000518	5.175115	0.876688	-0.010349
1647	8.2300e-01	3.5359	1.639515	0.000308	3.079407	0.521666	-0.006158
1648	8.2350e-01	3.5250	1.589483	0.000500	5.004037	0.847707	-0.010006
1649	8.2400e-01	3.5150	1.546293	0.000432	4.319724	0.731781	-0.008638
1650	8.2450e-01	3.5040	1.518925	0.000274	2.737251	0.463703	-0.005474
1651	8.2500e-01	3.4962	1.456919	0.000620	6.201584	1.050577	-0.012401
1652	8.2550e-01	3.4857	1.419288	0.000376	3.763720	0.637591	-0.007526
1653	8.2600e-01	3.4761	1.379519	0.000398	3.977568	0.673818	-0.007954
1654	8.2650e-01	3.4669	1.339750	0.000398	3.977568	0.673818	-0.007954
1655	8.2700e-01	3.4601	1.308533	0.000312	3.122177	0.528911	-0.006243
1656	8.2750e-01	3.4470	1.254225	0.000543	5.431732	0.920160	-0.010862
1657	8.2800e-01	3.4372	1.214028	0.000402	4.020337	0.681064	-0.008039
1658	8.2850e-01	3.4256	1.158009	0.000560	5.602810	0.949142	-0.011204
1659	8.2900e-01	3.4158	1.138766	0.000192	1.924629	0.326041	-0.003849
1660	8.2950e-01	3.4049	1.083602	0.000552	5.517271	0.934651	-0.011033
1661	8.3000e-01	3.3939	1.041695	0.000419	4.191415	0.710045	-0.008381
1662	8.3050e-01	3.3859	1.005347	0.000364	3.635411	0.615855	-0.007270
1663	8.3100e-01	3.3765	0.956598	0.000488	4.875728	0.825971	-0.009750
1664	8.3150e-01	3.3665	0.912980	0.000436	4.362493	0.739026	-0.008724
1665	8.3200e-01	3.3595	0.877915	0.000351	3.507103	0.594119	-0.007013
1666	8.3250e-01	3.3453	0.827027	0.000509	5.089576	0.862197	-0.010177
1667	8.3300e-01	3.3365	0.789396	0.000376	3.763720	0.637591	-0.007526
1668	8.3350e-01	3.3267	0.742357	0.000470	4.704650	0.796989	-0.009408
1669	8.3400e-01	3.3191	0.703871	0.000385	3.849259	0.652082	-0.007697
1670	8.3450e-01	3.3081	0.658971	0.000449	4.490802	0.760762	-0.008980
1671	8.3500e-01	3.2959	0.609366	0.000496	4.961267	0.840461	-0.009921
1672	8.3550e-01	3.2877	0.571307	0.000381	3.806489	0.644837	-0.007612
1673	8.3600e-01	3.2776	0.530255	0.000411	4.105876	0.695554	-0.008210
1674	8.3650e-01	3.2663	0.492624	0.000376	3.763720	0.637591	-0.007526
1675	8.3700e-01	3.2547	0.440882	0.000518	5.175115	0.876688	-0.010349
1676	8.3750e-01	3.2462	0.391277	0.000496	4.961267	0.840461	-0.009921
1677	8.3800e-01	3.2344	0.349370	0.000419	4.191415	0.710045	-0.008381
1678	8.3850e-01	3.2263	0.320291	0.000291	2.908329	0.492684	-0.005816
1679	8.3900e-01	3.2179	0.266838	0.000535	5.346193	0.905670	-0.010691
1680	8.3950e-01	3.2062	0.227924	0.000389	3.892028	0.659327	-0.007783
1681	8.4000e-01	3.1964	0.195852	0.000321	3.207716	0.543402	-0.006414
1682	8.4050e-01	3.1863	0.138123	0.000577	5.773888	0.978123	-0.011546
1683	8.4100e-01	3.1757	0.099209	0.000389	3.892028	0.659327	-0.007783
1684	8.4150e-01	3.1654	0.048749	0.000505	5.046806	0.854952	-0.010092
1685	8.4200e-01	3.1555	0.013684	0.000351	3.507103	0.594119	-0.007013
1686	8.4250e-01	3.1454	-0.025658	0.000393	3.934798	0.666573	-0.007868
1687	8.4300e-01	3.1348	-0.077828	0.000522	5.217884	0.883934	-0.010434
1688	8.4350e-01	3.1252	-0.107762	0.000299	2.993868	0.507175	-0.005987
1689	8.4400e-01	3.1137	-0.159932	0.000522	5.217884	0.883934	-0.010434
1690	8.4450e-01	3.1070	-0.211247	0.000513	5.132345	0.869443	-0.010263
1691	8.4500e-01	3.0959	-0.248878	0.000376	3.763720	0.637591	-0.007526
1692	8.4550e-01	3.0866	-0.304469	0.000556	5.560041	0.941896	-0.011118
1693	8.4600e-01	3.0757	-0.337396	0.000329	3.293255	0.557892	-0.006585
1694	8.4650e-01	3.0652	-0.386146	0.000488	4.875728	0.825971	-0.009750
1695	8.4700e-01	3.0536	-0.428481	0.000423	4.234185	0.717290	-0.008467
1696	8.4750e-01	3.0473	-0.457131	0.000287	2.865559	0.485439	-0.005730
1697	8.4800e-01	3.0360	-0.519992	0.000629	6.287123	1.065067	-0.012572
1698	8.4850e-01	3.0243	-0.552919	0.000329	3.293255	0.557892	-0.006585
1699	8.4900e-01	3.0154	-0.599531	0.000466	4.661880	0.789744	-0.009322
1700	8.4950e-01	3.0063	-0.654267	0.000547	5.474502	0.927406	-0.010947
1701	8.5000e-01	2.9957	-0.682918	0.000287	2.865559	0.485439	-0.005730
1702	8.5050e-01	2.9858	-0.744923	0.000620	6.201584	1.050577	-0.012401
1703	8.5100e-01	2.9767	-0.777423	0.000325	3.250485	0.550647	-0.006500
1704	8.5150e-01	2.9663	-0.823606	0.000462	4.619111	0.782499	-0.009237
1705	8.5200e-01	2.9584	-0.868935	0.000453	4.533572	0.768008	-0.009066
1706	8.5250e-01	2.9471	-0.901434	0.000325	3.250485	0.550647	-0.006500
1707	8.5300e-01	2.9359	-0.960019	0.000586	5.859427	0.992614	-0.011717
1708	8.5350e-01	2.9274	-0.998077	0.000381	3.806489	0.644837	-0.007612
1709	8.5400e-01	2.9205	-1.053241	0.000552	5.517271	0.934651	-0.011033
1710	8.5450e-01	2.9074	-1.087023	0.000338	3.378794	0.572383	-0.006756
1711	8.5500e-01	2.8973	-1.133635	0.000466	4.661880	0.789744	-0.009322
1712	8.5550e-01	2.8812	-1.172549	0.000389	3.892028	0.659327	-0.007783
1713	8.5600e-01	2.8760	-1.218732	0.000462	4.619111	0.782499	-0.009237
1714	8.5650e-01	2.8662	-1.264916	0.000462	4.619111	0.782499	-0.009237
1715	8.5700e-01	2.8564	-1.308106	0.000432	4.319724	0.731781	-0.008638
1716	8.5750e-01	2.8474	-1.361559	0.000535	5.346193	0.905670	-0.010691
1717	8.5800e-01	2.8351	-1.415867	0.000543	5.431732	0.920160	-0.010862
1718	8.5850e-01	2.8249	-1.438959	0.000231	2.309555	0.391249	-0.004618
1719	8.5900e-01	2.8168	-1.505241	0.000663	6.629279	1.123030	-0.013256
1720	8.5950e-01	2.8059	-1.541161	0.000359	3.592642	0.608610	-0.007184
1721	8.6000e-01	2.7979	-1.589483	0.000483	4.832958	0.818725	-0.009664
1722	8.6050e-01	2.7875	-1.626687	0.000372	3.720950	0.630346	-0.007441
1723	8.6100e-01	2.7742	-1.672870	0.000462	4.619111	0.782499	-0.009237
1724	8.6150e-01	2.7655	-1.720764	0.000479	4.790189	0.811480	-0.009579
1725	8.6200e-01	2.7570	-1.760961	0.000402	4.020337	0.681064	-0.008039
1726	8.6250e-01	2.7460	-1.813131	0.000522	5.217884	0.883934	-0.010434
1727	8.6300e-01	2.7371	-1.867440	0.000543	5.431732	0.920160	-0.010862
1728	8.6350e-01	2.7261	-1.899084	0.000316	3.164946	0.536156	-0.006329
1729	8.6400e-01	2.7139	-1.956813	0.000577	5.773888	0.978123	-0.011546
1730	8.6450e-01	2.7051	-1.985037	0.000282	2.822790	0.478194	-0.005645
1731	8.6500e-01	2.6950	-2.027371	0.000423	4.234185	0.717290	-0.008467
1732	8.6550e-01	2.6828	-2.080825	0.000535	5.346193	0.905670	-0.010691
1733	8.6600e-01	2.6736	-2.140692	0.000599	5.987736	1.014350	-0.011974
1734	8.6650e-01	2.6654	-2.178323	0.000376	3.763720	0.637591	-0.007526
1735	8.6700e-01	2.6537	-2.213816	0.000355	3.549872	0.601365	-0.007099
1736	8.6750e-01	2.6437	-2.264276	0.000505	5.046806	0.854952	-0.010092
1737	8.6800e-01	2.6379	-2.313025	0.000488	4.875728	0.825971	-0.009750
1738	8.6850e-01	2.6257	-2.360064	0.000470	4.704650	0.796989	-0.009408
1739	8.6900e-01	2.6147	-2.413945	0.000539	5.388962	0.912915	-0.010776
1740	8.6950e-01	2.6070	-2.451576	0.000376	3.763720	0.637591	-0.007526
1741	8.7000e-01	2.5944	-2.501180	0.000496	4.961267	0.840461	-0.009921
1742	8.7050e-01	2.5865	-2.551640	0.000505	5.046806	0.854952	-0.010092
1743	8.7100e-01	2.5754	-2.584995	0.000334	3.336024	0.565138	-0.006671
1744	8.7150e-01	2.5671	-2.624764	0.000398	3.977568	0.673818	-0.007954
1745	8.7200e-01	2.5549	-2.683349	0.000586	5.859427	0.992614	-0.011717
1746	8.7250e-01	2.5476	-2.730815	0.000475	4.747419	0.804235	-0.009493
1747	8.7300e-01	2.5348	-2.774860	0.000441	4.405263	0.746272	-0.008809
1748	8.7350e-01	2.5281	-2.830024	0.000552	5.517271	0.934651	-0.011033
1749	8.7400e-01	2.5163	-2.877063	0.000470	4.704650	0.796989	-0.009408
1750	8.7450e-01	2.5061	-2.914266	0.000372	3.720950	0.630346	-0.007441
1751	8.7500e-01	2.4951	-2.960022	0.000458	4.576341	0.775253	-0.009151
1752	8.7550e-01	2.4903	-3.011337	0.000513	5.132345	0.869443	-0.010263
1753	8.7600e-01	2.4765	-3.054100	0.000428	4.276954	0.724536	-0.008553
1754	8.7650e-01	2.4683	-3.103704	0.000496	4.961267	0.840461	-0.009921
1755	8.7700e-01	2.4567	-3.146039	0.000423	4.234185	0.717290	-0.008467
1756	8.7750e-01	2.4448	-3.197354	0.000513	5.132345	0.869443	-0.010263
1757	8.7800e-01	2.4348	-3.238834	0.000415	4.148646	0.702800	-0.008296
1758	8.7850e-01	2.4245	-3.291432	0.000526	5.260654	0.891179	-0.010520
1759	8.7900e-01	2.4164	-3.334194	0.000428	4.276954	0.724536	-0.008553
1760	8.7950e-01	2.4039	-3.388075	0.000539	5.388962	0.912915	-0.010776
1761	8.8000e-01	2.3962	-3.425706	0.000376	3.763720	0.637591	-0.007526
1762	8.8050e-01	2.3838	-3.461199	0.000355	3.549872	0.601365	-0.007099
1763	8.8100e-01	2.3754	-3.526626	0.000654	6.543740	1.108540	-0.013085
1764	8.8150e-01	2.3665	-3.564257	0.000376	3.763720	0.637591	-0.007526
1765	8.8200e-01	2.3547	-3.613006	0.000488	4.875728	0.825971	-0.009750
1766	8.8250e-01	2.3463	-3.662183	0.000492	4.918497	0.833216	-0.009835
1767	8.8300e-01	2.3357	-3.710932	0.000488	4.875728	0.825971	-0.009750
1768	8.8350e-01	2.3271	-3.754122	0.000432	4.319724	0.731781	-0.008638
1769	8.8400e-01	2.3177	-3.795602	0.000415	4.148646	0.702800	-0.008296
1770	8.8450e-01	2.3082	-3.859318	0.000637	6.372662	1.079558	-0.012743
1771	8.8500e-01	2.2961	-3.898232	0.000389	3.892028	0.659327	-0.007783
1772	8.8550e-01	2.2855	-3.941850	0.000436	4.362493	0.739026	-0.008724
1773	8.8600e-01	2.2758	-3.982474	0.000406	4.063107	0.688309	-0.008125
1774	8.8650e-01	2.2650	-4.044907	0.000624	6.244353	1.057822	-0.012487
1775	8.8700e-01	2.2579	-4.093657	0.000488	4.875728	0.825971	-0.009750
1776	8.8750e-01	2.2476	-4.129577	0.000359	3.592642	0.608610	-0.007184
1777	8.8800e-01	2.2346	-4.180892	0.000513	5.132345	0.869443	-0.010263
1778	8.8850e-01	2.2238	-4.230069	0.000492	4.918497	0.833216	-0.009835
1779	8.8900e-01	2.2168	-4.281384	0.000513	5.132345	0.869443	-0.010263
1780	8.8950e-01	2.2055	-4.325430	0.000441	4.405263	0.746272	-0.008809
1781	8.9000e-01	2.1960	-4.376745	0.000513	5.132345	0.869443	-0.010263
1782	8.9050e-01	2.1864	-4.423356	0.000466	4.661880	0.789744	-0.009322
1783	8.9100e-01	2.1754	-4.472960	0.000496	4.961267	0.840461	-0.009921
1784	8.9150e-01	2.1641	-4.517433	0.000445	4.448032	0.753517	-0.008895
1785	8.9200e-01	2.1552	-4.565327	0.000479	4.790189	0.811480	-0.009579
1786	8.9250e-01	2.1464	-4.618353	0.000530	5.303423	0.898424	-0.010605
1787	8.9300e-01	2.1335	-4.672661	0.000543	5.431732	0.920160	-0.010862
1788	8.9350e-01	2.1243	-4.720128	0.000475	4.747419	0.804235	-0.009493
1789	8.9400e-01	2.1149	-4.765028	0.000449	4.490802	0.760762	-0.008980
1790	8.9450e-01	2.1045	-4.809929	0.000449	4.490802	0.760762	-0.008980
1791	8.9500e-01	2.0934	-4.847132	0.000372	3.720950	0.630346	-0.007441
1792	8.9550e-01	2.0853	-4.914270	0.000671	6.714818	1.137521	-0.013427
1793	8.9600e-01	2.0744	-4.946769	0.000325	3.250485	0.550647	-0.006500
1794	8.9650e-01	2.0673	-5.006637	0.000599	5.987736	1.014350	-0.011974
1795	8.9700e-01	2.0557	-5.050682	0.000441	4.405263	0.746272	-0.008809
1796	8.9750e-01	2.0468	-5.097293	0.000466	4.661880	0.789744	-0.009322
1797	8.9800e-01	2.0332	-5.161865	0.000646	6.458201	1.094049	-0.012914
1798	8.9850e-01	2.0283	-5.197358	0.000355	3.549872	0.601365	-0.007099
1799	8.9900e-01	2.0160	-5.255515	0.000582	5.816658	0.985369	-0.011631
1800	8.9950e-01	2.0059	-5.305974	0.000505	5.046806	0.854952	-0.010092
1801	9.0000e-01	1.9942	-5.332915	0.000269	2.694481	0.456457	-0.005388
1802	9.0050e-01	1.9864	-5.399624	0.000667	6.672049	1.130276	-0.013342
1803	9.0100e-01	1.9789	-5.439821	0.000402	4.020337	0.681064	-0.008039
1804	9.0150e-01	1.9676	-5.496695	0.000569	5.688349	0.963632	-0.011375
1805	9.0200e-01	1.9566	-5.545017	0.000483	4.832958	0.818725	-0.009664
1806	9.0250e-01	1.9473	-5.591200	0.000462	4.619111	0.782499	-0.009237
1807	9.0300e-01	1.9360	-5.642088	0.000509	5.089576	0.862197	-0.010177
1808	9.0350e-01	1.9281	-5.693403	0.000513	5.132345	0.869443	-0.010263
1809	9.0400e-01	1.9180	-5.748994	0.000556	5.560041	0.941896	-0.011118
1810	9.0450e-01	1.9087	-5.787908	0.000389	3.892028	0.659327	-0.007783
1811	9.0500e-01	1.8983	-5.841361	0.000535	5.346193	0.905670	-0.010691
1812	9.0550e-01	1.8842	-5.890966	0.000496	4.961267	0.840461	-0.009921
1813	9.0600e-01	1.8759	-5.934156	0.000432	4.319724	0.731781	-0.008638
1814	9.0650e-01	1.8642	-5.989320	0.000552	5.517271	0.934651	-0.011033
1815	9.0700e-01	1.8557	-6.039779	0.000505	5.046806	0.854952	-0.010092
1816	9.0750e-01	1.8469	-6.082114	0.000423	4.234185	0.717290	-0.008467
1817	9.0800e-01	1.8353	-6.147969	0.000659	6.586510	1.115785	-0.013171
1818	9.0850e-01	1.8245	-6.181751	0.000338	3.378794	0.572383	-0.006756
1819	9.0900e-01	1.8195	-6.237770	0.000560	5.602810	0.949142	-0.011204
1820	9.0950e-01	1.8063	-6.289085	0.000513	5.132345	0.869443	-0.010263
1821	9.1000e-01	1.7955	-6.330992	0.000419	4.191415	0.710045	-0.008381
1822	9.1050e-01	1.7847	-6.385301	0.000543	5.431732	0.920160	-0.010862
1823	9.1100e-01	1.7735	-6.435760	0.000505	5.046806	0.854952	-0.010092
1824	9.1150e-01	1.7663	-6.493062	0.000573	5.731119	0.970878	-0.011460
1825	9.1200e-01	1.7567	-6.533687	0.000406	4.063107	0.688309	-0.008125
1826	9.1250e-01	1.7455	-6.590988	0.000573	5.731119	0.970878	-0.011460
1827	9.1300e-01	1.7371	-6.642731	0.000518	5.175115	0.876688	-0.010349
1828	9.1350e-01	1.7253	-6.681217	0.000385	3.849259	0.652082	-0.007697
1829	9.1400e-01	1.7158	-6.734670	0.000535	5.346193	0.905670	-0.010691
1830	9.1450e-01	1.7032	-6.785985	0.000513	5.132345	0.869443	-0.010263
1831	9.1500e-01	1.6968	-6.849274	0.000633	6.329892	1.072313	-0.012658
1832	9.1550e-01	1.6844	-6.891609	0.000423	4.234185	0.717290	-0.008467
1833	9.1600e-01	1.6752	-6.942069	0.000505	5.046806	0.854952	-0.010092
1834	9.1650e-01	1.6638	-6.986969	0.000449	4.490802	0.760762	-0.008980
1835	9.1700e-01	1.6563	-7.038712	0.000518	5.175115	0.876688	-0.010349
1836	9.1750e-01	1.6454	-7.081902	0.000432	4.319724	0.731781	-0.008638
1837	9.1800e-01	1.6348	-7.140487	0.000586	5.859427	0.992614	-0.011717
1838	9.1850e-01	1.6241	-7.189664	0.000492	4.918497	0.833216	-0.009835
1839	9.1900e-01	1.6142	-7.243117	0.000535	5.346193	0.905670	-0.010691
1840	9.1950e-01	1.6064	-7.302557	0.000594	5.944966	1.007105	-0.011888
1841	9.2000e-01	1.5965	-7.349596	0.000470	4.704650	0.796989	-0.009408
1842	9.2050e-01	1.5841	-7.388082	0.000385	3.849259	0.652082	-0.007697
1843	9.2100e-01	1.5749	-7.448377	0.000603	6.030506	1.021595	-0.012059
1844	9.2150e-01	1.5640	-7.503968	0.000556	5.560041	0.941896	-0.011118
1845	9.2200e-01	1.5536	-7.552718	0.000488	4.875728	0.825971	-0.009750
1846	9.2250e-01	1.5445	-7.601467	0.000488	4.875728	0.825971	-0.009750
1847	9.2300e-01	1.5367	-7.644229	0.000428	4.276954	0.724536	-0.008553
1848	9.2350e-01	1.5257	-7.707090	0.000629	6.287123	1.065067	-0.012572
1849	9.2400e-01	1.5164	-7.754129	0.000470	4.704650	0.796989	-0.009408
1850	9.2450e-01	1.5102	-7.808438	0.000543	5.431732	0.920160	-0.010862
1851	9.2500e-01	1.4987	-7.869588	0.000612	6.116045	1.036086	-0.012230
1852	9.2550e-01	1.4838	-7.907647	0.000381	3.806489	0.644837	-0.007612
1853	9.2600e-01	1.4756	-7.966231	0.000586	5.859427	0.992614	-0.011717
1854	9.2650e-01	1.4659	-8.008994	0.000428	4.276954	0.724536	-0.008553
1855	9.2700e-01	1.4558	-8.073138	0.000642	6.415431	1.086804	-0.012829
1856	9.2750e-01	1.4429	-8.120604	0.000475	4.747419	0.804235	-0.009493
1857	9.2800e-01	1.4351	-8.165077	0.000445	4.448032	0.753517	-0.008895
1858	9.2850e-01	1.4242	-8.215109	0.000500	5.004037	0.847707	-0.010006
1859	9.2900e-01	1.4152	-8.272839	0.000577	5.773888	0.978123	-0.011546
1860	9.2950e-01	1.4066	-8.329713	0.000569	5.688349	0.963632	-0.011375
1861	9.3000e-01	1.3966	-8.377179	0.000475	4.747419	0.804235	-0.009493
1862	9.3050e-01	1.3853	-8.434909	0.000577	5.773888	0.978123	-0.011546
1863	9.3100e-01	1.3757	-8.484085	0.000492	4.918497	0.833216	-0.009835
1864	9.3150e-01	1.3675	-8.540104	0.000560	5.602810	0.949142	-0.011204
1865	9.3200e-01	1.3569	-8.587143	0.000470	4.704650	0.796989	-0.009408
1866	9.3250e-01	1.3466	-8.642734	0.000556	5.560041	0.941896	-0.011118
1867	9.3300e-01	1.3371	-8.697898	0.000552	5.517271	0.934651	-0.011033
1868	9.3350e-01	1.3257	-8.742799	0.000449	4.490802	0.760762	-0.008980
1869	9.3400e-01	1.3136	-8.791120	0.000483	4.832958	0.818725	-0.009664
1870	9.3450e-01	1.3062	-8.853981	0.000629	6.287123	1.065067	-0.012572
1871	9.3500e-01	1.2961	-8.898882	0.000449	4.490802	0.760762	-0.008980
1872	9.3550e-01	1.2862	-8.959605	0.000607	6.073275	1.028841	-0.012145
1873	9.3600e-01	1.2762	-9.011775	0.000522	5.217884	0.883934	-0.010434
1874	9.3650e-01	1.2654	-9.055393	0.000436	4.362493	0.739026	-0.008724
1875	9.3700e-01	1.2572	-9.119964	0.000646	6.458201	1.094049	-0.012914
1876	9.3750e-01	1.2455	-9.171279	0.000513	5.132345	0.869443	-0.010263
1877	9.3800e-01	1.2354	-9.211476	0.000402	4.020337	0.681064	-0.008039
1878	9.3850e-01	1.2269	-9.271771	0.000603	6.030506	1.021595	-0.012059
1879	9.3900e-01	1.2160	-9.314534	0.000428	4.276954	0.724536	-0.008553
1880	9.3950e-01	1.2085	-9.377395	0.000629	6.287123	1.065067	-0.012572
1881	9.4000e-01	1.1951	-9.429137	0.000518	5.175115	0.876688	-0.010349
1882	9.4050e-01	1.1842	-9.480025	0.000509	5.089576	0.862197	-0.010177
1883	9.4100e-01	1.1781	-9.545024	0.000650	6.500971	1.101294	-0.013000
1884	9.4150e-01	1.1648	-9.589924	0.000449	4.490802	0.760762	-0.008980
1885	9.4200e-01	1.1577	-9.636536	0.000466	4.661880	0.789744	-0.009322
1886	9.4250e-01	1.1484	-9.709232	0.000727	7.270822	1.231711	-0.014539
1887	9.4300e-01	1.1377	-9.746008	0.000368	3.678181	0.623101	-0.007355
1888	9.4350e-01	1.1278	-9.800316	0.000543	5.431732	0.920160	-0.010862
1889	9.4400e-01	1.1195	-9.849493	0.000492	4.918497	0.833216	-0.009835
1890	9.4450e-01	1.1073	-9.910643	0.000612	6.116045	1.036086	-0.012230
1891	9.4500e-01	1.0977	-9.961958	0.000513	5.132345	0.869443	-0.010263
1892	9.4550e-01	1.0860	-10.012846	0.000509	5.089576	0.862197	-0.010177
1893	9.4600e-01	1.0735	-10.076134	0.000633	6.329892	1.072313	-0.012658
1894	9.4650e-01	1.0687	-10.114621	0.000385	3.849259	0.652082	-0.007697
1895	9.4700e-01	1.0550	-10.179192	0.000646	6.458201	1.094049	-0.012914
1896	9.4750e-01	1.0454	-10.223665	0.000445	4.448032	0.753517	-0.008895
1897	9.4800e-01	1.0381	-10.297217	0.000736	7.356361	1.246201	-0.014710
1898	9.4850e-01	1.0248	-10.348104	0.000509	5.089576	0.862197	-0.010177
1899	9.4900e-01	1.0172	-10.398136	0.000500	5.004037	0.847707	-0.010006
1900	9.4950e-01	1.0042	-10.444320	0.000462	4.619111	0.782499	-0.009237
1901	9.5000e-01	0.9962	-10.488365	0.000441	4.405263	0.746272	-0.008809
1902	9.5050e-01	0.9880	-10.557213	0.000689	6.885896	1.166502	-0.013770
1903	9.5100e-01	0.9778	-10.601686	0.000445	4.448032	0.753517	-0.008895
1904	9.5150e-01	0.9678	-10.671389	0.000697	6.971436	1.180993	-0.013941
1905	9.5200e-01	0.9538	-10.723559	0.000522	5.217884	0.883934	-0.010434
1906	9.5250e-01	0.9443	-10.769315	0.000458	4.576341	0.775253	-0.009151
1907	9.5300e-01	0.9338	-10.835169	0.000659	6.586510	1.115785	-0.013171
1908	9.5350e-01	0.9256	-10.879642	0.000445	4.448032	0.753517	-0.008895
1909	9.5400e-01	0.9176	-10.924543	0.000449	4.490802	0.760762	-0.008980
1910	9.5450e-01	0.9054	-10.995101	0.000706	7.056975	1.195484	-0.014112
1911	9.5500e-01	0.8965	-11.040429	0.000453	4.533572	0.768008	-0.009066
1912	9.5550e-01	0.8870	-11.112698	0.000723	7.228053	1.224465	-0.014454
1913	9.5600e-01	0.8748	-11.150757	0.000381	3.806489	0.644837	-0.007612
1914	9.5650e-01	0.8675	-11.220460	0.000697	6.971436	1.180993	-0.013941
1915	9.5700e-01	0.8560	-11.261512	0.000411	4.105876	0.695554	-0.008210
1916	9.5750e-01	0.8470	-11.318813	0.000573	5.731119	0.970878	-0.011460
1917	9.5800e-01	0.8378	-11.378253	0.000594	5.944966	1.007105	-0.011888
1918	9.5850e-01	0.8261	-11.428713	0.000505	5.046806	0.854952	-0.010092
1919	9.5900e-01	0.8173	-11.481311	0.000526	5.260654	0.891179	-0.010520
1920	9.5950e-01	0.8048	-11.551442	0.000701	7.014205	1.188239	-0.014026
1921	9.6000e-01	0.7971	-11.601474	0.000500	5.004037	0.847707	-0.010006
1922	9.6050e-01	0.7867	-11.642098	0.000406	4.063107	0.688309	-0.008125
1923	9.6100e-01	0.7753	-11.713512	0.000714	7.142514	1.209975	-0.014283
1924	9.6150e-01	0.7668	-11.775517	0.000620	6.201584	1.050577	-0.012401
1925	9.6200e-01	0.7544	-11.817852	0.000423	4.234185	0.717290	-0.008467
1926	9.6250e-01	0.7469	-11.874726	0.000569	5.688349	0.963632	-0.011375
1927	9.6300e-01	0.7362	-11.927324	0.000526	5.260654	0.891179	-0.010520
1928	9.6350e-01	0.7278	-11.990613	0.000633	6.329892	1.072313	-0.012658
1929	9.6400e-01	0.7159	-12.059460	0.000689	6.885896	1.166502	-0.013770
1930	9.6450e-01	0.7072	-12.092388	0.000329	3.293255	0.557892	-0.006585
1931	9.6500e-01	0.6963	-12.154393	0.000620	6.201584	1.050577	-0.012401
1932	9.6550e-01	0.6867	-12.210840	0.000565	5.645580	0.956387	-0.011289
1933	9.6600e-01	0.6763	-12.267286	0.000565	5.645580	0.956387	-0.011289
1934	9.6650e-01	0.6673	-12.327154	0.000599	5.987736	1.014350	-0.011974
1935	9.6700e-01	0.6557	-12.375903	0.000488	4.875728	0.825971	-0.009750
1936	9.6750e-01	0.6441	-12.444323	0.000684	6.843127	1.159257	-0.013684
1937	9.6800e-01	0.6365	-12.487513	0.000432	4.319724	0.731781	-0.008638
1938	9.6850e-01	0.6271	-12.550802	0.000633	6.329892	1.072313	-0.012658
1939	9.6900e-01	0.6155	-12.608531	0.000577	5.773888	0.978123	-0.011546
1940	9.6950e-01	0.6077	-12.663267	0.000547	5.474502	0.927406	-0.010947
1941	9.7000e-01	0.5973	-12.717148	0.000539	5.388962	0.912915	-0.010776
1942	9.7050e-01	0.5854	-12.768035	0.000509	5.089576	0.862197	-0.010177
1943	9.7100e-01	0.5751	-12.836455	0.000684	6.843127	1.159257	-0.013684
1944	9.7150e-01	0.5635	-12.875797	0.000393	3.934798	0.666573	-0.007868
1945	9.7200e-01	0.5566	-12.939941	0.000642	6.415431	1.086804	-0.012829
1946	9.7250e-01	0.5452	-13.007078	0.000671	6.714818	1.137521	-0.013427
1947	9.7300e-01	0.5337	-13.054117	0.000470	4.704650	0.796989	-0.009408
1948	9.7350e-01	0.5238	-13.115267	0.000612	6.116045	1.036086	-0.012230
1949	9.7400e-01	0.5144	-13.179839	0.000646	6.458201	1.094049	-0.012914
1950	9.7450e-01	0.5062	-13.218752	0.000389	3.892028	0.659327	-0.007783
1951	9.7500e-01	0.4967	-13.284607	0.000659	6.586510	1.115785	-0.013171
1952	9.7550e-01	0.4845	-13.338060	0.000535	5.346193	0.905670	-0.010691
1953	9.7600e-01	0.4750	-13.392796	0.000547	5.474502	0.927406	-0.010947
1954	9.7650e-01	0.4646	-13.441545	0.000488	4.875728	0.825971	-0.009750
1955	9.7700e-01	0.4545	-13.507827	0.000663	6.629279	1.123030	-0.013256
1956	9.7750e-01	0.4438	-13.565129	0.000573	5.731119	0.970878	-0.011460
1957	9.7800e-01	0.4339	-13.618154	0.000530	5.303423	0.898424	-0.010605
1958	9.7850e-01	0.4253	-13.692989	0.000748	7.484670	1.267937	-0.014967
1959	9.7900e-01	0.4158	-13.748580	0.000556	5.560041	0.941896	-0.011118
1960	9.7950e-01	0.4070	-13.796474	0.000479	4.790189	0.811480	-0.009579
1961	9.8000e-01	0.3979	-13.864467	0.000680	6.800357	1.152012	-0.013598
1962	9.8050e-01	0.3855	-13.905946	0.000415	4.148646	0.702800	-0.008296
1963	9.8100e-01	0.3744	-13.977787	0.000719	7.185283	1.217220	-0.014368
1964	9.8150e-01	0.3651	-14.026964	0.000492	4.918497	0.833216	-0.009835
1965	9.8200e-01	0.3572	-14.099233	0.000723	7.228053	1.224465	-0.014454
1966	9.8250e-01	0.3469	-14.150548	0.000513	5.132345	0.869443	-0.010263
1967	9.8300e-01	0.3356	-14.201863	0.000513	5.132345	0.869443	-0.010263
1968	9.8350e-01	0.3258	-14.266862	0.000650	6.500971	1.101294	-0.013000
1969	9.8400e-01	0.3163	-14.305348	0.000385	3.849259	0.652082	-0.007697
1970	9.8450e-01	0.3034	-14.383176	0.000778	7.784057	1.318655	-0.015566
1971	9.8500e-01	0.2992	-14.449030	0.000659	6.586510	1.115785	-0.013171
1972	9.8550e-01	0.2840	-14.488800	0.000398	3.977568	0.673818	-0.007954
1973	9.8600e-01	0.2746	-14.551660	0.000629	6.287123	1.065067	-0.012572
1974	9.8650e-01	0.2673	-14.621363	0.000697	6.971436	1.180993	-0.013941
1975	9.8700e-01	0.2558	-14.675672	0.000543	5.431732	0.920160	-0.010862
1976	9.8750e-01	0.2463	-14.728270	0.000526	5.260654	0.891179	-0.010520
1977	9.8800e-01	0.2367	-14.783006	0.000547	5.474502	0.927406	-0.010947
1978	9.8850e-01	0.2268	-14.842873	0.000599	5.987736	1.014350	-0.011974
1979	9.8900e-01	0.2161	-14.893333	0.000505	5.046806	0.854952	-0.010092
1980	9.8950e-01	0.2048	-14.966029	0.000727	7.270822	1.231711	-0.014539
1981	9.9000e-01	0.1952	-14.999384	0.000334	3.336024	0.565138	-0.006671
1982	9.9050e-01	0.1856	-15.073791	0.000744	7.441900	1.260692	-0.014881
1983	9.9100e-01	0.1739	-15.134086	0.000603	6.030506	1.021595	-0.012059
1984	9.9150e-01	0.1700	-15.181980	0.000479	4.790189	0.811480	-0.009579
1985	9.9200e-01	0.1570	-15.249117	0.000671	6.714818	1.137521	-0.013427
1986	9.9250e-01	0.1443	-15.310695	0.000616	6.158814	1.043331	-0.012316
1987	9.9300e-01	0.1366	-15.372273	0.000616	6.158814	1.043331	-0.012316
1988	9.9350e-01	0.1250	-15.428292	0.000560	5.602810	0.949142	-0.011204
1989	9.9400e-01	0.1134	-15.480890	0.000526	5.260654	0.891179	-0.010520
1990	9.9450e-01	0.1041	-15.548455	0.000676	6.757588	1.144766	-0.013513
1991	9.9500e-01	0.0945	-15.591645	0.000432	4.319724	0.731781	-0.008638
1992	9.9550e-01	0.0868	-15.659210	0.000676	6.757588	1.144766	-0.013513
1993	9.9600e-01	0.0758	-15.728485	0.000693	6.928666	1.173748	-0.013855
1994	9.9650e-01	0.0658	-15.779373	0.000509	5.089576	0.862197	-0.010177
1995	9.9700e-01	0.0558	-15.834109	0.000547	5.474502	0.927406	-0.010947
1996	9.9750e-01	0.0429	-15.893549	0.000594	5.944966	1.007105	-0.011888
1997	9.9800e-01	0.0385	-15.952988	0.000594	5.944966	1.007105	-0.011888
1998	9.9850e-01	0.0276	-16.025257	0.000723	7.228053	1.224465	-0.014454
1999	9.9900e-01	0.0155	-16.083414	0.000582	5.816658	0.985369	-0.011631
2000	9.9950e-01	0.0061	-16.132591	0.000492	4.918497	0.833216	-0.009835
2001	1.0000e+00	-0.0039	-16.180913	0.000492	4.918497	0.833216	-0.009664

PMax (uC/cm2):	4.26e+01
Pr (uC/cm2):	5.11e+00
-Pr (uC/cm2):	0.00e+00
PLoss (uC/cm2):	0.00e+00
C (Max-Eff) (nF):	4.26e-01
K (Eff):	7.22e+02
Vert. (+/-Pr) Shift (uC/cm2):	2.56e+00
Offset (uC/cm2):	2.13e+01

A (Loop Area - uC/cm2·Volts):	-5.01e-02



Hysteresis Version: 5.48.1 - Radiant Technologies, Inc., 1999 - 9/12/24

