»»»»»»»»»»»»»»»»»»»»»»»»»»»»»»»»»»»» Hysteresis ««««««««««««««««««««««««««««««««««««
»»»  Executed Version:	5.48.1
»»»  Vision Version:	5.48.4 (R)
»»»  Vision Compiled:	9/18/24
»»»  Driver Version:	5.47.0
»»»  Windows Version:	Windows 8 or 8.1
»»»  Processor Information:	x86 (AMD or Intel) - 32 Processors
»»»  Tester Name:	PMF21124-494 (100V)
»»»  Tester S/N:	PMF21124-494
»»»  Internal Amp Type:	100V RevK 270k
»»»  Internal Amp S/N:	iAB2-596/K     
»»»  Execution Count:	1
»»»»»»»»»»»»»»»»»»»»»»»»»»»»»»»»»»»»»»»»»»««««««««««««««««««««««««««««««««««««««««««

Stored:	6/25/2025 - 15:51:14
Configured:	06/25/25 10:44:40 AM
Executed:	06/25/25 03:50:50 PM

»»»»»»»»»»»»»»»»»»»»»»»»»»»»»»»»»»» Sample Info ««««««««««««««««««««««««««««««««««««
Sample Name:	
Lot Name:	
Wafer Name:	
Die Row/Column:	0/0
Capacitor Number:	0
Sample Area (cm2):	1.00e-04
Sample Thickness (microns):	1.50e-01

Amplifier:	Internal

»»»»»»»»»»»»»»»»»»»»»»»»»»»»»»»»»»» Tester Info «««««««««««««««««««««««««««««««««««
Tester Name:	PMF21124-494 (100V)
Tester Serial Number:	PMF21124-494
Return Signal Amp. Level:	1.79 [Index: 2]

»»»»»»»»»»»»»»»»»»»»»»»»»»»»»»»» Hysteresis Info ««««««««««««««««««««««««««««««««««
Task Name:	Hyst-116
Volts:	10.00
Field:	666.67 (kV/cm)
DCBias:	0.00
DCField:	0.00 (kV/cm)
Hysteresis Period (ms):	1.00e+00
Preset:	Enabled
Preset Delay (ms):	1.00e+03
Profile:	Standard Monopolar

»»»»»»»»»»»»»»»»»»»»»»»»»»»»»»»»»»»»»» Data «««««««««««««««««««««««««««««««««««««««
Points:	2001

Valid Data

Point	Time (ms)	Drive Voltage	Measured Polarization (uC/cm2)	Capacitance (uF)	Normalized Capacitance (uF/cm2)	Dielectric Constant	Instantaneous Current (mA)
   1	0.0000e+00	-0.0056	-20.368006	0.000359	3.592546	0.608594	0.007184
   2	5.0000e-04	0.0031	-20.332085	0.000359	3.592546	0.608594	0.007184
   3	1.0000e-03	0.0147	-20.296592	0.000355	3.549777	0.601349	0.007099
   4	1.5000e-03	0.0259	-20.238863	0.000577	5.773734	0.978097	0.011546
   5	2.0000e-03	0.0373	-20.186265	0.000526	5.260513	0.891155	0.010520
   6	2.5000e-03	0.0468	-20.137088	0.000492	4.918366	0.833194	0.009835
   7	3.0000e-03	0.0539	-20.075938	0.000612	6.115881	1.036058	0.012230
   8	3.5000e-03	0.0642	-20.028471	0.000475	4.747292	0.804213	0.009493
   9	4.0000e-03	0.0738	-19.967321	0.000612	6.115881	1.036058	0.012230
  10	4.5000e-03	0.0828	-19.916861	0.000505	5.046671	0.854929	0.010092
  11	5.0000e-03	0.0944	-19.871960	0.000449	4.490682	0.760742	0.008980
  12	5.5000e-03	0.1079	-19.814659	0.000573	5.730966	0.970852	0.011460
  13	6.0000e-03	0.1141	-19.757357	0.000573	5.730966	0.970852	0.011460
  14	6.5000e-03	0.1256	-19.706042	0.000513	5.132208	0.869420	0.010263
  15	7.0000e-03	0.1312	-19.654299	0.000517	5.174976	0.876665	0.010349
  16	7.5000e-03	0.1449	-19.601701	0.000526	5.260513	0.891155	0.010520
  17	8.0000e-03	0.1598	-19.544399	0.000573	5.730966	0.970852	0.011460
  18	8.5000e-03	0.1653	-19.494795	0.000496	4.961134	0.840439	0.009921
  19	9.0000e-03	0.1769	-19.436638	0.000582	5.816503	0.985342	0.011631
  20	9.5000e-03	0.1865	-19.387889	0.000488	4.875598	0.825949	0.009750
  21	1.0000e-02	0.1965	-19.334435	0.000535	5.346050	0.905645	0.010691
  22	1.0500e-02	0.2038	-19.275423	0.000590	5.902039	0.999833	0.011802
  23	1.1000e-02	0.2129	-19.230950	0.000445	4.447914	0.753497	0.008895
  24	1.1500e-02	0.2250	-19.171510	0.000594	5.944808	1.007078	0.011888
  25	1.2000e-02	0.2367	-19.120195	0.000513	5.132208	0.869420	0.010263
  26	1.2500e-02	0.2457	-19.057334	0.000629	6.286955	1.065039	0.012572
  27	1.3000e-02	0.2578	-19.012006	0.000453	4.533450	0.767987	0.009066
  28	1.3500e-02	0.2643	-18.959408	0.000526	5.260513	0.891155	0.010520
  29	1.4000e-02	0.2739	-18.899113	0.000603	6.030345	1.021568	0.012059
  30	1.4500e-02	0.2842	-18.849081	0.000500	5.003903	0.847684	0.010006
  31	1.5000e-02	0.2950	-18.788786	0.000603	6.030345	1.021568	0.012059
  32	1.5500e-02	0.3061	-18.737470	0.000513	5.132208	0.869420	0.010263
  33	1.6000e-02	0.3144	-18.685300	0.000522	5.217745	0.883910	0.010434
  34	1.6500e-02	0.3252	-18.642110	0.000432	4.319608	0.731761	0.008638
  35	1.7000e-02	0.3337	-18.577966	0.000642	6.415260	1.086774	0.012829
  36	1.7500e-02	0.3475	-18.525796	0.000522	5.217745	0.883910	0.010434
  37	1.8000e-02	0.3573	-18.477902	0.000479	4.790061	0.811458	0.009579
  38	1.8500e-02	0.3680	-18.424876	0.000530	5.303282	0.898400	0.010605
  39	1.9000e-02	0.3779	-18.367575	0.000573	5.730966	0.970852	0.011460
  40	1.9500e-02	0.3851	-18.328233	0.000393	3.934693	0.666555	0.007868
  41	2.0000e-02	0.3943	-18.259385	0.000689	6.885713	1.166471	0.013770
  42	2.0500e-02	0.4039	-18.210209	0.000492	4.918366	0.833194	0.009835
  43	2.1000e-02	0.4124	-18.158038	0.000522	5.217745	0.883910	0.010434
  44	2.1500e-02	0.4231	-18.099026	0.000590	5.902039	0.999833	0.011802
  45	2.2000e-02	0.4355	-18.051987	0.000470	4.704524	0.796968	0.009408
  46	2.2500e-02	0.4444	-17.998962	0.000530	5.303282	0.898400	0.010605
  47	2.3000e-02	0.4537	-17.949357	0.000496	4.961134	0.840439	0.009921
  48	2.3500e-02	0.4668	-17.890345	0.000590	5.902039	0.999833	0.011802
  49	2.4000e-02	0.4754	-17.848865	0.000415	4.148535	0.702781	0.008296
  50	2.4500e-02	0.4848	-17.773175	0.000757	7.570007	1.282394	0.015138
  51	2.5000e-02	0.4938	-17.726992	0.000462	4.618987	0.782478	0.009237
  52	2.5500e-02	0.5051	-17.675249	0.000517	5.174976	0.876665	0.010349
  53	2.6000e-02	0.5158	-17.625645	0.000496	4.961134	0.840439	0.009921
  54	2.6500e-02	0.5256	-17.578606	0.000470	4.704524	0.796968	0.009408
  55	2.7000e-02	0.5345	-17.521732	0.000569	5.688197	0.963607	0.011375
  56	2.7500e-02	0.5457	-17.475121	0.000466	4.661756	0.789723	0.009322
  57	2.8000e-02	0.5574	-17.417391	0.000577	5.773734	0.978097	0.011546
  58	2.8500e-02	0.5688	-17.360945	0.000565	5.645429	0.956362	0.011289
  59	2.9000e-02	0.5740	-17.314761	0.000462	4.618987	0.782478	0.009237
  60	2.9500e-02	0.5838	-17.262163	0.000526	5.260513	0.891155	0.010520
  61	3.0000e-02	0.5957	-17.207855	0.000543	5.431587	0.920136	0.010862
  62	3.0500e-02	0.6036	-17.157823	0.000500	5.003903	0.847684	0.010006
  63	3.1000e-02	0.6157	-17.098383	0.000594	5.944808	1.007078	0.011888
  64	3.1500e-02	0.6233	-17.044930	0.000535	5.346050	0.905645	0.010691
  65	3.2000e-02	0.6394	-16.998746	0.000462	4.618987	0.782478	0.009237
  66	3.2500e-02	0.6462	-16.940589	0.000582	5.816503	0.985342	0.011631
  67	3.3000e-02	0.6561	-16.894406	0.000462	4.618987	0.782478	0.009237
  68	3.3500e-02	0.6676	-16.836249	0.000582	5.816503	0.985342	0.011631
  69	3.4000e-02	0.6766	-16.789637	0.000466	4.661756	0.789723	0.009322
  70	3.4500e-02	0.6837	-16.735329	0.000543	5.431587	0.920136	0.010862
  71	3.5000e-02	0.6934	-16.681448	0.000539	5.388819	0.912891	0.010776
  72	3.5500e-02	0.7056	-16.631844	0.000496	4.961134	0.840439	0.009921
  73	3.6000e-02	0.7138	-16.573259	0.000586	5.859271	0.992587	0.011717
  74	3.6500e-02	0.7233	-16.527503	0.000458	4.576219	0.775232	0.009151
  75	3.7000e-02	0.7353	-16.475760	0.000517	5.174976	0.876665	0.010349
  76	3.7500e-02	0.7460	-16.424445	0.000513	5.132208	0.869420	0.010263
  77	3.8000e-02	0.7551	-16.378689	0.000458	4.576219	0.775232	0.009151
  78	3.8500e-02	0.7642	-16.318822	0.000599	5.987576	1.014323	0.011974
  79	3.9000e-02	0.7740	-16.273066	0.000458	4.576219	0.775232	0.009151
  80	3.9500e-02	0.7841	-16.209350	0.000637	6.372492	1.079529	0.012743
  81	4.0000e-02	0.7966	-16.162311	0.000470	4.704524	0.796968	0.009408
  82	4.0500e-02	0.8076	-16.104582	0.000577	5.773734	0.978097	0.011546
  83	4.1000e-02	0.8176	-16.057543	0.000470	4.704524	0.796968	0.009408
  84	4.1500e-02	0.8246	-16.004517	0.000530	5.303282	0.898400	0.010605
  85	4.2000e-02	0.8356	-15.952347	0.000522	5.217745	0.883910	0.010434
  86	4.2500e-02	0.8450	-15.903598	0.000488	4.875598	0.825949	0.009750
  87	4.3000e-02	0.8558	-15.851000	0.000526	5.260513	0.891155	0.010520
  88	4.3500e-02	0.8646	-15.799685	0.000513	5.132208	0.869420	0.010263
  89	4.4000e-02	0.8738	-15.749653	0.000500	5.003903	0.847684	0.010006
  90	4.4500e-02	0.8852	-15.696627	0.000530	5.303282	0.898400	0.010605
  91	4.5000e-02	0.8925	-15.649588	0.000470	4.704524	0.796968	0.009408
  92	4.5500e-02	0.9077	-15.594425	0.000552	5.517124	0.934626	0.011033
  93	4.6000e-02	0.9141	-15.543537	0.000509	5.089440	0.862174	0.010177
  94	4.6500e-02	0.9277	-15.493933	0.000496	4.961134	0.840439	0.009921
  95	4.7000e-02	0.9369	-15.438341	0.000556	5.559892	0.941871	0.011118
  96	4.7500e-02	0.9468	-15.387882	0.000505	5.046671	0.854929	0.010092
  97	4.8000e-02	0.9555	-15.333573	0.000543	5.431587	0.920136	0.010862
  98	4.8500e-02	0.9660	-15.287390	0.000462	4.618987	0.782478	0.009237
  99	4.9000e-02	0.9737	-15.236502	0.000509	5.089440	0.862174	0.010177
 100	4.9500e-02	0.9871	-15.179201	0.000573	5.730966	0.970852	0.011460
 101	5.0000e-02	0.9942	-15.130451	0.000488	4.875598	0.825949	0.009750
 102	5.0500e-02	1.0039	-15.079564	0.000509	5.089440	0.862174	0.010177
 103	5.1000e-02	1.0152	-15.033380	0.000462	4.618987	0.782478	0.009237
 104	5.1500e-02	1.0266	-14.974368	0.000590	5.902039	0.999833	0.011802
 105	5.2000e-02	1.0367	-14.924764	0.000496	4.961134	0.840439	0.009921
 106	5.2500e-02	1.0460	-14.877725	0.000470	4.704524	0.796968	0.009408
 107	5.3000e-02	1.0586	-14.823844	0.000539	5.388819	0.912891	0.010776
 108	5.3500e-02	1.0648	-14.775522	0.000483	4.832829	0.818703	0.009664
 109	5.4000e-02	1.0735	-14.717365	0.000582	5.816503	0.985342	0.011631
 110	5.4500e-02	1.0843	-14.670326	0.000470	4.704524	0.796968	0.009408
 111	5.5000e-02	1.0950	-14.615590	0.000547	5.474355	0.927381	0.010947
 112	5.5500e-02	1.1017	-14.565131	0.000505	5.046671	0.854929	0.010092
 113	5.6000e-02	1.1146	-14.521085	0.000441	4.405145	0.746252	0.008809
 114	5.6500e-02	1.1278	-14.468060	0.000530	5.303282	0.898400	0.010605
 115	5.7000e-02	1.1366	-14.424014	0.000441	4.405145	0.746252	0.008809
 116	5.7500e-02	1.1487	-14.374410	0.000496	4.961134	0.840439	0.009921
 117	5.8000e-02	1.1560	-14.317963	0.000565	5.645429	0.956362	0.011289
 118	5.8500e-02	1.1678	-14.266648	0.000513	5.132208	0.869420	0.010263
 119	5.9000e-02	1.1756	-14.214050	0.000526	5.260513	0.891155	0.010520
 120	5.9500e-02	1.1828	-14.160170	0.000539	5.388819	0.912891	0.010776
 121	6.0000e-02	1.1958	-14.117835	0.000423	4.234072	0.717271	0.008467
 122	6.0500e-02	1.2096	-14.067375	0.000505	5.046671	0.854929	0.010092
 123	6.1000e-02	1.2143	-14.020336	0.000470	4.704524	0.796968	0.009408
 124	6.1500e-02	1.2267	-13.960469	0.000599	5.987576	1.014323	0.011974
 125	6.2000e-02	1.2360	-13.918134	0.000423	4.234072	0.717271	0.008467
 126	6.2500e-02	1.2458	-13.866391	0.000517	5.174976	0.876665	0.010349
 127	6.3000e-02	1.2508	-13.805668	0.000607	6.073113	1.028813	0.012145
 128	6.3500e-02	1.2671	-13.766754	0.000389	3.891924	0.659310	0.007783
 129	6.4000e-02	1.2787	-13.709880	0.000569	5.688197	0.963607	0.011375
 130	6.4500e-02	1.2857	-13.672677	0.000372	3.720851	0.630329	0.007441
 131	6.5000e-02	1.2952	-13.611954	0.000607	6.073113	1.028813	0.012145
 132	6.5500e-02	1.3041	-13.570902	0.000411	4.105766	0.695536	0.008210
 133	6.6000e-02	1.3137	-13.521297	0.000496	4.961134	0.840439	0.009921
 134	6.6500e-02	1.3245	-13.471265	0.000500	5.003903	0.847684	0.010006
 135	6.7000e-02	1.3373	-13.419095	0.000522	5.217745	0.883910	0.010434
 136	6.7500e-02	1.3441	-13.369918	0.000492	4.918366	0.833194	0.009835
 137	6.8000e-02	1.3562	-13.322452	0.000475	4.747292	0.804213	0.009493
 138	6.8500e-02	1.3660	-13.261729	0.000607	6.073113	1.028813	0.012145
 139	6.9000e-02	1.3755	-13.217256	0.000445	4.447914	0.753497	0.008895
 140	6.9500e-02	1.3854	-13.173210	0.000441	4.405145	0.746252	0.008809
 141	7.0000e-02	1.3938	-13.116764	0.000565	5.645429	0.956362	0.011289
 142	7.0500e-02	1.4048	-13.071863	0.000449	4.490682	0.760742	0.008980
 143	7.1000e-02	1.4166	-13.024397	0.000475	4.747292	0.804213	0.009493
 144	7.1500e-02	1.4240	-12.965385	0.000590	5.902039	0.999833	0.011802
 145	7.2000e-02	1.4349	-12.923477	0.000419	4.191303	0.710026	0.008381
 146	7.2500e-02	1.4436	-12.873873	0.000496	4.961134	0.840439	0.009921
 147	7.3000e-02	1.4566	-12.823841	0.000500	5.003903	0.847684	0.010006
 148	7.3500e-02	1.4653	-12.770387	0.000535	5.346050	0.905645	0.010691
 149	7.4000e-02	1.4753	-12.727197	0.000432	4.319608	0.731761	0.008638
 150	7.4500e-02	1.4820	-12.666047	0.000612	6.115881	1.036058	0.012230
 151	7.5000e-02	1.4951	-12.622857	0.000432	4.319608	0.731761	0.008638
 152	7.5500e-02	1.5052	-12.578811	0.000441	4.405145	0.746252	0.008809
 153	7.6000e-02	1.5140	-12.524075	0.000547	5.474355	0.927381	0.010947
 154	7.6500e-02	1.5244	-12.480457	0.000436	4.362377	0.739007	0.008724
 155	7.7000e-02	1.5385	-12.435557	0.000449	4.490682	0.760742	0.008980
 156	7.7500e-02	1.5453	-12.376972	0.000586	5.859271	0.992587	0.011717
 157	7.8000e-02	1.5533	-12.326940	0.000500	5.003903	0.847684	0.010006
 158	7.8500e-02	1.5651	-12.276480	0.000505	5.046671	0.854929	0.010092
 159	7.9000e-02	1.5769	-12.234573	0.000419	4.191303	0.710026	0.008381
 160	7.9500e-02	1.5846	-12.178126	0.000565	5.645429	0.956362	0.011289
 161	8.0000e-02	1.5955	-12.130660	0.000475	4.747292	0.804213	0.009493
 162	8.0500e-02	1.6046	-12.083621	0.000470	4.704524	0.796968	0.009408
 163	8.1000e-02	1.6125	-12.039148	0.000445	4.447914	0.753497	0.008895
 164	8.1500e-02	1.6241	-11.989116	0.000500	5.003903	0.847684	0.010006
 165	8.2000e-02	1.6341	-11.930959	0.000582	5.816503	0.985342	0.011631
 166	8.2500e-02	1.6445	-11.892473	0.000385	3.849156	0.652065	0.007697
 167	8.3000e-02	1.6563	-11.835599	0.000569	5.688197	0.963607	0.011375
 168	8.3500e-02	1.6660	-11.788987	0.000466	4.661756	0.789723	0.009322
 169	8.4000e-02	1.6766	-11.744942	0.000441	4.405145	0.746252	0.008809
 170	8.4500e-02	1.6857	-11.690206	0.000547	5.474355	0.927381	0.010947
 171	8.5000e-02	1.6933	-11.649582	0.000406	4.062998	0.688291	0.008125
 172	8.5500e-02	1.7053	-11.593563	0.000560	5.602661	0.949116	0.011204
 173	8.6000e-02	1.7166	-11.552083	0.000415	4.148535	0.702781	0.008296
 174	8.6500e-02	1.7245	-11.503761	0.000483	4.832829	0.818703	0.009664
 175	8.7000e-02	1.7348	-11.457150	0.000466	4.661756	0.789723	0.009322
 176	8.7500e-02	1.7451	-11.408829	0.000483	4.832829	0.818703	0.009664
 177	8.8000e-02	1.7551	-11.361790	0.000470	4.704524	0.796968	0.009408
 178	8.8500e-02	1.7682	-11.305771	0.000560	5.602661	0.949116	0.011204
 179	8.9000e-02	1.7781	-11.262153	0.000436	4.362377	0.739007	0.008724
 180	8.9500e-02	1.7872	-11.217252	0.000449	4.490682	0.760742	0.008980
 181	9.0000e-02	1.7940	-11.162089	0.000552	5.517124	0.934626	0.011033
 182	9.0500e-02	1.8067	-11.124458	0.000376	3.763619	0.637574	0.007526
 183	9.1000e-02	1.8155	-11.065445	0.000590	5.902039	0.999833	0.011802
 184	9.1500e-02	1.8254	-11.018407	0.000470	4.704524	0.796968	0.009408
 185	9.2000e-02	1.8349	-10.974361	0.000441	4.405145	0.746252	0.008809
 186	9.2500e-02	1.8472	-10.932026	0.000423	4.234072	0.717271	0.008467
 187	9.3000e-02	1.8587	-10.875580	0.000565	5.645429	0.956362	0.011289
 188	9.3500e-02	1.8665	-10.829824	0.000458	4.576219	0.775232	0.009151
 189	9.4000e-02	1.8769	-10.784496	0.000453	4.533450	0.767987	0.009066
 190	9.4500e-02	1.8867	-10.740450	0.000441	4.405145	0.746252	0.008809
 191	9.5000e-02	1.8964	-10.687852	0.000526	5.260513	0.891155	0.010520
 192	9.5500e-02	1.9070	-10.638248	0.000496	4.961134	0.840439	0.009921
 193	9.6000e-02	1.9160	-10.588643	0.000496	4.961134	0.840439	0.009921
 194	9.6500e-02	1.9229	-10.540749	0.000479	4.790061	0.811458	0.009579
 195	9.7000e-02	1.9344	-10.496276	0.000445	4.447914	0.753497	0.008895
 196	9.7500e-02	1.9466	-10.459500	0.000368	3.678082	0.623084	0.007355
 197	9.8000e-02	1.9556	-10.405192	0.000543	5.431587	0.920136	0.010862
 198	9.8500e-02	1.9653	-10.359436	0.000458	4.576219	0.775232	0.009151
 199	9.9000e-02	1.9765	-10.310687	0.000488	4.875598	0.825949	0.009750
 200	9.9500e-02	1.9847	-10.255951	0.000547	5.474355	0.927381	0.010947
 201	1.0000e-01	1.9936	-10.213616	0.000423	4.234072	0.717271	0.008467
 202	1.0050e-01	2.0070	-10.159307	0.000543	5.431587	0.920136	0.010862
 203	1.0100e-01	2.0145	-10.122959	0.000364	3.635314	0.615839	0.007270
 204	1.0150e-01	2.0251	-10.069079	0.000539	5.388819	0.912891	0.010776
 205	1.0200e-01	2.0345	-10.030592	0.000385	3.849156	0.652065	0.007697
 206	1.0250e-01	2.0455	-9.972008	0.000586	5.859271	0.992587	0.011717
 207	1.0300e-01	2.0586	-9.924114	0.000479	4.790061	0.811458	0.009579
 208	1.0350e-01	2.0642	-9.880496	0.000436	4.362377	0.739007	0.008724
 209	1.0400e-01	2.0750	-9.829181	0.000513	5.132208	0.869420	0.010263
 210	1.0450e-01	2.0845	-9.782142	0.000470	4.704524	0.796968	0.009408
 211	1.0500e-01	2.0952	-9.733393	0.000488	4.875598	0.825949	0.009750
 212	1.0550e-01	2.1060	-9.688920	0.000445	4.447914	0.753497	0.008895
 213	1.0600e-01	2.1146	-9.644447	0.000445	4.447914	0.753497	0.008895
 214	1.0650e-01	2.1230	-9.589711	0.000547	5.474355	0.927381	0.010947
 215	1.0700e-01	2.1305	-9.561060	0.000287	2.865483	0.485426	0.005730
 216	1.0750e-01	2.1436	-9.502047	0.000590	5.902039	0.999833	0.011802
 217	1.0800e-01	2.1555	-9.454581	0.000475	4.747292	0.804213	0.009493
 218	1.0850e-01	2.1632	-9.423364	0.000312	3.122093	0.528897	0.006243
 219	1.0900e-01	2.1741	-9.360503	0.000629	6.286955	1.065039	0.012572
 220	1.0950e-01	2.1875	-9.319451	0.000411	4.105766	0.695536	0.008210
 221	1.1000e-01	2.1952	-9.268992	0.000505	5.046671	0.854929	0.010092
 222	1.1050e-01	2.2049	-9.224091	0.000449	4.490682	0.760742	0.008980
 223	1.1100e-01	2.2153	-9.175342	0.000488	4.875598	0.825949	0.009750
 224	1.1150e-01	2.2258	-9.134717	0.000406	4.062998	0.688291	0.008125
 225	1.1200e-01	2.2348	-9.084258	0.000505	5.046671	0.854929	0.010092
 226	1.1250e-01	2.2449	-9.028239	0.000560	5.602661	0.949116	0.011204
 227	1.1300e-01	2.2578	-8.994884	0.000334	3.335935	0.565123	0.006671
 228	1.1350e-01	2.2656	-8.952121	0.000428	4.276840	0.724516	0.008553
 229	1.1400e-01	2.2778	-8.899951	0.000522	5.217745	0.883910	0.010434
 230	1.1450e-01	2.2867	-8.850346	0.000496	4.961134	0.840439	0.009921
 231	1.1500e-01	2.2944	-8.808439	0.000419	4.191303	0.710026	0.008381
 232	1.1550e-01	2.3051	-8.765677	0.000428	4.276840	0.724516	0.008553
 233	1.1600e-01	2.3170	-8.718210	0.000475	4.747292	0.804213	0.009493
 234	1.1650e-01	2.3255	-8.671599	0.000466	4.661756	0.789723	0.009322
 235	1.1700e-01	2.3375	-8.626271	0.000453	4.533450	0.767987	0.009066
 236	1.1750e-01	2.3460	-8.580515	0.000458	4.576219	0.775232	0.009151
 237	1.1800e-01	2.3566	-8.539891	0.000406	4.062998	0.688291	0.008125
 238	1.1850e-01	2.3673	-8.484299	0.000556	5.559892	0.941871	0.011118
 239	1.1900e-01	2.3753	-8.438116	0.000462	4.618987	0.782478	0.009237
 240	1.1950e-01	2.3860	-8.392360	0.000458	4.576219	0.775232	0.009151
 241	1.2000e-01	2.3950	-8.346176	0.000462	4.618987	0.782478	0.009237
 242	1.2050e-01	2.4068	-8.304269	0.000419	4.191303	0.710026	0.008381
 243	1.2100e-01	2.4176	-8.258085	0.000462	4.618987	0.782478	0.009237
 244	1.2150e-01	2.4246	-8.204632	0.000535	5.346050	0.905645	0.010691
 245	1.2200e-01	2.4373	-8.170422	0.000342	3.421472	0.579613	0.006842
 246	1.2250e-01	2.4442	-8.112693	0.000577	5.773734	0.978097	0.011546
 247	1.2300e-01	2.4579	-8.072924	0.000398	3.977461	0.673800	0.007954
 248	1.2350e-01	2.4658	-8.029734	0.000432	4.319608	0.731761	0.008638
 249	1.2400e-01	2.4750	-7.977136	0.000526	5.260513	0.891155	0.010520
 250	1.2450e-01	2.4844	-7.938222	0.000389	3.891924	0.659310	0.007783
 251	1.2500e-01	2.4955	-7.885624	0.000526	5.260513	0.891155	0.010520
 252	1.2550e-01	2.5098	-7.849276	0.000364	3.635314	0.615839	0.007270
 253	1.2600e-01	2.5168	-7.802665	0.000466	4.661756	0.789723	0.009322
 254	1.2650e-01	2.5262	-7.748356	0.000543	5.431587	0.920136	0.010862
 255	1.2700e-01	2.5359	-7.711580	0.000368	3.678082	0.623084	0.007355
 256	1.2750e-01	2.5446	-7.664114	0.000475	4.747292	0.804213	0.009493
 257	1.2800e-01	2.5565	-7.621779	0.000423	4.234072	0.717271	0.008467
 258	1.2850e-01	2.5681	-7.577306	0.000445	4.447914	0.753497	0.008895
 259	1.2900e-01	2.5757	-7.531978	0.000453	4.533450	0.767987	0.009066
 260	1.2950e-01	2.5876	-7.488360	0.000436	4.362377	0.739007	0.008724
 261	1.3000e-01	2.5980	-7.441749	0.000466	4.661756	0.789723	0.009322
 262	1.3050e-01	2.6075	-7.394710	0.000470	4.704524	0.796968	0.009408
 263	1.3100e-01	2.6233	-7.353230	0.000415	4.148535	0.702781	0.008296
 264	1.3150e-01	2.6263	-7.306619	0.000466	4.661756	0.789723	0.009322
 265	1.3200e-01	2.6358	-7.252311	0.000543	5.431587	0.920136	0.010862
 266	1.3250e-01	2.6450	-7.221522	0.000308	3.079325	0.521652	0.006158
 267	1.3300e-01	2.6549	-7.169352	0.000522	5.217745	0.883910	0.010434
 268	1.3350e-01	2.6671	-7.127017	0.000423	4.234072	0.717271	0.008467
 269	1.3400e-01	2.6758	-7.083826	0.000432	4.319608	0.731761	0.008638
 270	1.3450e-01	2.6859	-7.034222	0.000496	4.961134	0.840439	0.009921
 271	1.3500e-01	2.6956	-6.988466	0.000458	4.576219	0.775232	0.009151
 272	1.3550e-01	2.7087	-6.945276	0.000432	4.319608	0.731761	0.008638
 273	1.3600e-01	2.7161	-6.903796	0.000415	4.148535	0.702781	0.008296
 274	1.3650e-01	2.7274	-6.856330	0.000475	4.747292	0.804213	0.009493
 275	1.3700e-01	2.7386	-6.806298	0.000500	5.003903	0.847684	0.010006
 276	1.3750e-01	2.7460	-6.766529	0.000398	3.977461	0.673800	0.007954
 277	1.3800e-01	2.7542	-6.715214	0.000513	5.132208	0.869420	0.010263
 278	1.3850e-01	2.7667	-6.675872	0.000393	3.934693	0.666555	0.007868
 279	1.3900e-01	2.7763	-6.637386	0.000385	3.849156	0.652065	0.007697
 280	1.3950e-01	2.7858	-6.582222	0.000552	5.517124	0.934626	0.011033
 281	1.4000e-01	2.7979	-6.547584	0.000346	3.464240	0.586858	0.006928
 282	1.4050e-01	2.8043	-6.503539	0.000441	4.405145	0.746252	0.008809
 283	1.4100e-01	2.8165	-6.449658	0.000539	5.388819	0.912891	0.010776
 284	1.4150e-01	2.8262	-6.415448	0.000342	3.421472	0.579613	0.006842
 285	1.4200e-01	2.8338	-6.359857	0.000556	5.559892	0.941871	0.011118
 286	1.4250e-01	2.8455	-6.320943	0.000389	3.891924	0.659310	0.007783
 287	1.4300e-01	2.8545	-6.275615	0.000453	4.533450	0.767987	0.009066
 288	1.4350e-01	2.8642	-6.229004	0.000466	4.661756	0.789723	0.009322
 289	1.4400e-01	2.8755	-6.193083	0.000359	3.592546	0.608594	0.007184
 290	1.4450e-01	2.8857	-6.143479	0.000496	4.961134	0.840439	0.009921
 291	1.4500e-01	2.8945	-6.106275	0.000372	3.720851	0.630329	0.007441
 292	1.4550e-01	2.9071	-6.048118	0.000582	5.816503	0.985342	0.011631
 293	1.4600e-01	2.9163	-6.018612	0.000295	2.951020	0.499916	0.005901
 294	1.4650e-01	2.9257	-5.972001	0.000466	4.661756	0.789723	0.009322
 295	1.4700e-01	2.9353	-5.926245	0.000458	4.576219	0.775232	0.009151
 296	1.4750e-01	2.9462	-5.890324	0.000359	3.592546	0.608594	0.007184
 297	1.4800e-01	2.9559	-5.832595	0.000577	5.773734	0.978097	0.011546
 298	1.4850e-01	2.9669	-5.791543	0.000411	4.105766	0.695536	0.008210
 299	1.4900e-01	2.9759	-5.747070	0.000445	4.447914	0.753497	0.008895
 300	1.4950e-01	2.9877	-5.707301	0.000398	3.977461	0.673800	0.007954
 301	1.5000e-01	2.9969	-5.664538	0.000428	4.276840	0.724516	0.008553
 302	1.5050e-01	3.0051	-5.623914	0.000406	4.062998	0.688291	0.008125
 303	1.5100e-01	3.0151	-5.583289	0.000406	4.062998	0.688291	0.008125
 304	1.5150e-01	3.0278	-5.532402	0.000509	5.089440	0.862174	0.010177
 305	1.5200e-01	3.0338	-5.488784	0.000436	4.362377	0.739007	0.008724
 306	1.5250e-01	3.0460	-5.450298	0.000385	3.849156	0.652065	0.007697
 307	1.5300e-01	3.0583	-5.399411	0.000509	5.089440	0.862174	0.010177
 308	1.5350e-01	3.0643	-5.356220	0.000432	4.319608	0.731761	0.008638
 309	1.5400e-01	3.0762	-5.319872	0.000364	3.635314	0.615839	0.007270
 310	1.5450e-01	3.0835	-5.272833	0.000470	4.704524	0.796968	0.009408
 311	1.5500e-01	3.0936	-5.225367	0.000475	4.747292	0.804213	0.009493
 312	1.5550e-01	3.1049	-5.178756	0.000466	4.661756	0.789723	0.009322
 313	1.5600e-01	3.1177	-5.138559	0.000402	4.020230	0.681045	0.008039
 314	1.5650e-01	3.1289	-5.095369	0.000432	4.319608	0.731761	0.008638
 315	1.5700e-01	3.1363	-5.054317	0.000411	4.105766	0.695536	0.008210
 316	1.5750e-01	3.1470	-5.018396	0.000359	3.592546	0.608594	0.007184
 317	1.5800e-01	3.1589	-4.968792	0.000496	4.961134	0.840439	0.009921
 318	1.5850e-01	3.1665	-4.925174	0.000436	4.362377	0.739007	0.008724
 319	1.5900e-01	3.1778	-4.880273	0.000449	4.490682	0.760742	0.008980
 320	1.5950e-01	3.1873	-4.841360	0.000389	3.891924	0.659310	0.007783
 321	1.6000e-01	3.1949	-4.797314	0.000441	4.405145	0.746252	0.008809
 322	1.6050e-01	3.2037	-4.749420	0.000479	4.790061	0.811458	0.009579
 323	1.6100e-01	3.2153	-4.710079	0.000393	3.934693	0.666555	0.007868
 324	1.6150e-01	3.2257	-4.666461	0.000436	4.362377	0.739007	0.008724
 325	1.6200e-01	3.2358	-4.626692	0.000398	3.977461	0.673800	0.007954
 326	1.6250e-01	3.2443	-4.577515	0.000492	4.918366	0.833194	0.009835
 327	1.6300e-01	3.2544	-4.535607	0.000419	4.191303	0.710026	0.008381
 328	1.6350e-01	3.2639	-4.500542	0.000351	3.507009	0.594103	0.007013
 329	1.6400e-01	3.2785	-4.456069	0.000445	4.447914	0.753497	0.008895
 330	1.6450e-01	3.2861	-4.409458	0.000466	4.661756	0.789723	0.009322
 331	1.6500e-01	3.2984	-4.367551	0.000419	4.191303	0.710026	0.008381
 332	1.6550e-01	3.3039	-4.326926	0.000406	4.062998	0.688291	0.008125
 333	1.6600e-01	3.3170	-4.276894	0.000500	5.003903	0.847684	0.010006
 334	1.6650e-01	3.3247	-4.230283	0.000466	4.661756	0.789723	0.009322
 335	1.6700e-01	3.3362	-4.189659	0.000406	4.062998	0.688291	0.008125
 336	1.6750e-01	3.3469	-4.148607	0.000411	4.105766	0.695536	0.008210
 337	1.6800e-01	3.3554	-4.110548	0.000381	3.806388	0.644820	0.007612
 338	1.6850e-01	3.3643	-4.063509	0.000470	4.704524	0.796968	0.009408
 339	1.6900e-01	3.3762	-4.025023	0.000385	3.849156	0.652065	0.007697
 340	1.6950e-01	3.3862	-3.981405	0.000436	4.362377	0.739007	0.008724
 341	1.7000e-01	3.3921	-3.936932	0.000445	4.447914	0.753497	0.008895
 342	1.7050e-01	3.4052	-3.892459	0.000445	4.447914	0.753497	0.008895
 343	1.7100e-01	3.4164	-3.854400	0.000381	3.806388	0.644820	0.007612
 344	1.7150e-01	3.4259	-3.809927	0.000445	4.447914	0.753497	0.008895
 345	1.7200e-01	3.4372	-3.769731	0.000402	4.020230	0.681045	0.008039
 346	1.7250e-01	3.4468	-3.723975	0.000458	4.576219	0.775232	0.009151
 347	1.7300e-01	3.4558	-3.686344	0.000376	3.763619	0.637574	0.007526
 348	1.7350e-01	3.4686	-3.641871	0.000445	4.447914	0.753497	0.008895
 349	1.7400e-01	3.4753	-3.600391	0.000415	4.148535	0.702781	0.008296
 350	1.7450e-01	3.4860	-3.550786	0.000496	4.961134	0.840439	0.009921
 351	1.7500e-01	3.4943	-3.510590	0.000402	4.020230	0.681045	0.008039
 352	1.7550e-01	3.5049	-3.478945	0.000316	3.164862	0.536142	0.006329
 353	1.7600e-01	3.5146	-3.435328	0.000436	4.362377	0.739007	0.008724
 354	1.7650e-01	3.5257	-3.388716	0.000466	4.661756	0.789723	0.009322
 355	1.7700e-01	3.5358	-3.353651	0.000351	3.507009	0.594103	0.007013
 356	1.7750e-01	3.5468	-3.298060	0.000556	5.559892	0.941871	0.011118
 357	1.7800e-01	3.5571	-3.264705	0.000334	3.335935	0.565123	0.006671
 358	1.7850e-01	3.5651	-3.225364	0.000393	3.934693	0.666555	0.007868
 359	1.7900e-01	3.5754	-3.175331	0.000500	5.003903	0.847684	0.010006
 360	1.7950e-01	3.5852	-3.139839	0.000355	3.549777	0.601349	0.007099
 361	1.8000e-01	3.5931	-3.093655	0.000462	4.618987	0.782478	0.009237
 362	1.8050e-01	3.6053	-3.053886	0.000398	3.977461	0.673800	0.007954
 363	1.8100e-01	3.6173	-3.012406	0.000415	4.148535	0.702781	0.008296
 364	1.8150e-01	3.6279	-2.970071	0.000423	4.234072	0.717271	0.008467
 365	1.8200e-01	3.6359	-2.929875	0.000402	4.020230	0.681045	0.008039
 366	1.8250e-01	3.6481	-2.885402	0.000445	4.447914	0.753497	0.008895
 367	1.8300e-01	3.6575	-2.848626	0.000368	3.678082	0.623084	0.007355
 368	1.8350e-01	3.6673	-2.797738	0.000509	5.089440	0.862174	0.010177
 369	1.8400e-01	3.6749	-2.764384	0.000334	3.335935	0.565123	0.006671
 370	1.8450e-01	3.6856	-2.719911	0.000445	4.447914	0.753497	0.008895
 371	1.8500e-01	3.6945	-2.683135	0.000368	3.678082	0.623084	0.007355
 372	1.8550e-01	3.7073	-2.638234	0.000449	4.490682	0.760742	0.008980
 373	1.8600e-01	3.7170	-2.594616	0.000436	4.362377	0.739007	0.008724
 374	1.8650e-01	3.7257	-2.562544	0.000321	3.207630	0.543387	0.006414
 375	1.8700e-01	3.7366	-2.514650	0.000479	4.790061	0.811458	0.009579
 376	1.8750e-01	3.7457	-2.480013	0.000346	3.464240	0.586858	0.006928
 377	1.8800e-01	3.7588	-2.430408	0.000496	4.961134	0.840439	0.009921
 378	1.8850e-01	3.7671	-2.401330	0.000291	2.908251	0.492671	0.005816
 379	1.8900e-01	3.7759	-2.350870	0.000505	5.046671	0.854929	0.010092
 380	1.8950e-01	3.7851	-2.308963	0.000419	4.191303	0.710026	0.008381
 381	1.9000e-01	3.7959	-2.264490	0.000445	4.447914	0.753497	0.008895
 382	1.9050e-01	3.8062	-2.223438	0.000411	4.105766	0.695536	0.008210
 383	1.9100e-01	3.8187	-2.187945	0.000355	3.549777	0.601349	0.007099
 384	1.9150e-01	3.8245	-2.147748	0.000402	4.020230	0.681045	0.008039
 385	1.9200e-01	3.8379	-2.104985	0.000428	4.276840	0.724516	0.008553
 386	1.9250e-01	3.8452	-2.066072	0.000389	3.891924	0.659310	0.007783
 387	1.9300e-01	3.8544	-2.030151	0.000359	3.592546	0.608594	0.007184
 388	1.9350e-01	3.8684	-1.983967	0.000462	4.618987	0.782478	0.009237
 389	1.9400e-01	3.8747	-1.947619	0.000364	3.635314	0.615839	0.007270
 390	1.9450e-01	3.8846	-1.896304	0.000513	5.132208	0.869420	0.010263
 391	1.9500e-01	3.8977	-1.863377	0.000329	3.293167	0.557878	0.006585
 392	1.9550e-01	3.9058	-1.825318	0.000381	3.806388	0.644820	0.007612
 393	1.9600e-01	3.9136	-1.779563	0.000458	4.576219	0.775232	0.009151
 394	1.9650e-01	3.9252	-1.740221	0.000393	3.934693	0.666555	0.007868
 395	1.9700e-01	3.9340	-1.697886	0.000423	4.234072	0.717271	0.008467
 396	1.9750e-01	3.9487	-1.655124	0.000428	4.276840	0.724516	0.008553
 397	1.9800e-01	3.9551	-1.610223	0.000449	4.490682	0.760742	0.008980
 398	1.9850e-01	3.9651	-1.570026	0.000402	4.020230	0.681045	0.008039
 399	1.9900e-01	3.9769	-1.528547	0.000415	4.148535	0.702781	0.008296
 400	1.9950e-01	3.9844	-1.499468	0.000291	2.908251	0.492671	0.005816
 401	2.0000e-01	3.9966	-1.456705	0.000428	4.276840	0.724516	0.008553
 402	2.0050e-01	4.0031	-1.411805	0.000449	4.490682	0.760742	0.008980
 403	2.0100e-01	4.0142	-1.369898	0.000419	4.191303	0.710026	0.008381
 404	2.0150e-01	4.0274	-1.340819	0.000291	2.908251	0.492671	0.005816
 405	2.0200e-01	4.0365	-1.296774	0.000441	4.405145	0.746252	0.008809
 406	2.0250e-01	4.0466	-1.253583	0.000432	4.319608	0.731761	0.008638
 407	2.0300e-01	4.0570	-1.212531	0.000411	4.105766	0.695536	0.008210
 408	2.0350e-01	4.0628	-1.161216	0.000513	5.132208	0.869420	0.010263
 409	2.0400e-01	4.0762	-1.127434	0.000338	3.378704	0.572368	0.006756
 410	2.0450e-01	4.0852	-1.094507	0.000329	3.293167	0.557878	0.006585
 411	2.0500e-01	4.0961	-1.045330	0.000492	4.918366	0.833194	0.009835
 412	2.0550e-01	4.1064	-1.011548	0.000338	3.378704	0.572368	0.006756
 413	2.0600e-01	4.1162	-0.966219	0.000453	4.533450	0.767987	0.009066
 414	2.0650e-01	4.1260	-0.923029	0.000432	4.319608	0.731761	0.008638
 415	2.0700e-01	4.1364	-0.887964	0.000351	3.507009	0.594103	0.007013
 416	2.0750e-01	4.1467	-0.844774	0.000432	4.319608	0.731761	0.008638
 417	2.0800e-01	4.1547	-0.810991	0.000338	3.378704	0.572368	0.006756
 418	2.0850e-01	4.1641	-0.768656	0.000423	4.234072	0.717271	0.008467
 419	2.0900e-01	4.1766	-0.723756	0.000449	4.490682	0.760742	0.008980
 420	2.0950e-01	4.1864	-0.692539	0.000312	3.122093	0.528897	0.006243
 421	2.1000e-01	4.1969	-0.650204	0.000423	4.234072	0.717271	0.008467
 422	2.1050e-01	4.2053	-0.613428	0.000368	3.678082	0.623084	0.007355
 423	2.1100e-01	4.2184	-0.569383	0.000441	4.405145	0.746252	0.008809
 424	2.1150e-01	4.2262	-0.530897	0.000385	3.849156	0.652065	0.007697
 425	2.1200e-01	4.2366	-0.484713	0.000462	4.618987	0.782478	0.009237
 426	2.1250e-01	4.2450	-0.444944	0.000398	3.977461	0.673800	0.007954
 427	2.1300e-01	4.2543	-0.409451	0.000355	3.549777	0.601349	0.007099
 428	2.1350e-01	4.2661	-0.371393	0.000381	3.806388	0.644820	0.007612
 429	2.1400e-01	4.2741	-0.322216	0.000492	4.918366	0.833194	0.009835
 430	2.1450e-01	4.2865	-0.299124	0.000231	2.309494	0.391239	0.004618
 431	2.1500e-01	4.2981	-0.253796	0.000453	4.533450	0.767987	0.009066
 432	2.1550e-01	4.3060	-0.213171	0.000406	4.062998	0.688291	0.008125
 433	2.1600e-01	4.3140	-0.162711	0.000505	5.046671	0.854929	0.010092
 434	2.1650e-01	4.3240	-0.130212	0.000325	3.250398	0.550632	0.006500
 435	2.1700e-01	4.3347	-0.093436	0.000368	3.678082	0.623084	0.007355
 436	2.1750e-01	4.3463	-0.048963	0.000445	4.447914	0.753497	0.008895
 437	2.1800e-01	4.3576	-0.013898	0.000351	3.507009	0.594103	0.007013
 438	2.1850e-01	4.3643	0.030575	0.000445	4.447914	0.753497	0.008895
 439	2.1900e-01	4.3744	0.072910	0.000423	4.234072	0.717271	0.008467
 440	2.1950e-01	4.3842	0.100706	0.000278	2.779946	0.470936	0.005559
 441	2.2000e-01	4.3970	0.147317	0.000466	4.661756	0.789723	0.009322
 442	2.2050e-01	4.4060	0.183237	0.000359	3.592546	0.608594	0.007184
 443	2.2100e-01	4.4171	0.227283	0.000441	4.405145	0.746252	0.008809
 444	2.2150e-01	4.4237	0.265341	0.000381	3.806388	0.644820	0.007612
 445	2.2200e-01	4.4379	0.304255	0.000389	3.891924	0.659310	0.007783
 446	2.2250e-01	4.4470	0.338038	0.000338	3.378704	0.572368	0.006756
 447	2.2300e-01	4.4543	0.379945	0.000419	4.191303	0.710026	0.008381
 448	2.2350e-01	4.4662	0.415438	0.000355	3.549777	0.601349	0.007099
 449	2.2400e-01	4.4768	0.462904	0.000475	4.747292	0.804213	0.009493
 450	2.2450e-01	4.4855	0.491555	0.000287	2.865483	0.485426	0.005730
 451	2.2500e-01	4.4943	0.536884	0.000453	4.533450	0.767987	0.009066
 452	2.2550e-01	4.5059	0.576653	0.000398	3.977461	0.673800	0.007954
 453	2.2600e-01	4.5160	0.613856	0.000372	3.720851	0.630329	0.007441
 454	2.2650e-01	4.5247	0.659184	0.000453	4.533450	0.767987	0.009066
 455	2.2700e-01	4.5338	0.694250	0.000351	3.507009	0.594103	0.007013
 456	2.2750e-01	4.5441	0.731025	0.000368	3.678082	0.623084	0.007355
 457	2.2800e-01	4.5590	0.763525	0.000325	3.250398	0.550632	0.006500
 458	2.2850e-01	4.5685	0.808853	0.000453	4.533450	0.767987	0.009066
 459	2.2900e-01	4.5760	0.843063	0.000342	3.421472	0.579613	0.006842
 460	2.2950e-01	4.5879	0.884543	0.000415	4.148535	0.702781	0.008296
 461	2.3000e-01	4.5972	0.920891	0.000364	3.635314	0.615839	0.007270
 462	2.3050e-01	4.6057	0.964936	0.000441	4.405145	0.746252	0.008809
 463	2.3100e-01	4.6158	1.005988	0.000411	4.105766	0.695536	0.008210
 464	2.3150e-01	4.6246	1.033356	0.000274	2.737178	0.463690	0.005474
 465	2.3200e-01	4.6375	1.078257	0.000449	4.490682	0.760742	0.008980
 466	2.3250e-01	4.6463	1.126151	0.000479	4.790061	0.811458	0.009579
 467	2.3300e-01	4.6552	1.159934	0.000338	3.378704	0.572368	0.006756
 468	2.3350e-01	4.6658	1.196709	0.000368	3.678082	0.623084	0.007355
 469	2.3400e-01	4.6754	1.232202	0.000355	3.549777	0.601349	0.007099
 470	2.3450e-01	4.6863	1.270261	0.000381	3.806388	0.644820	0.007612
 471	2.3500e-01	4.6985	1.301478	0.000312	3.122093	0.528897	0.006243
 472	2.3550e-01	4.7101	1.342530	0.000411	4.105766	0.695536	0.008210
 473	2.3600e-01	4.7168	1.384864	0.000423	4.234072	0.717271	0.008467
 474	2.3650e-01	4.7267	1.423351	0.000385	3.849156	0.652065	0.007697
 475	2.3700e-01	4.7369	1.462692	0.000393	3.934693	0.666555	0.007868
 476	2.3750e-01	4.7467	1.499468	0.000368	3.678082	0.623084	0.007355
 477	2.3800e-01	4.7552	1.548645	0.000492	4.918366	0.833194	0.009835
 478	2.3850e-01	4.7675	1.579006	0.000304	3.036556	0.514407	0.006072
 479	2.3900e-01	4.7772	1.612361	0.000334	3.335935	0.565123	0.006671
 480	2.3950e-01	4.7891	1.656834	0.000445	4.447914	0.753497	0.008895
 481	2.4000e-01	4.7952	1.682492	0.000257	2.566104	0.434710	0.005132
 482	2.4050e-01	4.8071	1.733379	0.000509	5.089440	0.862174	0.010177
 483	2.4100e-01	4.8166	1.768017	0.000346	3.464240	0.586858	0.006928
 484	2.4150e-01	4.8260	1.804365	0.000364	3.635314	0.615839	0.007270
 485	2.4200e-01	4.8376	1.841996	0.000376	3.763619	0.637574	0.007526
 486	2.4250e-01	4.8468	1.882193	0.000402	4.020230	0.681045	0.008039
 487	2.4300e-01	4.8550	1.922817	0.000406	4.062998	0.688291	0.008125
 488	2.4350e-01	4.8657	1.961303	0.000385	3.849156	0.652065	0.007697
 489	2.4400e-01	4.8731	1.998079	0.000368	3.678082	0.623084	0.007355
 490	2.4450e-01	4.8867	2.038703	0.000406	4.062998	0.688291	0.008125
 491	2.4500e-01	4.8964	2.070775	0.000321	3.207630	0.543387	0.006414
 492	2.4550e-01	4.9078	2.113110	0.000423	4.234072	0.717271	0.008467
 493	2.4600e-01	4.9170	2.141761	0.000287	2.865483	0.485426	0.005730
 494	2.4650e-01	4.9277	2.183668	0.000419	4.191303	0.710026	0.008381
 495	2.4700e-01	4.9390	2.220444	0.000368	3.678082	0.623084	0.007355
 496	2.4750e-01	4.9457	2.261496	0.000411	4.105766	0.695536	0.008210
 497	2.4800e-01	4.9573	2.304686	0.000432	4.319608	0.731761	0.008638
 498	2.4850e-01	4.9672	2.338041	0.000334	3.335935	0.565123	0.006671
 499	2.4900e-01	4.9789	2.373106	0.000351	3.507009	0.594103	0.007013
 500	2.4950e-01	4.9921	2.416297	0.000432	4.319608	0.731761	0.008638
 501	2.5000e-01	4.9960	2.450507	0.000342	3.421472	0.579613	0.006842
 502	2.5050e-01	5.0055	2.490703	0.000402	4.020230	0.681045	0.008039
 503	2.5100e-01	5.0171	2.521920	0.000312	3.122093	0.528897	0.006243
 504	2.5150e-01	5.0253	2.563827	0.000419	4.191303	0.710026	0.008381
 505	2.5200e-01	5.0375	2.601886	0.000381	3.806388	0.644820	0.007612
 506	2.5250e-01	5.0500	2.634386	0.000325	3.250398	0.550632	0.006500
 507	2.5300e-01	5.0571	2.672872	0.000385	3.849156	0.652065	0.007697
 508	2.5350e-01	5.0659	2.706227	0.000334	3.335935	0.565123	0.006671
 509	2.5400e-01	5.0757	2.746851	0.000406	4.062998	0.688291	0.008125
 510	2.5450e-01	5.0843	2.793890	0.000470	4.704524	0.796968	0.009408
 511	2.5500e-01	5.0955	2.824679	0.000308	3.079325	0.521652	0.006158
 512	2.5550e-01	5.1056	2.862310	0.000376	3.763619	0.637574	0.007526
 513	2.5600e-01	5.1166	2.899086	0.000368	3.678082	0.623084	0.007355
 514	2.5650e-01	5.1245	2.938427	0.000393	3.934693	0.666555	0.007868
 515	2.5700e-01	5.1349	2.973065	0.000346	3.464240	0.586858	0.006928
 516	2.5750e-01	5.1447	3.004281	0.000312	3.122093	0.528897	0.006243
 517	2.5800e-01	5.1550	3.044906	0.000406	4.062998	0.688291	0.008125
 518	2.5850e-01	5.1656	3.083820	0.000389	3.891924	0.659310	0.007783
 519	2.5900e-01	5.1758	3.118030	0.000342	3.421472	0.579613	0.006842
 520	2.5950e-01	5.1859	3.157799	0.000398	3.977461	0.673800	0.007954
 521	2.6000e-01	5.1978	3.197996	0.000402	4.020230	0.681045	0.008039
 522	2.6050e-01	5.2069	3.229212	0.000312	3.122093	0.528897	0.006243
 523	2.6100e-01	5.2173	3.263850	0.000346	3.464240	0.586858	0.006928
 524	2.6150e-01	5.2258	3.303619	0.000398	3.977461	0.673800	0.007954
 525	2.6200e-01	5.2374	3.336119	0.000325	3.250398	0.550632	0.006500
 526	2.6250e-01	5.2460	3.371611	0.000355	3.549777	0.601349	0.007099
 527	2.6300e-01	5.2551	3.413091	0.000415	4.148535	0.702781	0.008296
 528	2.6350e-01	5.2646	3.453716	0.000406	4.062998	0.688291	0.008125
 529	2.6400e-01	5.2771	3.487498	0.000338	3.378704	0.572368	0.006756
 530	2.6450e-01	5.2859	3.525129	0.000376	3.763619	0.637574	0.007526
 531	2.6500e-01	5.2951	3.565753	0.000406	4.062998	0.688291	0.008125
 532	2.6550e-01	5.3058	3.599963	0.000342	3.421472	0.579613	0.006842
 533	2.6600e-01	5.3186	3.635456	0.000355	3.549777	0.601349	0.007099
 534	2.6650e-01	5.3284	3.678646	0.000432	4.319608	0.731761	0.008638
 535	2.6700e-01	5.3375	3.709863	0.000312	3.122093	0.528897	0.006243
 536	2.6750e-01	5.3462	3.750060	0.000402	4.020230	0.681045	0.008039
 537	2.6800e-01	5.3561	3.779566	0.000295	2.951020	0.499916	0.005901
 538	2.6850e-01	5.3671	3.822756	0.000432	4.319608	0.731761	0.008638
 539	2.6900e-01	5.3760	3.851835	0.000291	2.908251	0.492671	0.005816
 540	2.6950e-01	5.3857	3.894597	0.000428	4.276840	0.724516	0.008553
 541	2.7000e-01	5.3961	3.926669	0.000321	3.207630	0.543387	0.006414
 542	2.7050e-01	5.4041	3.966438	0.000398	3.977461	0.673800	0.007954
 543	2.7100e-01	5.4160	4.004069	0.000376	3.763619	0.637574	0.007526
 544	2.7150e-01	5.4266	4.039562	0.000355	3.549777	0.601349	0.007099
 545	2.7200e-01	5.4376	4.076338	0.000368	3.678082	0.623084	0.007355
 546	2.7250e-01	5.4468	4.104134	0.000278	2.779946	0.470936	0.005559
 547	2.7300e-01	5.4562	4.151172	0.000470	4.704524	0.796968	0.009408
 548	2.7350e-01	5.4652	4.188376	0.000372	3.720851	0.630329	0.007441
 549	2.7400e-01	5.4776	4.219165	0.000308	3.079325	0.521652	0.006158
 550	2.7450e-01	5.4871	4.249526	0.000304	3.036556	0.514407	0.006072
 551	2.7500e-01	5.4951	4.293999	0.000445	4.447914	0.753497	0.008895
 552	2.7550e-01	5.5072	4.322222	0.000282	2.822714	0.478181	0.005645
 553	2.7600e-01	5.5161	4.371399	0.000492	4.918366	0.833194	0.009835
 554	2.7650e-01	5.5273	4.405182	0.000338	3.378704	0.572368	0.006756
 555	2.7700e-01	5.5356	4.445379	0.000402	4.020230	0.681045	0.008039
 556	2.7750e-01	5.5447	4.473602	0.000282	2.822714	0.478181	0.005645
 557	2.7800e-01	5.5554	4.509522	0.000359	3.592546	0.608594	0.007184
 558	2.7850e-01	5.5667	4.551430	0.000419	4.191303	0.710026	0.008381
 559	2.7900e-01	5.5768	4.586923	0.000355	3.549777	0.601349	0.007099
 560	2.7950e-01	5.5878	4.620705	0.000338	3.378704	0.572368	0.006756
 561	2.8000e-01	5.5951	4.663895	0.000432	4.319608	0.731761	0.008638
 562	2.8050e-01	5.6052	4.696395	0.000325	3.250398	0.550632	0.006500
 563	2.8100e-01	5.6158	4.726328	0.000299	2.993788	0.507161	0.005987
 564	2.8150e-01	5.6250	4.763104	0.000368	3.678082	0.623084	0.007355
 565	2.8200e-01	5.6320	4.796887	0.000338	3.378704	0.572368	0.006756
 566	2.8250e-01	5.6433	4.838794	0.000419	4.191303	0.710026	0.008381
 567	2.8300e-01	5.6543	4.874714	0.000359	3.592546	0.608594	0.007184
 568	2.8350e-01	5.6686	4.906786	0.000321	3.207630	0.543387	0.006414
 569	2.8400e-01	5.6752	4.949549	0.000428	4.276840	0.724516	0.008553
 570	2.8450e-01	5.6873	4.982904	0.000334	3.335935	0.565123	0.006671
 571	2.8500e-01	5.6906	5.026949	0.000441	4.405145	0.746252	0.008809
 572	2.8550e-01	5.7086	5.053462	0.000265	2.651641	0.449200	0.005303
 573	2.8600e-01	5.7143	5.083823	0.000304	3.036556	0.514407	0.006072
 574	2.8650e-01	5.7251	5.123592	0.000398	3.977461	0.673800	0.007954
 575	2.8700e-01	5.7358	5.165500	0.000419	4.191303	0.710026	0.008381
 576	2.8750e-01	5.7471	5.189874	0.000244	2.437799	0.412974	0.004875
 577	2.8800e-01	5.7574	5.229216	0.000393	3.934693	0.666555	0.007868
 578	2.8850e-01	5.7663	5.261715	0.000325	3.250398	0.550632	0.006500
 579	2.8900e-01	5.7739	5.306616	0.000449	4.490682	0.760742	0.008980
 580	2.8950e-01	5.7864	5.341253	0.000346	3.464240	0.586858	0.006928
 581	2.9000e-01	5.7962	5.373753	0.000325	3.250398	0.550632	0.006500
 582	2.9050e-01	5.8069	5.410529	0.000368	3.678082	0.623084	0.007355
 583	2.9100e-01	5.8154	5.453719	0.000432	4.319608	0.731761	0.008638
 584	2.9150e-01	5.8240	5.483225	0.000295	2.951020	0.499916	0.005901
 585	2.9200e-01	5.8351	5.514869	0.000316	3.164862	0.536142	0.006329
 586	2.9250e-01	5.8450	5.553356	0.000385	3.849156	0.652065	0.007697
 587	2.9300e-01	5.8551	5.580724	0.000274	2.737178	0.463690	0.005474
 588	2.9350e-01	5.8643	5.625624	0.000449	4.490682	0.760742	0.008980
 589	2.9400e-01	5.8752	5.662400	0.000368	3.678082	0.623084	0.007355
 590	2.9450e-01	5.8862	5.693189	0.000308	3.079325	0.521652	0.006158
 591	2.9500e-01	5.8972	5.726116	0.000329	3.293167	0.557878	0.006585
 592	2.9550e-01	5.9064	5.766313	0.000402	4.020230	0.681045	0.008039
 593	2.9600e-01	5.9138	5.800951	0.000346	3.464240	0.586858	0.006928
 594	2.9650e-01	5.9241	5.832167	0.000312	3.122093	0.528897	0.006243
 595	2.9700e-01	5.9372	5.870226	0.000381	3.806388	0.644820	0.007612
 596	2.9750e-01	5.9443	5.905291	0.000351	3.507009	0.594103	0.007013
 597	2.9800e-01	5.9583	5.942922	0.000376	3.763619	0.637574	0.007526
 598	2.9850e-01	5.9662	5.974139	0.000312	3.122093	0.528897	0.006243
 599	2.9900e-01	5.9767	6.013480	0.000393	3.934693	0.666555	0.007868
 600	2.9950e-01	5.9875	6.045980	0.000325	3.250398	0.550632	0.006500
 601	3.0000e-01	5.9961	6.081900	0.000359	3.592546	0.608594	0.007184
 602	3.0050e-01	6.0065	6.122097	0.000402	4.020230	0.681045	0.008039
 603	3.0100e-01	6.0181	6.146044	0.000240	2.395030	0.405729	0.004789
 604	3.0150e-01	6.0269	6.186241	0.000402	4.020230	0.681045	0.008039
 605	3.0200e-01	6.0355	6.223017	0.000368	3.678082	0.623084	0.007355
 606	3.0250e-01	6.0443	6.261075	0.000381	3.806388	0.644820	0.007612
 607	3.0300e-01	6.0559	6.294430	0.000334	3.335935	0.565123	0.006671
 608	3.0350e-01	6.0645	6.331206	0.000368	3.678082	0.623084	0.007355
 609	3.0400e-01	6.0760	6.365416	0.000342	3.421472	0.579613	0.006842
 610	3.0450e-01	6.0852	6.398771	0.000334	3.335935	0.565123	0.006671
 611	3.0500e-01	6.0974	6.435974	0.000372	3.720851	0.630329	0.007441
 612	3.0550e-01	6.1041	6.463342	0.000274	2.737178	0.463690	0.005474
 613	3.0600e-01	6.1157	6.501828	0.000385	3.849156	0.652065	0.007697
 614	3.0650e-01	6.1250	6.543736	0.000419	4.191303	0.710026	0.008381
 615	3.0700e-01	6.1354	6.569393	0.000257	2.566104	0.434710	0.005132
 616	3.0750e-01	6.1465	6.604459	0.000351	3.507009	0.594103	0.007013
 617	3.0800e-01	6.1578	6.645938	0.000415	4.148535	0.702781	0.008296
 618	3.0850e-01	6.1639	6.677582	0.000316	3.164862	0.536142	0.006329
 619	3.0900e-01	6.1768	6.713931	0.000364	3.635314	0.615839	0.007270
 620	3.0950e-01	6.1847	6.743864	0.000299	2.993788	0.507161	0.005987
 621	3.1000e-01	6.1975	6.777219	0.000334	3.335935	0.565123	0.006671
 622	3.1050e-01	6.2073	6.820409	0.000432	4.319608	0.731761	0.008638
 623	3.1100e-01	6.2183	6.846494	0.000261	2.608872	0.441955	0.005217
 624	3.1150e-01	6.2277	6.878994	0.000325	3.250398	0.550632	0.006500
 625	3.1200e-01	6.2347	6.916625	0.000376	3.763619	0.637574	0.007526
 626	3.1250e-01	6.2463	6.950835	0.000342	3.421472	0.579613	0.006842
 627	3.1300e-01	6.2558	6.979058	0.000282	2.822714	0.478181	0.005645
 628	3.1350e-01	6.2671	7.016689	0.000376	3.763619	0.637574	0.007526
 629	3.1400e-01	6.2769	7.055603	0.000389	3.891924	0.659310	0.007783
 630	3.1450e-01	6.2857	7.086820	0.000312	3.122093	0.528897	0.006243
 631	3.1500e-01	6.2959	7.125306	0.000385	3.849156	0.652065	0.007697
 632	3.1550e-01	6.3074	7.153102	0.000278	2.779946	0.470936	0.005559
 633	3.1600e-01	6.3177	7.189450	0.000364	3.635314	0.615839	0.007270
 634	3.1650e-01	6.3263	7.227081	0.000376	3.763619	0.637574	0.007526
 635	3.1700e-01	6.3348	7.265995	0.000389	3.891924	0.659310	0.007783
 636	3.1750e-01	6.3478	7.296784	0.000308	3.079325	0.521652	0.006158
 637	3.1800e-01	6.3568	7.328856	0.000321	3.207630	0.543387	0.006414
 638	3.1850e-01	6.3666	7.360500	0.000316	3.164862	0.536142	0.006329
 639	3.1900e-01	6.3727	7.409249	0.000488	4.875598	0.825949	0.009750
 640	3.1950e-01	6.3843	7.433196	0.000240	2.395030	0.405729	0.004789
 641	3.2000e-01	6.3953	7.474676	0.000415	4.148535	0.702781	0.008296
 642	3.2050e-01	6.4053	7.505037	0.000304	3.036556	0.514407	0.006072
 643	3.2100e-01	6.4160	7.540530	0.000355	3.549777	0.601349	0.007099
 644	3.2150e-01	6.4270	7.576878	0.000364	3.635314	0.615839	0.007270
 645	3.2200e-01	6.4343	7.609378	0.000325	3.250398	0.550632	0.006500
 646	3.2250e-01	6.4453	7.633325	0.000240	2.395030	0.405729	0.004789
 647	3.2300e-01	6.4572	7.671811	0.000385	3.849156	0.652065	0.007697
 648	3.2350e-01	6.4661	7.710725	0.000389	3.891924	0.659310	0.007783
 649	3.2400e-01	6.4777	7.738521	0.000278	2.779946	0.470936	0.005559
 650	3.2450e-01	6.4862	7.779573	0.000411	4.105766	0.695536	0.008210
 651	3.2500e-01	6.4941	7.811217	0.000316	3.164862	0.536142	0.006329
 652	3.2550e-01	6.5057	7.848848	0.000376	3.763619	0.637574	0.007526
 653	3.2600e-01	6.5146	7.887334	0.000385	3.849156	0.652065	0.007697
 654	3.2650e-01	6.5260	7.921117	0.000338	3.378704	0.572368	0.006756
 655	3.2700e-01	6.5363	7.945491	0.000244	2.437799	0.412974	0.004875
 656	3.2750e-01	6.5479	7.980557	0.000351	3.507009	0.594103	0.007013
 657	3.2800e-01	6.5564	8.017760	0.000372	3.720851	0.630329	0.007441
 658	3.2850e-01	6.5686	8.056674	0.000389	3.891924	0.659310	0.007783
 659	3.2900e-01	6.5759	8.078055	0.000214	2.138420	0.362258	0.004276
 660	3.2950e-01	6.5863	8.128087	0.000500	5.003903	0.847684	0.010006
 661	3.3000e-01	6.5970	8.159304	0.000312	3.122093	0.528897	0.006243
 662	3.3050e-01	6.6054	8.188810	0.000295	2.951020	0.499916	0.005901
 663	3.3100e-01	6.6138	8.223875	0.000351	3.507009	0.594103	0.007013
 664	3.3150e-01	6.6272	8.246967	0.000231	2.309494	0.391239	0.004618
 665	3.3200e-01	6.6370	8.292296	0.000453	4.533450	0.767987	0.009066
 666	3.3250e-01	6.6467	8.329499	0.000372	3.720851	0.630329	0.007441
 667	3.3300e-01	6.6544	8.355156	0.000257	2.566104	0.434710	0.005132
 668	3.3350e-01	6.6675	8.396636	0.000415	4.148535	0.702781	0.008296
 669	3.3400e-01	6.6760	8.429136	0.000325	3.250398	0.550632	0.006500
 670	3.3450e-01	6.6833	8.462063	0.000329	3.293167	0.557878	0.006585
 671	3.3500e-01	6.6937	8.492852	0.000308	3.079325	0.521652	0.006158
 672	3.3550e-01	6.7065	8.527062	0.000342	3.421472	0.579613	0.006842
 673	3.3600e-01	6.7159	8.568541	0.000415	4.148535	0.702781	0.008296
 674	3.3650e-01	6.7276	8.595909	0.000274	2.737178	0.463690	0.005474
 675	3.3700e-01	6.7334	8.625843	0.000299	2.993788	0.507161	0.005987
 676	3.3750e-01	6.7477	8.659198	0.000334	3.335935	0.565123	0.006671
 677	3.3800e-01	6.7554	8.695119	0.000359	3.592546	0.608594	0.007184
 678	3.3850e-01	6.7664	8.731039	0.000359	3.592546	0.608594	0.007184
 679	3.3900e-01	6.7773	8.768670	0.000376	3.763619	0.637574	0.007526
 680	3.3950e-01	6.7874	8.800742	0.000321	3.207630	0.543387	0.006414
 681	3.4000e-01	6.7993	8.828110	0.000274	2.737178	0.463690	0.005474
 682	3.4050e-01	6.8060	8.870445	0.000423	4.234072	0.717271	0.008467
 683	3.4100e-01	6.8158	8.894820	0.000244	2.437799	0.412974	0.004875
 684	3.4150e-01	6.8268	8.934589	0.000398	3.977461	0.673800	0.007954
 685	3.4200e-01	6.8387	8.965805	0.000312	3.122093	0.528897	0.006243
 686	3.4250e-01	6.8451	8.998732	0.000329	3.293167	0.557878	0.006585
 687	3.4300e-01	6.8555	9.032087	0.000334	3.335935	0.565123	0.006671
 688	3.4350e-01	6.8665	9.068435	0.000364	3.635314	0.615839	0.007270
 689	3.4400e-01	6.8781	9.103928	0.000355	3.549777	0.601349	0.007099
 690	3.4450e-01	6.8854	9.129158	0.000252	2.523336	0.427465	0.005046
 691	3.4500e-01	6.8994	9.167217	0.000381	3.806388	0.644820	0.007612
 692	3.4550e-01	6.9086	9.207841	0.000406	4.062998	0.688291	0.008125
 693	3.4600e-01	6.9167	9.236920	0.000291	2.908251	0.492671	0.005816
 694	3.4650e-01	6.9255	9.274551	0.000376	3.763619	0.637574	0.007526
 695	3.4700e-01	6.9365	9.302774	0.000282	2.822714	0.478181	0.005645
 696	3.4750e-01	6.9452	9.335274	0.000325	3.250398	0.550632	0.006500
 697	3.4800e-01	6.9589	9.377608	0.000423	4.234072	0.717271	0.008467
 698	3.4850e-01	6.9647	9.402838	0.000252	2.523336	0.427465	0.005046
 699	3.4900e-01	6.9777	9.436193	0.000334	3.335935	0.565123	0.006671
 700	3.4950e-01	6.9849	9.470831	0.000346	3.464240	0.586858	0.006928
 701	3.5000e-01	6.9971	9.504186	0.000334	3.335935	0.565123	0.006671
 702	3.5050e-01	7.0056	9.534119	0.000299	2.993788	0.507161	0.005987
 703	3.5100e-01	7.0163	9.567474	0.000334	3.335935	0.565123	0.006671
 704	3.5150e-01	7.0245	9.611947	0.000445	4.447914	0.753497	0.008895
 705	3.5200e-01	7.0343	9.640170	0.000282	2.822714	0.478181	0.005645
 706	3.5250e-01	7.0474	9.669249	0.000291	2.908251	0.492671	0.005816
 707	3.5300e-01	7.0563	9.707308	0.000381	3.806388	0.644820	0.007612
 708	3.5350e-01	7.0633	9.735531	0.000282	2.822714	0.478181	0.005645
 709	3.5400e-01	7.0755	9.770168	0.000346	3.464240	0.586858	0.006928
 710	3.5450e-01	7.0880	9.804378	0.000342	3.421472	0.579613	0.006842
 711	3.5500e-01	7.0984	9.840727	0.000364	3.635314	0.615839	0.007270
 712	3.5550e-01	7.1051	9.873226	0.000325	3.250398	0.550632	0.006500
 713	3.5600e-01	7.1173	9.910857	0.000376	3.763619	0.637574	0.007526
 714	3.5650e-01	7.1240	9.946778	0.000359	3.592546	0.608594	0.007184
 715	3.5700e-01	7.1375	9.970725	0.000240	2.395030	0.405729	0.004789
 716	3.5750e-01	7.1463	10.005790	0.000351	3.507009	0.594103	0.007013
 717	3.5800e-01	7.1570	10.040428	0.000346	3.464240	0.586858	0.006928
 718	3.5850e-01	7.1661	10.072927	0.000325	3.250398	0.550632	0.006500
 719	3.5900e-01	7.1753	10.110986	0.000381	3.806388	0.644820	0.007612
 720	3.5950e-01	7.1881	10.129374	0.000184	1.839041	0.311542	0.003678
 721	3.6000e-01	7.1973	10.175130	0.000458	4.576219	0.775232	0.009151
 722	3.6050e-01	7.2070	10.207629	0.000325	3.250398	0.550632	0.006500
 723	3.6100e-01	7.2174	10.240556	0.000329	3.293167	0.557878	0.006585
 724	3.6150e-01	7.2260	10.276904	0.000364	3.635314	0.615839	0.007270
 725	3.6200e-01	7.2388	10.304272	0.000274	2.737178	0.463690	0.005474
 726	3.6250e-01	7.2464	10.350884	0.000466	4.661756	0.789723	0.009322
 727	3.6300e-01	7.2592	10.369699	0.000188	1.881810	0.318787	0.003763
 728	3.6350e-01	7.2681	10.405192	0.000355	3.549777	0.601349	0.007099
 729	3.6400e-01	7.2754	10.445389	0.000402	4.020230	0.681045	0.008039
 730	3.6450e-01	7.2845	10.477033	0.000316	3.164862	0.536142	0.006329
 731	3.6500e-01	7.2974	10.503546	0.000265	2.651641	0.449200	0.005303
 732	3.6550e-01	7.3065	10.544170	0.000406	4.062998	0.688291	0.008125
 733	3.6600e-01	7.3172	10.578808	0.000346	3.464240	0.586858	0.006928
 734	3.6650e-01	7.3260	10.609169	0.000304	3.036556	0.514407	0.006072
 735	3.6700e-01	7.3370	10.632689	0.000235	2.352262	0.398484	0.004704
 736	3.6750e-01	7.3474	10.669892	0.000372	3.720851	0.630329	0.007441
 737	3.6800e-01	7.3560	10.704957	0.000351	3.507009	0.594103	0.007013
 738	3.6850e-01	7.3627	10.749003	0.000441	4.405145	0.746252	0.008809
 739	3.6900e-01	7.3764	10.776371	0.000274	2.737178	0.463690	0.005474
 740	3.6950e-01	7.3856	10.802028	0.000257	2.566104	0.434710	0.005132
 741	3.7000e-01	7.3962	10.845646	0.000436	4.362377	0.739007	0.008724
 742	3.7050e-01	7.4072	10.876007	0.000304	3.036556	0.514407	0.006072
 743	3.7100e-01	7.4170	10.910217	0.000342	3.421472	0.579613	0.006842
 744	3.7150e-01	7.4243	10.942289	0.000321	3.207630	0.543387	0.006414
 745	3.7200e-01	7.4353	10.975644	0.000334	3.335935	0.565123	0.006671
 746	3.7250e-01	7.4457	11.004723	0.000291	2.908251	0.492671	0.005816
 747	3.7300e-01	7.4568	11.045347	0.000406	4.062998	0.688291	0.008125
 748	3.7350e-01	7.4658	11.077419	0.000321	3.207630	0.543387	0.006414
 749	3.7400e-01	7.4738	11.112484	0.000351	3.507009	0.594103	0.007013
 750	3.7450e-01	7.4902	11.144556	0.000321	3.207630	0.543387	0.006414
 751	3.7500e-01	7.4951	11.173207	0.000287	2.865483	0.485426	0.005730
 752	3.7550e-01	7.5073	11.209555	0.000364	3.635314	0.615839	0.007270
 753	3.7600e-01	7.5146	11.241199	0.000316	3.164862	0.536142	0.006329
 754	3.7650e-01	7.5269	11.272844	0.000316	3.164862	0.536142	0.006329
 755	3.7700e-01	7.5336	11.315179	0.000423	4.234072	0.717271	0.008467
 756	3.7750e-01	7.5464	11.340836	0.000257	2.566104	0.434710	0.005132
 757	3.7800e-01	7.5562	11.374618	0.000338	3.378704	0.572368	0.006756
 758	3.7850e-01	7.5668	11.410111	0.000355	3.549777	0.601349	0.007099
 759	3.7900e-01	7.5772	11.440473	0.000304	3.036556	0.514407	0.006072
 760	3.7950e-01	7.5848	11.481952	0.000415	4.148535	0.702781	0.008296
 761	3.8000e-01	7.5958	11.509320	0.000274	2.737178	0.463690	0.005474
 762	3.8050e-01	7.6038	11.541392	0.000321	3.207630	0.543387	0.006414
 763	3.8100e-01	7.6141	11.576885	0.000355	3.549777	0.601349	0.007099
 764	3.8150e-01	7.6270	11.607247	0.000304	3.036556	0.514407	0.006072
 765	3.8200e-01	7.6343	11.635898	0.000287	2.865483	0.485426	0.005730
 766	3.8250e-01	7.6434	11.673956	0.000381	3.806388	0.644820	0.007612
 767	3.8300e-01	7.6563	11.708594	0.000346	3.464240	0.586858	0.006928
 768	3.8350e-01	7.6666	11.738528	0.000299	2.993788	0.507161	0.005987
 769	3.8400e-01	7.6758	11.774876	0.000364	3.635314	0.615839	0.007270
 770	3.8450e-01	7.6874	11.808231	0.000334	3.335935	0.565123	0.006671
 771	3.8500e-01	7.6978	11.833460	0.000252	2.523336	0.427465	0.005046
 772	3.8550e-01	7.7045	11.873230	0.000398	3.977461	0.673800	0.007954
 773	3.8600e-01	7.7173	11.907012	0.000338	3.378704	0.572368	0.006756
 774	3.8650e-01	7.7289	11.940794	0.000338	3.378704	0.572368	0.006756
 775	3.8700e-01	7.7368	11.975004	0.000342	3.421472	0.579613	0.006842
 776	3.8750e-01	7.7448	12.004938	0.000299	2.993788	0.507161	0.005987
 777	3.8800e-01	7.7563	12.045135	0.000402	4.020230	0.681045	0.008039
 778	3.8850e-01	7.7643	12.081483	0.000364	3.635314	0.615839	0.007270
 779	3.8900e-01	7.7766	12.106713	0.000252	2.523336	0.427465	0.005046
 780	3.8950e-01	7.7863	12.145627	0.000389	3.891924	0.659310	0.007783
 781	3.9000e-01	7.7979	12.173423	0.000278	2.779946	0.470936	0.005559
 782	3.9050e-01	7.8070	12.206777	0.000334	3.335935	0.565123	0.006671
 783	3.9100e-01	7.8159	12.240560	0.000338	3.378704	0.572368	0.006756
 784	3.9150e-01	7.8290	12.276053	0.000355	3.549777	0.601349	0.007099
 785	3.9200e-01	7.8345	12.309407	0.000334	3.335935	0.565123	0.006671
 786	3.9250e-01	7.8418	12.346611	0.000372	3.720851	0.630329	0.007441
 787	3.9300e-01	7.8552	12.373979	0.000274	2.737178	0.463690	0.005474
 788	3.9350e-01	7.8638	12.414176	0.000402	4.020230	0.681045	0.008039
 789	3.9400e-01	7.8763	12.439833	0.000257	2.566104	0.434710	0.005132
 790	3.9450e-01	7.8851	12.482596	0.000428	4.276840	0.724516	0.008553
 791	3.9500e-01	7.8944	12.513385	0.000308	3.079325	0.521652	0.006158
 792	3.9550e-01	7.9071	12.545456	0.000321	3.207630	0.543387	0.006414
 793	3.9600e-01	7.9181	12.577528	0.000321	3.207630	0.543387	0.006414
 794	3.9650e-01	7.9242	12.607462	0.000299	2.993788	0.507161	0.005987
 795	3.9700e-01	7.9358	12.648514	0.000411	4.105766	0.695536	0.008210
 796	3.9750e-01	7.9456	12.671178	0.000227	2.266725	0.383994	0.004533
 797	3.9800e-01	7.9553	12.707954	0.000368	3.678082	0.623084	0.007355
 798	3.9850e-01	7.9645	12.744730	0.000368	3.678082	0.623084	0.007355
 799	3.9900e-01	7.9761	12.780223	0.000355	3.549777	0.601349	0.007099
 800	3.9950e-01	7.9871	12.815288	0.000351	3.507009	0.594103	0.007013
 801	4.0000e-01	7.9950	12.847360	0.000321	3.207630	0.543387	0.006414
 802	4.0050e-01	8.0078	12.877721	0.000304	3.036556	0.514407	0.006072
 803	4.0100e-01	8.0145	12.909366	0.000316	3.164862	0.536142	0.006329
 804	4.0150e-01	8.0231	12.960681	0.000513	5.132208	0.869420	0.010263
 805	4.0200e-01	8.0353	12.981634	0.000210	2.095652	0.355013	0.004191
 806	4.0250e-01	8.0475	13.010285	0.000287	2.865483	0.485426	0.005730
 807	4.0300e-01	8.0554	13.056896	0.000466	4.661756	0.789723	0.009322
 808	4.0350e-01	8.0652	13.079560	0.000227	2.266725	0.383994	0.004533
 809	4.0400e-01	8.0780	13.119757	0.000402	4.020230	0.681045	0.008039
 810	4.0450e-01	8.0847	13.151829	0.000321	3.207630	0.543387	0.006414
 811	4.0500e-01	8.0972	13.190315	0.000385	3.849156	0.652065	0.007697
 812	4.0550e-01	8.1067	13.220249	0.000299	2.993788	0.507161	0.005987
 813	4.0600e-01	8.1165	13.259163	0.000389	3.891924	0.659310	0.007783
 814	4.0650e-01	8.1232	13.293801	0.000346	3.464240	0.586858	0.006928
 815	4.0700e-01	8.1337	13.324162	0.000304	3.036556	0.514407	0.006072
 816	4.0750e-01	8.1470	13.355806	0.000316	3.164862	0.536142	0.006329
 817	4.0800e-01	8.1567	13.395148	0.000393	3.934693	0.666555	0.007868
 818	4.0850e-01	8.1665	13.428075	0.000329	3.293167	0.557878	0.006585
 819	4.0900e-01	8.1757	13.459292	0.000312	3.122093	0.528897	0.006243
 820	4.0950e-01	8.1842	13.493074	0.000338	3.378704	0.572368	0.006756
 821	4.1000e-01	8.1970	13.527284	0.000342	3.421472	0.579613	0.006842
 822	4.1050e-01	8.2056	13.561494	0.000342	3.421472	0.579613	0.006842
 823	4.1100e-01	8.2147	13.594849	0.000334	3.335935	0.565123	0.006671
 824	4.1150e-01	8.2263	13.628204	0.000334	3.335935	0.565123	0.006671
 825	4.1200e-01	8.2367	13.662414	0.000342	3.421472	0.579613	0.006842
 826	4.1250e-01	8.2440	13.705604	0.000432	4.319608	0.731761	0.008638
 827	4.1300e-01	8.2550	13.728268	0.000227	2.266725	0.383994	0.004533
 828	4.1350e-01	8.2642	13.765899	0.000376	3.763619	0.637574	0.007526
 829	4.1400e-01	8.2751	13.806523	0.000406	4.062998	0.688291	0.008125
 830	4.1450e-01	8.2849	13.835602	0.000291	2.908251	0.492671	0.005816
 831	4.1500e-01	8.2947	13.869384	0.000338	3.378704	0.572368	0.006756
 832	4.1550e-01	8.3060	13.908726	0.000393	3.934693	0.666555	0.007868
 833	4.1600e-01	8.3151	13.936094	0.000274	2.737178	0.463690	0.005474
 834	4.1650e-01	8.3258	13.970732	0.000346	3.464240	0.586858	0.006928
 835	4.1700e-01	8.3344	14.008790	0.000381	3.806388	0.644820	0.007612
 836	4.1750e-01	8.3444	14.046421	0.000376	3.763619	0.637574	0.007526
 837	4.1800e-01	8.3536	14.075927	0.000295	2.951020	0.499916	0.005901
 838	4.1850e-01	8.3661	14.110565	0.000346	3.464240	0.586858	0.006928
 839	4.1900e-01	8.3740	14.142209	0.000316	3.164862	0.536142	0.006329
 840	4.1950e-01	8.3844	14.193097	0.000509	5.089440	0.862174	0.010177
 841	4.2000e-01	8.3960	14.220465	0.000274	2.737178	0.463690	0.005474
 842	4.2050e-01	8.4058	14.255530	0.000351	3.507009	0.594103	0.007013
 843	4.2100e-01	8.4143	14.289312	0.000338	3.378704	0.572368	0.006756
 844	4.2150e-01	8.4253	14.323095	0.000338	3.378704	0.572368	0.006756
 845	4.2200e-01	8.4412	14.355167	0.000321	3.207630	0.543387	0.006414
 846	4.2250e-01	8.4473	14.389377	0.000342	3.421472	0.579613	0.006842
 847	4.2300e-01	8.4558	14.423159	0.000338	3.378704	0.572368	0.006756
 848	4.2350e-01	8.4637	14.460362	0.000372	3.720851	0.630329	0.007441
 849	4.2400e-01	8.4741	14.490296	0.000299	2.993788	0.507161	0.005987
 850	4.2450e-01	8.4839	14.530065	0.000398	3.977461	0.673800	0.007954
 851	4.2500e-01	8.4979	14.567696	0.000376	3.763619	0.637574	0.007526
 852	4.2550e-01	8.5059	14.594637	0.000269	2.694409	0.456445	0.005388
 853	4.2600e-01	8.5168	14.630130	0.000355	3.549777	0.601349	0.007099
 854	4.2650e-01	8.5272	14.668188	0.000381	3.806388	0.644820	0.007612
 855	4.2700e-01	8.5321	14.704537	0.000364	3.635314	0.615839	0.007270
 856	4.2750e-01	8.5461	14.744306	0.000398	3.977461	0.673800	0.007954
 857	4.2800e-01	8.5568	14.771674	0.000274	2.737178	0.463690	0.005474
 858	4.2850e-01	8.5657	14.810160	0.000385	3.849156	0.652065	0.007697
 859	4.2900e-01	8.5730	14.846080	0.000359	3.592546	0.608594	0.007184
 860	4.2950e-01	8.5876	14.885422	0.000393	3.934693	0.666555	0.007868
 861	4.3000e-01	8.5980	14.919204	0.000338	3.378704	0.572368	0.006756
 862	4.3050e-01	8.6072	14.953414	0.000342	3.421472	0.579613	0.006842
 863	4.3100e-01	8.6136	14.990190	0.000368	3.678082	0.623084	0.007355
 864	4.3150e-01	8.6261	15.026966	0.000368	3.678082	0.623084	0.007355
 865	4.3200e-01	8.6371	15.050913	0.000240	2.395030	0.405729	0.004789
 866	4.3250e-01	8.6456	15.098379	0.000475	4.747292	0.804213	0.009493
 867	4.3300e-01	8.6584	15.126175	0.000278	2.779946	0.470936	0.005559
 868	4.3350e-01	8.6627	15.170648	0.000445	4.447914	0.753497	0.008895
 869	4.3400e-01	8.6731	15.204858	0.000342	3.421472	0.579613	0.006842
 870	4.3450e-01	8.6890	15.233081	0.000282	2.822714	0.478181	0.005645
 871	4.3500e-01	8.6963	15.276271	0.000432	4.319608	0.731761	0.008638
 872	4.3550e-01	8.7085	15.305350	0.000291	2.908251	0.492671	0.005816
 873	4.3600e-01	8.7180	15.342553	0.000372	3.720851	0.630329	0.007441
 874	4.3650e-01	8.7268	15.382750	0.000402	4.020230	0.681045	0.008039
 875	4.3700e-01	8.7366	15.416105	0.000334	3.335935	0.565123	0.006671
 876	4.3750e-01	8.7451	15.444328	0.000282	2.822714	0.478181	0.005645
 877	4.3800e-01	8.7531	15.491367	0.000470	4.704524	0.796968	0.009408
 878	4.3850e-01	8.7665	15.521301	0.000299	2.993788	0.507161	0.005987
 879	4.3900e-01	8.7744	15.561498	0.000402	4.020230	0.681045	0.008039
 880	4.3950e-01	8.7881	15.595708	0.000342	3.421472	0.579613	0.006842
 881	4.4000e-01	8.7994	15.627352	0.000316	3.164862	0.536142	0.006329
 882	4.4050e-01	8.8055	15.664983	0.000376	3.763619	0.637574	0.007526
 883	4.4100e-01	8.8159	15.702614	0.000376	3.763619	0.637574	0.007526
 884	4.4150e-01	8.8297	15.735541	0.000329	3.293167	0.557878	0.006585
 885	4.4200e-01	8.8342	15.780014	0.000445	4.447914	0.753497	0.008895
 886	4.4250e-01	8.8483	15.813369	0.000334	3.335935	0.565123	0.006671
 887	4.4300e-01	8.8538	15.845013	0.000316	3.164862	0.536142	0.006329
 888	4.4350e-01	8.8666	15.888203	0.000432	4.319608	0.731761	0.008638
 889	4.4400e-01	8.8770	15.919848	0.000316	3.164862	0.536142	0.006329
 890	4.4450e-01	8.8861	15.955768	0.000359	3.592546	0.608594	0.007184
 891	4.4500e-01	8.8959	15.990833	0.000351	3.507009	0.594103	0.007013
 892	4.4550e-01	8.9075	16.029747	0.000389	3.891924	0.659310	0.007783
 893	4.4600e-01	8.9178	16.060964	0.000312	3.122093	0.528897	0.006243
 894	4.4650e-01	8.9276	16.105009	0.000441	4.405145	0.746252	0.008809
 895	4.4700e-01	8.9386	16.140075	0.000351	3.507009	0.594103	0.007013
 896	4.4750e-01	8.9429	16.176423	0.000364	3.635314	0.615839	0.007270
 897	4.4800e-01	8.9551	16.212771	0.000364	3.635314	0.615839	0.007270
 898	4.4850e-01	8.9667	16.249119	0.000364	3.635314	0.615839	0.007270
 899	4.4900e-01	8.9758	16.285895	0.000368	3.678082	0.623084	0.007355
 900	4.4950e-01	8.9890	16.320960	0.000351	3.507009	0.594103	0.007013
 901	4.5000e-01	8.9972	16.359019	0.000381	3.806388	0.644820	0.007612
 902	4.5050e-01	9.0070	16.393229	0.000342	3.421472	0.579613	0.006842
 903	4.5100e-01	9.0137	16.430004	0.000368	3.678082	0.623084	0.007355
 904	4.5150e-01	9.0283	16.477043	0.000470	4.704524	0.796968	0.009408
 905	4.5200e-01	9.0363	16.510398	0.000334	3.335935	0.565123	0.006671
 906	4.5250e-01	9.0460	16.548457	0.000381	3.806388	0.644820	0.007612
 907	4.5300e-01	9.0564	16.587371	0.000389	3.891924	0.659310	0.007783
 908	4.5350e-01	9.0668	16.617732	0.000304	3.036556	0.514407	0.006072
 909	4.5400e-01	9.0747	16.655791	0.000381	3.806388	0.644820	0.007612
 910	4.5450e-01	9.0869	16.698981	0.000432	4.319608	0.731761	0.008638
 911	4.5500e-01	9.0942	16.731480	0.000325	3.250398	0.550632	0.006500
 912	4.5550e-01	9.1055	16.772105	0.000406	4.062998	0.688291	0.008125
 913	4.5600e-01	9.1174	16.807598	0.000355	3.549777	0.601349	0.007099
 914	4.5650e-01	9.1278	16.837531	0.000299	2.993788	0.507161	0.005987
 915	4.5700e-01	9.1360	16.876018	0.000385	3.849156	0.652065	0.007697
 916	4.5750e-01	9.1467	16.922201	0.000462	4.618987	0.782478	0.009237
 917	4.5800e-01	9.1589	16.952135	0.000299	2.993788	0.507161	0.005987
 918	4.5850e-01	9.1644	17.001312	0.000492	4.918366	0.833194	0.009835
 919	4.5900e-01	9.1743	17.041081	0.000398	3.977461	0.673800	0.007954
 920	4.5950e-01	9.1852	17.067166	0.000261	2.608872	0.441955	0.005217
 921	4.6000e-01	9.1956	17.110356	0.000432	4.319608	0.731761	0.008638
 922	4.6050e-01	9.2053	17.150125	0.000398	3.977461	0.673800	0.007954
 923	4.6100e-01	9.2151	17.187329	0.000372	3.720851	0.630329	0.007441
 924	4.6150e-01	9.2249	17.224105	0.000368	3.678082	0.623084	0.007355
 925	4.6200e-01	9.2358	17.262163	0.000381	3.806388	0.644820	0.007612
 926	4.6250e-01	9.2474	17.300650	0.000385	3.849156	0.652065	0.007697
 927	4.6300e-01	9.2615	17.330156	0.000295	2.951020	0.499916	0.005901
 928	4.6350e-01	9.2657	17.377622	0.000475	4.747292	0.804213	0.009493
 929	4.6400e-01	9.2726	17.418247	0.000406	4.062998	0.688291	0.008125
 930	4.6450e-01	9.2844	17.451601	0.000334	3.335935	0.565123	0.006671
 931	4.6500e-01	9.2963	17.483246	0.000316	3.164862	0.536142	0.006329
 932	4.6550e-01	9.3060	17.534561	0.000513	5.132208	0.869420	0.010263
 933	4.6600e-01	9.3155	17.569198	0.000346	3.464240	0.586858	0.006928
 934	4.6650e-01	9.3268	17.610250	0.000411	4.105766	0.695536	0.008210
 935	4.6700e-01	9.3378	17.648309	0.000381	3.806388	0.644820	0.007612
 936	4.6750e-01	9.3445	17.688933	0.000406	4.062998	0.688291	0.008125
 937	4.6800e-01	9.3591	17.719722	0.000308	3.079325	0.521652	0.006158
 938	4.6850e-01	9.3655	17.762485	0.000428	4.276840	0.724516	0.008553
 939	4.6900e-01	9.3756	17.808241	0.000458	4.576219	0.775232	0.009151
 940	4.6950e-01	9.3848	17.847155	0.000389	3.891924	0.659310	0.007783
 941	4.7000e-01	9.3958	17.886069	0.000389	3.891924	0.659310	0.007783
 942	4.7050e-01	9.4067	17.924555	0.000385	3.849156	0.652065	0.007697
 943	4.7100e-01	9.4159	17.957482	0.000329	3.293167	0.557878	0.006585
 944	4.7150e-01	9.4281	17.991692	0.000342	3.421472	0.579613	0.006842
 945	4.7200e-01	9.4373	18.040869	0.000492	4.918366	0.833194	0.009835
 946	4.7250e-01	9.4482	18.076789	0.000359	3.592546	0.608594	0.007184
 947	4.7300e-01	9.4562	18.113138	0.000364	3.635314	0.615839	0.007270
 948	4.7350e-01	9.4684	18.155900	0.000428	4.276840	0.724516	0.008553
 949	4.7400e-01	9.4757	18.200373	0.000445	4.447914	0.753497	0.008895
 950	4.7450e-01	9.4867	18.231590	0.000312	3.122093	0.528897	0.006243
 951	4.7500e-01	9.4946	18.277773	0.000462	4.618987	0.782478	0.009237
 952	4.7550e-01	9.5062	18.319253	0.000415	4.148535	0.702781	0.008296
 953	4.7600e-01	9.5148	18.353035	0.000338	3.378704	0.572368	0.006756
 954	4.7650e-01	9.5251	18.403068	0.000500	5.003903	0.847684	0.010006
 955	4.7700e-01	9.5361	18.441981	0.000389	3.891924	0.659310	0.007783
 956	4.7750e-01	9.5477	18.482178	0.000402	4.020230	0.681045	0.008039
 957	4.7800e-01	9.5557	18.516388	0.000342	3.421472	0.579613	0.006842
 958	4.7850e-01	9.5673	18.561716	0.000453	4.533450	0.767987	0.009066
 959	4.7900e-01	9.5770	18.592078	0.000304	3.036556	0.514407	0.006072
 960	4.7950e-01	9.5856	18.629281	0.000372	3.720851	0.630329	0.007441
 961	4.8000e-01	9.5959	18.681024	0.000517	5.174976	0.876665	0.010349
 962	4.8050e-01	9.6039	18.715662	0.000346	3.464240	0.586858	0.006928
 963	4.8100e-01	9.6152	18.761417	0.000458	4.576219	0.775232	0.009151
 964	4.8150e-01	9.6252	18.803325	0.000419	4.191303	0.710026	0.008381
 965	4.8200e-01	9.6353	18.847370	0.000441	4.405145	0.746252	0.008809
 966	4.8250e-01	9.6472	18.887139	0.000398	3.977461	0.673800	0.007954
 967	4.8300e-01	9.6552	18.925198	0.000381	3.806388	0.644820	0.007612
 968	4.8350e-01	9.6637	18.964539	0.000393	3.934693	0.666555	0.007868
 969	4.8400e-01	9.6750	19.000032	0.000355	3.549777	0.601349	0.007099
 970	4.8450e-01	9.6840	19.050920	0.000509	5.089440	0.862174	0.010177
 971	4.8500e-01	9.6954	19.085130	0.000342	3.421472	0.579613	0.006842
 972	4.8550e-01	9.7040	19.127892	0.000428	4.276840	0.724516	0.008553
 973	4.8600e-01	9.7156	19.168944	0.000411	4.105766	0.695536	0.008210
 974	4.8650e-01	9.7241	19.221970	0.000530	5.303282	0.898400	0.010605
 975	4.8700e-01	9.7342	19.255752	0.000338	3.378704	0.572368	0.006756
 976	4.8750e-01	9.7461	19.292528	0.000368	3.678082	0.623084	0.007355
 977	4.8800e-01	9.7559	19.340850	0.000483	4.832829	0.818703	0.009664
 978	4.8850e-01	9.7650	19.377626	0.000368	3.678082	0.623084	0.007355
 979	4.8900e-01	9.7772	19.419105	0.000415	4.148535	0.702781	0.008296
 980	4.8950e-01	9.7833	19.466144	0.000470	4.704524	0.796968	0.009408
 981	4.9000e-01	9.7946	19.508906	0.000428	4.276840	0.724516	0.008553
 982	4.9050e-01	9.8047	19.541406	0.000325	3.250398	0.550632	0.006500
 983	4.9100e-01	9.8138	19.582458	0.000411	4.105766	0.695536	0.008210
 984	4.9150e-01	9.8233	19.636339	0.000539	5.388819	0.912891	0.010776
 985	4.9200e-01	9.8334	19.679101	0.000428	4.276840	0.724516	0.008553
 986	4.9250e-01	9.8474	19.718870	0.000398	3.977461	0.673800	0.007954
 987	4.9300e-01	9.8553	19.761633	0.000428	4.276840	0.724516	0.008553
 988	4.9350e-01	9.8633	19.804396	0.000428	4.276840	0.724516	0.008553
 989	4.9400e-01	9.8755	19.846730	0.000423	4.234072	0.717271	0.008467
 990	4.9450e-01	9.8856	19.884789	0.000381	3.806388	0.644820	0.007612
 991	4.9500e-01	9.8956	19.931828	0.000470	4.704524	0.796968	0.009408
 992	4.9550e-01	9.9069	19.972025	0.000402	4.020230	0.681045	0.008039
 993	4.9600e-01	9.9149	20.011366	0.000393	3.934693	0.666555	0.007868
 994	4.9650e-01	9.9280	20.057550	0.000462	4.618987	0.782478	0.009237
 995	4.9700e-01	9.9384	20.106727	0.000492	4.918366	0.833194	0.009835
 996	4.9750e-01	9.9445	20.143930	0.000372	3.720851	0.630329	0.007441
 997	4.9800e-01	9.9573	20.193535	0.000496	4.961134	0.840439	0.009921
 998	4.9850e-01	9.9664	20.234587	0.000411	4.105766	0.695536	0.008210
 999	4.9900e-01	9.9744	20.274783	0.000402	4.020230	0.681045	0.008039
1000	4.9950e-01	9.9854	20.318401	0.000436	4.362377	0.739007	0.008724
1001	5.0000e-01	9.9939	20.366295	0.000479	4.790061	0.811458	0.009579
1002	5.0050e-01	9.9857	20.368006	-0.000017	-0.171074	-0.028981	0.000342
1003	5.0100e-01	9.9750	20.362874	0.000051	0.513221	0.086942	-0.001026
1004	5.0150e-01	9.9695	20.352611	0.000103	1.026442	0.173884	-0.002053
1005	5.0200e-01	9.9561	20.347052	0.000056	0.555989	0.094187	-0.001112
1006	5.0250e-01	9.9457	20.339355	0.000077	0.769831	0.130413	-0.001539
1007	5.0300e-01	9.9365	20.335506	0.000038	0.384916	0.065206	-0.000770
1008	5.0350e-01	9.9261	20.320112	0.000154	1.539662	0.260826	-0.003079
1009	5.0400e-01	9.9164	20.316691	0.000034	0.342147	0.057961	-0.000684
1010	5.0450e-01	9.9066	20.308993	0.000077	0.769831	0.130413	-0.001539
1011	5.0500e-01	9.8972	20.305572	0.000034	0.342147	0.057961	-0.000684
1012	5.0550e-01	9.8871	20.285474	0.000201	2.010115	0.340523	-0.004020
1013	5.0600e-01	9.8724	20.280342	0.000051	0.513221	0.086942	-0.001026
1014	5.0650e-01	9.8645	20.262810	0.000175	1.753504	0.297052	-0.003507
1015	5.0700e-01	9.8553	20.251692	0.000111	1.111978	0.188374	-0.002224
1016	5.0750e-01	9.8468	20.242284	0.000094	0.940905	0.159394	-0.001882
1017	5.0800e-01	9.8364	20.228600	0.000137	1.368589	0.231845	-0.002737
1018	5.0850e-01	9.8279	20.208074	0.000205	2.052883	0.347768	-0.004105
1019	5.0900e-01	9.8172	20.195673	0.000124	1.240284	0.210110	-0.002480
1020	5.0950e-01	9.8032	20.187120	0.000086	0.855368	0.144903	-0.001711
1021	5.1000e-01	9.7961	20.171298	0.000158	1.582431	0.268071	-0.003164
1022	5.1050e-01	9.7864	20.160180	0.000111	1.111978	0.188374	-0.002224
1023	5.1100e-01	9.7763	20.148206	0.000120	1.197515	0.202865	-0.002395
1024	5.1150e-01	9.7656	20.139654	0.000086	0.855368	0.144903	-0.001711
1025	5.1200e-01	9.7571	20.115707	0.000240	2.395030	0.405729	-0.004789
1026	5.1250e-01	9.7479	20.095608	0.000201	2.010115	0.340523	-0.004020
1027	5.1300e-01	9.7363	20.092187	0.000034	0.342147	0.057961	-0.000684
1028	5.1350e-01	9.7272	20.068240	0.000240	2.395030	0.405729	-0.004789
1029	5.1400e-01	9.7168	20.055839	0.000124	1.240284	0.210110	-0.002480
1030	5.1450e-01	9.7046	20.038734	0.000171	1.710736	0.289807	-0.003421
1031	5.1500e-01	9.6948	20.025050	0.000137	1.368589	0.231845	-0.002737
1032	5.1550e-01	9.6860	20.006235	0.000188	1.881810	0.318787	-0.003763
1033	5.1600e-01	9.6765	19.986564	0.000197	1.967346	0.333278	-0.003934
1034	5.1650e-01	9.6655	19.977156	0.000094	0.940905	0.159394	-0.001882
1035	5.1700e-01	9.6564	19.956630	0.000205	2.052883	0.347768	-0.004105
1036	5.1750e-01	9.6460	19.936959	0.000197	1.967346	0.333278	-0.003934
1037	5.1800e-01	9.6362	19.919854	0.000171	1.710736	0.289807	-0.003421
1038	5.1850e-01	9.6259	19.904887	0.000150	1.496894	0.253581	-0.002993
1039	5.1900e-01	9.6136	19.889921	0.000150	1.496894	0.253581	-0.002993
1040	5.1950e-01	9.6057	19.868967	0.000210	2.095652	0.355013	-0.004191
1041	5.2000e-01	9.5953	19.854000	0.000150	1.496894	0.253581	-0.002993
1042	5.2050e-01	9.5874	19.833046	0.000210	2.095652	0.355013	-0.004191
1043	5.2100e-01	9.5773	19.809527	0.000235	2.352262	0.398484	-0.004704
1044	5.2150e-01	9.5688	19.790712	0.000188	1.881810	0.318787	-0.003763
1045	5.2200e-01	9.5590	19.776172	0.000145	1.454126	0.246336	-0.002908
1046	5.2250e-01	9.5477	19.758640	0.000175	1.753504	0.297052	-0.003507
1047	5.2300e-01	9.5361	19.740679	0.000180	1.796273	0.304297	-0.003592
1048	5.2350e-01	9.5282	19.716305	0.000244	2.437799	0.412974	-0.004875
1049	5.2400e-01	9.5148	19.698344	0.000180	1.796273	0.304297	-0.003592
1050	5.2450e-01	9.5071	19.682950	0.000154	1.539662	0.260826	-0.003079
1051	5.2500e-01	9.4962	19.667983	0.000150	1.496894	0.253581	-0.002993
1052	5.2550e-01	9.4873	19.641898	0.000261	2.608872	0.441955	-0.005217
1053	5.2600e-01	9.4760	19.632918	0.000090	0.898136	0.152148	-0.001796
1054	5.2650e-01	9.4647	19.602556	0.000304	3.036556	0.514407	-0.006072
1055	5.2700e-01	9.4562	19.578609	0.000240	2.395030	0.405729	-0.004789
1056	5.2750e-01	9.4458	19.557656	0.000210	2.095652	0.355013	-0.004191
1057	5.2800e-01	9.4360	19.550386	0.000073	0.727063	0.123168	-0.001454
1058	5.2850e-01	9.4263	19.525584	0.000248	2.480567	0.420219	-0.004960
1059	5.2900e-01	9.4229	19.500354	0.000252	2.523336	0.427465	-0.005046
1060	5.2950e-01	9.4098	19.479400	0.000210	2.095652	0.355013	-0.004191
1061	5.3000e-01	9.3976	19.461440	0.000180	1.796273	0.304297	-0.003592
1062	5.3050e-01	9.3857	19.439631	0.000218	2.181188	0.369503	-0.004362
1063	5.3100e-01	9.3781	19.419533	0.000201	2.010115	0.340523	-0.004020
1064	5.3150e-01	9.3668	19.394303	0.000252	2.523336	0.427465	-0.005046
1065	5.3200e-01	9.3555	19.381902	0.000124	1.240284	0.210110	-0.002480
1066	5.3250e-01	9.3469	19.354961	0.000269	2.694409	0.456445	-0.005388
1067	5.3300e-01	9.3365	19.331014	0.000240	2.395030	0.405729	-0.004789
1068	5.3350e-01	9.3259	19.311771	0.000192	1.924578	0.326032	-0.003849
1069	5.3400e-01	9.3158	19.295949	0.000158	1.582431	0.268071	-0.003164
1070	5.3450e-01	9.3066	19.264732	0.000312	3.122093	0.528897	-0.006243
1071	5.3500e-01	9.2960	19.248055	0.000167	1.667968	0.282561	-0.003335
1072	5.3550e-01	9.2871	19.227529	0.000205	2.052883	0.347768	-0.004105
1073	5.3600e-01	9.2749	19.209996	0.000175	1.753504	0.297052	-0.003507
1074	5.3650e-01	9.2670	19.183484	0.000265	2.651641	0.449200	-0.005303
1075	5.3700e-01	9.2535	19.167661	0.000158	1.582431	0.268071	-0.003164
1076	5.3750e-01	9.2471	19.138155	0.000295	2.951020	0.499916	-0.005901
1077	5.3800e-01	9.2365	19.121906	0.000163	1.625199	0.275316	-0.003250
1078	5.3850e-01	9.2279	19.092827	0.000291	2.908251	0.492671	-0.005816
1079	5.3900e-01	9.2175	19.077860	0.000150	1.496894	0.253581	-0.002993
1080	5.3950e-01	9.2093	19.050065	0.000278	2.779946	0.470936	-0.005559
1081	5.4000e-01	9.1968	19.034242	0.000158	1.582431	0.268071	-0.003164
1082	5.4050e-01	9.1840	19.009868	0.000244	2.437799	0.412974	-0.004875
1083	5.4100e-01	9.1766	18.981645	0.000282	2.822714	0.478181	-0.005645
1084	5.4150e-01	9.1681	18.961974	0.000197	1.967346	0.333278	-0.003934
1085	5.4200e-01	9.1553	18.940592	0.000214	2.138420	0.362258	-0.004276
1086	5.4250e-01	9.1452	18.913224	0.000274	2.737178	0.463690	-0.005474
1087	5.4300e-01	9.1364	18.891416	0.000218	2.181188	0.369503	-0.004362
1088	5.4350e-01	9.1278	18.871745	0.000197	1.967346	0.333278	-0.003934
1089	5.4400e-01	9.1187	18.849081	0.000227	2.266725	0.383994	-0.004533
1090	5.4450e-01	9.1077	18.825561	0.000235	2.352262	0.398484	-0.004704
1091	5.4500e-01	9.0967	18.796910	0.000287	2.865483	0.485426	-0.005730
1092	5.4550e-01	9.0857	18.781944	0.000150	1.496894	0.253581	-0.002993
1093	5.4600e-01	9.0765	18.749872	0.000321	3.207630	0.543387	-0.006414
1094	5.4650e-01	9.0686	18.721648	0.000282	2.822714	0.478181	-0.005645
1095	5.4700e-01	9.0570	18.715234	0.000064	0.641526	0.108677	-0.001283
1096	5.4750e-01	9.0454	18.689149	0.000261	2.608872	0.441955	-0.005217
1097	5.4800e-01	9.0363	18.663064	0.000261	2.608872	0.441955	-0.005217
1098	5.4850e-01	9.0250	18.635268	0.000278	2.779946	0.470936	-0.005559
1099	5.4900e-01	9.0161	18.614742	0.000205	2.052883	0.347768	-0.004105
1100	5.4950e-01	9.0045	18.595499	0.000192	1.924578	0.326032	-0.003849
1101	5.5000e-01	8.9987	18.563427	0.000321	3.207630	0.543387	-0.006414
1102	5.5050e-01	8.9856	18.542046	0.000214	2.138420	0.362258	-0.004276
1103	5.5100e-01	8.9755	18.516816	0.000252	2.523336	0.427465	-0.005046
1104	5.5150e-01	8.9655	18.495862	0.000210	2.095652	0.355013	-0.004191
1105	5.5200e-01	8.9569	18.471488	0.000244	2.437799	0.412974	-0.004875
1106	5.5250e-01	8.9462	18.449679	0.000218	2.181188	0.369503	-0.004362
1107	5.5300e-01	8.9389	18.421028	0.000287	2.865483	0.485426	-0.005730
1108	5.5350e-01	8.9240	18.401785	0.000192	1.924578	0.326032	-0.003849
1109	5.5400e-01	8.9175	18.369713	0.000321	3.207630	0.543387	-0.006414
1110	5.5450e-01	8.9063	18.352180	0.000175	1.753504	0.297052	-0.003507
1111	5.5500e-01	8.8965	18.327378	0.000248	2.480567	0.420219	-0.004960
1112	5.5550e-01	8.8867	18.305569	0.000218	2.181188	0.369503	-0.004362
1113	5.5600e-01	8.8773	18.282050	0.000235	2.352262	0.398484	-0.004704
1114	5.5650e-01	8.8641	18.261096	0.000210	2.095652	0.355013	-0.004191
1115	5.5700e-01	8.8574	18.226458	0.000346	3.464240	0.586858	-0.006928
1116	5.5750e-01	8.8458	18.204649	0.000218	2.181188	0.369503	-0.004362
1117	5.5800e-01	8.8361	18.182840	0.000218	2.181188	0.369503	-0.004362
1118	5.5850e-01	8.8300	18.150341	0.000325	3.250398	0.550632	-0.006500
1119	5.5900e-01	8.8196	18.143071	0.000073	0.727063	0.123168	-0.001454
1120	5.5950e-01	8.8068	18.108006	0.000351	3.507009	0.594103	-0.007013
1121	5.6000e-01	8.7964	18.089618	0.000184	1.839041	0.311542	-0.003678
1122	5.6050e-01	8.7875	18.059257	0.000304	3.036556	0.514407	-0.006072
1123	5.6100e-01	8.7750	18.034455	0.000248	2.480567	0.420219	-0.004960
1124	5.6150e-01	8.7653	18.004948	0.000295	2.951020	0.499916	-0.005901
1125	5.6200e-01	8.7558	17.984422	0.000205	2.052883	0.347768	-0.004105
1126	5.6250e-01	8.7482	17.960475	0.000240	2.395030	0.405729	-0.004789
1127	5.6300e-01	8.7378	17.938239	0.000222	2.223957	0.376748	-0.004447
1128	5.6350e-01	8.7268	17.916858	0.000214	2.138420	0.362258	-0.004276
1129	5.6400e-01	8.7198	17.886924	0.000299	2.993788	0.507161	-0.005987
1130	5.6450e-01	8.7073	17.864260	0.000227	2.266725	0.383994	-0.004533
1131	5.6500e-01	8.6966	17.842878	0.000214	2.138420	0.362258	-0.004276
1132	5.6550e-01	8.6880	17.808241	0.000346	3.464240	0.586858	-0.006928
1133	5.6600e-01	8.6780	17.784294	0.000240	2.395030	0.405729	-0.004789
1134	5.6650e-01	8.6658	17.756926	0.000274	2.737178	0.463690	-0.005474
1135	5.6700e-01	8.6554	17.732123	0.000248	2.480567	0.420219	-0.004960
1136	5.6750e-01	8.6481	17.703473	0.000287	2.865483	0.485426	-0.005730
1137	5.6800e-01	8.6389	17.682091	0.000214	2.138420	0.362258	-0.004276
1138	5.6850e-01	8.6279	17.657717	0.000244	2.437799	0.412974	-0.004875
1139	5.6900e-01	8.6200	17.636335	0.000214	2.138420	0.362258	-0.004276
1140	5.6950e-01	8.6060	17.602125	0.000342	3.421472	0.579613	-0.006842
1141	5.7000e-01	8.5980	17.580744	0.000214	2.138420	0.362258	-0.004276
1142	5.7050e-01	8.5846	17.554231	0.000265	2.651641	0.449200	-0.005303
1143	5.7100e-01	8.5770	17.535416	0.000188	1.881810	0.318787	-0.003763
1144	5.7150e-01	8.5663	17.511896	0.000235	2.352262	0.398484	-0.004704
1145	5.7200e-01	8.5577	17.483246	0.000287	2.865483	0.485426	-0.005730
1146	5.7250e-01	8.5475	17.451601	0.000316	3.164862	0.536142	-0.006329
1147	5.7300e-01	8.5376	17.422095	0.000295	2.951020	0.499916	-0.005901
1148	5.7350e-01	8.5284	17.401569	0.000205	2.052883	0.347768	-0.004105
1149	5.7400e-01	8.5162	17.372491	0.000291	2.908251	0.492671	-0.005816
1150	5.7450e-01	8.5065	17.349399	0.000231	2.309494	0.391239	-0.004618
1151	5.7500e-01	8.4985	17.325024	0.000244	2.437799	0.412974	-0.004875
1152	5.7550e-01	8.4857	17.296373	0.000287	2.865483	0.485426	-0.005730
1153	5.7600e-01	8.4778	17.277985	0.000184	1.839041	0.311542	-0.003678
1154	5.7650e-01	8.4656	17.245486	0.000325	3.250398	0.550632	-0.006500
1155	5.7700e-01	8.4561	17.218973	0.000265	2.651641	0.449200	-0.005303
1156	5.7750e-01	8.4454	17.195881	0.000231	2.309494	0.391239	-0.004618
1157	5.7800e-01	8.4358	17.161671	0.000342	3.421472	0.579613	-0.006842
1158	5.7850e-01	8.4293	17.140718	0.000210	2.095652	0.355013	-0.004191
1159	5.7900e-01	8.4186	17.111212	0.000295	2.951020	0.499916	-0.005901
1160	5.7950e-01	8.4076	17.090258	0.000210	2.095652	0.355013	-0.004191
1161	5.8000e-01	8.3987	17.063318	0.000269	2.694409	0.456445	-0.005388
1162	5.8050e-01	8.3862	17.038515	0.000248	2.480567	0.420219	-0.004960
1163	5.8100e-01	8.3780	17.012858	0.000257	2.566104	0.434710	-0.005132
1164	5.8150e-01	8.3643	16.987200	0.000257	2.566104	0.434710	-0.005132
1165	5.8200e-01	8.3533	16.961115	0.000261	2.608872	0.441955	-0.005217
1166	5.8250e-01	8.3450	16.930326	0.000308	3.079325	0.521652	-0.006158
1167	5.8300e-01	8.3365	16.906379	0.000240	2.395030	0.405729	-0.004789
1168	5.8350e-01	8.3273	16.868748	0.000376	3.763619	0.637574	-0.007526
1169	5.8400e-01	8.3203	16.848222	0.000205	2.052883	0.347768	-0.004105
1170	5.8450e-01	8.3057	16.827268	0.000210	2.095652	0.355013	-0.004191
1171	5.8500e-01	8.2956	16.799900	0.000274	2.737178	0.463690	-0.005474
1172	5.8550e-01	8.2867	16.770822	0.000291	2.908251	0.492671	-0.005816
1173	5.8600e-01	8.2764	16.754144	0.000167	1.667968	0.282561	-0.003335
1174	5.8650e-01	8.2675	16.714375	0.000398	3.977461	0.673800	-0.007954
1175	5.8700e-01	8.2562	16.687007	0.000274	2.737178	0.463690	-0.005474
1176	5.8750e-01	8.2471	16.670758	0.000163	1.625199	0.275316	-0.003250
1177	5.8800e-01	8.2343	16.638686	0.000321	3.207630	0.543387	-0.006414
1178	5.8850e-01	8.2257	16.611745	0.000269	2.694409	0.456445	-0.005388
1179	5.8900e-01	8.2172	16.588226	0.000235	2.352262	0.398484	-0.004704
1180	5.8950e-01	8.2074	16.563851	0.000244	2.437799	0.412974	-0.004875
1181	5.9000e-01	8.1958	16.532635	0.000312	3.122093	0.528897	-0.006243
1182	5.9050e-01	8.1854	16.509115	0.000235	2.352262	0.398484	-0.004704
1183	5.9100e-01	8.1744	16.475760	0.000334	3.335935	0.565123	-0.006671
1184	5.9150e-01	8.1659	16.451386	0.000244	2.437799	0.412974	-0.004875
1185	5.9200e-01	8.1567	16.422307	0.000291	2.908251	0.492671	-0.005816
1186	5.9250e-01	8.1458	16.400926	0.000214	2.138420	0.362258	-0.004276
1187	5.9300e-01	8.1351	16.369282	0.000316	3.164862	0.536142	-0.006329
1188	5.9350e-01	8.1250	16.344052	0.000252	2.523336	0.427465	-0.005046
1189	5.9400e-01	8.1158	16.318822	0.000252	2.523336	0.427465	-0.005046
1190	5.9450e-01	8.1067	16.288033	0.000308	3.079325	0.521652	-0.006158
1191	5.9500e-01	8.0948	16.270500	0.000175	1.753504	0.297052	-0.003507
1192	5.9550e-01	8.0847	16.235863	0.000346	3.464240	0.586858	-0.006928
1193	5.9600e-01	8.0756	16.209350	0.000265	2.651641	0.449200	-0.005303
1194	5.9650e-01	8.0664	16.181127	0.000282	2.822714	0.478181	-0.005645
1195	5.9700e-01	8.0560	16.146489	0.000346	3.464240	0.586858	-0.006928
1196	5.9750e-01	8.0463	16.125963	0.000205	2.052883	0.347768	-0.004105
1197	5.9800e-01	8.0374	16.091753	0.000342	3.421472	0.579613	-0.006842
1198	5.9850e-01	8.0267	16.072937	0.000188	1.881810	0.318787	-0.003763
1199	5.9900e-01	8.0170	16.051128	0.000218	2.181188	0.369503	-0.004362
1200	5.9950e-01	8.0060	16.019484	0.000316	3.164862	0.536142	-0.006329
1201	6.0000e-01	7.9974	15.992544	0.000269	2.694409	0.456445	-0.005388
1202	6.0050e-01	7.9868	15.960044	0.000325	3.250398	0.550632	-0.006500
1203	6.0100e-01	7.9767	15.936525	0.000235	2.352262	0.398484	-0.004704
1204	6.0150e-01	7.9663	15.910012	0.000265	2.651641	0.449200	-0.005303
1205	6.0200e-01	7.9584	15.883072	0.000269	2.694409	0.456445	-0.005388
1206	6.0250e-01	7.9462	15.857842	0.000252	2.523336	0.427465	-0.005046
1207	6.0300e-01	7.9358	15.833895	0.000240	2.395030	0.405729	-0.004789
1208	6.0350e-01	7.9239	15.804389	0.000295	2.951020	0.499916	-0.005901
1209	6.0400e-01	7.9144	15.771462	0.000329	3.293167	0.557878	-0.006585
1210	6.0450e-01	7.9034	15.748370	0.000231	2.309494	0.391239	-0.004618
1211	6.0500e-01	7.8967	15.716726	0.000316	3.164862	0.536142	-0.006329
1212	6.0550e-01	7.8864	15.678667	0.000381	3.806388	0.644820	-0.007612
1213	6.0600e-01	7.8754	15.657286	0.000214	2.138420	0.362258	-0.004276
1214	6.0650e-01	7.8658	15.631628	0.000257	2.566104	0.434710	-0.005132
1215	6.0700e-01	7.8552	15.604688	0.000269	2.694409	0.456445	-0.005388
1216	6.0750e-01	7.8448	15.581596	0.000231	2.309494	0.391239	-0.004618
1217	6.0800e-01	7.8375	15.546958	0.000346	3.464240	0.586858	-0.006928
1218	6.0850e-01	7.8278	15.517025	0.000299	2.993788	0.507161	-0.005987
1219	6.0900e-01	7.8171	15.498209	0.000188	1.881810	0.318787	-0.003763
1220	6.0950e-01	7.8052	15.467848	0.000304	3.036556	0.514407	-0.006072
1221	6.1000e-01	7.7954	15.448604	0.000192	1.924578	0.326032	-0.003849
1222	6.1050e-01	7.7844	15.415250	0.000334	3.335935	0.565123	-0.006671
1223	6.1100e-01	7.7765	15.385316	0.000299	2.993788	0.507161	-0.005987
1224	6.1150e-01	7.7667	15.357520	0.000278	2.779946	0.470936	-0.005559
1225	6.1200e-01	7.7557	15.329297	0.000282	2.822714	0.478181	-0.005645
1226	6.1250e-01	7.7466	15.304495	0.000248	2.480567	0.420219	-0.004960
1227	6.1300e-01	7.7356	15.271568	0.000329	3.293167	0.557878	-0.006585
1228	6.1350e-01	7.7246	15.240351	0.000312	3.122093	0.528897	-0.006243
1229	6.1400e-01	7.7155	15.213411	0.000269	2.694409	0.456445	-0.005388
1230	6.1450e-01	7.7039	15.189036	0.000244	2.437799	0.412974	-0.004875
1231	6.1500e-01	7.6953	15.165944	0.000231	2.309494	0.391239	-0.004618
1232	6.1550e-01	7.6889	15.132589	0.000334	3.335935	0.565123	-0.006671
1233	6.1600e-01	7.6758	15.103511	0.000291	2.908251	0.492671	-0.005816
1234	6.1650e-01	7.6666	15.080419	0.000231	2.309494	0.391239	-0.004618
1235	6.1700e-01	7.6544	15.045781	0.000346	3.464240	0.586858	-0.006928
1236	6.1750e-01	7.6450	15.022690	0.000231	2.309494	0.391239	-0.004618
1237	6.1800e-01	7.6367	14.988907	0.000338	3.378704	0.572368	-0.006756
1238	6.1850e-01	7.6270	14.964105	0.000248	2.480567	0.420219	-0.004960
1239	6.1900e-01	7.6184	14.932033	0.000321	3.207630	0.543387	-0.006414
1240	6.1950e-01	7.6062	14.900389	0.000316	3.164862	0.536142	-0.006329
1241	6.2000e-01	7.5946	14.882856	0.000175	1.753504	0.297052	-0.003507
1242	6.2050e-01	7.5873	14.838383	0.000445	4.447914	0.753497	-0.008895
1243	6.2100e-01	7.5757	14.813581	0.000248	2.480567	0.420219	-0.004960
1244	6.2150e-01	7.5677	14.799897	0.000137	1.368589	0.231845	-0.002737
1245	6.2200e-01	7.5574	14.762266	0.000376	3.763619	0.637574	-0.007526
1246	6.2250e-01	7.5455	14.736181	0.000261	2.608872	0.441955	-0.005217
1247	6.2300e-01	7.5366	14.710951	0.000252	2.523336	0.427465	-0.005046
1248	6.2350e-01	7.5269	14.679734	0.000312	3.122093	0.528897	-0.006243
1249	6.2400e-01	7.5156	14.647662	0.000321	3.207630	0.543387	-0.006414
1250	6.2450e-01	7.5043	14.624143	0.000235	2.352262	0.398484	-0.004704
1251	6.2500e-01	7.4957	14.594209	0.000299	2.993788	0.507161	-0.005987
1252	6.2550e-01	7.4869	14.565558	0.000287	2.865483	0.485426	-0.005730
1253	6.2600e-01	7.4774	14.541611	0.000240	2.395030	0.405729	-0.004789
1254	6.2650e-01	7.4655	14.509967	0.000316	3.164862	0.536142	-0.006329
1255	6.2700e-01	7.4576	14.476185	0.000338	3.378704	0.572368	-0.006756
1256	6.2750e-01	7.4457	14.450099	0.000261	2.608872	0.441955	-0.005217
1257	6.2800e-01	7.4347	14.423159	0.000269	2.694409	0.456445	-0.005388
1258	6.2850e-01	7.4243	14.397929	0.000252	2.523336	0.427465	-0.005046
1259	6.2900e-01	7.4176	14.359015	0.000389	3.891924	0.659310	-0.007783
1260	6.2950e-01	7.4063	14.330792	0.000282	2.822714	0.478181	-0.005645
1261	6.3000e-01	7.3944	14.304279	0.000265	2.651641	0.449200	-0.005303
1262	6.3050e-01	7.3862	14.276911	0.000274	2.737178	0.463690	-0.005474
1263	6.3100e-01	7.3767	14.252537	0.000244	2.437799	0.412974	-0.004875
1264	6.3150e-01	7.3700	14.226879	0.000257	2.566104	0.434710	-0.005132
1265	6.3200e-01	7.3578	14.190531	0.000364	3.635314	0.615839	-0.007270
1266	6.3250e-01	7.3462	14.167867	0.000227	2.266725	0.383994	-0.004533
1267	6.3300e-01	7.3370	14.130236	0.000376	3.763619	0.637574	-0.007526
1268	6.3350e-01	7.3260	14.106716	0.000235	2.352262	0.398484	-0.004704
1269	6.3400e-01	7.3163	14.075072	0.000316	3.164862	0.536142	-0.006329
1270	6.3450e-01	7.3071	14.048987	0.000261	2.608872	0.441955	-0.005217
1271	6.3500e-01	7.2974	14.014349	0.000346	3.464240	0.586858	-0.006928
1272	6.3550e-01	7.2864	13.982277	0.000321	3.207630	0.543387	-0.006414
1273	6.3600e-01	7.2815	13.958758	0.000235	2.352262	0.398484	-0.004704
1274	6.3650e-01	7.2681	13.916851	0.000419	4.191303	0.710026	-0.008381
1275	6.3700e-01	7.2577	13.901884	0.000150	1.496894	0.253581	-0.002993
1276	6.3750e-01	7.2470	13.874943	0.000269	2.694409	0.456445	-0.005388
1277	6.3800e-01	7.2363	13.839451	0.000355	3.549777	0.601349	-0.007099
1278	6.3850e-01	7.2290	13.815931	0.000235	2.352262	0.398484	-0.004704
1279	6.3900e-01	7.2144	13.782576	0.000334	3.335935	0.565123	-0.006671
1280	6.3950e-01	7.2113	13.753926	0.000287	2.865483	0.485426	-0.005730
1281	6.4000e-01	7.1960	13.719288	0.000346	3.464240	0.586858	-0.006928
1282	6.4050e-01	7.1857	13.701755	0.000175	1.753504	0.297052	-0.003507
1283	6.4100e-01	7.1786	13.661558	0.000402	4.020230	0.681045	-0.008039
1284	6.4150e-01	7.1667	13.631625	0.000299	2.993788	0.507161	-0.005987
1285	6.4200e-01	7.1561	13.611099	0.000205	2.052883	0.347768	-0.004105
1286	6.4250e-01	7.1465	13.585441	0.000257	2.566104	0.434710	-0.005132
1287	6.4300e-01	7.1368	13.552086	0.000334	3.335935	0.565123	-0.006671
1288	6.4350e-01	7.1265	13.513172	0.000389	3.891924	0.659310	-0.007783
1289	6.4400e-01	7.1155	13.487943	0.000252	2.523336	0.427465	-0.005046
1290	6.4450e-01	7.1118	13.458436	0.000295	2.951020	0.499916	-0.005901
1291	6.4500e-01	7.0966	13.431496	0.000269	2.694409	0.456445	-0.005388
1292	6.4550e-01	7.0868	13.401135	0.000304	3.036556	0.514407	-0.006072
1293	6.4600e-01	7.0758	13.373767	0.000274	2.737178	0.463690	-0.005474
1294	6.4650e-01	7.0674	13.348109	0.000257	2.566104	0.434710	-0.005132
1295	6.4700e-01	7.0557	13.317748	0.000304	3.036556	0.514407	-0.006072
1296	6.4750e-01	7.0447	13.283110	0.000346	3.464240	0.586858	-0.006928
1297	6.4800e-01	7.0356	13.244196	0.000389	3.891924	0.659310	-0.007783
1298	6.4850e-01	7.0251	13.227519	0.000167	1.667968	0.282561	-0.003335
1299	6.4900e-01	7.0190	13.189033	0.000385	3.849156	0.652065	-0.007697
1300	6.4950e-01	7.0068	13.159954	0.000291	2.908251	0.492671	-0.005816
1301	6.5000e-01	6.9974	13.134296	0.000257	2.566104	0.434710	-0.005132
1302	6.5050e-01	6.9867	13.106928	0.000274	2.737178	0.463690	-0.005474
1303	6.5100e-01	6.9778	13.072718	0.000342	3.421472	0.579613	-0.006842
1304	6.5150e-01	6.9669	13.047916	0.000248	2.480567	0.420219	-0.004960
1305	6.5200e-01	6.9537	13.016700	0.000312	3.122093	0.528897	-0.006243
1306	6.5250e-01	6.9476	12.980351	0.000364	3.635314	0.615839	-0.007270
1307	6.5300e-01	6.9374	12.951701	0.000287	2.865483	0.485426	-0.005730
1308	6.5350e-01	6.9269	12.922622	0.000291	2.908251	0.492671	-0.005816
1309	6.5400e-01	6.9186	12.894826	0.000278	2.779946	0.470936	-0.005559
1310	6.5450e-01	6.9104	12.858051	0.000368	3.678082	0.623084	-0.007355
1311	6.5500e-01	6.8958	12.834959	0.000231	2.309494	0.391239	-0.004618
1312	6.5550e-01	6.8900	12.800749	0.000342	3.421472	0.579613	-0.006842
1313	6.5600e-01	6.8768	12.771243	0.000295	2.951020	0.499916	-0.005901
1314	6.5650e-01	6.8640	12.740881	0.000304	3.036556	0.514407	-0.006072
1315	6.5700e-01	6.8564	12.707099	0.000338	3.378704	0.572368	-0.006756
1316	6.5750e-01	6.8451	12.680158	0.000269	2.694409	0.456445	-0.005388
1317	6.5800e-01	6.8359	12.653646	0.000265	2.651641	0.449200	-0.005303
1318	6.5850e-01	6.8280	12.620291	0.000334	3.335935	0.565123	-0.006671
1319	6.5900e-01	6.8153	12.597627	0.000227	2.266725	0.383994	-0.004533
1320	6.5950e-01	6.8073	12.559141	0.000385	3.849156	0.652065	-0.007697
1321	6.6000e-01	6.7981	12.529207	0.000299	2.993788	0.507161	-0.005987
1322	6.6050e-01	6.7841	12.500983	0.000282	2.822714	0.478181	-0.005645
1323	6.6100e-01	6.7781	12.472333	0.000287	2.865483	0.485426	-0.005730
1324	6.6150e-01	6.7670	12.444965	0.000274	2.737178	0.463690	-0.005474
1325	6.6200e-01	6.7572	12.409472	0.000355	3.549777	0.601349	-0.007099
1326	6.6250e-01	6.7445	12.379538	0.000299	2.993788	0.507161	-0.005987
1327	6.6300e-01	6.7365	12.347038	0.000325	3.250398	0.550632	-0.006500
1328	6.6350e-01	6.7261	12.306842	0.000402	4.020230	0.681045	-0.008039
1329	6.6400e-01	6.7163	12.297434	0.000094	0.940905	0.159394	-0.001882
1330	6.6450e-01	6.7065	12.260230	0.000372	3.720851	0.630329	-0.007441
1331	6.6500e-01	6.6962	12.226448	0.000338	3.378704	0.572368	-0.006756
1332	6.6550e-01	6.6882	12.197370	0.000291	2.908251	0.492671	-0.005816
1333	6.6600e-01	6.6785	12.162732	0.000346	3.464240	0.586858	-0.006928
1334	6.6650e-01	6.6669	12.129377	0.000334	3.335935	0.565123	-0.006671
1335	6.6700e-01	6.6547	12.104147	0.000252	2.523336	0.427465	-0.005046
1336	6.6750e-01	6.6481	12.074213	0.000299	2.993788	0.507161	-0.005987
1337	6.6800e-01	6.6373	12.042569	0.000316	3.164862	0.536142	-0.006329
1338	6.6850e-01	6.6245	12.012208	0.000304	3.036556	0.514407	-0.006072
1339	6.6900e-01	6.6162	11.980136	0.000321	3.207630	0.543387	-0.006414
1340	6.6950e-01	6.6077	11.946781	0.000334	3.335935	0.565123	-0.006671
1341	6.7000e-01	6.5955	11.919841	0.000269	2.694409	0.456445	-0.005388
1342	6.7050e-01	6.5884	11.884775	0.000351	3.507009	0.594103	-0.007013
1343	6.7100e-01	6.5771	11.852276	0.000325	3.250398	0.550632	-0.006500
1344	6.7150e-01	6.5656	11.822770	0.000295	2.951020	0.499916	-0.005901
1345	6.7200e-01	6.5564	11.797540	0.000252	2.523336	0.427465	-0.005046
1346	6.7250e-01	6.5479	11.760764	0.000368	3.678082	0.623084	-0.007355
1347	6.7300e-01	6.5393	11.732113	0.000287	2.865483	0.485426	-0.005730
1348	6.7350e-01	6.5271	11.701752	0.000304	3.036556	0.514407	-0.006072
1349	6.7400e-01	6.5173	11.668825	0.000329	3.293167	0.557878	-0.006585
1350	6.7450e-01	6.5076	11.635042	0.000338	3.378704	0.572368	-0.006756
1351	6.7500e-01	6.4954	11.610240	0.000248	2.480567	0.420219	-0.004960
1352	6.7550e-01	6.4870	11.580306	0.000299	2.993788	0.507161	-0.005987
1353	6.7600e-01	6.4764	11.542675	0.000376	3.763619	0.637574	-0.007526
1354	6.7650e-01	6.4673	11.514024	0.000287	2.865483	0.485426	-0.005730
1355	6.7700e-01	6.4548	11.482808	0.000312	3.122093	0.528897	-0.006243
1356	6.7750e-01	6.4453	11.455867	0.000269	2.694409	0.456445	-0.005388
1357	6.7800e-01	6.4355	11.419092	0.000368	3.678082	0.623084	-0.007355
1358	6.7850e-01	6.4294	11.390868	0.000282	2.822714	0.478181	-0.005645
1359	6.7900e-01	6.4154	11.351954	0.000389	3.891924	0.659310	-0.007783
1360	6.7950e-01	6.4050	11.318600	0.000334	3.335935	0.565123	-0.006671
1361	6.8000e-01	6.3971	11.295935	0.000227	2.266725	0.383994	-0.004533
1362	6.8050e-01	6.3849	11.263436	0.000325	3.250398	0.550632	-0.006500
1363	6.8100e-01	6.3763	11.233075	0.000304	3.036556	0.514407	-0.006072
1364	6.8150e-01	6.3666	11.206134	0.000269	2.694409	0.456445	-0.005388
1365	6.8200e-01	6.3545	11.173635	0.000325	3.250398	0.550632	-0.006500
1366	6.8250e-01	6.3460	11.146694	0.000269	2.694409	0.456445	-0.005388
1367	6.8300e-01	6.3361	11.105215	0.000415	4.148535	0.702781	-0.008296
1368	6.8350e-01	6.3252	11.079557	0.000257	2.566104	0.434710	-0.005132
1369	6.8400e-01	6.3147	11.046202	0.000334	3.335935	0.565123	-0.006671
1370	6.8450e-01	6.3055	11.013703	0.000325	3.250398	0.550632	-0.006500
1371	6.8500e-01	6.2946	10.980776	0.000329	3.293167	0.557878	-0.006585
1372	6.8550e-01	6.2885	10.945283	0.000355	3.549777	0.601349	-0.007099
1373	6.8600e-01	6.2756	10.922191	0.000231	2.309494	0.391239	-0.004618
1374	6.8650e-01	6.2671	10.893112	0.000291	2.908251	0.492671	-0.005816
1375	6.8700e-01	6.2567	10.858902	0.000342	3.421472	0.579613	-0.006842
1376	6.8750e-01	6.2524	10.839232	0.000197	1.967346	0.333278	-0.003934
1377	6.8800e-01	6.2384	10.783213	0.000560	5.602661	0.949116	-0.011204
1378	6.8850e-01	6.2280	10.758838	0.000244	2.437799	0.412974	-0.004875
1379	6.8900e-01	6.2189	10.723345	0.000355	3.549777	0.601349	-0.007099
1380	6.8950e-01	6.2073	10.701964	0.000214	2.138420	0.362258	-0.004276
1381	6.9000e-01	6.1963	10.665616	0.000364	3.635314	0.615839	-0.007270
1382	6.9050e-01	6.1877	10.636110	0.000295	2.951020	0.499916	-0.005901
1383	6.9100e-01	6.1780	10.598051	0.000381	3.806388	0.644820	-0.007612
1384	6.9150e-01	6.1670	10.570683	0.000274	2.737178	0.463690	-0.005474
1385	6.9200e-01	6.1572	10.547164	0.000235	2.352262	0.398484	-0.004704
1386	6.9250e-01	6.1450	10.506539	0.000406	4.062998	0.688291	-0.008125
1387	6.9300e-01	6.1395	10.473612	0.000329	3.293167	0.557878	-0.006585
1388	6.9350e-01	6.1292	10.440685	0.000329	3.293167	0.557878	-0.006585
1389	6.9400e-01	6.1163	10.404337	0.000364	3.635314	0.615839	-0.007270
1390	6.9450e-01	6.1078	10.374403	0.000299	2.993788	0.507161	-0.005987
1391	6.9500e-01	6.0976	10.347035	0.000274	2.737178	0.463690	-0.005474
1392	6.9550e-01	6.0889	10.315391	0.000316	3.164862	0.536142	-0.006329
1393	6.9600e-01	6.0822	10.279470	0.000359	3.592546	0.608594	-0.007184
1394	6.9650e-01	6.0675	10.246971	0.000325	3.250398	0.550632	-0.006500
1395	6.9700e-01	6.0584	10.215326	0.000316	3.164862	0.536142	-0.006329
1396	6.9750e-01	6.0443	10.184965	0.000304	3.036556	0.514407	-0.006072
1397	6.9800e-01	6.0376	10.153748	0.000312	3.122093	0.528897	-0.006243
1398	6.9850e-01	6.0254	10.127663	0.000261	2.608872	0.441955	-0.005217
1399	6.9900e-01	6.0191	10.084901	0.000428	4.276840	0.724516	-0.008553
1400	6.9950e-01	6.0074	10.060098	0.000248	2.480567	0.420219	-0.004960
1401	7.0000e-01	5.9985	10.020329	0.000398	3.977461	0.673800	-0.007954
1402	7.0050e-01	5.9872	9.992534	0.000278	2.779946	0.470936	-0.005559
1403	7.0100e-01	5.9772	9.951909	0.000406	4.062998	0.688291	-0.008125
1404	7.0150e-01	5.9662	9.931811	0.000201	2.010115	0.340523	-0.004020
1405	7.0200e-01	5.9564	9.889904	0.000419	4.191303	0.710026	-0.008381
1406	7.0250e-01	5.9482	9.857832	0.000321	3.207630	0.543387	-0.006414
1407	7.0300e-01	5.9375	9.832174	0.000257	2.566104	0.434710	-0.005132
1408	7.0350e-01	5.9262	9.791122	0.000411	4.105766	0.695536	-0.008210
1409	7.0400e-01	5.9174	9.761616	0.000295	2.951020	0.499916	-0.005901
1410	7.0450e-01	5.9064	9.732965	0.000287	2.865483	0.485426	-0.005730
1411	7.0500e-01	5.8972	9.699183	0.000338	3.378704	0.572368	-0.006756
1412	7.0550e-01	5.8856	9.670104	0.000291	2.908251	0.492671	-0.005816
1413	7.0600e-01	5.8778	9.638032	0.000321	3.207630	0.543387	-0.006414
1414	7.0650e-01	5.8661	9.604250	0.000338	3.378704	0.572368	-0.006756
1415	7.0700e-01	5.8569	9.563625	0.000406	4.062998	0.688291	-0.008125
1416	7.0750e-01	5.8472	9.539678	0.000240	2.395030	0.405729	-0.004789
1417	7.0800e-01	5.8379	9.509745	0.000299	2.993788	0.507161	-0.005987
1418	7.0850e-01	5.8258	9.470831	0.000389	3.891924	0.659310	-0.007783
1419	7.0900e-01	5.8162	9.443463	0.000274	2.737178	0.463690	-0.005474
1420	7.0950e-01	5.8115	9.408825	0.000346	3.464240	0.586858	-0.006928
1421	7.1000e-01	5.7962	9.366918	0.000419	4.191303	0.710026	-0.008381
1422	7.1050e-01	5.7880	9.338267	0.000287	2.865483	0.485426	-0.005730
1423	7.1100e-01	5.7758	9.306623	0.000316	3.164862	0.536142	-0.006329
1424	7.1150e-01	5.7642	9.276689	0.000299	2.993788	0.507161	-0.005987
1425	7.1200e-01	5.7556	9.232216	0.000445	4.447914	0.753497	-0.008895
1426	7.1250e-01	5.7446	9.211690	0.000205	2.052883	0.347768	-0.004105
1427	7.1300e-01	5.7382	9.175769	0.000359	3.592546	0.608594	-0.007184
1428	7.1350e-01	5.7251	9.138138	0.000376	3.763619	0.637574	-0.007526
1429	7.1400e-01	5.7172	9.112908	0.000252	2.523336	0.427465	-0.005046
1430	7.1450e-01	5.7068	9.074422	0.000385	3.849156	0.652065	-0.007697
1431	7.1500e-01	5.6976	9.044916	0.000295	2.951020	0.499916	-0.005901
1432	7.1550e-01	5.6860	9.005147	0.000398	3.977461	0.673800	-0.007954
1433	7.1600e-01	5.6750	8.970937	0.000342	3.421472	0.579613	-0.006842
1434	7.1650e-01	5.6665	8.945707	0.000252	2.523336	0.427465	-0.005046
1435	7.1700e-01	5.6570	8.906793	0.000389	3.891924	0.659310	-0.007783
1436	7.1750e-01	5.6464	8.874294	0.000325	3.250398	0.550632	-0.006500
1437	7.1800e-01	5.6366	8.837518	0.000368	3.678082	0.623084	-0.007355
1438	7.1850e-01	5.6274	8.805018	0.000325	3.250398	0.550632	-0.006500
1439	7.1900e-01	5.6186	8.778933	0.000261	2.608872	0.441955	-0.005217
1440	7.1950e-01	5.6073	8.731894	0.000470	4.704524	0.796968	-0.009408
1441	7.2000e-01	5.5969	8.711368	0.000205	2.052883	0.347768	-0.004105
1442	7.2050e-01	5.5872	8.678869	0.000325	3.250398	0.550632	-0.006500
1443	7.2100e-01	5.5768	8.644231	0.000346	3.464240	0.586858	-0.006928
1444	7.2150e-01	5.5673	8.615153	0.000291	2.908251	0.492671	-0.005816
1445	7.2200e-01	5.5554	8.576666	0.000385	3.849156	0.652065	-0.007697
1446	7.2250e-01	5.5460	8.537752	0.000389	3.891924	0.659310	-0.007783
1447	7.2300e-01	5.5368	8.502687	0.000351	3.507009	0.594103	-0.007013
1448	7.2350e-01	5.5273	8.476174	0.000265	2.651641	0.449200	-0.005303
1449	7.2400e-01	5.5171	8.437688	0.000385	3.849156	0.652065	-0.007697
1450	7.2450e-01	5.5060	8.406471	0.000312	3.122093	0.528897	-0.006243
1451	7.2500e-01	5.4976	8.369696	0.000368	3.678082	0.623084	-0.007355
1452	7.2550e-01	5.4852	8.342328	0.000274	2.737178	0.463690	-0.005474
1453	7.2600e-01	5.4767	8.303841	0.000385	3.849156	0.652065	-0.007697
1454	7.2650e-01	5.4642	8.274763	0.000291	2.908251	0.492671	-0.005816
1455	7.2700e-01	5.4553	8.241408	0.000334	3.335935	0.565123	-0.006671
1456	7.2750e-01	5.4480	8.207198	0.000342	3.421472	0.579613	-0.006842
1457	7.2800e-01	5.4358	8.175126	0.000321	3.207630	0.543387	-0.006414
1458	7.2850e-01	5.4266	8.134074	0.000411	4.105766	0.695536	-0.008210
1459	7.2900e-01	5.4141	8.103285	0.000308	3.079325	0.521652	-0.006158
1460	7.2950e-01	5.4086	8.072924	0.000304	3.036556	0.514407	-0.006072
1461	7.3000e-01	5.3961	8.031016	0.000419	4.191303	0.710026	-0.008381
1462	7.3050e-01	5.3888	7.999372	0.000316	3.164862	0.536142	-0.006329
1463	7.3100e-01	5.3766	7.974142	0.000252	2.523336	0.427465	-0.005046
1464	7.3150e-01	5.3675	7.934801	0.000393	3.934693	0.666555	-0.007868
1465	7.3200e-01	5.3598	7.907005	0.000278	2.779946	0.470936	-0.005559
1466	7.3250e-01	5.3479	7.859966	0.000470	4.704524	0.796968	-0.009408
1467	7.3300e-01	5.3354	7.824046	0.000359	3.592546	0.608594	-0.007184
1468	7.3350e-01	5.3268	7.793684	0.000304	3.036556	0.514407	-0.006072
1469	7.3400e-01	5.3168	7.761613	0.000321	3.207630	0.543387	-0.006414
1470	7.3450e-01	5.3073	7.728685	0.000329	3.293167	0.557878	-0.006585
1471	7.3500e-01	5.2966	7.690199	0.000385	3.849156	0.652065	-0.007697
1472	7.3550e-01	5.2890	7.652568	0.000376	3.763619	0.637574	-0.007526
1473	7.3600e-01	5.2759	7.624772	0.000278	2.779946	0.470936	-0.005559
1474	7.3650e-01	5.2695	7.594839	0.000299	2.993788	0.507161	-0.005987
1475	7.3700e-01	5.2588	7.558918	0.000359	3.592546	0.608594	-0.007184
1476	7.3750e-01	5.2466	7.521715	0.000372	3.720851	0.630329	-0.007441
1477	7.3800e-01	5.2362	7.493492	0.000282	2.822714	0.478181	-0.005645
1478	7.3850e-01	5.2271	7.454150	0.000393	3.934693	0.666555	-0.007868
1479	7.3900e-01	5.2162	7.416947	0.000372	3.720851	0.630329	-0.007441
1480	7.3950e-01	5.2057	7.390006	0.000269	2.694409	0.456445	-0.005388
1481	7.4000e-01	5.1971	7.350237	0.000398	3.977461	0.673800	-0.007954
1482	7.4050e-01	5.1874	7.315599	0.000346	3.464240	0.586858	-0.006928
1483	7.4100e-01	5.1782	7.283955	0.000316	3.164862	0.536142	-0.006329
1484	7.4150e-01	5.1661	7.244186	0.000398	3.977461	0.673800	-0.007954
1485	7.4200e-01	5.1569	7.209548	0.000346	3.464240	0.586858	-0.006928
1486	7.4250e-01	5.1469	7.169352	0.000402	4.020230	0.681045	-0.008039
1487	7.4300e-01	5.1364	7.137280	0.000321	3.207630	0.543387	-0.006414
1488	7.4350e-01	5.1276	7.108629	0.000287	2.865483	0.485426	-0.005730
1489	7.4400e-01	5.1166	7.072281	0.000364	3.635314	0.615839	-0.007270
1490	7.4450e-01	5.1050	7.042774	0.000295	2.951020	0.499916	-0.005901
1491	7.4500e-01	5.0958	7.003861	0.000389	3.891924	0.659310	-0.007783
1492	7.4550e-01	5.0874	6.964519	0.000393	3.934693	0.666555	-0.007868
1493	7.4600e-01	5.0763	6.934158	0.000304	3.036556	0.514407	-0.006072
1494	7.4650e-01	5.0659	6.893961	0.000402	4.020230	0.681045	-0.008039
1495	7.4700e-01	5.0574	6.873007	0.000210	2.095652	0.355013	-0.004191
1496	7.4750e-01	5.0476	6.822975	0.000500	5.003903	0.847684	-0.010006
1497	7.4800e-01	5.0354	6.787055	0.000359	3.592546	0.608594	-0.007184
1498	7.4850e-01	5.0290	6.755410	0.000316	3.164862	0.536142	-0.006329
1499	7.4900e-01	5.0140	6.725904	0.000295	2.951020	0.499916	-0.005901
1500	7.4950e-01	5.0061	6.692122	0.000338	3.378704	0.572368	-0.006756
1501	7.5000e-01	4.9969	6.650642	0.000415	4.148535	0.702781	-0.008296
1502	7.5050e-01	4.9896	6.612583	0.000381	3.806388	0.644820	-0.007612
1503	7.5100e-01	4.9774	6.579229	0.000334	3.335935	0.565123	-0.006671
1504	7.5150e-01	4.9673	6.546302	0.000329	3.293167	0.557878	-0.006585
1505	7.5200e-01	4.9562	6.510381	0.000359	3.592546	0.608594	-0.007184
1506	7.5250e-01	4.9463	6.474033	0.000364	3.635314	0.615839	-0.007270
1507	7.5300e-01	4.9390	6.449658	0.000244	2.437799	0.412974	-0.004875
1508	7.5350e-01	4.9271	6.399626	0.000500	5.003903	0.847684	-0.010006
1509	7.5400e-01	4.9164	6.371403	0.000282	2.822714	0.478181	-0.005645
1510	7.5450e-01	4.9066	6.338048	0.000334	3.335935	0.565123	-0.006671
1511	7.5500e-01	4.8953	6.306404	0.000316	3.164862	0.536142	-0.006329
1512	7.5550e-01	4.8862	6.264924	0.000415	4.148535	0.702781	-0.008296
1513	7.5600e-01	4.8767	6.222162	0.000428	4.276840	0.724516	-0.008553
1514	7.5650e-01	4.8657	6.197359	0.000248	2.480567	0.420219	-0.004960
1515	7.5700e-01	4.8578	6.155024	0.000423	4.234072	0.717271	-0.008467
1516	7.5750e-01	4.8456	6.126373	0.000287	2.865483	0.485426	-0.005730
1517	7.5800e-01	4.8355	6.089170	0.000372	3.720851	0.630329	-0.007441
1518	7.5850e-01	4.8274	6.049829	0.000393	3.934693	0.666555	-0.007868
1519	7.5900e-01	4.8163	6.012625	0.000372	3.720851	0.630329	-0.007441
1520	7.5950e-01	4.8075	5.975849	0.000368	3.678082	0.623084	-0.007355
1521	7.6000e-01	4.7964	5.943778	0.000321	3.207630	0.543387	-0.006414
1522	7.6050e-01	4.7867	5.904008	0.000398	3.977461	0.673800	-0.007954
1523	7.6100e-01	4.7766	5.865094	0.000389	3.891924	0.659310	-0.007783
1524	7.6150e-01	4.7650	5.830884	0.000342	3.421472	0.579613	-0.006842
1525	7.6200e-01	4.7571	5.803089	0.000278	2.779946	0.470936	-0.005559
1526	7.6250e-01	4.7466	5.765885	0.000372	3.720851	0.630329	-0.007441
1527	7.6300e-01	4.7379	5.722695	0.000432	4.319608	0.731761	-0.008638
1528	7.6350e-01	4.7261	5.687630	0.000351	3.507009	0.594103	-0.007013
1529	7.6400e-01	4.7159	5.655986	0.000316	3.164862	0.536142	-0.006329
1530	7.6450e-01	4.7052	5.615789	0.000402	4.020230	0.681045	-0.008039
1531	7.6500e-01	4.6973	5.588421	0.000274	2.737178	0.463690	-0.005474
1532	7.6550e-01	4.6877	5.548652	0.000398	3.977461	0.673800	-0.007954
1533	7.6600e-01	4.6772	5.510593	0.000381	3.806388	0.644820	-0.007612
1534	7.6650e-01	4.6649	5.478094	0.000325	3.250398	0.550632	-0.006500
1535	7.6700e-01	4.6564	5.437469	0.000406	4.062998	0.688291	-0.008125
1536	7.6750e-01	4.6484	5.398983	0.000385	3.849156	0.652065	-0.007697
1537	7.6800e-01	4.6381	5.356648	0.000423	4.234072	0.717271	-0.008467
1538	7.6850e-01	4.6272	5.328852	0.000278	2.779946	0.470936	-0.005559
1539	7.6900e-01	4.6150	5.293359	0.000355	3.549777	0.601349	-0.007099
1540	7.6950e-01	4.6082	5.249742	0.000436	4.362377	0.739007	-0.008724
1541	7.7000e-01	4.5984	5.211683	0.000381	3.806388	0.644820	-0.007612
1542	7.7050e-01	4.5856	5.189019	0.000227	2.266725	0.383994	-0.004533
1543	7.7100e-01	4.5752	5.144973	0.000441	4.405145	0.746252	-0.008809
1544	7.7150e-01	4.5663	5.102639	0.000423	4.234072	0.717271	-0.008467
1545	7.7200e-01	4.5526	5.085534	0.000171	1.710736	0.289807	-0.003421
1546	7.7250e-01	4.5448	5.041061	0.000445	4.447914	0.753497	-0.008895
1547	7.7300e-01	4.5377	5.000864	0.000402	4.020230	0.681045	-0.008039
1548	7.7350e-01	4.5264	4.964943	0.000359	3.592546	0.608594	-0.007184
1549	7.7400e-01	4.5145	4.928167	0.000368	3.678082	0.623084	-0.007355
1550	7.7450e-01	4.5059	4.892675	0.000355	3.549777	0.601349	-0.007099
1551	7.7500e-01	4.4955	4.859747	0.000329	3.293167	0.557878	-0.006585
1552	7.7550e-01	4.4875	4.813136	0.000466	4.661756	0.789723	-0.009322
1553	7.7600e-01	4.4774	4.781492	0.000316	3.164862	0.536142	-0.006329
1554	7.7650e-01	4.4653	4.743006	0.000385	3.849156	0.652065	-0.007697
1555	7.7700e-01	4.4617	4.711361	0.000316	3.164862	0.536142	-0.006329
1556	7.7750e-01	4.4458	4.664323	0.000470	4.704524	0.796968	-0.009408
1557	7.7800e-01	4.4379	4.634817	0.000295	2.951020	0.499916	-0.005901
1558	7.7850e-01	4.4263	4.606166	0.000287	2.865483	0.485426	-0.005730
1559	7.7900e-01	4.4190	4.559554	0.000466	4.661756	0.789723	-0.009322
1560	7.7950e-01	4.4031	4.523634	0.000359	3.592546	0.608594	-0.007184
1561	7.8000e-01	4.3970	4.491134	0.000325	3.250398	0.550632	-0.006500
1562	7.8050e-01	4.3857	4.456497	0.000346	3.464240	0.586858	-0.006928
1563	7.8100e-01	4.3762	4.410313	0.000462	4.618987	0.782478	-0.009237
1564	7.8150e-01	4.3683	4.376103	0.000342	3.421472	0.579613	-0.006842
1565	7.8200e-01	4.3527	4.341893	0.000342	3.421472	0.579613	-0.006842
1566	7.8250e-01	4.3453	4.308966	0.000329	3.293167	0.557878	-0.006585
1567	7.8300e-01	4.3365	4.269197	0.000398	3.977461	0.673800	-0.007954
1568	7.8350e-01	4.3286	4.221731	0.000475	4.747292	0.804213	-0.009493
1569	7.8400e-01	4.3176	4.180251	0.000415	4.148535	0.702781	-0.008296
1570	7.8450e-01	4.3073	4.145613	0.000346	3.464240	0.586858	-0.006928
1571	7.8500e-01	4.2976	4.116535	0.000291	2.908251	0.492671	-0.005816
1572	7.8550e-01	4.2877	4.070351	0.000462	4.618987	0.782478	-0.009237
1573	7.8600e-01	4.2770	4.046832	0.000235	2.352262	0.398484	-0.004704
1574	7.8650e-01	4.2657	3.998083	0.000488	4.875598	0.825949	-0.009750
1575	7.8700e-01	4.2560	3.960879	0.000372	3.720851	0.630329	-0.007441
1576	7.8750e-01	4.2493	3.919827	0.000411	4.105766	0.695536	-0.008210
1577	7.8800e-01	4.2361	3.890321	0.000295	2.951020	0.499916	-0.005901
1578	7.8850e-01	4.2268	3.855256	0.000351	3.507009	0.594103	-0.007013
1579	7.8900e-01	4.2163	3.807789	0.000475	4.747292	0.804213	-0.009493
1580	7.8950e-01	4.2065	3.771869	0.000359	3.592546	0.608594	-0.007184
1581	7.9000e-01	4.1965	3.729534	0.000423	4.234072	0.717271	-0.008467
1582	7.9050e-01	4.1866	3.699172	0.000304	3.036556	0.514407	-0.006072
1583	7.9100e-01	4.1756	3.658976	0.000402	4.020230	0.681045	-0.008039
1584	7.9150e-01	4.1666	3.623483	0.000355	3.549777	0.601349	-0.007099
1585	7.9200e-01	4.1577	3.582431	0.000411	4.105766	0.695536	-0.008210
1586	7.9250e-01	4.1473	3.540951	0.000415	4.148535	0.702781	-0.008296
1587	7.9300e-01	4.1370	3.506313	0.000346	3.464240	0.586858	-0.006928
1588	7.9350e-01	4.1272	3.471676	0.000346	3.464240	0.586858	-0.006928
1589	7.9400e-01	4.1174	3.430624	0.000411	4.105766	0.695536	-0.008210
1590	7.9450e-01	4.1043	3.395131	0.000355	3.549777	0.601349	-0.007099
1591	7.9500e-01	4.0959	3.354079	0.000411	4.105766	0.695536	-0.008210
1592	7.9550e-01	4.0853	3.319014	0.000351	3.507009	0.594103	-0.007013
1593	7.9600e-01	4.0759	3.278817	0.000402	4.020230	0.681045	-0.008039
1594	7.9650e-01	4.0656	3.241186	0.000376	3.763619	0.637574	-0.007526
1595	7.9700e-01	4.0552	3.205265	0.000359	3.592546	0.608594	-0.007184
1596	7.9750e-01	4.0479	3.163786	0.000415	4.148535	0.702781	-0.008296
1597	7.9800e-01	4.0369	3.131714	0.000321	3.207630	0.543387	-0.006414
1598	7.9850e-01	4.0271	3.089379	0.000423	4.234072	0.717271	-0.008467
1599	7.9900e-01	4.0167	3.043195	0.000462	4.618987	0.782478	-0.009237
1600	7.9950e-01	4.0045	3.008130	0.000351	3.507009	0.594103	-0.007013
1601	8.0000e-01	3.9945	2.977341	0.000308	3.079325	0.521652	-0.006158
1602	8.0050e-01	3.9862	2.930730	0.000466	4.661756	0.789723	-0.009322
1603	8.0100e-01	3.9767	2.896520	0.000342	3.421472	0.579613	-0.006842
1604	8.0150e-01	3.9667	2.864448	0.000321	3.207630	0.543387	-0.006414
1605	8.0200e-01	3.9578	2.813988	0.000505	5.046671	0.854929	-0.010092
1606	8.0250e-01	3.9478	2.776785	0.000372	3.720851	0.630329	-0.007441
1607	8.0300e-01	3.9374	2.735305	0.000415	4.148535	0.702781	-0.008296
1608	8.0350e-01	3.9264	2.706654	0.000287	2.865483	0.485426	-0.005730
1609	8.0400e-01	3.9172	2.664747	0.000419	4.191303	0.710026	-0.008381
1610	8.0450e-01	3.9040	2.626261	0.000385	3.849156	0.652065	-0.007697
1611	8.0500e-01	3.8962	2.586919	0.000393	3.934693	0.666555	-0.007868
1612	8.0550e-01	3.8843	2.554847	0.000321	3.207630	0.543387	-0.006414
1613	8.0600e-01	3.8760	2.502249	0.000526	5.260513	0.891155	-0.010520
1614	8.0650e-01	3.8654	2.476164	0.000261	2.608872	0.441955	-0.005217
1615	8.0700e-01	3.8538	2.430836	0.000453	4.533450	0.767987	-0.009066
1616	8.0750e-01	3.8477	2.391067	0.000398	3.977461	0.673800	-0.007954
1617	8.0800e-01	3.8342	2.357284	0.000338	3.378704	0.572368	-0.006756
1618	8.0850e-01	3.8263	2.308535	0.000488	4.875598	0.825949	-0.009750
1619	8.0900e-01	3.8147	2.275608	0.000329	3.293167	0.557878	-0.006585
1620	8.0950e-01	3.8055	2.241398	0.000342	3.421472	0.579613	-0.006842
1621	8.1000e-01	3.7943	2.192649	0.000488	4.875598	0.825949	-0.009750
1622	8.1050e-01	3.7862	2.157156	0.000355	3.549777	0.601349	-0.007099
1623	8.1100e-01	3.7746	2.120808	0.000364	3.635314	0.615839	-0.007270
1624	8.1150e-01	3.7653	2.078045	0.000428	4.276840	0.724516	-0.008553
1625	8.1200e-01	3.7570	2.043407	0.000346	3.464240	0.586858	-0.006928
1626	8.1250e-01	3.7479	2.009625	0.000338	3.378704	0.572368	-0.006756
1627	8.1300e-01	3.7369	1.967290	0.000423	4.234072	0.717271	-0.008467
1628	8.1350e-01	3.7286	1.923245	0.000441	4.405145	0.746252	-0.008809
1629	8.1400e-01	3.7170	1.886041	0.000372	3.720851	0.630329	-0.007441
1630	8.1450e-01	3.7050	1.844989	0.000411	4.105766	0.695536	-0.008210
1631	8.1500e-01	3.6951	1.803937	0.000411	4.105766	0.695536	-0.008210
1632	8.1550e-01	3.6853	1.768444	0.000355	3.549777	0.601349	-0.007099
1633	8.1600e-01	3.6780	1.736800	0.000316	3.164862	0.536142	-0.006329
1634	8.1650e-01	3.6635	1.691899	0.000449	4.490682	0.760742	-0.008980
1635	8.1700e-01	3.6572	1.652130	0.000398	3.977461	0.673800	-0.007954
1636	8.1750e-01	3.6479	1.608940	0.000432	4.319608	0.731761	-0.008638
1637	8.1800e-01	3.6353	1.569171	0.000398	3.977461	0.673800	-0.007954
1638	8.1850e-01	3.6307	1.527264	0.000419	4.191303	0.710026	-0.008381
1639	8.1900e-01	3.6176	1.479797	0.000475	4.747292	0.804213	-0.009493
1640	8.1950e-01	3.6048	1.450291	0.000295	2.951020	0.499916	-0.005901
1641	8.2000e-01	3.5954	1.409667	0.000406	4.062998	0.688291	-0.008125
1642	8.2050e-01	3.5861	1.372036	0.000376	3.763619	0.637574	-0.007526
1643	8.2100e-01	3.5767	1.327135	0.000449	4.490682	0.760742	-0.008980
1644	8.2150e-01	3.5660	1.289076	0.000381	3.806388	0.644820	-0.007612
1645	8.2200e-01	3.5561	1.254439	0.000346	3.464240	0.586858	-0.006928
1646	8.2250e-01	3.5458	1.205689	0.000488	4.875598	0.825949	-0.009750
1647	8.2300e-01	3.5370	1.166776	0.000389	3.891924	0.659310	-0.007783
1648	8.2350e-01	3.5248	1.127006	0.000398	3.977461	0.673800	-0.007954
1649	8.2400e-01	3.5190	1.079112	0.000479	4.790061	0.811458	-0.009579
1650	8.2450e-01	3.5046	1.053882	0.000252	2.523336	0.427465	-0.005046
1651	8.2500e-01	3.4985	1.009409	0.000445	4.447914	0.753497	-0.008895
1652	8.2550e-01	3.4882	0.958094	0.000513	5.132208	0.869420	-0.010263
1653	8.2600e-01	3.4766	0.927733	0.000304	3.036556	0.514407	-0.006072
1654	8.2650e-01	3.4674	0.889247	0.000385	3.849156	0.652065	-0.007697
1655	8.2700e-01	3.4555	0.844346	0.000449	4.490682	0.760742	-0.008980
1656	8.2750e-01	3.4473	0.808426	0.000359	3.592546	0.608594	-0.007184
1657	8.2800e-01	3.4390	0.765663	0.000428	4.276840	0.724516	-0.008553
1658	8.2850e-01	3.4268	0.723756	0.000419	4.191303	0.710026	-0.008381
1659	8.2900e-01	3.4155	0.686125	0.000376	3.763619	0.637574	-0.007526
1660	8.2950e-01	3.4105	0.641652	0.000445	4.447914	0.753497	-0.008895
1661	8.3000e-01	3.3948	0.599744	0.000419	4.191303	0.710026	-0.008381
1662	8.3050e-01	3.3850	0.561258	0.000385	3.849156	0.652065	-0.007697
1663	8.3100e-01	3.3734	0.524055	0.000372	3.720851	0.630329	-0.007441
1664	8.3150e-01	3.3643	0.479582	0.000445	4.447914	0.753497	-0.008895
1665	8.3200e-01	3.3548	0.434253	0.000453	4.533450	0.767987	-0.009066
1666	8.3250e-01	3.3469	0.391919	0.000423	4.234072	0.717271	-0.008467
1667	8.3300e-01	3.3345	0.361130	0.000308	3.079325	0.521652	-0.006158
1668	8.3350e-01	3.3224	0.320078	0.000411	4.105766	0.695536	-0.008210
1669	8.3400e-01	3.3167	0.281591	0.000385	3.849156	0.652065	-0.007697
1670	8.3450e-01	3.3054	0.236263	0.000453	4.533450	0.767987	-0.009066
1671	8.3500e-01	3.2957	0.188797	0.000475	4.747292	0.804213	-0.009493
1672	8.3550e-01	3.2874	0.153731	0.000351	3.507009	0.594103	-0.007013
1673	8.3600e-01	3.2780	0.107975	0.000458	4.576219	0.775232	-0.009151
1674	8.3650e-01	3.2648	0.071627	0.000364	3.635314	0.615839	-0.007270
1675	8.3700e-01	3.2582	0.031003	0.000406	4.062998	0.688291	-0.008125
1676	8.3750e-01	3.2459	-0.013898	0.000449	4.490682	0.760742	-0.008980
1677	8.3800e-01	3.2356	-0.051101	0.000372	3.720851	0.630329	-0.007441
1678	8.3850e-01	3.2259	-0.096429	0.000453	4.533450	0.767987	-0.009066
1679	8.3900e-01	3.2141	-0.136199	0.000398	3.977461	0.673800	-0.007954
1680	8.3950e-01	3.2047	-0.178534	0.000423	4.234072	0.717271	-0.008467
1681	8.4000e-01	3.1979	-0.229421	0.000509	5.089440	0.862174	-0.010177
1682	8.4050e-01	3.1850	-0.268762	0.000393	3.934693	0.666555	-0.007868
1683	8.4100e-01	3.1772	-0.305538	0.000368	3.678082	0.623084	-0.007355
1684	8.4150e-01	3.1693	-0.345735	0.000402	4.020230	0.681045	-0.008039
1685	8.4200e-01	3.1563	-0.389353	0.000436	4.362377	0.739007	-0.008724
1686	8.4250e-01	3.1461	-0.431688	0.000423	4.234072	0.717271	-0.008467
1687	8.4300e-01	3.1363	-0.478299	0.000466	4.661756	0.789723	-0.009322
1688	8.4350e-01	3.1277	-0.512937	0.000346	3.464240	0.586858	-0.006928
1689	8.4400e-01	3.1171	-0.555271	0.000423	4.234072	0.717271	-0.008467
1690	8.4450e-01	3.1093	-0.590764	0.000355	3.549777	0.601349	-0.007099
1691	8.4500e-01	3.0975	-0.645928	0.000552	5.517124	0.934626	-0.011033
1692	8.4550e-01	3.0854	-0.675434	0.000295	2.951020	0.499916	-0.005901
1693	8.4600e-01	3.0762	-0.723756	0.000483	4.832829	0.818703	-0.009664
1694	8.4650e-01	3.0627	-0.763525	0.000398	3.977461	0.673800	-0.007954
1695	8.4700e-01	3.0562	-0.802011	0.000385	3.849156	0.652065	-0.007697
1696	8.4750e-01	3.0475	-0.850333	0.000483	4.832829	0.818703	-0.009664
1697	8.4800e-01	3.0365	-0.895661	0.000453	4.533450	0.767987	-0.009066
1698	8.4850e-01	3.0249	-0.932865	0.000372	3.720851	0.630329	-0.007441
1699	8.4900e-01	3.0164	-0.974772	0.000419	4.191303	0.710026	-0.008381
1700	8.4950e-01	3.0092	-1.017962	0.000432	4.319608	0.731761	-0.008638
1701	8.5000e-01	2.9962	-1.058159	0.000402	4.020230	0.681045	-0.008039
1702	8.5050e-01	2.9865	-1.097500	0.000393	3.934693	0.666555	-0.007868
1703	8.5100e-01	2.9768	-1.150526	0.000530	5.303282	0.898400	-0.010605
1704	8.5150e-01	2.9660	-1.185591	0.000351	3.507009	0.594103	-0.007013
1705	8.5200e-01	2.9575	-1.227498	0.000419	4.191303	0.710026	-0.008381
1706	8.5250e-01	2.9453	-1.266412	0.000389	3.891924	0.659310	-0.007783
1707	8.5300e-01	2.9364	-1.310030	0.000436	4.362377	0.739007	-0.008724
1708	8.5350e-01	2.9242	-1.355358	0.000453	4.533450	0.767987	-0.009066
1709	8.5400e-01	2.9146	-1.400259	0.000449	4.490682	0.760742	-0.008980
1710	8.5450e-01	2.9083	-1.445587	0.000453	4.533450	0.767987	-0.009066
1711	8.5500e-01	2.8986	-1.480653	0.000351	3.507009	0.594103	-0.007013
1712	8.5550e-01	2.8856	-1.523415	0.000428	4.276840	0.724516	-0.008553
1713	8.5600e-01	2.8736	-1.568316	0.000449	4.490682	0.760742	-0.008980
1714	8.5650e-01	2.8693	-1.615354	0.000470	4.704524	0.796968	-0.009408
1715	8.5700e-01	2.8571	-1.658545	0.000432	4.319608	0.731761	-0.008638
1716	8.5750e-01	2.8485	-1.695748	0.000372	3.720851	0.630329	-0.007441
1717	8.5800e-01	2.8370	-1.742787	0.000470	4.704524	0.796968	-0.009408
1718	8.5850e-01	2.8280	-1.787260	0.000445	4.447914	0.753497	-0.008895
1719	8.5900e-01	2.8156	-1.827884	0.000406	4.062998	0.688291	-0.008125
1720	8.5950e-01	2.8070	-1.871930	0.000441	4.405145	0.746252	-0.008809
1721	8.6000e-01	2.7991	-1.911699	0.000398	3.977461	0.673800	-0.007954
1722	8.6050e-01	2.7856	-1.960448	0.000488	4.875598	0.825949	-0.009750
1723	8.6100e-01	2.7754	-2.003638	0.000432	4.319608	0.731761	-0.008638
1724	8.6150e-01	2.7655	-2.039131	0.000355	3.549777	0.601349	-0.007099
1725	8.6200e-01	2.7583	-2.094295	0.000552	5.517124	0.934626	-0.011033
1726	8.6250e-01	2.7481	-2.132781	0.000385	3.849156	0.652065	-0.007697
1727	8.6300e-01	2.7394	-2.177682	0.000449	4.490682	0.760742	-0.008980
1728	8.6350e-01	2.7240	-2.211464	0.000338	3.378704	0.572368	-0.006756
1729	8.6400e-01	2.7151	-2.252944	0.000415	4.148535	0.702781	-0.008296
1730	8.6450e-01	2.7068	-2.311528	0.000586	5.859271	0.992587	-0.011717
1731	8.6500e-01	2.6956	-2.348304	0.000368	3.678082	0.623084	-0.007355
1732	8.6550e-01	2.6868	-2.391494	0.000432	4.319608	0.731761	-0.008638
1733	8.6600e-01	2.6790	-2.436823	0.000453	4.533450	0.767987	-0.009066
1734	8.6650e-01	2.6666	-2.467612	0.000308	3.079325	0.521652	-0.006158
1735	8.6700e-01	2.6563	-2.531755	0.000642	6.415260	1.086774	-0.012829
1736	8.6750e-01	2.6440	-2.562544	0.000308	3.079325	0.521652	-0.006158
1737	8.6800e-01	2.6361	-2.614715	0.000522	5.217745	0.883910	-0.010434
1738	8.6850e-01	2.6222	-2.651063	0.000364	3.635314	0.615839	-0.007270
1739	8.6900e-01	2.6152	-2.705799	0.000547	5.474355	0.927381	-0.010947
1740	8.6950e-01	2.6070	-2.747279	0.000415	4.148535	0.702781	-0.008296
1741	8.7000e-01	2.5992	-2.783199	0.000359	3.592546	0.608594	-0.007184
1742	8.7050e-01	2.5857	-2.826817	0.000436	4.362377	0.739007	-0.008724
1743	8.7100e-01	2.5784	-2.871718	0.000449	4.490682	0.760742	-0.008980
1744	8.7150e-01	2.5635	-2.917901	0.000462	4.618987	0.782478	-0.009237
1745	8.7200e-01	2.5549	-2.957670	0.000398	3.977461	0.673800	-0.007954
1746	8.7250e-01	2.5467	-3.007702	0.000500	5.003903	0.847684	-0.010006
1747	8.7300e-01	2.5366	-3.053031	0.000453	4.533450	0.767987	-0.009066
1748	8.7350e-01	2.5252	-3.090234	0.000372	3.720851	0.630329	-0.007441
1749	8.7400e-01	2.5111	-3.133424	0.000432	4.319608	0.731761	-0.008638
1750	8.7450e-01	2.5070	-3.186022	0.000526	5.260513	0.891155	-0.010520
1751	8.7500e-01	2.4961	-3.224081	0.000381	3.806388	0.644820	-0.007612
1752	8.7550e-01	2.4857	-3.270692	0.000466	4.661756	0.789723	-0.009322
1753	8.7600e-01	2.4746	-3.318586	0.000479	4.790061	0.811458	-0.009579
1754	8.7650e-01	2.4658	-3.360066	0.000415	4.148535	0.702781	-0.008296
1755	8.7700e-01	2.4561	-3.408387	0.000483	4.832829	0.818703	-0.009664
1756	8.7750e-01	2.4458	-3.446874	0.000385	3.849156	0.652065	-0.007697
1757	8.7800e-01	2.4376	-3.494340	0.000475	4.747292	0.804213	-0.009493
1758	8.7850e-01	2.4261	-3.538385	0.000441	4.405145	0.746252	-0.008809
1759	8.7900e-01	2.4135	-3.577299	0.000389	3.891924	0.659310	-0.007783
1760	8.7950e-01	2.4065	-3.625621	0.000483	4.832829	0.818703	-0.009664
1761	8.8000e-01	2.3961	-3.668383	0.000428	4.276840	0.724516	-0.008553
1762	8.8050e-01	2.3869	-3.720554	0.000522	5.217745	0.883910	-0.010434
1763	8.8100e-01	2.3773	-3.765454	0.000449	4.490682	0.760742	-0.008980
1764	8.8150e-01	2.3654	-3.806506	0.000411	4.105766	0.695536	-0.008210
1765	8.8200e-01	2.3582	-3.855256	0.000488	4.875598	0.825949	-0.009750
1766	8.8250e-01	2.3442	-3.906998	0.000517	5.174976	0.876665	-0.010349
1767	8.8300e-01	2.3358	-3.944202	0.000372	3.720851	0.630329	-0.007441
1768	8.8350e-01	2.3280	-3.991668	0.000475	4.747292	0.804213	-0.009493
1769	8.8400e-01	2.3167	-4.041273	0.000496	4.961134	0.840439	-0.009921
1770	8.8450e-01	2.3077	-4.076766	0.000355	3.549777	0.601349	-0.007099
1771	8.8500e-01	2.2963	-4.128508	0.000517	5.174976	0.876665	-0.010349
1772	8.8550e-01	2.2858	-4.168705	0.000402	4.020230	0.681045	-0.008039
1773	8.8600e-01	2.2768	-4.208047	0.000393	3.934693	0.666555	-0.007868
1774	8.8650e-01	2.2655	-4.267059	0.000590	5.902039	0.999833	-0.011802
1775	8.8700e-01	2.2559	-4.308966	0.000419	4.191303	0.710026	-0.008381
1776	8.8750e-01	2.2470	-4.347452	0.000385	3.849156	0.652065	-0.007697
1777	8.8800e-01	2.2363	-4.398340	0.000509	5.089440	0.862174	-0.010177
1778	8.8850e-01	2.2281	-4.449227	0.000509	5.089440	0.862174	-0.010177
1779	8.8900e-01	2.2169	-4.492417	0.000432	4.319608	0.731761	-0.008638
1780	8.8950e-01	2.2061	-4.536035	0.000436	4.362377	0.739007	-0.008724
1781	8.9000e-01	2.1964	-4.581791	0.000458	4.576219	0.775232	-0.009151
1782	8.9050e-01	2.1854	-4.627975	0.000462	4.618987	0.782478	-0.009237
1783	8.9100e-01	2.1759	-4.674586	0.000466	4.661756	0.789723	-0.009322
1784	8.9150e-01	2.1664	-4.720342	0.000458	4.576219	0.775232	-0.009151
1785	8.9200e-01	2.1577	-4.768236	0.000479	4.790061	0.811458	-0.009579
1786	8.9250e-01	2.1465	-4.816557	0.000483	4.832829	0.818703	-0.009664
1787	8.9300e-01	2.1387	-4.864451	0.000479	4.790061	0.811458	-0.009579
1788	8.9350e-01	2.1253	-4.905503	0.000411	4.105766	0.695536	-0.008210
1789	8.9400e-01	2.1179	-4.943990	0.000385	3.849156	0.652065	-0.007697
1790	8.9450e-01	2.1069	-4.993167	0.000492	4.918366	0.833194	-0.009835
1791	8.9500e-01	2.0941	-5.043626	0.000505	5.046671	0.854929	-0.010092
1792	8.9550e-01	2.0850	-5.088527	0.000449	4.490682	0.760742	-0.008980
1793	8.9600e-01	2.0784	-5.143263	0.000547	5.474355	0.927381	-0.010947
1794	8.9650e-01	2.0665	-5.179611	0.000364	3.635314	0.615839	-0.007270
1795	8.9700e-01	2.0551	-5.221091	0.000415	4.148535	0.702781	-0.008296
1796	8.9750e-01	2.0468	-5.274972	0.000539	5.388819	0.912891	-0.010776
1797	8.9800e-01	2.0358	-5.319017	0.000441	4.405145	0.746252	-0.008809
1798	8.9850e-01	2.0256	-5.359641	0.000406	4.062998	0.688291	-0.008125
1799	8.9900e-01	2.0184	-5.411384	0.000517	5.174976	0.876665	-0.010349
1800	8.9950e-01	2.0070	-5.461844	0.000505	5.046671	0.854929	-0.010092
1801	9.0000e-01	1.9944	-5.496481	0.000346	3.464240	0.586858	-0.006928
1802	9.0050e-01	1.9867	-5.556349	0.000599	5.987576	1.014323	-0.011974
1803	9.0100e-01	1.9772	-5.600394	0.000441	4.405145	0.746252	-0.008809
1804	9.0150e-01	1.9656	-5.647006	0.000466	4.661756	0.789723	-0.009322
1805	9.0200e-01	1.9562	-5.693189	0.000462	4.618987	0.782478	-0.009237
1806	9.0250e-01	1.9446	-5.738945	0.000458	4.576219	0.775232	-0.009151
1807	9.0300e-01	1.9363	-5.785556	0.000466	4.661756	0.789723	-0.009322
1808	9.0350e-01	1.9267	-5.839865	0.000543	5.431587	0.920136	-0.010862
1809	9.0400e-01	1.9196	-5.878351	0.000385	3.849156	0.652065	-0.007697
1810	9.0450e-01	1.9066	-5.928383	0.000500	5.003903	0.847684	-0.010006
1811	9.0500e-01	1.8945	-5.981409	0.000530	5.303282	0.898400	-0.010605
1812	9.0550e-01	1.8866	-6.027592	0.000462	4.618987	0.782478	-0.009237
1813	9.0600e-01	1.8753	-6.075486	0.000479	4.790061	0.811458	-0.009579
1814	9.0650e-01	1.8662	-6.115683	0.000402	4.020230	0.681045	-0.008039
1815	9.0700e-01	1.8575	-6.172129	0.000565	5.645429	0.956362	-0.011289
1816	9.0750e-01	1.8446	-6.214037	0.000419	4.191303	0.710026	-0.008381
1817	9.0800e-01	1.8369	-6.262786	0.000488	4.875598	0.825949	-0.009750
1818	9.0850e-01	1.8265	-6.308969	0.000462	4.618987	0.782478	-0.009237
1819	9.0900e-01	1.8163	-6.352587	0.000436	4.362377	0.739007	-0.008724
1820	9.0950e-01	1.8054	-6.402619	0.000500	5.003903	0.847684	-0.010006
1821	9.1000e-01	1.7970	-6.451796	0.000492	4.918366	0.833194	-0.009835
1822	9.1050e-01	1.7883	-6.494986	0.000432	4.319608	0.731761	-0.008638
1823	9.1100e-01	1.7775	-6.554426	0.000594	5.944808	1.007078	-0.011888
1824	9.1150e-01	1.7647	-6.589919	0.000355	3.549777	0.601349	-0.007099
1825	9.1200e-01	1.7560	-6.645938	0.000560	5.602661	0.949116	-0.011204
1826	9.1250e-01	1.7458	-6.694687	0.000488	4.875598	0.825949	-0.009750
1827	9.1300e-01	1.7386	-6.743864	0.000492	4.918366	0.833194	-0.009835
1828	9.1350e-01	1.7261	-6.779785	0.000359	3.592546	0.608594	-0.007184
1829	9.1400e-01	1.7166	-6.824258	0.000445	4.447914	0.753497	-0.008895
1830	9.1450e-01	1.7084	-6.884981	0.000607	6.073113	1.028813	-0.012145
1831	9.1500e-01	1.6974	-6.930737	0.000458	4.576219	0.775232	-0.009151
1832	9.1550e-01	1.6853	-6.980769	0.000500	5.003903	0.847684	-0.010006
1833	9.1600e-01	1.6772	-7.019255	0.000385	3.849156	0.652065	-0.007697
1834	9.1650e-01	1.6672	-7.070142	0.000509	5.089440	0.862174	-0.010177
1835	9.1700e-01	1.6554	-7.124023	0.000539	5.388819	0.912891	-0.010776
1836	9.1750e-01	1.6460	-7.169779	0.000458	4.576219	0.775232	-0.009151
1837	9.1800e-01	1.6350	-7.220239	0.000505	5.046671	0.854929	-0.010092
1838	9.1850e-01	1.6270	-7.266850	0.000466	4.661756	0.789723	-0.009322
1839	9.1900e-01	1.6190	-7.312606	0.000458	4.576219	0.775232	-0.009151
1840	9.1950e-01	1.6089	-7.363493	0.000509	5.089440	0.862174	-0.010177
1841	9.2000e-01	1.5990	-7.415664	0.000522	5.217745	0.883910	-0.010434
1842	9.2050e-01	1.5865	-7.467406	0.000517	5.174976	0.876665	-0.010349
1843	9.2100e-01	1.5753	-7.509314	0.000419	4.191303	0.710026	-0.008381
1844	9.2150e-01	1.5668	-7.565760	0.000565	5.645429	0.956362	-0.011289
1845	9.2200e-01	1.5573	-7.614937	0.000492	4.918366	0.833194	-0.009835
1846	9.2250e-01	1.5455	-7.655134	0.000402	4.020230	0.681045	-0.008039
1847	9.2300e-01	1.5366	-7.709442	0.000543	5.431587	0.920136	-0.010862
1848	9.2350e-01	1.5234	-7.749211	0.000398	3.977461	0.673800	-0.007954
1849	9.2400e-01	1.5173	-7.809507	0.000603	6.030345	1.021568	-0.012059
1850	9.2450e-01	1.5065	-7.854407	0.000449	4.490682	0.760742	-0.008980
1851	9.2500e-01	1.4952	-7.900591	0.000462	4.618987	0.782478	-0.009237
1852	9.2550e-01	1.4852	-7.954899	0.000543	5.431587	0.920136	-0.010862
1853	9.2600e-01	1.4745	-8.004076	0.000492	4.918366	0.833194	-0.009835
1854	9.2650e-01	1.4645	-8.048121	0.000441	4.405145	0.746252	-0.008809
1855	9.2700e-01	1.4554	-8.094305	0.000462	4.618987	0.782478	-0.009237
1856	9.2750e-01	1.4476	-8.145620	0.000513	5.132208	0.869420	-0.010263
1857	9.2800e-01	1.4352	-8.201639	0.000560	5.602661	0.949116	-0.011204
1858	9.2850e-01	1.4260	-8.249105	0.000475	4.747292	0.804213	-0.009493
1859	9.2900e-01	1.4151	-8.302559	0.000535	5.346050	0.905645	-0.010691
1860	9.2950e-01	1.4055	-8.352591	0.000500	5.003903	0.847684	-0.010006
1861	9.3000e-01	1.3962	-8.386373	0.000338	3.378704	0.572368	-0.006756
1862	9.3050e-01	1.3857	-8.460352	0.000740	7.398933	1.253413	-0.014796
1863	9.3100e-01	1.3740	-8.489003	0.000287	2.865483	0.485426	-0.005730
1864	9.3150e-01	1.3657	-8.548871	0.000599	5.987576	1.014323	-0.011974
1865	9.3200e-01	1.3550	-8.599758	0.000509	5.089440	0.862174	-0.010177
1866	9.3250e-01	1.3463	-8.642521	0.000428	4.276840	0.724516	-0.008553
1867	9.3300e-01	1.3370	-8.695546	0.000530	5.303282	0.898400	-0.010605
1868	9.3350e-01	1.3264	-8.743868	0.000483	4.832829	0.818703	-0.009664
1869	9.3400e-01	1.3138	-8.792617	0.000488	4.875598	0.825949	-0.009750
1870	9.3450e-01	1.3052	-8.845215	0.000526	5.260513	0.891155	-0.010520
1871	9.3500e-01	1.2946	-8.891826	0.000466	4.661756	0.789723	-0.009322
1872	9.3550e-01	1.2868	-8.945279	0.000535	5.346050	0.905645	-0.010691
1873	9.3600e-01	1.2753	-8.999588	0.000543	5.431587	0.920136	-0.010862
1874	9.3650e-01	1.2648	-9.046199	0.000466	4.661756	0.789723	-0.009322
1875	9.3700e-01	1.2549	-9.097086	0.000509	5.089440	0.862174	-0.010177
1876	9.3750e-01	1.2469	-9.147118	0.000500	5.003903	0.847684	-0.010006
1877	9.3800e-01	1.2331	-9.198006	0.000509	5.089440	0.862174	-0.010177
1878	9.3850e-01	1.2271	-9.248038	0.000500	5.003903	0.847684	-0.010006
1879	9.3900e-01	1.2173	-9.299781	0.000517	5.174976	0.876665	-0.010349
1880	9.3950e-01	1.2067	-9.337839	0.000381	3.806388	0.644820	-0.007612
1881	9.4000e-01	1.1990	-9.396424	0.000586	5.859271	0.992587	-0.011717
1882	9.4050e-01	1.1865	-9.441752	0.000453	4.533450	0.767987	-0.009066
1883	9.4100e-01	1.1780	-9.493067	0.000513	5.132208	0.869420	-0.010263
1884	9.4150e-01	1.1684	-9.549941	0.000569	5.688197	0.963607	-0.011375
1885	9.4200e-01	1.1577	-9.597835	0.000479	4.790061	0.811458	-0.009579
1886	9.4250e-01	1.1472	-9.651289	0.000535	5.346050	0.905645	-0.010691
1887	9.4300e-01	1.1357	-9.701321	0.000500	5.003903	0.847684	-0.010006
1888	9.4350e-01	1.1261	-9.755629	0.000543	5.431587	0.920136	-0.010862
1889	9.4400e-01	1.1151	-9.807799	0.000522	5.217745	0.883910	-0.010434
1890	9.4450e-01	1.1057	-9.860397	0.000526	5.260513	0.891155	-0.010520
1891	9.4500e-01	1.0948	-9.901449	0.000411	4.105766	0.695536	-0.008210
1892	9.4550e-01	1.0851	-9.960034	0.000586	5.859271	0.992587	-0.011717
1893	9.4600e-01	1.0788	-10.008783	0.000488	4.875598	0.825949	-0.009750
1894	9.4650e-01	1.0690	-10.063092	0.000543	5.431587	0.920136	-0.010862
1895	9.4700e-01	1.0579	-10.107992	0.000449	4.490682	0.760742	-0.008980
1896	9.4750e-01	1.0517	-10.161873	0.000539	5.388819	0.912891	-0.010776
1897	9.4800e-01	1.0372	-10.207629	0.000458	4.576219	0.775232	-0.009151
1898	9.4850e-01	1.0258	-10.270490	0.000629	6.286955	1.065039	-0.012572
1899	9.4900e-01	1.0139	-10.321377	0.000509	5.089440	0.862174	-0.010177
1900	9.4950e-01	1.0082	-10.371837	0.000505	5.046671	0.854929	-0.010092
1901	9.5000e-01	0.9946	-10.424008	0.000522	5.217745	0.883910	-0.010434
1902	9.5050e-01	0.9848	-10.471474	0.000475	4.747292	0.804213	-0.009493
1903	9.5100e-01	0.9780	-10.529203	0.000577	5.773734	0.978097	-0.011546
1904	9.5150e-01	0.9662	-10.575387	0.000462	4.618987	0.782478	-0.009237
1905	9.5200e-01	0.9562	-10.626274	0.000509	5.089440	0.862174	-0.010177
1906	9.5250e-01	0.9473	-10.684004	0.000577	5.773734	0.978097	-0.011546
1907	9.5300e-01	0.9381	-10.731898	0.000479	4.790061	0.811458	-0.009579
1908	9.5350e-01	0.9263	-10.786634	0.000547	5.474355	0.927381	-0.010947
1909	9.5400e-01	0.9144	-10.836666	0.000500	5.003903	0.847684	-0.010006
1910	9.5450e-01	0.9052	-10.884988	0.000483	4.832829	0.818703	-0.009664
1911	9.5500e-01	0.8968	-10.941434	0.000565	5.645429	0.956362	-0.011289
1912	9.5550e-01	0.8841	-10.993177	0.000517	5.174976	0.876665	-0.010349
1913	9.5600e-01	0.8778	-11.036367	0.000432	4.319608	0.731761	-0.008638
1914	9.5650e-01	0.8633	-11.094524	0.000582	5.816503	0.985342	-0.011631
1915	9.5700e-01	0.8516	-11.144984	0.000505	5.046671	0.854929	-0.010092
1916	9.5750e-01	0.8475	-11.199720	0.000547	5.474355	0.927381	-0.010947
1917	9.5800e-01	0.8398	-11.250180	0.000505	5.046671	0.854929	-0.010092
1918	9.5850e-01	0.8254	-11.297646	0.000475	4.747292	0.804213	-0.009493
1919	9.5900e-01	0.8187	-11.357941	0.000603	6.030345	1.021568	-0.012059
1920	9.5950e-01	0.8045	-11.408401	0.000505	5.046671	0.854929	-0.010092
1921	9.6000e-01	0.7956	-11.461426	0.000530	5.303282	0.898400	-0.010605
1922	9.6050e-01	0.7876	-11.517873	0.000565	5.645429	0.956362	-0.011289
1923	9.6100e-01	0.7756	-11.568333	0.000505	5.046671	0.854929	-0.010092
1924	9.6150e-01	0.7664	-11.622214	0.000539	5.388819	0.912891	-0.010776
1925	9.6200e-01	0.7571	-11.676950	0.000547	5.474355	0.927381	-0.010947
1926	9.6250e-01	0.7422	-11.719712	0.000428	4.276840	0.724516	-0.008553
1927	9.6300e-01	0.7363	-11.786422	0.000667	6.671871	1.130245	-0.013342
1928	9.6350e-01	0.7257	-11.838164	0.000517	5.174976	0.876665	-0.010349
1929	9.6400e-01	0.7152	-11.882210	0.000441	4.405145	0.746252	-0.008809
1930	9.6450e-01	0.7050	-11.948919	0.000667	6.671871	1.130245	-0.013342
1931	9.6500e-01	0.6949	-11.995958	0.000470	4.704524	0.796968	-0.009408
1932	9.6550e-01	0.6870	-12.039576	0.000436	4.362377	0.739007	-0.008724
1933	9.6600e-01	0.6785	-12.103292	0.000637	6.372492	1.079529	-0.012743
1934	9.6650e-01	0.6657	-12.158883	0.000556	5.559892	0.941871	-0.011118
1935	9.6700e-01	0.6556	-12.207633	0.000488	4.875598	0.825949	-0.009750
1936	9.6750e-01	0.6454	-12.259803	0.000522	5.217745	0.883910	-0.010434
1937	9.6800e-01	0.6366	-12.321808	0.000620	6.201418	1.050549	-0.012401
1938	9.6850e-01	0.6280	-12.368847	0.000470	4.704524	0.796968	-0.009408
1939	9.6900e-01	0.6165	-12.418452	0.000496	4.961134	0.840439	-0.009921
1940	9.6950e-01	0.6071	-12.470622	0.000522	5.217745	0.883910	-0.010434
1941	9.7000e-01	0.5959	-12.524930	0.000543	5.431587	0.920136	-0.010862
1942	9.7050e-01	0.5867	-12.584798	0.000599	5.987576	1.014323	-0.011974
1943	9.7100e-01	0.5762	-12.636113	0.000513	5.132208	0.869420	-0.010263
1944	9.7150e-01	0.5657	-12.682724	0.000466	4.661756	0.789723	-0.009322
1945	9.7200e-01	0.5531	-12.746868	0.000642	6.415260	1.086774	-0.012829
1946	9.7250e-01	0.5495	-12.798183	0.000513	5.132208	0.869420	-0.010263
1947	9.7300e-01	0.5359	-12.846932	0.000488	4.875598	0.825949	-0.009750
1948	9.7350e-01	0.5251	-12.903379	0.000565	5.645429	0.956362	-0.011289
1949	9.7400e-01	0.5138	-12.952556	0.000492	4.918366	0.833194	-0.009835
1950	9.7450e-01	0.5070	-13.012851	0.000603	6.030345	1.021568	-0.012059
1951	9.7500e-01	0.4945	-13.065876	0.000530	5.303282	0.898400	-0.010605
1952	9.7550e-01	0.4874	-13.126172	0.000603	6.030345	1.021568	-0.012059
1953	9.7600e-01	0.4763	-13.176631	0.000505	5.046671	0.854929	-0.010092
1954	9.7650e-01	0.4646	-13.219394	0.000428	4.276840	0.724516	-0.008553
1955	9.7700e-01	0.4575	-13.280544	0.000612	6.115881	1.036058	-0.012230
1956	9.7750e-01	0.4467	-13.336991	0.000565	5.645429	0.956362	-0.011289
1957	9.7800e-01	0.4380	-13.388734	0.000517	5.174976	0.876665	-0.010349
1958	9.7850e-01	0.4275	-13.446035	0.000573	5.730966	0.970852	-0.011460
1959	9.7900e-01	0.4193	-13.511462	0.000654	6.543565	1.108510	-0.013085
1960	9.7950e-01	0.4056	-13.558073	0.000466	4.661756	0.789723	-0.009322
1961	9.8000e-01	0.4001	-13.611099	0.000530	5.303282	0.898400	-0.010605
1962	9.8050e-01	0.3856	-13.670111	0.000590	5.902039	0.999833	-0.011802
1963	9.8100e-01	0.3761	-13.724419	0.000543	5.431587	0.920136	-0.010862
1964	9.8150e-01	0.3648	-13.780011	0.000556	5.559892	0.941871	-0.011118
1965	9.8200e-01	0.3584	-13.836885	0.000569	5.688197	0.963607	-0.011375
1966	9.8250e-01	0.3469	-13.891193	0.000543	5.431587	0.920136	-0.010862
1967	9.8300e-01	0.3360	-13.942508	0.000513	5.132208	0.869420	-0.010263
1968	9.8350e-01	0.3267	-14.000665	0.000582	5.816503	0.985342	-0.011631
1969	9.8400e-01	0.3170	-14.048559	0.000479	4.790061	0.811458	-0.009579
1970	9.8450e-01	0.3056	-14.105433	0.000569	5.688197	0.963607	-0.011375
1971	9.8500e-01	0.2953	-14.164018	0.000586	5.859271	0.992587	-0.011717
1972	9.8550e-01	0.2831	-14.219609	0.000556	5.559892	0.941871	-0.011118
1973	9.8600e-01	0.2768	-14.273063	0.000535	5.346050	0.905645	-0.010691
1974	9.8650e-01	0.2648	-14.330364	0.000573	5.730966	0.970852	-0.011460
1975	9.8700e-01	0.2546	-14.379114	0.000488	4.875598	0.825949	-0.009750
1976	9.8750e-01	0.2477	-14.439836	0.000607	6.073113	1.028813	-0.012145
1977	9.8800e-01	0.2369	-14.491579	0.000517	5.174976	0.876665	-0.010349
1978	9.8850e-01	0.2266	-14.553585	0.000620	6.201418	1.050549	-0.012401
1979	9.8900e-01	0.2161	-14.603617	0.000500	5.003903	0.847684	-0.010006
1980	9.8950e-01	0.2058	-14.661346	0.000577	5.773734	0.978097	-0.011546
1981	9.9000e-01	0.1973	-14.715655	0.000543	5.431587	0.920136	-0.010862
1982	9.9050e-01	0.1868	-14.770818	0.000552	5.517124	0.934626	-0.011033
1983	9.9100e-01	0.1782	-14.834962	0.000642	6.415260	1.086774	-0.012829
1984	9.9150e-01	0.1669	-14.884139	0.000492	4.918366	0.833194	-0.009835
1985	9.9200e-01	0.1542	-14.932033	0.000479	4.790061	0.811458	-0.009579
1986	9.9250e-01	0.1456	-14.998315	0.000663	6.629102	1.123000	-0.013256
1987	9.9300e-01	0.1351	-15.038939	0.000406	4.062998	0.688291	-0.008125
1988	9.9350e-01	0.1262	-15.101800	0.000629	6.286955	1.065039	-0.012572
1989	9.9400e-01	0.1162	-15.160385	0.000586	5.859271	0.992587	-0.011717
1990	9.9450e-01	0.1058	-15.226239	0.000659	6.586334	1.115755	-0.013171
1991	9.9500e-01	0.0966	-15.275416	0.000492	4.918366	0.833194	-0.009835
1992	9.9550e-01	0.0880	-15.333146	0.000577	5.773734	0.978097	-0.011546
1993	9.9600e-01	0.0775	-15.385316	0.000522	5.217745	0.883910	-0.010434
1994	9.9650e-01	0.0665	-15.446894	0.000616	6.158650	1.043304	-0.012316
1995	9.9700e-01	0.0561	-15.501202	0.000543	5.431587	0.920136	-0.010862
1996	9.9750e-01	0.0434	-15.553373	0.000522	5.217745	0.883910	-0.010434
1997	9.9800e-01	0.0358	-15.615806	0.000624	6.244187	1.057794	-0.012487
1998	9.9850e-01	0.0259	-15.667976	0.000522	5.217745	0.883910	-0.010434
1999	9.9900e-01	0.0169	-15.729554	0.000616	6.158650	1.043304	-0.012316
2000	9.9950e-01	0.0060	-15.777876	0.000483	4.832829	0.818703	-0.009664
2001	1.0000e+00	-0.0039	-15.834322	0.000483	4.832829	0.818703	-0.011289

PMax (uC/cm2):	4.07e+01
Pr (uC/cm2):	4.53e+00
-Pr (uC/cm2):	0.00e+00
PLoss (uC/cm2):	0.00e+00
C (Max-Eff) (nF):	4.08e-01
K (Eff):	6.90e+02
Vert. (+/-Pr) Shift (uC/cm2):	2.27e+00
Offset (uC/cm2):	2.04e+01

A (Loop Area - uC/cm2·Volts):	-4.60e-02



Hysteresis Version: 5.48.1 - Radiant Technologies, Inc., 1999 - 9/12/24

