»»»»»»»»»»»»»»»»»»»»»»»»»»»»»»»»»»»» Hysteresis ««««««««««««««««««««««««««««««««««««
»»»  Executed Version:	5.48.1
»»»  Vision Version:	5.48.4 (R)
»»»  Vision Compiled:	9/18/24
»»»  Driver Version:	5.47.0
»»»  Windows Version:	Windows 8 or 8.1
»»»  Processor Information:	x86 (AMD or Intel) - 32 Processors
»»»  Tester Name:	PMF21124-494 (100V)
»»»  Tester S/N:	PMF21124-494
»»»  Internal Amp Type:	100V RevK 270k
»»»  Internal Amp S/N:	iAB2-596/K     
»»»  Execution Count:	1
»»»»»»»»»»»»»»»»»»»»»»»»»»»»»»»»»»»»»»»»»»««««««««««««««««««««««««««««««««««««««««««

Stored:	6/25/2025 - 15:29:50
Configured:	06/25/25 10:44:40 AM
Executed:	06/25/25 03:29:26 PM

»»»»»»»»»»»»»»»»»»»»»»»»»»»»»»»»»»» Sample Info ««««««««««««««««««««««««««««««««««««
Sample Name:	
Lot Name:	
Wafer Name:	
Die Row/Column:	0/0
Capacitor Number:	0
Sample Area (cm2):	1.00e-04
Sample Thickness (microns):	1.50e-01

Amplifier:	Internal

»»»»»»»»»»»»»»»»»»»»»»»»»»»»»»»»»»» Tester Info «««««««««««««««««««««««««««««««««««
Tester Name:	PMF21124-494 (100V)
Tester Serial Number:	PMF21124-494
Return Signal Amp. Level:	1.79 [Index: 2]

»»»»»»»»»»»»»»»»»»»»»»»»»»»»»»»» Hysteresis Info ««««««««««««««««««««««««««««««««««
Task Name:	Hyst-116
Volts:	10.00
Field:	666.67 (kV/cm)
DCBias:	0.00
DCField:	0.00 (kV/cm)
Hysteresis Period (ms):	1.00e+00
Preset:	Enabled
Preset Delay (ms):	1.00e+03
Profile:	Standard Monopolar

»»»»»»»»»»»»»»»»»»»»»»»»»»»»»»»»»»»»»» Data «««««««««««««««««««««««««««««««««««««««
Points:	2001

Valid Data

Point	Time (ms)	Drive Voltage	Measured Polarization (uC/cm2)	Capacitance (uF)	Normalized Capacitance (uF/cm2)	Dielectric Constant	Instantaneous Current (mA)
   1	0.0000e+00	-0.0056	-17.455236	0.000458	4.576236	0.775235	0.009151
   2	5.0000e-04	0.0077	-17.409480	0.000458	4.576236	0.775235	0.009151
   3	1.0000e-03	0.0144	-17.362014	0.000475	4.747311	0.804216	0.009493
   4	1.5000e-03	0.0251	-17.300008	0.000620	6.201442	1.050553	0.012401
   5	2.0000e-03	0.0359	-17.268364	0.000316	3.164874	0.536144	0.006329
   6	2.5000e-03	0.0444	-17.210634	0.000577	5.773756	0.978101	0.011546
   7	3.0000e-03	0.0562	-17.167872	0.000428	4.276856	0.724519	0.008553
   8	3.5000e-03	0.0659	-17.131951	0.000359	3.592559	0.608596	0.007184
   9	4.0000e-03	0.0773	-17.073367	0.000586	5.859293	0.992591	0.011717
  10	4.5000e-03	0.0871	-17.027183	0.000462	4.619005	0.782481	0.009237
  11	5.0000e-03	0.0957	-16.978434	0.000488	4.875616	0.825952	0.009750
  12	5.5000e-03	0.1046	-16.934389	0.000441	4.405162	0.746255	0.008809
  13	6.0000e-03	0.1183	-16.897185	0.000372	3.720865	0.630332	0.007441
  14	6.5000e-03	0.1237	-16.835179	0.000620	6.201442	1.050553	0.012401
  15	7.0000e-03	0.1359	-16.800114	0.000351	3.507022	0.594106	0.007013
  16	7.5000e-03	0.1467	-16.747089	0.000530	5.303302	0.898404	0.010605
  17	8.0000e-03	0.1553	-16.698767	0.000483	4.832848	0.818707	0.009664
  18	8.5000e-03	0.1653	-16.658570	0.000402	4.020245	0.681048	0.008039
  19	9.0000e-03	0.1751	-16.605972	0.000526	5.260533	0.891158	0.010520
  20	9.5000e-03	0.1833	-16.575611	0.000304	3.036568	0.514409	0.006072
  21	1.0000e-02	0.1952	-16.510612	0.000650	6.500822	1.101269	0.013000
  22	1.0500e-02	0.2055	-16.465284	0.000453	4.533468	0.767990	0.009066
  23	1.1000e-02	0.2158	-16.420383	0.000449	4.490699	0.760745	0.008980
  24	1.1500e-02	0.2253	-16.375482	0.000449	4.490699	0.760745	0.008980
  25	1.2000e-02	0.2347	-16.324595	0.000509	5.089459	0.862178	0.010177
  26	1.2500e-02	0.2449	-16.277556	0.000470	4.704542	0.796971	0.009408
  27	1.3000e-02	0.2554	-16.224103	0.000535	5.346070	0.905649	0.010691
  28	1.3500e-02	0.2660	-16.182623	0.000415	4.148551	0.702784	0.008296
  29	1.4000e-02	0.2771	-16.132163	0.000505	5.046691	0.854933	0.010092
  30	1.4500e-02	0.2853	-16.083842	0.000483	4.832848	0.818707	0.009664
  31	1.5000e-02	0.2944	-16.039796	0.000441	4.405162	0.746255	0.008809
  32	1.5500e-02	0.3073	-16.002165	0.000376	3.763634	0.637577	0.007526
  33	1.6000e-02	0.3154	-15.962396	0.000398	3.977476	0.673803	0.007954
  34	1.6500e-02	0.3239	-15.905950	0.000565	5.645450	0.956365	0.011289
  35	1.7000e-02	0.3347	-15.865753	0.000402	4.020245	0.681048	0.008039
  36	1.7500e-02	0.3462	-15.806313	0.000594	5.944830	1.007082	0.011888
  37	1.8000e-02	0.3558	-15.759702	0.000466	4.661773	0.789726	0.009322
  38	1.8500e-02	0.3654	-15.712663	0.000470	4.704542	0.796971	0.009408
  39	1.9000e-02	0.3747	-15.673322	0.000393	3.934708	0.666558	0.007868
  40	1.9500e-02	0.3840	-15.619868	0.000535	5.346070	0.905649	0.010691
  41	2.0000e-02	0.3951	-15.573257	0.000466	4.661773	0.789726	0.009322
  42	2.0500e-02	0.4058	-15.527929	0.000453	4.533468	0.767990	0.009066
  43	2.1000e-02	0.4144	-15.490726	0.000372	3.720865	0.630332	0.007441
  44	2.1500e-02	0.4279	-15.435134	0.000556	5.559913	0.941875	0.011118
  45	2.2000e-02	0.4350	-15.381254	0.000539	5.388839	0.912894	0.010776
  46	2.2500e-02	0.4462	-15.333359	0.000479	4.790079	0.811461	0.009579
  47	2.3000e-02	0.4559	-15.298722	0.000346	3.464254	0.586860	0.006928
  48	2.3500e-02	0.4658	-15.245269	0.000535	5.346070	0.905649	0.010691
  49	2.4000e-02	0.4774	-15.195664	0.000496	4.961153	0.840442	0.009921
  50	2.4500e-02	0.4867	-15.160171	0.000355	3.549791	0.601351	0.007099
  51	2.5000e-02	0.4955	-15.106290	0.000539	5.388839	0.912894	0.010776
  52	2.5500e-02	0.5035	-15.072936	0.000334	3.335948	0.565125	0.006671
  53	2.6000e-02	0.5149	-14.990404	0.000825	8.254333	1.398322	0.016506
  54	2.6500e-02	0.5242	-14.972016	0.000184	1.839048	0.311543	0.003678
  55	2.7000e-02	0.5386	-14.913859	0.000582	5.816525	0.985346	0.011631
  56	2.7500e-02	0.5459	-14.877083	0.000368	3.678097	0.623086	0.007355
  57	2.8000e-02	0.5569	-14.829189	0.000479	4.790079	0.811461	0.009579
  58	2.8500e-02	0.5647	-14.773598	0.000556	5.559913	0.941875	0.011118
  59	2.9000e-02	0.5763	-14.744092	0.000295	2.951031	0.499918	0.005901
  60	2.9500e-02	0.5854	-14.689356	0.000547	5.474376	0.927384	0.010947
  61	3.0000e-02	0.5937	-14.646166	0.000432	4.319625	0.731764	0.008638
  62	3.0500e-02	0.6044	-14.593995	0.000522	5.217765	0.883913	0.010434
  63	3.1000e-02	0.6153	-14.562779	0.000312	3.122105	0.528899	0.006243
  64	3.1500e-02	0.6261	-14.519161	0.000436	4.362394	0.739009	0.008724
  65	3.2000e-02	0.6357	-14.466135	0.000530	5.303302	0.898404	0.010605
  66	3.2500e-02	0.6438	-14.412255	0.000539	5.388839	0.912894	0.010776
  67	3.3000e-02	0.6558	-14.377189	0.000351	3.507022	0.594106	0.007013
  68	3.3500e-02	0.6679	-14.315184	0.000620	6.201442	1.050553	0.012401
  69	3.4000e-02	0.6766	-14.284822	0.000304	3.036568	0.514409	0.006072
  70	3.4500e-02	0.6870	-14.244626	0.000402	4.020245	0.681048	0.008039
  71	3.5000e-02	0.6941	-14.199297	0.000453	4.533468	0.767990	0.009066
  72	3.5500e-02	0.7074	-14.145416	0.000539	5.388839	0.912894	0.010776
  73	3.6000e-02	0.7187	-14.112062	0.000334	3.335948	0.565125	0.006671
  74	3.6500e-02	0.7266	-14.058181	0.000539	5.388839	0.912894	0.010776
  75	3.7000e-02	0.7357	-14.012425	0.000458	4.576236	0.775235	0.009151
  76	3.7500e-02	0.7462	-13.961538	0.000509	5.089459	0.862178	0.010177
  77	3.8000e-02	0.7556	-13.918775	0.000428	4.276856	0.724519	0.008553
  78	3.8500e-02	0.7674	-13.869171	0.000496	4.961153	0.840442	0.009921
  79	3.9000e-02	0.7766	-13.831540	0.000376	3.763634	0.637577	0.007526
  80	3.9500e-02	0.7855	-13.780224	0.000513	5.132228	0.869423	0.010263
  81	4.0000e-02	0.7963	-13.729765	0.000505	5.046691	0.854933	0.010092
  82	4.0500e-02	0.8049	-13.689568	0.000402	4.020245	0.681048	0.008039
  83	4.1000e-02	0.8156	-13.630556	0.000590	5.902062	0.999836	0.011802
  84	4.1500e-02	0.8253	-13.596346	0.000342	3.421485	0.579615	0.006842
  85	4.2000e-02	0.8359	-13.555721	0.000406	4.063014	0.688293	0.008125
  86	4.2500e-02	0.8472	-13.496281	0.000594	5.944830	1.007082	0.011888
  87	4.3000e-02	0.8542	-13.448815	0.000475	4.747311	0.804216	0.009493
  88	4.3500e-02	0.8662	-13.407763	0.000411	4.105782	0.695538	0.008210
  89	4.4000e-02	0.8777	-13.362007	0.000458	4.576236	0.775235	0.009151
  90	4.4500e-02	0.8907	-13.319244	0.000428	4.276856	0.724519	0.008553
  91	4.5000e-02	0.8982	-13.282896	0.000364	3.635328	0.615841	0.007270
  92	4.5500e-02	0.9052	-13.226877	0.000560	5.602682	0.949120	0.011204
  93	4.6000e-02	0.9140	-13.179839	0.000470	4.704542	0.796971	0.009408
  94	4.6500e-02	0.9264	-13.143490	0.000364	3.635328	0.615841	0.007270
  95	4.7000e-02	0.9363	-13.088327	0.000552	5.517145	0.934630	0.011033
  96	4.7500e-02	0.9472	-13.064380	0.000240	2.395040	0.405731	0.004789
  97	4.8000e-02	0.9557	-13.017769	0.000466	4.661773	0.789726	0.009322
  98	4.8500e-02	0.9659	-12.960039	0.000577	5.773756	0.978101	0.011546
  99	4.9000e-02	0.9763	-12.924546	0.000355	3.549791	0.601351	0.007099
 100	4.9500e-02	0.9850	-12.879218	0.000453	4.533468	0.767990	0.009066
 101	5.0000e-02	0.9948	-12.825765	0.000535	5.346070	0.905649	0.010691
 102	5.0500e-02	1.0075	-12.783858	0.000419	4.191319	0.710029	0.008381
 103	5.1000e-02	1.0156	-12.736819	0.000470	4.704542	0.796971	0.009408
 104	5.1500e-02	1.0260	-12.698760	0.000381	3.806402	0.644822	0.007612
 105	5.2000e-02	1.0371	-12.657708	0.000411	4.105782	0.695538	0.008210
 106	5.2500e-02	1.0450	-12.609814	0.000479	4.790079	0.811461	0.009579
 107	5.3000e-02	1.0544	-12.568762	0.000411	4.105782	0.695538	0.008210
 108	5.3500e-02	1.0653	-12.518302	0.000505	5.046691	0.854933	0.010092
 109	5.4000e-02	1.0758	-12.462283	0.000560	5.602682	0.949120	0.011204
 110	5.4500e-02	1.0870	-12.418238	0.000441	4.405162	0.746255	0.008809
 111	5.5000e-02	1.0976	-12.381462	0.000368	3.678097	0.623086	0.007355
 112	5.5500e-02	1.1053	-12.343831	0.000376	3.763634	0.637577	0.007526
 113	5.6000e-02	1.1137	-12.288668	0.000552	5.517145	0.934630	0.011033
 114	5.6500e-02	1.1271	-12.239918	0.000488	4.875616	0.825952	0.009750
 115	5.7000e-02	1.1362	-12.201860	0.000381	3.806402	0.644822	0.007612
 116	5.7500e-02	1.1441	-12.156104	0.000458	4.576236	0.775235	0.009151
 117	5.8000e-02	1.1559	-12.110348	0.000458	4.576236	0.775235	0.009151
 118	5.8500e-02	1.1681	-12.076138	0.000342	3.421485	0.579615	0.006842
 119	5.9000e-02	1.1749	-12.025678	0.000505	5.046691	0.854933	0.010092
 120	5.9500e-02	1.1870	-11.980350	0.000453	4.533468	0.767990	0.009066
 121	6.0000e-02	1.1974	-11.944002	0.000364	3.635328	0.615841	0.007270
 122	6.0500e-02	1.2044	-11.876009	0.000680	6.800202	1.151985	0.013598
 123	6.1000e-02	1.2146	-11.859332	0.000167	1.667974	0.282562	0.003335
 124	6.1500e-02	1.2268	-11.805023	0.000543	5.431608	0.920139	0.010862
 125	6.2000e-02	1.2370	-11.772951	0.000321	3.207642	0.543389	0.006414
 126	6.2500e-02	1.2428	-11.714794	0.000582	5.816525	0.985346	0.011631
 127	6.3000e-02	1.2559	-11.666473	0.000483	4.832848	0.818707	0.009664
 128	6.3500e-02	1.2665	-11.622427	0.000441	4.405162	0.746255	0.008809
 129	6.4000e-02	1.2741	-11.591638	0.000308	3.079337	0.521654	0.006158
 130	6.4500e-02	1.2866	-11.541179	0.000505	5.046691	0.854933	0.010092
 131	6.5000e-02	1.2934	-11.496706	0.000445	4.447931	0.753500	0.008895
 132	6.5500e-02	1.3039	-11.451805	0.000449	4.490699	0.760745	0.008980
 133	6.6000e-02	1.3159	-11.413319	0.000385	3.849171	0.652067	0.007697
 134	6.6500e-02	1.3248	-11.362004	0.000513	5.132228	0.869423	0.010263
 135	6.7000e-02	1.3367	-11.324373	0.000376	3.763634	0.637577	0.007526
 136	6.7500e-02	1.3434	-11.271775	0.000526	5.260533	0.891158	0.010520
 137	6.8000e-02	1.3552	-11.239703	0.000321	3.207642	0.543389	0.006414
 138	6.8500e-02	1.3642	-11.186250	0.000535	5.346070	0.905649	0.010691
 139	6.9000e-02	1.3765	-11.155888	0.000304	3.036568	0.514409	0.006072
 140	6.9500e-02	1.3874	-11.100725	0.000552	5.517145	0.934630	0.011033
 141	7.0000e-02	1.3965	-11.063521	0.000372	3.720865	0.630332	0.007441
 142	7.0500e-02	1.4050	-11.028883	0.000346	3.464254	0.586860	0.006928
 143	7.1000e-02	1.4152	-10.969444	0.000594	5.944830	1.007082	0.011888
 144	7.1500e-02	1.4261	-10.930530	0.000389	3.891939	0.659312	0.007783
 145	7.2000e-02	1.4376	-10.897175	0.000334	3.335948	0.565125	0.006671
 146	7.2500e-02	1.4471	-10.847143	0.000500	5.003922	0.847687	0.010006
 147	7.3000e-02	1.4523	-10.808229	0.000389	3.891939	0.659312	0.007783
 148	7.3500e-02	1.4700	-10.737671	0.000706	7.056813	1.195456	0.014112
 149	7.4000e-02	1.4750	-10.708592	0.000291	2.908262	0.492673	0.005816
 150	7.4500e-02	1.4867	-10.662836	0.000458	4.576236	0.775235	0.009151
 151	7.5000e-02	1.4967	-10.622639	0.000402	4.020245	0.681048	0.008039
 152	7.5500e-02	1.5050	-10.593133	0.000295	2.951031	0.499918	0.005901
 153	7.6000e-02	1.5164	-10.546522	0.000466	4.661773	0.789726	0.009322
 154	7.6500e-02	1.5253	-10.510174	0.000364	3.635328	0.615841	0.007270
 155	7.7000e-02	1.5388	-10.447313	0.000629	6.286979	1.065043	0.012572
 156	7.7500e-02	1.5462	-10.417379	0.000299	2.993799	0.507163	0.005987
 157	7.8000e-02	1.5559	-10.357939	0.000594	5.944830	1.007082	0.011888
 158	7.8500e-02	1.5634	-10.319881	0.000381	3.806402	0.644822	0.007612
 159	7.9000e-02	1.5757	-10.289519	0.000304	3.036568	0.514409	0.006072
 160	7.9500e-02	1.5836	-10.225376	0.000642	6.415285	1.086779	0.012829
 161	8.0000e-02	1.5991	-10.203994	0.000214	2.138428	0.362260	0.004276
 162	8.0500e-02	1.6069	-10.158238	0.000458	4.576236	0.775235	0.009151
 163	8.1000e-02	1.6150	-10.104785	0.000535	5.346070	0.905649	0.010691
 164	8.1500e-02	1.6251	-10.063306	0.000415	4.148551	0.702784	0.008296
 165	8.2000e-02	1.6360	-10.015839	0.000475	4.747311	0.804216	0.009493
 166	8.2500e-02	1.6479	-9.968373	0.000475	4.747311	0.804216	0.009493
 167	8.3000e-02	1.6569	-9.940150	0.000282	2.822725	0.478183	0.005645
 168	8.3500e-02	1.6647	-9.892683	0.000475	4.747311	0.804216	0.009493
 169	8.4000e-02	1.6768	-9.850776	0.000419	4.191319	0.710029	0.008381
 170	8.4500e-02	1.6852	-9.799461	0.000513	5.132228	0.869423	0.010263
 171	8.5000e-02	1.6946	-9.775941	0.000235	2.352271	0.398485	0.004704
 172	8.5500e-02	1.7050	-9.715646	0.000603	6.030368	1.021572	0.012059
 173	8.6000e-02	1.7159	-9.669035	0.000466	4.661773	0.789726	0.009322
 174	8.6500e-02	1.7260	-9.643805	0.000252	2.523345	0.427466	0.005046
 175	8.7000e-02	1.7358	-9.602326	0.000415	4.148551	0.702784	0.008296
 176	8.7500e-02	1.7455	-9.564695	0.000376	3.763634	0.637577	0.007526
 177	8.8000e-02	1.7568	-9.504399	0.000603	6.030368	1.021572	0.012059
 178	8.8500e-02	1.7682	-9.464203	0.000402	4.020245	0.681048	0.008039
 179	8.9000e-02	1.7740	-9.418019	0.000462	4.619005	0.782481	0.009237
 180	8.9500e-02	1.7859	-9.390651	0.000274	2.737188	0.463692	0.005474
 181	9.0000e-02	1.7969	-9.339764	0.000509	5.089459	0.862178	0.010177
 182	9.0500e-02	1.8068	-9.305126	0.000346	3.464254	0.586860	0.006928
 183	9.1000e-02	1.8176	-9.262791	0.000423	4.234088	0.717274	0.008467
 184	9.1500e-02	1.8286	-9.217890	0.000449	4.490699	0.760745	0.008980
 185	9.2000e-02	1.8361	-9.163154	0.000547	5.474376	0.927384	0.010947
 186	9.2500e-02	1.8433	-9.132793	0.000304	3.036568	0.514409	0.006072
 187	9.3000e-02	1.8579	-9.082761	0.000500	5.003922	0.847687	0.010006
 188	9.3500e-02	1.8661	-9.043419	0.000393	3.934708	0.666558	0.007868
 189	9.4000e-02	1.8735	-8.981841	0.000616	6.158673	1.043307	0.012316
 190	9.4500e-02	1.8848	-8.951907	0.000299	2.993799	0.507163	0.005987
 191	9.5000e-02	1.8977	-8.921118	0.000308	3.079337	0.521654	0.006158
 192	9.5500e-02	1.9070	-8.871942	0.000492	4.918385	0.833197	0.009835
 193	9.6000e-02	1.9180	-8.846712	0.000252	2.523345	0.427466	0.005046
 194	9.6500e-02	1.9263	-8.803522	0.000432	4.319625	0.731764	0.008638
 195	9.7000e-02	1.9354	-8.751779	0.000517	5.174996	0.876668	0.010349
 196	9.7500e-02	1.9448	-8.714148	0.000376	3.763634	0.637577	0.007526
 197	9.8000e-02	1.9559	-8.662833	0.000513	5.132228	0.869423	0.010263
 198	9.8500e-02	1.9654	-8.624774	0.000381	3.806402	0.644822	0.007612
 199	9.9000e-02	1.9751	-8.591847	0.000329	3.293179	0.557880	0.006585
 200	9.9500e-02	1.9855	-8.537539	0.000543	5.431608	0.920139	0.010862
 201	1.0000e-01	1.9980	-8.513164	0.000244	2.437808	0.412976	0.004875
 202	1.0050e-01	2.0026	-8.446882	0.000663	6.629127	1.123005	0.013256
 203	1.0100e-01	2.0170	-8.410534	0.000364	3.635328	0.615841	0.007270
 204	1.0150e-01	2.0263	-8.373331	0.000372	3.720865	0.630332	0.007441
 205	1.0200e-01	2.0358	-8.333989	0.000393	3.934708	0.666558	0.007868
 206	1.0250e-01	2.0444	-8.288661	0.000453	4.533468	0.767990	0.009066
 207	1.0300e-01	2.0546	-8.247609	0.000411	4.105782	0.695538	0.008210
 208	1.0350e-01	2.0661	-8.211261	0.000364	3.635328	0.615841	0.007270
 209	1.0400e-01	2.0770	-8.171064	0.000402	4.020245	0.681048	0.008039
 210	1.0450e-01	2.0861	-8.124025	0.000470	4.704542	0.796971	0.009408
 211	1.0500e-01	2.0958	-8.086822	0.000372	3.720865	0.630332	0.007441
 212	1.0550e-01	2.1078	-8.031658	0.000552	5.517145	0.934630	0.011033
 213	1.0600e-01	2.1147	-8.005573	0.000261	2.608882	0.441957	0.005217
 214	1.0650e-01	2.1257	-7.966231	0.000393	3.934708	0.666558	0.007868
 215	1.0700e-01	2.1347	-7.924324	0.000419	4.191319	0.710029	0.008381
 216	1.0750e-01	2.1436	-7.877713	0.000466	4.661773	0.789726	0.009322
 217	1.0800e-01	2.1559	-7.843930	0.000338	3.378717	0.572370	0.006756
 218	1.0850e-01	2.1661	-7.801168	0.000428	4.276856	0.724519	0.008553
 219	1.0900e-01	2.1744	-7.746859	0.000543	5.431608	0.920139	0.010862
 220	1.0950e-01	2.1878	-7.713932	0.000329	3.293179	0.557880	0.006585
 221	1.1000e-01	2.1983	-7.665183	0.000488	4.875616	0.825952	0.009750
 222	1.1050e-01	2.2063	-7.622421	0.000428	4.276856	0.724519	0.008553
 223	1.1100e-01	2.2158	-7.598474	0.000240	2.395040	0.405731	0.004789
 224	1.1150e-01	2.2260	-7.555711	0.000428	4.276856	0.724519	0.008553
 225	1.1200e-01	2.2350	-7.497554	0.000582	5.816525	0.985346	0.011631
 226	1.1250e-01	2.2456	-7.456502	0.000411	4.105782	0.695538	0.008210
 227	1.1300e-01	2.2569	-7.434265	0.000222	2.223965	0.376750	0.004447
 228	1.1350e-01	2.2652	-7.392786	0.000415	4.148551	0.702784	0.008296
 229	1.1400e-01	2.2760	-7.326931	0.000659	6.586359	1.115759	0.013171
 230	1.1450e-01	2.2870	-7.308116	0.000188	1.881817	0.318788	0.003763
 231	1.1500e-01	2.2940	-7.262788	0.000453	4.533468	0.767990	0.009066
 232	1.1550e-01	2.3071	-7.222591	0.000402	4.020245	0.681048	0.008039
 233	1.1600e-01	2.3169	-7.177263	0.000453	4.533468	0.767990	0.009066
 234	1.1650e-01	2.3253	-7.135355	0.000419	4.191319	0.710029	0.008381
 235	1.1700e-01	2.3370	-7.090455	0.000449	4.490699	0.760745	0.008980
 236	1.1750e-01	2.3476	-7.053679	0.000368	3.678097	0.623086	0.007355
 237	1.1800e-01	2.3582	-7.020324	0.000334	3.335948	0.565125	0.006671
 238	1.1850e-01	2.3706	-6.974996	0.000453	4.533468	0.767990	0.009066
 239	1.1900e-01	2.3763	-6.917694	0.000573	5.730988	0.970856	0.011460
 240	1.1950e-01	2.3871	-6.915556	0.000021	0.213843	0.036226	0.000428
 241	1.2000e-01	2.3962	-6.854406	0.000612	6.115905	1.036062	0.012230
 242	1.2050e-01	2.4039	-6.806939	0.000475	4.747311	0.804216	0.009493
 243	1.2100e-01	2.4158	-6.764177	0.000428	4.276856	0.724519	0.008553
 244	1.2150e-01	2.4261	-6.734670	0.000295	2.951031	0.499918	0.005901
 245	1.2200e-01	2.4347	-6.685494	0.000492	4.918385	0.833197	0.009835
 246	1.2250e-01	2.4475	-6.644442	0.000411	4.105782	0.695538	0.008210
 247	1.2300e-01	2.4585	-6.612370	0.000321	3.207642	0.543389	0.006414
 248	1.2350e-01	2.4654	-6.571745	0.000406	4.063014	0.688293	0.008125
 249	1.2400e-01	2.4759	-6.526417	0.000453	4.533468	0.767990	0.009066
 250	1.2450e-01	2.4863	-6.489214	0.000372	3.720865	0.630332	0.007441
 251	1.2500e-01	2.4956	-6.453293	0.000359	3.592559	0.608596	0.007184
 252	1.2550e-01	2.5068	-6.412669	0.000406	4.063014	0.688293	0.008125
 253	1.2600e-01	2.5165	-6.360071	0.000526	5.260533	0.891158	0.010520
 254	1.2650e-01	2.5291	-6.325861	0.000342	3.421485	0.579615	0.006842
 255	1.2700e-01	2.5360	-6.299348	0.000265	2.651651	0.449202	0.005303
 256	1.2750e-01	2.5458	-6.245040	0.000543	5.431608	0.920139	0.010862
 257	1.2800e-01	2.5549	-6.214250	0.000308	3.079337	0.521654	0.006158
 258	1.2850e-01	2.5671	-6.157376	0.000569	5.688219	0.963610	0.011375
 259	1.2900e-01	2.5751	-6.121883	0.000355	3.549791	0.601351	0.007099
 260	1.2950e-01	2.5871	-6.086818	0.000351	3.507022	0.594106	0.007013
 261	1.3000e-01	2.5961	-6.053891	0.000329	3.293179	0.557880	0.006585
 262	1.3050e-01	2.6057	-6.003431	0.000505	5.046691	0.854933	0.010092
 263	1.3100e-01	2.6168	-5.961524	0.000419	4.191319	0.710029	0.008381
 264	1.3150e-01	2.6254	-5.914485	0.000470	4.704542	0.796971	0.009408
 265	1.3200e-01	2.6392	-5.880275	0.000342	3.421485	0.579615	0.006842
 266	1.3250e-01	2.6440	-5.835374	0.000449	4.490699	0.760745	0.008980
 267	1.3300e-01	2.6544	-5.802875	0.000325	3.250411	0.550635	0.006500
 268	1.3350e-01	2.6655	-5.765244	0.000376	3.763634	0.637577	0.007526
 269	1.3400e-01	2.6749	-5.725047	0.000402	4.020245	0.681048	0.008039
 270	1.3450e-01	2.6855	-5.681857	0.000432	4.319625	0.731764	0.008638
 271	1.3500e-01	2.6917	-5.632680	0.000492	4.918385	0.833197	0.009835
 272	1.3550e-01	2.7052	-5.611299	0.000214	2.138428	0.362260	0.004276
 273	1.3600e-01	2.7172	-5.579227	0.000321	3.207642	0.543389	0.006414
 274	1.3650e-01	2.7267	-5.525774	0.000535	5.346070	0.905649	0.010691
 275	1.3700e-01	2.7385	-5.488143	0.000376	3.763634	0.637577	0.007526
 276	1.3750e-01	2.7450	-5.441959	0.000462	4.619005	0.782481	0.009237
 277	1.3800e-01	2.7541	-5.401762	0.000402	4.020245	0.681048	0.008039
 278	1.3850e-01	2.7670	-5.371829	0.000299	2.993799	0.507163	0.005987
 279	1.3900e-01	2.7753	-5.334198	0.000376	3.763634	0.637577	0.007526
 280	1.3950e-01	2.7887	-5.297422	0.000368	3.678097	0.623086	0.007355
 281	1.4000e-01	2.7985	-5.256798	0.000406	4.063014	0.688293	0.008125
 282	1.4050e-01	2.8072	-5.211042	0.000458	4.576236	0.775235	0.009151
 283	1.4100e-01	2.8163	-5.153312	0.000577	5.773756	0.978101	0.011546
 284	1.4150e-01	2.8265	-5.137918	0.000154	1.539668	0.260827	0.003079
 285	1.4200e-01	2.8342	-5.099004	0.000389	3.891939	0.659312	0.007783
 286	1.4250e-01	2.8493	-5.054103	0.000449	4.490699	0.760745	0.008980
 287	1.4300e-01	2.8549	-5.018610	0.000355	3.549791	0.601351	0.007099
 288	1.4350e-01	2.8680	-4.967295	0.000513	5.132228	0.869423	0.010263
 289	1.4400e-01	2.8766	-4.933940	0.000334	3.335948	0.565125	0.006671
 290	1.4450e-01	2.8847	-4.900586	0.000334	3.335948	0.565125	0.006671
 291	1.4500e-01	2.8943	-4.850553	0.000500	5.003922	0.847687	0.010006
 292	1.4550e-01	2.9037	-4.819337	0.000312	3.122105	0.528899	0.006243
 293	1.4600e-01	2.9152	-4.771870	0.000475	4.747311	0.804216	0.009493
 294	1.4650e-01	2.9230	-4.746213	0.000257	2.566114	0.434711	0.005132
 295	1.4700e-01	2.9330	-4.706016	0.000402	4.020245	0.681048	0.008039
 296	1.4750e-01	2.9459	-4.655984	0.000500	5.003922	0.847687	0.010006
 297	1.4800e-01	2.9591	-4.620491	0.000355	3.549791	0.601351	0.007099
 298	1.4850e-01	2.9669	-4.573025	0.000475	4.747311	0.804216	0.009493
 299	1.4900e-01	2.9776	-4.540098	0.000329	3.293179	0.557880	0.006585
 300	1.4950e-01	2.9877	-4.511447	0.000287	2.865494	0.485428	0.005730
 301	1.5000e-01	2.9958	-4.449441	0.000620	6.201442	1.050553	0.012401
 302	1.5050e-01	3.0049	-4.424211	0.000252	2.523345	0.427466	0.005046
 303	1.5100e-01	3.0170	-4.388291	0.000359	3.592559	0.608596	0.007184
 304	1.5150e-01	3.0261	-4.342962	0.000453	4.533468	0.767990	0.009066
 305	1.5200e-01	3.0360	-4.309608	0.000334	3.335948	0.565125	0.006671
 306	1.5250e-01	3.0444	-4.270266	0.000393	3.934708	0.666558	0.007868
 307	1.5300e-01	3.0576	-4.243326	0.000269	2.694420	0.456447	0.005388
 308	1.5350e-01	3.0670	-4.200563	0.000428	4.276856	0.724519	0.008553
 309	1.5400e-01	3.0743	-4.157801	0.000428	4.276856	0.724519	0.008553
 310	1.5450e-01	3.0860	-4.110762	0.000470	4.704542	0.796971	0.009408
 311	1.5500e-01	3.0953	-4.079117	0.000316	3.164874	0.536144	0.006329
 312	1.5550e-01	3.1078	-4.036783	0.000423	4.234088	0.717274	0.008467
 313	1.5600e-01	3.1183	-4.005138	0.000316	3.164874	0.536144	0.006329
 314	1.5650e-01	3.1281	-3.966224	0.000389	3.891939	0.659312	0.007783
 315	1.5700e-01	3.1371	-3.924317	0.000419	4.191319	0.710029	0.008381
 316	1.5750e-01	3.1459	-3.875995	0.000483	4.832848	0.818707	0.009664
 317	1.5800e-01	3.1558	-3.848627	0.000274	2.737188	0.463692	0.005474
 318	1.5850e-01	3.1696	-3.796885	0.000517	5.174996	0.876668	0.010349
 319	1.5900e-01	3.1757	-3.756260	0.000406	4.063014	0.688293	0.008125
 320	1.5950e-01	3.1851	-3.739583	0.000167	1.667974	0.282562	0.003335
 321	1.6000e-01	3.1969	-3.690406	0.000492	4.918385	0.833197	0.009835
 322	1.6050e-01	3.2062	-3.660045	0.000304	3.036568	0.514409	0.006072
 323	1.6100e-01	3.2156	-3.622414	0.000376	3.763634	0.637577	0.007526
 324	1.6150e-01	3.2269	-3.584783	0.000376	3.763634	0.637577	0.007526
 325	1.6200e-01	3.2373	-3.547152	0.000376	3.763634	0.637577	0.007526
 326	1.6250e-01	3.2440	-3.484718	0.000624	6.244210	1.057798	0.012487
 327	1.6300e-01	3.2588	-3.464192	0.000205	2.052891	0.347769	0.004105
 328	1.6350e-01	3.2642	-3.441956	0.000222	2.223965	0.376750	0.004447
 329	1.6400e-01	3.2727	-3.405180	0.000368	3.678097	0.623086	0.007355
 330	1.6450e-01	3.2849	-3.334194	0.000710	7.099582	1.202702	0.014197
 331	1.6500e-01	3.2962	-3.292715	0.000415	4.148551	0.702784	0.008296
 332	1.6550e-01	3.3057	-3.288438	0.000043	0.427686	0.072452	0.000855
 333	1.6600e-01	3.3192	-3.232847	0.000556	5.559913	0.941875	0.011118
 334	1.6650e-01	3.3260	-3.187519	0.000453	4.533468	0.767990	0.009066
 335	1.6700e-01	3.3371	-3.153309	0.000342	3.421485	0.579615	0.006842
 336	1.6750e-01	3.3456	-3.103704	0.000496	4.961153	0.840442	0.009921
 337	1.6800e-01	3.3528	-3.065646	0.000381	3.806402	0.644822	0.007612
 338	1.6850e-01	3.3690	-3.042981	0.000227	2.266734	0.383995	0.004533
 339	1.6900e-01	3.3750	-3.012620	0.000304	3.036568	0.514409	0.006072
 340	1.6950e-01	3.3856	-2.970285	0.000423	4.234088	0.717274	0.008467
 341	1.7000e-01	3.3966	-2.932654	0.000376	3.763634	0.637577	0.007526
 342	1.7050e-01	3.4070	-2.890319	0.000423	4.234088	0.717274	0.008467
 343	1.7100e-01	3.4167	-2.861668	0.000287	2.865494	0.485428	0.005730
 344	1.7150e-01	3.4271	-2.817195	0.000445	4.447931	0.753500	0.008895
 345	1.7200e-01	3.4348	-2.776999	0.000402	4.020245	0.681048	0.008039
 346	1.7250e-01	3.4457	-2.741078	0.000359	3.592559	0.608596	0.007184
 347	1.7300e-01	3.4576	-2.702164	0.000389	3.891939	0.659312	0.007783
 348	1.7350e-01	3.4666	-2.668382	0.000338	3.378717	0.572370	0.006756
 349	1.7400e-01	3.4769	-2.630323	0.000381	3.806402	0.644822	0.007612
 350	1.7450e-01	3.4885	-2.588416	0.000419	4.191319	0.710029	0.008381
 351	1.7500e-01	3.4944	-2.564896	0.000235	2.352271	0.398485	0.004704
 352	1.7550e-01	3.5068	-2.522134	0.000428	4.276856	0.724519	0.008553
 353	1.7600e-01	3.5153	-2.473385	0.000488	4.875616	0.825952	0.009750
 354	1.7650e-01	3.5274	-2.441740	0.000316	3.164874	0.536144	0.006329
 355	1.7700e-01	3.5364	-2.404109	0.000376	3.763634	0.637577	0.007526
 356	1.7750e-01	3.5452	-2.365623	0.000385	3.849171	0.652067	0.007697
 357	1.7800e-01	3.5526	-2.329702	0.000359	3.592559	0.608596	0.007184
 358	1.7850e-01	3.5654	-2.283947	0.000458	4.576236	0.775235	0.009151
 359	1.7900e-01	3.5760	-2.251019	0.000329	3.293179	0.557880	0.006585
 360	1.7950e-01	3.5870	-2.211678	0.000393	3.934708	0.666558	0.007868
 361	1.8000e-01	3.5927	-2.175757	0.000359	3.592559	0.608596	0.007184
 362	1.8050e-01	3.6066	-2.134705	0.000411	4.105782	0.695538	0.008210
 363	1.8100e-01	3.6151	-2.103061	0.000316	3.164874	0.536144	0.006329
 364	1.8150e-01	3.6264	-2.076976	0.000261	2.608882	0.441957	0.005217
 365	1.8200e-01	3.6346	-2.026516	0.000505	5.046691	0.854933	0.010092
 366	1.8250e-01	3.6451	-1.987175	0.000393	3.934708	0.666558	0.007868
 367	1.8300e-01	3.6574	-1.959379	0.000278	2.779957	0.470937	0.005559
 368	1.8350e-01	3.6646	-1.910630	0.000488	4.875616	0.825952	0.009750
 369	1.8400e-01	3.6780	-1.866584	0.000441	4.405162	0.746255	0.008809
 370	1.8450e-01	3.6853	-1.842210	0.000244	2.437808	0.412976	0.004875
 371	1.8500e-01	3.6975	-1.814414	0.000278	2.779957	0.470937	0.005559
 372	1.8550e-01	3.7073	-1.760106	0.000543	5.431608	0.920139	0.010862
 373	1.8600e-01	3.7177	-1.729317	0.000308	3.079337	0.521654	0.006158
 374	1.8650e-01	3.7259	-1.692113	0.000372	3.720865	0.630332	0.007441
 375	1.8700e-01	3.7335	-1.663890	0.000282	2.822725	0.478183	0.005645
 376	1.8750e-01	3.7457	-1.623693	0.000402	4.020245	0.681048	0.008039
 377	1.8800e-01	3.7552	-1.578793	0.000449	4.490699	0.760745	0.008980
 378	1.8850e-01	3.7656	-1.544582	0.000342	3.421485	0.579615	0.006842
 379	1.8900e-01	3.7746	-1.497544	0.000470	4.704542	0.796971	0.009408
 380	1.8950e-01	3.7854	-1.482149	0.000154	1.539668	0.260827	0.003079
 381	1.9000e-01	3.7971	-1.435538	0.000466	4.661773	0.789726	0.009322
 382	1.9050e-01	3.8044	-1.392776	0.000428	4.276856	0.724519	0.008553
 383	1.9100e-01	3.8130	-1.371394	0.000214	2.138428	0.362260	0.004276
 384	1.9150e-01	3.8264	-1.323073	0.000483	4.832848	0.818707	0.009664
 385	1.9200e-01	3.8370	-1.298698	0.000244	2.437808	0.412976	0.004875
 386	1.9250e-01	3.8432	-1.252514	0.000462	4.619005	0.782481	0.009237
 387	1.9300e-01	3.8580	-1.219160	0.000334	3.335948	0.565125	0.006671
 388	1.9350e-01	3.8638	-1.177252	0.000419	4.191319	0.710029	0.008381
 389	1.9400e-01	3.8754	-1.142615	0.000346	3.464254	0.586860	0.006928
 390	1.9450e-01	3.8855	-1.107549	0.000351	3.507022	0.594106	0.007013
 391	1.9500e-01	3.8943	-1.067780	0.000398	3.977476	0.673803	0.007954
 392	1.9550e-01	3.9075	-1.022452	0.000453	4.533468	0.767990	0.009066
 393	1.9600e-01	3.9166	-1.011761	0.000107	1.069214	0.181130	0.002138
 394	1.9650e-01	3.9261	-0.967288	0.000445	4.447931	0.753500	0.008895
 395	1.9700e-01	3.9368	-0.919822	0.000475	4.747311	0.804216	0.009493
 396	1.9750e-01	3.9502	-0.889888	0.000299	2.993799	0.507163	0.005987
 397	1.9800e-01	3.9554	-0.847126	0.000428	4.276856	0.724519	0.008553
 398	1.9850e-01	3.9648	-0.805218	0.000419	4.191319	0.710029	0.008381
 399	1.9900e-01	3.9764	-0.781699	0.000235	2.352271	0.398485	0.004704
 400	1.9950e-01	3.9844	-0.740219	0.000415	4.148551	0.702784	0.008296
 401	2.0000e-01	3.9954	-0.704299	0.000359	3.592559	0.608596	0.007184
 402	2.0050e-01	4.0067	-0.659826	0.000445	4.447931	0.753500	0.008895
 403	2.0100e-01	4.0182	-0.632458	0.000274	2.737188	0.463692	0.005474
 404	2.0150e-01	4.0268	-0.599531	0.000329	3.293179	0.557880	0.006585
 405	2.0200e-01	4.0370	-0.570452	0.000291	2.908262	0.492673	0.005816
 406	2.0250e-01	4.0466	-0.528545	0.000419	4.191319	0.710029	0.008381
 407	2.0300e-01	4.0573	-0.483217	0.000453	4.533468	0.767990	0.009066
 408	2.0350e-01	4.0675	-0.444303	0.000389	3.891939	0.659312	0.007783
 409	2.0400e-01	4.0787	-0.414369	0.000299	2.993799	0.507163	0.005987
 410	2.0450e-01	4.0845	-0.397264	0.000171	1.710743	0.289808	0.003421
 411	2.0500e-01	4.0979	-0.351080	0.000462	4.619005	0.782481	0.009237
 412	2.0550e-01	4.1032	-0.301903	0.000492	4.918385	0.833197	0.009835
 413	2.0600e-01	4.1150	-0.276246	0.000257	2.566114	0.434711	0.005132
 414	2.0650e-01	4.1254	-0.219799	0.000565	5.645450	0.956365	0.011289
 415	2.0700e-01	4.1339	-0.179603	0.000402	4.020245	0.681048	0.008039
 416	2.0750e-01	4.1455	-0.157366	0.000222	2.223965	0.376750	0.004447
 417	2.0800e-01	4.1559	-0.123156	0.000342	3.421485	0.579615	0.006842
 418	2.0850e-01	4.1647	-0.100920	0.000222	2.223965	0.376750	0.004447
 419	2.0900e-01	4.1772	-0.052170	0.000488	4.875616	0.825952	0.009750
 420	2.0950e-01	4.1888	-0.014112	0.000381	3.806402	0.644822	0.007612
 421	2.1000e-01	4.1971	0.010691	0.000248	2.480577	0.420221	0.004960
 422	2.1050e-01	4.2065	0.058585	0.000479	4.790079	0.811461	0.009579
 423	2.1100e-01	4.2181	0.088091	0.000295	2.951031	0.499918	0.005901
 424	2.1150e-01	4.2271	0.102202	0.000141	1.411363	0.239091	0.002822
 425	2.1200e-01	4.2352	0.160787	0.000586	5.859293	0.992591	0.011717
 426	2.1250e-01	4.2468	0.189010	0.000282	2.822725	0.478183	0.005645
 427	2.1300e-01	4.2557	0.227069	0.000381	3.806402	0.644822	0.007612
 428	2.1350e-01	4.2673	0.264272	0.000372	3.720865	0.630332	0.007441
 429	2.1400e-01	4.2743	0.303614	0.000393	3.934708	0.666558	0.007868
 430	2.1450e-01	4.2868	0.324568	0.000210	2.095660	0.355014	0.004191
 431	2.1500e-01	4.2966	0.379304	0.000547	5.474376	0.927384	0.010947
 432	2.1550e-01	4.3079	0.404961	0.000257	2.566114	0.434711	0.005132
 433	2.1600e-01	4.3176	0.438744	0.000338	3.378717	0.572370	0.006756
 434	2.1650e-01	4.3262	0.477657	0.000389	3.891939	0.659312	0.007783
 435	2.1700e-01	4.3399	0.521275	0.000436	4.362394	0.739009	0.008724
 436	2.1750e-01	4.3448	0.548216	0.000269	2.694420	0.456447	0.005388
 437	2.1800e-01	4.3576	0.568742	0.000205	2.052891	0.347769	0.004105
 438	2.1850e-01	4.3660	0.614070	0.000453	4.533468	0.767990	0.009066
 439	2.1900e-01	4.3770	0.664957	0.000509	5.089459	0.862178	0.010177
 440	2.1950e-01	4.3860	0.689332	0.000244	2.437808	0.412976	0.004875
 441	2.2000e-01	4.3970	0.734233	0.000449	4.490699	0.760745	0.008980
 442	2.2050e-01	4.4080	0.756041	0.000218	2.181197	0.369505	0.004362
 443	2.2100e-01	4.4165	0.778706	0.000227	2.266734	0.383995	0.004533
 444	2.2150e-01	4.4287	0.830876	0.000522	5.217765	0.883913	0.010434
 445	2.2200e-01	4.4379	0.856106	0.000252	2.523345	0.427466	0.005046
 446	2.2250e-01	4.4449	0.901006	0.000449	4.490699	0.760745	0.008980
 447	2.2300e-01	4.4563	0.939493	0.000385	3.849171	0.652067	0.007697
 448	2.2350e-01	4.4675	0.961302	0.000218	2.181197	0.369505	0.004362
 449	2.2400e-01	4.4766	1.004492	0.000432	4.319625	0.731764	0.008638
 450	2.2450e-01	4.4868	1.043833	0.000393	3.934708	0.666558	0.007868
 451	2.2500e-01	4.4952	1.071201	0.000274	2.737188	0.463692	0.005474
 452	2.2550e-01	4.5078	1.104128	0.000329	3.293179	0.557880	0.006585
 453	2.2600e-01	4.5154	1.140049	0.000359	3.592559	0.608596	0.007184
 454	2.2650e-01	4.5239	1.173404	0.000334	3.335948	0.565125	0.006671
 455	2.2700e-01	4.5364	1.217877	0.000445	4.447931	0.753500	0.008895
 456	2.2750e-01	4.5465	1.263205	0.000453	4.533468	0.767990	0.009066
 457	2.2800e-01	4.5569	1.283303	0.000201	2.010123	0.340524	0.004020
 458	2.2850e-01	4.5685	1.319224	0.000359	3.592559	0.608596	0.007184
 459	2.2900e-01	4.5753	1.353862	0.000346	3.464254	0.586860	0.006928
 460	2.2950e-01	4.5880	1.375671	0.000218	2.181197	0.369505	0.004362
 461	2.3000e-01	4.5975	1.428696	0.000530	5.303302	0.898404	0.010605
 462	2.3050e-01	4.6065	1.454781	0.000261	2.608882	0.441957	0.005217
 463	2.3100e-01	4.6185	1.491129	0.000364	3.635328	0.615841	0.007270
 464	2.3150e-01	4.6252	1.529616	0.000385	3.849171	0.652067	0.007697
 465	2.3200e-01	4.6370	1.547148	0.000175	1.753511	0.297053	0.003507
 466	2.3250e-01	4.6463	1.613430	0.000663	6.629127	1.123005	0.013256
 467	2.3300e-01	4.6573	1.630535	0.000171	1.710743	0.289808	0.003421
 468	2.3350e-01	4.6667	1.664318	0.000338	3.378717	0.572370	0.006756
 469	2.3400e-01	4.6799	1.700238	0.000359	3.592559	0.608596	0.007184
 470	2.3450e-01	4.6863	1.725040	0.000248	2.480577	0.420221	0.004960
 471	2.3500e-01	4.6961	1.762244	0.000372	3.720865	0.630332	0.007441
 472	2.3550e-01	4.7070	1.790895	0.000287	2.865494	0.485428	0.005730
 473	2.3600e-01	4.7177	1.828526	0.000376	3.763634	0.637577	0.007526
 474	2.3650e-01	4.7272	1.880696	0.000522	5.217765	0.883913	0.010434
 475	2.3700e-01	4.7375	1.886255	0.000056	0.555991	0.094187	0.001112
 476	2.3750e-01	4.7485	1.931156	0.000449	4.490699	0.760745	0.008980
 477	2.3800e-01	4.7577	1.969642	0.000385	3.849171	0.652067	0.007697
 478	2.3850e-01	4.7662	2.011977	0.000423	4.234088	0.717274	0.008467
 479	2.3900e-01	4.7778	2.054739	0.000428	4.276856	0.724519	0.008553
 480	2.3950e-01	4.7852	2.074838	0.000201	2.010123	0.340524	0.004020
 481	2.4000e-01	4.7943	2.121021	0.000462	4.619005	0.782481	0.009237
 482	2.4050e-01	4.8053	2.136843	0.000158	1.582437	0.268072	0.003164
 483	2.4100e-01	4.8157	2.176613	0.000398	3.977476	0.673803	0.007954
 484	2.4150e-01	4.8285	2.211250	0.000346	3.464254	0.586860	0.006928
 485	2.4200e-01	4.8368	2.241612	0.000304	3.036568	0.514409	0.006072
 486	2.4250e-01	4.8468	2.266414	0.000248	2.480577	0.420221	0.004960
 487	2.4300e-01	4.8572	2.304473	0.000381	3.806402	0.644822	0.007612
 488	2.4350e-01	4.8676	2.359636	0.000552	5.517145	0.934630	0.011033
 489	2.4400e-01	4.8779	2.391281	0.000316	3.164874	0.536144	0.006329
 490	2.4450e-01	4.8883	2.417793	0.000265	2.651651	0.449202	0.005303
 491	2.4500e-01	4.8993	2.445589	0.000278	2.779957	0.470937	0.005559
 492	2.4550e-01	4.9072	2.470819	0.000252	2.523345	0.427466	0.005046
 493	2.4600e-01	4.9173	2.514864	0.000441	4.405162	0.746255	0.008809
 494	2.4650e-01	4.9265	2.550785	0.000359	3.592559	0.608596	0.007184
 495	2.4700e-01	4.9365	2.582429	0.000316	3.164874	0.536144	0.006329
 496	2.4750e-01	4.9509	2.617067	0.000346	3.464254	0.586860	0.006928
 497	2.4800e-01	4.9561	2.647428	0.000304	3.036568	0.514409	0.006072
 498	2.4850e-01	4.9677	2.676507	0.000291	2.908262	0.492673	0.005816
 499	2.4900e-01	4.9768	2.705585	0.000291	2.908262	0.492673	0.005816
 500	2.4950e-01	4.9850	2.757755	0.000522	5.217765	0.883913	0.010434
 501	2.5000e-01	4.9988	2.787689	0.000299	2.993799	0.507163	0.005987
 502	2.5050e-01	5.0085	2.817623	0.000299	2.993799	0.507163	0.005987
 503	2.5100e-01	5.0174	2.850122	0.000325	3.250411	0.550635	0.006500
 504	2.5150e-01	5.0275	2.879629	0.000295	2.951031	0.499918	0.005901
 505	2.5200e-01	5.0374	2.916404	0.000368	3.678097	0.623086	0.007355
 506	2.5250e-01	5.0487	2.947193	0.000308	3.079337	0.521654	0.006158
 507	2.5300e-01	5.0592	2.977555	0.000304	3.036568	0.514409	0.006072
 508	2.5350e-01	5.0656	3.022028	0.000445	4.447931	0.753500	0.008895
 509	2.5400e-01	5.0748	3.033146	0.000111	1.111983	0.188375	0.002224
 510	2.5450e-01	5.0891	3.071632	0.000385	3.849171	0.652067	0.007697
 511	2.5500e-01	5.0980	3.112684	0.000411	4.105782	0.695538	0.008210
 512	2.5550e-01	5.1065	3.134921	0.000222	2.223965	0.376750	0.004447
 513	2.5600e-01	5.1147	3.180677	0.000458	4.576236	0.775235	0.009151
 514	2.5650e-01	5.1251	3.214459	0.000338	3.378717	0.572370	0.006756
 515	2.5700e-01	5.1382	3.249524	0.000351	3.507022	0.594106	0.007013
 516	2.5750e-01	5.1471	3.282024	0.000325	3.250411	0.550635	0.006500
 517	2.5800e-01	5.1558	3.312813	0.000308	3.079337	0.521654	0.006158
 518	2.5850e-01	5.1668	3.354293	0.000415	4.148551	0.702784	0.008296
 519	2.5900e-01	5.1758	3.382088	0.000278	2.779957	0.470937	0.005559
 520	2.5950e-01	5.1855	3.420147	0.000381	3.806402	0.644822	0.007612
 521	2.6000e-01	5.1990	3.447943	0.000278	2.779957	0.470937	0.005559
 522	2.6050e-01	5.2081	3.486429	0.000385	3.849171	0.652067	0.007697
 523	2.6100e-01	5.2161	3.518073	0.000316	3.164874	0.536144	0.006329
 524	2.6150e-01	5.2249	3.537744	0.000197	1.967354	0.333279	0.003934
 525	2.6200e-01	5.2368	3.581362	0.000436	4.362394	0.739009	0.008724
 526	2.6250e-01	5.2490	3.612578	0.000312	3.122105	0.528899	0.006243
 527	2.6300e-01	5.2554	3.639946	0.000274	2.737188	0.463692	0.005474
 528	2.6350e-01	5.2669	3.674156	0.000342	3.421485	0.579615	0.006842
 529	2.6400e-01	5.2765	3.713070	0.000389	3.891939	0.659312	0.007783
 530	2.6450e-01	5.2853	3.753267	0.000402	4.020245	0.681048	0.008039
 531	2.6500e-01	5.2943	3.788760	0.000355	3.549791	0.601351	0.007099
 532	2.6550e-01	5.3076	3.815700	0.000269	2.694420	0.456447	0.005388
 533	2.6600e-01	5.3171	3.845634	0.000299	2.993799	0.507163	0.005987
 534	2.6650e-01	5.3273	3.866160	0.000205	2.052891	0.347769	0.004105
 535	2.6700e-01	5.3348	3.905929	0.000398	3.977476	0.673803	0.007954
 536	2.6750e-01	5.3456	3.938429	0.000325	3.250411	0.550635	0.006500
 537	2.6800e-01	5.3558	3.973922	0.000355	3.549791	0.601351	0.007099
 538	2.6850e-01	5.3680	4.006849	0.000329	3.293179	0.557880	0.006585
 539	2.6900e-01	5.3793	4.044480	0.000376	3.763634	0.637577	0.007526
 540	2.6950e-01	5.3876	4.062440	0.000180	1.796280	0.304298	0.003592
 541	2.7000e-01	5.3955	4.111189	0.000488	4.875616	0.825952	0.009750
 542	2.7050e-01	5.4056	4.135136	0.000240	2.395040	0.405731	0.004789
 543	2.7100e-01	5.4156	4.159083	0.000240	2.395040	0.405731	0.004789
 544	2.7150e-01	5.4272	4.215102	0.000560	5.602682	0.949120	0.011204
 545	2.7200e-01	5.4380	4.233918	0.000188	1.881817	0.318788	0.003763
 546	2.7250e-01	5.4486	4.272404	0.000385	3.849171	0.652067	0.007697
 547	2.7300e-01	5.4553	4.293358	0.000210	2.095660	0.355014	0.004191
 548	2.7350e-01	5.4657	4.333555	0.000402	4.020245	0.681048	0.008039
 549	2.7400e-01	5.4773	4.357502	0.000240	2.395040	0.405731	0.004789
 550	2.7450e-01	5.4871	4.410955	0.000535	5.346070	0.905649	0.010691
 551	2.7500e-01	5.4953	4.414803	0.000038	0.384917	0.065207	0.000770
 552	2.7550e-01	5.5090	4.449013	0.000342	3.421485	0.579615	0.006842
 553	2.7600e-01	5.5152	4.495625	0.000466	4.661773	0.789726	0.009322
 554	2.7650e-01	5.5276	4.536677	0.000411	4.105782	0.695538	0.008210
 555	2.7700e-01	5.5365	4.557630	0.000210	2.095660	0.355014	0.004191
 556	2.7750e-01	5.5472	4.585426	0.000278	2.779957	0.470937	0.005559
 557	2.7800e-01	5.5557	4.623484	0.000381	3.806402	0.644822	0.007612
 558	2.7850e-01	5.5646	4.652135	0.000287	2.865494	0.485428	0.005730
 559	2.7900e-01	5.5756	4.694043	0.000419	4.191319	0.710029	0.008381
 560	2.7950e-01	5.5865	4.730391	0.000364	3.635328	0.615841	0.007270
 561	2.8000e-01	5.5971	4.752627	0.000222	2.223965	0.376750	0.004447
 562	2.8050e-01	5.6050	4.787693	0.000351	3.507022	0.594106	0.007013
 563	2.8100e-01	5.6143	4.805653	0.000180	1.796280	0.304298	0.003592
 564	2.8150e-01	5.6244	4.856540	0.000509	5.089459	0.862178	0.010177
 565	2.8200e-01	5.6348	4.890750	0.000342	3.421485	0.579615	0.006842
 566	2.8250e-01	5.6461	4.922395	0.000316	3.164874	0.536144	0.006329
 567	2.8300e-01	5.6555	4.950618	0.000282	2.822725	0.478183	0.005645
 568	2.8350e-01	5.6671	4.967723	0.000171	1.710743	0.289808	0.003421
 569	2.8400e-01	5.6781	4.998084	0.000304	3.036568	0.514409	0.006072
 570	2.8450e-01	5.6851	5.037853	0.000398	3.977476	0.673803	0.007954
 571	2.8500e-01	5.6940	5.066932	0.000291	2.908262	0.492673	0.005816
 572	2.8550e-01	5.7089	5.105418	0.000385	3.849171	0.652067	0.007697
 573	2.8600e-01	5.7159	5.138773	0.000334	3.335948	0.565125	0.006671
 574	2.8650e-01	5.7233	5.166569	0.000278	2.779957	0.470937	0.005559
 575	2.8700e-01	5.7373	5.203344	0.000368	3.678097	0.623086	0.007355
 576	2.8750e-01	5.7449	5.240975	0.000376	3.763634	0.637577	0.007526
 577	2.8800e-01	5.7550	5.263640	0.000227	2.266734	0.383995	0.004533
 578	2.8850e-01	5.7684	5.293573	0.000299	2.993799	0.507163	0.005987
 579	2.8900e-01	5.7764	5.336763	0.000432	4.319625	0.731764	0.008638
 580	2.8950e-01	5.7849	5.360283	0.000235	2.352271	0.398485	0.004704
 581	2.9000e-01	5.7965	5.384657	0.000244	2.437808	0.412976	0.004875
 582	2.9050e-01	5.8044	5.422716	0.000381	3.806402	0.644822	0.007612
 583	2.9100e-01	5.8185	5.458209	0.000355	3.549791	0.601351	0.007099
 584	2.9150e-01	5.8240	5.487288	0.000291	2.908262	0.492673	0.005816
 585	2.9200e-01	5.8374	5.518504	0.000312	3.122105	0.528899	0.006243
 586	2.9250e-01	5.8453	5.548438	0.000299	2.993799	0.507163	0.005987
 587	2.9300e-01	5.8545	5.574523	0.000261	2.608882	0.441957	0.005217
 588	2.9350e-01	5.8656	5.611299	0.000368	3.678097	0.623086	0.007355
 589	2.9400e-01	5.8759	5.634818	0.000235	2.352271	0.398485	0.004704
 590	2.9450e-01	5.8862	5.669028	0.000342	3.421485	0.579615	0.006842
 591	2.9500e-01	5.8954	5.706659	0.000376	3.763634	0.637577	0.007526
 592	2.9550e-01	5.9045	5.746856	0.000402	4.020245	0.681048	0.008039
 593	2.9600e-01	5.9192	5.761823	0.000150	1.496900	0.253582	0.002993
 594	2.9650e-01	5.9265	5.804585	0.000428	4.276856	0.724519	0.008553
 595	2.9700e-01	5.9351	5.832809	0.000282	2.822725	0.478183	0.005645
 596	2.9750e-01	5.9462	5.849914	0.000171	1.710743	0.289808	0.003421
 597	2.9800e-01	5.9570	5.895242	0.000453	4.533468	0.767990	0.009066
 598	2.9850e-01	5.9631	5.937577	0.000423	4.234088	0.717274	0.008467
 599	2.9900e-01	5.9772	5.949978	0.000124	1.240288	0.210111	0.002480
 600	2.9950e-01	5.9872	5.989747	0.000398	3.977476	0.673803	0.007954
 601	3.0000e-01	5.9979	6.008135	0.000184	1.839048	0.311543	0.003678
 602	3.0050e-01	6.0062	6.034220	0.000261	2.608882	0.441957	0.005217
 603	3.0100e-01	6.0139	6.080831	0.000466	4.661773	0.789726	0.009322
 604	3.0150e-01	6.0251	6.108627	0.000278	2.779957	0.470937	0.005559
 605	3.0200e-01	6.0361	6.131719	0.000231	2.309502	0.391240	0.004618
 606	3.0250e-01	6.0461	6.172771	0.000411	4.105782	0.695538	0.008210
 607	3.0300e-01	6.0553	6.197145	0.000244	2.437808	0.412976	0.004875
 608	3.0350e-01	6.0654	6.218099	0.000210	2.095660	0.355014	0.004191
 609	3.0400e-01	6.0760	6.257013	0.000389	3.891939	0.659312	0.007783
 610	3.0450e-01	6.0867	6.293361	0.000364	3.635328	0.615841	0.007270
 611	3.0500e-01	6.0965	6.326716	0.000334	3.335948	0.565125	0.006671
 612	3.0550e-01	6.1072	6.361781	0.000351	3.507022	0.594106	0.007013
 613	3.0600e-01	6.1182	6.384018	0.000222	2.223965	0.376750	0.004447
 614	3.0650e-01	6.1264	6.424215	0.000402	4.020245	0.681048	0.008039
 615	3.0700e-01	6.1343	6.450727	0.000265	2.651651	0.449202	0.005303
 616	3.0750e-01	6.1465	6.480661	0.000299	2.993799	0.507163	0.005987
 617	3.0800e-01	6.1566	6.521713	0.000411	4.105782	0.695538	0.008210
 618	3.0850e-01	6.1670	6.544377	0.000227	2.266734	0.383995	0.004533
 619	3.0900e-01	6.1731	6.582863	0.000385	3.849171	0.652067	0.007697
 620	3.0950e-01	6.1847	6.608949	0.000261	2.608882	0.441957	0.005217
 621	3.1000e-01	6.1978	6.628619	0.000197	1.967354	0.333279	0.003934
 622	3.1050e-01	6.2057	6.672237	0.000436	4.362394	0.739009	0.008724
 623	3.1100e-01	6.2161	6.707730	0.000355	3.549791	0.601351	0.007099
 624	3.1150e-01	6.2263	6.730822	0.000231	2.309502	0.391240	0.004618
 625	3.1200e-01	6.2366	6.756907	0.000261	2.608882	0.441957	0.005217
 626	3.1250e-01	6.2459	6.801380	0.000445	4.447931	0.753500	0.008895
 627	3.1300e-01	6.2567	6.809505	0.000081	0.812603	0.137659	0.001625
 628	3.1350e-01	6.2668	6.848419	0.000389	3.891939	0.659312	0.007783
 629	3.1400e-01	6.2759	6.884339	0.000359	3.592559	0.608596	0.007184
 630	3.1450e-01	6.2885	6.907431	0.000231	2.309502	0.391240	0.004618
 631	3.1500e-01	6.2964	6.933089	0.000257	2.566114	0.434711	0.005132
 632	3.1550e-01	6.3074	6.954470	0.000214	2.138428	0.362260	0.004276
 633	3.1600e-01	6.3159	6.998088	0.000436	4.362394	0.739009	0.008724
 634	3.1650e-01	6.3275	7.026311	0.000282	2.822725	0.478183	0.005645
 635	3.1700e-01	6.3345	7.061804	0.000355	3.549791	0.601351	0.007099
 636	3.1750e-01	6.3440	7.089172	0.000274	2.737188	0.463692	0.005474
 637	3.1800e-01	6.3556	7.122527	0.000334	3.335948	0.565125	0.006671
 638	3.1850e-01	6.3678	7.155026	0.000325	3.250411	0.550635	0.006500
 639	3.1900e-01	6.3748	7.181111	0.000261	2.608882	0.441957	0.005217
 640	3.1950e-01	6.3855	7.223874	0.000428	4.276856	0.724519	0.008553
 641	3.2000e-01	6.3983	7.241834	0.000180	1.796280	0.304298	0.003592
 642	3.2050e-01	6.4044	7.274761	0.000329	3.293179	0.557880	0.006585
 643	3.2100e-01	6.4175	7.304267	0.000295	2.951031	0.499918	0.005901
 644	3.2150e-01	6.4252	7.340615	0.000364	3.635328	0.615841	0.007270
 645	3.2200e-01	6.4389	7.368411	0.000278	2.779957	0.470937	0.005559
 646	3.2250e-01	6.4456	7.392358	0.000240	2.395040	0.405731	0.004789
 647	3.2300e-01	6.4563	7.414167	0.000218	2.181197	0.369505	0.004362
 648	3.2350e-01	6.4636	7.450515	0.000364	3.635328	0.615841	0.007270
 649	3.2400e-01	6.4786	7.485153	0.000346	3.464254	0.586860	0.006928
 650	3.2450e-01	6.4856	7.517225	0.000321	3.207642	0.543389	0.006414
 651	3.2500e-01	6.4961	7.545876	0.000287	2.865494	0.485428	0.005730
 652	3.2550e-01	6.5070	7.578803	0.000329	3.293179	0.557880	0.006585
 653	3.2600e-01	6.5152	7.606598	0.000278	2.779957	0.470937	0.005559
 654	3.2650e-01	6.5280	7.641664	0.000351	3.507022	0.594106	0.007013
 655	3.2700e-01	6.5393	7.666038	0.000244	2.437808	0.412976	0.004875
 656	3.2750e-01	6.5456	7.701531	0.000355	3.549791	0.601351	0.007099
 657	3.2800e-01	6.5561	7.737879	0.000364	3.635328	0.615841	0.007270
 658	3.2850e-01	6.5659	7.759688	0.000218	2.181197	0.369505	0.004362
 659	3.2900e-01	6.5753	7.782780	0.000231	2.309502	0.391240	0.004618
 660	3.2950e-01	6.5865	7.812714	0.000299	2.993799	0.507163	0.005987
 661	3.3000e-01	6.5961	7.856759	0.000441	4.405162	0.746255	0.008809
 662	3.3050e-01	6.6064	7.877713	0.000210	2.095660	0.355014	0.004191
 663	3.3100e-01	6.6139	7.895673	0.000180	1.796280	0.304298	0.003592
 664	3.3150e-01	6.6278	7.942712	0.000470	4.704542	0.796971	0.009408
 665	3.3200e-01	6.6383	7.964521	0.000218	2.181197	0.369505	0.004362
 666	3.3250e-01	6.6452	7.992744	0.000282	2.822725	0.478183	0.005645
 667	3.3300e-01	6.6580	8.022678	0.000299	2.993799	0.507163	0.005987
 668	3.3350e-01	6.6653	8.043204	0.000205	2.052891	0.347769	0.004105
 669	3.3400e-01	6.6754	8.088532	0.000453	4.533468	0.767990	0.009066
 670	3.3450e-01	6.6861	8.124880	0.000364	3.635328	0.615841	0.007270
 671	3.3500e-01	6.6992	8.153531	0.000287	2.865494	0.485428	0.005730
 672	3.3550e-01	6.7084	8.168926	0.000154	1.539668	0.260827	0.003079
 673	3.3600e-01	6.7169	8.210405	0.000415	4.148551	0.702784	0.008296
 674	3.3650e-01	6.7261	8.236490	0.000261	2.608882	0.441957	0.005217
 675	3.3700e-01	6.7365	8.267279	0.000308	3.079337	0.521654	0.006158
 676	3.3750e-01	6.7459	8.288233	0.000210	2.095660	0.355014	0.004191
 677	3.3800e-01	6.7554	8.323298	0.000351	3.507022	0.594106	0.007013
 678	3.3850e-01	6.7679	8.351094	0.000278	2.779957	0.470937	0.005559
 679	3.3900e-01	6.7763	8.379745	0.000287	2.865494	0.485428	0.005730
 680	3.3950e-01	6.7871	8.396422	0.000167	1.667974	0.282562	0.003335
 681	3.4000e-01	6.7987	8.424218	0.000278	2.779957	0.470937	0.005559
 682	3.4050e-01	6.8062	8.460566	0.000364	3.635328	0.615841	0.007270
 683	3.4100e-01	6.8152	8.490500	0.000299	2.993799	0.507163	0.005987
 684	3.4150e-01	6.8286	8.526420	0.000359	3.592559	0.608596	0.007184
 685	3.4200e-01	6.8347	8.555071	0.000287	2.865494	0.485428	0.005730
 686	3.4250e-01	6.8472	8.590992	0.000359	3.592559	0.608596	0.007184
 687	3.4300e-01	6.8579	8.609380	0.000184	1.839048	0.311543	0.003678
 688	3.4350e-01	6.8672	8.636320	0.000269	2.694420	0.456447	0.005388
 689	3.4400e-01	6.8776	8.671813	0.000355	3.549791	0.601351	0.007099
 690	3.4450e-01	6.8881	8.701319	0.000295	2.951031	0.499918	0.005901
 691	3.4500e-01	6.8959	8.743654	0.000423	4.234088	0.717274	0.008467
 692	3.4550e-01	6.9073	8.762470	0.000188	1.881817	0.318788	0.003763
 693	3.4600e-01	6.9159	8.790693	0.000282	2.822725	0.478183	0.005645
 694	3.4650e-01	6.9250	8.826186	0.000355	3.549791	0.601351	0.007099
 695	3.4700e-01	6.9366	8.848850	0.000227	2.266734	0.383995	0.004533
 696	3.4750e-01	6.9458	8.871514	0.000227	2.266734	0.383995	0.004533
 697	3.4800e-01	6.9582	8.904869	0.000334	3.335948	0.565125	0.006671
 698	3.4850e-01	6.9666	8.946776	0.000419	4.191319	0.710029	0.008381
 699	3.4900e-01	6.9788	8.957039	0.000103	1.026446	0.173885	0.002053
 700	3.4950e-01	6.9864	8.995953	0.000389	3.891939	0.659312	0.007783
 701	3.5000e-01	7.0009	9.011775	0.000158	1.582437	0.268072	0.003164
 702	3.5050e-01	7.0068	9.064801	0.000530	5.303302	0.898404	0.010605
 703	3.5100e-01	7.0154	9.093879	0.000291	2.908262	0.492673	0.005816
 704	3.5150e-01	7.0264	9.107991	0.000141	1.411363	0.239091	0.002822
 705	3.5200e-01	7.0355	9.161872	0.000539	5.388839	0.912894	0.010776
 706	3.5250e-01	7.0462	9.173417	0.000115	1.154751	0.195620	0.002309
 707	3.5300e-01	7.0569	9.215325	0.000419	4.191319	0.710029	0.008381
 708	3.5350e-01	7.0667	9.238416	0.000231	2.309502	0.391240	0.004618
 709	3.5400e-01	7.0763	9.267923	0.000295	2.951031	0.499918	0.005901
 710	3.5450e-01	7.0868	9.296146	0.000282	2.822725	0.478183	0.005645
 711	3.5500e-01	7.0978	9.302988	0.000068	0.684297	0.115923	0.001368
 712	3.5550e-01	7.1069	9.345323	0.000423	4.234088	0.717274	0.008467
 713	3.5600e-01	7.1161	9.387658	0.000423	4.234088	0.717274	0.008467
 714	3.5650e-01	7.1254	9.400914	0.000133	1.325825	0.224601	0.002651
 715	3.5700e-01	7.1358	9.438545	0.000376	3.763634	0.637577	0.007526
 716	3.5750e-01	7.1466	9.467624	0.000291	2.908262	0.492673	0.005816
 717	3.5800e-01	7.1582	9.480452	0.000128	1.283057	0.217356	0.002566
 718	3.5850e-01	7.1686	9.518939	0.000385	3.849171	0.652067	0.007697
 719	3.5900e-01	7.1771	9.544596	0.000257	2.566114	0.434711	0.005132
 720	3.5950e-01	7.1872	9.578379	0.000338	3.378717	0.572370	0.006756
 721	3.6000e-01	7.1976	9.611306	0.000329	3.293179	0.557880	0.006585
 722	3.6050e-01	7.2076	9.628838	0.000175	1.753511	0.297053	0.003507
 723	3.6100e-01	7.2177	9.663904	0.000351	3.507022	0.594106	0.007013
 724	3.6150e-01	7.2269	9.692554	0.000287	2.865494	0.485428	0.005730
 725	3.6200e-01	7.2375	9.723343	0.000308	3.079337	0.521654	0.006158
 726	3.6250e-01	7.2504	9.743870	0.000205	2.052891	0.347769	0.004105
 727	3.6300e-01	7.2577	9.774659	0.000308	3.079337	0.521654	0.006158
 728	3.6350e-01	7.2658	9.808013	0.000334	3.335948	0.565125	0.006671
 729	3.6400e-01	7.2742	9.836664	0.000287	2.865494	0.485428	0.005730
 730	3.6450e-01	7.2852	9.866598	0.000299	2.993799	0.507163	0.005987
 731	3.6500e-01	7.2958	9.889262	0.000227	2.266734	0.383995	0.004533
 732	3.6550e-01	7.3059	9.942288	0.000530	5.303302	0.898404	0.010605
 733	3.6600e-01	7.3157	9.952978	0.000107	1.069214	0.181130	0.002138
 734	3.6650e-01	7.3280	9.970939	0.000180	1.796280	0.304298	0.003592
 735	3.6700e-01	7.3347	10.016694	0.000458	4.576236	0.775235	0.009151
 736	3.6750e-01	7.3456	10.025247	0.000086	0.855371	0.144904	0.001711
 737	3.6800e-01	7.3566	10.060312	0.000351	3.507022	0.594106	0.007013
 738	3.6850e-01	7.3651	10.097943	0.000376	3.763634	0.637577	0.007526
 739	3.6900e-01	7.3767	10.112910	0.000150	1.496900	0.253582	0.002993
 740	3.6950e-01	7.3865	10.150969	0.000381	3.806402	0.644822	0.007612
 741	3.7000e-01	7.3978	10.174488	0.000235	2.352271	0.398485	0.004704
 742	3.7050e-01	7.4066	10.215113	0.000406	4.063014	0.688293	0.008125
 743	3.7100e-01	7.4164	10.227941	0.000128	1.283057	0.217356	0.002566
 744	3.7150e-01	7.4258	10.267710	0.000398	3.977476	0.673803	0.007954
 745	3.7200e-01	7.4390	10.284815	0.000171	1.710743	0.289808	0.003421
 746	3.7250e-01	7.4451	10.320736	0.000359	3.592559	0.608596	0.007184
 747	3.7300e-01	7.4564	10.353236	0.000325	3.250411	0.550635	0.006500
 748	3.7350e-01	7.4670	10.372051	0.000188	1.881817	0.318788	0.003763
 749	3.7400e-01	7.4792	10.410537	0.000385	3.849171	0.652067	0.007697
 750	3.7450e-01	7.4884	10.428498	0.000180	1.796280	0.304298	0.003592
 751	3.7500e-01	7.5012	10.456293	0.000278	2.779957	0.470937	0.005559
 752	3.7550e-01	7.5067	10.483661	0.000274	2.737188	0.463692	0.005474
 753	3.7600e-01	7.5143	10.532838	0.000492	4.918385	0.833197	0.009835
 754	3.7650e-01	7.5266	10.557213	0.000244	2.437808	0.412976	0.004875
 755	3.7700e-01	7.5356	10.570897	0.000137	1.368594	0.231846	0.002737
 756	3.7750e-01	7.5458	10.596982	0.000261	2.608882	0.441957	0.005217
 757	3.7800e-01	7.5574	10.634185	0.000372	3.720865	0.630332	0.007441
 758	3.7850e-01	7.5684	10.650863	0.000167	1.667974	0.282562	0.003335
 759	3.7900e-01	7.5775	10.689349	0.000385	3.849171	0.652067	0.007697
 760	3.7950e-01	7.5873	10.725697	0.000364	3.635328	0.615841	0.007270
 761	3.8000e-01	7.5970	10.743230	0.000175	1.753511	0.297053	0.003507
 762	3.8050e-01	7.6068	10.770598	0.000274	2.737188	0.463692	0.005474
 763	3.8100e-01	7.6151	10.796255	0.000257	2.566114	0.434711	0.005132
 764	3.8150e-01	7.6276	10.831748	0.000355	3.549791	0.601351	0.007099
 765	3.8200e-01	7.6385	10.851847	0.000201	2.010123	0.340524	0.004020
 766	3.8250e-01	7.6471	10.882636	0.000308	3.079337	0.521654	0.006158
 767	3.8300e-01	7.6587	10.904872	0.000222	2.223965	0.376750	0.004447
 768	3.8350e-01	7.6660	10.951483	0.000466	4.661773	0.789726	0.009322
 769	3.8400e-01	7.6770	10.957470	0.000060	0.598760	0.101433	0.001197
 770	3.8450e-01	7.6862	11.008785	0.000513	5.132228	0.869423	0.010263
 771	3.8500e-01	7.6959	11.015199	0.000064	0.641528	0.108678	0.001283
 772	3.8550e-01	7.7066	11.044278	0.000291	2.908262	0.492673	0.005816
 773	3.8600e-01	7.7161	11.080198	0.000359	3.592559	0.608596	0.007184
 774	3.8650e-01	7.7261	11.118257	0.000381	3.806402	0.644822	0.007612
 775	3.8700e-01	7.7344	11.137073	0.000188	1.881817	0.318788	0.003763
 776	3.8750e-01	7.7443	11.175131	0.000381	3.806402	0.644822	0.007612
 777	3.8800e-01	7.7567	11.198651	0.000235	2.352271	0.398485	0.004704
 778	3.8850e-01	7.7652	11.201644	0.000030	0.299380	0.050716	0.000599
 779	3.8900e-01	7.7765	11.252959	0.000513	5.132228	0.869423	0.010263
 780	3.8950e-01	7.7832	11.294866	0.000419	4.191319	0.710029	0.008381
 781	3.9000e-01	7.7948	11.310689	0.000158	1.582437	0.268072	0.003164
 782	3.9050e-01	7.8070	11.344899	0.000342	3.421485	0.579615	0.006842
 783	3.9100e-01	7.8162	11.364569	0.000197	1.967354	0.333279	0.003934
 784	3.9150e-01	7.8259	11.390227	0.000257	2.566114	0.434711	0.005132
 785	3.9200e-01	7.8369	11.418878	0.000287	2.865494	0.485428	0.005730
 786	3.9250e-01	7.8436	11.450950	0.000321	3.207642	0.543389	0.006414
 787	3.9300e-01	7.8577	11.476607	0.000257	2.566114	0.434711	0.005132
 788	3.9350e-01	7.8680	11.509107	0.000325	3.250411	0.550635	0.006500
 789	3.9400e-01	7.8769	11.530060	0.000210	2.095660	0.355014	0.004191
 790	3.9450e-01	7.8864	11.557001	0.000269	2.694420	0.456447	0.005388
 791	3.9500e-01	7.8949	11.590355	0.000334	3.335948	0.565125	0.006671
 792	3.9550e-01	7.9065	11.607888	0.000175	1.753511	0.297053	0.003507
 793	3.9600e-01	7.9242	11.660486	0.000526	5.260533	0.891158	0.010520
 794	3.9650e-01	7.9260	11.662196	0.000017	0.171074	0.028981	0.000342
 795	3.9700e-01	7.9361	11.696407	0.000342	3.421485	0.579615	0.006842
 796	3.9750e-01	7.9486	11.716933	0.000205	2.052891	0.347769	0.004105
 797	3.9800e-01	7.9585	11.757985	0.000411	4.105782	0.695538	0.008210
 798	3.9850e-01	7.9639	11.787063	0.000291	2.908262	0.492673	0.005816
 799	3.9900e-01	7.9733	11.812721	0.000257	2.566114	0.434711	0.005132
 800	3.9950e-01	7.9852	11.841371	0.000287	2.865494	0.485428	0.005730
 801	4.0000e-01	7.9962	11.867029	0.000257	2.566114	0.434711	0.005132
 802	4.0050e-01	8.0057	11.887555	0.000205	2.052891	0.347769	0.004105
 803	4.0100e-01	8.0170	11.926469	0.000389	3.891939	0.659312	0.007783
 804	4.0150e-01	8.0255	11.952554	0.000261	2.608882	0.441957	0.005217
 805	4.0200e-01	8.0347	11.982060	0.000295	2.951031	0.499918	0.005901
 806	4.0250e-01	8.0475	12.014560	0.000325	3.250411	0.550635	0.006500
 807	4.0300e-01	8.0582	12.019264	0.000047	0.470454	0.079697	0.000941
 808	4.0350e-01	8.0670	12.055612	0.000364	3.635328	0.615841	0.007270
 809	4.0400e-01	8.0774	12.080842	0.000252	2.523345	0.427466	0.005046
 810	4.0450e-01	8.0878	12.121466	0.000406	4.063014	0.688293	0.008125
 811	4.0500e-01	8.0966	12.141564	0.000201	2.010123	0.340524	0.004020
 812	4.0550e-01	8.1062	12.171498	0.000299	2.993799	0.507163	0.005987
 813	4.0600e-01	8.1177	12.196300	0.000248	2.480577	0.420221	0.004960
 814	4.0650e-01	8.1250	12.219392	0.000231	2.309502	0.391240	0.004618
 815	4.0700e-01	8.1366	12.250609	0.000312	3.122105	0.528899	0.006243
 816	4.0750e-01	8.1445	12.290378	0.000398	3.977476	0.673803	0.007954
 817	4.0800e-01	8.1543	12.322450	0.000321	3.207642	0.543389	0.006414
 818	4.0850e-01	8.1659	12.348535	0.000261	2.608882	0.441957	0.005217
 819	4.0900e-01	8.1757	12.375475	0.000269	2.694420	0.456447	0.005388
 820	4.0950e-01	8.1888	12.387877	0.000124	1.240288	0.210111	0.002480
 821	4.1000e-01	8.1976	12.417383	0.000295	2.951031	0.499918	0.005901
 822	4.1050e-01	8.2056	12.446034	0.000287	2.865494	0.485428	0.005730
 823	4.1100e-01	8.2178	12.493928	0.000479	4.790079	0.811461	0.009579
 824	4.1150e-01	8.2288	12.496921	0.000030	0.299380	0.050716	0.000599
 825	4.1200e-01	8.2361	12.523006	0.000261	2.608882	0.441957	0.005217
 826	4.1250e-01	8.2440	12.559354	0.000364	3.635328	0.615841	0.007270
 827	4.1300e-01	8.2574	12.586722	0.000274	2.737188	0.463692	0.005474
 828	4.1350e-01	8.2678	12.616656	0.000299	2.993799	0.507163	0.005987
 829	4.1400e-01	8.2788	12.650011	0.000334	3.335948	0.565125	0.006671
 830	4.1450e-01	8.2874	12.664550	0.000145	1.454131	0.246336	0.002908
 831	4.1500e-01	8.2935	12.691491	0.000269	2.694420	0.456447	0.005388
 832	4.1550e-01	8.3069	12.734681	0.000432	4.319625	0.731764	0.008638
 833	4.1600e-01	8.3176	12.752213	0.000175	1.753511	0.297053	0.003507
 834	4.1650e-01	8.3276	12.779154	0.000269	2.694420	0.456447	0.005388
 835	4.1700e-01	8.3353	12.813791	0.000346	3.464254	0.586860	0.006928
 836	4.1750e-01	8.3459	12.826620	0.000128	1.283057	0.217356	0.002566
 837	4.1800e-01	8.3545	12.865534	0.000389	3.891939	0.659312	0.007783
 838	4.1850e-01	8.3704	12.890764	0.000252	2.523345	0.427466	0.005046
 839	4.1900e-01	8.3768	12.907441	0.000167	1.667974	0.282562	0.003335
 840	4.1950e-01	8.3856	12.942934	0.000355	3.549791	0.601351	0.007099
 841	4.2000e-01	8.3960	12.977572	0.000346	3.464254	0.586860	0.006928
 842	4.2050e-01	8.4106	12.990401	0.000128	1.283057	0.217356	0.002566
 843	4.2100e-01	8.4198	13.022045	0.000316	3.164874	0.536144	0.006329
 844	4.2150e-01	8.4271	13.058393	0.000364	3.635328	0.615841	0.007270
 845	4.2200e-01	8.4375	13.076781	0.000184	1.839048	0.311543	0.003678
 846	4.2250e-01	8.4464	13.119543	0.000428	4.276856	0.724519	0.008553
 847	4.2300e-01	8.4558	13.138787	0.000192	1.924585	0.326034	0.003849
 848	4.2350e-01	8.4656	13.163589	0.000248	2.480577	0.420221	0.004960
 849	4.2400e-01	8.4766	13.184115	0.000205	2.052891	0.347769	0.004105
 850	4.2450e-01	8.4857	13.226450	0.000423	4.234088	0.717274	0.008467
 851	4.2500e-01	8.4949	13.246976	0.000205	2.052891	0.347769	0.004105
 852	4.2550e-01	8.5083	13.279903	0.000329	3.293179	0.557880	0.006585
 853	4.2600e-01	8.5165	13.289311	0.000094	0.940908	0.159394	0.001882
 854	4.2650e-01	8.5254	13.332501	0.000432	4.319625	0.731764	0.008638
 855	4.2700e-01	8.5349	13.358158	0.000257	2.566114	0.434711	0.005132
 856	4.2750e-01	8.5461	13.399638	0.000415	4.148551	0.702784	0.008296
 857	4.2800e-01	8.5541	13.418881	0.000192	1.924585	0.326034	0.003849
 858	4.2850e-01	8.5687	13.440262	0.000214	2.138428	0.362260	0.004276
 859	4.2900e-01	8.5765	13.463354	0.000231	2.309502	0.391240	0.004618
 860	4.2950e-01	8.5870	13.502268	0.000389	3.891939	0.659312	0.007783
 861	4.3000e-01	8.5968	13.529208	0.000269	2.694420	0.456447	0.005388
 862	4.3050e-01	8.6060	13.548452	0.000192	1.924585	0.326034	0.003849
 863	4.3100e-01	8.6163	13.576675	0.000282	2.822725	0.478183	0.005645
 864	4.3150e-01	8.6243	13.619010	0.000423	4.234088	0.717274	0.008467
 865	4.3200e-01	8.6356	13.647661	0.000287	2.865494	0.485428	0.005730
 866	4.3250e-01	8.6469	13.675884	0.000282	2.822725	0.478183	0.005645
 867	4.3300e-01	8.6566	13.690423	0.000145	1.454131	0.246336	0.002908
 868	4.3350e-01	8.6652	13.711377	0.000210	2.095660	0.355014	0.004191
 869	4.3400e-01	8.6774	13.748153	0.000368	3.678097	0.623086	0.007355
 870	4.3450e-01	8.6850	13.782790	0.000346	3.464254	0.586860	0.006928
 871	4.3500e-01	8.6951	13.808020	0.000252	2.523345	0.427466	0.005046
 872	4.3550e-01	8.7079	13.834533	0.000265	2.651651	0.449202	0.005303
 873	4.3600e-01	8.7170	13.852921	0.000184	1.839048	0.311543	0.003678
 874	4.3650e-01	8.7262	13.883710	0.000308	3.079337	0.521654	0.006158
 875	4.3700e-01	8.7354	13.923051	0.000393	3.934708	0.666558	0.007868
 876	4.3750e-01	8.7469	13.941439	0.000184	1.839048	0.311543	0.003678
 877	4.3800e-01	8.7579	13.969662	0.000282	2.822725	0.478183	0.005645
 878	4.3850e-01	8.7683	14.002590	0.000329	3.293179	0.557880	0.006585
 879	4.3900e-01	8.7738	14.038083	0.000355	3.549791	0.601351	0.007099
 880	4.3950e-01	8.7842	14.057326	0.000192	1.924585	0.326034	0.003849
 881	4.4000e-01	8.7964	14.087687	0.000304	3.036568	0.514409	0.006072
 882	4.4050e-01	8.8074	14.107358	0.000197	1.967354	0.333279	0.003934
 883	4.4100e-01	8.8159	14.143278	0.000359	3.592559	0.608596	0.007184
 884	4.4150e-01	8.8293	14.141568	-0.000017	-0.171074	-0.028981	-0.000342
 885	4.4200e-01	8.8373	14.153969	0.000124	1.240288	0.210111	0.002480
 886	4.4250e-01	8.8470	14.204429	0.000505	5.046691	0.854933	0.010092
 887	4.4300e-01	8.8599	14.257454	0.000530	5.303302	0.898404	0.010605
 888	4.4350e-01	8.8666	14.258310	0.000009	0.085537	0.014490	0.000171
 889	4.4400e-01	8.8757	14.293375	0.000351	3.507022	0.594106	0.007013
 890	4.4450e-01	8.8855	14.325874	0.000325	3.250411	0.550635	0.006500
 891	4.4500e-01	8.8956	14.345117	0.000192	1.924585	0.326034	0.003849
 892	4.4550e-01	8.9075	14.369492	0.000244	2.437808	0.412976	0.004875
 893	4.4600e-01	8.9172	14.408406	0.000389	3.891939	0.659312	0.007783
 894	4.4650e-01	8.9258	14.436629	0.000282	2.822725	0.478183	0.005645
 895	4.4700e-01	8.9343	14.474260	0.000376	3.763634	0.637577	0.007526
 896	4.4750e-01	8.9435	14.496924	0.000227	2.266734	0.383995	0.004533
 897	4.4800e-01	8.9560	14.520444	0.000235	2.352271	0.398485	0.004704
 898	4.4850e-01	8.9658	14.555937	0.000355	3.549791	0.601351	0.007099
 899	4.4900e-01	8.9766	14.575607	0.000197	1.967354	0.333279	0.003934
 900	4.4950e-01	8.9874	14.591857	0.000163	1.625205	0.275317	0.003250
 901	4.5000e-01	8.9978	14.610245	0.000184	1.839048	0.311543	0.003678
 902	4.5050e-01	9.0063	14.663271	0.000530	5.303302	0.898404	0.010605
 903	4.5100e-01	9.0152	14.690639	0.000274	2.737188	0.463692	0.005474
 904	4.5150e-01	9.0237	14.722283	0.000316	3.164874	0.536144	0.006329
 905	4.5200e-01	9.0363	14.744092	0.000218	2.181197	0.369505	0.004362
 906	4.5250e-01	9.0479	14.764618	0.000205	2.052891	0.347769	0.004105
 907	4.5300e-01	9.0552	14.790703	0.000261	2.608882	0.441957	0.005217
 908	4.5350e-01	9.0674	14.820637	0.000299	2.993799	0.507163	0.005987
 909	4.5400e-01	9.0741	14.850571	0.000299	2.993799	0.507163	0.005987
 910	4.5450e-01	9.0869	14.872807	0.000222	2.223965	0.376750	0.004447
 911	4.5500e-01	9.0985	14.903168	0.000304	3.036568	0.514409	0.006072
 912	4.5550e-01	9.1034	14.930964	0.000278	2.779957	0.470937	0.005559
 913	4.5600e-01	9.1171	14.973727	0.000428	4.276856	0.724519	0.008553
 914	4.5650e-01	9.1248	14.984417	0.000107	1.069214	0.181130	0.002138
 915	4.5700e-01	9.1357	15.021621	0.000372	3.720865	0.630332	0.007441
 916	4.5750e-01	9.1455	15.048989	0.000274	2.737188	0.463692	0.005474
 917	4.5800e-01	9.1547	15.066094	0.000171	1.710743	0.289808	0.003421
 918	4.5850e-01	9.1644	15.114843	0.000488	4.875616	0.825952	0.009750
 919	4.5900e-01	9.1772	15.128527	0.000137	1.368594	0.231846	0.002737
 920	4.5950e-01	9.1859	15.163165	0.000346	3.464254	0.586860	0.006928
 921	4.6000e-01	9.1980	15.181553	0.000184	1.839048	0.311543	0.003678
 922	4.6050e-01	9.2065	15.214480	0.000329	3.293179	0.557880	0.006585
 923	4.6100e-01	9.2169	15.237999	0.000235	2.352271	0.398485	0.004704
 924	4.6150e-01	9.2255	15.273492	0.000355	3.549791	0.601351	0.007099
 925	4.6200e-01	9.2343	15.315399	0.000419	4.191319	0.710029	0.008381
 926	4.6250e-01	9.2462	15.322241	0.000068	0.684297	0.115923	0.001368
 927	4.6300e-01	9.2578	15.358162	0.000359	3.592559	0.608596	0.007184
 928	4.6350e-01	9.2645	15.379543	0.000214	2.138428	0.362260	0.004276
 929	4.6400e-01	9.2761	15.416746	0.000372	3.720865	0.630332	0.007441
 930	4.6450e-01	9.2871	15.430430	0.000137	1.368594	0.231846	0.002737
 931	4.6500e-01	9.2981	15.458654	0.000282	2.822725	0.478183	0.005645
 932	4.6550e-01	9.3054	15.489870	0.000312	3.122105	0.528899	0.006243
 933	4.6600e-01	9.3152	15.521942	0.000321	3.207642	0.543389	0.006414
 934	4.6650e-01	9.3274	15.535199	0.000133	1.325825	0.224601	0.002651
 935	4.6700e-01	9.3378	15.567698	0.000325	3.250411	0.550635	0.006500
 936	4.6750e-01	9.3457	15.593356	0.000257	2.566114	0.434711	0.005132
 937	4.6800e-01	9.3549	15.619868	0.000265	2.651651	0.449202	0.005303
 938	4.6850e-01	9.3655	15.656217	0.000364	3.635328	0.615841	0.007270
 939	4.6900e-01	9.3756	15.692992	0.000368	3.678097	0.623086	0.007355
 940	4.6950e-01	9.3854	15.721643	0.000287	2.865494	0.485428	0.005730
 941	4.7000e-01	9.3958	15.742169	0.000205	2.052891	0.347769	0.004105
 942	4.7050e-01	9.4061	15.768254	0.000261	2.608882	0.441957	0.005217
 943	4.7100e-01	9.4196	15.800754	0.000325	3.250411	0.550635	0.006500
 944	4.7150e-01	9.4244	15.827694	0.000269	2.694420	0.456447	0.005388
 945	4.7200e-01	9.4385	15.861904	0.000342	3.421485	0.579615	0.006842
 946	4.7250e-01	9.4479	15.882430	0.000205	2.052891	0.347769	0.004105
 947	4.7300e-01	9.4556	15.913219	0.000308	3.079337	0.521654	0.006158
 948	4.7350e-01	9.4681	15.932462	0.000192	1.924585	0.326034	0.003849
 949	4.7400e-01	9.4745	15.961541	0.000291	2.908262	0.492673	0.005816
 950	4.7450e-01	9.4861	15.992330	0.000308	3.079337	0.521654	0.006158
 951	4.7500e-01	9.4946	16.033382	0.000411	4.105782	0.695538	0.008210
 952	4.7550e-01	9.5050	16.058612	0.000252	2.523345	0.427466	0.005046
 953	4.7600e-01	9.5178	16.082987	0.000244	2.437808	0.412976	0.004875
 954	4.7650e-01	9.5270	16.103940	0.000210	2.095660	0.355014	0.004191
 955	4.7700e-01	9.5355	16.142854	0.000389	3.891939	0.659312	0.007783
 956	4.7750e-01	9.5459	16.155255	0.000124	1.240288	0.210111	0.002480
 957	4.7800e-01	9.5551	16.187327	0.000321	3.207642	0.543389	0.006414
 958	4.7850e-01	9.5660	16.216406	0.000291	2.908262	0.492673	0.005816
 959	4.7900e-01	9.5752	16.252754	0.000364	3.635328	0.615841	0.007270
 960	4.7950e-01	9.5868	16.280549	0.000278	2.779957	0.470937	0.005559
 961	4.8000e-01	9.5959	16.308773	0.000282	2.822725	0.478183	0.005645
 962	4.8050e-01	9.6051	16.333147	0.000244	2.437808	0.412976	0.004875
 963	4.8100e-01	9.6161	16.360515	0.000274	2.737188	0.463692	0.005474
 964	4.8150e-01	9.6234	16.385745	0.000252	2.523345	0.427466	0.005046
 965	4.8200e-01	9.6338	16.435777	0.000500	5.003922	0.847687	0.010006
 966	4.8250e-01	9.6472	16.446040	0.000103	1.026446	0.173885	0.002053
 967	4.8300e-01	9.6539	16.477257	0.000312	3.122105	0.528899	0.006243
 968	4.8350e-01	9.6637	16.504625	0.000274	2.737188	0.463692	0.005474
 969	4.8400e-01	9.6753	16.524296	0.000197	1.967354	0.333279	0.003934
 970	4.8450e-01	9.6857	16.564065	0.000398	3.977476	0.673803	0.007954
 971	4.8500e-01	9.6954	16.587157	0.000231	2.309502	0.391240	0.004618
 972	4.8550e-01	9.7055	16.614097	0.000269	2.694420	0.456447	0.005388
 973	4.8600e-01	9.7156	16.658998	0.000449	4.490699	0.760745	0.008980
 974	4.8650e-01	9.7253	16.674820	0.000158	1.582437	0.268072	0.003164
 975	4.8700e-01	9.7345	16.715872	0.000411	4.105782	0.695538	0.008210
 976	4.8750e-01	9.7467	16.741530	0.000257	2.566114	0.434711	0.005132
 977	4.8800e-01	9.7540	16.774457	0.000329	3.293179	0.557880	0.006585
 978	4.8850e-01	9.7656	16.787285	0.000128	1.283057	0.217356	0.002566
 979	4.8900e-01	9.7827	16.833469	0.000462	4.619005	0.782481	0.009237
 980	4.8950e-01	9.7852	16.830903	-0.000026	-0.256611	-0.043471	-0.000513
 981	4.9000e-01	9.7943	16.868534	0.000376	3.763634	0.637577	0.007526
 982	4.9050e-01	9.8053	16.890343	0.000218	2.181197	0.369505	0.004362
 983	4.9100e-01	9.8157	16.923698	0.000334	3.335948	0.565125	0.006671
 984	4.9150e-01	9.8242	16.963895	0.000402	4.020245	0.681048	0.008039
 985	4.9200e-01	9.8370	16.983993	0.000201	2.010123	0.340524	0.004020
 986	4.9250e-01	9.8456	17.029749	0.000458	4.576236	0.775235	0.009151
 987	4.9300e-01	9.8572	17.052841	0.000231	2.309502	0.391240	0.004618
 988	4.9350e-01	9.8669	17.072084	0.000192	1.924585	0.326034	0.003849
 989	4.9400e-01	9.8767	17.110142	0.000381	3.806402	0.644822	0.007612
 990	4.9450e-01	9.8895	17.131524	0.000214	2.138428	0.362260	0.004276
 991	4.9500e-01	9.8962	17.167872	0.000364	3.635328	0.615841	0.007270
 992	4.9550e-01	9.9054	17.187970	0.000201	2.010123	0.340524	0.004020
 993	4.9600e-01	9.9146	17.229450	0.000415	4.148551	0.702784	0.008296
 994	4.9650e-01	9.9274	17.246127	0.000167	1.667974	0.282562	0.003335
 995	4.9700e-01	9.9365	17.278199	0.000321	3.207642	0.543389	0.006414
 996	4.9750e-01	9.9475	17.302146	0.000240	2.395040	0.405731	0.004789
 997	4.9800e-01	9.9554	17.338494	0.000364	3.635328	0.615841	0.007270
 998	4.9850e-01	9.9677	17.362869	0.000244	2.437808	0.412976	0.004875
 999	4.9900e-01	9.9750	17.400500	0.000376	3.763634	0.637577	0.007526
1000	4.9950e-01	9.9847	17.419743	0.000192	1.924585	0.326034	0.003849
1001	5.0000e-01	9.9945	17.455236	0.000355	3.549791	0.601351	0.007099
1002	5.0050e-01	9.9866	17.427440	0.000278	2.779957	0.470937	-0.005559
1003	5.0100e-01	9.9768	17.418888	0.000086	0.855371	0.144904	-0.001711
1004	5.0150e-01	9.9646	17.391520	0.000274	2.737188	0.463692	-0.005474
1005	5.0200e-01	9.9542	17.384678	0.000068	0.684297	0.115923	-0.001368
1006	5.0250e-01	9.9458	17.367145	0.000175	1.753511	0.297053	-0.003507
1007	5.0300e-01	9.9347	17.350468	0.000167	1.667974	0.282562	-0.003335
1008	5.0350e-01	9.9310	17.338067	0.000124	1.240288	0.210111	-0.002480
1009	5.0400e-01	9.9170	17.319251	0.000188	1.881817	0.318788	-0.003763
1010	5.0450e-01	9.9060	17.303001	0.000163	1.625205	0.275317	-0.003250
1011	5.0500e-01	9.8962	17.286752	0.000163	1.625205	0.275317	-0.003250
1012	5.0550e-01	9.8871	17.277344	0.000094	0.940908	0.159394	-0.001882
1013	5.0600e-01	9.8755	17.250831	0.000265	2.651651	0.449202	-0.005303
1014	5.0650e-01	9.8666	17.245700	0.000051	0.513223	0.086942	-0.001026
1015	5.0700e-01	9.8590	17.215766	0.000299	2.993799	0.507163	-0.005987
1016	5.0750e-01	9.8456	17.219615	-0.000038	-0.384917	-0.065207	0.000770
1017	5.0800e-01	9.8358	17.188398	0.000312	3.122105	0.528899	-0.006243
1018	5.0850e-01	9.8254	17.183694	0.000047	0.470454	0.079697	-0.000941
1019	5.0900e-01	9.8181	17.170865	0.000128	1.283057	0.217356	-0.002566
1020	5.0950e-01	9.8053	17.148629	0.000222	2.223965	0.376750	-0.004447
1021	5.1000e-01	9.7977	17.125965	0.000227	2.266734	0.383995	-0.004533
1022	5.1050e-01	9.7858	17.108860	0.000171	1.710743	0.289808	-0.003421
1023	5.1100e-01	9.7772	17.088761	0.000201	2.010123	0.340524	-0.004020
1024	5.1150e-01	9.7656	17.081492	0.000073	0.727066	0.123168	-0.001454
1025	5.1200e-01	9.7577	17.063104	0.000184	1.839048	0.311543	-0.003678
1026	5.1250e-01	9.7461	17.038729	0.000244	2.437808	0.412976	-0.004875
1027	5.1300e-01	9.7345	17.023335	0.000154	1.539668	0.260827	-0.003079
1028	5.1350e-01	9.7253	17.001098	0.000222	2.223965	0.376750	-0.004447
1029	5.1400e-01	9.7150	17.000670	0.000004	0.042769	0.007245	-0.000086
1030	5.1450e-01	9.7070	16.963895	0.000368	3.678097	0.623086	-0.007355
1031	5.1500e-01	9.6938	16.956625	0.000073	0.727066	0.123168	-0.001454
1032	5.1550e-01	9.6840	16.936099	0.000205	2.052891	0.347769	-0.004105
1033	5.1600e-01	9.6796	16.897185	0.000389	3.891939	0.659312	-0.007783
1034	5.1650e-01	9.6669	16.900606	-0.000034	-0.342149	-0.057962	0.000684
1035	5.1700e-01	9.6564	16.878370	0.000222	2.223965	0.376750	-0.004447
1036	5.1750e-01	9.6460	16.860837	0.000175	1.753511	0.297053	-0.003507
1037	5.1800e-01	9.6362	16.845442	0.000154	1.539668	0.260827	-0.003079
1038	5.1850e-01	9.6240	16.820213	0.000252	2.523345	0.427466	-0.005046
1039	5.1900e-01	9.6173	16.805246	0.000150	1.496900	0.253582	-0.002993
1040	5.1950e-01	9.6063	16.777022	0.000282	2.822725	0.478183	-0.005645
1041	5.2000e-01	9.5941	16.769325	0.000077	0.769834	0.130413	-0.001539
1042	5.2050e-01	9.5850	16.749654	0.000197	1.967354	0.333279	-0.003934
1043	5.2100e-01	9.5746	16.739391	0.000103	1.026446	0.173885	-0.002053
1044	5.2150e-01	9.5648	16.721003	0.000184	1.839048	0.311543	-0.003678
1045	5.2200e-01	9.5563	16.681662	0.000393	3.934708	0.666558	-0.007868
1046	5.2250e-01	9.5496	16.679524	0.000021	0.213843	0.036226	-0.000428
1047	5.2300e-01	9.5380	16.653866	0.000257	2.566114	0.434711	-0.005132
1048	5.2350e-01	9.5294	16.622222	0.000316	3.164874	0.536144	-0.006329
1049	5.2400e-01	9.5172	16.607255	0.000150	1.496900	0.253582	-0.002993
1050	5.2450e-01	9.5074	16.599130	0.000081	0.812603	0.137659	-0.001625
1051	5.2500e-01	9.4965	16.579887	0.000192	1.924585	0.326034	-0.003849
1052	5.2550e-01	9.4873	16.547815	0.000321	3.207642	0.543389	-0.006414
1053	5.2600e-01	9.4775	16.545250	0.000026	0.256611	0.043471	-0.000513
1054	5.2650e-01	9.4678	16.505480	0.000398	3.977476	0.673803	-0.007954
1055	5.2700e-01	9.4550	16.496073	0.000094	0.940908	0.159394	-0.001882
1056	5.2750e-01	9.4476	16.492224	0.000038	0.384917	0.065207	-0.000770
1057	5.2800e-01	9.4336	16.451172	0.000411	4.105782	0.695538	-0.008210
1058	5.2850e-01	9.4269	16.430218	0.000210	2.095660	0.355014	-0.004191
1059	5.2900e-01	9.4177	16.425942	0.000043	0.427686	0.072452	-0.000855
1060	5.2950e-01	9.4073	16.387028	0.000389	3.891939	0.659312	-0.007783
1061	5.3000e-01	9.3982	16.367785	0.000192	1.924585	0.326034	-0.003849
1062	5.3050e-01	9.3872	16.352818	0.000150	1.496900	0.253582	-0.002993
1063	5.3100e-01	9.3762	16.341272	0.000115	1.154751	0.195620	-0.002309
1064	5.3150e-01	9.3671	16.319463	0.000218	2.181197	0.369505	-0.004362
1065	5.3200e-01	9.3549	16.296799	0.000227	2.266734	0.383995	-0.004533
1066	5.3250e-01	9.3463	16.280549	0.000163	1.625205	0.275317	-0.003250
1067	5.3300e-01	9.3347	16.256175	0.000244	2.437808	0.412976	-0.004875
1068	5.3350e-01	9.3265	16.239070	0.000171	1.710743	0.289808	-0.003421
1069	5.3400e-01	9.3152	16.215550	0.000235	2.352271	0.398485	-0.004704
1070	5.3450e-01	9.3054	16.196735	0.000188	1.881817	0.318788	-0.003763
1071	5.3500e-01	9.2957	16.180058	0.000167	1.667974	0.282562	-0.003335
1072	5.3550e-01	9.2859	16.136440	0.000436	4.362394	0.739009	-0.008724
1073	5.3600e-01	9.2773	16.132591	0.000038	0.384917	0.065207	-0.000770
1074	5.3650e-01	9.2664	16.116341	0.000163	1.625205	0.275317	-0.003250
1075	5.3700e-01	9.2548	16.095815	0.000205	2.052891	0.347769	-0.004105
1076	5.3750e-01	9.2456	16.064599	0.000312	3.122105	0.528899	-0.006243
1077	5.3800e-01	9.2352	16.053480	0.000111	1.111983	0.188375	-0.002224
1078	5.3850e-01	9.2267	16.025257	0.000282	2.822725	0.478183	-0.005645
1079	5.3900e-01	9.2146	16.003876	0.000214	2.138428	0.362260	-0.004276
1080	5.3950e-01	9.2078	15.974797	0.000291	2.908262	0.492673	-0.005816
1081	5.4000e-01	9.1980	15.971376	0.000034	0.342149	0.057962	-0.000684
1082	5.4050e-01	9.1833	15.960686	0.000107	1.069214	0.181130	-0.002138
1083	5.4100e-01	9.1745	15.936739	0.000240	2.395040	0.405731	-0.004789
1084	5.4150e-01	9.1681	15.895687	0.000411	4.105782	0.695538	-0.008210
1085	5.4200e-01	9.1559	15.879437	0.000163	1.625205	0.275317	-0.003250
1086	5.4250e-01	9.1461	15.854635	0.000248	2.480577	0.420221	-0.004960
1087	5.4300e-01	9.1345	15.849076	0.000056	0.555991	0.094187	-0.001112
1088	5.4350e-01	9.1235	15.812300	0.000368	3.678097	0.623086	-0.007355
1089	5.4400e-01	9.1125	15.806313	0.000060	0.598760	0.101433	-0.001197
1090	5.4450e-01	9.1028	15.786215	0.000201	2.010123	0.340524	-0.004020
1091	5.4500e-01	9.0967	15.749011	0.000372	3.720865	0.630332	-0.007441
1092	5.4550e-01	9.0863	15.735327	0.000137	1.368594	0.231846	-0.002737
1093	5.4600e-01	9.0771	15.718650	0.000167	1.667974	0.282562	-0.003335
1094	5.4650e-01	9.0674	15.685723	0.000329	3.293179	0.557880	-0.006585
1095	5.4700e-01	9.0543	15.670328	0.000154	1.539668	0.260827	-0.003079
1096	5.4750e-01	9.0460	15.646381	0.000240	2.395040	0.405731	-0.004789
1097	5.4800e-01	9.0375	15.623289	0.000231	2.309502	0.391240	-0.004618
1098	5.4850e-01	9.0253	15.590362	0.000329	3.293179	0.557880	-0.006585
1099	5.4900e-01	9.0173	15.576678	0.000137	1.368594	0.231846	-0.002737
1100	5.4950e-01	9.0082	15.554014	0.000227	2.266734	0.383995	-0.004533
1101	5.5000e-01	8.9969	15.536909	0.000171	1.710743	0.289808	-0.003421
1102	5.5050e-01	8.9880	15.513817	0.000231	2.309502	0.391240	-0.004618
1103	5.5100e-01	8.9777	15.491581	0.000222	2.223965	0.376750	-0.004447
1104	5.5150e-01	8.9636	15.477897	0.000137	1.368594	0.231846	-0.002737
1105	5.5200e-01	8.9539	15.447963	0.000299	2.993799	0.507163	-0.005987
1106	5.5250e-01	8.9478	15.434707	0.000133	1.325825	0.224601	-0.002651
1107	5.5300e-01	8.9337	15.412043	0.000227	2.266734	0.383995	-0.004533
1108	5.5350e-01	8.9261	15.394938	0.000171	1.710743	0.289808	-0.003421
1109	5.5400e-01	8.9154	15.367997	0.000269	2.694420	0.456447	-0.005388
1110	5.5450e-01	8.9075	15.351747	0.000163	1.625205	0.275317	-0.003250
1111	5.5500e-01	8.8959	15.312406	0.000393	3.934708	0.666558	-0.007868
1112	5.5550e-01	8.8861	15.287176	0.000252	2.523345	0.427466	-0.005046
1113	5.5600e-01	8.8751	15.285038	0.000021	0.213843	0.036226	-0.000428
1114	5.5650e-01	8.8666	15.244841	0.000402	4.020245	0.681048	-0.008039
1115	5.5700e-01	8.8586	15.232868	0.000120	1.197520	0.202865	-0.002395
1116	5.5750e-01	8.8446	15.201651	0.000312	3.122105	0.528899	-0.006243
1117	5.5800e-01	8.8367	15.181980	0.000197	1.967354	0.333279	-0.003934
1118	5.5850e-01	8.8269	15.159316	0.000227	2.266734	0.383995	-0.004533
1119	5.5900e-01	8.8147	15.166158	-0.000068	-0.684297	-0.115923	0.001368
1120	5.5950e-01	8.8043	15.123395	0.000428	4.276856	0.724519	-0.008553
1121	5.6000e-01	8.7988	15.091751	0.000316	3.164874	0.536144	-0.006329
1122	5.6050e-01	8.7857	15.082771	0.000090	0.898140	0.152149	-0.001796
1123	5.6100e-01	8.7778	15.056258	0.000265	2.651651	0.449202	-0.005303
1124	5.6150e-01	8.7640	15.038726	0.000175	1.753511	0.297053	-0.003507
1125	5.6200e-01	8.7564	15.014351	0.000244	2.437808	0.412976	-0.004875
1126	5.6250e-01	8.7457	14.993825	0.000205	2.052891	0.347769	-0.004105
1127	5.6300e-01	8.7372	14.959615	0.000342	3.421485	0.579615	-0.006842
1128	5.6350e-01	8.7268	14.943793	0.000158	1.582437	0.268072	-0.003164
1129	5.6400e-01	8.7189	14.920273	0.000235	2.352271	0.398485	-0.004704
1130	5.6450e-01	8.7061	14.898465	0.000218	2.181197	0.369505	-0.004362
1131	5.6500e-01	8.6951	14.881787	0.000167	1.667974	0.282562	-0.003335
1132	5.6550e-01	8.6871	14.860834	0.000210	2.095660	0.355014	-0.004191
1133	5.6600e-01	8.6774	14.822775	0.000381	3.806402	0.644822	-0.007612
1134	5.6650e-01	8.6670	14.800966	0.000218	2.181197	0.369505	-0.004362
1135	5.6700e-01	8.6536	14.794552	0.000064	0.641528	0.108678	-0.001283
1136	5.6750e-01	8.6469	14.759914	0.000346	3.464254	0.586860	-0.006928
1137	5.6800e-01	8.6395	14.742809	0.000171	1.710743	0.289808	-0.003421
1138	5.6850e-01	8.6255	14.718007	0.000248	2.480577	0.420221	-0.004960
1139	5.6900e-01	8.6188	14.697053	0.000210	2.095660	0.355014	-0.004191
1140	5.6950e-01	8.6060	14.668402	0.000287	2.865494	0.485428	-0.005730
1141	5.7000e-01	8.5968	14.644883	0.000235	2.352271	0.398485	-0.004704
1142	5.7050e-01	8.5864	14.624784	0.000201	2.010123	0.340524	-0.004020
1143	5.7100e-01	8.5760	14.617515	0.000073	0.727066	0.123168	-0.001454
1144	5.7150e-01	8.5675	14.586298	0.000312	3.122105	0.528899	-0.006243
1145	5.7200e-01	8.5553	14.563206	0.000231	2.309502	0.391240	-0.004618
1146	5.7250e-01	8.5480	14.527286	0.000359	3.592559	0.608596	-0.007184
1147	5.7300e-01	8.5370	14.517450	0.000098	0.983677	0.166639	-0.001967
1148	5.7350e-01	8.5284	14.491793	0.000257	2.566114	0.434711	-0.005132
1149	5.7400e-01	8.5175	14.461859	0.000299	2.993799	0.507163	-0.005987
1150	5.7450e-01	8.5034	14.447320	0.000145	1.454131	0.246336	-0.002908
1151	5.7500e-01	8.4967	14.418669	0.000287	2.865494	0.485428	-0.005730
1152	5.7550e-01	8.4875	14.395577	0.000231	2.309502	0.391240	-0.004618
1153	5.7600e-01	8.4747	14.376334	0.000192	1.924585	0.326034	-0.003849
1154	5.7650e-01	8.4656	14.359229	0.000171	1.710743	0.289808	-0.003421
1155	5.7700e-01	8.4564	14.336565	0.000227	2.266734	0.383995	-0.004533
1156	5.7750e-01	8.4467	14.316467	0.000201	2.010123	0.340524	-0.004020
1157	5.7800e-01	8.4363	14.295085	0.000214	2.138428	0.362260	-0.004276
1158	5.7850e-01	8.4253	14.263013	0.000321	3.207642	0.543389	-0.006414
1159	5.7900e-01	8.4155	14.244198	0.000188	1.881817	0.318788	-0.003763
1160	5.7950e-01	8.4064	14.209560	0.000346	3.464254	0.586860	-0.006928
1161	5.8000e-01	8.3972	14.192028	0.000175	1.753511	0.297053	-0.003507
1162	5.8050e-01	8.3890	14.152258	0.000398	3.977476	0.673803	-0.007954
1163	5.8100e-01	8.3752	14.152686	-0.000004	-0.042769	-0.007245	0.000086
1164	5.8150e-01	8.3661	14.111206	0.000415	4.148551	0.702784	-0.008296
1165	5.8200e-01	8.3536	14.085121	0.000261	2.608882	0.441957	-0.005217
1166	5.8250e-01	8.3453	14.058181	0.000269	2.694420	0.456447	-0.005388
1167	5.8300e-01	8.3374	14.057753	0.000004	0.042769	0.007245	-0.000086
1168	5.8350e-01	8.3246	14.030385	0.000274	2.737188	0.463692	-0.005474
1169	5.8400e-01	8.3154	14.010287	0.000201	2.010123	0.340524	-0.004020
1170	5.8450e-01	8.3032	13.992327	0.000180	1.796280	0.304298	-0.003592
1171	5.8500e-01	8.2941	13.961538	0.000308	3.079337	0.521654	-0.006158
1172	5.8550e-01	8.2869	13.941012	0.000205	2.052891	0.347769	-0.004105
1173	5.8600e-01	8.2758	13.915782	0.000252	2.523345	0.427466	-0.005046
1174	5.8650e-01	8.2660	13.898677	0.000171	1.710743	0.289808	-0.003421
1175	5.8700e-01	8.2593	13.855487	0.000432	4.319625	0.731764	-0.008638
1176	5.8750e-01	8.2446	13.851638	0.000038	0.384917	0.065207	-0.000770
1177	5.8800e-01	8.2367	13.820849	0.000308	3.079337	0.521654	-0.006158
1178	5.8850e-01	8.2260	13.792198	0.000287	2.865494	0.485428	-0.005730
1179	5.8900e-01	8.2185	13.761837	0.000304	3.036568	0.514409	-0.006072
1180	5.8950e-01	8.2053	13.743449	0.000184	1.839048	0.311543	-0.003678
1181	5.9000e-01	8.1937	13.733613	0.000098	0.983677	0.166639	-0.001967
1182	5.9050e-01	8.1848	13.701114	0.000325	3.250411	0.550635	-0.006500
1183	5.9100e-01	8.1757	13.677594	0.000235	2.352271	0.398485	-0.004704
1184	5.9150e-01	8.1683	13.658779	0.000188	1.881817	0.318788	-0.003763
1185	5.9200e-01	8.1555	13.633121	0.000257	2.566114	0.434711	-0.005132
1186	5.9250e-01	8.1470	13.607464	0.000257	2.566114	0.434711	-0.005132
1187	5.9300e-01	8.1366	13.591642	0.000158	1.582437	0.268072	-0.003164
1188	5.9350e-01	8.1256	13.538189	0.000535	5.346070	0.905649	-0.010691
1189	5.9400e-01	8.1165	13.532629	0.000056	0.555991	0.094187	-0.001112
1190	5.9450e-01	8.1067	13.515097	0.000175	1.753511	0.297053	-0.003507
1191	5.9500e-01	8.0930	13.487729	0.000274	2.737188	0.463692	-0.005474
1192	5.9550e-01	8.0878	13.477893	0.000098	0.983677	0.166639	-0.001967
1193	5.9600e-01	8.0780	13.438124	0.000398	3.977476	0.673803	-0.007954
1194	5.9650e-01	8.0658	13.418026	0.000201	2.010123	0.340524	-0.004020
1195	5.9700e-01	8.0551	13.379112	0.000389	3.891939	0.659312	-0.007783
1196	5.9750e-01	8.0450	13.373553	0.000056	0.555991	0.094187	-0.001112
1197	5.9800e-01	8.0359	13.359014	0.000145	1.454131	0.246336	-0.002908
1198	5.9850e-01	8.0258	13.315823	0.000432	4.319625	0.731764	-0.008638
1199	5.9900e-01	8.0170	13.292304	0.000235	2.352271	0.398485	-0.004704
1200	5.9950e-01	8.0087	13.265364	0.000269	2.694420	0.456447	-0.005388
1201	6.0000e-01	7.9974	13.243982	0.000214	2.138428	0.362260	-0.004276
1202	6.0050e-01	7.9858	13.221318	0.000227	2.266734	0.383995	-0.004533
1203	6.0100e-01	7.9761	13.206779	0.000145	1.454131	0.246336	-0.002908
1204	6.0150e-01	7.9651	13.172569	0.000342	3.421485	0.579615	-0.006842
1205	6.0200e-01	7.9578	13.155036	0.000175	1.753511	0.297053	-0.003507
1206	6.0250e-01	7.9449	13.127668	0.000274	2.737188	0.463692	-0.005474
1207	6.0300e-01	7.9388	13.115267	0.000124	1.240288	0.210111	-0.002480
1208	6.0350e-01	7.9266	13.066090	0.000492	4.918385	0.833197	-0.009835
1209	6.0400e-01	7.9156	13.060104	0.000060	0.598760	0.101433	-0.001197
1210	6.0450e-01	7.9059	13.020762	0.000393	3.934708	0.666558	-0.007868
1211	6.0500e-01	7.8949	12.989973	0.000308	3.079337	0.521654	-0.006158
1212	6.0550e-01	7.8857	12.986980	0.000030	0.299380	0.050716	-0.000599
1213	6.0600e-01	7.8763	12.951914	0.000351	3.507022	0.594106	-0.007013
1214	6.0650e-01	7.8680	12.943362	0.000086	0.855371	0.144904	-0.001711
1215	6.0700e-01	7.8571	12.915139	0.000282	2.822725	0.478183	-0.005645
1216	6.0750e-01	7.8467	12.890764	0.000244	2.437808	0.412976	-0.004875
1217	6.0800e-01	7.8363	12.868100	0.000227	2.266734	0.383995	-0.004533
1218	6.0850e-01	7.8296	12.839876	0.000282	2.822725	0.478183	-0.005645
1219	6.0900e-01	7.8162	12.813791	0.000261	2.608882	0.441957	-0.005217
1220	6.0950e-01	7.8046	12.798824	0.000150	1.496900	0.253582	-0.002993
1221	6.1000e-01	7.7954	12.761193	0.000376	3.763634	0.637577	-0.007526
1222	6.1050e-01	7.7846	12.735964	0.000252	2.523345	0.427466	-0.005046
1223	6.1100e-01	7.7747	12.718003	0.000180	1.796280	0.304298	-0.003592
1224	6.1150e-01	7.7643	12.688070	0.000299	2.993799	0.507163	-0.005987
1225	6.1200e-01	7.7557	12.665833	0.000222	2.223965	0.376750	-0.004447
1226	6.1250e-01	7.7478	12.634189	0.000316	3.164874	0.536144	-0.006329
1227	6.1300e-01	7.7356	12.616228	0.000180	1.796280	0.304298	-0.003592
1228	6.1350e-01	7.7264	12.591426	0.000248	2.480577	0.420221	-0.004960
1229	6.1400e-01	7.7155	12.568762	0.000227	2.266734	0.383995	-0.004533
1230	6.1450e-01	7.7051	12.548664	0.000201	2.010123	0.340524	-0.004020
1231	6.1500e-01	7.6973	12.514026	0.000346	3.464254	0.586860	-0.006928
1232	6.1550e-01	7.6886	12.499487	0.000145	1.454131	0.246336	-0.002908
1233	6.1600e-01	7.6740	12.480244	0.000192	1.924585	0.326034	-0.003849
1234	6.1650e-01	7.6648	12.457152	0.000231	2.309502	0.391240	-0.004618
1235	6.1700e-01	7.6550	12.417383	0.000398	3.977476	0.673803	-0.007954
1236	6.1750e-01	7.6459	12.398140	0.000192	1.924585	0.326034	-0.003849
1237	6.1800e-01	7.6361	12.374193	0.000240	2.395040	0.405731	-0.004789
1238	6.1850e-01	7.6266	12.335706	0.000385	3.849171	0.652067	-0.007697
1239	6.1900e-01	7.6184	12.322878	0.000128	1.283057	0.217356	-0.002566
1240	6.1950e-01	7.6070	12.283964	0.000389	3.891939	0.659312	-0.007783
1241	6.2000e-01	7.5989	12.266859	0.000171	1.710743	0.289808	-0.003421
1242	6.2050e-01	7.5848	12.248898	0.000180	1.796280	0.304298	-0.003592
1243	6.2100e-01	7.5775	12.224096	0.000248	2.480577	0.420221	-0.004960
1244	6.2150e-01	7.5684	12.195018	0.000291	2.908262	0.492673	-0.005816
1245	6.2200e-01	7.5555	12.179623	0.000154	1.539668	0.260827	-0.003079
1246	6.2250e-01	7.5470	12.135578	0.000441	4.405162	0.746255	-0.008809
1247	6.2300e-01	7.5360	12.121894	0.000137	1.368594	0.231846	-0.002737
1248	6.2350e-01	7.5269	12.092388	0.000295	2.951031	0.499918	-0.005901
1249	6.2400e-01	7.5174	12.066730	0.000257	2.566114	0.434711	-0.005132
1250	6.2450e-01	7.5067	12.035086	0.000316	3.164874	0.536144	-0.006329
1251	6.2500e-01	7.4976	12.024823	0.000103	1.026446	0.173885	-0.002053
1252	6.2550e-01	7.4863	11.985054	0.000398	3.977476	0.673803	-0.007954
1253	6.2600e-01	7.4725	11.969659	0.000154	1.539668	0.260827	-0.003079
1254	6.2650e-01	7.4689	11.922620	0.000470	4.704542	0.796971	-0.009408
1255	6.2700e-01	7.4585	11.931173	-0.000086	-0.855371	-0.144904	0.001711
1256	6.2750e-01	7.4463	11.893969	0.000372	3.720865	0.630332	-0.007441
1257	6.2800e-01	7.4371	11.880713	0.000133	1.325825	0.224601	-0.002651
1258	6.2850e-01	7.4222	11.844792	0.000359	3.592559	0.608596	-0.007184
1259	6.2900e-01	7.4167	11.814003	0.000308	3.079337	0.521654	-0.006158
1260	6.2950e-01	7.4063	11.790056	0.000240	2.395040	0.405731	-0.004789
1261	6.3000e-01	7.3950	11.763544	0.000265	2.651651	0.449202	-0.005303
1262	6.3050e-01	7.3859	11.747294	0.000163	1.625205	0.275317	-0.003250
1263	6.3100e-01	7.3746	11.710518	0.000368	3.678097	0.623086	-0.007355
1264	6.3150e-01	7.3645	11.703676	0.000068	0.684297	0.115923	-0.001368
1265	6.3200e-01	7.3543	11.681867	0.000218	2.181197	0.369505	-0.004362
1266	6.3250e-01	7.3462	11.647657	0.000342	3.421485	0.579615	-0.006842
1267	6.3300e-01	7.3358	11.622427	0.000252	2.523345	0.427466	-0.005046
1268	6.3350e-01	7.3248	11.601474	0.000210	2.095660	0.355014	-0.004191
1269	6.3400e-01	7.3135	11.577527	0.000240	2.395040	0.405731	-0.004789
1270	6.3450e-01	7.3093	11.531343	0.000462	4.619005	0.782481	-0.009237
1271	6.3500e-01	7.2951	11.518942	0.000124	1.240288	0.210111	-0.002480
1272	6.3550e-01	7.2858	11.488581	0.000304	3.036568	0.514409	-0.006072
1273	6.3600e-01	7.2760	11.473186	0.000154	1.539668	0.260827	-0.003079
1274	6.3650e-01	7.2672	11.441969	0.000312	3.122105	0.528899	-0.006243
1275	6.3700e-01	7.2552	11.411608	0.000304	3.036568	0.514409	-0.006072
1276	6.3750e-01	7.2455	11.393220	0.000184	1.839048	0.311543	-0.003678
1277	6.3800e-01	7.2351	11.345326	0.000479	4.790079	0.811461	-0.009579
1278	6.3850e-01	7.2243	11.345754	-0.000004	-0.042769	-0.007245	0.000086
1279	6.3900e-01	7.2166	11.308550	0.000372	3.720865	0.630332	-0.007441
1280	6.3950e-01	7.2046	11.285459	0.000231	2.309502	0.391240	-0.004618
1281	6.4000e-01	7.1967	11.262794	0.000227	2.266734	0.383995	-0.004533
1282	6.4050e-01	7.1863	11.239275	0.000235	2.352271	0.398485	-0.004704
1283	6.4100e-01	7.1768	11.205493	0.000338	3.378717	0.572370	-0.006756
1284	6.4150e-01	7.1661	11.175987	0.000295	2.951031	0.499918	-0.005901
1285	6.4200e-01	7.1555	11.156316	0.000197	1.967354	0.333279	-0.003934
1286	6.4250e-01	7.1448	11.140921	0.000154	1.539668	0.260827	-0.003079
1287	6.4300e-01	7.1368	11.105001	0.000359	3.592559	0.608596	-0.007184
1288	6.4350e-01	7.1265	11.081909	0.000231	2.309502	0.391240	-0.004618
1289	6.4400e-01	7.1185	11.057962	0.000240	2.395040	0.405731	-0.004789
1290	6.4450e-01	7.1082	11.028028	0.000299	2.993799	0.507163	-0.005987
1291	6.4500e-01	7.0955	11.014772	0.000133	1.325825	0.224601	-0.002651
1292	6.4550e-01	7.0865	10.975858	0.000389	3.891939	0.659312	-0.007783
1293	6.4600e-01	7.0764	10.958325	0.000175	1.753511	0.297053	-0.003507
1294	6.4650e-01	7.0654	10.924971	0.000334	3.335948	0.565125	-0.006671
1295	6.4700e-01	7.0569	10.908293	0.000167	1.667974	0.282562	-0.003335
1296	6.4750e-01	7.0471	10.874083	0.000342	3.421485	0.579615	-0.006842
1297	6.4800e-01	7.0367	10.845005	0.000291	2.908262	0.492673	-0.005816
1298	6.4850e-01	7.0294	10.827472	0.000175	1.753511	0.297053	-0.003507
1299	6.4900e-01	7.0163	10.801387	0.000261	2.608882	0.441957	-0.005217
1300	6.4950e-01	7.0050	10.765466	0.000359	3.592559	0.608596	-0.007184
1301	6.5000e-01	6.9958	10.747078	0.000184	1.839048	0.311543	-0.003678
1302	6.5050e-01	6.9855	10.712441	0.000346	3.464254	0.586860	-0.006928
1303	6.5100e-01	6.9766	10.699184	0.000133	1.325825	0.224601	-0.002651
1304	6.5150e-01	6.9672	10.653856	0.000453	4.533468	0.767990	-0.009066
1305	6.5200e-01	6.9543	10.647014	0.000068	0.684297	0.115923	-0.001368
1306	6.5250e-01	6.9446	10.622639	0.000244	2.437808	0.412976	-0.004875
1307	6.5300e-01	6.9348	10.585008	0.000376	3.763634	0.637577	-0.007526
1308	6.5350e-01	6.9269	10.559351	0.000257	2.566114	0.434711	-0.005132
1309	6.5400e-01	6.9174	10.531555	0.000278	2.779957	0.470937	-0.005559
1310	6.5450e-01	6.9061	10.510602	0.000210	2.095660	0.355014	-0.004191
1311	6.5500e-01	6.8994	10.481523	0.000291	2.908262	0.492673	-0.005816
1312	6.5550e-01	6.8854	10.450306	0.000312	3.122105	0.528899	-0.006243
1313	6.5600e-01	6.8777	10.434057	0.000163	1.625205	0.275317	-0.003250
1314	6.5650e-01	6.8677	10.398136	0.000359	3.592559	0.608596	-0.007184
1315	6.5700e-01	6.8579	10.377183	0.000210	2.095660	0.355014	-0.004191
1316	6.5750e-01	6.8472	10.340834	0.000364	3.635328	0.615841	-0.007270
1317	6.5800e-01	6.8390	10.316032	0.000248	2.480577	0.420221	-0.004960
1318	6.5850e-01	6.8280	10.300638	0.000154	1.539668	0.260827	-0.003079
1319	6.5900e-01	6.8161	10.271987	0.000287	2.865494	0.485428	-0.005730
1320	6.5950e-01	6.8066	10.251033	0.000210	2.095660	0.355014	-0.004191
1321	6.6000e-01	6.7947	10.217678	0.000334	3.335948	0.565125	-0.006671
1322	6.6050e-01	6.7853	10.195869	0.000218	2.181197	0.369505	-0.004362
1323	6.6100e-01	6.7752	10.175771	0.000201	2.010123	0.340524	-0.004020
1324	6.6150e-01	6.7633	10.141989	0.000338	3.378717	0.572370	-0.006756
1325	6.6200e-01	6.7548	10.114193	0.000278	2.779957	0.470937	-0.005559
1326	6.6250e-01	6.7444	10.083832	0.000304	3.036568	0.514409	-0.006072
1327	6.6300e-01	6.7358	10.061167	0.000227	2.266734	0.383995	-0.004533
1328	6.6350e-01	6.7261	10.035082	0.000261	2.608882	0.441957	-0.005217
1329	6.6400e-01	6.7169	10.003010	0.000321	3.207642	0.543389	-0.006414
1330	6.6450e-01	6.7078	9.983340	0.000197	1.967354	0.333279	-0.003934
1331	6.6500e-01	6.6991	9.946136	0.000372	3.720865	0.630332	-0.007441
1332	6.6550e-01	6.6858	9.910643	0.000355	3.549791	0.601351	-0.007099
1333	6.6600e-01	6.6760	9.901663	0.000090	0.898140	0.152149	-0.001796
1334	6.6650e-01	6.6638	9.878999	0.000227	2.266734	0.383995	-0.004533
1335	6.6700e-01	6.6534	9.848210	0.000308	3.079337	0.521654	-0.006158
1336	6.6750e-01	6.6455	9.802454	0.000458	4.576236	0.775235	-0.009151
1337	6.6800e-01	6.6382	9.794757	0.000077	0.769834	0.130413	-0.001539
1338	6.6850e-01	6.6267	9.772520	0.000222	2.223965	0.376750	-0.004447
1339	6.6900e-01	6.6132	9.747718	0.000248	2.480577	0.420221	-0.004960
1340	6.6950e-01	6.6052	9.719495	0.000282	2.822725	0.478183	-0.005645
1341	6.7000e-01	6.5979	9.689133	0.000304	3.036568	0.514409	-0.006072
1342	6.7050e-01	6.5887	9.641239	0.000479	4.790079	0.811461	-0.009579
1343	6.7100e-01	6.5755	9.624562	0.000167	1.667974	0.282562	-0.003335
1344	6.7150e-01	6.5671	9.586076	0.000385	3.849171	0.652067	-0.007697
1345	6.7200e-01	6.5576	9.568971	0.000171	1.710743	0.289808	-0.003421
1346	6.7250e-01	6.5472	9.543741	0.000252	2.523345	0.427466	-0.005046
1347	6.7300e-01	6.5350	9.515945	0.000278	2.779957	0.470937	-0.005559
1348	6.7350e-01	6.5234	9.489860	0.000261	2.608882	0.441957	-0.005217
1349	6.7400e-01	6.5176	9.466341	0.000235	2.352271	0.398485	-0.004704
1350	6.7450e-01	6.5144	9.437690	0.000287	2.865494	0.485428	-0.005730
1351	6.7500e-01	6.4990	9.412460	0.000252	2.523345	0.427466	-0.005046
1352	6.7550e-01	6.4868	9.384664	0.000278	2.779957	0.470937	-0.005559
1353	6.7600e-01	6.4746	9.366276	0.000184	1.839048	0.311543	-0.003678
1354	6.7650e-01	6.4667	9.344468	0.000218	2.181197	0.369505	-0.004362
1355	6.7700e-01	6.4575	9.306409	0.000381	3.806402	0.644822	-0.007612
1356	6.7750e-01	6.4459	9.280324	0.000261	2.608882	0.441957	-0.005217
1357	6.7800e-01	6.4343	9.239272	0.000411	4.105782	0.695538	-0.008210
1358	6.7850e-01	6.4252	9.223450	0.000158	1.582437	0.268072	-0.003164
1359	6.7900e-01	6.4157	9.192233	0.000312	3.122105	0.528899	-0.006243
1360	6.7950e-01	6.4050	9.181970	0.000103	1.026446	0.173885	-0.002053
1361	6.8000e-01	6.3962	9.130655	0.000513	5.132228	0.869423	-0.010263
1362	6.8050e-01	6.3849	9.122102	0.000086	0.855371	0.144904	-0.001711
1363	6.8100e-01	6.3757	9.081478	0.000406	4.063014	0.688293	-0.008125
1364	6.8150e-01	6.3669	9.051117	0.000304	3.036568	0.514409	-0.006072
1365	6.8200e-01	6.3574	9.030163	0.000210	2.095660	0.355014	-0.004191
1366	6.8250e-01	6.3464	9.003650	0.000265	2.651651	0.449202	-0.005303
1367	6.8300e-01	6.3367	8.977993	0.000257	2.566114	0.434711	-0.005132
1368	6.8350e-01	6.3251	8.951480	0.000265	2.651651	0.449202	-0.005303
1369	6.8400e-01	6.3177	8.913849	0.000376	3.763634	0.637577	-0.007526
1370	6.8450e-01	6.3049	8.886053	0.000278	2.779957	0.470937	-0.005559
1371	6.8500e-01	6.2935	8.877073	0.000090	0.898140	0.152149	-0.001796
1372	6.8550e-01	6.2857	8.836449	0.000406	4.063014	0.688293	-0.008125
1373	6.8600e-01	6.2766	8.814640	0.000218	2.181197	0.369505	-0.004362
1374	6.8650e-01	6.2668	8.774443	0.000402	4.020245	0.681048	-0.008039
1375	6.8700e-01	6.2555	8.758621	0.000158	1.582437	0.268072	-0.003164
1376	6.8750e-01	6.2488	8.716286	0.000423	4.234088	0.717274	-0.008467
1377	6.8800e-01	6.2384	8.699181	0.000171	1.710743	0.289808	-0.003421
1378	6.8850e-01	6.2262	8.669675	0.000295	2.951031	0.499918	-0.005901
1379	6.8900e-01	6.2161	8.638886	0.000308	3.079337	0.521654	-0.006158
1380	6.8950e-01	6.2048	8.614084	0.000248	2.480577	0.420221	-0.004960
1381	6.9000e-01	6.1945	8.601255	0.000128	1.283057	0.217356	-0.002566
1382	6.9050e-01	6.1841	8.566617	0.000346	3.464254	0.586860	-0.006928
1383	6.9100e-01	6.1755	8.536683	0.000299	2.993799	0.507163	-0.005987
1384	6.9150e-01	6.1664	8.499908	0.000368	3.678097	0.623086	-0.007355
1385	6.9200e-01	6.1584	8.473822	0.000261	2.608882	0.441957	-0.005217
1386	6.9250e-01	6.1432	8.456717	0.000171	1.710743	0.289808	-0.003421
1387	6.9300e-01	6.1340	8.429777	0.000269	2.694420	0.456447	-0.005388
1388	6.9350e-01	6.1270	8.389580	0.000402	4.020245	0.681048	-0.008039
1389	6.9400e-01	6.1157	8.368627	0.000210	2.095660	0.355014	-0.004191
1390	6.9450e-01	6.1053	8.346390	0.000222	2.223965	0.376750	-0.004447
1391	6.9500e-01	6.0974	8.305338	0.000411	4.105782	0.695538	-0.008210
1392	6.9550e-01	6.0870	8.293365	0.000120	1.197520	0.202865	-0.002395
1393	6.9600e-01	6.0791	8.252740	0.000406	4.063014	0.688293	-0.008125
1394	6.9650e-01	6.0684	8.227083	0.000257	2.566114	0.434711	-0.005132
1395	6.9700e-01	6.0559	8.202280	0.000248	2.480577	0.420221	-0.004960
1396	6.9750e-01	6.0504	8.162084	0.000402	4.020245	0.681048	-0.008039
1397	6.9800e-01	6.0382	8.127874	0.000342	3.421485	0.579615	-0.006842
1398	6.9850e-01	6.0269	8.103071	0.000248	2.480577	0.420221	-0.004960
1399	6.9900e-01	6.0168	8.100078	0.000030	0.299380	0.050716	-0.000599
1400	6.9950e-01	6.0065	8.057743	0.000423	4.234088	0.717274	-0.008467
1401	7.0000e-01	5.9993	8.031658	0.000261	2.608882	0.441957	-0.005217
1402	7.0050e-01	5.9894	8.006428	0.000252	2.523345	0.427466	-0.005046
1403	7.0100e-01	5.9766	7.972218	0.000342	3.421485	0.579615	-0.006842
1404	7.0150e-01	5.9653	7.946133	0.000261	2.608882	0.441957	-0.005217
1405	7.0200e-01	5.9589	7.915771	0.000304	3.036568	0.514409	-0.006072
1406	7.0250e-01	5.9460	7.893535	0.000222	2.223965	0.376750	-0.004447
1407	7.0300e-01	5.9375	7.853338	0.000402	4.020245	0.681048	-0.008039
1408	7.0350e-01	5.9268	7.831957	0.000214	2.138428	0.362260	-0.004276
1409	7.0400e-01	5.9161	7.813997	0.000180	1.796280	0.304298	-0.003592
1410	7.0450e-01	5.9058	7.776366	0.000376	3.763634	0.637577	-0.007526
1411	7.0500e-01	5.8960	7.745149	0.000312	3.122105	0.528899	-0.006243
1412	7.0550e-01	5.8862	7.717781	0.000274	2.737188	0.463692	-0.005474
1413	7.0600e-01	5.8765	7.688275	0.000295	2.951031	0.499918	-0.005901
1414	7.0650e-01	5.8678	7.670742	0.000175	1.753511	0.297053	-0.003507
1415	7.0700e-01	5.8551	7.644229	0.000265	2.651651	0.449202	-0.005303
1416	7.0750e-01	5.8420	7.612158	0.000321	3.207642	0.543389	-0.006414
1417	7.0800e-01	5.8350	7.583934	0.000282	2.822725	0.478183	-0.005645
1418	7.0850e-01	5.8276	7.542027	0.000419	4.191319	0.710029	-0.008381
1419	7.0900e-01	5.8154	7.517225	0.000248	2.480577	0.420221	-0.004960
1420	7.0950e-01	5.8032	7.500975	0.000163	1.625205	0.275317	-0.003250
1421	7.1000e-01	5.7980	7.461633	0.000393	3.934708	0.666558	-0.007868
1422	7.1050e-01	5.7877	7.431700	0.000299	2.993799	0.507163	-0.005987
1423	7.1100e-01	5.7779	7.402621	0.000291	2.908262	0.492673	-0.005816
1424	7.1150e-01	5.7645	7.378246	0.000244	2.437808	0.412976	-0.004875
1425	7.1200e-01	5.7556	7.338477	0.000398	3.977476	0.673803	-0.007954
1426	7.1250e-01	5.7465	7.308544	0.000299	2.993799	0.507163	-0.005987
1427	7.1300e-01	5.7355	7.291866	0.000167	1.667974	0.282562	-0.003335
1428	7.1350e-01	5.7257	7.256801	0.000351	3.507022	0.594106	-0.007013
1429	7.1400e-01	5.7118	7.240124	0.000167	1.667974	0.282562	-0.003335
1430	7.1450e-01	5.7077	7.200354	0.000398	3.977476	0.673803	-0.007954
1431	7.1500e-01	5.6958	7.170421	0.000299	2.993799	0.507163	-0.005987
1432	7.1550e-01	5.6839	7.141342	0.000291	2.908262	0.492673	-0.005816
1433	7.1600e-01	5.6760	7.115685	0.000257	2.566114	0.434711	-0.005132
1434	7.1650e-01	5.6671	7.083185	0.000325	3.250411	0.550635	-0.006500
1435	7.1700e-01	5.6586	7.057100	0.000261	2.608882	0.441957	-0.005217
1436	7.1750e-01	5.6465	7.031015	0.000261	2.608882	0.441957	-0.005217
1437	7.1800e-01	5.6372	7.000653	0.000304	3.036568	0.514409	-0.006072
1438	7.1850e-01	5.6238	6.974141	0.000265	2.651651	0.449202	-0.005303
1439	7.1900e-01	5.6165	6.959601	0.000145	1.454131	0.246336	-0.002908
1440	7.1950e-01	5.6064	6.900161	0.000594	5.944830	1.007082	-0.011888
1441	7.2000e-01	5.5960	6.873221	0.000269	2.694420	0.456447	-0.005388
1442	7.2050e-01	5.5873	6.843287	0.000299	2.993799	0.507163	-0.005987
1443	7.2100e-01	5.5750	6.818057	0.000252	2.523345	0.427466	-0.005046
1444	7.2150e-01	5.5667	6.785558	0.000325	3.250411	0.550635	-0.006500
1445	7.2200e-01	5.5585	6.761183	0.000244	2.437808	0.412976	-0.004875
1446	7.2250e-01	5.5457	6.723980	0.000372	3.720865	0.630332	-0.007441
1447	7.2300e-01	5.5353	6.691053	0.000329	3.293179	0.557880	-0.006585
1448	7.2350e-01	5.5284	6.673092	0.000180	1.796280	0.304298	-0.003592
1449	7.2400e-01	5.5142	6.641448	0.000316	3.164874	0.536144	-0.006329
1450	7.2450e-01	5.5069	6.617501	0.000240	2.395040	0.405731	-0.004789
1451	7.2500e-01	5.4971	6.577732	0.000398	3.977476	0.673803	-0.007954
1452	7.2550e-01	5.4852	6.564048	0.000137	1.368594	0.231846	-0.002737
1453	7.2600e-01	5.4755	6.526845	0.000372	3.720865	0.630332	-0.007441
1454	7.2650e-01	5.4666	6.500332	0.000265	2.651651	0.449202	-0.005303
1455	7.2700e-01	5.4562	6.472964	0.000274	2.737188	0.463692	-0.005474
1456	7.2750e-01	5.4446	6.428063	0.000449	4.490699	0.760745	-0.008980
1457	7.2800e-01	5.4361	6.406254	0.000218	2.181197	0.369505	-0.004362
1458	7.2850e-01	5.4262	6.375465	0.000308	3.079337	0.521654	-0.006158
1459	7.2900e-01	5.4150	6.353229	0.000222	2.223965	0.376750	-0.004447
1460	7.2950e-01	5.4047	6.328854	0.000244	2.437808	0.412976	-0.004875
1461	7.3000e-01	5.3973	6.300631	0.000282	2.822725	0.478183	-0.005645
1462	7.3050e-01	5.3864	6.257441	0.000432	4.319625	0.731764	-0.008638
1463	7.3100e-01	5.3769	6.227507	0.000299	2.993799	0.507163	-0.005987
1464	7.3150e-01	5.3641	6.200566	0.000269	2.694420	0.456447	-0.005388
1465	7.3200e-01	5.3555	6.166784	0.000338	3.378717	0.572370	-0.006756
1466	7.3250e-01	5.3452	6.141127	0.000257	2.566114	0.434711	-0.005132
1467	7.3300e-01	5.3351	6.126160	0.000150	1.496900	0.253582	-0.002993
1468	7.3350e-01	5.3244	6.066720	0.000594	5.944830	1.007082	-0.011888
1469	7.3400e-01	5.3156	6.049615	0.000171	1.710743	0.289808	-0.003421
1470	7.3450e-01	5.3082	6.011984	0.000376	3.763634	0.637577	-0.007526
1471	7.3500e-01	5.2945	5.996589	0.000154	1.539668	0.260827	-0.003079
1472	7.3550e-01	5.2875	5.952116	0.000445	4.447931	0.753500	-0.008895
1473	7.3600e-01	5.2753	5.930307	0.000218	2.181197	0.369505	-0.004362
1474	7.3650e-01	5.2670	5.901656	0.000287	2.865494	0.485428	-0.005730
1475	7.3700e-01	5.2557	5.864453	0.000372	3.720865	0.630332	-0.007441
1476	7.3750e-01	5.2454	5.840078	0.000244	2.437808	0.412976	-0.004875
1477	7.3800e-01	5.2347	5.816987	0.000231	2.309502	0.391240	-0.004618
1478	7.3850e-01	5.2249	5.766527	0.000505	5.046691	0.854933	-0.010092
1479	7.3900e-01	5.2173	5.749849	0.000167	1.667974	0.282562	-0.003335
1480	7.3950e-01	5.2078	5.711791	0.000381	3.806402	0.644822	-0.007612
1481	7.4000e-01	5.1944	5.689127	0.000227	2.266734	0.383995	-0.004533
1482	7.4050e-01	5.1840	5.657482	0.000316	3.164874	0.536144	-0.006329
1483	7.4100e-01	5.1758	5.642088	0.000154	1.539668	0.260827	-0.003079
1484	7.4150e-01	5.1672	5.603174	0.000389	3.891939	0.659312	-0.007783
1485	7.4200e-01	5.1556	5.556135	0.000470	4.704542	0.796971	-0.009408
1486	7.4250e-01	5.1460	5.534754	0.000214	2.138428	0.362260	-0.004276
1487	7.4300e-01	5.1395	5.488998	0.000458	4.576236	0.775235	-0.009151
1488	7.4350e-01	5.1242	5.475742	0.000133	1.325825	0.224601	-0.002651
1489	7.4400e-01	5.1141	5.435972	0.000398	3.977476	0.673803	-0.007954
1490	7.4450e-01	5.1080	5.408604	0.000274	2.737188	0.463692	-0.005474
1491	7.4500e-01	5.0946	5.388934	0.000197	1.967354	0.333279	-0.003934
1492	7.4550e-01	5.0833	5.355151	0.000338	3.378717	0.572370	-0.006756
1493	7.4600e-01	5.0748	5.335053	0.000201	2.010123	0.340524	-0.004020
1494	7.4650e-01	5.0674	5.291435	0.000436	4.362394	0.739009	-0.008724
1495	7.4700e-01	5.0562	5.246534	0.000449	4.490699	0.760745	-0.008980
1496	7.4750e-01	5.0436	5.227291	0.000192	1.924585	0.326034	-0.003849
1497	7.4800e-01	5.0345	5.200351	0.000269	2.694420	0.456447	-0.005388
1498	7.4850e-01	5.0275	5.183246	0.000171	1.710743	0.289808	-0.003421
1499	7.4900e-01	5.0156	5.137062	0.000462	4.619005	0.782481	-0.009237
1500	7.4950e-01	5.0073	5.106273	0.000308	3.079337	0.521654	-0.006158
1501	7.5000e-01	4.9969	5.078905	0.000274	2.737188	0.463692	-0.005474
1502	7.5050e-01	4.9841	5.051110	0.000278	2.779957	0.470937	-0.005559
1503	7.5100e-01	4.9756	5.020748	0.000304	3.036568	0.514409	-0.006072
1504	7.5150e-01	4.9661	4.981407	0.000393	3.934708	0.666558	-0.007868
1505	7.5200e-01	4.9553	4.949763	0.000316	3.164874	0.536144	-0.006329
1506	7.5250e-01	4.9469	4.924533	0.000252	2.523345	0.427466	-0.005046
1507	7.5300e-01	4.9353	4.882198	0.000423	4.234088	0.717274	-0.008467
1508	7.5350e-01	4.9289	4.870224	0.000120	1.197520	0.202865	-0.002395
1509	7.5400e-01	4.9167	4.821475	0.000488	4.875616	0.825952	-0.009750
1510	7.5450e-01	4.9048	4.821475	-0.000000	-0.000000	-0.000000	0.000000
1511	7.5500e-01	4.8944	4.764601	0.000569	5.688219	0.963610	-0.011375
1512	7.5550e-01	4.8889	4.747496	0.000171	1.710743	0.289808	-0.003421
1513	7.5600e-01	4.8740	4.704733	0.000428	4.276856	0.724519	-0.008553
1514	7.5650e-01	4.8630	4.677365	0.000274	2.737188	0.463692	-0.005474
1515	7.5700e-01	4.8578	4.638451	0.000389	3.891939	0.659312	-0.007783
1516	7.5750e-01	4.8469	4.610656	0.000278	2.779957	0.470937	-0.005559
1517	7.5800e-01	4.8349	4.579867	0.000308	3.079337	0.521654	-0.006158
1518	7.5850e-01	4.8279	4.543519	0.000364	3.635328	0.615841	-0.007270
1519	7.5900e-01	4.8148	4.517861	0.000257	2.566114	0.434711	-0.005132
1520	7.5950e-01	4.8064	4.483651	0.000342	3.421485	0.579615	-0.006842
1521	7.6000e-01	4.7952	4.449869	0.000338	3.378717	0.572370	-0.006756
1522	7.6050e-01	4.7855	4.430198	0.000197	1.967354	0.333279	-0.003934
1523	7.6100e-01	4.7748	4.401547	0.000287	2.865494	0.485428	-0.005730
1524	7.6150e-01	4.7668	4.359640	0.000419	4.191319	0.710029	-0.008381
1525	7.6200e-01	4.7568	4.328423	0.000312	3.122105	0.528899	-0.006243
1526	7.6250e-01	4.7491	4.295496	0.000329	3.293179	0.557880	-0.006585
1527	7.6300e-01	4.7375	4.269411	0.000261	2.608882	0.441957	-0.005217
1528	7.6350e-01	4.7241	4.241615	0.000278	2.779957	0.470937	-0.005559
1529	7.6400e-01	4.7176	4.205267	0.000364	3.635328	0.615841	-0.007270
1530	7.6450e-01	4.7076	4.162077	0.000432	4.319625	0.731764	-0.008638
1531	7.6500e-01	4.6954	4.128294	0.000338	3.378717	0.572370	-0.006756
1532	7.6550e-01	4.6851	4.129577	-0.000013	-0.128306	-0.021736	0.000257
1533	7.6600e-01	4.6777	4.080828	0.000488	4.875616	0.825952	-0.009750
1534	7.6650e-01	4.6674	4.031223	0.000496	4.961153	0.840442	-0.009921
1535	7.6700e-01	4.6561	4.021388	0.000098	0.983677	0.166639	-0.001967
1536	7.6750e-01	4.6506	4.006849	0.000145	1.454131	0.246336	-0.002908
1537	7.6800e-01	4.6359	3.951685	0.000552	5.517145	0.934630	-0.011033
1538	7.6850e-01	4.6259	3.908495	0.000432	4.319625	0.731764	-0.008638
1539	7.6900e-01	4.6158	3.876423	0.000321	3.207642	0.543389	-0.006414
1540	7.6950e-01	4.6062	3.858463	0.000180	1.796280	0.304298	-0.003592
1541	7.7000e-01	4.5984	3.827674	0.000308	3.079337	0.521654	-0.006158
1542	7.7050e-01	4.5868	3.792609	0.000351	3.507022	0.594106	-0.007013
1543	7.7100e-01	4.5764	3.766951	0.000257	2.566114	0.434711	-0.005132
1544	7.7150e-01	4.5667	3.730175	0.000368	3.678097	0.623086	-0.007355
1545	7.7200e-01	4.5554	3.690834	0.000393	3.934708	0.666558	-0.007868
1546	7.7250e-01	4.5465	3.655768	0.000351	3.507022	0.594106	-0.007013
1547	7.7300e-01	4.5364	3.626262	0.000295	2.951031	0.499918	-0.005901
1548	7.7350e-01	4.5239	3.609157	0.000171	1.710743	0.289808	-0.003421
1549	7.7400e-01	4.5157	3.583072	0.000261	2.608882	0.441957	-0.005217
1550	7.7450e-01	4.5065	3.525770	0.000573	5.730988	0.970856	-0.011460
1551	7.7500e-01	4.4971	3.507383	0.000184	1.839048	0.311543	-0.003678
1552	7.7550e-01	4.4867	3.470607	0.000368	3.678097	0.623086	-0.007355
1553	7.7600e-01	4.4763	3.432548	0.000381	3.806402	0.644822	-0.007612
1554	7.7650e-01	4.4693	3.410312	0.000222	2.223965	0.376750	-0.004447
1555	7.7700e-01	4.4569	3.370115	0.000402	4.020245	0.681048	-0.008039
1556	7.7750e-01	4.4461	3.338898	0.000312	3.122105	0.528899	-0.006243
1557	7.7800e-01	4.4360	3.308537	0.000304	3.036568	0.514409	-0.006072
1558	7.7850e-01	4.4232	3.270050	0.000385	3.849171	0.652067	-0.007697
1559	7.7900e-01	4.4183	3.240972	0.000291	2.908262	0.492673	-0.005816
1560	7.7950e-01	4.4061	3.210611	0.000304	3.036568	0.514409	-0.006072
1561	7.8000e-01	4.3979	3.167848	0.000428	4.276856	0.724519	-0.008553
1562	7.8050e-01	4.3831	3.142618	0.000252	2.523345	0.427466	-0.005046
1563	7.8100e-01	4.3793	3.109691	0.000329	3.293179	0.557880	-0.006585
1564	7.8150e-01	4.3649	3.081040	0.000287	2.865494	0.485428	-0.005730
1565	7.8200e-01	4.3568	3.048113	0.000329	3.293179	0.557880	-0.006585
1566	7.8250e-01	4.3472	3.013475	0.000346	3.464254	0.586860	-0.006928
1567	7.8300e-01	4.3365	2.986963	0.000265	2.651651	0.449202	-0.005303
1568	7.8350e-01	4.3262	2.956601	0.000304	3.036568	0.514409	-0.006072
1569	7.8400e-01	4.3159	2.914694	0.000419	4.191319	0.710029	-0.008381
1570	7.8450e-01	4.3032	2.888181	0.000265	2.651651	0.449202	-0.005303
1571	7.8500e-01	4.2953	2.849267	0.000389	3.891939	0.659312	-0.007783
1572	7.8550e-01	4.2844	2.817623	0.000316	3.164874	0.536144	-0.006329
1573	7.8600e-01	4.2752	2.782985	0.000346	3.464254	0.586860	-0.006928
1574	7.8650e-01	4.2656	2.758183	0.000248	2.480577	0.420221	-0.004960
1575	7.8700e-01	4.2538	2.730815	0.000274	2.737188	0.463692	-0.005474
1576	7.8750e-01	4.2476	2.687625	0.000432	4.319625	0.731764	-0.008638
1577	7.8800e-01	4.2371	2.645718	0.000419	4.191319	0.710029	-0.008381
1578	7.8850e-01	4.2252	2.624764	0.000210	2.095660	0.355014	-0.004191
1579	7.8900e-01	4.2157	2.584995	0.000398	3.977476	0.673803	-0.007954
1580	7.8950e-01	4.2059	2.545653	0.000393	3.934708	0.666558	-0.007868
1581	7.9000e-01	4.1962	2.518285	0.000274	2.737188	0.463692	-0.005474
1582	7.9050e-01	4.1843	2.494766	0.000235	2.352271	0.398485	-0.004704
1583	7.9100e-01	4.1736	2.450720	0.000441	4.405162	0.746255	-0.008809
1584	7.9150e-01	4.1693	2.419504	0.000312	3.122105	0.528899	-0.006243
1585	7.9200e-01	4.1553	2.390425	0.000291	2.908262	0.492673	-0.005816
1586	7.9250e-01	4.1444	2.363485	0.000269	2.694420	0.456447	-0.005388
1587	7.9300e-01	4.1376	2.320722	0.000428	4.276856	0.724519	-0.008553
1588	7.9350e-01	4.1241	2.293354	0.000274	2.737188	0.463692	-0.005474
1589	7.9400e-01	4.1147	2.260427	0.000329	3.293179	0.557880	-0.006585
1590	7.9450e-01	4.1060	2.211250	0.000492	4.918385	0.833197	-0.009835
1591	7.9500e-01	4.0961	2.193718	0.000175	1.753511	0.297053	-0.003507
1592	7.9550e-01	4.0839	2.147107	0.000466	4.661773	0.789726	-0.009322
1593	7.9600e-01	4.0744	2.108193	0.000389	3.891939	0.659312	-0.007783
1594	7.9650e-01	4.0632	2.085528	0.000227	2.266734	0.383995	-0.004533
1595	7.9700e-01	4.0543	2.048753	0.000368	3.678097	0.623086	-0.007355
1596	7.9750e-01	4.0427	2.041911	0.000068	0.684297	0.115923	-0.001368
1597	7.9800e-01	4.0350	1.990596	0.000513	5.132228	0.869423	-0.010263
1598	7.9850e-01	4.0247	1.951682	0.000389	3.891939	0.659312	-0.007783
1599	7.9900e-01	4.0161	1.902077	0.000496	4.961153	0.840442	-0.009921
1600	7.9950e-01	4.0076	1.870005	0.000321	3.207642	0.543389	-0.006414
1601	8.0000e-01	3.9954	1.843493	0.000265	2.651651	0.449202	-0.005303
1602	8.0050e-01	3.9838	1.822539	0.000210	2.095660	0.355014	-0.004191
1603	8.0100e-01	3.9764	1.788329	0.000342	3.421485	0.579615	-0.006842
1604	8.0150e-01	3.9670	1.760533	0.000278	2.779957	0.470937	-0.005559
1605	8.0200e-01	3.9545	1.722475	0.000381	3.806402	0.644822	-0.007612
1606	8.0250e-01	3.9456	1.686554	0.000359	3.592559	0.608596	-0.007184
1607	8.0300e-01	3.9362	1.647213	0.000393	3.934708	0.666558	-0.007868
1608	8.0350e-01	3.9279	1.613003	0.000342	3.421485	0.579615	-0.006842
1609	8.0400e-01	3.9157	1.585635	0.000274	2.737188	0.463692	-0.005474
1610	8.0450e-01	3.9050	1.552707	0.000329	3.293179	0.557880	-0.006585
1611	8.0500e-01	3.8959	1.503958	0.000488	4.875616	0.825952	-0.009750
1612	8.0550e-01	3.8844	1.469748	0.000342	3.421485	0.579615	-0.006842
1613	8.0600e-01	3.8757	1.449650	0.000201	2.010123	0.340524	-0.004020
1614	8.0650e-01	3.8684	1.420144	0.000295	2.951031	0.499918	-0.005901
1615	8.0700e-01	3.8559	1.375671	0.000445	4.447931	0.753500	-0.008895
1616	8.0750e-01	3.8452	1.338895	0.000368	3.678097	0.623086	-0.007355
1617	8.0800e-01	3.8374	1.311954	0.000269	2.694420	0.456447	-0.005388
1618	8.0850e-01	3.8257	1.275179	0.000368	3.678097	0.623086	-0.007355
1619	8.0900e-01	3.8143	1.243962	0.000312	3.122105	0.528899	-0.006243
1620	8.0950e-01	3.8071	1.209752	0.000342	3.421485	0.579615	-0.006842
1621	8.1000e-01	3.7964	1.157582	0.000522	5.217765	0.883913	-0.010434
1622	8.1050e-01	3.7849	1.131496	0.000261	2.608882	0.441957	-0.005217
1623	8.1100e-01	3.7711	1.103701	0.000278	2.779957	0.470937	-0.005559
1624	8.1150e-01	3.7665	1.078899	0.000248	2.480577	0.420221	-0.004960
1625	8.1200e-01	3.7543	1.043406	0.000355	3.549791	0.601351	-0.007099
1626	8.1250e-01	3.7466	1.000216	0.000432	4.319625	0.731764	-0.008638
1627	8.1300e-01	3.7357	0.971992	0.000282	2.822725	0.478183	-0.005645
1628	8.1350e-01	3.7254	0.923671	0.000483	4.832848	0.818707	-0.009664
1629	8.1400e-01	3.7192	0.901006	0.000227	2.266734	0.383995	-0.004533
1630	8.1450e-01	3.7048	0.864231	0.000368	3.678097	0.623086	-0.007355
1631	8.1500e-01	3.6954	0.822323	0.000419	4.191319	0.710029	-0.008381
1632	8.1550e-01	3.6908	0.792817	0.000295	2.951031	0.499918	-0.005901
1633	8.1600e-01	3.6762	0.768015	0.000248	2.480577	0.420221	-0.004960
1634	8.1650e-01	3.6661	0.729101	0.000389	3.891939	0.659312	-0.007783
1635	8.1700e-01	3.6560	0.693181	0.000359	3.592559	0.608596	-0.007184
1636	8.1750e-01	3.6476	0.660253	0.000329	3.293179	0.557880	-0.006585
1637	8.1800e-01	3.6383	0.611504	0.000488	4.875616	0.825952	-0.009750
1638	8.1850e-01	3.6285	0.583281	0.000282	2.822725	0.478183	-0.005645
1639	8.1900e-01	3.6143	0.552919	0.000304	3.036568	0.514409	-0.006072
1640	8.1950e-01	3.6066	0.510157	0.000428	4.276856	0.724519	-0.008553
1641	8.2000e-01	3.5974	0.478940	0.000312	3.122105	0.528899	-0.006243
1642	8.2050e-01	3.5844	0.436605	0.000423	4.234088	0.717274	-0.008467
1643	8.2100e-01	3.5738	0.409237	0.000274	2.737188	0.463692	-0.005474
1644	8.2150e-01	3.5632	0.380586	0.000287	2.865494	0.485428	-0.005730
1645	8.2200e-01	3.5565	0.342955	0.000376	3.763634	0.637577	-0.007526
1646	8.2250e-01	3.5457	0.303186	0.000398	3.977476	0.673803	-0.007954
1647	8.2300e-01	3.5373	0.269832	0.000334	3.335948	0.565125	-0.006671
1648	8.2350e-01	3.5261	0.233483	0.000364	3.635328	0.615841	-0.007270
1649	8.2400e-01	3.5164	0.201412	0.000321	3.207642	0.543389	-0.006414
1650	8.2450e-01	3.5065	0.173188	0.000282	2.822725	0.478183	-0.005645
1651	8.2500e-01	3.4981	0.134274	0.000389	3.891939	0.659312	-0.007783
1652	8.2550e-01	3.4851	0.091084	0.000432	4.319625	0.731764	-0.008638
1653	8.2600e-01	3.4763	0.061578	0.000295	2.951031	0.499918	-0.005901
1654	8.2650e-01	3.4674	0.023947	0.000376	3.763634	0.637577	-0.007526
1655	8.2700e-01	3.4564	-0.005132	0.000291	2.908262	0.492673	-0.005816
1656	8.2750e-01	3.4474	-0.042763	0.000376	3.763634	0.637577	-0.007526
1657	8.2800e-01	3.4367	-0.083815	0.000411	4.105782	0.695538	-0.008210
1658	8.2850e-01	3.4271	-0.128288	0.000445	4.447931	0.753500	-0.008895
1659	8.2900e-01	3.4146	-0.157366	0.000291	2.908262	0.492673	-0.005816
1660	8.2950e-01	3.4045	-0.205260	0.000479	4.790079	0.811461	-0.009579
1661	8.3000e-01	3.3948	-0.224931	0.000197	1.967354	0.333279	-0.003934
1662	8.3050e-01	3.3878	-0.274535	0.000496	4.961153	0.840442	-0.009921
1663	8.3100e-01	3.3760	-0.292496	0.000180	1.796280	0.304298	-0.003592
1664	8.3150e-01	3.3673	-0.323285	0.000308	3.079337	0.521654	-0.006158
1665	8.3200e-01	3.3542	-0.375027	0.000517	5.174996	0.876668	-0.010349
1666	8.3250e-01	3.3459	-0.402823	0.000278	2.779957	0.470937	-0.005559
1667	8.3300e-01	3.3352	-0.445586	0.000428	4.276856	0.724519	-0.008553
1668	8.3350e-01	3.3255	-0.471243	0.000257	2.566114	0.434711	-0.005132
1669	8.3400e-01	3.3181	-0.508874	0.000376	3.763634	0.637577	-0.007526
1670	8.3450e-01	3.3044	-0.563182	0.000543	5.431608	0.920139	-0.010862
1671	8.3500e-01	3.2953	-0.581998	0.000188	1.881817	0.318788	-0.003763
1672	8.3550e-01	3.2854	-0.626471	0.000445	4.447931	0.753500	-0.008895
1673	8.3600e-01	3.2776	-0.656832	0.000304	3.036568	0.514409	-0.006072
1674	8.3650e-01	3.2686	-0.706865	0.000500	5.003922	0.847687	-0.010006
1675	8.3700e-01	3.2549	-0.730812	0.000240	2.395040	0.405731	-0.004789
1676	8.3750e-01	3.2465	-0.760318	0.000295	2.951031	0.499918	-0.005901
1677	8.3800e-01	3.2379	-0.815909	0.000556	5.559913	0.941875	-0.011118
1678	8.3850e-01	3.2251	-0.844988	0.000291	2.908262	0.492673	-0.005816
1679	8.3900e-01	3.2123	-0.870645	0.000257	2.566114	0.434711	-0.005132
1680	8.3950e-01	3.2051	-0.918539	0.000479	4.790079	0.811461	-0.009579
1681	8.4000e-01	3.1960	-0.954887	0.000364	3.635328	0.615841	-0.007270
1682	8.4050e-01	3.1848	-0.992518	0.000376	3.763634	0.637577	-0.007526
1683	8.4100e-01	3.1738	-1.022024	0.000295	2.951031	0.499918	-0.005901
1684	8.4150e-01	3.1657	-1.056234	0.000342	3.421485	0.579615	-0.006842
1685	8.4200e-01	3.1557	-1.090444	0.000342	3.421485	0.579615	-0.006842
1686	8.4250e-01	3.1445	-1.127648	0.000372	3.720865	0.630332	-0.007441
1687	8.4300e-01	3.1369	-1.184950	0.000573	5.730988	0.970856	-0.011460
1688	8.4350e-01	3.1253	-1.196923	0.000120	1.197520	0.202865	-0.002395
1689	8.4400e-01	3.1168	-1.242679	0.000458	4.576236	0.775235	-0.009151
1690	8.4450e-01	3.1067	-1.288863	0.000462	4.619005	0.782481	-0.009237
1691	8.4500e-01	3.0980	-1.308961	0.000201	2.010123	0.340524	-0.004020
1692	8.4550e-01	3.0844	-1.353434	0.000445	4.447931	0.753500	-0.008895
1693	8.4600e-01	3.0798	-1.400045	0.000466	4.661773	0.789726	-0.009322
1694	8.4650e-01	3.0669	-1.433828	0.000338	3.378717	0.572370	-0.006756
1695	8.4700e-01	3.0569	-1.467182	0.000334	3.335948	0.565125	-0.006671
1696	8.4750e-01	3.0457	-1.499254	0.000321	3.207642	0.543389	-0.006414
1697	8.4800e-01	3.0359	-1.548003	0.000488	4.875616	0.825952	-0.009750
1698	8.4850e-01	3.0270	-1.565964	0.000180	1.796280	0.304298	-0.003592
1699	8.4900e-01	3.0142	-1.607016	0.000411	4.105782	0.695538	-0.008210
1700	8.4950e-01	3.0066	-1.652344	0.000453	4.533468	0.767990	-0.009066
1701	8.5000e-01	2.9948	-1.681423	0.000291	2.908262	0.492673	-0.005816
1702	8.5050e-01	2.9849	-1.732738	0.000513	5.132228	0.869423	-0.010263
1703	8.5100e-01	2.9756	-1.771224	0.000385	3.849171	0.652067	-0.007697
1704	8.5150e-01	2.9654	-1.792605	0.000214	2.138428	0.362260	-0.004276
1705	8.5200e-01	2.9568	-1.832802	0.000402	4.020245	0.681048	-0.008039
1706	8.5250e-01	2.9462	-1.866584	0.000338	3.378717	0.572370	-0.006756
1707	8.5300e-01	2.9353	-1.907209	0.000406	4.063014	0.688293	-0.008125
1708	8.5350e-01	2.9276	-1.945267	0.000381	3.806402	0.644822	-0.007612
1709	8.5400e-01	2.9193	-1.994444	0.000492	4.918385	0.833197	-0.009835
1710	8.5450e-01	2.9075	-2.017536	0.000231	2.309502	0.391240	-0.004618
1711	8.5500e-01	2.8943	-2.047470	0.000299	2.993799	0.507163	-0.005987
1712	8.5550e-01	2.8864	-2.094936	0.000475	4.747311	0.804216	-0.009493
1713	8.5600e-01	2.8761	-2.132567	0.000376	3.763634	0.637577	-0.007526
1714	8.5650e-01	2.8653	-2.168488	0.000359	3.592559	0.608596	-0.007184
1715	8.5700e-01	2.8584	-2.212106	0.000436	4.362394	0.739009	-0.008724
1716	8.5750e-01	2.8479	-2.261282	0.000492	4.918385	0.833197	-0.009835
1717	8.5800e-01	2.8363	-2.277532	0.000163	1.625205	0.275317	-0.003250
1718	8.5850e-01	2.8253	-2.332696	0.000552	5.517145	0.934630	-0.011033
1719	8.5900e-01	2.8174	-2.363913	0.000312	3.122105	0.528899	-0.006243
1720	8.5950e-01	2.8067	-2.399833	0.000359	3.592559	0.608596	-0.007184
1721	8.6000e-01	2.8055	-2.422925	0.000231	2.309502	0.391240	-0.004618
1722	8.6050e-01	2.7856	-2.472529	0.000496	4.961153	0.840442	-0.009921
1723	8.6100e-01	2.7769	-2.529831	0.000573	5.730988	0.970856	-0.011460
1724	8.6150e-01	2.7667	-2.558482	0.000287	2.865494	0.485428	-0.005730
1725	8.6200e-01	2.7553	-2.586705	0.000282	2.822725	0.478183	-0.005645
1726	8.6250e-01	2.7463	-2.634599	0.000479	4.790079	0.811461	-0.009579
1727	8.6300e-01	2.7359	-2.662395	0.000278	2.779957	0.470937	-0.005559
1728	8.6350e-01	2.7232	-2.693612	0.000312	3.122105	0.528899	-0.006243
1729	8.6400e-01	2.7155	-2.726966	0.000334	3.335948	0.565125	-0.006671
1730	8.6450e-01	2.7057	-2.769729	0.000428	4.276856	0.724519	-0.008553
1731	8.6500e-01	2.6953	-2.824465	0.000547	5.474376	0.927384	-0.010947
1732	8.6550e-01	2.6866	-2.859103	0.000346	3.464254	0.586860	-0.006928
1733	8.6600e-01	2.6752	-2.910845	0.000517	5.174996	0.876668	-0.010349
1734	8.6650e-01	2.6685	-2.945911	0.000351	3.507022	0.594106	-0.007013
1735	8.6700e-01	2.6543	-2.974561	0.000287	2.865494	0.485428	-0.005730
1736	8.6750e-01	2.6434	-3.000219	0.000257	2.566114	0.434711	-0.005132
1737	8.6800e-01	2.6347	-3.051534	0.000513	5.132228	0.869423	-0.010263
1738	8.6850e-01	2.6270	-3.095152	0.000436	4.362394	0.739009	-0.008724
1739	8.6900e-01	2.6166	-3.125086	0.000299	2.993799	0.507163	-0.005987
1740	8.6950e-01	2.6068	-3.177256	0.000522	5.217765	0.883913	-0.010434
1741	8.7000e-01	2.5964	-3.193933	0.000167	1.667974	0.282562	-0.003335
1742	8.7050e-01	2.5848	-3.237123	0.000432	4.319625	0.731764	-0.008638
1743	8.7100e-01	2.5754	-3.273899	0.000368	3.678097	0.623086	-0.007355
1744	8.7150e-01	2.5641	-3.340609	0.000667	6.671896	1.130250	-0.013342
1745	8.7200e-01	2.5575	-3.362845	0.000222	2.223965	0.376750	-0.004447
1746	8.7250e-01	2.5462	-3.393207	0.000304	3.036568	0.514409	-0.006072
1747	8.7300e-01	2.5345	-3.426989	0.000338	3.378717	0.572370	-0.006756
1748	8.7350e-01	2.5247	-3.473600	0.000466	4.661773	0.789726	-0.009322
1749	8.7400e-01	2.5159	-3.509521	0.000359	3.592559	0.608596	-0.007184
1750	8.7450e-01	2.5049	-3.561263	0.000517	5.174996	0.876668	-0.010349
1751	8.7500e-01	2.4976	-3.598467	0.000372	3.720865	0.630332	-0.007441
1752	8.7550e-01	2.4860	-3.635242	0.000368	3.678097	0.623086	-0.007355
1753	8.7600e-01	2.4750	-3.679288	0.000441	4.405162	0.746255	-0.008809
1754	8.7650e-01	2.4630	-3.704518	0.000252	2.523345	0.427466	-0.005046
1755	8.7700e-01	2.4574	-3.747708	0.000432	4.319625	0.731764	-0.008638
1756	8.7750e-01	2.4469	-3.802872	0.000552	5.517145	0.934630	-0.011033
1757	8.7800e-01	2.4353	-3.835799	0.000329	3.293179	0.557880	-0.006585
1758	8.7850e-01	2.4272	-3.875568	0.000398	3.977476	0.673803	-0.007954
1759	8.7900e-01	2.4139	-3.905502	0.000299	2.993799	0.507163	-0.005987
1760	8.7950e-01	2.4051	-3.953823	0.000483	4.832848	0.818707	-0.009664
1761	8.8000e-01	2.3973	-3.997013	0.000432	4.319625	0.731764	-0.008638
1762	8.8050e-01	2.3883	-4.024809	0.000278	2.779957	0.470937	-0.005559
1763	8.8100e-01	2.3758	-4.068854	0.000441	4.405162	0.746255	-0.008809
1764	8.8150e-01	2.3678	-4.107768	0.000389	3.891939	0.659312	-0.007783
1765	8.8200e-01	2.3547	-4.151814	0.000441	4.405162	0.746255	-0.008809
1766	8.8250e-01	2.3475	-4.172767	0.000210	2.095660	0.355014	-0.004191
1767	8.8300e-01	2.3364	-4.227931	0.000552	5.517145	0.934630	-0.011033
1768	8.8350e-01	2.3270	-4.261286	0.000334	3.335948	0.565125	-0.006671
1769	8.8400e-01	2.3128	-4.295924	0.000346	3.464254	0.586860	-0.006928
1770	8.8450e-01	2.3059	-4.349804	0.000539	5.388839	0.912894	-0.010776
1771	8.8500e-01	2.2945	-4.377600	0.000278	2.779957	0.470937	-0.005559
1772	8.8550e-01	2.2882	-4.428487	0.000509	5.089459	0.862178	-0.010177
1773	8.8600e-01	2.2766	-4.470395	0.000419	4.191319	0.710029	-0.008381
1774	8.8650e-01	2.2633	-4.494342	0.000240	2.395040	0.405731	-0.004789
1775	8.8700e-01	2.2554	-4.534111	0.000398	3.977476	0.673803	-0.007954
1776	8.8750e-01	2.2458	-4.566183	0.000321	3.207642	0.543389	-0.006414
1777	8.8800e-01	2.2351	-4.632465	0.000663	6.629127	1.123005	-0.013256
1778	8.8850e-01	2.2241	-4.661543	0.000291	2.908262	0.492673	-0.005816
1779	8.8900e-01	2.2162	-4.703878	0.000423	4.234088	0.717274	-0.008467
1780	8.8950e-01	2.2084	-4.740226	0.000364	3.635328	0.615841	-0.007270
1781	8.9000e-01	2.1964	-4.790686	0.000505	5.046691	0.854933	-0.010092
1782	8.9050e-01	2.1870	-4.816771	0.000261	2.608882	0.441957	-0.005217
1783	8.9100e-01	2.1799	-4.860816	0.000441	4.405162	0.746255	-0.008809
1784	8.9150e-01	2.1658	-4.907428	0.000466	4.661773	0.789726	-0.009322
1785	8.9200e-01	2.1555	-4.940782	0.000334	3.335948	0.565125	-0.006671
1786	8.9250e-01	2.1456	-4.990815	0.000500	5.003922	0.847687	-0.010006
1787	8.9300e-01	2.1368	-5.035715	0.000449	4.490699	0.760745	-0.008980
1788	8.9350e-01	2.1239	-5.078905	0.000432	4.319625	0.731764	-0.008638
1789	8.9400e-01	2.1140	-5.113115	0.000342	3.421485	0.579615	-0.006842
1790	8.9450e-01	2.1037	-5.152885	0.000398	3.977476	0.673803	-0.007954
1791	8.9500e-01	2.0985	-5.197358	0.000445	4.447931	0.753500	-0.008895
1792	8.9550e-01	2.0869	-5.230285	0.000329	3.293179	0.557880	-0.006585
1793	8.9600e-01	2.0737	-5.260219	0.000299	2.993799	0.507163	-0.005987
1794	8.9650e-01	2.0673	-5.305119	0.000449	4.490699	0.760745	-0.008980
1795	8.9700e-01	2.0560	-5.347882	0.000428	4.276856	0.724519	-0.008553
1796	8.9750e-01	2.0447	-5.400480	0.000526	5.260533	0.891158	-0.010520
1797	8.9800e-01	2.0343	-5.438966	0.000385	3.849171	0.652067	-0.007697
1798	8.9850e-01	2.0212	-5.470610	0.000316	3.164874	0.536144	-0.006329
1799	8.9900e-01	2.0148	-5.505248	0.000346	3.464254	0.586860	-0.006928
1800	8.9950e-01	2.0074	-5.566398	0.000612	6.115905	1.036062	-0.012230
1801	9.0000e-01	1.9987	-5.599753	0.000334	3.335948	0.565125	-0.006671
1802	9.0050e-01	1.9830	-5.641660	0.000419	4.191319	0.710029	-0.008381
1803	9.0100e-01	1.9780	-5.692120	0.000505	5.046691	0.854933	-0.010092
1804	9.0150e-01	1.9659	-5.723764	0.000316	3.164874	0.536144	-0.006329
1805	9.0200e-01	1.9550	-5.766954	0.000432	4.319625	0.731764	-0.008638
1806	9.0250e-01	1.9440	-5.792184	0.000252	2.523345	0.427466	-0.005046
1807	9.0300e-01	1.9366	-5.854190	0.000620	6.201442	1.050553	-0.012401
1808	9.0350e-01	1.9281	-5.880275	0.000261	2.608882	0.441957	-0.005217
1809	9.0400e-01	1.9128	-5.935866	0.000556	5.559913	0.941875	-0.011118
1810	9.0450e-01	1.9038	-5.976918	0.000411	4.105782	0.695538	-0.008210
1811	9.0500e-01	1.8929	-5.992741	0.000158	1.582437	0.268072	-0.003164
1812	9.0550e-01	1.8832	-6.058167	0.000654	6.543590	1.108514	-0.013085
1813	9.0600e-01	1.8765	-6.090667	0.000325	3.250411	0.550635	-0.006500
1814	9.0650e-01	1.8658	-6.132574	0.000419	4.191319	0.710029	-0.008381
1815	9.0700e-01	1.8561	-6.187738	0.000552	5.517145	0.934630	-0.011033
1816	9.0750e-01	1.8461	-6.219382	0.000316	3.164874	0.536144	-0.006329
1817	9.0800e-01	1.8360	-6.260434	0.000411	4.105782	0.695538	-0.008210
1818	9.0850e-01	1.8265	-6.295927	0.000355	3.549791	0.601351	-0.007099
1819	9.0900e-01	1.8150	-6.346387	0.000505	5.046691	0.854933	-0.010092
1820	9.0950e-01	1.8061	-6.385728	0.000393	3.934708	0.666558	-0.007868
1821	9.1000e-01	1.7960	-6.437043	0.000513	5.132228	0.869423	-0.010263
1822	9.1050e-01	1.7870	-6.465694	0.000287	2.865494	0.485428	-0.005730
1823	9.1100e-01	1.7773	-6.512305	0.000466	4.661773	0.789726	-0.009322
1824	9.1150e-01	1.7651	-6.554640	0.000423	4.234088	0.717274	-0.008467
1825	9.1200e-01	1.7551	-6.606810	0.000522	5.217765	0.883913	-0.010434
1826	9.1250e-01	1.7432	-6.637172	0.000304	3.036568	0.514409	-0.006072
1827	9.1300e-01	1.7346	-6.686776	0.000496	4.961153	0.840442	-0.009921
1828	9.1350e-01	1.7258	-6.725690	0.000389	3.891939	0.659312	-0.007783
1829	9.1400e-01	1.7144	-6.771019	0.000453	4.533468	0.767990	-0.009066
1830	9.1450e-01	1.7036	-6.812498	0.000415	4.148551	0.702784	-0.008296
1831	9.1500e-01	1.6978	-6.849274	0.000368	3.678097	0.623086	-0.007355
1832	9.1550e-01	1.6882	-6.898023	0.000488	4.875616	0.825952	-0.009750
1833	9.1600e-01	1.6766	-6.944634	0.000466	4.661773	0.789726	-0.009322
1834	9.1650e-01	1.6669	-6.976279	0.000316	3.164874	0.536144	-0.006329
1835	9.1700e-01	1.6541	-7.035719	0.000594	5.944830	1.007082	-0.011888
1836	9.1750e-01	1.6455	-7.069073	0.000334	3.335948	0.565125	-0.006671
1837	9.1800e-01	1.6361	-7.110125	0.000411	4.105782	0.695538	-0.008210
1838	9.1850e-01	1.6232	-7.159730	0.000496	4.961153	0.840442	-0.009921
1839	9.1900e-01	1.6156	-7.193940	0.000342	3.421485	0.579615	-0.006842
1840	9.1950e-01	1.6060	-7.243972	0.000500	5.003922	0.847687	-0.010006
1841	9.2000e-01	1.5952	-7.267492	0.000235	2.352271	0.398485	-0.004704
1842	9.2050e-01	1.5864	-7.315386	0.000479	4.790079	0.811461	-0.009579
1843	9.2100e-01	1.5747	-7.372260	0.000569	5.688219	0.963610	-0.011375
1844	9.2150e-01	1.5637	-7.405187	0.000329	3.293179	0.557880	-0.006585
1845	9.2200e-01	1.5558	-7.454364	0.000492	4.918385	0.833197	-0.009835
1846	9.2250e-01	1.5454	-7.500120	0.000458	4.576236	0.775235	-0.009151
1847	9.2300e-01	1.5350	-7.544593	0.000445	4.447931	0.753500	-0.008895
1848	9.2350e-01	1.5261	-7.582224	0.000376	3.763634	0.637577	-0.007526
1849	9.2400e-01	1.5174	-7.625842	0.000436	4.362394	0.739009	-0.008724
1850	9.2450e-01	1.5030	-7.668176	0.000423	4.234088	0.717274	-0.008467
1851	9.2500e-01	1.4965	-7.720774	0.000526	5.260533	0.891158	-0.010520
1852	9.2550e-01	1.4862	-7.756695	0.000359	3.592559	0.608596	-0.007184
1853	9.2600e-01	1.4761	-7.793471	0.000368	3.678097	0.623086	-0.007355
1854	9.2650e-01	1.4667	-7.838371	0.000449	4.490699	0.760745	-0.008980
1855	9.2700e-01	1.4571	-7.890114	0.000517	5.174996	0.876668	-0.010349
1856	9.2750e-01	1.4441	-7.935442	0.000453	4.533468	0.767990	-0.009066
1857	9.2800e-01	1.4361	-7.984619	0.000492	4.918385	0.833197	-0.009835
1858	9.2850e-01	1.4268	-8.017119	0.000325	3.250411	0.550635	-0.006500
1859	9.2900e-01	1.4164	-8.064157	0.000470	4.704542	0.796971	-0.009408
1860	9.2950e-01	1.4032	-8.115900	0.000517	5.174996	0.876668	-0.010349
1861	9.3000e-01	1.3963	-8.153103	0.000372	3.720865	0.630332	-0.007441
1862	9.3050e-01	1.3872	-8.188596	0.000355	3.549791	0.601351	-0.007099
1863	9.3100e-01	1.3730	-8.229648	0.000411	4.105782	0.695538	-0.008210
1864	9.3150e-01	1.3675	-8.271983	0.000423	4.234088	0.717274	-0.008467
1865	9.3200e-01	1.3542	-8.340831	0.000689	6.885739	1.166476	-0.013770
1866	9.3250e-01	1.3477	-8.366916	0.000261	2.608882	0.441957	-0.005217
1867	9.3300e-01	1.3338	-8.428067	0.000612	6.115905	1.036062	-0.012230
1868	9.3350e-01	1.3253	-8.455435	0.000274	2.737188	0.463692	-0.005474
1869	9.3400e-01	1.3150	-8.508888	0.000535	5.346070	0.905649	-0.010691
1870	9.3450e-01	1.3068	-8.560630	0.000517	5.174996	0.876668	-0.010349
1871	9.3500e-01	1.2944	-8.575597	0.000150	1.496900	0.253582	-0.002993
1872	9.3550e-01	1.2852	-8.632899	0.000573	5.730988	0.970856	-0.011460
1873	9.3600e-01	1.2755	-8.682076	0.000492	4.918385	0.833197	-0.009835
1874	9.3650e-01	1.2638	-8.725694	0.000436	4.362394	0.739009	-0.008724
1875	9.3700e-01	1.2527	-8.787699	0.000620	6.201442	1.050553	-0.012401
1876	9.3750e-01	1.2482	-8.829607	0.000419	4.191319	0.710029	-0.008381
1877	9.3800e-01	1.2372	-8.862534	0.000329	3.293179	0.557880	-0.006585
1878	9.3850e-01	1.2238	-8.898882	0.000364	3.635328	0.615841	-0.007270
1879	9.3900e-01	1.2151	-8.957894	0.000590	5.902062	0.999836	-0.011802
1880	9.3950e-01	1.2042	-8.993387	0.000355	3.549791	0.601351	-0.007099
1881	9.4000e-01	1.1952	-9.042564	0.000492	4.918385	0.833197	-0.009835
1882	9.4050e-01	1.1845	-9.099438	0.000569	5.688219	0.963610	-0.011375
1883	9.4100e-01	1.1768	-9.127234	0.000278	2.779957	0.470937	-0.005559
1884	9.4150e-01	1.1652	-9.165720	0.000385	3.849171	0.652067	-0.007697
1885	9.4200e-01	1.1573	-9.213614	0.000479	4.790079	0.811461	-0.009579
1886	9.4250e-01	1.1456	-9.257232	0.000436	4.362394	0.739009	-0.008724
1887	9.4300e-01	1.1327	-9.311113	0.000539	5.388839	0.912894	-0.010776
1888	9.4350e-01	1.1259	-9.350454	0.000393	3.934708	0.666558	-0.007868
1889	9.4400e-01	1.1139	-9.406046	0.000556	5.559913	0.941875	-0.011118
1890	9.4450e-01	1.1042	-9.455650	0.000496	4.961153	0.840442	-0.009921
1891	9.4500e-01	1.0963	-9.487294	0.000316	3.164874	0.536144	-0.006329
1892	9.4550e-01	1.0850	-9.537327	0.000500	5.003922	0.847687	-0.010006
1893	9.4600e-01	1.0767	-9.589069	0.000517	5.174996	0.876668	-0.010349
1894	9.4650e-01	1.0647	-9.628411	0.000393	3.934708	0.666558	-0.007868
1895	9.4700e-01	1.0541	-9.666469	0.000381	3.806402	0.644822	-0.007612
1896	9.4750e-01	1.0471	-9.716929	0.000505	5.046691	0.854933	-0.010092
1897	9.4800e-01	1.0338	-9.767817	0.000509	5.089459	0.862178	-0.010177
1898	9.4850e-01	1.0258	-9.819132	0.000513	5.132228	0.869423	-0.010263
1899	9.4900e-01	1.0182	-9.863177	0.000441	4.405162	0.746255	-0.008809
1900	9.4950e-01	1.0074	-9.892255	0.000291	2.908262	0.492673	-0.005816
1901	9.5000e-01	0.9955	-9.956827	0.000646	6.458053	1.094024	-0.012914
1902	9.5050e-01	0.9882	-9.989754	0.000329	3.293179	0.557880	-0.006585
1903	9.5100e-01	0.9747	-10.040214	0.000505	5.046691	0.854933	-0.010092
1904	9.5150e-01	0.9651	-10.071430	0.000312	3.122105	0.528899	-0.006243
1905	9.5200e-01	0.9537	-10.133864	0.000624	6.244210	1.057798	-0.012487
1906	9.5250e-01	0.9456	-10.191593	0.000577	5.773756	0.978101	-0.011546
1907	9.5300e-01	0.9386	-10.219389	0.000278	2.779957	0.470937	-0.005559
1908	9.5350e-01	0.9283	-10.266000	0.000466	4.661773	0.789726	-0.009322
1909	9.5400e-01	0.9129	-10.313039	0.000470	4.704542	0.796971	-0.009408
1910	9.5450e-01	0.9070	-10.358367	0.000453	4.533468	0.767990	-0.009066
1911	9.5500e-01	0.8942	-10.409254	0.000509	5.089459	0.862178	-0.010177
1912	9.5550e-01	0.8874	-10.433629	0.000244	2.437808	0.412976	-0.004875
1913	9.5600e-01	0.8781	-10.493924	0.000603	6.030368	1.021572	-0.012059
1914	9.5650e-01	0.8678	-10.531555	0.000376	3.763634	0.637577	-0.007526
1915	9.5700e-01	0.8540	-10.587147	0.000556	5.559913	0.941875	-0.011118
1916	9.5750e-01	0.8448	-10.632047	0.000449	4.490699	0.760745	-0.008980
1917	9.5800e-01	0.8390	-10.691915	0.000599	5.987599	1.014327	-0.011974
1918	9.5850e-01	0.8271	-10.725697	0.000338	3.378717	0.572370	-0.006756
1919	9.5900e-01	0.8158	-10.777867	0.000522	5.217765	0.883913	-0.010434
1920	9.5950e-01	0.8051	-10.831321	0.000535	5.346070	0.905649	-0.010691
1921	9.6000e-01	0.7941	-10.883491	0.000522	5.217765	0.883913	-0.010434
1922	9.6050e-01	0.7861	-10.913425	0.000299	2.993799	0.507163	-0.005987
1923	9.6100e-01	0.7758	-10.975858	0.000624	6.244210	1.057798	-0.012487
1924	9.6150e-01	0.7630	-11.016055	0.000402	4.020245	0.681048	-0.008039
1925	9.6200e-01	0.7603	-11.070363	0.000543	5.431608	0.920139	-0.010862
1926	9.6250e-01	0.7440	-11.119968	0.000496	4.961153	0.840442	-0.009921
1927	9.6300e-01	0.7372	-11.152040	0.000321	3.207642	0.543389	-0.006414
1928	9.6350e-01	0.7274	-11.209341	0.000573	5.730988	0.970856	-0.011460
1929	9.6400e-01	0.7150	-11.249538	0.000402	4.020245	0.681048	-0.008039
1930	9.6450e-01	0.7053	-11.304702	0.000552	5.517145	0.934630	-0.011033
1931	9.6500e-01	0.6931	-11.349602	0.000449	4.490699	0.760745	-0.008980
1932	9.6550e-01	0.6862	-11.388944	0.000393	3.934708	0.666558	-0.007868
1933	9.6600e-01	0.6778	-11.441542	0.000526	5.260533	0.891158	-0.010520
1934	9.6650e-01	0.6657	-11.492429	0.000509	5.089459	0.862178	-0.010177
1935	9.6700e-01	0.6562	-11.524501	0.000321	3.207642	0.543389	-0.006414
1936	9.6750e-01	0.6467	-11.592066	0.000676	6.757433	1.144740	-0.013513
1937	9.6800e-01	0.6369	-11.639532	0.000475	4.747311	0.804216	-0.009493
1938	9.6850e-01	0.6268	-11.686999	0.000475	4.747311	0.804216	-0.009493
1939	9.6900e-01	0.6195	-11.726768	0.000398	3.977476	0.673803	-0.007954
1940	9.6950e-01	0.6042	-11.767392	0.000406	4.063014	0.688293	-0.008125
1941	9.7000e-01	0.5936	-11.822984	0.000556	5.559913	0.941875	-0.011118
1942	9.7050e-01	0.5860	-11.866601	0.000436	4.362394	0.739009	-0.008724
1943	9.7100e-01	0.5750	-11.931600	0.000650	6.500822	1.101269	-0.013000
1944	9.7150e-01	0.5657	-11.964528	0.000329	3.293179	0.557880	-0.006585
1945	9.7200e-01	0.5547	-12.016698	0.000522	5.217765	0.883913	-0.010434
1946	9.7250e-01	0.5466	-12.080414	0.000637	6.372516	1.079533	-0.012743
1947	9.7300e-01	0.5371	-12.119756	0.000393	3.934708	0.666558	-0.007868
1948	9.7350e-01	0.5270	-12.171498	0.000517	5.174996	0.876668	-0.010349
1949	9.7400e-01	0.5156	-12.219820	0.000483	4.832848	0.818707	-0.009664
1950	9.7450e-01	0.5060	-12.262582	0.000428	4.276856	0.724519	-0.008553
1951	9.7500e-01	0.4961	-12.305345	0.000428	4.276856	0.724519	-0.008553
1952	9.7550e-01	0.4856	-12.373337	0.000680	6.800202	1.151985	-0.013598
1953	9.7600e-01	0.4733	-12.427646	0.000543	5.431608	0.920139	-0.010862
1954	9.7650e-01	0.4650	-12.452020	0.000244	2.437808	0.412976	-0.004875
1955	9.7700e-01	0.4565	-12.502053	0.000500	5.003922	0.847687	-0.010006
1956	9.7750e-01	0.4464	-12.553368	0.000513	5.132228	0.869423	-0.010263
1957	9.7800e-01	0.4361	-12.596130	0.000428	4.276856	0.724519	-0.008553
1958	9.7850e-01	0.4239	-12.644024	0.000479	4.790079	0.811461	-0.009579
1959	9.7900e-01	0.4173	-12.682083	0.000381	3.806402	0.644822	-0.007612
1960	9.7950e-01	0.4052	-12.744088	0.000620	6.201442	1.050553	-0.012401
1961	9.8000e-01	0.3952	-12.783858	0.000398	3.977476	0.673803	-0.007954
1962	9.8050e-01	0.3841	-12.840732	0.000569	5.688219	0.963610	-0.011375
1963	9.8100e-01	0.3758	-12.903165	0.000624	6.244210	1.057798	-0.012487
1964	9.8150e-01	0.3702	-12.932671	0.000295	2.951031	0.499918	-0.005901
1965	9.8200e-01	0.3561	-12.989973	0.000573	5.730988	0.970856	-0.011460
1966	9.8250e-01	0.3445	-13.047702	0.000577	5.773756	0.978101	-0.011546
1967	9.8300e-01	0.3347	-13.096024	0.000483	4.832848	0.818707	-0.009664
1968	9.8350e-01	0.3256	-13.134510	0.000385	3.849171	0.652067	-0.007697
1969	9.8400e-01	0.3159	-13.194378	0.000599	5.987599	1.014327	-0.011974
1970	9.8450e-01	0.3076	-13.240561	0.000462	4.619005	0.782481	-0.009237
1971	9.8500e-01	0.2960	-13.301284	0.000607	6.073136	1.028817	-0.012145
1972	9.8550e-01	0.2849	-13.349606	0.000483	4.832848	0.818707	-0.009664
1973	9.8600e-01	0.2751	-13.388092	0.000385	3.849171	0.652067	-0.007697
1974	9.8650e-01	0.2669	-13.431282	0.000432	4.319625	0.731764	-0.008638
1975	9.8700e-01	0.2571	-13.481742	0.000505	5.046691	0.854933	-0.010092
1976	9.8750e-01	0.2491	-13.535195	0.000535	5.346070	0.905649	-0.010691
1977	9.8800e-01	0.2363	-13.596773	0.000616	6.158673	1.043307	-0.012316
1978	9.8850e-01	0.2260	-13.648944	0.000522	5.217765	0.883913	-0.010434
1979	9.8900e-01	0.2166	-13.691278	0.000423	4.234088	0.717274	-0.008467
1980	9.8950e-01	0.2061	-13.735751	0.000445	4.447931	0.753500	-0.008895
1981	9.9000e-01	0.1962	-13.782790	0.000470	4.704542	0.796971	-0.009408
1982	9.9050e-01	0.1878	-13.836671	0.000539	5.388839	0.912894	-0.010776
1983	9.9100e-01	0.1772	-13.897394	0.000607	6.073136	1.028817	-0.012145
1984	9.9150e-01	0.1653	-13.941867	0.000445	4.447931	0.753500	-0.008895
1985	9.9200e-01	0.1556	-14.001734	0.000599	5.987599	1.014327	-0.011974
1986	9.9250e-01	0.1444	-14.029530	0.000278	2.779957	0.470937	-0.005559
1987	9.9300e-01	0.1353	-14.093246	0.000637	6.372516	1.079533	-0.012743
1988	9.9350e-01	0.1263	-14.148410	0.000552	5.517145	0.934630	-0.011033
1989	9.9400e-01	0.1163	-14.183903	0.000355	3.549791	0.601351	-0.007099
1990	9.9450e-01	0.1008	-14.229659	0.000458	4.576236	0.775235	-0.009151
1991	9.9500e-01	0.0936	-14.286105	0.000565	5.645450	0.956365	-0.011289
1992	9.9550e-01	0.0818	-14.325447	0.000393	3.934708	0.666558	-0.007868
1993	9.9600e-01	0.0753	-14.404557	0.000791	7.912184	1.340360	-0.015822
1994	9.9650e-01	0.0670	-14.435346	0.000308	3.079337	0.521654	-0.006158
1995	9.9700e-01	0.0564	-14.497780	0.000624	6.244210	1.057798	-0.012487
1996	9.9750e-01	0.0448	-14.541825	0.000441	4.405162	0.746255	-0.008809
1997	9.9800e-01	0.0387	-14.602976	0.000612	6.115905	1.036062	-0.012230
1998	9.9850e-01	0.0291	-14.646166	0.000432	4.319625	0.731764	-0.008638
1999	9.9900e-01	0.0151	-14.700902	0.000547	5.474376	0.927384	-0.010947
2000	9.9950e-01	0.0027	-14.743237	0.000423	4.234088	0.717274	-0.008467
2001	1.0000e+00	-0.0026	-14.799256	0.000423	4.234088	0.717274	-0.011204

PMax (uC/cm2):	3.49e+01
Pr (uC/cm2):	2.66e+00
-Pr (uC/cm2):	0.00e+00
PLoss (uC/cm2):	0.00e+00
C (Max-Eff) (nF):	3.49e-01
K (Eff):	5.92e+02
Vert. (+/-Pr) Shift (uC/cm2):	1.33e+00
Offset (uC/cm2):	1.75e+01

A (Loop Area - uC/cm2·Volts):	-2.66e-02



Hysteresis Version: 5.48.1 - Radiant Technologies, Inc., 1999 - 9/12/24

