»»»»»»»»»»»»»»»»»»»»»»»»»»»»»»»»»»»» Hysteresis ««««««««««««««««««««««««««««««««««««
»»»  Executed Version:	5.48.1
»»»  Vision Version:	5.48.4 (R)
»»»  Vision Compiled:	9/18/24
»»»  Driver Version:	5.47.0
»»»  Windows Version:	Windows 8 or 8.1
»»»  Processor Information:	x86 (AMD or Intel) - 32 Processors
»»»  Tester Name:	PMF21124-494 (100V)
»»»  Tester S/N:	PMF21124-494
»»»  Internal Amp Type:	100V RevK 270k
»»»  Internal Amp S/N:	iAB2-596/K     
»»»  Execution Count:	1
»»»»»»»»»»»»»»»»»»»»»»»»»»»»»»»»»»»»»»»»»»««««««««««««««««««««««««««««««««««««««««««

Stored:	6/25/2025 - 15:33:22
Configured:	06/25/25 10:44:40 AM
Executed:	06/25/25 03:32:58 PM

»»»»»»»»»»»»»»»»»»»»»»»»»»»»»»»»»»» Sample Info ««««««««««««««««««««««««««««««««««««
Sample Name:	
Lot Name:	
Wafer Name:	
Die Row/Column:	0/0
Capacitor Number:	0
Sample Area (cm2):	1.00e-04
Sample Thickness (microns):	1.50e-01

Amplifier:	Internal

»»»»»»»»»»»»»»»»»»»»»»»»»»»»»»»»»»» Tester Info «««««««««««««««««««««««««««««««««««
Tester Name:	PMF21124-494 (100V)
Tester Serial Number:	PMF21124-494
Return Signal Amp. Level:	1.79 [Index: 2]

»»»»»»»»»»»»»»»»»»»»»»»»»»»»»»»» Hysteresis Info ««««««««««««««««««««««««««««««««««
Task Name:	Hyst-116
Volts:	10.00
Field:	666.67 (kV/cm)
DCBias:	0.00
DCField:	0.00 (kV/cm)
Hysteresis Period (ms):	1.00e+00
Preset:	Enabled
Preset Delay (ms):	1.00e+03
Profile:	Standard Monopolar

»»»»»»»»»»»»»»»»»»»»»»»»»»»»»»»»»»»»»» Data «««««««««««««««««««««««««««««««««««««««
Points:	2001

Valid Data

Point	Time (ms)	Drive Voltage	Measured Polarization (uC/cm2)	Capacitance (uF)	Normalized Capacitance (uF/cm2)	Dielectric Constant	Instantaneous Current (mA)
   1	0.0000e+00	-0.0060	-17.727847	0.000560	5.602618	0.949109	0.011204
   2	5.0000e-04	0.0072	-17.671828	0.000560	5.602618	0.949109	0.011204
   3	1.0000e-03	0.0149	-17.623079	0.000488	4.875560	0.825942	0.009750
   4	1.5000e-03	0.0230	-17.579034	0.000441	4.405112	0.746246	0.008809
   5	2.0000e-03	0.0356	-17.523870	0.000552	5.517082	0.934619	0.011033
   6	2.5000e-03	0.0442	-17.477259	0.000466	4.661720	0.789717	0.009322
   7	3.0000e-03	0.0530	-17.426799	0.000505	5.046633	0.854923	0.010092
   8	3.5000e-03	0.0646	-17.384036	0.000428	4.276807	0.724511	0.008553
   9	4.0000e-03	0.0749	-17.338708	0.000453	4.533416	0.767981	0.009066
  10	4.5000e-03	0.0859	-17.283545	0.000552	5.517082	0.934619	0.011033
  11	5.0000e-03	0.0977	-17.231374	0.000522	5.217705	0.883903	0.010434
  12	5.5000e-03	0.1034	-17.203579	0.000278	2.779925	0.470932	0.005559
  13	6.0000e-03	0.1102	-17.120192	0.000834	8.339775	1.412796	0.016677
  14	6.5000e-03	0.1245	-17.092396	0.000278	2.779925	0.470932	0.005559
  15	7.0000e-03	0.1362	-17.057758	0.000346	3.464214	0.586854	0.006928
  16	7.5000e-03	0.1472	-17.002595	0.000552	5.517082	0.934619	0.011033
  17	8.0000e-03	0.1573	-16.938023	0.000646	6.457979	1.094011	0.012914
  18	8.5000e-03	0.1641	-16.902103	0.000359	3.592518	0.608589	0.007184
  19	9.0000e-03	0.1773	-16.846084	0.000560	5.602618	0.949109	0.011204
  20	9.5000e-03	0.1842	-16.781940	0.000642	6.415211	1.086766	0.012829
  21	1.0000e-02	0.1972	-16.743454	0.000385	3.849127	0.652060	0.007697
  22	1.0500e-02	0.2009	-16.698553	0.000449	4.490648	0.760736	0.008980
  23	1.1000e-02	0.2158	-16.636547	0.000620	6.201371	1.050541	0.012401
  24	1.1500e-02	0.2239	-16.607897	0.000287	2.865461	0.485422	0.005730
  25	1.2000e-02	0.2355	-16.548884	0.000590	5.901994	0.999825	0.011802
  26	1.2500e-02	0.2464	-16.505267	0.000436	4.362344	0.739001	0.008724
  27	1.3000e-02	0.2557	-16.448392	0.000569	5.688154	0.963599	0.011375
  28	1.3500e-02	0.2658	-16.400926	0.000475	4.747256	0.804207	0.009493
  29	1.4000e-02	0.2745	-16.355170	0.000458	4.576184	0.775227	0.009151
  30	1.4500e-02	0.2872	-16.299151	0.000560	5.602618	0.949109	0.011204
  31	1.5000e-02	0.2962	-16.248691	0.000505	5.046633	0.854923	0.010092
  32	1.5500e-02	0.3030	-16.197376	0.000513	5.132169	0.869413	0.010263
  33	1.6000e-02	0.3188	-16.157607	0.000398	3.977431	0.673795	0.007954
  34	1.6500e-02	0.3249	-16.108430	0.000492	4.918329	0.833187	0.009835
  35	1.7000e-02	0.3374	-16.067378	0.000411	4.105735	0.695530	0.008210
  36	1.7500e-02	0.3455	-16.021622	0.000458	4.576184	0.775227	0.009151
  37	1.8000e-02	0.3548	-15.960900	0.000607	6.073067	1.028805	0.012145
  38	1.8500e-02	0.3680	-15.912578	0.000483	4.832792	0.818697	0.009664
  39	1.9000e-02	0.3757	-15.865967	0.000466	4.661720	0.789717	0.009322
  40	1.9500e-02	0.3861	-15.828336	0.000376	3.763591	0.637569	0.007526
  41	2.0000e-02	0.3961	-15.768468	0.000599	5.987530	1.014315	0.011974
  42	2.0500e-02	0.4063	-15.716726	0.000517	5.174937	0.876658	0.010349
  43	2.1000e-02	0.4150	-15.663700	0.000530	5.303241	0.898393	0.010605
  44	2.1500e-02	0.4262	-15.646595	0.000171	1.710723	0.289804	0.003421
  45	2.2000e-02	0.4370	-15.580313	0.000663	6.629052	1.122992	0.013256
  46	2.2500e-02	0.4497	-15.522584	0.000577	5.773690	0.978090	0.011546
  47	2.3000e-02	0.4562	-15.481532	0.000411	4.105735	0.695530	0.008210
  48	2.3500e-02	0.4657	-15.425513	0.000560	5.602618	0.949109	0.011204
  49	2.4000e-02	0.4755	-15.381467	0.000441	4.405112	0.746246	0.008809
  50	2.4500e-02	0.4853	-15.323310	0.000582	5.816458	0.985335	0.011631
  51	2.5000e-02	0.4961	-15.295087	0.000282	2.822693	0.478177	0.005645
  52	2.5500e-02	0.5069	-15.230943	0.000642	6.415211	1.086766	0.012829
  53	2.6000e-02	0.5164	-15.185615	0.000453	4.533416	0.767981	0.009066
  54	2.6500e-02	0.5256	-15.146701	0.000389	3.891895	0.659305	0.007783
  55	2.7000e-02	0.5385	-15.085551	0.000612	6.115835	1.036050	0.012230
  56	2.7500e-02	0.5477	-15.047064	0.000385	3.849127	0.652060	0.007697
  57	2.8000e-02	0.5552	-14.991045	0.000560	5.602618	0.949109	0.011204
  58	2.8500e-02	0.5669	-14.943151	0.000479	4.790024	0.811452	0.009579
  59	2.9000e-02	0.5742	-14.905948	0.000372	3.720822	0.630324	0.007441
  60	2.9500e-02	0.5828	-14.852922	0.000530	5.303241	0.898393	0.010605
  61	3.0000e-02	0.5981	-14.812298	0.000406	4.062967	0.688285	0.008125
  62	3.0500e-02	0.6060	-14.760983	0.000513	5.132169	0.869413	0.010263
  63	3.1000e-02	0.6182	-14.716082	0.000449	4.490648	0.760736	0.008980
  64	3.1500e-02	0.6238	-14.658353	0.000577	5.773690	0.978090	0.011546
  65	3.2000e-02	0.6391	-14.596347	0.000620	6.201371	1.050541	0.012401
  66	3.2500e-02	0.6482	-14.567269	0.000291	2.908229	0.492667	0.005816
  67	3.3000e-02	0.6568	-14.522796	0.000445	4.447880	0.753491	0.008895
  68	3.3500e-02	0.6650	-14.469770	0.000530	5.303241	0.898393	0.010605
  69	3.4000e-02	0.6738	-14.429146	0.000406	4.062967	0.688285	0.008125
  70	3.4500e-02	0.6880	-14.374410	0.000547	5.474314	0.927374	0.010947
  71	3.5000e-02	0.6970	-14.338489	0.000359	3.592518	0.608589	0.007184
  72	3.5500e-02	0.7072	-14.283753	0.000547	5.474314	0.927374	0.010947
  73	3.6000e-02	0.7160	-14.228590	0.000552	5.517082	0.934619	0.011033
  74	3.6500e-02	0.7261	-14.196090	0.000325	3.250374	0.550628	0.006500
  75	3.7000e-02	0.7375	-14.138788	0.000573	5.730922	0.970844	0.011460
  76	3.7500e-02	0.7451	-14.088328	0.000505	5.046633	0.854923	0.010092
  77	3.8000e-02	0.7558	-14.050270	0.000381	3.806359	0.644815	0.007612
  78	3.8500e-02	0.7657	-13.995534	0.000547	5.474314	0.927374	0.010947
  79	3.9000e-02	0.7755	-13.947212	0.000483	4.832792	0.818697	0.009664
  80	3.9500e-02	0.7875	-13.889483	0.000577	5.773690	0.978090	0.011546
  81	4.0000e-02	0.7938	-13.842016	0.000475	4.747256	0.804207	0.009493
  82	4.0500e-02	0.8060	-13.793695	0.000483	4.832792	0.818697	0.009664
  83	4.1000e-02	0.8154	-13.768037	0.000257	2.566084	0.434706	0.005132
  84	4.1500e-02	0.8255	-13.716294	0.000517	5.174937	0.876658	0.010349
  85	4.2000e-02	0.8340	-13.673960	0.000423	4.234039	0.717266	0.008467
  86	4.2500e-02	0.8442	-13.614520	0.000594	5.944762	1.007070	0.011888
  87	4.3000e-02	0.8582	-13.573040	0.000415	4.148503	0.702775	0.008296
  88	4.3500e-02	0.8659	-13.527284	0.000458	4.576184	0.775227	0.009151
  89	4.4000e-02	0.8766	-13.475541	0.000517	5.174937	0.876658	0.010349
  90	4.4500e-02	0.8853	-13.431924	0.000436	4.362344	0.739001	0.008724
  91	4.5000e-02	0.8962	-13.381036	0.000509	5.089401	0.862168	0.010177
  92	4.5500e-02	0.9069	-13.331004	0.000500	5.003865	0.847678	0.010006
  93	4.6000e-02	0.9160	-13.300643	0.000304	3.036533	0.514403	0.006072
  94	4.6500e-02	0.9241	-13.233506	0.000671	6.714588	1.137482	0.013427
  95	4.7000e-02	0.9356	-13.197585	0.000359	3.592518	0.608589	0.007184
  96	4.7500e-02	0.9464	-13.144560	0.000530	5.303241	0.898393	0.010605
  97	4.8000e-02	0.9570	-13.103507	0.000411	4.105735	0.695530	0.008210
  98	4.8500e-02	0.9660	-13.053903	0.000496	4.961097	0.840433	0.009921
  99	4.9000e-02	0.9751	-13.008147	0.000458	4.576184	0.775227	0.009151
 100	4.9500e-02	0.9875	-12.954694	0.000535	5.346009	0.905638	0.010691
 101	5.0000e-02	0.9961	-12.914497	0.000402	4.020199	0.681040	0.008039
 102	5.0500e-02	1.0061	-12.866603	0.000479	4.790024	0.811452	0.009579
 103	5.1000e-02	1.0141	-12.825979	0.000406	4.062967	0.688285	0.008125
 104	5.1500e-02	1.0242	-12.772098	0.000539	5.388777	0.912884	0.010776
 105	5.2000e-02	1.0358	-12.734039	0.000381	3.806359	0.644815	0.007612
 106	5.2500e-02	1.0453	-12.686145	0.000479	4.790024	0.811452	0.009579
 107	5.3000e-02	1.0558	-12.629271	0.000569	5.688154	0.963599	0.011375
 108	5.3500e-02	1.0638	-12.598482	0.000308	3.079301	0.521648	0.006158
 109	5.4000e-02	1.0770	-12.546312	0.000522	5.217705	0.883903	0.010434
 110	5.4500e-02	1.0860	-12.499273	0.000470	4.704488	0.796962	0.009408
 111	5.5000e-02	1.0970	-12.459504	0.000398	3.977431	0.673795	0.007954
 112	5.5500e-02	1.1071	-12.402202	0.000573	5.730922	0.970844	0.011460
 113	5.6000e-02	1.1172	-12.368847	0.000334	3.335910	0.565118	0.006671
 114	5.6500e-02	1.1261	-12.321381	0.000475	4.747256	0.804207	0.009493
 115	5.7000e-02	1.1347	-12.277335	0.000441	4.405112	0.746246	0.008809
 116	5.7500e-02	1.1457	-12.222172	0.000552	5.517082	0.934619	0.011033
 117	5.8000e-02	1.1580	-12.176416	0.000458	4.576184	0.775227	0.009151
 118	5.8500e-02	1.1642	-12.135791	0.000406	4.062967	0.688285	0.008125
 119	5.9000e-02	1.1780	-12.093457	0.000423	4.234039	0.717266	0.008467
 120	5.9500e-02	1.1865	-12.046418	0.000470	4.704488	0.796962	0.009408
 121	6.0000e-02	1.1964	-11.995103	0.000513	5.132169	0.869413	0.010263
 122	6.0500e-02	1.2079	-11.962176	0.000329	3.293142	0.557873	0.006585
 123	6.1000e-02	1.2171	-11.917703	0.000445	4.447880	0.753491	0.008895
 124	6.1500e-02	1.2259	-11.861684	0.000560	5.602618	0.949109	0.011204
 125	6.2000e-02	1.2372	-11.821915	0.000398	3.977431	0.673795	0.007954
 126	6.2500e-02	1.2457	-11.765040	0.000569	5.688154	0.963599	0.011375
 127	6.3000e-02	1.2567	-11.728692	0.000364	3.635286	0.615834	0.007270
 128	6.3500e-02	1.2665	-11.685930	0.000428	4.276807	0.724511	0.008553
 129	6.4000e-02	1.2755	-11.639319	0.000466	4.661720	0.789717	0.009322
 130	6.4500e-02	1.2837	-11.588431	0.000509	5.089401	0.862168	0.010177
 131	6.5000e-02	1.2959	-11.540965	0.000475	4.747256	0.804207	0.009493
 132	6.5500e-02	1.3057	-11.501623	0.000393	3.934663	0.666550	0.007868
 133	6.6000e-02	1.3167	-11.448170	0.000535	5.346009	0.905638	0.010691
 134	6.6500e-02	1.3245	-11.419092	0.000291	2.908229	0.492667	0.005816
 135	6.7000e-02	1.3326	-11.357941	0.000612	6.115835	1.036050	0.012230
 136	6.7500e-02	1.3459	-11.325014	0.000329	3.293142	0.557873	0.006585
 137	6.8000e-02	1.3551	-11.284817	0.000402	4.020199	0.681040	0.008039
 138	6.8500e-02	1.3666	-11.224950	0.000599	5.987530	1.014315	0.011974
 139	6.9000e-02	1.3754	-11.181759	0.000432	4.319576	0.731756	0.008638
 140	6.9500e-02	1.3867	-11.121464	0.000603	6.030299	1.021560	0.012059
 141	7.0000e-02	1.3962	-11.095807	0.000257	2.566084	0.434706	0.005132
 142	7.0500e-02	1.4050	-11.044919	0.000509	5.089401	0.862168	0.010177
 143	7.1000e-02	1.4189	-10.995315	0.000496	4.961097	0.840433	0.009921
 144	7.1500e-02	1.4272	-10.959822	0.000355	3.549750	0.601344	0.007099
 145	7.2000e-02	1.4359	-10.919625	0.000402	4.020199	0.681040	0.008039
 146	7.2500e-02	1.4462	-10.877290	0.000423	4.234039	0.717266	0.008467
 147	7.3000e-02	1.4569	-10.832817	0.000445	4.447880	0.753491	0.008895
 148	7.3500e-02	1.4659	-10.771667	0.000612	6.115835	1.036050	0.012230
 149	7.4000e-02	1.4759	-10.735319	0.000364	3.635286	0.615834	0.007270
 150	7.4500e-02	1.4832	-10.695550	0.000398	3.977431	0.673795	0.007954
 151	7.5000e-02	1.4986	-10.655780	0.000398	3.977431	0.673795	0.007954
 152	7.5500e-02	1.5054	-10.584367	0.000714	7.142268	1.209933	0.014283
 153	7.6000e-02	1.5163	-10.561703	0.000227	2.266708	0.383991	0.004533
 154	7.6500e-02	1.5271	-10.503973	0.000577	5.773690	0.978090	0.011546
 155	7.7000e-02	1.5363	-10.466770	0.000372	3.720822	0.630324	0.007441
 156	7.7500e-02	1.5463	-10.438119	0.000287	2.865461	0.485422	0.005730
 157	7.8000e-02	1.5549	-10.385094	0.000530	5.303241	0.898393	0.010605
 158	7.8500e-02	1.5630	-10.327364	0.000577	5.773690	0.978090	0.011546
 159	7.9000e-02	1.5752	-10.306411	0.000210	2.095636	0.355010	0.004191
 160	7.9500e-02	1.5865	-10.246543	0.000599	5.987530	1.014315	0.011974
 161	8.0000e-02	1.5976	-10.203353	0.000432	4.319576	0.731756	0.008638
 162	8.0500e-02	1.6061	-10.167005	0.000364	3.635286	0.615834	0.007270
 163	8.1000e-02	1.6150	-10.118255	0.000488	4.875560	0.825942	0.009750
 164	8.1500e-02	1.6237	-10.073355	0.000449	4.490648	0.760736	0.008980
 165	8.2000e-02	1.6360	-10.025461	0.000479	4.790024	0.811452	0.009579
 166	8.2500e-02	1.6467	-9.985264	0.000402	4.020199	0.681040	0.008039
 167	8.3000e-02	1.6546	-9.938225	0.000470	4.704488	0.796962	0.009408
 168	8.3500e-02	1.6643	-9.900594	0.000376	3.763591	0.637569	0.007526
 169	8.4000e-02	1.6754	-9.860397	0.000402	4.020199	0.681040	0.008039
 170	8.4500e-02	1.6856	-9.807372	0.000530	5.303241	0.898393	0.010605
 171	8.5000e-02	1.6954	-9.758195	0.000492	4.918329	0.833187	0.009835
 172	8.5500e-02	1.7036	-9.727834	0.000304	3.036533	0.514403	0.006072
 173	8.6000e-02	1.7161	-9.665400	0.000624	6.244139	1.057786	0.012487
 174	8.6500e-02	1.7252	-9.627769	0.000376	3.763591	0.637569	0.007526
 175	8.7000e-02	1.7355	-9.589283	0.000385	3.849127	0.652060	0.007697
 176	8.7500e-02	1.7445	-9.545238	0.000441	4.405112	0.746246	0.008809
 177	8.8000e-02	1.7555	-9.520863	0.000244	2.437780	0.412971	0.004875
 178	8.8500e-02	1.7642	-9.476818	0.000441	4.405112	0.746246	0.008809
 179	8.9000e-02	1.7773	-9.410536	0.000663	6.629052	1.122992	0.013256
 180	8.9500e-02	1.7871	-9.375470	0.000351	3.506982	0.594099	0.007013
 181	9.0000e-02	1.7960	-9.331425	0.000441	4.405112	0.746246	0.008809
 182	9.0500e-02	1.8053	-9.268136	0.000633	6.329675	1.072276	0.012658
 183	9.1000e-02	1.8165	-9.248466	0.000197	1.967331	0.333275	0.003934
 184	9.1500e-02	1.8263	-9.200144	0.000483	4.832792	0.818697	0.009664
 185	9.2000e-02	1.8376	-9.142415	0.000577	5.773690	0.978090	0.011546
 186	9.2500e-02	1.8469	-9.091527	0.000509	5.089401	0.862168	0.010177
 187	9.3000e-02	1.8542	-9.055179	0.000364	3.635286	0.615834	0.007270
 188	9.3500e-02	1.8645	-9.025673	0.000295	2.950997	0.499912	0.005901
 189	9.4000e-02	1.8761	-8.963240	0.000624	6.244139	1.057786	0.012487
 190	9.4500e-02	1.8858	-8.941431	0.000218	2.181172	0.369501	0.004362
 191	9.5000e-02	1.8970	-8.896530	0.000449	4.490648	0.760736	0.008980
 192	9.5500e-02	1.9098	-8.846925	0.000496	4.961097	0.840433	0.009921
 193	9.6000e-02	1.9161	-8.813998	0.000329	3.293142	0.557873	0.006585
 194	9.6500e-02	1.9254	-8.762256	0.000517	5.174937	0.876658	0.010349
 195	9.7000e-02	1.9350	-8.707947	0.000543	5.431545	0.920129	0.010862
 196	9.7500e-02	1.9449	-8.685711	0.000222	2.223940	0.376746	0.004447
 197	9.8000e-02	1.9553	-8.626698	0.000590	5.901994	0.999825	0.011802
 198	9.8500e-02	1.9640	-8.591206	0.000355	3.549750	0.601344	0.007099
 199	9.9000e-02	1.9763	-8.542884	0.000483	4.832792	0.818697	0.009664
 200	9.9500e-02	1.9864	-8.507391	0.000355	3.549750	0.601344	0.007099
 201	1.0000e-01	1.9969	-8.467622	0.000398	3.977431	0.673795	0.007954
 202	1.0050e-01	2.0040	-8.421866	0.000458	4.576184	0.775227	0.009151
 203	1.0100e-01	2.0158	-8.370551	0.000513	5.132169	0.869413	0.010263
 204	1.0150e-01	2.0267	-8.338907	0.000316	3.164838	0.536138	0.006329
 205	1.0200e-01	2.0348	-8.291440	0.000475	4.747256	0.804207	0.009493
 206	1.0250e-01	2.0459	-8.259368	0.000321	3.207606	0.543383	0.006414
 207	1.0300e-01	2.0557	-8.211047	0.000483	4.832792	0.818697	0.009664
 208	1.0350e-01	2.0663	-8.175554	0.000355	3.549750	0.601344	0.007099
 209	1.0400e-01	2.0734	-8.122956	0.000526	5.260473	0.891148	0.010520
 210	1.0450e-01	2.0864	-8.072924	0.000500	5.003865	0.847678	0.010006
 211	1.0500e-01	2.0978	-8.036148	0.000368	3.678054	0.623079	0.007355
 212	1.0550e-01	2.1064	-8.009208	0.000269	2.694389	0.456442	0.005388
 213	1.0600e-01	2.1173	-7.946347	0.000629	6.286907	1.065031	0.012572
 214	1.0650e-01	2.1278	-7.901874	0.000445	4.447880	0.753491	0.008895
 215	1.0700e-01	2.1378	-7.865525	0.000364	3.635286	0.615834	0.007270
 216	1.0750e-01	2.1457	-7.825756	0.000398	3.977431	0.673795	0.007954
 217	1.0800e-01	2.1576	-7.789408	0.000364	3.635286	0.615834	0.007270
 218	1.0850e-01	2.1658	-7.752205	0.000372	3.720822	0.630324	0.007441
 219	1.0900e-01	2.1762	-7.703456	0.000488	4.875560	0.825942	0.009750
 220	1.0950e-01	2.1861	-7.660265	0.000432	4.319576	0.731756	0.008638
 221	1.1000e-01	2.1973	-7.607240	0.000530	5.303241	0.898393	0.010605
 222	1.1050e-01	2.2060	-7.567898	0.000393	3.934663	0.666550	0.007868
 223	1.1100e-01	2.2168	-7.521287	0.000466	4.661720	0.789717	0.009322
 224	1.1150e-01	2.2266	-7.491353	0.000299	2.993765	0.507158	0.005987
 225	1.1200e-01	2.2372	-7.453722	0.000376	3.763591	0.637569	0.007526
 226	1.1250e-01	2.2434	-7.406256	0.000475	4.747256	0.804207	0.009493
 227	1.1300e-01	2.2571	-7.359217	0.000470	4.704488	0.796962	0.009408
 228	1.1350e-01	2.2656	-7.326290	0.000329	3.293142	0.557873	0.006585
 229	1.1400e-01	2.2766	-7.275830	0.000505	5.046633	0.854923	0.010092
 230	1.1450e-01	2.2864	-7.225798	0.000500	5.003865	0.847678	0.010006
 231	1.1500e-01	2.2949	-7.186457	0.000393	3.934663	0.666550	0.007868
 232	1.1550e-01	2.3047	-7.142411	0.000441	4.405112	0.746246	0.008809
 233	1.1600e-01	2.3145	-7.102214	0.000402	4.020199	0.681040	0.008039
 234	1.1650e-01	2.3246	-7.080405	0.000218	2.181172	0.369501	0.004362
 235	1.1700e-01	2.3351	-7.030373	0.000500	5.003865	0.847678	0.010006
 236	1.1750e-01	2.3465	-6.986328	0.000441	4.405112	0.746246	0.008809
 237	1.1800e-01	2.3556	-6.950835	0.000355	3.549750	0.601344	0.007099
 238	1.1850e-01	2.3646	-6.906362	0.000445	4.447880	0.753491	0.008895
 239	1.1900e-01	2.3762	-6.867448	0.000389	3.891895	0.659305	0.007783
 240	1.1950e-01	2.3874	-6.813995	0.000535	5.346009	0.905638	0.010691
 241	1.2000e-01	2.3981	-6.789193	0.000248	2.480548	0.420216	0.004960
 242	1.2050e-01	2.4069	-6.746430	0.000428	4.276807	0.724511	0.008553
 243	1.2100e-01	2.4176	-6.704950	0.000415	4.148503	0.702775	0.008296
 244	1.2150e-01	2.4274	-6.655346	0.000496	4.961097	0.840433	0.009921
 245	1.2200e-01	2.4377	-6.609162	0.000462	4.618952	0.782472	0.009237
 246	1.2250e-01	2.4490	-6.579656	0.000295	2.950997	0.499912	0.005901
 247	1.2300e-01	2.4568	-6.528769	0.000509	5.089401	0.862168	0.010177
 248	1.2350e-01	2.4640	-6.473178	0.000556	5.559850	0.941864	0.011118
 249	1.2400e-01	2.4785	-6.449231	0.000240	2.395012	0.405726	0.004789
 250	1.2450e-01	2.4872	-6.409889	0.000393	3.934663	0.666550	0.007868
 251	1.2500e-01	2.4959	-6.377817	0.000321	3.207606	0.543383	0.006414
 252	1.2550e-01	2.5049	-6.314956	0.000629	6.286907	1.065031	0.012572
 253	1.2600e-01	2.5149	-6.280746	0.000342	3.421446	0.579609	0.006842
 254	1.2650e-01	2.5306	-6.237984	0.000428	4.276807	0.724511	0.008553
 255	1.2700e-01	2.5368	-6.201636	0.000364	3.635286	0.615834	0.007270
 256	1.2750e-01	2.5447	-6.158445	0.000432	4.319576	0.731756	0.008638
 257	1.2800e-01	2.5557	-6.121670	0.000368	3.678054	0.623079	0.007355
 258	1.2850e-01	2.5648	-6.072065	0.000496	4.961097	0.840433	0.009921
 259	1.2900e-01	2.5728	-6.032724	0.000393	3.934663	0.666550	0.007868
 260	1.2950e-01	2.5838	-5.996375	0.000364	3.635286	0.615834	0.007270
 261	1.3000e-01	2.5958	-5.952758	0.000436	4.362344	0.739001	0.008724
 262	1.3050e-01	2.6053	-5.911278	0.000415	4.148503	0.702775	0.008296
 263	1.3100e-01	2.6143	-5.866805	0.000445	4.447880	0.753491	0.008895
 264	1.3150e-01	2.6239	-5.830884	0.000359	3.592518	0.608589	0.007184
 265	1.3200e-01	2.6344	-5.799668	0.000312	3.122069	0.528893	0.006243
 266	1.3250e-01	2.6459	-5.752201	0.000475	4.747256	0.804207	0.009493
 267	1.3300e-01	2.6563	-5.709011	0.000432	4.319576	0.731756	0.008638
 268	1.3350e-01	2.6653	-5.669242	0.000398	3.977431	0.673795	0.007954
 269	1.3400e-01	2.6721	-5.624341	0.000449	4.490648	0.760736	0.008980
 270	1.3450e-01	2.6843	-5.581151	0.000432	4.319576	0.731756	0.008638
 271	1.3500e-01	2.6951	-5.545658	0.000355	3.549750	0.601344	0.007099
 272	1.3550e-01	2.7064	-5.507600	0.000381	3.806359	0.644815	0.007612
 273	1.3600e-01	2.7167	-5.469113	0.000385	3.849127	0.652060	0.007697
 274	1.3650e-01	2.7278	-5.434476	0.000346	3.464214	0.586854	0.006928
 275	1.3700e-01	2.7363	-5.375036	0.000594	5.944762	1.007070	0.011888
 276	1.3750e-01	2.7451	-5.339115	0.000359	3.592518	0.608589	0.007184
 277	1.3800e-01	2.7567	-5.299774	0.000393	3.934663	0.666550	0.007868
 278	1.3850e-01	2.7695	-5.278820	0.000210	2.095636	0.355010	0.004191
 279	1.3900e-01	2.7768	-5.218953	0.000599	5.987530	1.014315	0.011974
 280	1.3950e-01	2.7853	-5.176618	0.000423	4.234039	0.717266	0.008467
 281	1.4000e-01	2.7997	-5.153098	0.000235	2.352244	0.398481	0.004704
 282	1.4050e-01	2.8074	-5.104777	0.000483	4.832792	0.818697	0.009664
 283	1.4100e-01	2.8151	-5.050896	0.000539	5.388777	0.912884	0.010776
 284	1.4150e-01	2.8275	-5.019679	0.000312	3.122069	0.528893	0.006243
 285	1.4200e-01	2.8348	-4.973923	0.000458	4.576184	0.775227	0.009151
 286	1.4250e-01	2.8445	-4.937575	0.000364	3.635286	0.615834	0.007270
 287	1.4300e-01	2.8581	-4.894385	0.000432	4.319576	0.731756	0.008638
 288	1.4350e-01	2.8644	-4.849912	0.000445	4.447880	0.753491	0.008895
 289	1.4400e-01	2.8766	-4.816130	0.000338	3.378678	0.572364	0.006756
 290	1.4450e-01	2.8851	-4.783203	0.000329	3.293142	0.557873	0.006585
 291	1.4500e-01	2.8958	-4.748992	0.000342	3.421446	0.579609	0.006842
 292	1.4550e-01	2.9074	-4.689553	0.000594	5.944762	1.007070	0.011888
 293	1.4600e-01	2.9175	-4.663895	0.000257	2.566084	0.434706	0.005132
 294	1.4650e-01	2.9249	-4.632251	0.000316	3.164838	0.536138	0.006329
 295	1.4700e-01	2.9370	-4.586067	0.000462	4.618952	0.782472	0.009237
 296	1.4750e-01	2.9462	-4.536463	0.000496	4.961097	0.840433	0.009921
 297	1.4800e-01	2.9565	-4.515509	0.000210	2.095636	0.355010	0.004191
 298	1.4850e-01	2.9649	-4.469753	0.000458	4.576184	0.775227	0.009151
 299	1.4900e-01	2.9786	-4.412451	0.000573	5.730922	0.970844	0.011460
 300	1.4950e-01	2.9871	-4.391498	0.000210	2.095636	0.355010	0.004191
 301	1.5000e-01	2.9976	-4.339327	0.000522	5.217705	0.883903	0.010434
 302	1.5050e-01	3.0087	-4.300414	0.000389	3.891895	0.659305	0.007783
 303	1.5100e-01	3.0161	-4.275184	0.000252	2.523316	0.427461	0.005046
 304	1.5150e-01	3.0273	-4.231994	0.000432	4.319576	0.731756	0.008638
 305	1.5200e-01	3.0399	-4.179823	0.000522	5.217705	0.883903	0.010434
 306	1.5250e-01	3.0479	-4.153738	0.000261	2.608853	0.441952	0.005217
 307	1.5300e-01	3.0585	-4.110120	0.000436	4.362344	0.739001	0.008724
 308	1.5350e-01	3.0652	-4.062654	0.000475	4.747256	0.804207	0.009493
 309	1.5400e-01	3.0774	-4.045549	0.000171	1.710723	0.289804	0.003421
 310	1.5450e-01	3.0855	-3.997655	0.000479	4.790024	0.811452	0.009579
 311	1.5500e-01	3.0951	-3.946340	0.000513	5.132169	0.869413	0.010263
 312	1.5550e-01	3.1073	-3.905715	0.000406	4.062967	0.688285	0.008125
 313	1.5600e-01	3.1165	-3.870223	0.000355	3.549750	0.601344	0.007099
 314	1.5650e-01	3.1299	-3.821901	0.000483	4.832792	0.818697	0.009664
 315	1.5700e-01	3.1371	-3.797954	0.000240	2.395012	0.405726	0.004789
 316	1.5750e-01	3.1489	-3.756047	0.000419	4.191271	0.710021	0.008381
 317	1.5800e-01	3.1573	-3.705159	0.000509	5.089401	0.862168	0.010177
 318	1.5850e-01	3.1701	-3.677791	0.000274	2.737157	0.463687	0.005474
 319	1.5900e-01	3.1752	-3.647857	0.000299	2.993765	0.507158	0.005987
 320	1.5950e-01	3.1855	-3.596542	0.000513	5.132169	0.869413	0.010263
 321	1.6000e-01	3.1972	-3.546510	0.000500	5.003865	0.847678	0.010006
 322	1.6050e-01	3.2056	-3.511445	0.000351	3.506982	0.594099	0.007013
 323	1.6100e-01	3.2156	-3.478518	0.000329	3.293142	0.557873	0.006585
 324	1.6150e-01	3.2281	-3.442170	0.000364	3.635286	0.615834	0.007270
 325	1.6200e-01	3.2359	-3.409243	0.000329	3.293142	0.557873	0.006585
 326	1.6250e-01	3.2472	-3.360066	0.000492	4.918329	0.833187	0.009835
 327	1.6300e-01	3.2547	-3.321579	0.000385	3.849127	0.652060	0.007697
 328	1.6350e-01	3.2654	-3.294639	0.000269	2.694389	0.456442	0.005388
 329	1.6400e-01	3.2767	-3.252304	0.000423	4.234039	0.717266	0.008467
 330	1.6450e-01	3.2864	-3.194575	0.000577	5.773690	0.978090	0.011546
 331	1.6500e-01	3.2957	-3.171055	0.000235	2.352244	0.398481	0.004704
 332	1.6550e-01	3.3069	-3.123589	0.000475	4.747256	0.804207	0.009493
 333	1.6600e-01	3.3162	-3.090662	0.000329	3.293142	0.557873	0.006585
 334	1.6650e-01	3.3253	-3.050893	0.000398	3.977431	0.673795	0.007954
 335	1.6700e-01	3.3371	-3.018821	0.000321	3.207606	0.543383	0.006414
 336	1.6750e-01	3.3450	-2.970499	0.000483	4.832792	0.818697	0.009664
 337	1.6800e-01	3.3568	-2.944841	0.000257	2.566084	0.434706	0.005132
 338	1.6850e-01	3.3655	-2.893954	0.000509	5.089401	0.862168	0.010177
 339	1.6900e-01	3.3762	-2.867441	0.000265	2.651621	0.449197	0.005303
 340	1.6950e-01	3.3881	-2.834942	0.000325	3.250374	0.550628	0.006500
 341	1.7000e-01	3.3963	-2.793462	0.000415	4.148503	0.702775	0.008296
 342	1.7050e-01	3.4070	-2.739154	0.000543	5.431545	0.920129	0.010862
 343	1.7100e-01	3.4195	-2.716490	0.000227	2.266708	0.383991	0.004533
 344	1.7150e-01	3.4268	-2.678431	0.000381	3.806359	0.644815	0.007612
 345	1.7200e-01	3.4375	-2.637807	0.000406	4.062967	0.688285	0.008125
 346	1.7250e-01	3.4448	-2.593761	0.000441	4.405112	0.746246	0.008809
 347	1.7300e-01	3.4583	-2.554847	0.000389	3.891895	0.659305	0.007783
 348	1.7350e-01	3.4656	-2.513795	0.000411	4.105735	0.695530	0.008210
 349	1.7400e-01	3.4741	-2.472316	0.000415	4.148503	0.702775	0.008296
 350	1.7450e-01	3.4879	-2.442809	0.000295	2.950997	0.499912	0.005901
 351	1.7500e-01	3.4965	-2.406889	0.000359	3.592518	0.608589	0.007184
 352	1.7550e-01	3.5077	-2.374817	0.000321	3.207606	0.543383	0.006414
 353	1.7600e-01	3.5139	-2.332482	0.000423	4.234039	0.717266	0.008467
 354	1.7650e-01	3.5272	-2.283305	0.000492	4.918329	0.833187	0.009835
 355	1.7700e-01	3.5353	-2.256792	0.000265	2.651621	0.449197	0.005303
 356	1.7750e-01	3.5439	-2.210181	0.000466	4.661720	0.789717	0.009322
 357	1.7800e-01	3.5553	-2.169984	0.000402	4.020199	0.681040	0.008039
 358	1.7850e-01	3.5683	-2.139623	0.000304	3.036533	0.514403	0.006072
 359	1.7900e-01	3.5782	-2.098571	0.000411	4.105735	0.695530	0.008210
 360	1.7950e-01	3.5880	-2.066499	0.000321	3.207606	0.543383	0.006414
 361	1.8000e-01	3.5974	-2.017322	0.000492	4.918329	0.833187	0.009835
 362	1.8050e-01	3.6090	-1.988244	0.000291	2.908229	0.492667	0.005816
 363	1.8100e-01	3.6197	-1.953178	0.000351	3.506982	0.594099	0.007013
 364	1.8150e-01	3.6263	-1.908705	0.000445	4.447880	0.753491	0.008895
 365	1.8200e-01	3.6371	-1.878772	0.000299	2.993765	0.507158	0.005987
 366	1.8250e-01	3.6479	-1.821042	0.000577	5.773690	0.978090	0.011546
 367	1.8300e-01	3.6569	-1.790681	0.000304	3.036533	0.514403	0.006072
 368	1.8350e-01	3.6671	-1.750912	0.000398	3.977431	0.673795	0.007954
 369	1.8400e-01	3.6763	-1.721406	0.000295	2.950997	0.499912	0.005901
 370	1.8450e-01	3.6804	-1.663249	0.000582	5.816458	0.985335	0.011631
 371	1.8500e-01	3.6958	-1.643578	0.000197	1.967331	0.333275	0.003934
 372	1.8550e-01	3.7073	-1.610223	0.000334	3.335910	0.565118	0.006671
 373	1.8600e-01	3.7177	-1.573875	0.000364	3.635286	0.615834	0.007270
 374	1.8650e-01	3.7286	-1.547790	0.000261	2.608853	0.441952	0.005217
 375	1.8700e-01	3.7350	-1.513580	0.000342	3.421446	0.579609	0.006842
 376	1.8750e-01	3.7469	-1.454567	0.000590	5.901994	0.999825	0.011802
 377	1.8800e-01	3.7549	-1.430620	0.000240	2.395012	0.405726	0.004789
 378	1.8850e-01	3.7659	-1.378878	0.000517	5.174937	0.876658	0.010349
 379	1.8900e-01	3.7739	-1.340391	0.000385	3.849127	0.652060	0.007697
 380	1.8950e-01	3.7849	-1.313879	0.000265	2.651621	0.449197	0.005303
 381	1.9000e-01	3.7971	-1.267695	0.000462	4.618952	0.782472	0.009237
 382	1.9050e-01	3.8055	-1.238617	0.000291	2.908229	0.492667	0.005816
 383	1.9100e-01	3.8160	-1.201413	0.000372	3.720822	0.630324	0.007441
 384	1.9150e-01	3.8263	-1.171479	0.000299	2.993765	0.507158	0.005987
 385	1.9200e-01	3.8374	-1.130855	0.000406	4.062967	0.688285	0.008125
 386	1.9250e-01	3.8480	-1.093652	0.000372	3.720822	0.630324	0.007441
 387	1.9300e-01	3.8531	-1.049606	0.000441	4.405112	0.746246	0.008809
 388	1.9350e-01	3.8648	-1.012403	0.000372	3.720822	0.630324	0.007441
 389	1.9400e-01	3.8747	-0.985035	0.000274	2.737157	0.463687	0.005474
 390	1.9450e-01	3.8870	-0.937568	0.000475	4.747256	0.804207	0.009493
 391	1.9500e-01	3.8956	-0.898655	0.000389	3.891895	0.659305	0.007783
 392	1.9550e-01	3.9075	-0.876846	0.000218	2.181172	0.369501	0.004362
 393	1.9600e-01	3.9169	-0.834083	0.000428	4.276807	0.724511	0.008553
 394	1.9650e-01	3.9258	-0.785761	0.000483	4.832792	0.818697	0.009664
 395	1.9700e-01	3.9383	-0.767801	0.000180	1.796259	0.304295	0.003592
 396	1.9750e-01	3.9466	-0.714776	0.000530	5.303241	0.898393	0.010605
 397	1.9800e-01	3.9584	-0.680566	0.000342	3.421446	0.579609	0.006842
 398	1.9850e-01	3.9670	-0.640796	0.000398	3.977431	0.673795	0.007954
 399	1.9900e-01	3.9749	-0.610007	0.000308	3.079301	0.521648	0.006158
 400	1.9950e-01	3.9893	-0.573232	0.000368	3.678054	0.623079	0.007355
 401	2.0000e-01	3.9975	-0.543298	0.000299	2.993765	0.507158	0.005987
 402	2.0050e-01	4.0073	-0.503529	0.000398	3.977431	0.673795	0.007954
 403	2.0100e-01	4.0173	-0.473167	0.000304	3.036533	0.514403	0.006072
 404	2.0150e-01	4.0253	-0.430405	0.000428	4.276807	0.724511	0.008553
 405	2.0200e-01	4.0347	-0.403037	0.000274	2.737157	0.463687	0.005474
 406	2.0250e-01	4.0442	-0.341031	0.000620	6.201371	1.050541	0.012401
 407	2.0300e-01	4.0555	-0.294420	0.000466	4.661720	0.789717	0.009322
 408	2.0350e-01	4.0649	-0.275177	0.000192	1.924563	0.326030	0.003849
 409	2.0400e-01	4.0753	-0.255078	0.000201	2.010100	0.340520	0.004020
 410	2.0450e-01	4.0866	-0.202481	0.000526	5.260473	0.891148	0.010520
 411	2.0500e-01	4.0967	-0.164850	0.000376	3.763591	0.637569	0.007526
 412	2.0550e-01	4.1055	-0.151593	0.000133	1.325810	0.224598	0.002651
 413	2.0600e-01	4.1187	-0.098568	0.000530	5.303241	0.898393	0.010605
 414	2.0650e-01	4.1287	-0.056233	0.000423	4.234039	0.717266	0.008467
 415	2.0700e-01	4.1367	-0.024161	0.000321	3.207606	0.543383	0.006414
 416	2.0750e-01	4.1473	0.002352	0.000265	2.651621	0.449197	0.005303
 417	2.0800e-01	4.1568	0.040838	0.000385	3.849127	0.652060	0.007697
 418	2.0850e-01	4.1679	0.096429	0.000556	5.559850	0.941864	0.011118
 419	2.0900e-01	4.1772	0.119521	0.000231	2.309476	0.391236	0.004618
 420	2.0950e-01	4.1861	0.151166	0.000316	3.164838	0.536138	0.006329
 421	2.1000e-01	4.1962	0.202053	0.000509	5.089401	0.862168	0.010177
 422	2.1050e-01	4.2056	0.226000	0.000240	2.395012	0.405726	0.004789
 423	2.1100e-01	4.2152	0.269618	0.000436	4.362344	0.739001	0.008724
 424	2.1150e-01	4.2249	0.301690	0.000321	3.207606	0.543383	0.006414
 425	2.1200e-01	4.2371	0.333762	0.000321	3.207606	0.543383	0.006414
 426	2.1250e-01	4.2438	0.377379	0.000436	4.362344	0.739001	0.008724
 427	2.1300e-01	4.2572	0.403464	0.000261	2.608853	0.441952	0.005217
 428	2.1350e-01	4.2657	0.457773	0.000543	5.431545	0.920129	0.010862
 429	2.1400e-01	4.2783	0.484286	0.000265	2.651621	0.449197	0.005303
 430	2.1450e-01	4.2847	0.521061	0.000368	3.678054	0.623079	0.007355
 431	2.1500e-01	4.2953	0.567673	0.000466	4.661720	0.789717	0.009322
 432	2.1550e-01	4.3032	0.601027	0.000334	3.335910	0.565118	0.006671
 433	2.1600e-01	4.3179	0.627540	0.000265	2.651621	0.449197	0.005303
 434	2.1650e-01	4.3251	0.656191	0.000287	2.865461	0.485422	0.005730
 435	2.1700e-01	4.3369	0.702802	0.000466	4.661720	0.789717	0.009322
 436	2.1750e-01	4.3445	0.731881	0.000291	2.908229	0.492667	0.005816
 437	2.1800e-01	4.3573	0.769939	0.000381	3.806359	0.644815	0.007612
 438	2.1850e-01	4.3658	0.808853	0.000389	3.891895	0.659305	0.007783
 439	2.1900e-01	4.3790	0.848195	0.000393	3.934663	0.666550	0.007868
 440	2.1950e-01	4.3875	0.866155	0.000180	1.796259	0.304295	0.003592
 441	2.2000e-01	4.3950	0.908490	0.000423	4.234039	0.717266	0.008467
 442	2.2050e-01	4.4061	0.950825	0.000423	4.234039	0.717266	0.008467
 443	2.2100e-01	4.4154	0.994870	0.000441	4.405112	0.746246	0.008809
 444	2.2150e-01	4.4250	1.010692	0.000158	1.582419	0.268069	0.003164
 445	2.2200e-01	4.4354	1.046613	0.000359	3.592518	0.608589	0.007184
 446	2.2250e-01	4.4469	1.079968	0.000334	3.335910	0.565118	0.006671
 447	2.2300e-01	4.4550	1.125296	0.000453	4.533416	0.767981	0.009066
 448	2.2350e-01	4.4672	1.171479	0.000462	4.618952	0.782472	0.009237
 449	2.2400e-01	4.4775	1.186019	0.000145	1.454115	0.246334	0.002908
 450	2.2450e-01	4.4818	1.230919	0.000449	4.490648	0.760736	0.008980
 451	2.2500e-01	4.4963	1.271116	0.000402	4.020199	0.681040	0.008039
 452	2.2550e-01	4.5032	1.299339	0.000282	2.822693	0.478177	0.005645
 453	2.2600e-01	4.5149	1.349372	0.000500	5.003865	0.847678	0.010006
 454	2.2650e-01	4.5271	1.357069	0.000077	0.769825	0.130412	0.001539
 455	2.2700e-01	4.5357	1.407529	0.000505	5.046633	0.854923	0.010092
 456	2.2750e-01	4.5471	1.435752	0.000282	2.822693	0.478177	0.005645
 457	2.2800e-01	4.5569	1.483218	0.000475	4.747256	0.804207	0.009493
 458	2.2850e-01	4.5679	1.509303	0.000261	2.608853	0.441952	0.005217
 459	2.2900e-01	4.5763	1.549928	0.000406	4.062967	0.688285	0.008125
 460	2.2950e-01	4.5880	1.588414	0.000385	3.849127	0.652060	0.007697
 461	2.3000e-01	4.5958	1.611506	0.000231	2.309476	0.391236	0.004618
 462	2.3050e-01	4.6054	1.649564	0.000381	3.806359	0.644815	0.007612
 463	2.3100e-01	4.6181	1.685057	0.000355	3.549750	0.601344	0.007099
 464	2.3150e-01	4.6295	1.714991	0.000299	2.993765	0.507158	0.005987
 465	2.3200e-01	4.6407	1.751767	0.000368	3.678054	0.623079	0.007355
 466	2.3250e-01	4.6478	1.796240	0.000445	4.447880	0.753491	0.008895
 467	2.3300e-01	4.6585	1.832588	0.000364	3.635286	0.615834	0.007270
 468	2.3350e-01	4.6713	1.857390	0.000248	2.480548	0.420216	0.004960
 469	2.3400e-01	4.6757	1.886897	0.000295	2.950997	0.499912	0.005901
 470	2.3450e-01	4.6869	1.931370	0.000445	4.447880	0.753491	0.008895
 471	2.3500e-01	4.6954	1.960020	0.000287	2.865461	0.485422	0.005730
 472	2.3550e-01	4.7073	1.994658	0.000346	3.464214	0.586854	0.006928
 473	2.3600e-01	4.7168	2.037421	0.000428	4.276807	0.724511	0.008553
 474	2.3650e-01	4.7272	2.076335	0.000389	3.891895	0.659305	0.007783
 475	2.3700e-01	4.7369	2.104558	0.000282	2.822693	0.478177	0.005645
 476	2.3750e-01	4.7481	2.131498	0.000269	2.694389	0.456442	0.005388
 477	2.3800e-01	4.7591	2.167419	0.000359	3.592518	0.608589	0.007184
 478	2.3850e-01	4.7671	2.205477	0.000381	3.806359	0.644815	0.007612
 479	2.3900e-01	4.7760	2.241826	0.000364	3.635286	0.615834	0.007270
 480	2.3950e-01	4.7858	2.265773	0.000240	2.395012	0.405726	0.004789
 481	2.4000e-01	4.7968	2.308963	0.000432	4.319576	0.731756	0.008638
 482	2.4050e-01	4.8068	2.347449	0.000385	3.849127	0.652060	0.007697
 483	2.4100e-01	4.8175	2.372679	0.000252	2.523316	0.427461	0.005046
 484	2.4150e-01	4.8276	2.401757	0.000291	2.908229	0.492667	0.005816
 485	2.4200e-01	4.8358	2.450079	0.000483	4.832792	0.818697	0.009664
 486	2.4250e-01	4.8468	2.478302	0.000282	2.822693	0.478177	0.005645
 487	2.4300e-01	4.8566	2.509091	0.000308	3.079301	0.521648	0.006158
 488	2.4350e-01	4.8657	2.549716	0.000406	4.062967	0.688285	0.008125
 489	2.4400e-01	4.8752	2.595472	0.000458	4.576184	0.775227	0.009151
 490	2.4450e-01	4.8883	2.601458	0.000060	0.598753	0.101432	0.001197
 491	2.4500e-01	4.8972	2.652773	0.000513	5.132169	0.869413	0.010263
 492	2.4550e-01	4.9084	2.690404	0.000376	3.763591	0.637569	0.007526
 493	2.4600e-01	4.9158	2.719055	0.000287	2.865461	0.485422	0.005730
 494	2.4650e-01	4.9280	2.750700	0.000316	3.164838	0.536138	0.006329
 495	2.4700e-01	4.9359	2.796455	0.000458	4.576184	0.775227	0.009151
 496	2.4750e-01	4.9454	2.826389	0.000299	2.993765	0.507158	0.005987
 497	2.4800e-01	4.9557	2.858889	0.000325	3.250374	0.550628	0.006500
 498	2.4850e-01	4.9677	2.905072	0.000462	4.618952	0.782472	0.009237
 499	2.4900e-01	4.9786	2.929875	0.000248	2.480548	0.420216	0.004960
 500	2.4950e-01	4.9866	2.946124	0.000163	1.625187	0.275314	0.003250
 501	2.5000e-01	4.9982	2.993163	0.000470	4.704488	0.796962	0.009408
 502	2.5050e-01	5.0098	3.026946	0.000338	3.378678	0.572364	0.006756
 503	2.5100e-01	5.0165	3.059873	0.000329	3.293142	0.557873	0.006585
 504	2.5150e-01	5.0269	3.083392	0.000235	2.352244	0.398481	0.004704
 505	2.5200e-01	5.0354	3.129148	0.000458	4.576184	0.775227	0.009151
 506	2.5250e-01	5.0476	3.150529	0.000214	2.138404	0.362255	0.004276
 507	2.5300e-01	5.0574	3.188588	0.000381	3.806359	0.644815	0.007612
 508	2.5350e-01	5.0687	3.228357	0.000398	3.977431	0.673795	0.007954
 509	2.5400e-01	5.0757	3.262139	0.000338	3.378678	0.572364	0.006756
 510	2.5450e-01	5.0882	3.296349	0.000342	3.421446	0.579609	0.006842
 511	2.5500e-01	5.0958	3.340395	0.000441	4.405112	0.746246	0.008809
 512	2.5550e-01	5.1044	3.370329	0.000299	2.993765	0.507158	0.005987
 513	2.5600e-01	5.1166	3.389999	0.000197	1.967331	0.333275	0.003934
 514	2.5650e-01	5.1276	3.431479	0.000415	4.148503	0.702775	0.008296
 515	2.5700e-01	5.1364	3.454143	0.000227	2.266708	0.383991	0.004533
 516	2.5750e-01	5.1483	3.486643	0.000325	3.250374	0.550628	0.006500
 517	2.5800e-01	5.1547	3.517432	0.000308	3.079301	0.521648	0.006158
 518	2.5850e-01	5.1639	3.562332	0.000449	4.490648	0.760736	0.008980
 519	2.5900e-01	5.1813	3.586279	0.000240	2.395012	0.405726	0.004789
 520	2.5950e-01	5.1877	3.627759	0.000415	4.148503	0.702775	0.008296
 521	2.6000e-01	5.1990	3.663680	0.000359	3.592518	0.608589	0.007184
 522	2.6050e-01	5.2069	3.690192	0.000265	2.651621	0.449197	0.005303
 523	2.6100e-01	5.2148	3.726113	0.000359	3.592518	0.608589	0.007184
 524	2.6150e-01	5.2277	3.756902	0.000308	3.079301	0.521648	0.006158
 525	2.6200e-01	5.2386	3.803085	0.000462	4.618952	0.782472	0.009237
 526	2.6250e-01	5.2472	3.827460	0.000244	2.437780	0.412971	0.004875
 527	2.6300e-01	5.2559	3.861242	0.000338	3.378678	0.572364	0.006756
 528	2.6350e-01	5.2661	3.900584	0.000393	3.934663	0.666550	0.007868
 529	2.6400e-01	5.2774	3.924531	0.000240	2.395012	0.405726	0.004789
 530	2.6450e-01	5.2896	3.960879	0.000364	3.635286	0.615834	0.007270
 531	2.6500e-01	5.2979	3.986964	0.000261	2.608853	0.441952	0.005217
 532	2.6550e-01	5.3067	4.033575	0.000466	4.661720	0.789717	0.009322
 533	2.6600e-01	5.3163	4.073772	0.000402	4.020199	0.681040	0.008039
 534	2.6650e-01	5.3287	4.101140	0.000274	2.737157	0.463687	0.005474
 535	2.6700e-01	5.3363	4.135778	0.000346	3.464214	0.586854	0.006928
 536	2.6750e-01	5.3473	4.169560	0.000338	3.378678	0.572364	0.006756
 537	2.6800e-01	5.3571	4.201205	0.000316	3.164838	0.536138	0.006329
 538	2.6850e-01	5.3674	4.227717	0.000265	2.651621	0.449197	0.005303
 539	2.6900e-01	5.3757	4.273046	0.000453	4.533416	0.767981	0.009066
 540	2.6950e-01	5.3882	4.289295	0.000163	1.625187	0.275314	0.003250
 541	2.7000e-01	5.3964	4.324788	0.000355	3.549750	0.601344	0.007099
 542	2.7050e-01	5.4071	4.348308	0.000235	2.352244	0.398481	0.004704
 543	2.7100e-01	5.4163	4.389360	0.000411	4.105735	0.695530	0.008210
 544	2.7150e-01	5.4266	4.415017	0.000257	2.566084	0.434706	0.005132
 545	2.7200e-01	5.4364	4.463339	0.000483	4.832792	0.818697	0.009664
 546	2.7250e-01	5.4477	4.479161	0.000158	1.582419	0.268069	0.003164
 547	2.7300e-01	5.4565	4.524917	0.000458	4.576184	0.775227	0.009151
 548	2.7350e-01	5.4669	4.542877	0.000180	1.796259	0.304295	0.003592
 549	2.7400e-01	5.4773	4.589488	0.000466	4.661720	0.789717	0.009322
 550	2.7450e-01	5.4871	4.618994	0.000295	2.950997	0.499912	0.005901
 551	2.7500e-01	5.4974	4.652349	0.000334	3.335910	0.565118	0.006671
 552	2.7550e-01	5.5069	4.691691	0.000393	3.934663	0.666550	0.007868
 553	2.7600e-01	5.5202	4.695967	0.000043	0.427681	0.072451	0.000855
 554	2.7650e-01	5.5280	4.744289	0.000483	4.832792	0.818697	0.009664
 555	2.7700e-01	5.5371	4.781920	0.000376	3.763591	0.637569	0.007526
 556	2.7750e-01	5.5472	4.793893	0.000120	1.197506	0.202863	0.002395
 557	2.7800e-01	5.5569	4.844353	0.000505	5.046633	0.854923	0.010092
 558	2.7850e-01	5.5640	4.877708	0.000334	3.335910	0.565118	0.006671
 559	2.7900e-01	5.5762	4.925602	0.000479	4.790024	0.811452	0.009579
 560	2.7950e-01	5.5838	4.941851	0.000163	1.625187	0.275314	0.003250
 561	2.8000e-01	5.5988	4.963233	0.000214	2.138404	0.362255	0.004276
 562	2.8050e-01	5.6042	5.001719	0.000385	3.849127	0.652060	0.007697
 563	2.8100e-01	5.6152	5.042771	0.000411	4.105735	0.695530	0.008210
 564	2.8150e-01	5.6268	5.071850	0.000291	2.908229	0.492667	0.005816
 565	2.8200e-01	5.6354	5.102639	0.000308	3.079301	0.521648	0.006158
 566	2.8250e-01	5.6479	5.139414	0.000368	3.678054	0.623079	0.007355
 567	2.8300e-01	5.6546	5.174480	0.000351	3.506982	0.594099	0.007013
 568	2.8350e-01	5.6665	5.202275	0.000278	2.779925	0.470932	0.005559
 569	2.8400e-01	5.6790	5.243327	0.000411	4.105735	0.695530	0.008210
 570	2.8450e-01	5.6854	5.266419	0.000231	2.309476	0.391236	0.004618
 571	2.8500e-01	5.6938	5.296780	0.000304	3.036533	0.514403	0.006072
 572	2.8550e-01	5.7068	5.312603	0.000158	1.582419	0.268069	0.003164
 573	2.8600e-01	5.7178	5.369049	0.000565	5.645386	0.956354	0.011289
 574	2.8650e-01	5.7272	5.398555	0.000295	2.950997	0.499912	0.005901
 575	2.8700e-01	5.7370	5.424213	0.000257	2.566084	0.434706	0.005132
 576	2.8750e-01	5.7468	5.460561	0.000364	3.635286	0.615834	0.007270
 577	2.8800e-01	5.7564	5.493060	0.000325	3.250374	0.550628	0.006500
 578	2.8850e-01	5.7657	5.514014	0.000210	2.095636	0.355010	0.004191
 579	2.8900e-01	5.7782	5.550790	0.000368	3.678054	0.623079	0.007355
 580	2.8950e-01	5.7867	5.585428	0.000346	3.464214	0.586854	0.006928
 581	2.9000e-01	5.7965	5.606381	0.000210	2.095636	0.355010	0.004191
 582	2.9050e-01	5.8043	5.657269	0.000509	5.089401	0.862168	0.010177
 583	2.9100e-01	5.8173	5.682071	0.000248	2.480548	0.420216	0.004960
 584	2.9150e-01	5.8252	5.715426	0.000334	3.335910	0.565118	0.006671
 585	2.9200e-01	5.8386	5.748353	0.000329	3.293142	0.557873	0.006585
 586	2.9250e-01	5.8453	5.775721	0.000274	2.737157	0.463687	0.005474
 587	2.9300e-01	5.8560	5.804799	0.000291	2.908229	0.492667	0.005816
 588	2.9350e-01	5.8673	5.842003	0.000372	3.720822	0.630324	0.007441
 589	2.9400e-01	5.8749	5.883055	0.000411	4.105735	0.695530	0.008210
 590	2.9450e-01	5.8865	5.901443	0.000184	1.839027	0.311540	0.003678
 591	2.9500e-01	5.8955	5.943350	0.000419	4.191271	0.710021	0.008381
 592	2.9550e-01	5.9076	5.973711	0.000304	3.036533	0.514403	0.006072
 593	2.9600e-01	5.9149	6.004500	0.000308	3.079301	0.521648	0.006158
 594	2.9650e-01	5.9247	6.046408	0.000419	4.191271	0.710021	0.008381
 595	2.9700e-01	5.9363	6.065223	0.000188	1.881795	0.318785	0.003763
 596	2.9750e-01	5.9448	6.101571	0.000364	3.635286	0.615834	0.007270
 597	2.9800e-01	5.9567	6.128512	0.000269	2.694389	0.456442	0.005388
 598	2.9850e-01	5.9650	6.175123	0.000466	4.661720	0.789717	0.009322
 599	2.9900e-01	5.9772	6.176833	0.000017	0.171072	0.028980	0.000342
 600	2.9950e-01	5.9857	6.215320	0.000385	3.849127	0.652060	0.007697
 601	3.0000e-01	5.9976	6.247391	0.000321	3.207606	0.543383	0.006414
 602	3.0050e-01	6.0071	6.272621	0.000252	2.523316	0.427461	0.005046
 603	3.0100e-01	6.0172	6.325647	0.000530	5.303241	0.898393	0.010605
 604	3.0150e-01	6.0267	6.350449	0.000248	2.480548	0.420216	0.004960
 605	3.0200e-01	6.0364	6.378672	0.000282	2.822693	0.478177	0.005645
 606	3.0250e-01	6.0455	6.408606	0.000299	2.993765	0.507158	0.005987
 607	3.0300e-01	6.0559	6.436829	0.000282	2.822693	0.478177	0.005645
 608	3.0350e-01	6.0657	6.459494	0.000227	2.266708	0.383991	0.004533
 609	3.0400e-01	6.0742	6.508243	0.000488	4.875560	0.825942	0.009750
 610	3.0450e-01	6.0860	6.537321	0.000291	2.908229	0.492667	0.005816
 611	3.0500e-01	6.0986	6.566828	0.000295	2.950997	0.499912	0.005901
 612	3.0550e-01	6.1090	6.597617	0.000308	3.079301	0.521648	0.006158
 613	3.0600e-01	6.1183	6.627123	0.000295	2.950997	0.499912	0.005901
 614	3.0650e-01	6.1264	6.650214	0.000231	2.309476	0.391236	0.004618
 615	3.0700e-01	6.1362	6.689984	0.000398	3.977431	0.673795	0.007954
 616	3.0750e-01	6.1407	6.708371	0.000184	1.839027	0.311540	0.003678
 617	3.0800e-01	6.1591	6.749424	0.000411	4.105735	0.695530	0.008210
 618	3.0850e-01	6.1676	6.780213	0.000308	3.079301	0.521648	0.006158
 619	3.0900e-01	6.1786	6.795607	0.000154	1.539651	0.260824	0.003079
 620	3.0950e-01	6.1853	6.841363	0.000458	4.576184	0.775227	0.009151
 621	3.1000e-01	6.1984	6.869159	0.000278	2.779925	0.470932	0.005559
 622	3.1050e-01	6.2048	6.896099	0.000269	2.694389	0.456442	0.005388
 623	3.1100e-01	6.2160	6.942283	0.000462	4.618952	0.782472	0.009237
 624	3.1150e-01	6.2268	6.956822	0.000145	1.454115	0.246334	0.002908
 625	3.1200e-01	6.2372	6.993598	0.000368	3.678054	0.623079	0.007355
 626	3.1250e-01	6.2479	7.041492	0.000479	4.790024	0.811452	0.009579
 627	3.1300e-01	6.2549	7.059452	0.000180	1.796259	0.304295	0.003592
 628	3.1350e-01	6.2640	7.087247	0.000278	2.779925	0.470932	0.005559
 629	3.1400e-01	6.2753	7.116754	0.000295	2.950997	0.499912	0.005901
 630	3.1450e-01	6.2869	7.163365	0.000466	4.661720	0.789717	0.009322
 631	3.1500e-01	6.2961	7.177904	0.000145	1.454115	0.246334	0.002908
 632	3.1550e-01	6.3062	7.201851	0.000240	2.395012	0.405726	0.004789
 633	3.1600e-01	6.3165	7.245041	0.000432	4.319576	0.731756	0.008638
 634	3.1650e-01	6.3251	7.278396	0.000334	3.335910	0.565118	0.006671
 635	3.1700e-01	6.3370	7.303626	0.000252	2.523316	0.427461	0.005046
 636	3.1750e-01	6.3449	7.329283	0.000257	2.566084	0.434706	0.005132
 637	3.1800e-01	6.3562	7.359217	0.000299	2.993765	0.507158	0.005987
 638	3.1850e-01	6.3684	7.395993	0.000368	3.678054	0.623079	0.007355
 639	3.1900e-01	6.3763	7.418657	0.000227	2.266708	0.383991	0.004533
 640	3.1950e-01	6.3857	7.454150	0.000355	3.549750	0.601344	0.007099
 641	3.2000e-01	6.3953	7.492209	0.000381	3.806359	0.644815	0.007612
 642	3.2050e-01	6.4069	7.509741	0.000175	1.753491	0.297049	0.003507
 643	3.2100e-01	6.4169	7.558491	0.000488	4.875560	0.825942	0.009750
 644	3.2150e-01	6.4273	7.576451	0.000180	1.796259	0.304295	0.003592
 645	3.2200e-01	6.4371	7.610233	0.000338	3.378678	0.572364	0.006756
 646	3.2250e-01	6.4471	7.652140	0.000419	4.191271	0.710021	0.008381
 647	3.2300e-01	6.4560	7.671384	0.000192	1.924563	0.326030	0.003849
 648	3.2350e-01	6.4661	7.714146	0.000428	4.276807	0.724511	0.008553
 649	3.2400e-01	6.4752	7.729113	0.000150	1.496883	0.253579	0.002993
 650	3.2450e-01	6.4862	7.764606	0.000355	3.549750	0.601344	0.007099
 651	3.2500e-01	6.4948	7.805230	0.000406	4.062967	0.688285	0.008125
 652	3.2550e-01	6.5085	7.828322	0.000231	2.309476	0.391236	0.004618
 653	3.2600e-01	6.5198	7.857401	0.000291	2.908229	0.492667	0.005816
 654	3.2650e-01	6.5277	7.883058	0.000257	2.566084	0.434706	0.005132
 655	3.2700e-01	6.5381	7.909571	0.000265	2.651621	0.449197	0.005303
 656	3.2750e-01	6.5491	7.937367	0.000278	2.779925	0.470932	0.005559
 657	3.2800e-01	6.5564	7.979701	0.000423	4.234039	0.717266	0.008467
 658	3.2850e-01	6.5660	8.005787	0.000261	2.608853	0.441952	0.005217
 659	3.2900e-01	6.5759	8.045556	0.000398	3.977431	0.673795	0.007954
 660	3.2950e-01	6.5884	8.060095	0.000145	1.454115	0.246334	0.002908
 661	3.3000e-01	6.5979	8.095588	0.000355	3.549750	0.601344	0.007099
 662	3.3050e-01	6.6064	8.128087	0.000325	3.250374	0.550628	0.006500
 663	3.3100e-01	6.6165	8.143482	0.000154	1.539651	0.260824	0.003079
 664	3.3150e-01	6.6281	8.181541	0.000381	3.806359	0.644815	0.007612
 665	3.3200e-01	6.6365	8.222165	0.000406	4.062967	0.688285	0.008125
 666	3.3250e-01	6.6473	8.246967	0.000248	2.480548	0.420216	0.004960
 667	3.3300e-01	6.6562	8.285026	0.000381	3.806359	0.644815	0.007612
 668	3.3350e-01	6.6650	8.302559	0.000175	1.753491	0.297049	0.003507
 669	3.3400e-01	6.6772	8.330354	0.000278	2.779925	0.470932	0.005559
 670	3.3450e-01	6.6870	8.366702	0.000364	3.635286	0.615834	0.007270
 671	3.3500e-01	6.6968	8.391932	0.000252	2.523316	0.427461	0.005046
 672	3.3550e-01	6.7065	8.427853	0.000359	3.592518	0.608589	0.007184
 673	3.3600e-01	6.7175	8.464201	0.000364	3.635286	0.615834	0.007270
 674	3.3650e-01	6.7267	8.472326	0.000081	0.812593	0.137657	0.001625
 675	3.3700e-01	6.7389	8.508674	0.000364	3.635286	0.615834	0.007270
 676	3.3750e-01	6.7493	8.532193	0.000235	2.352244	0.398481	0.004704
 677	3.3800e-01	6.7548	8.567686	0.000355	3.549750	0.601344	0.007099
 678	3.3850e-01	6.7676	8.598475	0.000308	3.079301	0.521648	0.006158
 679	3.3900e-01	6.7758	8.631830	0.000334	3.335910	0.565118	0.006671
 680	3.3950e-01	6.7859	8.665185	0.000334	3.335910	0.565118	0.006671
 681	3.4000e-01	6.7963	8.669889	0.000047	0.470449	0.079696	0.000941
 682	3.4050e-01	6.8068	8.716500	0.000466	4.661720	0.789717	0.009322
 683	3.4100e-01	6.8188	8.757979	0.000415	4.148503	0.702775	0.008296
 684	3.4150e-01	6.8243	8.790479	0.000325	3.250374	0.550628	0.006500
 685	3.4200e-01	6.8356	8.825544	0.000351	3.506982	0.594099	0.007013
 686	3.4250e-01	6.8460	8.838373	0.000128	1.283042	0.217353	0.002566
 687	3.4300e-01	6.8591	8.871300	0.000329	3.293142	0.557873	0.006585
 688	3.4350e-01	6.8680	8.895675	0.000244	2.437780	0.412971	0.004875
 689	3.4400e-01	6.8808	8.927747	0.000321	3.207606	0.543383	0.006414
 690	3.4450e-01	6.8866	8.953832	0.000261	2.608853	0.441952	0.005217
 691	3.4500e-01	6.8985	8.981627	0.000278	2.779925	0.470932	0.005559
 692	3.4550e-01	6.9061	9.008140	0.000265	2.651621	0.449197	0.005303
 693	3.4600e-01	6.9171	9.041067	0.000329	3.293142	0.557873	0.006585
 694	3.4650e-01	6.9257	9.083402	0.000423	4.234039	0.717266	0.008467
 695	3.4700e-01	6.9373	9.123599	0.000402	4.020199	0.681040	0.008039
 696	3.4750e-01	6.9470	9.136855	0.000133	1.325810	0.224598	0.002651
 697	3.4800e-01	6.9592	9.166362	0.000295	2.950997	0.499912	0.005901
 698	3.4850e-01	6.9675	9.201854	0.000355	3.549750	0.601344	0.007099
 699	3.4900e-01	6.9751	9.223236	0.000214	2.138404	0.362255	0.004276
 700	3.4950e-01	6.9885	9.254452	0.000312	3.122069	0.528893	0.006243
 701	3.5000e-01	6.9943	9.286097	0.000316	3.164838	0.536138	0.006329
 702	3.5050e-01	7.0064	9.310471	0.000244	2.437780	0.412971	0.004875
 703	3.5100e-01	7.0173	9.345537	0.000351	3.506982	0.594099	0.007013
 704	3.5150e-01	7.0270	9.360503	0.000150	1.496883	0.253579	0.002993
 705	3.5200e-01	7.0377	9.404549	0.000441	4.405112	0.746246	0.008809
 706	3.5250e-01	7.0490	9.425075	0.000205	2.052868	0.347765	0.004105
 707	3.5300e-01	7.0557	9.475107	0.000500	5.003865	0.847678	0.010006
 708	3.5350e-01	7.0660	9.496061	0.000210	2.095636	0.355010	0.004191
 709	3.5400e-01	7.0770	9.514876	0.000188	1.881795	0.318785	0.003763
 710	3.5450e-01	7.0886	9.545665	0.000308	3.079301	0.521648	0.006158
 711	3.5500e-01	7.0990	9.578165	0.000325	3.250374	0.550628	0.006500
 712	3.5550e-01	7.1075	9.610664	0.000325	3.250374	0.550628	0.006500
 713	3.5600e-01	7.1161	9.631618	0.000210	2.095636	0.355010	0.004191
 714	3.5650e-01	7.1265	9.658986	0.000274	2.737157	0.463687	0.005474
 715	3.5700e-01	7.1378	9.695762	0.000368	3.678054	0.623079	0.007355
 716	3.5750e-01	7.1478	9.726978	0.000312	3.122069	0.528893	0.006243
 717	3.5800e-01	7.1576	9.757340	0.000304	3.036533	0.514403	0.006072
 718	3.5850e-01	7.1677	9.774017	0.000167	1.667955	0.282559	0.003335
 719	3.5900e-01	7.1753	9.813359	0.000393	3.934663	0.666550	0.007868
 720	3.5950e-01	7.1869	9.831319	0.000180	1.796259	0.304295	0.003592
 721	3.6000e-01	7.1954	9.865957	0.000346	3.464214	0.586854	0.006928
 722	3.6050e-01	7.2076	9.896746	0.000308	3.079301	0.521648	0.006158
 723	3.6100e-01	7.2186	9.930100	0.000334	3.335910	0.565118	0.006671
 724	3.6150e-01	7.2266	9.958751	0.000287	2.865461	0.485422	0.005730
 725	3.6200e-01	7.2357	9.984409	0.000257	2.566084	0.434706	0.005132
 726	3.6250e-01	7.2479	10.020329	0.000359	3.592518	0.608589	0.007184
 727	3.6300e-01	7.2592	10.029737	0.000094	0.940898	0.159392	0.001882
 728	3.6350e-01	7.2656	10.065658	0.000359	3.592518	0.608589	0.007184
 729	3.6400e-01	7.2797	10.094308	0.000287	2.865461	0.485422	0.005730
 730	3.6450e-01	7.2853	10.134078	0.000398	3.977431	0.673795	0.007954
 731	3.6500e-01	7.2955	10.168715	0.000346	3.464214	0.586854	0.006928
 732	3.6550e-01	7.3083	10.181544	0.000128	1.283042	0.217353	0.002566
 733	3.6600e-01	7.3170	10.204208	0.000227	2.266708	0.383991	0.004533
 734	3.6650e-01	7.3285	10.238846	0.000346	3.464214	0.586854	0.006928
 735	3.6700e-01	7.3352	10.262793	0.000240	2.395012	0.405726	0.004789
 736	3.6750e-01	7.3480	10.296148	0.000334	3.335910	0.565118	0.006671
 737	3.6800e-01	7.3560	10.340193	0.000441	4.405112	0.746246	0.008809
 738	3.6850e-01	7.3669	10.349173	0.000090	0.898130	0.152147	0.001796
 739	3.6900e-01	7.3764	10.406475	0.000573	5.730922	0.970844	0.011460
 740	3.6950e-01	7.3865	10.412462	0.000060	0.598753	0.101432	0.001197
 741	3.7000e-01	7.3950	10.456507	0.000441	4.405112	0.746246	0.008809
 742	3.7050e-01	7.4054	10.459928	0.000034	0.342145	0.057961	0.000684
 743	3.7100e-01	7.4164	10.501835	0.000419	4.191271	0.710021	0.008381
 744	3.7150e-01	7.4265	10.540322	0.000385	3.849127	0.652060	0.007697
 745	3.7200e-01	7.4365	10.557854	0.000175	1.753491	0.297049	0.003507
 746	3.7250e-01	7.4484	10.572393	0.000145	1.454115	0.246334	0.002908
 747	3.7300e-01	7.4573	10.610880	0.000385	3.849127	0.652060	0.007697
 748	3.7350e-01	7.4677	10.647228	0.000364	3.635286	0.615834	0.007270
 749	3.7400e-01	7.4777	10.668609	0.000214	2.138404	0.362255	0.004276
 750	3.7450e-01	7.4872	10.704957	0.000364	3.635286	0.615834	0.007270
 751	3.7500e-01	7.4966	10.724200	0.000192	1.924563	0.326030	0.003849
 752	3.7550e-01	7.5064	10.754989	0.000308	3.079301	0.521648	0.006158
 753	3.7600e-01	7.5153	10.782357	0.000274	2.737157	0.463687	0.005474
 754	3.7650e-01	7.5287	10.814857	0.000325	3.250374	0.550628	0.006500
 755	3.7700e-01	7.5360	10.834528	0.000197	1.967331	0.333275	0.003934
 756	3.7750e-01	7.5452	10.863179	0.000287	2.865461	0.485422	0.005730
 757	3.7800e-01	7.5598	10.901237	0.000381	3.806359	0.644815	0.007612
 758	3.7850e-01	7.5677	10.918770	0.000175	1.753491	0.297049	0.003507
 759	3.7900e-01	7.5735	10.960677	0.000419	4.191271	0.710021	0.008381
 760	3.7950e-01	7.5848	10.983769	0.000231	2.309476	0.391236	0.004618
 761	3.8000e-01	7.5983	11.003867	0.000201	2.010100	0.340520	0.004020
 762	3.8050e-01	7.6038	11.041498	0.000376	3.763591	0.637569	0.007526
 763	3.8100e-01	7.6166	11.078274	0.000368	3.678054	0.623079	0.007355
 764	3.8150e-01	7.6236	11.099228	0.000210	2.095636	0.355010	0.004191
 765	3.8200e-01	7.6358	11.120609	0.000214	2.138404	0.362255	0.004276
 766	3.8250e-01	7.6471	11.153109	0.000325	3.250374	0.550628	0.006500
 767	3.8300e-01	7.6569	11.188174	0.000351	3.506982	0.594099	0.007013
 768	3.8350e-01	7.6655	11.206134	0.000180	1.796259	0.304295	0.003592
 769	3.8400e-01	7.6788	11.251890	0.000458	4.576184	0.775227	0.009151
 770	3.8450e-01	7.6880	11.257449	0.000056	0.555985	0.094186	0.001112
 771	3.8500e-01	7.6959	11.295508	0.000381	3.806359	0.644815	0.007612
 772	3.8550e-01	7.7063	11.320738	0.000252	2.523316	0.427461	0.005046
 773	3.8600e-01	7.7148	11.354948	0.000342	3.421446	0.579609	0.006842
 774	3.8650e-01	7.7252	11.382743	0.000278	2.779925	0.470932	0.005559
 775	3.8700e-01	7.7359	11.410111	0.000274	2.737157	0.463687	0.005474
 776	3.8750e-01	7.7484	11.438762	0.000287	2.865461	0.485422	0.005730
 777	3.8800e-01	7.7557	11.469551	0.000308	3.079301	0.521648	0.006158
 778	3.8850e-01	7.7661	11.484946	0.000154	1.539651	0.260824	0.003079
 779	3.8900e-01	7.7740	11.534978	0.000500	5.003865	0.847678	0.010006
 780	3.8950e-01	7.7866	11.541820	0.000068	0.684289	0.115922	0.001368
 781	3.9000e-01	7.7945	11.586293	0.000445	4.447880	0.753491	0.008895
 782	3.9050e-01	7.8064	11.599122	0.000128	1.283042	0.217353	0.002566
 783	3.9100e-01	7.8162	11.631194	0.000321	3.207606	0.543383	0.006414
 784	3.9150e-01	7.8247	11.667542	0.000364	3.635286	0.615834	0.007270
 785	3.9200e-01	7.8363	11.689351	0.000218	2.181172	0.369501	0.004362
 786	3.9250e-01	7.8470	11.723988	0.000346	3.464214	0.586854	0.006928
 787	3.9300e-01	7.8558	11.733396	0.000094	0.940898	0.159392	0.001882
 788	3.9350e-01	7.8638	11.779152	0.000458	4.576184	0.775227	0.009151
 789	3.9400e-01	7.8760	11.792836	0.000137	1.368578	0.231843	0.002737
 790	3.9450e-01	7.8859	11.824908	0.000321	3.207606	0.543383	0.006414
 791	3.9500e-01	7.8967	11.861256	0.000364	3.635286	0.615834	0.007270
 792	3.9550e-01	7.9065	11.877933	0.000167	1.667955	0.282559	0.003335
 793	3.9600e-01	7.9150	11.907440	0.000295	2.950997	0.499912	0.005901
 794	3.9650e-01	7.9272	11.928393	0.000210	2.095636	0.355010	0.004191
 795	3.9700e-01	7.9346	11.977998	0.000496	4.961097	0.840433	0.009921
 796	3.9750e-01	7.9462	11.995530	0.000175	1.753491	0.297049	0.003507
 797	3.9800e-01	7.9565	12.025464	0.000299	2.993765	0.507158	0.005987
 798	3.9850e-01	7.9663	12.059247	0.000338	3.378678	0.572364	0.006756
 799	3.9900e-01	7.9736	12.088325	0.000291	2.908229	0.492667	0.005816
 800	3.9950e-01	7.9846	12.092601	0.000043	0.427681	0.072451	0.000855
 801	4.0000e-01	7.9974	12.139212	0.000466	4.661720	0.789717	0.009322
 802	4.0050e-01	8.0048	12.162732	0.000235	2.352244	0.398481	0.004704
 803	4.0100e-01	8.0170	12.202501	0.000398	3.977431	0.673795	0.007954
 804	4.0150e-01	8.0249	12.212764	0.000103	1.026434	0.173883	0.002053
 805	4.0200e-01	8.0371	12.258948	0.000462	4.618952	0.782472	0.009237
 806	4.0250e-01	8.0452	12.270066	0.000111	1.111970	0.188373	0.002224
 807	4.0300e-01	8.0554	12.307697	0.000376	3.763591	0.637569	0.007526
 808	4.0350e-01	8.0661	12.333782	0.000261	2.608853	0.441952	0.005217
 809	4.0400e-01	8.0750	12.356018	0.000222	2.223940	0.376746	0.004447
 810	4.0450e-01	8.0869	12.396215	0.000402	4.020199	0.681040	0.008039
 811	4.0500e-01	8.0945	12.414603	0.000184	1.839027	0.311540	0.003678
 812	4.0550e-01	8.1055	12.438978	0.000244	2.437780	0.412971	0.004875
 813	4.0600e-01	8.1171	12.483451	0.000445	4.447880	0.753491	0.008895
 814	4.0650e-01	8.1262	12.497562	0.000141	1.411346	0.239089	0.002822
 815	4.0700e-01	8.1360	12.509108	0.000115	1.154738	0.195618	0.002309
 816	4.0750e-01	8.1445	12.555292	0.000462	4.618952	0.782472	0.009237
 817	4.0800e-01	8.1561	12.585653	0.000304	3.036533	0.514403	0.006072
 818	4.0850e-01	8.1662	12.607890	0.000222	2.223940	0.376746	0.004447
 819	4.0900e-01	8.1741	12.631409	0.000235	2.352244	0.398481	0.004704
 820	4.0950e-01	8.1842	12.679303	0.000479	4.790024	0.811452	0.009579
 821	4.1000e-01	8.1976	12.683579	0.000043	0.427681	0.072451	0.000855
 822	4.1050e-01	8.2047	12.724631	0.000411	4.105735	0.695530	0.008210
 823	4.1100e-01	8.2184	12.749861	0.000252	2.523316	0.427461	0.005046
 824	4.1150e-01	8.2245	12.776802	0.000269	2.694389	0.456442	0.005388
 825	4.1200e-01	8.2370	12.811439	0.000346	3.464214	0.586854	0.006928
 826	4.1250e-01	8.2458	12.833676	0.000222	2.223940	0.376746	0.004447
 827	4.1300e-01	8.2584	12.870452	0.000368	3.678054	0.623079	0.007355
 828	4.1350e-01	8.2657	12.876866	0.000064	0.641521	0.108677	0.001283
 829	4.1400e-01	8.2751	12.925188	0.000483	4.832792	0.818697	0.009664
 830	4.1450e-01	8.2843	12.955977	0.000308	3.079301	0.521648	0.006158
 831	4.1500e-01	8.2947	12.964957	0.000090	0.898130	0.152147	0.001796
 832	4.1550e-01	8.3057	13.007292	0.000423	4.234039	0.717266	0.008467
 833	4.1600e-01	8.3191	13.017982	0.000107	1.069202	0.181128	0.002138
 834	4.1650e-01	8.3276	13.057752	0.000398	3.977431	0.673795	0.007954
 835	4.1700e-01	8.3359	13.071008	0.000133	1.325810	0.224598	0.002651
 836	4.1750e-01	8.3459	13.113770	0.000428	4.276807	0.724511	0.008553
 837	4.1800e-01	8.3594	13.129165	0.000154	1.539651	0.260824	0.003079
 838	4.1850e-01	8.3643	13.168507	0.000393	3.934663	0.666550	0.007868
 839	4.1900e-01	8.3777	13.189460	0.000210	2.095636	0.355010	0.004191
 840	4.1950e-01	8.3850	13.222815	0.000334	3.335910	0.565118	0.006671
 841	4.2000e-01	8.3942	13.257453	0.000346	3.464214	0.586854	0.006928
 842	4.2050e-01	8.4070	13.274558	0.000171	1.710723	0.289804	0.003421
 843	4.2100e-01	8.4195	13.305347	0.000308	3.079301	0.521648	0.006158
 844	4.2150e-01	8.4271	13.322024	0.000167	1.667955	0.282559	0.003335
 845	4.2200e-01	8.4375	13.358372	0.000364	3.635286	0.615834	0.007270
 846	4.2250e-01	8.4412	13.388306	0.000299	2.993765	0.507158	0.005987
 847	4.2300e-01	8.4564	13.406266	0.000180	1.796259	0.304295	0.003592
 848	4.2350e-01	8.4686	13.443470	0.000372	3.720822	0.630324	0.007441
 849	4.2400e-01	8.4766	13.475541	0.000321	3.207606	0.543383	0.006414
 850	4.2450e-01	8.4882	13.497350	0.000218	2.181172	0.369501	0.004362
 851	4.2500e-01	8.4979	13.521725	0.000244	2.437780	0.412971	0.004875
 852	4.2550e-01	8.5052	13.566626	0.000449	4.490648	0.760736	0.008980
 853	4.2600e-01	8.5156	13.577316	0.000107	1.069202	0.181128	0.002138
 854	4.2650e-01	8.5272	13.612382	0.000351	3.506982	0.594099	0.007013
 855	4.2700e-01	8.5370	13.640177	0.000278	2.779925	0.470932	0.005559
 856	4.2750e-01	8.5461	13.667545	0.000274	2.737157	0.463687	0.005474
 857	4.2800e-01	8.5565	13.694058	0.000265	2.651621	0.449197	0.005303
 858	4.2850e-01	8.5669	13.738103	0.000441	4.405112	0.746246	0.008809
 859	4.2900e-01	8.5779	13.742807	0.000047	0.470449	0.079696	0.000941
 860	4.2950e-01	8.5870	13.763761	0.000210	2.095636	0.355010	0.004191
 861	4.3000e-01	8.5950	13.806523	0.000428	4.276807	0.724511	0.008553
 862	4.3050e-01	8.6078	13.817214	0.000107	1.069202	0.181128	0.002138
 863	4.3100e-01	8.6169	13.843727	0.000265	2.651621	0.449197	0.005303
 864	4.3150e-01	8.6273	13.881358	0.000376	3.763591	0.637569	0.007526
 865	4.3200e-01	8.6371	13.892904	0.000115	1.154738	0.195618	0.002309
 866	4.3250e-01	8.6487	13.942081	0.000492	4.918329	0.833187	0.009835
 867	4.3300e-01	8.6584	13.973725	0.000316	3.164838	0.536138	0.006329
 868	4.3350e-01	8.6682	13.998100	0.000244	2.437780	0.412971	0.004875
 869	4.3400e-01	8.6769	14.015205	0.000171	1.710723	0.289804	0.003421
 870	4.3450e-01	8.6859	14.041717	0.000265	2.651621	0.449197	0.005303
 871	4.3500e-01	8.6957	14.080631	0.000389	3.891895	0.659305	0.007783
 872	4.3550e-01	8.7061	14.105861	0.000252	2.523316	0.427461	0.005046
 873	4.3600e-01	8.7177	14.133657	0.000278	2.779925	0.470932	0.005559
 874	4.3650e-01	8.7268	14.161452	0.000278	2.779925	0.470932	0.005559
 875	4.3700e-01	8.7366	14.190531	0.000291	2.908229	0.492667	0.005816
 876	4.3750e-01	8.7482	14.214906	0.000244	2.437780	0.412971	0.004875
 877	4.3800e-01	8.7555	14.235432	0.000205	2.052868	0.347765	0.004105
 878	4.3850e-01	8.7659	14.270497	0.000351	3.506982	0.594099	0.007013
 879	4.3900e-01	8.7775	14.305990	0.000355	3.549750	0.601344	0.007099
 880	4.3950e-01	8.7897	14.316253	0.000103	1.026434	0.173883	0.002053
 881	4.4000e-01	8.7976	14.340627	0.000244	2.437780	0.412971	0.004875
 882	4.4050e-01	8.8104	14.369706	0.000291	2.908229	0.492667	0.005816
 883	4.4100e-01	8.8177	14.405626	0.000359	3.592518	0.608589	0.007184
 884	4.4150e-01	8.8287	14.411613	0.000060	0.598753	0.101432	0.001197
 885	4.4200e-01	8.8336	14.452665	0.000411	4.105735	0.695530	0.008210
 886	4.4250e-01	8.8449	14.493290	0.000406	4.062967	0.688285	0.008125
 887	4.4300e-01	8.8547	14.515526	0.000222	2.223940	0.376746	0.004447
 888	4.4350e-01	8.8672	14.539473	0.000240	2.395012	0.405726	0.004789
 889	4.4400e-01	8.8776	14.571545	0.000321	3.207606	0.543383	0.006414
 890	4.4450e-01	8.8867	14.589933	0.000184	1.839027	0.311540	0.003678
 891	4.4500e-01	8.8965	14.619011	0.000291	2.908229	0.492667	0.005816
 892	4.4550e-01	8.9081	14.650228	0.000312	3.122069	0.528893	0.006243
 893	4.4600e-01	8.9172	14.678879	0.000287	2.865461	0.485422	0.005730
 894	4.4650e-01	8.9259	14.710523	0.000316	3.164838	0.536138	0.006329
 895	4.4700e-01	8.9380	14.734043	0.000235	2.352244	0.398481	0.004704
 896	4.4750e-01	8.9459	14.775522	0.000415	4.148503	0.702775	0.008296
 897	4.4800e-01	8.9551	14.799042	0.000235	2.352244	0.398481	0.004704
 898	4.4850e-01	8.9673	14.822561	0.000235	2.352244	0.398481	0.004704
 899	4.4900e-01	8.9735	14.850784	0.000282	2.822693	0.478177	0.005645
 900	4.4950e-01	8.9856	14.876014	0.000252	2.523316	0.427461	0.005046
 901	4.5000e-01	8.9954	14.913218	0.000372	3.720822	0.630324	0.007441
 902	4.5050e-01	9.0063	14.936309	0.000231	2.309476	0.391236	0.004618
 903	4.5100e-01	9.0143	14.961967	0.000257	2.566084	0.434706	0.005132
 904	4.5150e-01	9.0302	14.976934	0.000150	1.496883	0.253579	0.002993
 905	4.5200e-01	9.0387	15.003874	0.000269	2.694389	0.456442	0.005388
 906	4.5250e-01	9.0491	15.037229	0.000334	3.335910	0.565118	0.006671
 907	4.5300e-01	9.0564	15.065452	0.000282	2.822693	0.478177	0.005645
 908	4.5350e-01	9.0662	15.091537	0.000261	2.608853	0.441952	0.005217
 909	4.5400e-01	9.0753	15.136866	0.000453	4.533416	0.767981	0.009066
 910	4.5450e-01	9.0863	15.152688	0.000158	1.582419	0.268069	0.003164
 911	4.5500e-01	9.0970	15.177062	0.000244	2.437780	0.412971	0.004875
 912	4.5550e-01	9.1064	15.196306	0.000192	1.924563	0.326030	0.003849
 913	4.5600e-01	9.1147	15.237358	0.000411	4.105735	0.695530	0.008210
 914	4.5650e-01	9.1269	15.270712	0.000334	3.335910	0.565118	0.006671
 915	4.5700e-01	9.1376	15.288245	0.000175	1.753491	0.297049	0.003507
 916	4.5750e-01	9.1473	15.325876	0.000376	3.763591	0.637569	0.007526
 917	4.5800e-01	9.1589	15.345547	0.000197	1.967331	0.333275	0.003934
 918	4.5850e-01	9.1644	15.369921	0.000244	2.437780	0.412971	0.004875
 919	4.5900e-01	9.1785	15.393868	0.000240	2.395012	0.405726	0.004789
 920	4.5950e-01	9.1882	15.425940	0.000321	3.207606	0.543383	0.006414
 921	4.6000e-01	9.1980	15.436203	0.000103	1.026434	0.173883	0.002053
 922	4.6050e-01	9.2072	15.467848	0.000316	3.164838	0.536138	0.006329
 923	4.6100e-01	9.2175	15.513604	0.000458	4.576184	0.775227	0.009151
 924	4.6150e-01	9.2279	15.543110	0.000295	2.950997	0.499912	0.005901
 925	4.6200e-01	9.2377	15.562780	0.000197	1.967331	0.333275	0.003934
 926	4.6250e-01	9.2493	15.593997	0.000312	3.122069	0.528893	0.006243
 927	4.6300e-01	9.2572	15.616661	0.000227	2.266708	0.383991	0.004533
 928	4.6350e-01	9.2639	15.650016	0.000334	3.335910	0.565118	0.006671
 929	4.6400e-01	9.2792	15.680805	0.000308	3.079301	0.521648	0.006158
 930	4.6450e-01	9.2859	15.703897	0.000231	2.309476	0.391236	0.004618
 931	4.6500e-01	9.2981	15.732548	0.000287	2.865461	0.485422	0.005730
 932	4.6550e-01	9.3060	15.778304	0.000458	4.576184	0.775227	0.009151
 933	4.6600e-01	9.3170	15.784290	0.000060	0.598753	0.101432	0.001197
 934	4.6650e-01	9.3268	15.820638	0.000364	3.635286	0.615834	0.007270
 935	4.6700e-01	9.3384	15.839882	0.000192	1.924563	0.326030	0.003849
 936	4.6750e-01	9.3463	15.874947	0.000351	3.506982	0.594099	0.007013
 937	4.6800e-01	9.3549	15.907019	0.000321	3.207606	0.543383	0.006414
 938	4.6850e-01	9.3655	15.926262	0.000192	1.924563	0.326030	0.003849
 939	4.6900e-01	9.3756	15.944222	0.000180	1.796259	0.304295	0.003592
 940	4.6950e-01	9.3854	15.984847	0.000406	4.062967	0.688285	0.008125
 941	4.7000e-01	9.3970	15.993399	0.000086	0.855361	0.144902	0.001711
 942	4.7050e-01	9.4061	16.050273	0.000569	5.688154	0.963599	0.011375
 943	4.7100e-01	9.4165	16.065240	0.000150	1.496883	0.253579	0.002993
 944	4.7150e-01	9.4260	16.098595	0.000334	3.335910	0.565118	0.006671
 945	4.7200e-01	9.4366	16.128956	0.000304	3.036533	0.514403	0.006072
 946	4.7250e-01	9.4446	16.152476	0.000235	2.352244	0.398481	0.004704
 947	4.7300e-01	9.4562	16.172574	0.000201	2.010100	0.340520	0.004020
 948	4.7350e-01	9.4690	16.197804	0.000252	2.523316	0.427461	0.005046
 949	4.7400e-01	9.4757	16.223461	0.000257	2.566084	0.434706	0.005132
 950	4.7450e-01	9.4885	16.267079	0.000436	4.362344	0.739001	0.008724
 951	4.7500e-01	9.4952	16.297013	0.000299	2.993765	0.507158	0.005987
 952	4.7550e-01	9.5035	16.326519	0.000295	2.950997	0.499912	0.005901
 953	4.7600e-01	9.5163	16.357736	0.000312	3.122069	0.528893	0.006243
 954	4.7650e-01	9.5264	16.366288	0.000086	0.855361	0.144902	0.001711
 955	4.7700e-01	9.5398	16.393229	0.000269	2.694389	0.456442	0.005388
 956	4.7750e-01	9.5477	16.432143	0.000389	3.891895	0.659305	0.007783
 957	4.7800e-01	9.5569	16.468063	0.000359	3.592518	0.608589	0.007184
 958	4.7850e-01	9.5654	16.486879	0.000188	1.881795	0.318785	0.003763
 959	4.7900e-01	9.5789	16.508688	0.000218	2.181172	0.369501	0.004362
 960	4.7950e-01	9.5905	16.526220	0.000175	1.753491	0.297049	0.003507
 961	4.8000e-01	9.5959	16.577535	0.000513	5.132169	0.869413	0.010263
 962	4.8050e-01	9.6063	16.592502	0.000150	1.496883	0.253579	0.002993
 963	4.8100e-01	9.6146	16.620298	0.000278	2.779925	0.470932	0.005559
 964	4.8150e-01	9.6283	16.649804	0.000295	2.950997	0.499912	0.005901
 965	4.8200e-01	9.6371	16.661350	0.000115	1.154738	0.195618	0.002309
 966	4.8250e-01	9.6432	16.719934	0.000586	5.859226	0.992580	0.011717
 967	4.8300e-01	9.6545	16.728915	0.000090	0.898130	0.152147	0.001796
 968	4.8350e-01	9.6655	16.765263	0.000364	3.635286	0.615834	0.007270
 969	4.8400e-01	9.6777	16.786644	0.000214	2.138404	0.362255	0.004276
 970	4.8450e-01	9.6875	16.825985	0.000393	3.934663	0.666550	0.007868
 971	4.8500e-01	9.6960	16.848650	0.000227	2.266708	0.383991	0.004533
 972	4.8550e-01	9.7098	16.870886	0.000222	2.223940	0.376746	0.004447
 973	4.8600e-01	9.7162	16.898682	0.000278	2.779925	0.470932	0.005559
 974	4.8650e-01	9.7241	16.943155	0.000445	4.447880	0.753491	0.008895
 975	4.8700e-01	9.7357	16.971378	0.000282	2.822693	0.478177	0.005645
 976	4.8750e-01	9.7461	17.003878	0.000325	3.250374	0.550628	0.006500
 977	4.8800e-01	9.7562	17.013713	0.000098	0.983666	0.166637	0.001967
 978	4.8850e-01	9.7656	17.053482	0.000398	3.977431	0.673795	0.007954
 979	4.8900e-01	9.7760	17.057331	0.000038	0.384913	0.065206	0.000770
 980	4.8950e-01	9.7852	17.097528	0.000402	4.020199	0.681040	0.008039
 981	4.9000e-01	9.7974	17.128744	0.000312	3.122069	0.528893	0.006243
 982	4.9050e-01	9.8056	17.144566	0.000158	1.582419	0.268069	0.003164
 983	4.9100e-01	9.8141	17.201013	0.000565	5.645386	0.956354	0.011289
 984	4.9150e-01	9.8233	17.217690	0.000167	1.667955	0.282559	0.003335
 985	4.9200e-01	9.8380	17.240782	0.000231	2.309476	0.391236	0.004618
 986	4.9250e-01	9.8462	17.278413	0.000376	3.763591	0.637569	0.007526
 987	4.9300e-01	9.8566	17.295518	0.000171	1.710723	0.289804	0.003421
 988	4.9350e-01	9.8663	17.344267	0.000488	4.875560	0.825942	0.009750
 989	4.9400e-01	9.8743	17.370780	0.000265	2.651621	0.449197	0.005303
 990	4.9450e-01	9.8859	17.393017	0.000222	2.223940	0.376746	0.004447
 991	4.9500e-01	9.8969	17.410549	0.000175	1.753491	0.297049	0.003507
 992	4.9550e-01	9.9066	17.447753	0.000372	3.720822	0.630324	0.007441
 993	4.9600e-01	9.9170	17.460154	0.000124	1.240274	0.210108	0.002480
 994	4.9650e-01	9.9261	17.503344	0.000432	4.319576	0.731756	0.008638
 995	4.9700e-01	9.9347	17.530712	0.000274	2.737157	0.463687	0.005474
 996	4.9750e-01	9.9445	17.553376	0.000227	2.266708	0.383991	0.004533
 997	4.9800e-01	9.9536	17.593145	0.000398	3.977431	0.673795	0.007954
 998	4.9850e-01	9.9652	17.621796	0.000287	2.865461	0.485422	0.005730
 999	4.9900e-01	9.9744	17.651730	0.000299	2.993765	0.507158	0.005987
1000	4.9950e-01	9.9860	17.666269	0.000145	1.454115	0.246334	0.002908
1001	5.0000e-01	9.9939	17.727847	0.000616	6.158603	1.043296	0.012316
1002	5.0050e-01	9.9841	17.670545	0.000573	5.730922	0.970844	-0.011460
1003	5.0100e-01	9.9762	17.652158	0.000184	1.839027	0.311540	-0.003678
1004	5.0150e-01	9.9664	17.638474	0.000137	1.368578	0.231843	-0.002737
1005	5.0200e-01	9.9530	17.634197	0.000043	0.427681	0.072451	-0.000855
1006	5.0250e-01	9.9457	17.614099	0.000201	2.010100	0.340520	-0.004020
1007	5.0300e-01	9.9371	17.599560	0.000145	1.454115	0.246334	-0.002908
1008	5.0350e-01	9.9255	17.565350	0.000342	3.421446	0.579609	-0.006842
1009	5.0400e-01	9.9152	17.570053	-0.000047	-0.470449	-0.079696	0.000941
1010	5.0450e-01	9.9048	17.543541	0.000265	2.651621	0.449197	-0.005303
1011	5.0500e-01	9.8975	17.535843	0.000077	0.769825	0.130412	-0.001539
1012	5.0550e-01	9.8853	17.505482	0.000304	3.036533	0.514403	-0.006072
1013	5.0600e-01	9.8755	17.506337	-0.000009	-0.085536	-0.014490	0.000171
1014	5.0650e-01	9.8651	17.481107	0.000252	2.523316	0.427461	-0.005046
1015	5.0700e-01	9.8547	17.452457	0.000287	2.865461	0.485422	-0.005730
1016	5.0750e-01	9.8444	17.443476	0.000090	0.898130	0.152147	-0.001796
1017	5.0800e-01	9.8358	17.422523	0.000210	2.095636	0.355010	-0.004191
1018	5.0850e-01	9.8245	17.417391	0.000051	0.513217	0.086941	-0.001026
1019	5.0900e-01	9.8157	17.397720	0.000197	1.967331	0.333275	-0.003934
1020	5.0950e-01	9.8047	17.362228	0.000355	3.549750	0.601344	-0.007099
1021	5.1000e-01	9.7955	17.363510	-0.000013	-0.128304	-0.021735	0.000257
1022	5.1050e-01	9.7845	17.342557	0.000210	2.095636	0.355010	-0.004191
1023	5.1100e-01	9.7736	17.329300	0.000133	1.325810	0.224598	-0.002651
1024	5.1150e-01	9.7656	17.296373	0.000329	3.293142	0.557873	-0.006585
1025	5.1200e-01	9.7571	17.277130	0.000192	1.924563	0.326030	-0.003849
1026	5.1250e-01	9.7455	17.266012	0.000111	1.111970	0.188373	-0.002224
1027	5.1300e-01	9.7342	17.232657	0.000334	3.335910	0.565118	-0.006671
1028	5.1350e-01	9.7241	17.227526	0.000051	0.513217	0.086941	-0.001026
1029	5.1400e-01	9.7156	17.220256	0.000073	0.727057	0.123167	-0.001454
1030	5.1450e-01	9.7058	17.194598	0.000257	2.566084	0.434706	-0.005132
1031	5.1500e-01	9.6924	17.163382	0.000312	3.122069	0.528893	-0.006243
1032	5.1550e-01	9.6844	17.145422	0.000180	1.796259	0.304295	-0.003592
1033	5.1600e-01	9.6747	17.136441	0.000090	0.898130	0.152147	-0.001796
1034	5.1650e-01	9.6667	17.108646	0.000278	2.779925	0.470932	-0.005559
1035	5.1700e-01	9.6542	17.090686	0.000180	1.796259	0.304295	-0.003592
1036	5.1750e-01	9.6472	17.066311	0.000244	2.437780	0.412971	-0.004875
1037	5.1800e-01	9.6375	17.053055	0.000133	1.325810	0.224598	-0.002651
1038	5.1850e-01	9.6246	17.031673	0.000214	2.138404	0.362255	-0.004276
1039	5.1900e-01	9.6149	17.023121	0.000086	0.855361	0.144902	-0.001711
1040	5.1950e-01	9.6057	17.012430	0.000107	1.069202	0.181128	-0.002138
1041	5.2000e-01	9.5959	16.982924	0.000295	2.950997	0.499912	-0.005901
1042	5.2050e-01	9.5844	16.963681	0.000192	1.924563	0.326030	-0.003849
1043	5.2100e-01	9.5764	16.924339	0.000393	3.934663	0.666550	-0.007868
1044	5.2150e-01	9.5654	16.912366	0.000120	1.197506	0.202863	-0.002395
1045	5.2200e-01	9.5563	16.889274	0.000231	2.309476	0.391236	-0.004618
1046	5.2250e-01	9.5459	16.876873	0.000124	1.240274	0.210108	-0.002480
1047	5.2300e-01	9.5343	16.849505	0.000274	2.737157	0.463687	-0.005474
1048	5.2350e-01	9.5251	16.843091	0.000064	0.641521	0.108677	-0.001283
1049	5.2400e-01	9.5172	16.804177	0.000389	3.891895	0.659305	-0.007783
1050	5.2450e-01	9.5074	16.794341	0.000098	0.983666	0.166637	-0.001967
1051	5.2500e-01	9.4965	16.784078	0.000103	1.026434	0.173883	-0.002053
1052	5.2550e-01	9.4855	16.745164	0.000389	3.891895	0.659305	-0.007783
1053	5.2600e-01	9.4754	16.726349	0.000188	1.881795	0.318785	-0.003763
1054	5.2650e-01	9.4672	16.713948	0.000124	1.240274	0.210108	-0.002480
1055	5.2700e-01	9.4556	16.705395	0.000086	0.855361	0.144902	-0.001711
1056	5.2750e-01	9.4458	16.670330	0.000351	3.506982	0.594099	-0.007013
1057	5.2800e-01	9.4385	16.652370	0.000180	1.796259	0.304295	-0.003592
1058	5.2850e-01	9.4232	16.631844	0.000205	2.052868	0.347765	-0.004105
1059	5.2900e-01	9.4165	16.609179	0.000227	2.266708	0.383991	-0.004533
1060	5.2950e-01	9.4067	16.583522	0.000257	2.566084	0.434706	-0.005132
1061	5.3000e-01	9.3964	16.564279	0.000192	1.924563	0.326030	-0.003849
1062	5.3050e-01	9.3854	16.554016	0.000103	1.026434	0.173883	-0.002053
1063	5.3100e-01	9.3750	16.533062	0.000210	2.095636	0.355010	-0.004191
1064	5.3150e-01	9.3658	16.518523	0.000145	1.454115	0.246334	-0.002908
1065	5.3200e-01	9.3573	16.492010	0.000265	2.651621	0.449197	-0.005303
1066	5.3250e-01	9.3460	16.465070	0.000269	2.694389	0.456442	-0.005388
1067	5.3300e-01	9.3362	16.441550	0.000235	2.352244	0.398481	-0.004704
1068	5.3350e-01	9.3256	16.420597	0.000210	2.095636	0.355010	-0.004191
1069	5.3400e-01	9.3158	16.399215	0.000214	2.138404	0.362255	-0.004276
1070	5.3450e-01	9.3060	16.393229	0.000060	0.598753	0.101432	-0.001197
1071	5.3500e-01	9.2947	16.363723	0.000295	2.950997	0.499912	-0.005901
1072	5.3550e-01	9.2859	16.327374	0.000364	3.635286	0.615834	-0.007270
1073	5.3600e-01	9.2755	16.322671	0.000047	0.470449	0.079696	-0.000941
1074	5.3650e-01	9.2676	16.305993	0.000167	1.667955	0.282559	-0.003335
1075	5.3700e-01	9.2557	16.277342	0.000287	2.865461	0.485422	-0.005730
1076	5.3750e-01	9.2450	16.261093	0.000163	1.625187	0.275314	-0.003250
1077	5.3800e-01	9.2346	16.227310	0.000338	3.378678	0.572364	-0.006756
1078	5.3850e-01	9.2267	16.209777	0.000175	1.753491	0.297049	-0.003507
1079	5.3900e-01	9.2175	16.189251	0.000205	2.052868	0.347765	-0.004105
1080	5.3950e-01	9.2059	16.172574	0.000167	1.667955	0.282559	-0.003335
1081	5.4000e-01	9.1998	16.144351	0.000282	2.822693	0.478177	-0.005645
1082	5.4050e-01	9.1870	16.123825	0.000205	2.052868	0.347765	-0.004105
1083	5.4100e-01	9.1748	16.117838	0.000060	0.598753	0.101432	-0.001197
1084	5.4150e-01	9.1644	16.084056	0.000338	3.378678	0.572364	-0.006756
1085	5.4200e-01	9.1556	16.061392	0.000227	2.266708	0.383991	-0.004533
1086	5.4250e-01	9.1449	16.033596	0.000278	2.779925	0.470932	-0.005559
1087	5.4300e-01	9.1351	16.025043	0.000086	0.855361	0.144902	-0.001711
1088	5.4350e-01	9.1248	15.990833	0.000342	3.421446	0.579609	-0.006842
1089	5.4400e-01	9.1150	15.975866	0.000150	1.496883	0.253579	-0.002993
1090	5.4450e-01	9.1058	15.952347	0.000235	2.352244	0.398481	-0.004704
1091	5.4500e-01	9.0979	15.923269	0.000291	2.908229	0.492667	-0.005816
1092	5.4550e-01	9.0881	15.909585	0.000137	1.368578	0.231843	-0.002737
1093	5.4600e-01	9.0762	15.883927	0.000257	2.566084	0.434706	-0.005132
1094	5.4650e-01	9.0656	15.863829	0.000201	2.010100	0.340520	-0.004020
1095	5.4700e-01	9.0552	15.842875	0.000210	2.095636	0.355010	-0.004191
1096	5.4750e-01	9.0454	15.821921	0.000210	2.095636	0.355010	-0.004191
1097	5.4800e-01	9.0350	15.781297	0.000406	4.062967	0.688285	-0.008125
1098	5.4850e-01	9.0295	15.773172	0.000081	0.812593	0.137657	-0.001625
1099	5.4900e-01	9.0161	15.761626	0.000115	1.154738	0.195618	-0.002309
1100	5.4950e-01	9.0057	15.723995	0.000376	3.763591	0.637569	-0.007526
1101	5.5000e-01	8.9954	15.705607	0.000184	1.839027	0.311540	-0.003678
1102	5.5050e-01	8.9874	15.682943	0.000227	2.266708	0.383991	-0.004533
1103	5.5100e-01	8.9752	15.663700	0.000192	1.924563	0.326030	-0.003849
1104	5.5150e-01	8.9667	15.649588	0.000141	1.411346	0.239089	-0.002822
1105	5.5200e-01	8.9594	15.609819	0.000398	3.977431	0.673795	-0.007954
1106	5.5250e-01	8.9484	15.582879	0.000269	2.694389	0.456442	-0.005388
1107	5.5300e-01	8.9368	15.574326	0.000086	0.855361	0.144902	-0.001711
1108	5.5350e-01	8.9282	15.546103	0.000282	2.822693	0.478177	-0.005645
1109	5.5400e-01	8.9191	15.514459	0.000316	3.164838	0.536138	-0.006329
1110	5.5450e-01	8.9064	15.496926	0.000175	1.753491	0.297049	-0.003507
1111	5.5500e-01	8.8953	15.484953	0.000120	1.197506	0.202863	-0.002395
1112	5.5550e-01	8.8879	15.464427	0.000205	2.052868	0.347765	-0.004105
1113	5.5600e-01	8.8766	15.428934	0.000355	3.549750	0.601344	-0.007099
1114	5.5650e-01	8.8641	15.403276	0.000257	2.566084	0.434706	-0.005132
1115	5.5700e-01	8.8544	15.392158	0.000111	1.111970	0.188373	-0.002224
1116	5.5750e-01	8.8483	15.360514	0.000316	3.164838	0.536138	-0.006329
1117	5.5800e-01	8.8370	15.339132	0.000214	2.138404	0.362255	-0.004276
1118	5.5850e-01	8.8245	15.333573	0.000056	0.555985	0.094186	-0.001112
1119	5.5900e-01	8.8135	15.313475	0.000201	2.010100	0.340520	-0.004020
1120	5.5950e-01	8.8049	15.279265	0.000342	3.421446	0.579609	-0.006842
1121	5.6000e-01	8.7988	15.260877	0.000184	1.839027	0.311540	-0.003678
1122	5.6050e-01	8.7866	15.239068	0.000218	2.181172	0.369501	-0.004362
1123	5.6100e-01	8.7769	15.213838	0.000252	2.523316	0.427461	-0.005046
1124	5.6150e-01	8.7686	15.189891	0.000240	2.395012	0.405726	-0.004789
1125	5.6200e-01	8.7567	15.162951	0.000269	2.694389	0.456442	-0.005388
1126	5.6250e-01	8.7500	15.142425	0.000205	2.052868	0.347765	-0.004105
1127	5.6300e-01	8.7354	15.114202	0.000282	2.822693	0.478177	-0.005645
1128	5.6350e-01	8.7262	15.103939	0.000103	1.026434	0.173883	-0.002053
1129	5.6400e-01	8.7170	15.079991	0.000240	2.395012	0.405726	-0.004789
1130	5.6450e-01	8.7073	15.045354	0.000346	3.464214	0.586854	-0.006928
1131	5.6500e-01	8.6957	15.028249	0.000171	1.710723	0.289804	-0.003421
1132	5.6550e-01	8.6871	15.004302	0.000240	2.395012	0.405726	-0.004789
1133	5.6600e-01	8.6768	14.973940	0.000304	3.036533	0.514403	-0.006072
1134	5.6650e-01	8.6679	14.963250	0.000107	1.069202	0.181128	-0.002138
1135	5.6700e-01	8.6557	14.939303	0.000240	2.395012	0.405726	-0.004789
1136	5.6750e-01	8.6484	14.909369	0.000299	2.993765	0.507158	-0.005987
1137	5.6800e-01	8.6383	14.879863	0.000295	2.950997	0.499912	-0.005901
1138	5.6850e-01	8.6292	14.856343	0.000235	2.352244	0.398481	-0.004704
1139	5.6900e-01	8.6188	14.841377	0.000150	1.496883	0.253579	-0.002993
1140	5.6950e-01	8.6072	14.820423	0.000210	2.095636	0.355010	-0.004191
1141	5.7000e-01	8.5971	14.787068	0.000334	3.335910	0.565118	-0.006671
1142	5.7050e-01	8.5876	14.779799	0.000073	0.727057	0.123167	-0.001454
1143	5.7100e-01	8.5785	14.747299	0.000325	3.250374	0.550628	-0.006500
1144	5.7150e-01	8.5657	14.729766	0.000175	1.753491	0.297049	-0.003507
1145	5.7200e-01	8.5602	14.693846	0.000359	3.592518	0.608589	-0.007184
1146	5.7250e-01	8.5461	14.672037	0.000218	2.181172	0.369501	-0.004362
1147	5.7300e-01	8.5370	14.636972	0.000351	3.506982	0.594099	-0.007013
1148	5.7350e-01	8.5281	14.628847	0.000081	0.812593	0.137657	-0.001625
1149	5.7400e-01	8.5193	14.614308	0.000145	1.454115	0.246334	-0.002908
1150	5.7450e-01	8.5059	14.581380	0.000329	3.293142	0.557873	-0.006585
1151	5.7500e-01	8.4991	14.555295	0.000261	2.608853	0.441952	-0.005217
1152	5.7550e-01	8.4875	14.529210	0.000261	2.608853	0.441952	-0.005217
1153	5.7600e-01	8.4802	14.503125	0.000261	2.608853	0.441952	-0.005217
1154	5.7650e-01	8.4668	14.493717	0.000094	0.940898	0.159392	-0.001882
1155	5.7700e-01	8.4546	14.462928	0.000308	3.079301	0.521648	-0.006158
1156	5.7750e-01	8.4479	14.444540	0.000184	1.839027	0.311540	-0.003678
1157	5.7800e-01	8.4375	14.418883	0.000257	2.566084	0.434706	-0.005132
1158	5.7850e-01	8.4274	14.391515	0.000274	2.737157	0.463687	-0.005474
1159	5.7900e-01	8.4149	14.367995	0.000235	2.352244	0.398481	-0.004704
1160	5.7950e-01	8.4058	14.344476	0.000235	2.352244	0.398481	-0.004704
1161	5.8000e-01	8.3960	14.314970	0.000295	2.950997	0.499912	-0.005901
1162	5.8050e-01	8.3875	14.293161	0.000218	2.181172	0.369501	-0.004362
1163	5.8100e-01	8.3752	14.276056	0.000171	1.710723	0.289804	-0.003421
1164	5.8150e-01	8.3685	14.252109	0.000240	2.395012	0.405726	-0.004789
1165	5.8200e-01	8.3563	14.230728	0.000214	2.138404	0.362255	-0.004276
1166	5.8250e-01	8.3453	14.202504	0.000282	2.822693	0.478177	-0.005645
1167	5.8300e-01	8.3398	14.185399	0.000171	1.710723	0.289804	-0.003421
1168	5.8350e-01	8.3289	14.143492	0.000419	4.191271	0.710021	-0.008381
1169	5.8400e-01	8.3148	14.134512	0.000090	0.898130	0.152147	-0.001796
1170	5.8450e-01	8.3057	14.110565	0.000240	2.395012	0.405726	-0.004789
1171	5.8500e-01	8.2953	14.084480	0.000261	2.608853	0.441952	-0.005217
1172	5.8550e-01	8.2892	14.057112	0.000274	2.737157	0.463687	-0.005474
1173	5.8600e-01	8.2776	14.028889	0.000282	2.822693	0.478177	-0.005645
1174	5.8650e-01	8.2642	14.007507	0.000214	2.138404	0.362255	-0.004276
1175	5.8700e-01	8.2568	13.995106	0.000124	1.240274	0.210108	-0.002480
1176	5.8750e-01	8.2477	13.960041	0.000351	3.506982	0.594099	-0.007013
1177	5.8800e-01	8.2367	13.949350	0.000107	1.069202	0.181128	-0.002138
1178	5.8850e-01	8.2269	13.914285	0.000351	3.506982	0.594099	-0.007013
1179	5.8900e-01	8.2172	13.883496	0.000308	3.079301	0.521648	-0.006158
1180	5.8950e-01	8.2089	13.861259	0.000222	2.223940	0.376746	-0.004447
1181	5.9000e-01	8.1961	13.839878	0.000214	2.138404	0.362255	-0.004276
1182	5.9050e-01	8.1873	13.818497	0.000214	2.138404	0.362255	-0.004276
1183	5.9100e-01	8.1763	13.804385	0.000141	1.411346	0.239089	-0.002822
1184	5.9150e-01	8.1665	13.778728	0.000257	2.566084	0.434706	-0.005132
1185	5.9200e-01	8.1563	13.745801	0.000329	3.293142	0.557873	-0.006585
1186	5.9250e-01	8.1464	13.726985	0.000188	1.881795	0.318785	-0.003763
1187	5.9300e-01	8.1348	13.682512	0.000445	4.447880	0.753491	-0.008895
1188	5.9350e-01	8.1262	13.673104	0.000094	0.940898	0.159392	-0.001882
1189	5.9400e-01	8.1171	13.656855	0.000163	1.625187	0.275314	-0.003250
1190	5.9450e-01	8.1055	13.622645	0.000342	3.421446	0.579609	-0.006842
1191	5.9500e-01	8.0957	13.603829	0.000188	1.881795	0.318785	-0.003763
1192	5.9550e-01	8.0865	13.576033	0.000278	2.779925	0.470932	-0.005559
1193	5.9600e-01	8.0750	13.550804	0.000252	2.523316	0.427461	-0.005046
1194	5.9650e-01	8.0634	13.542679	0.000081	0.812593	0.137657	-0.001625
1195	5.9700e-01	8.0573	13.504620	0.000381	3.806359	0.644815	-0.007612
1196	5.9750e-01	8.0470	13.481101	0.000235	2.352244	0.398481	-0.004704
1197	5.9800e-01	8.0377	13.448173	0.000329	3.293142	0.557873	-0.006585
1198	5.9850e-01	8.0267	13.435772	0.000124	1.240274	0.210108	-0.002480
1199	5.9900e-01	8.0139	13.409260	0.000265	2.651621	0.449197	-0.005303
1200	5.9950e-01	8.0087	13.369490	0.000398	3.977431	0.673795	-0.007954
1201	6.0000e-01	7.9968	13.360083	0.000094	0.940898	0.159392	-0.001882
1202	6.0050e-01	7.9871	13.311761	0.000483	4.832792	0.818697	-0.009664
1203	6.0100e-01	7.9764	13.301498	0.000103	1.026434	0.173883	-0.002053
1204	6.0150e-01	7.9669	13.286959	0.000145	1.454115	0.246334	-0.002908
1205	6.0200e-01	7.9553	13.244624	0.000423	4.234039	0.717266	-0.008467
1206	6.0250e-01	7.9443	13.235644	0.000090	0.898130	0.152147	-0.001796
1207	6.0300e-01	7.9382	13.193736	0.000419	4.191271	0.710021	-0.008381
1208	6.0350e-01	7.9266	13.182191	0.000115	1.154738	0.195618	-0.002309
1209	6.0400e-01	7.9163	13.149691	0.000325	3.250374	0.550628	-0.006500
1210	6.0450e-01	7.9077	13.130020	0.000197	1.967331	0.333275	-0.003934
1211	6.0500e-01	7.8967	13.114198	0.000158	1.582419	0.268069	-0.003164
1212	6.0550e-01	7.8839	13.068442	0.000458	4.576184	0.775227	-0.009151
1213	6.0600e-01	7.8735	13.072291	-0.000038	-0.384913	-0.065206	0.000770
1214	6.0650e-01	7.8674	13.026535	0.000458	4.576184	0.775227	-0.009151
1215	6.0700e-01	7.8546	12.992753	0.000338	3.378678	0.572364	-0.006756
1216	6.0750e-01	7.8473	12.970944	0.000218	2.181172	0.369501	-0.004362
1217	6.0800e-01	7.8368	12.956832	0.000141	1.411346	0.239089	-0.002822
1218	6.0850e-01	7.8253	12.931602	0.000252	2.523316	0.427461	-0.005046
1219	6.0900e-01	7.8133	12.894826	0.000368	3.678054	0.623079	-0.007355
1220	6.0950e-01	7.8049	12.882425	0.000124	1.240274	0.210108	-0.002480
1221	6.1000e-01	7.7954	12.852064	0.000304	3.036533	0.514403	-0.006072
1222	6.1050e-01	7.7859	12.832393	0.000197	1.967331	0.333275	-0.003934
1223	6.1100e-01	7.7740	12.799038	0.000334	3.335910	0.565118	-0.006671
1224	6.1150e-01	7.7667	12.785782	0.000133	1.325810	0.224598	-0.002651
1225	6.1200e-01	7.7576	12.741309	0.000445	4.447880	0.753491	-0.008895
1226	6.1250e-01	7.7478	12.743019	-0.000017	-0.171072	-0.028980	0.000342
1227	6.1300e-01	7.7341	12.701112	0.000419	4.191271	0.710021	-0.008381
1228	6.1350e-01	7.7217	12.687000	0.000141	1.411346	0.239089	-0.002822
1229	6.1400e-01	7.7130	12.658350	0.000287	2.865461	0.485422	-0.005730
1230	6.1450e-01	7.7054	12.639534	0.000188	1.881795	0.318785	-0.003763
1231	6.1500e-01	7.6959	12.610883	0.000287	2.865461	0.485422	-0.005730
1232	6.1550e-01	7.6859	12.577956	0.000329	3.293142	0.557873	-0.006585
1233	6.1600e-01	7.6782	12.550160	0.000278	2.779925	0.470932	-0.005559
1234	6.1650e-01	7.6657	12.529634	0.000205	2.052868	0.347765	-0.004105
1235	6.1700e-01	7.6556	12.510391	0.000192	1.924563	0.326030	-0.003849
1236	6.1750e-01	7.6437	12.492859	0.000175	1.753491	0.297049	-0.003507
1237	6.1800e-01	7.6355	12.468484	0.000244	2.437780	0.412971	-0.004875
1238	6.1850e-01	7.6265	12.422300	0.000462	4.618952	0.782472	-0.009237
1239	6.1900e-01	7.6163	12.390229	0.000321	3.207606	0.543383	-0.006414
1240	6.1950e-01	7.6056	12.379110	0.000111	1.111970	0.188373	-0.002224
1241	6.2000e-01	7.5974	12.353880	0.000252	2.523316	0.427461	-0.005046
1242	6.2050e-01	7.5887	12.315394	0.000385	3.849127	0.652060	-0.007697
1243	6.2100e-01	7.5745	12.293158	0.000222	2.223940	0.376746	-0.004447
1244	6.2150e-01	7.5647	12.266217	0.000269	2.694389	0.456442	-0.005388
1245	6.2200e-01	7.5528	12.264507	0.000017	0.171072	0.028980	-0.000342
1246	6.2250e-01	7.5446	12.216613	0.000479	4.790024	0.811452	-0.009579
1247	6.2300e-01	7.5360	12.197797	0.000188	1.881795	0.318785	-0.003763
1248	6.2350e-01	7.5269	12.170857	0.000269	2.694389	0.456442	-0.005388
1249	6.2400e-01	7.5165	12.141778	0.000291	2.908229	0.492667	-0.005816
1250	6.2450e-01	7.5070	12.121680	0.000201	2.010100	0.340520	-0.004020
1251	6.2500e-01	7.4957	12.093457	0.000282	2.822693	0.478177	-0.005645
1252	6.2550e-01	7.4854	12.069510	0.000240	2.395012	0.405726	-0.004789
1253	6.2600e-01	7.4756	12.039576	0.000299	2.993765	0.507158	-0.005987
1254	6.2650e-01	7.4652	12.022043	0.000175	1.753491	0.297049	-0.003507
1255	6.2700e-01	7.4539	11.988261	0.000338	3.378678	0.572364	-0.006756
1256	6.2750e-01	7.4451	11.978425	0.000098	0.983666	0.166637	-0.001967
1257	6.2800e-01	7.4347	11.936946	0.000415	4.148503	0.702775	-0.008296
1258	6.2850e-01	7.4249	11.923262	0.000137	1.368578	0.231843	-0.002737
1259	6.2900e-01	7.4146	11.887341	0.000359	3.592518	0.608589	-0.007184
1260	6.2950e-01	7.4042	11.863822	0.000235	2.352244	0.398481	-0.004704
1261	6.3000e-01	7.3932	11.837737	0.000261	2.608853	0.441952	-0.005217
1262	6.3050e-01	7.3828	11.813790	0.000240	2.395012	0.405726	-0.004789
1263	6.3100e-01	7.3761	11.783428	0.000304	3.036533	0.514403	-0.006072
1264	6.3150e-01	7.3663	11.762902	0.000205	2.052868	0.347765	-0.004105
1265	6.3200e-01	7.3566	11.734251	0.000287	2.865461	0.485422	-0.005730
1266	6.3250e-01	7.3468	11.702607	0.000316	3.164838	0.536138	-0.006329
1267	6.3300e-01	7.3346	11.680798	0.000218	2.181172	0.369501	-0.004362
1268	6.3350e-01	7.3260	11.664548	0.000163	1.625187	0.275314	-0.003250
1269	6.3400e-01	7.3169	11.627345	0.000372	3.720822	0.630324	-0.007441
1270	6.3450e-01	7.3065	11.593135	0.000342	3.421446	0.579609	-0.006842
1271	6.3500e-01	7.2958	11.582872	0.000103	1.026434	0.173883	-0.002053
1272	6.3550e-01	7.2858	11.543530	0.000393	3.934663	0.666550	-0.007868
1273	6.3600e-01	7.2778	11.534978	0.000086	0.855361	0.144902	-0.001711
1274	6.3650e-01	7.2656	11.497347	0.000376	3.763591	0.637569	-0.007526
1275	6.3700e-01	7.2552	11.479814	0.000175	1.753491	0.297049	-0.003507
1276	6.3750e-01	7.2467	11.446460	0.000334	3.335910	0.565118	-0.006671
1277	6.3800e-01	7.2357	11.434914	0.000115	1.154738	0.195618	-0.002309
1278	6.3850e-01	7.2248	11.392151	0.000428	4.276807	0.724511	-0.008553
1279	6.3900e-01	7.2144	11.380178	0.000120	1.197506	0.202863	-0.002395
1280	6.3950e-01	7.2052	11.349816	0.000304	3.036533	0.514403	-0.006072
1281	6.4000e-01	7.1970	11.303633	0.000462	4.618952	0.782472	-0.009237
1282	6.4050e-01	7.1851	11.297218	0.000064	0.641521	0.108677	-0.001283
1283	6.4100e-01	7.1753	11.274127	0.000231	2.309476	0.391236	-0.004618
1284	6.4150e-01	7.1667	11.234785	0.000393	3.934663	0.666550	-0.007868
1285	6.4200e-01	7.1576	11.201003	0.000338	3.378678	0.572364	-0.006756
1286	6.4250e-01	7.1448	11.176200	0.000248	2.480548	0.420216	-0.004960
1287	6.4300e-01	7.1362	11.156102	0.000201	2.010100	0.340520	-0.004020
1288	6.4350e-01	7.1259	11.135148	0.000210	2.095636	0.355010	-0.004191
1289	6.4400e-01	7.1173	11.094524	0.000406	4.062967	0.688285	-0.008125
1290	6.4450e-01	7.1057	11.077419	0.000171	1.710723	0.289804	-0.003421
1291	6.4500e-01	7.0947	11.042781	0.000346	3.464214	0.586854	-0.006928
1292	6.4550e-01	7.0862	11.029525	0.000133	1.325810	0.224598	-0.002651
1293	6.4600e-01	7.0770	10.988045	0.000415	4.148503	0.702775	-0.008296
1294	6.4650e-01	7.0648	10.973506	0.000145	1.454115	0.246334	-0.002908
1295	6.4700e-01	7.0554	10.948704	0.000248	2.480548	0.420216	-0.004960
1296	6.4750e-01	7.0465	10.911928	0.000368	3.678054	0.623079	-0.007355
1297	6.4800e-01	7.0343	10.904658	0.000073	0.727057	0.123167	-0.001454
1298	6.4850e-01	7.0264	10.862751	0.000419	4.191271	0.710021	-0.008381
1299	6.4900e-01	7.0160	10.837521	0.000252	2.523316	0.427461	-0.005046
1300	6.4950e-01	7.0026	10.810153	0.000274	2.737157	0.463687	-0.005474
1301	6.5000e-01	6.9955	10.784496	0.000257	2.566084	0.434706	-0.005132
1302	6.5050e-01	6.9864	10.753707	0.000308	3.079301	0.521648	-0.006158
1303	6.5100e-01	6.9763	10.732325	0.000214	2.138404	0.362255	-0.004276
1304	6.5150e-01	6.9678	10.705385	0.000269	2.694389	0.456442	-0.005388
1305	6.5200e-01	6.9565	10.666471	0.000389	3.891895	0.659305	-0.007783
1306	6.5250e-01	6.9476	10.645945	0.000205	2.052868	0.347765	-0.004105
1307	6.5300e-01	6.9379	10.619432	0.000265	2.651621	0.449197	-0.005303
1308	6.5350e-01	6.9247	10.597196	0.000222	2.223940	0.376746	-0.004447
1309	6.5400e-01	6.9180	10.578808	0.000184	1.839027	0.311540	-0.003678
1310	6.5450e-01	6.9067	10.546308	0.000325	3.250374	0.550628	-0.006500
1311	6.5500e-01	6.8958	10.500125	0.000462	4.618952	0.782472	-0.009237
1312	6.5550e-01	6.8881	10.484303	0.000158	1.582419	0.268069	-0.003164
1313	6.5600e-01	6.8756	10.466342	0.000180	1.796259	0.304295	-0.003592
1314	6.5650e-01	6.8649	10.420587	0.000458	4.576184	0.775227	-0.009151
1315	6.5700e-01	6.8573	10.402626	0.000180	1.796259	0.304295	-0.003592
1316	6.5750e-01	6.8469	10.386376	0.000163	1.625187	0.275314	-0.003250
1317	6.5800e-01	6.8365	10.360719	0.000257	2.566084	0.434706	-0.005132
1318	6.5850e-01	6.8256	10.324798	0.000359	3.592518	0.608589	-0.007184
1319	6.5900e-01	6.8149	10.298713	0.000261	2.608853	0.441952	-0.005217
1320	6.5950e-01	6.8066	10.267924	0.000308	3.079301	0.521648	-0.006158
1321	6.6000e-01	6.7935	10.254668	0.000133	1.325810	0.224598	-0.002651
1322	6.6050e-01	6.7871	10.223451	0.000312	3.122069	0.528893	-0.006243
1323	6.6100e-01	6.7764	10.198221	0.000252	2.523316	0.427461	-0.005046
1324	6.6150e-01	6.7676	10.164867	0.000334	3.335910	0.565118	-0.006671
1325	6.6200e-01	6.7561	10.135788	0.000291	2.908229	0.492667	-0.005816
1326	6.6250e-01	6.7474	10.110558	0.000252	2.523316	0.427461	-0.005046
1327	6.6300e-01	6.7365	10.079769	0.000308	3.079301	0.521648	-0.006158
1328	6.6350e-01	6.7265	10.059243	0.000205	2.052868	0.347765	-0.004105
1329	6.6400e-01	6.7163	10.033158	0.000261	2.608853	0.441952	-0.005217
1330	6.6450e-01	6.7053	10.016481	0.000167	1.667955	0.282559	-0.003335
1331	6.6500e-01	6.6962	9.969014	0.000475	4.747256	0.804207	-0.009493
1332	6.6550e-01	6.6846	9.955330	0.000137	1.368578	0.231843	-0.002737
1333	6.6600e-01	6.6743	9.924541	0.000308	3.079301	0.521648	-0.006158
1334	6.6650e-01	6.6663	9.892897	0.000316	3.164838	0.536138	-0.006329
1335	6.6700e-01	6.6559	9.861680	0.000312	3.122069	0.528893	-0.006243
1336	6.6750e-01	6.6458	9.844148	0.000175	1.753491	0.297049	-0.003507
1337	6.6800e-01	6.6357	9.809082	0.000351	3.506982	0.594099	-0.007013
1338	6.6850e-01	6.6248	9.789839	0.000192	1.924563	0.326030	-0.003849
1339	6.6900e-01	6.6144	9.750070	0.000398	3.977431	0.673795	-0.007954
1340	6.6950e-01	6.6071	9.713294	0.000368	3.678054	0.623079	-0.007355
1341	6.7000e-01	6.5967	9.700893	0.000124	1.240274	0.210108	-0.002480
1342	6.7050e-01	6.5869	9.665828	0.000351	3.506982	0.594099	-0.007013
1343	6.7100e-01	6.5768	9.635467	0.000304	3.036533	0.514403	-0.006072
1344	6.7150e-01	6.5656	9.608526	0.000269	2.694389	0.456442	-0.005388
1345	6.7200e-01	6.5561	9.597835	0.000107	1.069202	0.181128	-0.002138
1346	6.7250e-01	6.5433	9.559777	0.000381	3.806359	0.644815	-0.007612
1347	6.7300e-01	6.5356	9.540106	0.000197	1.967331	0.333275	-0.003934
1348	6.7350e-01	6.5265	9.499482	0.000406	4.062967	0.688285	-0.008125
1349	6.7400e-01	6.5137	9.481094	0.000184	1.839027	0.311540	-0.003678
1350	6.7450e-01	6.5045	9.444318	0.000368	3.678054	0.623079	-0.007355
1351	6.7500e-01	6.4966	9.412674	0.000316	3.164838	0.536138	-0.006329
1352	6.7550e-01	6.4832	9.384450	0.000282	2.822693	0.478177	-0.005645
1353	6.7600e-01	6.4801	9.342543	0.000419	4.191271	0.710021	-0.008381
1354	6.7650e-01	6.4655	9.329287	0.000133	1.325810	0.224598	-0.002651
1355	6.7700e-01	6.4545	9.313465	0.000158	1.582419	0.268069	-0.003164
1356	6.7750e-01	6.4459	9.283103	0.000304	3.036533	0.514403	-0.006072
1357	6.7800e-01	6.4343	9.257018	0.000261	2.608853	0.441952	-0.005217
1358	6.7850e-01	6.4279	9.214683	0.000423	4.234039	0.717266	-0.008467
1359	6.7900e-01	6.4142	9.200144	0.000145	1.454115	0.246334	-0.002908
1360	6.7950e-01	6.4021	9.171493	0.000287	2.865461	0.485422	-0.005730
1361	6.8000e-01	6.3965	9.136428	0.000351	3.506982	0.594099	-0.007013
1362	6.8050e-01	6.3855	9.098369	0.000381	3.806359	0.644815	-0.007612
1363	6.8100e-01	6.3745	9.073567	0.000248	2.480548	0.420216	-0.004960
1364	6.8150e-01	6.3635	9.073567	-0.000000	-0.000000	-0.000000	0.000000
1365	6.8200e-01	6.3553	9.026528	0.000470	4.704488	0.796962	-0.009408
1366	6.8250e-01	6.3452	9.001726	0.000248	2.480548	0.420216	-0.004960
1367	6.8300e-01	6.3379	8.971364	0.000304	3.036533	0.514403	-0.006072
1368	6.8350e-01	6.3269	8.936727	0.000346	3.464214	0.586854	-0.006928
1369	6.8400e-01	6.3153	8.917484	0.000192	1.924563	0.326030	-0.003849
1370	6.8450e-01	6.3062	8.886695	0.000308	3.079301	0.521648	-0.006158
1371	6.8500e-01	6.2958	8.883274	0.000034	0.342145	0.057961	-0.000684
1372	6.8550e-01	6.2860	8.829393	0.000539	5.388777	0.912884	-0.010776
1373	6.8600e-01	6.2769	8.807156	0.000222	2.223940	0.376746	-0.004447
1374	6.8650e-01	6.2677	8.764394	0.000428	4.276807	0.724511	-0.008553
1375	6.8700e-01	6.2573	8.748144	0.000163	1.625187	0.275314	-0.003250
1376	6.8750e-01	6.2476	8.727618	0.000205	2.052868	0.347765	-0.004105
1377	6.8800e-01	6.2390	8.684428	0.000432	4.319576	0.731756	-0.008638
1378	6.8850e-01	6.2280	8.657915	0.000265	2.651621	0.449197	-0.005303
1379	6.8900e-01	6.2183	8.633113	0.000248	2.480548	0.420216	-0.004960
1380	6.8950e-01	6.2079	8.601469	0.000316	3.164838	0.536138	-0.006329
1381	6.9000e-01	6.1971	8.583081	0.000184	1.839027	0.311540	-0.003678
1382	6.9050e-01	6.1885	8.541601	0.000415	4.148503	0.702775	-0.008296
1383	6.9100e-01	6.1743	8.514661	0.000269	2.694389	0.456442	-0.005388
1384	6.9150e-01	6.1671	8.493707	0.000210	2.095636	0.355010	-0.004191
1385	6.9200e-01	6.1572	8.456504	0.000372	3.720822	0.630324	-0.007441
1386	6.9250e-01	6.1456	8.438116	0.000184	1.839027	0.311540	-0.003678
1387	6.9300e-01	6.1365	8.395353	0.000428	4.276807	0.724511	-0.008553
1388	6.9350e-01	6.1275	8.375682	0.000197	1.967331	0.333275	-0.003934
1389	6.9400e-01	6.1185	8.350880	0.000248	2.480548	0.420216	-0.004960
1390	6.9450e-01	6.1078	8.324367	0.000265	2.651621	0.449197	-0.005303
1391	6.9500e-01	6.0968	8.291868	0.000325	3.250374	0.550628	-0.006500
1392	6.9550e-01	6.0876	8.257230	0.000346	3.464214	0.586854	-0.006928
1393	6.9600e-01	6.0754	8.232856	0.000244	2.437780	0.412971	-0.004875
1394	6.9650e-01	6.0663	8.186672	0.000462	4.618952	0.782472	-0.009237
1395	6.9700e-01	6.0583	8.166574	0.000201	2.010100	0.340520	-0.004020
1396	6.9750e-01	6.0480	8.153745	0.000128	1.283042	0.217353	-0.002566
1397	6.9800e-01	6.0367	8.104140	0.000496	4.961097	0.840433	-0.009921
1398	6.9850e-01	6.0278	8.092167	0.000120	1.197506	0.202863	-0.002395
1399	6.9900e-01	6.0168	8.068647	0.000235	2.352244	0.398481	-0.004704
1400	6.9950e-01	6.0074	8.026313	0.000423	4.234039	0.717266	-0.008467
1401	7.0000e-01	5.9961	8.011346	0.000150	1.496883	0.253579	-0.002993
1402	7.0050e-01	5.9863	7.971149	0.000402	4.020199	0.681040	-0.008039
1403	7.0100e-01	5.9775	7.938222	0.000329	3.293142	0.557873	-0.006585
1404	7.0150e-01	5.9686	7.918551	0.000197	1.967331	0.333275	-0.003934
1405	7.0200e-01	5.9573	7.901446	0.000171	1.710723	0.289804	-0.003421
1406	7.0250e-01	5.9479	7.853980	0.000475	4.747256	0.804207	-0.009493
1407	7.0300e-01	5.9360	7.820197	0.000338	3.378678	0.572364	-0.006756
1408	7.0350e-01	5.9265	7.804375	0.000158	1.582419	0.268069	-0.003164
1409	7.0400e-01	5.9183	7.768027	0.000364	3.635286	0.615834	-0.007270
1410	7.0450e-01	5.9076	7.746218	0.000218	2.181172	0.369501	-0.004362
1411	7.0500e-01	5.8954	7.722271	0.000240	2.395012	0.405726	-0.004789
1412	7.0550e-01	5.8878	7.674805	0.000475	4.747256	0.804207	-0.009493
1413	7.0600e-01	5.8771	7.655989	0.000188	1.881795	0.318785	-0.003763
1414	7.0650e-01	5.8649	7.617930	0.000381	3.806359	0.644815	-0.007612
1415	7.0700e-01	5.8569	7.593983	0.000240	2.395012	0.405726	-0.004789
1416	7.0750e-01	5.8466	7.559773	0.000342	3.421446	0.579609	-0.006842
1417	7.0800e-01	5.8368	7.523425	0.000364	3.635286	0.615834	-0.007270
1418	7.0850e-01	5.8234	7.507603	0.000158	1.582419	0.268069	-0.003164
1419	7.0900e-01	5.8156	7.469117	0.000385	3.849127	0.652060	-0.007697
1420	7.0950e-01	5.8087	7.447308	0.000218	2.181172	0.369501	-0.004362
1421	7.1000e-01	5.7980	7.410532	0.000368	3.678054	0.623079	-0.007355
1422	7.1050e-01	5.7858	7.392572	0.000180	1.796259	0.304295	-0.003592
1423	7.1100e-01	5.7770	7.355369	0.000372	3.720822	0.630324	-0.007441
1424	7.1150e-01	5.7648	7.331849	0.000235	2.352244	0.398481	-0.004704
1425	7.1200e-01	5.7574	7.296356	0.000355	3.549750	0.601344	-0.007099
1426	7.1250e-01	5.7458	7.271554	0.000248	2.480548	0.420216	-0.004960
1427	7.1300e-01	5.7376	7.222377	0.000492	4.918329	0.833187	-0.009835
1428	7.1350e-01	5.7245	7.209548	0.000128	1.283042	0.217353	-0.002566
1429	7.1400e-01	5.7153	7.189022	0.000205	2.052868	0.347765	-0.004105
1430	7.1450e-01	5.7050	7.135569	0.000535	5.346009	0.905638	-0.010691
1431	7.1500e-01	5.6982	7.118037	0.000175	1.753491	0.297049	-0.003507
1432	7.1550e-01	5.6845	7.090668	0.000274	2.737157	0.463687	-0.005474
1433	7.1600e-01	5.6781	7.056886	0.000338	3.378678	0.572364	-0.006756
1434	7.1650e-01	5.6641	7.038498	0.000184	1.839027	0.311540	-0.003678
1435	7.1700e-01	5.6534	7.023959	0.000145	1.454115	0.246334	-0.002908
1436	7.1750e-01	5.6464	6.962381	0.000616	6.158603	1.043296	-0.012316
1437	7.1800e-01	5.6354	6.936296	0.000261	2.608853	0.441952	-0.005217
1438	7.1850e-01	5.6279	6.905507	0.000308	3.079301	0.521648	-0.006158
1439	7.1900e-01	5.6155	6.880704	0.000248	2.480548	0.420216	-0.004960
1440	7.1950e-01	5.6052	6.845639	0.000351	3.506982	0.594099	-0.007013
1441	7.2000e-01	5.5966	6.825968	0.000197	1.967331	0.333275	-0.003934
1442	7.2050e-01	5.5859	6.790048	0.000359	3.592518	0.608589	-0.007184
1443	7.2100e-01	5.5737	6.765246	0.000248	2.480548	0.420216	-0.004960
1444	7.2150e-01	5.5640	6.718635	0.000466	4.661720	0.789717	-0.009322
1445	7.2200e-01	5.5566	6.701529	0.000171	1.710723	0.289804	-0.003421
1446	7.2250e-01	5.5463	6.666464	0.000351	3.506982	0.594099	-0.007013
1447	7.2300e-01	5.5365	6.634392	0.000321	3.207606	0.543383	-0.006414
1448	7.2350e-01	5.5257	6.613866	0.000205	2.052868	0.347765	-0.004105
1449	7.2400e-01	5.5167	6.575380	0.000385	3.849127	0.652060	-0.007697
1450	7.2450e-01	5.5069	6.549723	0.000257	2.566084	0.434706	-0.005132
1451	7.2500e-01	5.4959	6.518506	0.000312	3.122069	0.528893	-0.006243
1452	7.2550e-01	5.4871	6.484296	0.000342	3.421446	0.579609	-0.006842
1453	7.2600e-01	5.4758	6.450086	0.000342	3.421446	0.579609	-0.006842
1454	7.2650e-01	5.4636	6.439395	0.000107	1.069202	0.181128	-0.002138
1455	7.2700e-01	5.4535	6.410317	0.000291	2.908229	0.492667	-0.005816
1456	7.2750e-01	5.4431	6.369265	0.000411	4.105735	0.695530	-0.008210
1457	7.2800e-01	5.4370	6.338048	0.000312	3.122069	0.528893	-0.006243
1458	7.2850e-01	5.4254	6.313673	0.000244	2.437780	0.412971	-0.004875
1459	7.2900e-01	5.4150	6.287161	0.000265	2.651621	0.449197	-0.005303
1460	7.2950e-01	5.4065	6.263214	0.000240	2.395012	0.405726	-0.004789
1461	7.3000e-01	5.3967	6.206339	0.000569	5.688154	0.963599	-0.011375
1462	7.3050e-01	5.3867	6.181110	0.000252	2.523316	0.427461	-0.005046
1463	7.3100e-01	5.3723	6.152886	0.000282	2.822693	0.478177	-0.005645
1464	7.3150e-01	5.3671	6.128084	0.000248	2.480548	0.420216	-0.004960
1465	7.3200e-01	5.3564	6.092591	0.000355	3.549750	0.601344	-0.007099
1466	7.3250e-01	5.3461	6.058381	0.000342	3.421446	0.579609	-0.006842
1467	7.3300e-01	5.3345	6.038283	0.000201	2.010100	0.340520	-0.004020
1468	7.3350e-01	5.3238	5.999796	0.000385	3.849127	0.652060	-0.007697
1469	7.3400e-01	5.3149	5.974567	0.000252	2.523316	0.427461	-0.005046
1470	7.3450e-01	5.3061	5.947626	0.000269	2.694389	0.456442	-0.005388
1471	7.3500e-01	5.2942	5.913416	0.000342	3.421446	0.579609	-0.006842
1472	7.3550e-01	5.2841	5.878351	0.000351	3.506982	0.594099	-0.007013
1473	7.3600e-01	5.2765	5.856542	0.000218	2.181172	0.369501	-0.004362
1474	7.3650e-01	5.2667	5.817628	0.000389	3.891895	0.659305	-0.007783
1475	7.3700e-01	5.2560	5.792398	0.000252	2.523316	0.427461	-0.005046
1476	7.3750e-01	5.2451	5.752629	0.000398	3.977431	0.673795	-0.007954
1477	7.3800e-01	5.2377	5.723978	0.000287	2.865461	0.485422	-0.005730
1478	7.3850e-01	5.2249	5.701314	0.000227	2.266708	0.383991	-0.004533
1479	7.3900e-01	5.2148	5.666676	0.000346	3.464214	0.586854	-0.006928
1480	7.3950e-01	5.2052	5.636315	0.000304	3.036533	0.514403	-0.006072
1481	7.4000e-01	5.1967	5.587993	0.000483	4.832792	0.818697	-0.009664
1482	7.4050e-01	5.1859	5.575165	0.000128	1.283042	0.217353	-0.002566
1483	7.4100e-01	5.1733	5.533257	0.000419	4.191271	0.710021	-0.008381
1484	7.4150e-01	5.1642	5.503323	0.000299	2.993765	0.507158	-0.005987
1485	7.4200e-01	5.1569	5.490922	0.000124	1.240274	0.210108	-0.002480
1486	7.4250e-01	5.1471	5.453291	0.000376	3.763591	0.637569	-0.007526
1487	7.4300e-01	5.1349	5.407963	0.000453	4.533416	0.767981	-0.009066
1488	7.4350e-01	5.1239	5.386582	0.000214	2.138404	0.362255	-0.004276
1489	7.4400e-01	5.1147	5.358786	0.000278	2.779925	0.470932	-0.005559
1490	7.4450e-01	5.1056	5.298063	0.000607	6.073067	1.028805	-0.012145
1491	7.4500e-01	5.0966	5.286517	0.000115	1.154738	0.195618	-0.002309
1492	7.4550e-01	5.0851	5.260005	0.000265	2.651621	0.449197	-0.005303
1493	7.4600e-01	5.0757	5.227933	0.000321	3.207606	0.543383	-0.006414
1494	7.4650e-01	5.0629	5.206979	0.000210	2.095636	0.355010	-0.004191
1495	7.4700e-01	5.0557	5.174480	0.000325	3.250374	0.550628	-0.006500
1496	7.4750e-01	5.0452	5.133428	0.000411	4.105735	0.695530	-0.008210
1497	7.4800e-01	5.0346	5.106915	0.000265	2.651621	0.449197	-0.005303
1498	7.4850e-01	5.0272	5.081257	0.000257	2.566084	0.434706	-0.005132
1499	7.4900e-01	5.0165	5.040633	0.000406	4.062967	0.688285	-0.008125
1500	7.4950e-01	5.0067	5.012410	0.000282	2.822693	0.478177	-0.005645
1501	7.5000e-01	4.9951	4.980338	0.000321	3.207606	0.543383	-0.006414
1502	7.5050e-01	4.9884	4.941851	0.000385	3.849127	0.652060	-0.007697
1503	7.5100e-01	4.9747	4.920898	0.000210	2.095636	0.355010	-0.004191
1504	7.5150e-01	4.9652	4.881129	0.000398	3.977431	0.673795	-0.007954
1505	7.5200e-01	4.9533	4.858892	0.000222	2.223940	0.376746	-0.004447
1506	7.5250e-01	4.9469	4.816557	0.000423	4.234039	0.717266	-0.008467
1507	7.5300e-01	4.9353	4.790900	0.000257	2.566084	0.434706	-0.005132
1508	7.5350e-01	4.9271	4.763104	0.000278	2.779925	0.470932	-0.005559
1509	7.5400e-01	4.9158	4.722907	0.000402	4.020199	0.681040	-0.008039
1510	7.5450e-01	4.9057	4.698960	0.000240	2.395012	0.405726	-0.004789
1511	7.5500e-01	4.8969	4.668599	0.000304	3.036533	0.514403	-0.006072
1512	7.5550e-01	4.8874	4.614718	0.000539	5.388777	0.912884	-0.010776
1513	7.5600e-01	4.8761	4.604883	0.000098	0.983666	0.166637	-0.001967
1514	7.5650e-01	4.8677	4.561265	0.000436	4.362344	0.739001	-0.008724
1515	7.5700e-01	4.8579	4.524489	0.000368	3.678054	0.623079	-0.007355
1516	7.5750e-01	4.8474	4.502253	0.000222	2.223940	0.376746	-0.004447
1517	7.5800e-01	4.8376	4.475740	0.000265	2.651621	0.449197	-0.005303
1518	7.5850e-01	4.8239	4.432122	0.000436	4.362344	0.739001	-0.008724
1519	7.5900e-01	4.8166	4.406465	0.000257	2.566084	0.434706	-0.005132
1520	7.5950e-01	4.8071	4.371827	0.000346	3.464214	0.586854	-0.006928
1521	7.6000e-01	4.7974	4.336334	0.000355	3.549750	0.601344	-0.007099
1522	7.6050e-01	4.7891	4.306400	0.000299	2.993765	0.507158	-0.005987
1523	7.6100e-01	4.7784	4.271763	0.000346	3.464214	0.586854	-0.006928
1524	7.6150e-01	4.7688	4.241401	0.000304	3.036533	0.514403	-0.006072
1525	7.6200e-01	4.7534	4.216171	0.000252	2.523316	0.427461	-0.005046
1526	7.6250e-01	4.7476	4.187093	0.000291	2.908229	0.492667	-0.005816
1527	7.6300e-01	4.7369	4.147751	0.000393	3.934663	0.666550	-0.007868
1528	7.6350e-01	4.7278	4.111831	0.000359	3.592518	0.608589	-0.007184
1529	7.6400e-01	4.7163	4.093443	0.000184	1.839027	0.311540	-0.003678
1530	7.6450e-01	4.7076	4.046832	0.000466	4.661720	0.789717	-0.009322
1531	7.6500e-01	4.6962	4.005352	0.000415	4.148503	0.702775	-0.008296
1532	7.6550e-01	4.6887	3.984826	0.000205	2.052868	0.347765	-0.004105
1533	7.6600e-01	4.6797	3.954037	0.000308	3.079301	0.521648	-0.006158
1534	7.6650e-01	4.6661	3.911702	0.000423	4.234039	0.717266	-0.008467
1535	7.6700e-01	4.6547	3.885617	0.000261	2.608853	0.441952	-0.005217
1536	7.6750e-01	4.6484	3.860387	0.000252	2.523316	0.427461	-0.005046
1537	7.6800e-01	4.6349	3.825750	0.000346	3.464214	0.586854	-0.006928
1538	7.6850e-01	4.6301	3.786836	0.000389	3.891895	0.659305	-0.007783
1539	7.6900e-01	4.6179	3.748349	0.000385	3.849127	0.652060	-0.007697
1540	7.6950e-01	4.6048	3.726968	0.000214	2.138404	0.362255	-0.004276
1541	7.7000e-01	4.5943	3.697890	0.000291	2.908229	0.492667	-0.005816
1542	7.7050e-01	4.5889	3.658976	0.000389	3.891895	0.659305	-0.007783
1543	7.7100e-01	4.5749	3.620489	0.000385	3.849127	0.652060	-0.007697
1544	7.7150e-01	4.5648	3.596115	0.000244	2.437780	0.412971	-0.004875
1545	7.7200e-01	4.5569	3.554635	0.000415	4.148503	0.702775	-0.008296
1546	7.7250e-01	4.5438	3.536675	0.000180	1.796259	0.304295	-0.003592
1547	7.7300e-01	4.5358	3.492629	0.000441	4.405112	0.746246	-0.008809
1548	7.7350e-01	4.5245	3.450295	0.000423	4.234039	0.717266	-0.008467
1549	7.7400e-01	4.5157	3.438321	0.000120	1.197506	0.202863	-0.002395
1550	7.7450e-01	4.5081	3.397697	0.000406	4.062967	0.688285	-0.008125
1551	7.7500e-01	4.4965	3.357500	0.000402	4.020199	0.681040	-0.008039
1552	7.7550e-01	4.4879	3.327994	0.000295	2.950997	0.499912	-0.005901
1553	7.7600e-01	4.4763	3.302336	0.000257	2.566084	0.434706	-0.005132
1554	7.7650e-01	4.4655	3.263422	0.000389	3.891895	0.659305	-0.007783
1555	7.7700e-01	4.4568	3.215101	0.000483	4.832792	0.818697	-0.009664
1556	7.7750e-01	4.4472	3.197568	0.000175	1.753491	0.297049	-0.003507
1557	7.7800e-01	4.4357	3.161220	0.000364	3.635286	0.615834	-0.007270
1558	7.7850e-01	4.4257	3.125727	0.000355	3.549750	0.601344	-0.007099
1559	7.7900e-01	4.4174	3.094510	0.000312	3.122069	0.528893	-0.006243
1560	7.7950e-01	4.4080	3.050893	0.000436	4.362344	0.739001	-0.008724
1561	7.8000e-01	4.3951	3.025663	0.000252	2.523316	0.427461	-0.005046
1562	7.8050e-01	4.3874	2.990597	0.000351	3.506982	0.594099	-0.007013
1563	7.8100e-01	4.3747	2.962802	0.000278	2.779925	0.470932	-0.005559
1564	7.8150e-01	4.3646	2.931157	0.000316	3.164838	0.536138	-0.006329
1565	7.8200e-01	4.3533	2.890533	0.000406	4.062967	0.688285	-0.008125
1566	7.8250e-01	4.3469	2.865731	0.000248	2.480548	0.420216	-0.004960
1567	7.8300e-01	4.3347	2.823824	0.000419	4.191271	0.710021	-0.008381
1568	7.8350e-01	4.3237	2.795173	0.000287	2.865461	0.485422	-0.005730
1569	7.8400e-01	4.3181	2.739581	0.000556	5.559850	0.941864	-0.011118
1570	7.8450e-01	4.3079	2.717345	0.000222	2.223940	0.376746	-0.004447
1571	7.8500e-01	4.2986	2.689977	0.000274	2.737157	0.463687	-0.005474
1572	7.8550e-01	4.2856	2.654912	0.000351	3.506982	0.594099	-0.007013
1573	7.8600e-01	4.2773	2.617708	0.000372	3.720822	0.630324	-0.007441
1574	7.8650e-01	4.2661	2.594616	0.000231	2.309476	0.391236	-0.004618
1575	7.8700e-01	4.2548	2.553992	0.000406	4.062967	0.688285	-0.008125
1576	7.8750e-01	4.2453	2.524913	0.000291	2.908229	0.492667	-0.005816
1577	7.8800e-01	4.2349	2.484289	0.000406	4.062967	0.688285	-0.008125
1578	7.8850e-01	4.2255	2.463335	0.000210	2.095636	0.355010	-0.004191
1579	7.8900e-01	4.2151	2.426132	0.000372	3.720822	0.630324	-0.007441
1580	7.8950e-01	4.2079	2.388501	0.000376	3.763591	0.637569	-0.007526
1581	7.9000e-01	4.1959	2.356001	0.000325	3.250374	0.550628	-0.006500
1582	7.9050e-01	4.1852	2.316232	0.000398	3.977431	0.673795	-0.007954
1583	7.9100e-01	4.1763	2.282450	0.000338	3.378678	0.572364	-0.006756
1584	7.9150e-01	4.1671	2.249095	0.000334	3.335910	0.565118	-0.006671
1585	7.9200e-01	4.1560	2.223438	0.000257	2.566084	0.434706	-0.005132
1586	7.9250e-01	4.1461	2.188372	0.000351	3.506982	0.594099	-0.007013
1587	7.9300e-01	4.1345	2.146465	0.000419	4.191271	0.710021	-0.008381
1588	7.9350e-01	4.1248	2.121663	0.000248	2.480548	0.420216	-0.004960
1589	7.9400e-01	4.1150	2.094295	0.000274	2.737157	0.463687	-0.005474
1590	7.9450e-01	4.1058	2.052815	0.000415	4.148503	0.702775	-0.008296
1591	7.9500e-01	4.0961	2.022026	0.000308	3.079301	0.521648	-0.006158
1592	7.9550e-01	4.0851	1.976270	0.000458	4.576184	0.775227	-0.009151
1593	7.9600e-01	4.0760	1.946764	0.000295	2.950997	0.499912	-0.005901
1594	7.9650e-01	4.0662	1.905712	0.000411	4.105735	0.695530	-0.008210
1595	7.9700e-01	4.0587	1.879199	0.000265	2.651621	0.449197	-0.005303
1596	7.9750e-01	4.0450	1.836864	0.000423	4.234039	0.717266	-0.008467
1597	7.9800e-01	4.0350	1.810352	0.000265	2.651621	0.449197	-0.005303
1598	7.9850e-01	4.0274	1.775286	0.000351	3.506982	0.594099	-0.007013
1599	7.9900e-01	4.0167	1.737228	0.000381	3.806359	0.644815	-0.007612
1600	7.9950e-01	4.0068	1.706866	0.000304	3.036533	0.514403	-0.006072
1601	8.0000e-01	3.9963	1.671801	0.000351	3.506982	0.594099	-0.007013
1602	8.0050e-01	3.9853	1.634170	0.000376	3.763591	0.637569	-0.007526
1603	8.0100e-01	3.9746	1.601243	0.000329	3.293142	0.557873	-0.006585
1604	8.0150e-01	3.9638	1.570454	0.000308	3.079301	0.521648	-0.006158
1605	8.0200e-01	3.9539	1.536244	0.000342	3.421446	0.579609	-0.006842
1606	8.0250e-01	3.9459	1.502034	0.000342	3.421446	0.579609	-0.006842
1607	8.0300e-01	3.9343	1.453284	0.000488	4.875560	0.825942	-0.009750
1608	8.0350e-01	3.9265	1.433614	0.000197	1.967331	0.333275	-0.003934
1609	8.0400e-01	3.9157	1.389996	0.000436	4.362344	0.739001	-0.008724
1610	8.0450e-01	3.9058	1.362628	0.000274	2.737157	0.463687	-0.005474
1611	8.0500e-01	3.8977	1.334832	0.000278	2.779925	0.470932	-0.005559
1612	8.0550e-01	3.8858	1.285655	0.000492	4.918329	0.833187	-0.009835
1613	8.0600e-01	3.8739	1.248452	0.000372	3.720822	0.630324	-0.007441
1614	8.0650e-01	3.8644	1.217663	0.000308	3.079301	0.521648	-0.006158
1615	8.0700e-01	3.8567	1.187302	0.000304	3.036533	0.514403	-0.006072
1616	8.0750e-01	3.8449	1.164210	0.000231	2.309476	0.391236	-0.004618
1617	8.0800e-01	3.8332	1.124013	0.000402	4.020199	0.681040	-0.008039
1618	8.0850e-01	3.8252	1.065001	0.000590	5.901994	0.999825	-0.011802
1619	8.0900e-01	3.8165	1.047896	0.000171	1.710723	0.289804	-0.003421
1620	8.0950e-01	3.8055	1.011120	0.000368	3.678054	0.623079	-0.007355
1621	8.1000e-01	3.7949	0.965364	0.000458	4.576184	0.775227	-0.009151
1622	8.1050e-01	3.7888	0.935858	0.000295	2.950997	0.499912	-0.005901
1623	8.1100e-01	3.7729	0.912339	0.000235	2.352244	0.398481	-0.004704
1624	8.1150e-01	3.7653	0.867010	0.000453	4.533416	0.767981	-0.009066
1625	8.1200e-01	3.7611	0.837504	0.000295	2.950997	0.499912	-0.005901
1626	8.1250e-01	3.7482	0.793031	0.000445	4.447880	0.753491	-0.008895
1627	8.1300e-01	3.7347	0.755400	0.000376	3.763591	0.637569	-0.007526
1628	8.1350e-01	3.7268	0.734446	0.000210	2.095636	0.355010	-0.004191
1629	8.1400e-01	3.7169	0.692967	0.000415	4.148503	0.702775	-0.008296
1630	8.1450e-01	3.7061	0.650204	0.000428	4.276807	0.724511	-0.008553
1631	8.1500e-01	3.6981	0.610435	0.000398	3.977431	0.673795	-0.007954
1632	8.1550e-01	3.6877	0.568955	0.000415	4.148503	0.702775	-0.008296
1633	8.1600e-01	3.6751	0.565962	0.000030	0.299377	0.050716	-0.000599
1634	8.1650e-01	3.6670	0.515930	0.000500	5.003865	0.847678	-0.010006
1635	8.1700e-01	3.6600	0.486424	0.000295	2.950997	0.499912	-0.005901
1636	8.1750e-01	3.6453	0.428267	0.000582	5.816458	0.985335	-0.011631
1637	8.1800e-01	3.6398	0.406885	0.000214	2.138404	0.362255	-0.004276
1638	8.1850e-01	3.6261	0.382083	0.000248	2.480548	0.420216	-0.004960
1639	8.1900e-01	3.6157	0.328202	0.000539	5.388777	0.912884	-0.010776
1640	8.1950e-01	3.6060	0.302545	0.000257	2.566084	0.434706	-0.005132
1641	8.2000e-01	3.5965	0.261920	0.000406	4.062967	0.688285	-0.008125
1642	8.2050e-01	3.5878	0.220013	0.000419	4.191271	0.710021	-0.008381
1643	8.2100e-01	3.5773	0.196066	0.000240	2.395012	0.405726	-0.004789
1644	8.2150e-01	3.5677	0.144324	0.000517	5.174937	0.876658	-0.010349
1645	8.2200e-01	3.5583	0.093436	0.000509	5.089401	0.862168	-0.010177
1646	8.2250e-01	3.5475	0.080607	0.000128	1.283042	0.217353	-0.002566
1647	8.2300e-01	3.5358	0.047680	0.000329	3.293142	0.557873	-0.006585
1648	8.2350e-01	3.5248	0.013043	0.000346	3.464214	0.586854	-0.006928
1649	8.2400e-01	3.5158	-0.034851	0.000479	4.790024	0.811452	-0.009579
1650	8.2450e-01	3.5085	-0.054522	0.000197	1.967331	0.333275	-0.003934
1651	8.2500e-01	3.4949	-0.101989	0.000475	4.747256	0.804207	-0.009493
1652	8.2550e-01	3.4868	-0.133633	0.000316	3.164838	0.536138	-0.006329
1653	8.2600e-01	3.4754	-0.176823	0.000432	4.319576	0.731756	-0.008638
1654	8.2650e-01	3.4672	-0.193073	0.000163	1.625187	0.275314	-0.003250
1655	8.2700e-01	3.4543	-0.241822	0.000488	4.875560	0.825942	-0.009750
1656	8.2750e-01	3.4468	-0.275604	0.000338	3.378678	0.572364	-0.006756
1657	8.2800e-01	3.4360	-0.313236	0.000376	3.763591	0.637569	-0.007526
1658	8.2850e-01	3.4285	-0.350011	0.000368	3.678054	0.623079	-0.007355
1659	8.2900e-01	3.4172	-0.383366	0.000334	3.335910	0.565118	-0.006671
1660	8.2950e-01	3.4058	-0.416293	0.000329	3.293142	0.557873	-0.006585
1661	8.3000e-01	3.3934	-0.462477	0.000462	4.618952	0.782472	-0.009237
1662	8.3050e-01	3.3835	-0.492838	0.000304	3.036533	0.514403	-0.006072
1663	8.3100e-01	3.3798	-0.532180	0.000393	3.934663	0.666550	-0.007868
1664	8.3150e-01	3.3673	-0.584778	0.000526	5.260473	0.891148	-0.010520
1665	8.3200e-01	3.3547	-0.614284	0.000295	2.950997	0.499912	-0.005901
1666	8.3250e-01	3.3448	-0.642507	0.000282	2.822693	0.478177	-0.005645
1667	8.3300e-01	3.3369	-0.692967	0.000505	5.046633	0.854923	-0.010092
1668	8.3350e-01	3.3258	-0.727604	0.000346	3.464214	0.586854	-0.006928
1669	8.3400e-01	3.3160	-0.756683	0.000291	2.908229	0.492667	-0.005816
1670	8.3450e-01	3.3049	-0.797307	0.000406	4.062967	0.688285	-0.008125
1671	8.3500e-01	3.2978	-0.839642	0.000423	4.234039	0.717266	-0.008467
1672	8.3550e-01	3.2851	-0.864017	0.000244	2.437780	0.412971	-0.004875
1673	8.3600e-01	3.2770	-0.893951	0.000299	2.993765	0.507158	-0.005987
1674	8.3650e-01	3.2654	-0.962371	0.000684	6.842892	1.159217	-0.013684
1675	8.3700e-01	3.2565	-0.984180	0.000218	2.181172	0.369501	-0.004362
1676	8.3750e-01	3.2432	-1.020955	0.000368	3.678054	0.623079	-0.007355
1677	8.3800e-01	3.2347	-1.057731	0.000368	3.678054	0.623079	-0.007355
1678	8.3850e-01	3.2259	-1.106480	0.000488	4.875560	0.825942	-0.009750
1679	8.3900e-01	3.2153	-1.119737	0.000133	1.325810	0.224598	-0.002651
1680	8.3950e-01	3.2062	-1.168058	0.000483	4.832792	0.818697	-0.009664
1681	8.4000e-01	3.1936	-1.209966	0.000419	4.191271	0.710021	-0.008381
1682	8.4050e-01	3.1871	-1.242465	0.000325	3.250374	0.550628	-0.006500
1683	8.4100e-01	3.1775	-1.277531	0.000351	3.506982	0.594099	-0.007013
1684	8.4150e-01	3.1638	-1.319010	0.000415	4.148503	0.702775	-0.008296
1685	8.4200e-01	3.1526	-1.354931	0.000359	3.592518	0.608589	-0.007184
1686	8.4250e-01	3.1454	-1.393845	0.000389	3.891895	0.659305	-0.007783
1687	8.4300e-01	3.1369	-1.442594	0.000488	4.875560	0.825942	-0.009750
1688	8.4350e-01	3.1262	-1.466969	0.000244	2.437780	0.412971	-0.004875
1689	8.4400e-01	3.1180	-1.498613	0.000316	3.164838	0.536138	-0.006329
1690	8.4450e-01	3.1075	-1.543513	0.000449	4.490648	0.760736	-0.008980
1691	8.4500e-01	3.0942	-1.571309	0.000278	2.779925	0.470932	-0.005559
1692	8.4550e-01	3.0844	-1.602526	0.000312	3.122069	0.528893	-0.006243
1693	8.4600e-01	3.0790	-1.658972	0.000565	5.645386	0.956354	-0.011289
1694	8.4650e-01	3.0660	-1.694038	0.000351	3.506982	0.594099	-0.007013
1695	8.4700e-01	3.0569	-1.737655	0.000436	4.362344	0.739001	-0.008724
1696	8.4750e-01	3.0469	-1.779990	0.000423	4.234039	0.717266	-0.008467
1697	8.4800e-01	3.0331	-1.811207	0.000312	3.122069	0.528893	-0.006243
1698	8.4850e-01	3.0246	-1.836864	0.000257	2.566084	0.434706	-0.005132
1699	8.4900e-01	3.0176	-1.888607	0.000517	5.174937	0.876658	-0.010349
1700	8.4950e-01	3.0060	-1.912554	0.000240	2.395012	0.405726	-0.004789
1701	8.5000e-01	2.9962	-1.958310	0.000458	4.576184	0.775227	-0.009151
1702	8.5050e-01	2.9837	-1.992948	0.000346	3.464214	0.586854	-0.006928
1703	8.5100e-01	2.9762	-2.035710	0.000428	4.276807	0.724511	-0.008553
1704	8.5150e-01	2.9646	-2.083177	0.000475	4.747256	0.804207	-0.009493
1705	8.5200e-01	2.9541	-2.103275	0.000201	2.010100	0.340520	-0.004020
1706	8.5250e-01	2.9462	-2.159721	0.000565	5.645386	0.956354	-0.011289
1707	8.5300e-01	2.9404	-2.189228	0.000295	2.950997	0.499912	-0.005901
1708	8.5350e-01	2.9266	-2.228997	0.000398	3.977431	0.673795	-0.007954
1709	8.5400e-01	2.9178	-2.276891	0.000479	4.790024	0.811452	-0.009579
1710	8.5450e-01	2.9092	-2.296134	0.000192	1.924563	0.326030	-0.003849
1711	8.5500e-01	2.8943	-2.328206	0.000321	3.207606	0.543383	-0.006414
1712	8.5550e-01	2.8827	-2.387218	0.000590	5.901994	0.999825	-0.011802
1713	8.5600e-01	2.8766	-2.426987	0.000398	3.977431	0.673795	-0.007954
1714	8.5650e-01	2.8668	-2.467184	0.000402	4.020199	0.681040	-0.008039
1715	8.5700e-01	2.8564	-2.505243	0.000381	3.806359	0.644815	-0.007612
1716	8.5750e-01	2.8455	-2.540308	0.000351	3.506982	0.594099	-0.007013
1717	8.5800e-01	2.8351	-2.561689	0.000214	2.138404	0.362255	-0.004276
1718	8.5850e-01	2.8217	-2.598893	0.000372	3.720822	0.630324	-0.007441
1719	8.5900e-01	2.8146	-2.648925	0.000500	5.003865	0.847678	-0.010006
1720	8.5950e-01	2.8034	-2.682707	0.000338	3.378678	0.572364	-0.006756
1721	8.6000e-01	2.7960	-2.718200	0.000355	3.549750	0.601344	-0.007099
1722	8.6050e-01	2.7863	-2.774219	0.000560	5.602618	0.949109	-0.011204
1723	8.6100e-01	2.7780	-2.806718	0.000325	3.250374	0.550628	-0.006500
1724	8.6150e-01	2.7643	-2.846488	0.000398	3.977431	0.673795	-0.007954
1725	8.6200e-01	2.7563	-2.890105	0.000436	4.362344	0.739001	-0.008724
1726	8.6250e-01	2.7435	-2.929875	0.000398	3.977431	0.673795	-0.007954
1727	8.6300e-01	2.7316	-2.960664	0.000308	3.079301	0.521648	-0.006158
1728	8.6350e-01	2.7277	-3.007275	0.000466	4.661720	0.789717	-0.009322
1729	8.6400e-01	2.7155	-3.029084	0.000218	2.181172	0.369501	-0.004362
1730	8.6450e-01	2.7054	-3.081254	0.000522	5.217705	0.883903	-0.010434
1731	8.6500e-01	2.6935	-3.126582	0.000453	4.533416	0.767981	-0.009066
1732	8.6550e-01	2.6862	-3.165924	0.000393	3.934663	0.666550	-0.007868
1733	8.6600e-01	2.6747	-3.212535	0.000466	4.661720	0.789717	-0.009322
1734	8.6650e-01	2.6642	-3.232633	0.000201	2.010100	0.340520	-0.004020
1735	8.6700e-01	2.6556	-3.286514	0.000539	5.388777	0.912884	-0.010776
1736	8.6750e-01	2.6449	-3.314310	0.000278	2.779925	0.470932	-0.005559
1737	8.6800e-01	2.6357	-3.363487	0.000492	4.918329	0.833187	-0.009835
1738	8.6850e-01	2.6263	-3.404111	0.000406	4.062967	0.688285	-0.008125
1739	8.6900e-01	2.6142	-3.431479	0.000274	2.737157	0.463687	-0.005474
1740	8.6950e-01	2.6056	-3.482794	0.000513	5.132169	0.869413	-0.010263
1741	8.7000e-01	2.5948	-3.519142	0.000364	3.635286	0.615834	-0.007270
1742	8.7050e-01	2.5867	-3.559339	0.000402	4.020199	0.681040	-0.008039
1743	8.7100e-01	2.5750	-3.605095	0.000458	4.576184	0.775227	-0.009151
1744	8.7150e-01	2.5668	-3.630752	0.000257	2.566084	0.434706	-0.005132
1745	8.7200e-01	2.5543	-3.682495	0.000517	5.174937	0.876658	-0.010349
1746	8.7250e-01	2.5450	-3.717133	0.000346	3.464214	0.586854	-0.006928
1747	8.7300e-01	2.5362	-3.753053	0.000359	3.592518	0.608589	-0.007184
1748	8.7350e-01	2.5266	-3.804796	0.000517	5.174937	0.876658	-0.010349
1749	8.7400e-01	2.5134	-3.823184	0.000184	1.839027	0.311540	-0.003678
1750	8.7450e-01	2.5034	-3.877065	0.000539	5.388777	0.912884	-0.010776
1751	8.7500e-01	2.4950	-3.902722	0.000257	2.566084	0.434706	-0.005132
1752	8.7550e-01	2.4840	-3.956175	0.000535	5.346009	0.905638	-0.010691
1753	8.7600e-01	2.4750	-4.007490	0.000513	5.132169	0.869413	-0.010263
1754	8.7650e-01	2.4692	-4.038707	0.000312	3.122069	0.528893	-0.006243
1755	8.7700e-01	2.4573	-4.080614	0.000419	4.191271	0.710021	-0.008381
1756	8.7750e-01	2.4467	-4.118245	0.000376	3.763591	0.637569	-0.007526
1757	8.7800e-01	2.4353	-4.143047	0.000248	2.480548	0.420216	-0.004960
1758	8.7850e-01	2.4258	-4.186665	0.000436	4.362344	0.739001	-0.008724
1759	8.7900e-01	2.4170	-4.248243	0.000616	6.158603	1.043296	-0.012316
1760	8.7950e-01	2.4071	-4.285874	0.000376	3.763591	0.637569	-0.007526
1761	8.8000e-01	2.3956	-4.310249	0.000244	2.437780	0.412971	-0.004875
1762	8.8050e-01	2.3862	-4.364557	0.000543	5.431545	0.920129	-0.010862
1763	8.8100e-01	2.3740	-4.405182	0.000406	4.062967	0.688285	-0.008125
1764	8.8150e-01	2.3657	-4.435116	0.000299	2.993765	0.507158	-0.005987
1765	8.8200e-01	2.3540	-4.490707	0.000556	5.559850	0.941864	-0.011118
1766	8.8250e-01	2.3480	-4.522351	0.000316	3.164838	0.536138	-0.006329
1767	8.8300e-01	2.3346	-4.570673	0.000483	4.832792	0.818697	-0.009664
1768	8.8350e-01	2.3264	-4.598468	0.000278	2.779925	0.470932	-0.005559
1769	8.8400e-01	2.3163	-4.640376	0.000419	4.191271	0.710021	-0.008381
1770	8.8450e-01	2.3053	-4.694684	0.000543	5.431545	0.920129	-0.010862
1771	8.8500e-01	2.2956	-4.731032	0.000364	3.635286	0.615834	-0.007270
1772	8.8550e-01	2.2859	-4.764387	0.000334	3.335910	0.565118	-0.006671
1773	8.8600e-01	2.2765	-4.808860	0.000445	4.447880	0.753491	-0.008895
1774	8.8650e-01	2.2665	-4.848629	0.000398	3.977431	0.673795	-0.007954
1775	8.8700e-01	2.2533	-4.889254	0.000406	4.062967	0.688285	-0.008125
1776	8.8750e-01	2.2487	-4.926029	0.000368	3.678054	0.623079	-0.007355
1777	8.8800e-01	2.2353	-4.984186	0.000582	5.816458	0.985335	-0.011631
1778	8.8850e-01	2.2247	-5.025238	0.000411	4.105735	0.695530	-0.008210
1779	8.8900e-01	2.2168	-5.063725	0.000385	3.849127	0.652060	-0.007697
1780	8.8950e-01	2.2065	-5.093231	0.000295	2.950997	0.499912	-0.005901
1781	8.9000e-01	2.1999	-5.141125	0.000479	4.790024	0.811452	-0.009579
1782	8.9050e-01	2.1863	-5.200992	0.000599	5.987530	1.014315	-0.011974
1783	8.9100e-01	2.1781	-5.224939	0.000240	2.395012	0.405726	-0.004789
1784	8.9150e-01	2.1657	-5.254018	0.000291	2.908229	0.492667	-0.005816
1785	8.9200e-01	2.1548	-5.310464	0.000565	5.645386	0.956354	-0.011289
1786	8.9250e-01	2.1439	-5.336550	0.000261	2.608853	0.441952	-0.005217
1787	8.9300e-01	2.1384	-5.392996	0.000565	5.645386	0.956354	-0.011289
1788	8.9350e-01	2.1296	-5.431482	0.000385	3.849127	0.652060	-0.007697
1789	8.9400e-01	2.1149	-5.469541	0.000381	3.806359	0.644815	-0.007612
1790	8.9450e-01	2.1049	-5.508883	0.000393	3.934663	0.666550	-0.007868
1791	8.9500e-01	2.0967	-5.548652	0.000398	3.977431	0.673795	-0.007954
1792	8.9550e-01	2.0863	-5.596973	0.000483	4.832792	0.818697	-0.009664
1793	8.9600e-01	2.0770	-5.634177	0.000372	3.720822	0.630324	-0.007441
1794	8.9650e-01	2.0676	-5.688913	0.000547	5.474314	0.927374	-0.010947
1795	8.9700e-01	2.0557	-5.721412	0.000325	3.250374	0.550628	-0.006500
1796	8.9750e-01	2.0460	-5.768451	0.000470	4.704488	0.796962	-0.009408
1797	8.9800e-01	2.0363	-5.810786	0.000423	4.234039	0.717266	-0.008467
1798	8.9850e-01	2.0221	-5.838154	0.000274	2.737157	0.463687	-0.005474
1799	8.9900e-01	2.0163	-5.889041	0.000509	5.089401	0.862168	-0.010177
1800	8.9950e-01	2.0065	-5.945060	0.000560	5.602618	0.949109	-0.011204
1801	9.0000e-01	1.9958	-5.971146	0.000261	2.608853	0.441952	-0.005217
1802	9.0050e-01	1.9881	-6.025026	0.000539	5.388777	0.912884	-0.010776
1803	9.0100e-01	1.9761	-6.073348	0.000483	4.832792	0.818697	-0.009664
1804	9.0150e-01	1.9661	-6.097723	0.000244	2.437780	0.412971	-0.004875
1805	9.0200e-01	1.9550	-6.158445	0.000607	6.073067	1.028805	-0.012145
1806	9.0250e-01	1.9428	-6.189234	0.000308	3.079301	0.521648	-0.006158
1807	9.0300e-01	1.9339	-6.227293	0.000381	3.806359	0.644815	-0.007612
1808	9.0350e-01	1.9244	-6.267490	0.000402	4.020199	0.681040	-0.008039
1809	9.0400e-01	1.9171	-6.313673	0.000462	4.618952	0.782472	-0.009237
1810	9.0450e-01	1.9061	-6.368409	0.000547	5.474314	0.927374	-0.010947
1811	9.0500e-01	1.8923	-6.398343	0.000299	2.993765	0.507158	-0.005987
1812	9.0550e-01	1.8856	-6.459066	0.000607	6.073067	1.028805	-0.012145
1813	9.0600e-01	1.8762	-6.481302	0.000222	2.223940	0.376746	-0.004447
1814	9.0650e-01	1.8654	-6.531762	0.000505	5.046633	0.854923	-0.010092
1815	9.0700e-01	1.8551	-6.569393	0.000376	3.763591	0.637569	-0.007526
1816	9.0750e-01	1.8452	-6.613439	0.000441	4.405112	0.746246	-0.008809
1817	9.0800e-01	1.8341	-6.667319	0.000539	5.388777	0.912884	-0.010776
1818	9.0850e-01	1.8250	-6.704950	0.000376	3.763591	0.637569	-0.007526
1819	9.0900e-01	1.8156	-6.753272	0.000483	4.832792	0.818697	-0.009664
1820	9.0950e-01	1.8050	-6.803304	0.000500	5.003865	0.847678	-0.010006
1821	9.1000e-01	1.7969	-6.831955	0.000287	2.865461	0.485422	-0.005730
1822	9.1050e-01	1.7853	-6.881560	0.000496	4.961097	0.840433	-0.009921
1823	9.1100e-01	1.7770	-6.920901	0.000393	3.934663	0.666550	-0.007868
1824	9.1150e-01	1.7636	-6.957677	0.000368	3.678054	0.623079	-0.007355
1825	9.1200e-01	1.7539	-7.019255	0.000616	6.158603	1.043296	-0.012316
1826	9.1250e-01	1.7471	-7.044485	0.000252	2.523316	0.427461	-0.005046
1827	9.1300e-01	1.7366	-7.090668	0.000462	4.618952	0.782472	-0.009237
1828	9.1350e-01	1.7253	-7.141128	0.000505	5.046633	0.854923	-0.010092
1829	9.1400e-01	1.7155	-7.179615	0.000385	3.849127	0.652060	-0.007697
1830	9.1450e-01	1.7070	-7.221094	0.000415	4.148503	0.702775	-0.008296
1831	9.1500e-01	1.6960	-7.273692	0.000526	5.260473	0.891148	-0.010520
1832	9.1550e-01	1.6870	-7.312606	0.000389	3.891895	0.659305	-0.007783
1833	9.1600e-01	1.6754	-7.356651	0.000441	4.405112	0.746246	-0.008809
1834	9.1650e-01	1.6649	-7.412243	0.000556	5.559850	0.941864	-0.011118
1835	9.1700e-01	1.6537	-7.437473	0.000252	2.523316	0.427461	-0.005046
1836	9.1750e-01	1.6447	-7.467834	0.000304	3.036533	0.514403	-0.006072
1837	9.1800e-01	1.6342	-7.522998	0.000552	5.517082	0.934619	-0.011033
1838	9.1850e-01	1.6248	-7.562339	0.000393	3.934663	0.666550	-0.007868
1839	9.1900e-01	1.6165	-7.630332	0.000680	6.800124	1.151972	-0.013598
1840	9.1950e-01	1.6059	-7.664969	0.000346	3.464214	0.586854	-0.006928
1841	9.2000e-01	1.5952	-7.705166	0.000402	4.020199	0.681040	-0.008039
1842	9.2050e-01	1.5857	-7.755626	0.000505	5.046633	0.854923	-0.010092
1843	9.2100e-01	1.5743	-7.795395	0.000398	3.977431	0.673795	-0.007954
1844	9.2150e-01	1.5621	-7.848420	0.000530	5.303241	0.898393	-0.010605
1845	9.2200e-01	1.5539	-7.879209	0.000308	3.079301	0.521648	-0.006158
1846	9.2250e-01	1.5437	-7.924538	0.000453	4.533416	0.767981	-0.009066
1847	9.2300e-01	1.5372	-7.973287	0.000488	4.875560	0.825942	-0.009750
1848	9.2350e-01	1.5259	-8.018188	0.000449	4.490648	0.760736	-0.008980
1849	9.2400e-01	1.5128	-8.056246	0.000381	3.806359	0.644815	-0.007612
1850	9.2450e-01	1.5073	-8.100719	0.000445	4.447880	0.753491	-0.008895
1851	9.2500e-01	1.4993	-8.158021	0.000573	5.730922	0.970844	-0.011460
1852	9.2550e-01	1.4851	-8.199501	0.000415	4.148503	0.702775	-0.008296
1853	9.2600e-01	1.4742	-8.257658	0.000582	5.816458	0.985335	-0.011631
1854	9.2650e-01	1.4648	-8.273908	0.000163	1.625187	0.275314	-0.003250
1855	9.2700e-01	1.4552	-8.331209	0.000573	5.730922	0.970844	-0.011460
1856	9.2750e-01	1.4470	-8.382524	0.000513	5.132169	0.869413	-0.010263
1857	9.2800e-01	1.4345	-8.419300	0.000368	3.678054	0.623079	-0.007355
1858	9.2850e-01	1.4262	-8.459069	0.000398	3.977431	0.673795	-0.007954
1859	9.2900e-01	1.4136	-8.516371	0.000573	5.730922	0.970844	-0.011460
1860	9.2950e-01	1.4048	-8.537752	0.000214	2.138404	0.362255	-0.004276
1861	9.3000e-01	1.3936	-8.592916	0.000552	5.517082	0.934619	-0.011033
1862	9.3050e-01	1.3840	-8.648507	0.000556	5.559850	0.941864	-0.011118
1863	9.3100e-01	1.3728	-8.683145	0.000346	3.464214	0.586854	-0.006928
1864	9.3150e-01	1.3668	-8.743440	0.000603	6.030299	1.021560	-0.012059
1865	9.3200e-01	1.3559	-8.786203	0.000428	4.276807	0.724511	-0.008553
1866	9.3250e-01	1.3448	-8.832814	0.000466	4.661720	0.789717	-0.009322
1867	9.3300e-01	1.3383	-8.861892	0.000291	2.908229	0.492667	-0.005816
1868	9.3350e-01	1.3255	-8.908076	0.000462	4.618952	0.782472	-0.009237
1869	9.3400e-01	1.3174	-8.958963	0.000509	5.089401	0.862168	-0.010177
1870	9.3450e-01	1.3052	-8.998732	0.000398	3.977431	0.673795	-0.007954
1871	9.3500e-01	1.2926	-9.056462	0.000577	5.773690	0.978090	-0.011546
1872	9.3550e-01	1.2869	-9.103073	0.000466	4.661720	0.789717	-0.009322
1873	9.3600e-01	1.2731	-9.145836	0.000428	4.276807	0.724511	-0.008553
1874	9.3650e-01	1.2647	-9.190736	0.000449	4.490648	0.760736	-0.008980
1875	9.3700e-01	1.2582	-9.236492	0.000458	4.576184	0.775227	-0.009151
1876	9.3750e-01	1.2460	-9.269847	0.000334	3.335910	0.565118	-0.006671
1877	9.3800e-01	1.2364	-9.313465	0.000436	4.362344	0.739001	-0.008724
1878	9.3850e-01	1.2260	-9.369484	0.000560	5.602618	0.949109	-0.011204
1879	9.3900e-01	1.2154	-9.416095	0.000466	4.661720	0.789717	-0.009322
1880	9.3950e-01	1.2083	-9.458002	0.000419	4.191271	0.710021	-0.008381
1881	9.4000e-01	1.1983	-9.525567	0.000676	6.757356	1.144727	-0.013513
1882	9.4050e-01	1.1841	-9.546948	0.000214	2.138404	0.362255	-0.004276
1883	9.4100e-01	1.1774	-9.594414	0.000475	4.747256	0.804207	-0.009493
1884	9.4150e-01	1.1646	-9.649151	0.000547	5.474314	0.927374	-0.010947
1885	9.4200e-01	1.1537	-9.688064	0.000389	3.891895	0.659305	-0.007783
1886	9.4250e-01	1.1450	-9.747504	0.000594	5.944762	1.007070	-0.011888
1887	9.4300e-01	1.1383	-9.791977	0.000445	4.447880	0.753491	-0.008895
1888	9.4350e-01	1.1269	-9.835168	0.000432	4.319576	0.731756	-0.008638
1889	9.4400e-01	1.1154	-9.876647	0.000415	4.148503	0.702775	-0.008296
1890	9.4450e-01	1.1044	-9.927535	0.000509	5.089401	0.862168	-0.010177
1891	9.4500e-01	1.0950	-9.984409	0.000569	5.688154	0.963599	-0.011375
1892	9.4550e-01	1.0851	-10.022467	0.000381	3.806359	0.644815	-0.007612
1893	9.4600e-01	1.0793	-10.065658	0.000432	4.319576	0.731756	-0.008638
1894	9.4650e-01	1.0667	-10.117400	0.000517	5.174937	0.876658	-0.010349
1895	9.4700e-01	1.0558	-10.147762	0.000304	3.036533	0.514403	-0.006072
1896	9.4750e-01	1.0454	-10.216609	0.000689	6.885660	1.166462	-0.013770
1897	9.4800e-01	1.0364	-10.266214	0.000496	4.961097	0.840433	-0.009921
1898	9.4850e-01	1.0281	-10.294865	0.000287	2.865461	0.485422	-0.005730
1899	9.4900e-01	1.0159	-10.361574	0.000667	6.671820	1.130237	-0.013342
1900	9.4950e-01	1.0059	-10.403054	0.000415	4.148503	0.702775	-0.008296
1901	9.5000e-01	0.9950	-10.445389	0.000423	4.234039	0.717266	-0.008467
1902	9.5050e-01	0.9850	-10.497987	0.000526	5.260473	0.891148	-0.010520
1903	9.5100e-01	0.9731	-10.547164	0.000492	4.918329	0.833187	-0.009835
1904	9.5150e-01	0.9628	-10.583939	0.000368	3.678054	0.623079	-0.007355
1905	9.5200e-01	0.9536	-10.627557	0.000436	4.362344	0.739001	-0.008724
1906	9.5250e-01	0.9471	-10.677589	0.000500	5.003865	0.847678	-0.010006
1907	9.5300e-01	0.9329	-10.716503	0.000389	3.891895	0.659305	-0.007783
1908	9.5350e-01	0.9262	-10.769956	0.000535	5.346009	0.905638	-0.010691
1909	9.5400e-01	0.9155	-10.839659	0.000697	6.971196	1.180953	-0.013941
1910	9.5450e-01	0.9071	-10.866172	0.000265	2.651621	0.449197	-0.005303
1911	9.5500e-01	0.8961	-10.914494	0.000483	4.832792	0.818697	-0.009664
1912	9.5550e-01	0.8847	-10.962815	0.000483	4.832792	0.818697	-0.009664
1913	9.5600e-01	0.8777	-11.006433	0.000436	4.362344	0.739001	-0.008724
1914	9.5650e-01	0.8693	-11.061169	0.000547	5.474314	0.927374	-0.010947
1915	9.5700e-01	0.8559	-11.111201	0.000500	5.003865	0.847678	-0.010006
1916	9.5750e-01	0.8483	-11.143701	0.000325	3.250374	0.550628	-0.006500
1917	9.5800e-01	0.8358	-11.212549	0.000689	6.885660	1.166462	-0.013770
1918	9.5850e-01	0.8252	-11.257877	0.000453	4.533416	0.767981	-0.009066
1919	9.5900e-01	0.8174	-11.298074	0.000402	4.020199	0.681040	-0.008039
1920	9.5950e-01	0.8040	-11.338270	0.000402	4.020199	0.681040	-0.008039
1921	9.6000e-01	0.7945	-11.407118	0.000689	6.885660	1.166462	-0.013770
1922	9.6050e-01	0.7854	-11.460571	0.000535	5.346009	0.905638	-0.010691
1923	9.6100e-01	0.7778	-11.504189	0.000436	4.362344	0.739001	-0.008724
1924	9.6150e-01	0.7670	-11.539254	0.000351	3.506982	0.594099	-0.007013
1925	9.6200e-01	0.7549	-11.576458	0.000372	3.720822	0.630324	-0.007441
1926	9.6250e-01	0.7452	-11.640174	0.000637	6.372443	1.079521	-0.012743
1927	9.6300e-01	0.7358	-11.673956	0.000338	3.378678	0.572364	-0.006756
1928	9.6350e-01	0.7256	-11.739810	0.000659	6.586283	1.115747	-0.013171
1929	9.6400e-01	0.7120	-11.777869	0.000381	3.806359	0.644815	-0.007612
1930	9.6450e-01	0.7061	-11.840302	0.000624	6.244139	1.057786	-0.012487
1931	9.6500e-01	0.6956	-11.886914	0.000466	4.661720	0.789717	-0.009322
1932	9.6550e-01	0.6854	-11.938229	0.000513	5.132169	0.869413	-0.010263
1933	9.6600e-01	0.6757	-11.975432	0.000372	3.720822	0.630324	-0.007441
1934	9.6650e-01	0.6670	-12.020760	0.000453	4.533416	0.767981	-0.009066
1935	9.6700e-01	0.6523	-12.073358	0.000526	5.260473	0.891148	-0.010520
1936	9.6750e-01	0.6441	-12.131515	0.000582	5.816458	0.985335	-0.011631
1937	9.6800e-01	0.6366	-12.180692	0.000492	4.918329	0.833187	-0.009835
1938	9.6850e-01	0.6236	-12.222599	0.000419	4.191271	0.710021	-0.008381
1939	9.6900e-01	0.6164	-12.271349	0.000488	4.875560	0.825942	-0.009750
1940	9.6950e-01	0.6069	-12.316249	0.000449	4.490648	0.760736	-0.008980
1941	9.7000e-01	0.5975	-12.385097	0.000689	6.885660	1.166462	-0.013770
1942	9.7050e-01	0.5840	-12.405623	0.000205	2.052868	0.347765	-0.004105
1943	9.7100e-01	0.5770	-12.473188	0.000676	6.757356	1.144727	-0.013513
1944	9.7150e-01	0.5660	-12.511246	0.000381	3.806359	0.644815	-0.007612
1945	9.7200e-01	0.5558	-12.566838	0.000556	5.559850	0.941864	-0.011118
1946	9.7250e-01	0.5452	-12.614304	0.000475	4.747256	0.804207	-0.009493
1947	9.7300e-01	0.5325	-12.666902	0.000526	5.260473	0.891148	-0.010520
1948	9.7350e-01	0.5247	-12.721210	0.000543	5.431545	0.920129	-0.010862
1949	9.7400e-01	0.5161	-12.755421	0.000342	3.421446	0.579609	-0.006842
1950	9.7450e-01	0.5059	-12.814433	0.000590	5.901994	0.999825	-0.011802
1951	9.7500e-01	0.4962	-12.870452	0.000560	5.602618	0.949109	-0.011204
1952	9.7550e-01	0.4847	-12.908938	0.000385	3.849127	0.652060	-0.007697
1953	9.7600e-01	0.4752	-12.978213	0.000693	6.928428	1.173707	-0.013855
1954	9.7650e-01	0.4670	-13.034660	0.000565	5.645386	0.956354	-0.011289
1955	9.7700e-01	0.4557	-13.056469	0.000218	2.181172	0.369501	-0.004362
1956	9.7750e-01	0.4437	-13.119757	0.000633	6.329675	1.072276	-0.012658
1957	9.7800e-01	0.4355	-13.163375	0.000436	4.362344	0.739001	-0.008724
1958	9.7850e-01	0.4243	-13.208276	0.000449	4.490648	0.760736	-0.008980
1959	9.7900e-01	0.4166	-13.266005	0.000577	5.773690	0.978090	-0.011546
1960	9.7950e-01	0.4048	-13.317320	0.000513	5.132169	0.869413	-0.010263
1961	9.8000e-01	0.3957	-13.372911	0.000556	5.559850	0.941864	-0.011118
1962	9.8050e-01	0.3847	-13.432351	0.000594	5.944762	1.007070	-0.011888
1963	9.8100e-01	0.3734	-13.458436	0.000261	2.608853	0.441952	-0.005217
1964	9.8150e-01	0.3638	-13.513600	0.000552	5.517082	0.934619	-0.011033
1965	9.8200e-01	0.3537	-13.565770	0.000522	5.217705	0.883903	-0.010434
1966	9.8250e-01	0.3445	-13.607678	0.000419	4.191271	0.710021	-0.008381
1967	9.8300e-01	0.3363	-13.664552	0.000569	5.688154	0.963599	-0.011375
1968	9.8350e-01	0.3260	-13.718433	0.000539	5.388777	0.912884	-0.010776
1969	9.8400e-01	0.3180	-13.769320	0.000509	5.089401	0.862168	-0.010177
1970	9.8450e-01	0.3057	-13.814221	0.000449	4.490648	0.760736	-0.008980
1971	9.8500e-01	0.2960	-13.869812	0.000556	5.559850	0.941864	-0.011118
1972	9.8550e-01	0.2853	-13.925403	0.000556	5.559850	0.941864	-0.011118
1973	9.8600e-01	0.2734	-13.967738	0.000423	4.234039	0.717266	-0.008467
1974	9.8650e-01	0.2657	-14.024612	0.000569	5.688154	0.963599	-0.011375
1975	9.8700e-01	0.2525	-14.076783	0.000522	5.217705	0.883903	-0.010434
1976	9.8750e-01	0.2467	-14.111848	0.000351	3.506982	0.594099	-0.007013
1977	9.8800e-01	0.2335	-14.178985	0.000671	6.714588	1.137482	-0.013427
1978	9.8850e-01	0.2275	-14.233293	0.000543	5.431545	0.920129	-0.010862
1979	9.8900e-01	0.2140	-14.285464	0.000522	5.217705	0.883903	-0.010434
1980	9.8950e-01	0.2052	-14.328654	0.000432	4.319576	0.731756	-0.008638
1981	9.9000e-01	0.1958	-14.387239	0.000586	5.859226	0.992580	-0.011717
1982	9.9050e-01	0.1844	-14.444113	0.000569	5.688154	0.963599	-0.011375
1983	9.9100e-01	0.1745	-14.488158	0.000441	4.405112	0.746246	-0.008809
1984	9.9150e-01	0.1642	-14.545460	0.000573	5.730922	0.970844	-0.011460
1985	9.9200e-01	0.1573	-14.596775	0.000513	5.132169	0.869413	-0.010263
1986	9.9250e-01	0.1466	-14.636116	0.000393	3.934663	0.666550	-0.007868
1987	9.9300e-01	0.1336	-14.690852	0.000547	5.474314	0.927374	-0.010947
1988	9.9350e-01	0.1264	-14.739174	0.000483	4.832792	0.818697	-0.009664
1989	9.9400e-01	0.1139	-14.805456	0.000663	6.629052	1.122992	-0.013256
1990	9.9450e-01	0.1070	-14.848646	0.000432	4.319576	0.731756	-0.008638
1991	9.9500e-01	0.0956	-14.882001	0.000334	3.335910	0.565118	-0.006671
1992	9.9550e-01	0.0846	-14.956408	0.000744	7.441645	1.260649	-0.014881
1993	9.9600e-01	0.0807	-14.982493	0.000261	2.608853	0.441952	-0.005217
1994	9.9650e-01	0.0644	-15.054762	0.000723	7.227805	1.224423	-0.014454
1995	9.9700e-01	0.0520	-15.121899	0.000671	6.714588	1.137482	-0.013427
1996	9.9750e-01	0.0456	-15.160385	0.000385	3.849127	0.652060	-0.007697
1997	9.9800e-01	0.0362	-15.216832	0.000565	5.645386	0.956354	-0.011289
1998	9.9850e-01	0.0247	-15.252324	0.000355	3.549750	0.601344	-0.007099
1999	9.9900e-01	0.0157	-15.317324	0.000650	6.500747	1.101256	-0.013000
2000	9.9950e-01	0.0021	-15.361797	0.000445	4.447880	0.753491	-0.008895
2001	1.0000e+00	-0.0036	-15.413539	0.000445	4.447880	0.753491	-0.010349

PMax (uC/cm2):	3.55e+01
Pr (uC/cm2):	2.32e+00
-Pr (uC/cm2):	0.00e+00
PLoss (uC/cm2):	0.00e+00
C (Max-Eff) (nF):	3.55e-01
K (Eff):	6.01e+02
Vert. (+/-Pr) Shift (uC/cm2):	1.16e+00
Offset (uC/cm2):	1.77e+01

A (Loop Area - uC/cm2·Volts):	-2.22e-02



Hysteresis Version: 5.48.1 - Radiant Technologies, Inc., 1999 - 9/12/24

