»»»»»»»»»»»»»»»»»»»»»»»»»»»»»»»»»»»» Hysteresis ««««««««««««««««««««««««««««««««««««
»»»  Executed Version:	5.48.1
»»»  Vision Version:	5.48.4 (R)
»»»  Vision Compiled:	9/18/24
»»»  Driver Version:	5.47.0
»»»  Windows Version:	Windows 8 or 8.1
»»»  Processor Information:	x86 (AMD or Intel) - 32 Processors
»»»  Tester Name:	PMF21124-494 (100V)
»»»  Tester S/N:	PMF21124-494
»»»  Internal Amp Type:	100V RevK 270k
»»»  Internal Amp S/N:	iAB2-596/K     
»»»  Execution Count:	1
»»»»»»»»»»»»»»»»»»»»»»»»»»»»»»»»»»»»»»»»»»««««««««««««««««««««««««««««««««««««««««««

Stored:	6/25/2025 - 15:37:26
Configured:	06/25/25 10:44:40 AM
Executed:	06/25/25 03:36:59 PM

»»»»»»»»»»»»»»»»»»»»»»»»»»»»»»»»»»» Sample Info ««««««««««««««««««««««««««««««««««««
Sample Name:	
Lot Name:	
Wafer Name:	
Die Row/Column:	0/0
Capacitor Number:	0
Sample Area (cm2):	1.00e-04
Sample Thickness (microns):	1.50e-01

Amplifier:	Internal

»»»»»»»»»»»»»»»»»»»»»»»»»»»»»»»»»»» Tester Info «««««««««««««««««««««««««««««««««««
Tester Name:	PMF21124-494 (100V)
Tester Serial Number:	PMF21124-494
Return Signal Amp. Level:	1.79 [Index: 2]

»»»»»»»»»»»»»»»»»»»»»»»»»»»»»»»» Hysteresis Info ««««««««««««««««««««««««««««««««««
Task Name:	Hyst-116
Volts:	10.00
Field:	666.67 (kV/cm)
DCBias:	0.00
DCField:	0.00 (kV/cm)
Hysteresis Period (ms):	1.00e+00
Preset:	Enabled
Preset Delay (ms):	1.00e+03
Profile:	Standard Monopolar

»»»»»»»»»»»»»»»»»»»»»»»»»»»»»»»»»»»»»» Data «««««««««««««««««««««««««««««««««««««««
Points:	2001

Valid Data

Point	Time (ms)	Drive Voltage	Measured Polarization (uC/cm2)	Capacitance (uF)	Normalized Capacitance (uF/cm2)	Dielectric Constant	Instantaneous Current (mA)
   1	0.0000e+00	-0.0056	-19.773393	0.000436	4.361778	0.738905	0.008724
   2	5.0000e-04	0.0062	-19.729775	0.000436	4.361778	0.738905	0.008724
   3	1.0000e-03	0.0153	-19.657506	0.000723	7.226867	1.224264	0.014454
   4	1.5000e-03	0.0246	-19.616882	0.000406	4.062440	0.688196	0.008125
   5	2.0000e-03	0.0365	-19.565994	0.000509	5.088741	0.862056	0.010177
   6	2.5000e-03	0.0443	-19.512969	0.000530	5.302553	0.898277	0.010605
   7	3.0000e-03	0.0578	-19.473627	0.000393	3.934153	0.666463	0.007868
   8	3.5000e-03	0.0634	-19.404352	0.000693	6.927529	1.173555	0.013855
   9	4.0000e-03	0.0765	-19.355603	0.000487	4.874928	0.825835	0.009750
  10	4.5000e-03	0.0863	-19.305998	0.000496	4.960453	0.840324	0.009921
  11	5.0000e-03	0.0957	-19.250407	0.000556	5.559129	0.941742	0.011118
  12	5.5000e-03	0.1067	-19.190112	0.000603	6.029516	1.021428	0.012059
  13	6.0000e-03	0.1173	-19.134948	0.000552	5.516366	0.934498	0.011033
  14	6.5000e-03	0.1234	-19.071660	0.000633	6.328854	1.072137	0.012658
  15	7.0000e-03	0.1357	-19.022483	0.000492	4.917691	0.833079	0.009835
  16	7.5000e-03	0.1467	-18.964326	0.000582	5.815704	0.985207	0.011631
  17	8.0000e-03	0.1566	-18.934392	0.000299	2.993377	0.507092	0.005987
  18	8.5000e-03	0.1666	-18.873669	0.000607	6.072279	1.028672	0.012145
  19	9.0000e-03	0.1760	-18.795414	0.000783	7.825543	1.325683	0.015651
  20	9.5000e-03	0.1895	-18.769329	0.000261	2.608514	0.441894	0.005217
  21	1.0000e-02	0.1999	-18.707751	0.000616	6.157804	1.043160	0.012316
  22	1.0500e-02	0.2050	-18.663705	0.000440	4.404540	0.746149	0.008809
  23	1.1000e-02	0.2139	-18.608541	0.000552	5.516366	0.934498	0.011033
  24	1.1500e-02	0.2251	-18.546108	0.000624	6.243329	1.057649	0.012487
  25	1.2000e-02	0.2370	-18.476833	0.000693	6.927529	1.173555	0.013855
  26	1.2500e-02	0.2460	-18.422097	0.000547	5.473604	0.927254	0.010947
  27	1.3000e-02	0.2553	-18.380190	0.000419	4.190728	0.709928	0.008381
  28	1.3500e-02	0.2665	-18.326309	0.000539	5.388078	0.912765	0.010776
  29	1.4000e-02	0.2761	-18.274994	0.000513	5.131503	0.869300	0.010263
  30	1.4500e-02	0.2866	-18.221113	0.000539	5.388078	0.912765	0.010776
  31	1.5000e-02	0.2955	-18.168943	0.000522	5.217028	0.883789	0.010434
  32	1.5500e-02	0.3059	-18.120193	0.000487	4.874928	0.825835	0.009750
  33	1.6000e-02	0.3197	-18.065030	0.000552	5.516366	0.934498	0.011033
  34	1.6500e-02	0.3242	-18.026543	0.000385	3.848627	0.651975	0.007697
  35	1.7000e-02	0.3393	-17.954702	0.000718	7.184105	1.217020	0.014368
  36	1.7500e-02	0.3443	-17.907236	0.000475	4.746641	0.804103	0.009493
  37	1.8000e-02	0.3547	-17.852928	0.000543	5.430841	0.920009	0.010862
  38	1.8500e-02	0.3693	-17.782797	0.000701	7.013055	1.188044	0.014026
  39	1.9000e-02	0.3764	-17.749015	0.000338	3.378240	0.572289	0.006756
  40	1.9500e-02	0.3860	-17.695989	0.000530	5.302553	0.898277	0.010605
  41	2.0000e-02	0.3967	-17.627569	0.000684	6.842004	1.159067	0.013684
  42	2.0500e-02	0.4049	-17.588228	0.000393	3.934153	0.666463	0.007868
  43	2.1000e-02	0.4109	-17.527932	0.000603	6.029516	1.021428	0.012059
  44	2.1500e-02	0.4250	-17.464644	0.000633	6.328854	1.072137	0.012658
  45	2.2000e-02	0.4353	-17.418033	0.000466	4.661115	0.789614	0.009322
  46	2.2500e-02	0.4456	-17.371849	0.000462	4.618353	0.782370	0.009237
  47	2.3000e-02	0.4530	-17.308988	0.000629	6.286092	1.064893	0.012572
  48	2.3500e-02	0.4688	-17.252114	0.000569	5.687416	0.963474	0.011375
  49	2.4000e-02	0.4771	-17.237575	0.000145	1.453926	0.246302	0.002908
  50	2.4500e-02	0.4862	-17.163168	0.000744	7.440680	1.260485	0.014881
  51	2.5000e-02	0.4930	-17.096458	0.000667	6.670954	1.130090	0.013342
  52	2.5500e-02	0.5076	-17.058827	0.000376	3.763102	0.637487	0.007526
  53	2.6000e-02	0.5159	-17.012216	0.000466	4.661115	0.789614	0.009322
  54	2.6500e-02	0.5286	-16.966033	0.000462	4.618353	0.782370	0.009237
  55	2.7000e-02	0.5380	-16.902317	0.000637	6.371617	1.079381	0.012743
  56	2.7500e-02	0.5441	-16.843304	0.000590	5.901229	0.999695	0.011802
  57	2.8000e-02	0.5542	-16.794555	0.000487	4.874928	0.825835	0.009750
  58	2.8500e-02	0.5657	-16.745806	0.000487	4.874928	0.825835	0.009750
  59	2.9000e-02	0.5740	-16.693635	0.000522	5.217028	0.883789	0.010434
  60	2.9500e-02	0.5860	-16.635051	0.000586	5.858466	0.992451	0.011717
  61	3.0000e-02	0.5961	-16.590150	0.000449	4.490065	0.760638	0.008980
  62	3.0500e-02	0.6049	-16.541401	0.000487	4.874928	0.825835	0.009750
  63	3.1000e-02	0.6187	-16.475119	0.000663	6.628192	1.122846	0.013256
  64	3.1500e-02	0.6272	-16.437060	0.000381	3.805865	0.644731	0.007612
  65	3.2000e-02	0.6377	-16.378903	0.000582	5.815704	0.985207	0.011631
  66	3.2500e-02	0.6445	-16.329299	0.000496	4.960453	0.840324	0.009921
  67	3.3000e-02	0.6589	-16.275846	0.000535	5.345316	0.905521	0.010691
  68	3.3500e-02	0.6657	-16.232655	0.000432	4.319015	0.731661	0.008638
  69	3.4000e-02	0.6760	-16.161670	0.000710	7.098580	1.202532	0.014197
  70	3.4500e-02	0.6863	-16.127460	0.000342	3.421002	0.579533	0.006842
  71	3.5000e-02	0.6949	-16.074862	0.000526	5.259791	0.891033	0.010520
  72	3.5500e-02	0.7048	-16.015849	0.000590	5.901229	0.999695	0.011802
  73	3.6000e-02	0.7156	-15.971376	0.000445	4.447303	0.753393	0.008895
  74	3.6500e-02	0.7294	-15.919634	0.000517	5.174266	0.876544	0.010349
  75	3.7000e-02	0.7359	-15.869602	0.000500	5.003216	0.847568	0.010006
  76	3.7500e-02	0.7436	-15.825556	0.000440	4.404540	0.746149	0.008809
  77	3.8000e-02	0.7557	-15.754570	0.000710	7.098580	1.202532	0.014197
  78	3.8500e-02	0.7672	-15.705393	0.000492	4.917691	0.833079	0.009835
  79	3.9000e-02	0.7755	-15.653651	0.000517	5.174266	0.876544	0.010349
  80	3.9500e-02	0.7856	-15.625428	0.000282	2.822327	0.478115	0.005645
  81	4.0000e-02	0.7990	-15.545889	0.000795	7.953830	1.347415	0.015908
  82	4.0500e-02	0.8058	-15.497140	0.000487	4.874928	0.825835	0.009750
  83	4.1000e-02	0.8150	-15.455233	0.000419	4.190728	0.709928	0.008381
  84	4.1500e-02	0.8301	-15.405201	0.000500	5.003216	0.847568	0.010006
  85	4.2000e-02	0.8350	-15.349609	0.000556	5.559129	0.941742	0.011118
  86	4.2500e-02	0.8493	-15.303426	0.000462	4.618353	0.782370	0.009237
  87	4.3000e-02	0.8553	-15.257242	0.000462	4.618353	0.782370	0.009237
  88	4.3500e-02	0.8655	-15.182835	0.000744	7.440680	1.260485	0.014881
  89	4.4000e-02	0.8775	-15.149481	0.000334	3.335477	0.565045	0.006671
  90	4.4500e-02	0.8882	-15.097310	0.000522	5.217028	0.883789	0.010434
  91	4.5000e-02	0.8967	-15.036588	0.000607	6.072279	1.028672	0.012145
  92	4.5500e-02	0.9029	-14.991687	0.000449	4.490065	0.760638	0.008980
  93	4.6000e-02	0.9168	-14.948924	0.000428	4.276253	0.724417	0.008553
  94	4.6500e-02	0.9244	-14.892478	0.000564	5.644654	0.956230	0.011289
  95	4.7000e-02	0.9372	-14.851853	0.000406	4.062440	0.688196	0.008125
  96	4.7500e-02	0.9480	-14.801394	0.000505	5.045978	0.854812	0.010092
  97	4.8000e-02	0.9547	-14.743237	0.000582	5.815704	0.985207	0.011631
  98	4.8500e-02	0.9632	-14.688501	0.000547	5.473604	0.927254	0.010947
  99	4.9000e-02	0.9752	-14.644455	0.000440	4.404540	0.746149	0.008809
 100	4.9500e-02	0.9829	-14.576890	0.000676	6.756479	1.144579	0.013513
 101	5.0000e-02	0.9943	-14.549950	0.000269	2.694039	0.456383	0.005388
 102	5.0500e-02	1.0053	-14.495642	0.000543	5.430841	0.920009	0.010862
 103	5.1000e-02	1.0144	-14.441333	0.000543	5.430841	0.920009	0.010862
 104	5.1500e-02	1.0245	-14.391729	0.000496	4.960453	0.840324	0.009921
 105	5.2000e-02	1.0349	-14.329723	0.000620	6.200566	1.050404	0.012401
 106	5.2500e-02	1.0458	-14.282684	0.000470	4.703878	0.796859	0.009408
 107	5.3000e-02	1.0542	-14.235218	0.000475	4.746641	0.804103	0.009493
 108	5.3500e-02	1.0665	-14.185186	0.000500	5.003216	0.847568	0.010006
 109	5.4000e-02	1.0757	-14.141995	0.000432	4.319015	0.731661	0.008638
 110	5.4500e-02	1.0846	-14.091108	0.000509	5.088741	0.862056	0.010177
 111	5.5000e-02	1.0963	-14.047063	0.000440	4.404540	0.746149	0.008809
 112	5.5500e-02	1.1041	-14.000451	0.000466	4.661115	0.789614	0.009322
 113	5.6000e-02	1.1177	-13.946998	0.000535	5.345316	0.905521	0.010691
 114	5.6500e-02	1.1256	-13.906374	0.000406	4.062440	0.688196	0.008125
 115	5.7000e-02	1.1362	-13.844368	0.000620	6.200566	1.050404	0.012401
 116	5.7500e-02	1.1460	-13.776376	0.000680	6.799242	1.151823	0.013598
 117	5.8000e-02	1.1539	-13.736179	0.000402	4.019678	0.680952	0.008039
 118	5.8500e-02	1.1653	-13.698548	0.000376	3.763102	0.637487	0.007526
 119	5.9000e-02	1.1740	-13.650226	0.000483	4.832166	0.818591	0.009664
 120	5.9500e-02	1.1875	-13.598056	0.000522	5.217028	0.883789	0.010434
 121	6.0000e-02	1.1972	-13.541610	0.000564	5.644654	0.956230	0.011289
 122	6.0500e-02	1.2054	-13.496709	0.000449	4.490065	0.760638	0.008980
 123	6.1000e-02	1.2171	-13.433420	0.000633	6.328854	1.072137	0.012658
 124	6.1500e-02	1.2244	-13.402631	0.000308	3.078902	0.521580	0.006158
 125	6.2000e-02	1.2350	-13.333356	0.000693	6.927529	1.173555	0.013855
 126	6.2500e-02	1.2449	-13.296580	0.000368	3.677577	0.622998	0.007355
 127	6.3000e-02	1.2552	-13.258094	0.000385	3.848627	0.651975	0.007697
 128	6.3500e-02	1.2665	-13.201647	0.000564	5.644654	0.956230	0.011289
 129	6.4000e-02	1.2750	-13.159740	0.000419	4.190728	0.709928	0.008381
 130	6.4500e-02	1.2833	-13.102866	0.000569	5.687416	0.963474	0.011375
 131	6.5000e-02	1.2950	-13.052834	0.000500	5.003216	0.847568	0.010006
 132	6.5500e-02	1.3056	-13.015203	0.000376	3.763102	0.637487	0.007526
 133	6.6000e-02	1.3159	-12.951914	0.000633	6.328854	1.072137	0.012658
 134	6.6500e-02	1.3251	-12.910007	0.000419	4.190728	0.709928	0.008381
 135	6.7000e-02	1.3379	-12.868955	0.000411	4.105203	0.695440	0.008210
 136	6.7500e-02	1.3478	-12.824482	0.000445	4.447303	0.753393	0.008895
 137	6.8000e-02	1.3576	-12.771029	0.000535	5.345316	0.905521	0.010691
 138	6.8500e-02	1.3652	-12.712017	0.000590	5.901229	0.999695	0.011802
 139	6.9000e-02	1.3750	-12.672247	0.000398	3.976915	0.673708	0.007954
 140	6.9500e-02	1.3837	-12.620077	0.000522	5.217028	0.883789	0.010434
 141	7.0000e-02	1.3973	-12.579880	0.000402	4.019678	0.680952	0.008039
 142	7.0500e-02	1.4066	-12.520868	0.000590	5.901229	0.999695	0.011802
 143	7.1000e-02	1.4140	-12.476395	0.000445	4.447303	0.753393	0.008895
 144	7.1500e-02	1.4252	-12.434915	0.000415	4.147965	0.702684	0.008296
 145	7.2000e-02	1.4369	-12.380607	0.000543	5.430841	0.920009	0.010862
 146	7.2500e-02	1.4444	-12.344686	0.000359	3.592052	0.608510	0.007184
 147	7.3000e-02	1.4551	-12.274556	0.000701	7.013055	1.188044	0.014026
 148	7.3500e-02	1.4639	-12.227945	0.000466	4.661115	0.789614	0.009322
 149	7.4000e-02	1.4759	-12.189031	0.000389	3.891390	0.659219	0.007783
 150	7.4500e-02	1.4864	-12.161235	0.000278	2.779564	0.470871	0.005559
 151	7.5000e-02	1.4951	-12.100512	0.000607	6.072279	1.028672	0.012145
 152	7.5500e-02	1.5038	-12.055612	0.000449	4.490065	0.760638	0.008980
 153	7.6000e-02	1.5148	-12.002586	0.000530	5.302553	0.898277	0.010605
 154	7.6500e-02	1.5225	-11.934594	0.000680	6.799242	1.151823	0.013598
 155	7.7000e-02	1.5337	-11.900384	0.000342	3.421002	0.579533	0.006842
 156	7.7500e-02	1.5460	-11.849069	0.000513	5.131503	0.869300	0.010263
 157	7.8000e-02	1.5533	-11.781932	0.000671	6.713717	1.137334	0.013427
 158	7.8500e-02	1.5637	-11.763971	0.000180	1.796026	0.304255	0.003592
 159	7.9000e-02	1.5767	-11.700683	0.000633	6.328854	1.072137	0.012658
 160	7.9500e-02	1.5875	-11.662624	0.000381	3.805865	0.644731	0.007612
 161	8.0000e-02	1.5959	-11.609171	0.000535	5.345316	0.905521	0.010691
 162	8.0500e-02	1.6058	-11.565553	0.000436	4.361778	0.738905	0.008724
 163	8.1000e-02	1.6167	-11.526212	0.000393	3.934153	0.666463	0.007868
 164	8.1500e-02	1.6258	-11.493285	0.000329	3.292715	0.557801	0.006585
 165	8.2000e-02	1.6375	-11.424864	0.000684	6.842004	1.159067	0.013684
 166	8.2500e-02	1.6464	-11.385951	0.000389	3.891390	0.659219	0.007783
 167	8.3000e-02	1.6556	-11.335918	0.000500	5.003216	0.847568	0.010006
 168	8.3500e-02	1.6695	-11.286314	0.000496	4.960453	0.840324	0.009921
 169	8.4000e-02	1.6752	-11.233716	0.000526	5.259791	0.891033	0.010520
 170	8.4500e-02	1.6833	-11.199078	0.000346	3.463765	0.586778	0.006928
 171	8.5000e-02	1.6971	-11.137928	0.000612	6.115041	1.035916	0.012230
 172	8.5500e-02	1.7067	-11.096876	0.000411	4.105203	0.695440	0.008210
 173	8.6000e-02	1.7172	-11.051548	0.000453	4.532828	0.767882	0.009066
 174	8.6500e-02	1.7290	-10.996812	0.000547	5.473604	0.927254	0.010947
 175	8.7000e-02	1.7388	-10.956187	0.000406	4.062440	0.688196	0.008125
 176	8.7500e-02	1.7462	-10.908293	0.000479	4.789403	0.811347	0.009579
 177	8.8000e-02	1.7550	-10.849281	0.000590	5.901229	0.999695	0.011802
 178	8.8500e-02	1.7665	-10.819347	0.000299	2.993377	0.507092	0.005987
 179	8.9000e-02	1.7770	-10.766749	0.000526	5.259791	0.891033	0.010520
 180	8.9500e-02	1.7859	-10.728691	0.000381	3.805865	0.644731	0.007612
 181	9.0000e-02	1.7953	-10.671389	0.000573	5.730179	0.970719	0.011460
 182	9.0500e-02	1.8060	-10.627343	0.000440	4.404540	0.746149	0.008809
 183	9.1000e-02	1.8170	-10.589712	0.000376	3.763102	0.637487	0.007526
 184	9.1500e-02	1.8271	-10.532838	0.000569	5.687416	0.963474	0.011375
 185	9.2000e-02	1.8362	-10.493497	0.000393	3.934153	0.666463	0.007868
 186	9.2500e-02	1.8478	-10.447313	0.000462	4.618353	0.782370	0.009237
 187	9.3000e-02	1.8575	-10.395998	0.000513	5.131503	0.869300	0.010263
 188	9.3500e-02	1.8646	-10.369485	0.000265	2.651277	0.449138	0.005303
 189	9.4000e-02	1.8762	-10.299782	0.000697	6.970292	1.180799	0.013941
 190	9.4500e-02	1.8872	-10.266000	0.000338	3.378240	0.572289	0.006756
 191	9.5000e-02	1.9012	-10.209553	0.000564	5.644654	0.956230	0.011289
 192	9.5500e-02	1.9064	-10.159094	0.000505	5.045978	0.854812	0.010092
 193	9.6000e-02	1.9149	-10.128732	0.000304	3.036139	0.514336	0.006072
 194	9.6500e-02	1.9260	-10.064161	0.000646	6.457142	1.093869	0.012914
 195	9.7000e-02	1.9349	-10.033372	0.000308	3.078902	0.521580	0.006158
 196	9.7500e-02	1.9458	-9.994458	0.000389	3.891390	0.659219	0.007783
 197	9.8000e-02	1.9528	-9.952978	0.000415	4.147965	0.702684	0.008296
 198	9.8500e-02	1.9647	-9.890117	0.000629	6.286092	1.064893	0.012572
 199	9.9000e-02	1.9769	-9.847355	0.000428	4.276253	0.724417	0.008553
 200	9.9500e-02	1.9841	-9.801171	0.000462	4.618353	0.782370	0.009237
 201	1.0000e-01	1.9974	-9.746008	0.000552	5.516366	0.934498	0.011033
 202	1.0050e-01	2.0033	-9.722488	0.000235	2.351939	0.398429	0.004704
 203	1.0100e-01	2.0160	-9.671173	0.000513	5.131503	0.869300	0.010263
 204	1.0150e-01	2.0261	-9.622852	0.000483	4.832166	0.818591	0.009664
 205	1.0200e-01	2.0375	-9.582227	0.000406	4.062440	0.688196	0.008125
 206	1.0250e-01	2.0441	-9.530057	0.000522	5.217028	0.883789	0.010434
 207	1.0300e-01	2.0557	-9.476176	0.000539	5.388078	0.912765	0.010776
 208	1.0350e-01	2.0679	-9.421440	0.000547	5.473604	0.927254	0.010947
 209	1.0400e-01	2.0757	-9.399631	0.000218	2.180889	0.369453	0.004362
 210	1.0450e-01	2.0874	-9.341474	0.000582	5.815704	0.985207	0.011631
 211	1.0500e-01	2.0966	-9.290587	0.000509	5.088741	0.862056	0.010177
 212	1.0550e-01	2.1088	-9.257660	0.000329	3.292715	0.557801	0.006585
 213	1.0600e-01	2.1191	-9.193088	0.000646	6.457142	1.093869	0.012914
 214	1.0650e-01	2.1249	-9.149043	0.000440	4.404540	0.746149	0.008809
 215	1.0700e-01	2.1371	-9.132365	0.000167	1.667739	0.282523	0.003335
 216	1.0750e-01	2.1452	-9.054965	0.000774	7.740017	1.311194	0.015480
 217	1.0800e-01	2.1589	-9.035294	0.000197	1.967076	0.333232	0.003934
 218	1.0850e-01	2.1661	-8.987400	0.000479	4.789403	0.811347	0.009579
 219	1.0900e-01	2.1765	-8.917270	0.000701	7.013055	1.188044	0.014026
 220	1.0950e-01	2.1872	-8.901448	0.000158	1.582214	0.268034	0.003164
 221	1.1000e-01	2.1954	-8.854409	0.000470	4.703878	0.796859	0.009408
 222	1.1050e-01	2.2061	-8.793686	0.000607	6.072279	1.028672	0.012145
 223	1.1100e-01	2.2144	-8.760331	0.000334	3.335477	0.565045	0.006671
 224	1.1150e-01	2.2269	-8.719707	0.000406	4.062440	0.688196	0.008125
 225	1.1200e-01	2.2337	-8.667964	0.000517	5.174266	0.876544	0.010349
 226	1.1250e-01	2.2449	-8.631189	0.000368	3.677577	0.622998	0.007355
 227	1.1300e-01	2.2556	-8.581156	0.000500	5.003216	0.847568	0.010006
 228	1.1350e-01	2.2678	-8.533262	0.000479	4.789403	0.811347	0.009579
 229	1.1400e-01	2.2760	-8.491783	0.000415	4.147965	0.702684	0.008296
 230	1.1450e-01	2.2852	-8.464415	0.000274	2.736802	0.463627	0.005474
 231	1.1500e-01	2.2958	-8.383166	0.000812	8.124880	1.376392	0.016250
 232	1.1550e-01	2.3080	-8.359219	0.000239	2.394702	0.405673	0.004789
 233	1.1600e-01	2.3181	-8.304483	0.000547	5.473604	0.927254	0.010947
 234	1.1650e-01	2.3270	-8.263858	0.000406	4.062440	0.688196	0.008125
 235	1.1700e-01	2.3373	-8.229221	0.000346	3.463765	0.586778	0.006928
 236	1.1750e-01	2.3499	-8.184748	0.000445	4.447303	0.753393	0.008895
 237	1.1800e-01	2.3557	-8.148827	0.000359	3.592052	0.608510	0.007184
 238	1.1850e-01	2.3676	-8.090670	0.000582	5.815704	0.985207	0.011631
 239	1.1900e-01	2.3721	-8.039355	0.000513	5.131503	0.869300	0.010263
 240	1.1950e-01	2.3865	-8.002579	0.000368	3.677577	0.622998	0.007355
 241	1.2000e-01	2.3969	-7.958106	0.000445	4.447303	0.753393	0.008895
 242	1.2050e-01	2.4060	-7.912778	0.000453	4.532828	0.767882	0.009066
 243	1.2100e-01	2.4162	-7.851200	0.000616	6.157804	1.043160	0.012316
 244	1.2150e-01	2.4257	-7.832812	0.000184	1.838789	0.311499	0.003678
 245	1.2200e-01	2.4377	-7.777221	0.000556	5.559129	0.941742	0.011118
 246	1.2250e-01	2.4476	-7.745149	0.000321	3.207190	0.543313	0.006414
 247	1.2300e-01	2.4548	-7.682716	0.000624	6.243329	1.057649	0.012487
 248	1.2350e-01	2.4634	-7.632684	0.000500	5.003216	0.847568	0.010006
 249	1.2400e-01	2.4770	-7.605316	0.000274	2.736802	0.463627	0.005474
 250	1.2450e-01	2.4852	-7.567257	0.000381	3.805865	0.644731	0.007612
 251	1.2500e-01	2.4945	-7.513376	0.000539	5.388078	0.912765	0.010776
 252	1.2550e-01	2.5058	-7.460351	0.000530	5.302553	0.898277	0.010605
 253	1.2600e-01	2.5159	-7.413739	0.000466	4.661115	0.789614	0.009322
 254	1.2650e-01	2.5293	-7.394496	0.000192	1.924314	0.325988	0.003849
 255	1.2700e-01	2.5372	-7.349168	0.000453	4.532828	0.767882	0.009066
 256	1.2750e-01	2.5452	-7.302984	0.000462	4.618353	0.782370	0.009237
 257	1.2800e-01	2.5562	-7.255946	0.000470	4.703878	0.796859	0.009408
 258	1.2850e-01	2.5656	-7.215321	0.000406	4.062440	0.688196	0.008125
 259	1.2900e-01	2.5754	-7.172986	0.000423	4.233490	0.717173	0.008467
 260	1.2950e-01	2.5842	-7.135355	0.000376	3.763102	0.637487	0.007526
 261	1.3000e-01	2.5989	-7.079764	0.000556	5.559129	0.941742	0.011118
 262	1.3050e-01	2.6079	-7.024173	0.000556	5.559129	0.941742	0.011118
 263	1.3100e-01	2.6151	-6.987825	0.000363	3.634815	0.615754	0.007270
 264	1.3150e-01	2.6257	-6.942924	0.000449	4.490065	0.760638	0.008980
 265	1.3200e-01	2.6369	-6.904010	0.000389	3.891390	0.659219	0.007783
 266	1.3250e-01	2.6448	-6.862530	0.000415	4.147965	0.702684	0.008296
 267	1.3300e-01	2.6587	-6.818485	0.000440	4.404540	0.746149	0.008809
 268	1.3350e-01	2.6649	-6.776150	0.000423	4.233490	0.717173	0.008467
 269	1.3400e-01	2.6782	-6.728684	0.000475	4.746641	0.804103	0.009493
 270	1.3450e-01	2.6872	-6.696612	0.000321	3.207190	0.543313	0.006414
 271	1.3500e-01	2.6953	-6.659836	0.000368	3.677577	0.622998	0.007355
 272	1.3550e-01	2.7055	-6.611514	0.000483	4.832166	0.818591	0.009664
 273	1.3600e-01	2.7158	-6.561482	0.000500	5.003216	0.847568	0.010006
 274	1.3650e-01	2.7267	-6.517009	0.000445	4.447303	0.753393	0.008895
 275	1.3700e-01	2.7374	-6.475530	0.000415	4.147965	0.702684	0.008296
 276	1.3750e-01	2.7466	-6.431912	0.000436	4.361778	0.738905	0.008724
 277	1.3800e-01	2.7571	-6.405399	0.000265	2.651277	0.449138	0.005303
 278	1.3850e-01	2.7661	-6.342538	0.000629	6.286092	1.064893	0.012572
 279	1.3900e-01	2.7759	-6.306190	0.000363	3.634815	0.615754	0.007270
 280	1.3950e-01	2.7888	-6.245467	0.000607	6.072279	1.028672	0.012145
 281	1.4000e-01	2.7966	-6.225369	0.000201	2.009839	0.340476	0.004020
 282	1.4050e-01	2.8064	-6.172771	0.000526	5.259791	0.891033	0.010520
 283	1.4100e-01	2.8205	-6.127443	0.000453	4.532828	0.767882	0.009066
 284	1.4150e-01	2.8262	-6.097509	0.000299	2.993377	0.507092	0.005987
 285	1.4200e-01	2.8384	-6.048332	0.000492	4.917691	0.833079	0.009835
 286	1.4250e-01	2.8461	-6.008563	0.000398	3.976915	0.673708	0.007954
 287	1.4300e-01	2.8571	-5.979912	0.000287	2.865089	0.485359	0.005730
 288	1.4350e-01	2.8690	-5.929024	0.000509	5.088741	0.862056	0.010177
 289	1.4400e-01	2.8760	-5.887972	0.000411	4.105203	0.695440	0.008210
 290	1.4450e-01	2.8864	-5.842217	0.000458	4.575590	0.775126	0.009151
 291	1.4500e-01	2.8952	-5.790901	0.000513	5.131503	0.869300	0.010263
 292	1.4550e-01	2.9077	-5.759257	0.000316	3.164427	0.536068	0.006329
 293	1.4600e-01	2.9173	-5.719916	0.000393	3.934153	0.666463	0.007868
 294	1.4650e-01	2.9260	-5.662186	0.000577	5.772941	0.977963	0.011546
 295	1.4700e-01	2.9372	-5.627121	0.000351	3.506527	0.594022	0.007013
 296	1.4750e-01	2.9465	-5.591628	0.000355	3.549290	0.601266	0.007099
 297	1.4800e-01	2.9568	-5.543734	0.000479	4.789403	0.811347	0.009579
 298	1.4850e-01	2.9648	-5.493274	0.000505	5.045978	0.854812	0.010092
 299	1.4900e-01	2.9755	-5.475742	0.000175	1.753264	0.297011	0.003507
 300	1.4950e-01	2.9883	-5.426565	0.000492	4.917691	0.833079	0.009835
 301	1.5000e-01	2.9969	-5.385513	0.000411	4.105203	0.695440	0.008210
 302	1.5050e-01	3.0034	-5.334198	0.000513	5.131503	0.869300	0.010263
 303	1.5100e-01	3.0160	-5.302553	0.000316	3.164427	0.536068	0.006329
 304	1.5150e-01	3.0258	-5.251666	0.000509	5.088741	0.862056	0.010177
 305	1.5200e-01	3.0402	-5.222587	0.000291	2.907852	0.492603	0.005816
 306	1.5250e-01	3.0453	-5.168707	0.000539	5.388078	0.912765	0.010776
 307	1.5300e-01	3.0560	-5.136635	0.000321	3.207190	0.543313	0.006414
 308	1.5350e-01	3.0670	-5.085747	0.000509	5.088741	0.862056	0.010177
 309	1.5400e-01	3.0771	-5.037853	0.000479	4.789403	0.811347	0.009579
 310	1.5450e-01	3.0847	-5.008347	0.000295	2.950614	0.499848	0.005901
 311	1.5500e-01	3.0963	-4.956177	0.000522	5.217028	0.883789	0.010434
 312	1.5550e-01	3.1046	-4.924105	0.000321	3.207190	0.543313	0.006414
 313	1.5600e-01	3.1177	-4.868514	0.000556	5.559129	0.941742	0.011118
 314	1.5650e-01	3.1268	-4.850981	0.000175	1.753264	0.297011	0.003507
 315	1.5700e-01	3.1400	-4.799666	0.000513	5.131503	0.869300	0.010263
 316	1.5750e-01	3.1471	-4.748351	0.000513	5.131503	0.869300	0.010263
 317	1.5800e-01	3.1586	-4.722266	0.000261	2.608514	0.441894	0.005217
 318	1.5850e-01	3.1650	-4.673944	0.000483	4.832166	0.818591	0.009664
 319	1.5900e-01	3.1769	-4.626478	0.000475	4.746641	0.804103	0.009493
 320	1.5950e-01	3.1845	-4.582860	0.000436	4.361778	0.738905	0.008724
 321	1.6000e-01	3.1946	-4.534538	0.000483	4.832166	0.818591	0.009664
 322	1.6050e-01	3.2050	-4.508453	0.000261	2.608514	0.441894	0.005217
 323	1.6100e-01	3.2146	-4.460559	0.000479	4.789403	0.811347	0.009579
 324	1.6150e-01	3.2251	-4.437040	0.000235	2.351939	0.398429	0.004704
 325	1.6200e-01	3.2362	-4.396843	0.000402	4.019678	0.680952	0.008039
 326	1.6250e-01	3.2483	-4.364771	0.000321	3.207190	0.543313	0.006414
 327	1.6300e-01	3.2571	-4.307897	0.000569	5.687416	0.963474	0.011375
 328	1.6350e-01	3.2654	-4.253161	0.000547	5.473604	0.927254	0.010947
 329	1.6400e-01	3.2764	-4.214247	0.000389	3.891390	0.659219	0.007783
 330	1.6450e-01	3.2874	-4.183458	0.000308	3.078902	0.521580	0.006158
 331	1.6500e-01	3.2962	-4.130860	0.000526	5.259791	0.891033	0.010520
 332	1.6550e-01	3.3063	-4.103920	0.000269	2.694039	0.456383	0.005388
 333	1.6600e-01	3.3197	-4.065433	0.000385	3.848627	0.651975	0.007697
 334	1.6650e-01	3.3257	-4.023526	0.000419	4.190728	0.709928	0.008381
 335	1.6700e-01	3.3360	-3.971356	0.000522	5.217028	0.883789	0.010434
 336	1.6750e-01	3.3475	-3.941422	0.000299	2.993377	0.507092	0.005987
 337	1.6800e-01	3.3585	-3.889679	0.000517	5.174266	0.876544	0.010349
 338	1.6850e-01	3.3655	-3.871719	0.000180	1.796026	0.304255	0.003592
 339	1.6900e-01	3.3765	-3.800733	0.000710	7.098580	1.202532	0.014197
 340	1.6950e-01	3.3868	-3.757116	0.000436	4.361778	0.738905	0.008724
 341	1.7000e-01	3.3951	-3.724616	0.000325	3.249952	0.550557	0.006500
 342	1.7050e-01	3.4065	-3.689123	0.000355	3.549290	0.601266	0.007099
 343	1.7100e-01	3.4151	-3.642940	0.000462	4.618353	0.782370	0.009237
 344	1.7150e-01	3.4283	-3.621558	0.000214	2.138126	0.362208	0.004276
 345	1.7200e-01	3.4352	-3.571099	0.000505	5.045978	0.854812	0.010092
 346	1.7250e-01	3.4448	-3.531757	0.000393	3.934153	0.666463	0.007868
 347	1.7300e-01	3.4564	-3.484291	0.000475	4.746641	0.804103	0.009493
 348	1.7350e-01	3.4665	-3.441956	0.000423	4.233490	0.717173	0.008467
 349	1.7400e-01	3.4766	-3.414588	0.000274	2.736802	0.463627	0.005474
 350	1.7450e-01	3.4913	-3.367121	0.000475	4.746641	0.804103	0.009493
 351	1.7500e-01	3.4955	-3.320938	0.000462	4.618353	0.782370	0.009237
 352	1.7550e-01	3.5077	-3.276037	0.000449	4.490065	0.760638	0.008980
 353	1.7600e-01	3.5158	-3.242682	0.000334	3.335477	0.565045	0.006671
 354	1.7650e-01	3.5251	-3.191367	0.000513	5.131503	0.869300	0.010263
 355	1.7700e-01	3.5341	-3.162289	0.000291	2.907852	0.492603	0.005816
 356	1.7750e-01	3.5461	-3.131072	0.000312	3.121665	0.528824	0.006243
 357	1.7800e-01	3.5583	-3.090875	0.000402	4.019678	0.680952	0.008039
 358	1.7850e-01	3.5651	-3.053672	0.000372	3.720340	0.630243	0.007441
 359	1.7900e-01	3.5797	-3.003640	0.000500	5.003216	0.847568	0.010006
 360	1.7950e-01	3.5889	-2.970713	0.000329	3.292715	0.557801	0.006585
 361	1.8000e-01	3.5985	-2.920253	0.000505	5.045978	0.854812	0.010092
 362	1.8050e-01	3.6052	-2.887753	0.000325	3.249952	0.550557	0.006500
 363	1.8100e-01	3.6165	-2.839859	0.000479	4.789403	0.811347	0.009579
 364	1.8150e-01	3.6316	-2.812919	0.000269	2.694039	0.456383	0.005388
 365	1.8200e-01	3.6380	-2.768446	0.000445	4.447303	0.753393	0.008895
 366	1.8250e-01	3.6462	-2.742361	0.000261	2.608514	0.441894	0.005217
 367	1.8300e-01	3.6568	-2.685914	0.000564	5.644654	0.956230	0.011289
 368	1.8350e-01	3.6665	-2.658119	0.000278	2.779564	0.470871	0.005559
 369	1.8400e-01	3.6755	-2.603810	0.000543	5.430841	0.920009	0.010862
 370	1.8450e-01	3.6862	-2.565324	0.000385	3.848627	0.651975	0.007697
 371	1.8500e-01	3.6964	-2.540094	0.000252	2.522989	0.427406	0.005046
 372	1.8550e-01	3.7079	-2.486641	0.000535	5.345316	0.905521	0.010691
 373	1.8600e-01	3.7173	-2.441313	0.000453	4.532828	0.767882	0.009066
 374	1.8650e-01	3.7280	-2.402399	0.000389	3.891390	0.659219	0.007783
 375	1.8700e-01	3.7329	-2.377169	0.000252	2.522989	0.427406	0.005046
 376	1.8750e-01	3.7476	-2.333979	0.000432	4.319015	0.731661	0.008638
 377	1.8800e-01	3.7573	-2.281808	0.000522	5.217028	0.883789	0.010434
 378	1.8850e-01	3.7668	-2.257006	0.000248	2.480227	0.420162	0.004960
 379	1.8900e-01	3.7741	-2.204408	0.000526	5.259791	0.891033	0.010520
 380	1.8950e-01	3.7878	-2.189869	0.000145	1.453926	0.246302	0.002908
 381	1.9000e-01	3.7967	-2.137699	0.000522	5.217028	0.883789	0.010434
 382	1.9050e-01	3.8055	-2.101778	0.000359	3.592052	0.608510	0.007184
 383	1.9100e-01	3.8153	-2.069279	0.000325	3.249952	0.550557	0.006500
 384	1.9150e-01	3.8281	-2.006845	0.000624	6.243329	1.057649	0.012487
 385	1.9200e-01	3.8391	-1.982471	0.000244	2.437464	0.412918	0.004875
 386	1.9250e-01	3.8474	-1.948261	0.000342	3.421002	0.579533	0.006842
 387	1.9300e-01	3.8547	-1.893097	0.000552	5.516366	0.934498	0.011033
 388	1.9350e-01	3.8666	-1.867440	0.000257	2.565752	0.434650	0.005132
 389	1.9400e-01	3.8782	-1.834085	0.000334	3.335477	0.565045	0.006671
 390	1.9450e-01	3.8870	-1.795171	0.000389	3.891390	0.659219	0.007783
 391	1.9500e-01	3.8960	-1.743001	0.000522	5.217028	0.883789	0.010434
 392	1.9550e-01	3.9050	-1.706652	0.000363	3.634815	0.615754	0.007270
 393	1.9600e-01	3.9154	-1.675436	0.000312	3.121665	0.528824	0.006243
 394	1.9650e-01	3.9272	-1.626259	0.000492	4.917691	0.833079	0.009835
 395	1.9700e-01	3.9375	-1.582641	0.000436	4.361778	0.738905	0.008724
 396	1.9750e-01	3.9474	-1.564253	0.000184	1.838789	0.311499	0.003678
 397	1.9800e-01	3.9563	-1.517214	0.000470	4.703878	0.796859	0.009408
 398	1.9850e-01	3.9659	-1.479583	0.000376	3.763102	0.637487	0.007526
 399	1.9900e-01	3.9786	-1.434683	0.000449	4.490065	0.760638	0.008980
 400	1.9950e-01	3.9853	-1.390637	0.000440	4.404540	0.746149	0.008809
 401	2.0000e-01	3.9955	-1.367118	0.000235	2.351939	0.398429	0.004704
 402	2.0050e-01	4.0085	-1.319224	0.000479	4.789403	0.811347	0.009579
 403	2.0100e-01	4.0155	-1.276889	0.000423	4.233490	0.717173	0.008467
 404	2.0150e-01	4.0235	-1.251232	0.000257	2.565752	0.434650	0.005132
 405	2.0200e-01	4.0364	-1.212318	0.000389	3.891390	0.659219	0.007783
 406	2.0250e-01	4.0460	-1.169983	0.000423	4.233490	0.717173	0.008467
 407	2.0300e-01	4.0546	-1.131496	0.000385	3.848627	0.651975	0.007697
 408	2.0350e-01	4.0668	-1.090017	0.000415	4.147965	0.702684	0.008296
 409	2.0400e-01	4.0808	-1.043833	0.000462	4.618353	0.782370	0.009237
 410	2.0450e-01	4.0866	-1.002354	0.000415	4.147965	0.702684	0.008296
 411	2.0500e-01	4.0968	-0.964723	0.000376	3.763102	0.637487	0.007526
 412	2.0550e-01	4.1068	-0.928374	0.000363	3.634815	0.615754	0.007270
 413	2.0600e-01	4.1148	-0.895020	0.000334	3.335477	0.565045	0.006671
 414	2.0650e-01	4.1248	-0.874494	0.000205	2.052601	0.347720	0.004105
 415	2.0700e-01	4.1379	-0.839428	0.000351	3.506527	0.594022	0.007013
 416	2.0750e-01	4.1461	-0.791534	0.000479	4.789403	0.811347	0.009579
 417	2.0800e-01	4.1547	-0.745351	0.000462	4.618353	0.782370	0.009237
 418	2.0850e-01	4.1653	-0.731239	0.000141	1.411163	0.239058	0.002822
 419	2.0900e-01	4.1760	-0.662392	0.000688	6.884767	1.166311	0.013770
 420	2.0950e-01	4.1858	-0.632458	0.000299	2.993377	0.507092	0.005987
 421	2.1000e-01	4.1968	-0.577294	0.000552	5.516366	0.934498	0.011033
 422	2.1050e-01	4.2053	-0.563610	0.000137	1.368401	0.231813	0.002737
 423	2.1100e-01	4.2157	-0.519137	0.000445	4.447303	0.753393	0.008895
 424	2.1150e-01	4.2249	-0.483217	0.000359	3.592052	0.608510	0.007184
 425	2.1200e-01	4.2352	-0.442592	0.000406	4.062440	0.688196	0.008125
 426	2.1250e-01	4.2474	-0.419073	0.000235	2.351939	0.398429	0.004704
 427	2.1300e-01	4.2584	-0.360488	0.000586	5.858466	0.992451	0.011717
 428	2.1350e-01	4.2661	-0.310456	0.000500	5.003216	0.847568	0.010006
 429	2.1400e-01	4.2780	-0.289502	0.000210	2.095364	0.354964	0.004191
 430	2.1450e-01	4.2891	-0.271542	0.000180	1.796026	0.304255	0.003592
 431	2.1500e-01	4.2979	-0.214240	0.000573	5.730179	0.970719	0.011460
 432	2.1550e-01	4.3063	-0.177464	0.000368	3.677577	0.622998	0.007355
 433	2.1600e-01	4.3159	-0.138123	0.000393	3.934153	0.666463	0.007868
 434	2.1650e-01	4.3265	-0.102630	0.000355	3.549290	0.601266	0.007099
 435	2.1700e-01	4.3378	-0.066710	0.000359	3.592052	0.608510	0.007184
 436	2.1750e-01	4.3488	-0.021381	0.000453	4.532828	0.767882	0.009066
 437	2.1800e-01	4.3588	0.001711	0.000231	2.309176	0.391185	0.004618
 438	2.1850e-01	4.3671	0.059440	0.000577	5.772941	0.977963	0.011546
 439	2.1900e-01	4.3779	0.096643	0.000372	3.720340	0.630243	0.007441
 440	2.1950e-01	4.3866	0.124011	0.000274	2.736802	0.463627	0.005474
 441	2.2000e-01	4.3982	0.150524	0.000265	2.651277	0.449138	0.005303
 442	2.2050e-01	4.4101	0.190293	0.000398	3.976915	0.673708	0.007954
 443	2.2100e-01	4.4167	0.247167	0.000569	5.687416	0.963474	0.011375
 444	2.2150e-01	4.4276	0.259141	0.000120	1.197351	0.202837	0.002395
 445	2.2200e-01	4.4366	0.303186	0.000440	4.404540	0.746149	0.008809
 446	2.2250e-01	4.4479	0.346376	0.000432	4.319015	0.731661	0.008638
 447	2.2300e-01	4.4571	0.373744	0.000274	2.736802	0.463627	0.005474
 448	2.2350e-01	4.4666	0.406672	0.000329	3.292715	0.557801	0.006585
 449	2.2400e-01	4.4763	0.453283	0.000466	4.661115	0.789614	0.009322
 450	2.2450e-01	4.4870	0.503743	0.000505	5.045978	0.854812	0.010092
 451	2.2500e-01	4.4980	0.546505	0.000428	4.276253	0.724417	0.008553
 452	2.2550e-01	4.5100	0.566603	0.000201	2.009839	0.340476	0.004020
 453	2.2600e-01	4.5166	0.618346	0.000517	5.174266	0.876544	0.010349
 454	2.2650e-01	4.5262	0.648708	0.000304	3.036139	0.514336	0.006072
 455	2.2700e-01	4.5367	0.677786	0.000291	2.907852	0.492603	0.005816
 456	2.2750e-01	4.5453	0.715417	0.000376	3.763102	0.637487	0.007526
 457	2.2800e-01	4.5557	0.747917	0.000325	3.249952	0.550557	0.006500
 458	2.2850e-01	4.5654	0.796238	0.000483	4.832166	0.818591	0.009664
 459	2.2900e-01	4.5746	0.833442	0.000372	3.720340	0.630243	0.007441
 460	2.2950e-01	4.5883	0.874494	0.000411	4.105203	0.695440	0.008210
 461	2.3000e-01	4.5996	0.903145	0.000287	2.865089	0.485359	0.005730
 462	2.3050e-01	4.6082	0.929230	0.000261	2.608514	0.441894	0.005217
 463	2.3100e-01	4.6175	0.966005	0.000368	3.677577	0.622998	0.007355
 464	2.3150e-01	4.6295	1.009196	0.000432	4.319015	0.731661	0.008638
 465	2.3200e-01	4.6365	1.047682	0.000385	3.848627	0.651975	0.007697
 466	2.3250e-01	4.6460	1.078471	0.000308	3.078902	0.521580	0.006158
 467	2.3300e-01	4.6564	1.128075	0.000496	4.960453	0.840324	0.009921
 468	2.3350e-01	4.6680	1.152022	0.000239	2.394702	0.405673	0.004789
 469	2.3400e-01	4.6765	1.205048	0.000530	5.302553	0.898277	0.010605
 470	2.3450e-01	4.6860	1.232416	0.000274	2.736802	0.463627	0.005474
 471	2.3500e-01	4.6970	1.266626	0.000342	3.421002	0.579533	0.006842
 472	2.3550e-01	4.7064	1.301264	0.000346	3.463765	0.586778	0.006928
 473	2.3600e-01	4.7171	1.352579	0.000513	5.131503	0.869300	0.010263
 474	2.3650e-01	4.7299	1.376526	0.000239	2.394702	0.405673	0.004789
 475	2.3700e-01	4.7375	1.416295	0.000398	3.976915	0.673708	0.007954
 476	2.3750e-01	4.7440	1.441097	0.000248	2.480227	0.420162	0.004960
 477	2.3800e-01	4.7583	1.481722	0.000406	4.062440	0.688196	0.008125
 478	2.3850e-01	4.7675	1.530898	0.000492	4.917691	0.833079	0.009835
 479	2.3900e-01	4.7760	1.572806	0.000419	4.190728	0.709928	0.008381
 480	2.3950e-01	4.7884	1.592904	0.000201	2.009839	0.340476	0.004020
 481	2.4000e-01	4.8010	1.631818	0.000389	3.891390	0.659219	0.007783
 482	2.4050e-01	4.8065	1.666456	0.000346	3.463765	0.586778	0.006928
 483	2.4100e-01	4.8145	1.715205	0.000487	4.874928	0.825835	0.009750
 484	2.4150e-01	4.8242	1.744711	0.000295	2.950614	0.499848	0.005901
 485	2.4200e-01	4.8360	1.780632	0.000359	3.592052	0.608510	0.007184
 486	2.4250e-01	4.8482	1.805006	0.000244	2.437464	0.412918	0.004875
 487	2.4300e-01	4.8566	1.845203	0.000402	4.019678	0.680952	0.008039
 488	2.4350e-01	4.8676	1.887110	0.000419	4.190728	0.709928	0.008381
 489	2.4400e-01	4.8773	1.908919	0.000218	2.180889	0.369453	0.004362
 490	2.4450e-01	4.8846	1.953820	0.000449	4.490065	0.760638	0.008980
 491	2.4500e-01	4.8956	1.994444	0.000406	4.062440	0.688196	0.008125
 492	2.4550e-01	4.9080	2.025661	0.000312	3.121665	0.528824	0.006243
 493	2.4600e-01	4.9164	2.060726	0.000351	3.506527	0.594022	0.007013
 494	2.4650e-01	4.9301	2.100068	0.000393	3.934153	0.666463	0.007868
 495	2.4700e-01	4.9356	2.142403	0.000423	4.233490	0.717173	0.008467
 496	2.4750e-01	4.9518	2.179178	0.000368	3.677577	0.622998	0.007355
 497	2.4800e-01	4.9579	2.199704	0.000205	2.052601	0.347720	0.004105
 498	2.4850e-01	4.9695	2.245888	0.000462	4.618353	0.782370	0.009237
 499	2.4900e-01	4.9770	2.257861	0.000120	1.197351	0.202837	0.002395
 500	2.4950e-01	4.9869	2.317729	0.000599	5.986754	1.014184	0.011974
 501	2.5000e-01	4.9982	2.344242	0.000265	2.651277	0.449138	0.005303
 502	2.5050e-01	5.0079	2.381445	0.000372	3.720340	0.630243	0.007441
 503	2.5100e-01	5.0171	2.422497	0.000411	4.105203	0.695440	0.008210
 504	2.5150e-01	5.0296	2.455424	0.000329	3.292715	0.557801	0.006585
 505	2.5200e-01	5.0357	2.480227	0.000248	2.480227	0.420162	0.004960
 506	2.5250e-01	5.0485	2.521706	0.000415	4.147965	0.702684	0.008296
 507	2.5300e-01	5.0598	2.567890	0.000462	4.618353	0.782370	0.009237
 508	2.5350e-01	5.0662	2.586705	0.000188	1.881551	0.318743	0.003763
 509	2.5400e-01	5.0754	2.641441	0.000547	5.473604	0.927254	0.010947
 510	2.5450e-01	5.0861	2.677789	0.000363	3.634815	0.615754	0.007270
 511	2.5500e-01	5.0977	2.702164	0.000244	2.437464	0.412918	0.004875
 512	2.5550e-01	5.1074	2.736374	0.000342	3.421002	0.579533	0.006842
 513	2.5600e-01	5.1166	2.756045	0.000197	1.967076	0.333232	0.003934
 514	2.5650e-01	5.1254	2.822327	0.000663	6.628192	1.122846	0.013256
 515	2.5700e-01	5.1373	2.834300	0.000120	1.197351	0.202837	0.002395
 516	2.5750e-01	5.1454	2.877063	0.000428	4.276253	0.724417	0.008553
 517	2.5800e-01	5.1572	2.904431	0.000274	2.736802	0.463627	0.005474
 518	2.5850e-01	5.1654	2.954463	0.000500	5.003216	0.847568	0.010006
 519	2.5900e-01	5.1764	2.976700	0.000222	2.223651	0.376697	0.004447
 520	2.5950e-01	5.1892	3.017752	0.000411	4.105203	0.695440	0.008210
 521	2.6000e-01	5.1953	3.058804	0.000411	4.105203	0.695440	0.008210
 522	2.6050e-01	5.2057	3.074626	0.000158	1.582214	0.268034	0.003164
 523	2.6100e-01	5.2155	3.126368	0.000517	5.174266	0.876544	0.010349
 524	2.6150e-01	5.2267	3.150315	0.000239	2.394702	0.405673	0.004789
 525	2.6200e-01	5.2368	3.197354	0.000470	4.703878	0.796859	0.009408
 526	2.6250e-01	5.2469	3.229854	0.000325	3.249952	0.550557	0.006500
 527	2.6300e-01	5.2539	3.261498	0.000316	3.164427	0.536068	0.006329
 528	2.6350e-01	5.2692	3.306399	0.000449	4.490065	0.760638	0.008980
 529	2.6400e-01	5.2771	3.322648	0.000162	1.624976	0.275278	0.003250
 530	2.6450e-01	5.2870	3.364556	0.000419	4.190728	0.709928	0.008381
 531	2.6500e-01	5.2982	3.415443	0.000509	5.088741	0.862056	0.010177
 532	2.6550e-01	5.3049	3.447943	0.000325	3.249952	0.550557	0.006500
 533	2.6600e-01	5.3165	3.477876	0.000299	2.993377	0.507092	0.005987
 534	2.6650e-01	5.3284	3.497547	0.000197	1.967076	0.333232	0.003934
 535	2.6700e-01	5.3360	3.548862	0.000513	5.131503	0.869300	0.010263
 536	2.6750e-01	5.3461	3.583500	0.000346	3.463765	0.586778	0.006928
 537	2.6800e-01	5.3558	3.611723	0.000282	2.822327	0.478115	0.005645
 538	2.6850e-01	5.3635	3.654058	0.000423	4.233490	0.717173	0.008467
 539	2.6900e-01	5.3729	3.688696	0.000346	3.463765	0.586778	0.006928
 540	2.6950e-01	5.3851	3.728037	0.000393	3.934153	0.666463	0.007868
 541	2.7000e-01	5.3967	3.740438	0.000124	1.240113	0.210081	0.002480
 542	2.7050e-01	5.4083	3.784056	0.000436	4.361778	0.738905	0.008724
 543	2.7100e-01	5.4163	3.818694	0.000346	3.463765	0.586778	0.006928
 544	2.7150e-01	5.4260	3.861029	0.000423	4.233490	0.717173	0.008467
 545	2.7200e-01	5.4364	3.914054	0.000530	5.302553	0.898277	0.010605
 546	2.7250e-01	5.4468	3.928166	0.000141	1.411163	0.239058	0.002822
 547	2.7300e-01	5.4555	3.959810	0.000316	3.164427	0.536068	0.006329
 548	2.7350e-01	5.4669	3.995303	0.000355	3.549290	0.601266	0.007099
 549	2.7400e-01	5.4767	4.033362	0.000381	3.805865	0.644731	0.007612
 550	2.7450e-01	5.4883	4.056026	0.000227	2.266414	0.383941	0.004533
 551	2.7500e-01	5.4993	4.088098	0.000321	3.207190	0.543313	0.006414
 552	2.7550e-01	5.5042	4.145399	0.000573	5.730179	0.970719	0.011460
 553	2.7600e-01	5.5197	4.167208	0.000218	2.180889	0.369453	0.004362
 554	2.7650e-01	5.5252	4.207833	0.000406	4.062440	0.688196	0.008125
 555	2.7700e-01	5.5380	4.219806	0.000120	1.197351	0.202837	0.002395
 556	2.7750e-01	5.5458	4.281384	0.000616	6.157804	1.043160	0.012316
 557	2.7800e-01	5.5579	4.317732	0.000363	3.634815	0.615754	0.007270
 558	2.7850e-01	5.5682	4.339969	0.000222	2.223651	0.376697	0.004447
 559	2.7900e-01	5.5774	4.364344	0.000244	2.437464	0.412918	0.004875
 560	2.7950e-01	5.5881	4.408817	0.000445	4.447303	0.753393	0.008895
 561	2.8000e-01	5.5972	4.439178	0.000304	3.036139	0.514336	0.006072
 562	2.8050e-01	5.6061	4.479802	0.000406	4.062440	0.688196	0.008125
 563	2.8100e-01	5.6152	4.515723	0.000359	3.592052	0.608510	0.007184
 564	2.8150e-01	5.6250	4.547367	0.000316	3.164427	0.536068	0.006329
 565	2.8200e-01	5.6378	4.575163	0.000278	2.779564	0.470871	0.005559
 566	2.8250e-01	5.6464	4.627761	0.000526	5.259791	0.891033	0.010520
 567	2.8300e-01	5.6567	4.651280	0.000235	2.351939	0.398429	0.004704
 568	2.8350e-01	5.6648	4.684207	0.000329	3.292715	0.557801	0.006585
 569	2.8400e-01	5.6802	4.709437	0.000252	2.522989	0.427406	0.005046
 570	2.8450e-01	5.6854	4.749206	0.000398	3.976915	0.673708	0.007954
 571	2.8500e-01	5.6958	4.772298	0.000231	2.309176	0.391185	0.004618
 572	2.8550e-01	5.7050	4.817199	0.000449	4.490065	0.760638	0.008980
 573	2.8600e-01	5.7153	4.858251	0.000411	4.105203	0.695440	0.008210
 574	2.8650e-01	5.7263	4.887757	0.000295	2.950614	0.499848	0.005901
 575	2.8700e-01	5.7370	4.921967	0.000342	3.421002	0.579533	0.006842
 576	2.8750e-01	5.7465	4.958743	0.000368	3.677577	0.622998	0.007355
 577	2.8800e-01	5.7538	4.980552	0.000218	2.180889	0.369453	0.004362
 578	2.8850e-01	5.7645	5.025880	0.000453	4.532828	0.767882	0.009066
 579	2.8900e-01	5.7777	5.072063	0.000462	4.618353	0.782370	0.009237
 580	2.8950e-01	5.7864	5.101142	0.000291	2.907852	0.492603	0.005816
 581	2.9000e-01	5.7953	5.134497	0.000334	3.335477	0.565045	0.006671
 582	2.9050e-01	5.8066	5.173411	0.000389	3.891390	0.659219	0.007783
 583	2.9100e-01	5.8157	5.197785	0.000244	2.437464	0.412918	0.004875
 584	2.9150e-01	5.8264	5.243113	0.000453	4.532828	0.767882	0.009066
 585	2.9200e-01	5.8365	5.260646	0.000175	1.753264	0.297011	0.003507
 586	2.9250e-01	5.8450	5.296139	0.000355	3.549290	0.601266	0.007099
 587	2.9300e-01	5.8585	5.327783	0.000316	3.164427	0.536068	0.006329
 588	2.9350e-01	5.8676	5.359000	0.000312	3.121665	0.528824	0.006243
 589	2.9400e-01	5.8749	5.411598	0.000526	5.259791	0.891033	0.010520
 590	2.9450e-01	5.8868	5.448374	0.000368	3.677577	0.622998	0.007355
 591	2.9500e-01	5.8972	5.464196	0.000158	1.582214	0.268034	0.003164
 592	2.9550e-01	5.9064	5.494557	0.000304	3.036139	0.514336	0.006072
 593	2.9600e-01	5.9180	5.533899	0.000393	3.934153	0.666463	0.007868
 594	2.9650e-01	5.9265	5.576234	0.000423	4.233490	0.717173	0.008467
 595	2.9700e-01	5.9351	5.603174	0.000269	2.694039	0.456383	0.005388
 596	2.9750e-01	5.9450	5.637812	0.000346	3.463765	0.586778	0.006928
 597	2.9800e-01	5.9589	5.676298	0.000385	3.848627	0.651975	0.007697
 598	2.9850e-01	5.9671	5.704094	0.000278	2.779564	0.470871	0.005559
 599	2.9900e-01	5.9747	5.745146	0.000411	4.105203	0.695440	0.008210
 600	2.9950e-01	5.9863	5.766099	0.000210	2.095364	0.354964	0.004191
 601	3.0000e-01	5.9955	5.816987	0.000509	5.088741	0.862056	0.010177
 602	3.0050e-01	6.0056	5.839223	0.000222	2.223651	0.376697	0.004447
 603	3.0100e-01	6.0158	5.877282	0.000381	3.805865	0.644731	0.007612
 604	3.0150e-01	6.0286	5.915768	0.000385	3.848627	0.651975	0.007697
 605	3.0200e-01	6.0400	5.923465	0.000077	0.769725	0.130395	0.001539
 606	3.0250e-01	6.0468	5.976918	0.000535	5.345316	0.905521	0.010691
 607	3.0300e-01	6.0559	6.003431	0.000265	2.651277	0.449138	0.005303
 608	3.0350e-01	6.0657	6.041918	0.000385	3.848627	0.651975	0.007697
 609	3.0400e-01	6.0748	6.090239	0.000483	4.832166	0.818591	0.009664
 610	3.0450e-01	6.0852	6.103496	0.000133	1.325638	0.224569	0.002651
 611	3.0500e-01	6.0962	6.154383	0.000509	5.088741	0.862056	0.010177
 612	3.0550e-01	6.1066	6.162935	0.000086	0.855251	0.144883	0.001711
 613	3.0600e-01	6.1151	6.202277	0.000393	3.934153	0.666463	0.007868
 614	3.0650e-01	6.1261	6.245467	0.000432	4.319015	0.731661	0.008638
 615	3.0700e-01	6.1377	6.275829	0.000304	3.036139	0.514336	0.006072
 616	3.0750e-01	6.1475	6.292078	0.000162	1.624976	0.275278	0.003250
 617	3.0800e-01	6.1581	6.331420	0.000393	3.934153	0.666463	0.007868
 618	3.0850e-01	6.1697	6.360926	0.000295	2.950614	0.499848	0.005901
 619	3.0900e-01	6.1777	6.404971	0.000440	4.404540	0.746149	0.008809
 620	3.0950e-01	6.1853	6.433195	0.000282	2.822327	0.478115	0.005645
 621	3.1000e-01	6.1981	6.478095	0.000449	4.490065	0.760638	0.008980
 622	3.1050e-01	6.2085	6.492207	0.000141	1.411163	0.239058	0.002822
 623	3.1100e-01	6.2158	6.533259	0.000411	4.105203	0.695440	0.008210
 624	3.1150e-01	6.2265	6.556778	0.000235	2.351939	0.398429	0.004704
 625	3.1200e-01	6.2366	6.607666	0.000509	5.088741	0.862056	0.010177
 626	3.1250e-01	6.2463	6.644869	0.000372	3.720340	0.630243	0.007441
 627	3.1300e-01	6.2558	6.659836	0.000150	1.496688	0.253546	0.002993
 628	3.1350e-01	6.2662	6.704737	0.000449	4.490065	0.760638	0.008980
 629	3.1400e-01	6.2775	6.727401	0.000227	2.266414	0.383941	0.004533
 630	3.1450e-01	6.2845	6.770163	0.000428	4.276253	0.724417	0.008553
 631	3.1500e-01	6.2961	6.817630	0.000475	4.746641	0.804103	0.009493
 632	3.1550e-01	6.3086	6.815492	-0.000021	-0.213813	-0.036221	-0.000428
 633	3.1600e-01	6.3165	6.866379	0.000509	5.088741	0.862056	0.010177
 634	3.1650e-01	6.3278	6.894175	0.000278	2.779564	0.470871	0.005559
 635	3.1700e-01	6.3347	6.934799	0.000406	4.062440	0.688196	0.008125
 636	3.1750e-01	6.3446	6.966443	0.000316	3.164427	0.536068	0.006329
 637	3.1800e-01	6.3562	7.002791	0.000363	3.634815	0.615754	0.007270
 638	3.1850e-01	6.3666	7.025883	0.000231	2.309176	0.391185	0.004618
 639	3.1900e-01	6.3745	7.067363	0.000415	4.147965	0.702684	0.008296
 640	3.1950e-01	6.3843	7.106277	0.000389	3.891390	0.659219	0.007783
 641	3.2000e-01	6.3953	7.140487	0.000342	3.421002	0.579533	0.006842
 642	3.2050e-01	6.4056	7.156309	0.000158	1.582214	0.268034	0.003164
 643	3.2100e-01	6.4178	7.181966	0.000257	2.565752	0.434650	0.005132
 644	3.2150e-01	6.4285	7.221308	0.000393	3.934153	0.666463	0.007868
 645	3.2200e-01	6.4368	7.254235	0.000329	3.292715	0.557801	0.006585
 646	3.2250e-01	6.4478	7.291439	0.000372	3.720340	0.630243	0.007441
 647	3.2300e-01	6.4563	7.320945	0.000295	2.950614	0.499848	0.005901
 648	3.2350e-01	6.4679	7.361569	0.000406	4.062440	0.688196	0.008125
 649	3.2400e-01	6.4771	7.380812	0.000192	1.924314	0.325988	0.003849
 650	3.2450e-01	6.4856	7.429134	0.000483	4.832166	0.818591	0.009664
 651	3.2500e-01	6.4951	7.442818	0.000137	1.368401	0.231813	0.002737
 652	3.2550e-01	6.5057	7.465482	0.000227	2.266414	0.383941	0.004533
 653	3.2600e-01	6.5161	7.525777	0.000603	6.029516	1.021428	0.012059
 654	3.2650e-01	6.5271	7.545876	0.000201	2.009839	0.340476	0.004020
 655	3.2700e-01	6.5363	7.577520	0.000316	3.164427	0.536068	0.006329
 656	3.2750e-01	6.5468	7.618572	0.000411	4.105203	0.695440	0.008210
 657	3.2800e-01	6.5570	7.652354	0.000338	3.378240	0.572289	0.006756
 658	3.2850e-01	6.5674	7.666038	0.000137	1.368401	0.231813	0.002737
 659	3.2900e-01	6.5778	7.718209	0.000522	5.217028	0.883789	0.010434
 660	3.2950e-01	6.5857	7.736169	0.000180	1.796026	0.304255	0.003592
 661	3.3000e-01	6.5997	7.782780	0.000466	4.661115	0.789614	0.009322
 662	3.3050e-01	6.6107	7.801596	0.000188	1.881551	0.318743	0.003763
 663	3.3100e-01	6.6150	7.855476	0.000539	5.388078	0.912765	0.010776
 664	3.3150e-01	6.6290	7.876430	0.000210	2.095364	0.354964	0.004191
 665	3.3200e-01	6.6370	7.911495	0.000351	3.506527	0.594022	0.007013
 666	3.3250e-01	6.6479	7.935870	0.000244	2.437464	0.412918	0.004875
 667	3.3300e-01	6.6571	7.977349	0.000415	4.147965	0.702684	0.008296
 668	3.3350e-01	6.6663	8.015408	0.000381	3.805865	0.644731	0.007612
 669	3.3400e-01	6.6748	8.041921	0.000265	2.651277	0.449138	0.005303
 670	3.3450e-01	6.6852	8.075703	0.000338	3.378240	0.572289	0.006756
 671	3.3500e-01	6.6977	8.098367	0.000227	2.266414	0.383941	0.004533
 672	3.3550e-01	6.7084	8.143268	0.000449	4.490065	0.760638	0.008980
 673	3.3600e-01	6.7181	8.171919	0.000287	2.865089	0.485359	0.005730
 674	3.3650e-01	6.7273	8.195866	0.000239	2.394702	0.405673	0.004789
 675	3.3700e-01	6.7352	8.246326	0.000505	5.045978	0.854812	0.010092
 676	3.3750e-01	6.7462	8.266424	0.000201	2.009839	0.340476	0.004020
 677	3.3800e-01	6.7584	8.292509	0.000261	2.608514	0.441894	0.005217
 678	3.3850e-01	6.7676	8.333989	0.000415	4.147965	0.702684	0.008296
 679	3.3900e-01	6.7751	8.379745	0.000458	4.575590	0.775126	0.009151
 680	3.3950e-01	6.7874	8.386587	0.000068	0.684200	0.115907	0.001368
 681	3.4000e-01	6.7993	8.419942	0.000334	3.335477	0.565045	0.006671
 682	3.4050e-01	6.8069	8.455862	0.000359	3.592052	0.608510	0.007184
 683	3.4100e-01	6.8164	8.490072	0.000342	3.421002	0.579533	0.006842
 684	3.4150e-01	6.8274	8.519578	0.000295	2.950614	0.499848	0.005901
 685	3.4200e-01	6.8372	8.573459	0.000539	5.388078	0.912765	0.010776
 686	3.4250e-01	6.8475	8.593985	0.000205	2.052601	0.347720	0.004105
 687	3.4300e-01	6.8591	8.611518	0.000175	1.753264	0.297011	0.003507
 688	3.4350e-01	6.8649	8.658984	0.000475	4.746641	0.804103	0.009493
 689	3.4400e-01	6.8781	8.686780	0.000278	2.779564	0.470871	0.005559
 690	3.4450e-01	6.8860	8.723983	0.000372	3.720340	0.630243	0.007441
 691	3.4500e-01	6.8958	8.743226	0.000192	1.924314	0.325988	0.003849
 692	3.4550e-01	6.9055	8.774015	0.000308	3.078902	0.521580	0.006158
 693	3.4600e-01	6.9196	8.813357	0.000393	3.934153	0.666463	0.007868
 694	3.4650e-01	6.9305	8.833028	0.000197	1.967076	0.333232	0.003934
 695	3.4700e-01	6.9379	8.864672	0.000316	3.164427	0.536068	0.006329
 696	3.4750e-01	6.9464	8.904013	0.000393	3.934153	0.666463	0.007868
 697	3.4800e-01	6.9550	8.954046	0.000500	5.003216	0.847568	0.010006
 698	3.4850e-01	6.9655	8.987400	0.000334	3.335477	0.565045	0.006671
 699	3.4900e-01	6.9769	9.013058	0.000257	2.565752	0.434650	0.005132
 700	3.4950e-01	6.9873	9.047696	0.000346	3.463765	0.586778	0.006928
 701	3.5000e-01	6.9965	9.078912	0.000312	3.121665	0.528824	0.006243
 702	3.5050e-01	7.0038	9.103714	0.000248	2.480227	0.420162	0.004960
 703	3.5100e-01	7.0154	9.143911	0.000402	4.019678	0.680952	0.008039
 704	3.5150e-01	7.0276	9.168714	0.000248	2.480227	0.420162	0.004960
 705	3.5200e-01	7.0404	9.205062	0.000363	3.634815	0.615754	0.007270
 706	3.5250e-01	7.0471	9.225160	0.000201	2.009839	0.340476	0.004020
 707	3.5300e-01	7.0557	9.270061	0.000449	4.490065	0.760638	0.008980
 708	3.5350e-01	7.0667	9.304698	0.000346	3.463765	0.586778	0.006928
 709	3.5400e-01	7.0770	9.329501	0.000248	2.480227	0.420162	0.004960
 710	3.5450e-01	7.0868	9.374829	0.000453	4.532828	0.767882	0.009066
 711	3.5500e-01	7.0984	9.388941	0.000141	1.411163	0.239058	0.002822
 712	3.5550e-01	7.1048	9.429137	0.000402	4.019678	0.680952	0.008039
 713	3.5600e-01	7.1155	9.464630	0.000355	3.549290	0.601266	0.007099
 714	3.5650e-01	7.1260	9.491143	0.000265	2.651277	0.449138	0.005303
 715	3.5700e-01	7.1362	9.537754	0.000466	4.661115	0.789614	0.009322
 716	3.5750e-01	7.1497	9.549300	0.000115	1.154588	0.195593	0.002309
 717	3.5800e-01	7.1545	9.591635	0.000423	4.233490	0.717173	0.008467
 718	3.5850e-01	7.1667	9.615154	0.000235	2.351939	0.398429	0.004704
 719	3.5900e-01	7.1741	9.665614	0.000505	5.045978	0.854812	0.010092
 720	3.5950e-01	7.1863	9.681436	0.000158	1.582214	0.268034	0.003164
 721	3.6000e-01	7.1960	9.704528	0.000231	2.309176	0.391185	0.004618
 722	3.6050e-01	7.2052	9.751139	0.000466	4.661115	0.789614	0.009322
 723	3.6100e-01	7.2174	9.779362	0.000282	2.822327	0.478115	0.005645
 724	3.6150e-01	7.2260	9.816993	0.000376	3.763102	0.637487	0.007526
 725	3.6200e-01	7.2366	9.842651	0.000257	2.565752	0.434650	0.005132
 726	3.6250e-01	7.2473	9.884558	0.000419	4.190728	0.709928	0.008381
 727	3.6300e-01	7.2583	9.908505	0.000239	2.394702	0.405673	0.004789
 728	3.6350e-01	7.2681	9.933735	0.000252	2.522989	0.427406	0.005046
 729	3.6400e-01	7.2772	9.961531	0.000278	2.779564	0.470871	0.005559
 730	3.6450e-01	7.2835	10.001300	0.000398	3.976915	0.673708	0.007954
 731	3.6500e-01	7.2974	10.034227	0.000329	3.292715	0.557801	0.006585
 732	3.6550e-01	7.3059	10.071003	0.000368	3.677577	0.622998	0.007355
 733	3.6600e-01	7.3151	10.095377	0.000244	2.437464	0.412918	0.004875
 734	3.6650e-01	7.3276	10.131298	0.000359	3.592052	0.608510	0.007184
 735	3.6700e-01	7.3353	10.167646	0.000363	3.634815	0.615754	0.007270
 736	3.6750e-01	7.3468	10.185606	0.000180	1.796026	0.304255	0.003592
 737	3.6800e-01	7.3572	10.229652	0.000440	4.404540	0.746149	0.008809
 738	3.6850e-01	7.3676	10.251461	0.000218	2.180889	0.369453	0.004362
 739	3.6900e-01	7.3758	10.295934	0.000445	4.447303	0.753393	0.008895
 740	3.6950e-01	7.3859	10.336986	0.000411	4.105203	0.695440	0.008210
 741	3.7000e-01	7.3962	10.344255	0.000073	0.726963	0.123151	0.001454
 742	3.7050e-01	7.4081	10.380604	0.000363	3.634815	0.615754	0.007270
 743	3.7100e-01	7.4170	10.415669	0.000351	3.506527	0.594022	0.007013
 744	3.7150e-01	7.4251	10.443037	0.000274	2.736802	0.463627	0.005474
 745	3.7200e-01	7.4344	10.493924	0.000509	5.088741	0.862056	0.010177
 746	3.7250e-01	7.4475	10.511029	0.000171	1.710501	0.289767	0.003421
 747	3.7300e-01	7.4591	10.542246	0.000312	3.121665	0.528824	0.006243
 748	3.7350e-01	7.4677	10.580732	0.000385	3.848627	0.651975	0.007697
 749	3.7400e-01	7.4771	10.602969	0.000222	2.223651	0.376697	0.004447
 750	3.7450e-01	7.4872	10.640600	0.000376	3.763102	0.637487	0.007526
 751	3.7500e-01	7.4954	10.675237	0.000346	3.463765	0.586778	0.006928
 752	3.7550e-01	7.5052	10.709020	0.000338	3.378240	0.572289	0.006756
 753	3.7600e-01	7.5153	10.749644	0.000406	4.062440	0.688196	0.008125
 754	3.7650e-01	7.5287	10.777867	0.000282	2.822327	0.478115	0.005645
 755	3.7700e-01	7.5372	10.801814	0.000239	2.394702	0.405673	0.004789
 756	3.7750e-01	7.5458	10.820202	0.000184	1.838789	0.311499	0.003678
 757	3.7800e-01	7.5623	10.871517	0.000513	5.131503	0.869300	0.010263
 758	3.7850e-01	7.5702	10.886057	0.000145	1.453926	0.246302	0.002908
 759	3.7900e-01	7.5777	10.930957	0.000449	4.490065	0.760638	0.008980
 760	3.7950e-01	7.5867	10.956187	0.000252	2.522989	0.427406	0.005046
 761	3.8000e-01	7.5974	11.003226	0.000470	4.703878	0.796859	0.009408
 762	3.8050e-01	7.6068	11.027601	0.000244	2.437464	0.412918	0.004875
 763	3.8100e-01	7.6160	11.060955	0.000334	3.335477	0.565045	0.006671
 764	3.8150e-01	7.6248	11.087040	0.000261	2.608514	0.441894	0.005217
 765	3.8200e-01	7.6367	11.118685	0.000316	3.164427	0.536068	0.006329
 766	3.8250e-01	7.6447	11.175559	0.000569	5.687416	0.963474	0.011375
 767	3.8300e-01	7.6559	11.190953	0.000154	1.539451	0.260790	0.003079
 768	3.8350e-01	7.6660	11.220032	0.000291	2.907852	0.492603	0.005816
 769	3.8400e-01	7.6788	11.250821	0.000308	3.078902	0.521580	0.006158
 770	3.8450e-01	7.6871	11.291018	0.000402	4.019678	0.680952	0.008039
 771	3.8500e-01	7.6978	11.307695	0.000167	1.667739	0.282523	0.003335
 772	3.8550e-01	7.7081	11.361148	0.000535	5.345316	0.905521	0.010691
 773	3.8600e-01	7.7179	11.381247	0.000201	2.009839	0.340476	0.004020
 774	3.8650e-01	7.7258	11.405194	0.000239	2.394702	0.405673	0.004789
 775	3.8700e-01	7.7374	11.473186	0.000680	6.799242	1.151823	0.013598
 776	3.8750e-01	7.7478	11.483449	0.000103	1.026301	0.173860	0.002053
 777	3.8800e-01	7.7576	11.505686	0.000222	2.223651	0.376697	0.004447
 778	3.8850e-01	7.7649	11.544600	0.000389	3.891390	0.659219	0.007783
 779	3.8900e-01	7.7765	11.593349	0.000487	4.874928	0.825835	0.009750
 780	3.8950e-01	7.7856	11.606178	0.000128	1.282876	0.217325	0.002566
 781	3.9000e-01	7.7942	11.640815	0.000346	3.463765	0.586778	0.006928
 782	3.9050e-01	7.8078	11.688709	0.000479	4.789403	0.811347	0.009579
 783	3.9100e-01	7.8156	11.704959	0.000162	1.624976	0.275278	0.003250
 784	3.9150e-01	7.8264	11.743445	0.000385	3.848627	0.651975	0.007697
 785	3.9200e-01	7.8357	11.765254	0.000218	2.180889	0.369453	0.004362
 786	3.9250e-01	7.8491	11.787063	0.000218	2.180889	0.369453	0.004362
 787	3.9300e-01	7.8564	11.846503	0.000594	5.943991	1.006939	0.011888
 788	3.9350e-01	7.8647	11.877720	0.000312	3.121665	0.528824	0.006243
 789	3.9400e-01	7.8735	11.911930	0.000342	3.421002	0.579533	0.006842
 790	3.9450e-01	7.8876	11.929035	0.000171	1.710501	0.289767	0.003421
 791	3.9500e-01	7.8973	11.960679	0.000316	3.164427	0.536068	0.006329
 792	3.9550e-01	7.9071	11.998738	0.000381	3.805865	0.644731	0.007612
 793	3.9600e-01	7.9175	12.026106	0.000274	2.736802	0.463627	0.005474
 794	3.9650e-01	7.9266	12.071006	0.000449	4.490065	0.760638	0.008980
 795	3.9700e-01	7.9382	12.102223	0.000312	3.121665	0.528824	0.006243
 796	3.9750e-01	7.9468	12.132584	0.000304	3.036139	0.514336	0.006072
 797	3.9800e-01	7.9572	12.167222	0.000346	3.463765	0.586778	0.006928
 798	3.9850e-01	7.9657	12.190741	0.000235	2.351939	0.398429	0.004704
 799	3.9900e-01	7.9773	12.221958	0.000312	3.121665	0.528824	0.006243
 800	3.9950e-01	7.9865	12.239918	0.000180	1.796026	0.304255	0.003592
 801	4.0000e-01	7.9987	12.290806	0.000509	5.088741	0.862056	0.010177
 802	4.0050e-01	8.0087	12.315608	0.000248	2.480227	0.420162	0.004960
 803	4.0100e-01	8.0151	12.355377	0.000398	3.976915	0.673708	0.007954
 804	4.0150e-01	8.0261	12.393008	0.000376	3.763102	0.637487	0.007526
 805	4.0200e-01	8.0402	12.410541	0.000175	1.753264	0.297011	0.003507
 806	4.0250e-01	8.0432	12.464849	0.000543	5.430841	0.920009	0.010862
 807	4.0300e-01	8.0569	12.481099	0.000162	1.624976	0.275278	0.003250
 808	4.0350e-01	8.0679	12.509750	0.000287	2.865089	0.485359	0.005730
 809	4.0400e-01	8.0786	12.549091	0.000393	3.934153	0.666463	0.007868
 810	4.0450e-01	8.0859	12.590143	0.000411	4.105203	0.695440	0.008210
 811	4.0500e-01	8.0969	12.605538	0.000154	1.539451	0.260790	0.003079
 812	4.0550e-01	8.1067	12.650011	0.000445	4.447303	0.753393	0.008895
 813	4.0600e-01	8.1189	12.689352	0.000393	3.934153	0.666463	0.007868
 814	4.0650e-01	8.1274	12.711589	0.000222	2.223651	0.376697	0.004447
 815	4.0700e-01	8.1369	12.744516	0.000329	3.292715	0.557801	0.006585
 816	4.0750e-01	8.1454	12.768463	0.000239	2.394702	0.405673	0.004789
 817	4.0800e-01	8.1573	12.794121	0.000257	2.565752	0.434650	0.005132
 818	4.0850e-01	8.1659	12.852278	0.000582	5.815704	0.985207	0.011631
 819	4.0900e-01	8.1750	12.879218	0.000269	2.694039	0.456383	0.005388
 820	4.0950e-01	8.1842	12.905731	0.000265	2.651277	0.449138	0.005303
 821	4.1000e-01	8.1998	12.944217	0.000385	3.848627	0.651975	0.007697
 822	4.1050e-01	8.2050	12.981420	0.000372	3.720340	0.630243	0.007441
 823	4.1100e-01	8.2159	13.022045	0.000406	4.062440	0.688196	0.008125
 824	4.1150e-01	8.2263	13.042571	0.000205	2.052601	0.347720	0.004105
 825	4.1200e-01	8.2388	13.075498	0.000329	3.292715	0.557801	0.006585
 826	4.1250e-01	8.2465	13.113557	0.000381	3.805865	0.644731	0.007612
 827	4.1300e-01	8.2568	13.136221	0.000227	2.266414	0.383941	0.004533
 828	4.1350e-01	8.2666	13.180266	0.000440	4.404540	0.746149	0.008809
 829	4.1400e-01	8.2776	13.204641	0.000244	2.437464	0.412918	0.004875
 830	4.1450e-01	8.2855	13.238423	0.000338	3.378240	0.572289	0.006756
 831	4.1500e-01	8.2965	13.260232	0.000218	2.180889	0.369453	0.004362
 832	4.1550e-01	8.3057	13.296580	0.000363	3.634815	0.615754	0.007270
 833	4.1600e-01	8.3170	13.346185	0.000496	4.960453	0.840324	0.009921
 834	4.1650e-01	8.3264	13.363717	0.000175	1.753264	0.297011	0.003507
 835	4.1700e-01	8.3374	13.399638	0.000359	3.592052	0.608510	0.007184
 836	4.1750e-01	8.3478	13.446249	0.000466	4.661115	0.789614	0.009322
 837	4.1800e-01	8.3539	13.496281	0.000500	5.003216	0.847568	0.010006
 838	4.1850e-01	8.3667	13.506117	0.000098	0.983538	0.166616	0.001967
 839	4.1900e-01	8.3777	13.540327	0.000342	3.421002	0.579533	0.006842
 840	4.1950e-01	8.3875	13.563418	0.000231	2.309176	0.391185	0.004618
 841	4.2000e-01	8.3951	13.610457	0.000470	4.703878	0.796859	0.009408
 842	4.2050e-01	8.4076	13.639963	0.000295	2.950614	0.499848	0.005901
 843	4.2100e-01	8.4183	13.664338	0.000244	2.437464	0.412918	0.004875
 844	4.2150e-01	8.4250	13.708811	0.000445	4.447303	0.753393	0.008895
 845	4.2200e-01	8.4375	13.745587	0.000368	3.677577	0.622998	0.007355
 846	4.2250e-01	8.4482	13.770389	0.000248	2.480227	0.420162	0.004960
 847	4.2300e-01	8.4558	13.817856	0.000475	4.746641	0.804103	0.009493
 848	4.2350e-01	8.4650	13.847789	0.000299	2.993377	0.507092	0.005987
 849	4.2400e-01	8.4802	13.871736	0.000239	2.394702	0.405673	0.004789
 850	4.2450e-01	8.4875	13.917920	0.000462	4.618353	0.782370	0.009237
 851	4.2500e-01	8.4973	13.939301	0.000214	2.138126	0.362208	0.004276
 852	4.2550e-01	8.5077	13.985057	0.000458	4.575590	0.775126	0.009151
 853	4.2600e-01	8.5175	14.005583	0.000205	2.052601	0.347720	0.004105
 854	4.2650e-01	8.5278	14.034234	0.000287	2.865089	0.485359	0.005730
 855	4.2700e-01	8.5358	14.088970	0.000547	5.473604	0.927254	0.010947
 856	4.2750e-01	8.5455	14.121897	0.000329	3.292715	0.557801	0.006585
 857	4.2800e-01	8.5573	14.159100	0.000372	3.720340	0.630243	0.007441
 858	4.2850e-01	8.5657	14.181765	0.000227	2.266414	0.383941	0.004533
 859	4.2900e-01	8.5760	14.217258	0.000355	3.549290	0.601266	0.007099
 860	4.2950e-01	8.5876	14.261303	0.000440	4.404540	0.746149	0.008809
 861	4.3000e-01	8.5974	14.279263	0.000180	1.796026	0.304255	0.003592
 862	4.3050e-01	8.6060	14.321598	0.000423	4.233490	0.717173	0.008467
 863	4.3100e-01	8.6182	14.338275	0.000167	1.667739	0.282523	0.003335
 864	4.3150e-01	8.6273	14.377617	0.000393	3.934153	0.666463	0.007868
 865	4.3200e-01	8.6346	14.413965	0.000363	3.634815	0.615754	0.007270
 866	4.3250e-01	8.6450	14.468701	0.000547	5.473604	0.927254	0.010947
 867	4.3300e-01	8.6557	14.487089	0.000184	1.838789	0.311499	0.003678
 868	4.3350e-01	8.6694	14.528569	0.000415	4.147965	0.702684	0.008296
 869	4.3400e-01	8.6771	14.559358	0.000308	3.078902	0.521580	0.006158
 870	4.3450e-01	8.6847	14.599127	0.000398	3.976915	0.673708	0.007954
 871	4.3500e-01	8.6963	14.622646	0.000235	2.351939	0.398429	0.004704
 872	4.3550e-01	8.7030	14.666264	0.000436	4.361778	0.738905	0.008724
 873	4.3600e-01	8.7170	14.690639	0.000244	2.437464	0.412918	0.004875
 874	4.3650e-01	8.7280	14.727414	0.000368	3.677577	0.622998	0.007355
 875	4.3700e-01	8.7341	14.787282	0.000599	5.986754	1.014184	0.011974
 876	4.3750e-01	8.7445	14.818071	0.000308	3.078902	0.521580	0.006158
 877	4.3800e-01	8.7592	14.839025	0.000210	2.095364	0.354964	0.004191
 878	4.3850e-01	8.7674	14.872379	0.000334	3.335477	0.565045	0.006671
 879	4.3900e-01	8.7744	14.899747	0.000274	2.736802	0.463627	0.005474
 880	4.3950e-01	8.7860	14.945503	0.000458	4.575590	0.775126	0.009151
 881	4.4000e-01	8.7964	14.991259	0.000458	4.575590	0.775126	0.009151
 882	4.4050e-01	8.8043	15.012641	0.000214	2.138126	0.362208	0.004276
 883	4.4100e-01	8.8177	15.043002	0.000304	3.036139	0.514336	0.006072
 884	4.4150e-01	8.8269	15.075929	0.000329	3.292715	0.557801	0.006585
 885	4.4200e-01	8.8373	15.112705	0.000368	3.677577	0.622998	0.007355
 886	4.4250e-01	8.8464	15.133231	0.000205	2.052601	0.347720	0.004105
 887	4.4300e-01	8.8550	15.179414	0.000462	4.618353	0.782370	0.009237
 888	4.4350e-01	8.8681	15.227308	0.000479	4.789403	0.811347	0.009579
 889	4.4400e-01	8.8757	15.255959	0.000287	2.865089	0.485359	0.005730
 890	4.4450e-01	8.8855	15.288459	0.000325	3.249952	0.550557	0.006500
 891	4.4500e-01	8.8947	15.335070	0.000466	4.661115	0.789614	0.009322
 892	4.4550e-01	8.9075	15.359445	0.000244	2.437464	0.412918	0.004875
 893	4.4600e-01	8.9178	15.392799	0.000334	3.335477	0.565045	0.006671
 894	4.4650e-01	8.9249	15.441121	0.000483	4.832166	0.818591	0.009664
 895	4.4700e-01	8.9337	15.467206	0.000261	2.608514	0.441894	0.005217
 896	4.4750e-01	8.9471	15.488587	0.000214	2.138126	0.362208	0.004276
 897	4.4800e-01	8.9575	15.538192	0.000496	4.960453	0.840324	0.009921
 898	4.4850e-01	8.9682	15.584803	0.000466	4.661115	0.789614	0.009322
 899	4.4900e-01	8.9771	15.610033	0.000252	2.522989	0.427406	0.005046
 900	4.4950e-01	8.9862	15.654934	0.000449	4.490065	0.760638	0.008980
 901	4.5000e-01	8.9941	15.686578	0.000316	3.164427	0.536068	0.006329
 902	4.5050e-01	9.0057	15.713946	0.000274	2.736802	0.463627	0.005474
 903	4.5100e-01	9.0192	15.760985	0.000470	4.703878	0.796859	0.009408
 904	4.5150e-01	9.0265	15.799471	0.000385	3.848627	0.651975	0.007697
 905	4.5200e-01	9.0369	15.834536	0.000351	3.506527	0.594022	0.007013
 906	4.5250e-01	9.0466	15.872167	0.000376	3.763102	0.637487	0.007526
 907	4.5300e-01	9.0564	15.887989	0.000158	1.582214	0.268034	0.003164
 908	4.5350e-01	9.0674	15.935456	0.000475	4.746641	0.804103	0.009493
 909	4.5400e-01	9.0784	15.965817	0.000304	3.036139	0.514336	0.006072
 910	4.5450e-01	9.0863	16.010290	0.000445	4.447303	0.753393	0.008895
 911	4.5500e-01	9.0967	16.046638	0.000363	3.634815	0.615754	0.007270
 912	4.5550e-01	9.1046	16.101374	0.000547	5.473604	0.927254	0.010947
 913	4.5600e-01	9.1171	16.112493	0.000111	1.111826	0.188348	0.002224
 914	4.5650e-01	9.1266	16.146275	0.000338	3.378240	0.572289	0.006756
 915	4.5700e-01	9.1385	16.193314	0.000470	4.703878	0.796859	0.009408
 916	4.5750e-01	9.1443	16.234366	0.000411	4.105203	0.695440	0.008210
 917	4.5800e-01	9.1547	16.274135	0.000398	3.976915	0.673708	0.007954
 918	4.5850e-01	9.1663	16.314332	0.000402	4.019678	0.680952	0.008039
 919	4.5900e-01	9.1766	16.338279	0.000239	2.394702	0.405673	0.004789
 920	4.5950e-01	9.1858	16.378903	0.000406	4.062440	0.688196	0.008125
 921	4.6000e-01	9.1986	16.413541	0.000346	3.463765	0.586778	0.006928
 922	4.6050e-01	9.2078	16.462290	0.000487	4.874928	0.825835	0.009750
 923	4.6100e-01	9.2175	16.493934	0.000316	3.164427	0.536068	0.006329
 924	4.6150e-01	9.2239	16.537125	0.000432	4.319015	0.731661	0.008638
 925	4.6200e-01	9.2395	16.575183	0.000381	3.805865	0.644731	0.007612
 926	4.6250e-01	9.2480	16.609821	0.000346	3.463765	0.586778	0.006928
 927	4.6300e-01	9.2566	16.653866	0.000440	4.404540	0.746149	0.008809
 928	4.6350e-01	9.2676	16.683372	0.000295	2.950614	0.499848	0.005901
 929	4.6400e-01	9.2764	16.716300	0.000329	3.292715	0.557801	0.006585
 930	4.6450e-01	9.2838	16.759917	0.000436	4.361778	0.738905	0.008724
 931	4.6500e-01	9.2944	16.806101	0.000462	4.618353	0.782370	0.009237
 932	4.6550e-01	9.3060	16.851857	0.000458	4.575590	0.775126	0.009151
 933	4.6600e-01	9.3170	16.883501	0.000316	3.164427	0.536068	0.006329
 934	4.6650e-01	9.3262	16.909586	0.000261	2.608514	0.441894	0.005217
 935	4.6700e-01	9.3390	16.945507	0.000359	3.592052	0.608510	0.007184
 936	4.6750e-01	9.3463	17.002809	0.000573	5.730179	0.970719	0.011460
 937	4.6800e-01	9.3555	17.036163	0.000334	3.335477	0.565045	0.006671
 938	4.6850e-01	9.3628	17.088334	0.000522	5.217028	0.883789	0.010434
 939	4.6900e-01	9.3756	17.110998	0.000227	2.266414	0.383941	0.004533
 940	4.6950e-01	9.3854	17.134517	0.000235	2.351939	0.398429	0.004704
 941	4.7000e-01	9.3970	17.182839	0.000483	4.832166	0.818591	0.009664
 942	4.7050e-01	9.4073	17.241851	0.000590	5.901229	0.999695	0.011802
 943	4.7100e-01	9.4147	17.260667	0.000188	1.881551	0.318743	0.003763
 944	4.7150e-01	9.4263	17.311554	0.000509	5.088741	0.862056	0.010177
 945	4.7200e-01	9.4391	17.338922	0.000274	2.736802	0.463627	0.005474
 946	4.7250e-01	9.4470	17.371849	0.000329	3.292715	0.557801	0.006585
 947	4.7300e-01	9.4568	17.425730	0.000539	5.388078	0.912765	0.010776
 948	4.7350e-01	9.4666	17.471486	0.000458	4.575590	0.775126	0.009151
 949	4.7400e-01	9.4777	17.503985	0.000325	3.249952	0.550557	0.006500
 950	4.7450e-01	9.4879	17.527077	0.000231	2.309176	0.391185	0.004618
 951	4.7500e-01	9.4952	17.587372	0.000603	6.029516	1.021428	0.012059
 952	4.7550e-01	9.5074	17.632701	0.000453	4.532828	0.767882	0.009066
 953	4.7600e-01	9.5172	17.665628	0.000329	3.292715	0.557801	0.006585
 954	4.7650e-01	9.5276	17.715232	0.000496	4.960453	0.840324	0.009921
 955	4.7700e-01	9.5349	17.755001	0.000398	3.976915	0.673708	0.007954
 956	4.7750e-01	9.5483	17.777666	0.000227	2.266414	0.383941	0.004533
 957	4.7800e-01	9.5569	17.833257	0.000556	5.559129	0.941742	0.011118
 958	4.7850e-01	9.5624	17.873026	0.000398	3.976915	0.673708	0.007954
 959	4.7900e-01	9.5758	17.915361	0.000423	4.233490	0.717173	0.008467
 960	4.7950e-01	9.5868	17.952992	0.000376	3.763102	0.637487	0.007526
 961	4.8000e-01	9.5984	17.997465	0.000445	4.447303	0.753393	0.008895
 962	4.8050e-01	9.6063	18.026116	0.000287	2.865089	0.485359	0.005730
 963	4.8100e-01	9.6149	18.064602	0.000385	3.848627	0.651975	0.007697
 964	4.8150e-01	9.6246	18.126608	0.000620	6.200566	1.050404	0.012401
 965	4.8200e-01	9.6378	18.155686	0.000291	2.907852	0.492603	0.005816
 966	4.8250e-01	9.6448	18.207857	0.000522	5.217028	0.883789	0.010434
 967	4.8300e-01	9.6582	18.244205	0.000363	3.634815	0.615754	0.007270
 968	4.8350e-01	9.6680	18.282691	0.000385	3.848627	0.651975	0.007697
 969	4.8400e-01	9.6771	18.337427	0.000547	5.473604	0.927254	0.010947
 970	4.8450e-01	9.6844	18.374203	0.000368	3.677577	0.622998	0.007355
 971	4.8500e-01	9.6960	18.407558	0.000334	3.335477	0.565045	0.006671
 972	4.8550e-01	9.7055	18.455024	0.000475	4.746641	0.804103	0.009493
 973	4.8600e-01	9.7162	18.496931	0.000419	4.190728	0.709928	0.008381
 974	4.8650e-01	9.7272	18.547391	0.000505	5.045978	0.854812	0.010092
 975	4.8700e-01	9.7327	18.596568	0.000492	4.917691	0.833079	0.009835
 976	4.8750e-01	9.7479	18.626074	0.000295	2.950614	0.499848	0.005901
 977	4.8800e-01	9.7601	18.663277	0.000372	3.720340	0.630243	0.007441
 978	4.8850e-01	9.7687	18.695777	0.000325	3.249952	0.550557	0.006500
 979	4.8900e-01	9.7778	18.768046	0.000723	7.226867	1.224264	0.014454
 980	4.8950e-01	9.7876	18.803966	0.000359	3.592052	0.608510	0.007184
 981	4.9000e-01	9.7955	18.859130	0.000552	5.516366	0.934498	0.011033
 982	4.9050e-01	9.8056	18.888636	0.000295	2.950614	0.499848	0.005901
 983	4.9100e-01	9.8181	18.933109	0.000445	4.447303	0.753393	0.008895
 984	4.9150e-01	9.8248	18.996825	0.000637	6.371617	1.079381	0.012743
 985	4.9200e-01	9.8358	19.024193	0.000274	2.736802	0.463627	0.005474
 986	4.9250e-01	9.8486	19.077646	0.000535	5.345316	0.905521	0.010691
 987	4.9300e-01	9.8572	19.103304	0.000257	2.565752	0.434650	0.005132
 988	4.9350e-01	9.8651	19.152053	0.000487	4.874928	0.825835	0.009750
 989	4.9400e-01	9.8749	19.210638	0.000586	5.858466	0.992451	0.011717
 990	4.9450e-01	9.8859	19.245275	0.000346	3.463765	0.586778	0.006928
 991	4.9500e-01	9.8975	19.301294	0.000560	5.601891	0.948986	0.011204
 992	4.9550e-01	9.9042	19.336787	0.000355	3.549290	0.601266	0.007099
 993	4.9600e-01	9.9182	19.388530	0.000517	5.174266	0.876544	0.010349
 994	4.9650e-01	9.9258	19.433003	0.000445	4.447303	0.753393	0.008895
 995	4.9700e-01	9.9371	19.475338	0.000423	4.233490	0.717173	0.008467
 996	4.9750e-01	9.9481	19.522377	0.000470	4.703878	0.796859	0.009408
 997	4.9800e-01	9.9554	19.580534	0.000582	5.815704	0.985207	0.011631
 998	4.9850e-01	9.9670	19.628855	0.000483	4.832166	0.818591	0.009664
 999	4.9900e-01	9.9762	19.662638	0.000338	3.378240	0.572289	0.006756
1000	4.9950e-01	9.9860	19.717801	0.000552	5.516366	0.934498	0.011033
1001	5.0000e-01	9.9957	19.773393	0.000556	5.559129	0.941742	0.011118
1002	5.0050e-01	9.9878	19.734906	0.000385	3.848627	0.651975	-0.007697
1003	5.0100e-01	9.9750	19.760992	-0.000261	-2.608514	-0.441894	0.005217
1004	5.0150e-01	9.9683	19.743031	0.000180	1.796026	0.304255	-0.003592
1005	5.0200e-01	9.9567	19.728064	0.000150	1.496688	0.253546	-0.002993
1006	5.0250e-01	9.9445	19.755005	-0.000269	-2.694039	-0.456383	0.005388
1007	5.0300e-01	9.9371	19.725926	0.000291	2.907852	0.492603	-0.005816
1008	5.0350e-01	9.9261	19.740893	-0.000150	-1.496688	-0.253546	0.002993
1009	5.0400e-01	9.9164	19.736617	0.000043	0.427625	0.072442	-0.000855
1010	5.0450e-01	9.9048	19.726782	0.000098	0.983538	0.166616	-0.001967
1011	5.0500e-01	9.8993	19.737472	-0.000107	-1.069063	-0.181104	0.002138
1012	5.0550e-01	9.8859	19.731485	0.000060	0.598675	0.101418	-0.001197
1013	5.0600e-01	9.8779	19.703690	0.000278	2.779564	0.470871	-0.005559
1014	5.0650e-01	9.8676	19.713953	-0.000103	-1.026301	-0.173860	0.002053
1015	5.0700e-01	9.8560	19.713525	0.000004	0.042763	0.007244	-0.000086
1016	5.0750e-01	9.8450	19.721222	-0.000077	-0.769725	-0.130395	0.001539
1017	5.0800e-01	9.8370	19.691289	0.000299	2.993377	0.507092	-0.005987
1018	5.0850e-01	9.8257	19.685302	0.000060	0.598675	0.101418	-0.001197
1019	5.0900e-01	9.8157	19.685302	-0.000000	-0.000000	-0.000000	0.000000
1020	5.0950e-01	9.8071	19.686585	-0.000013	-0.128288	-0.021733	0.000257
1021	5.1000e-01	9.7974	19.666059	0.000205	2.052601	0.347720	-0.004105
1022	5.1050e-01	9.7864	19.667769	-0.000017	-0.171050	-0.028977	0.000342
1023	5.1100e-01	9.7760	19.669052	-0.000013	-0.128288	-0.021733	0.000257
1024	5.1150e-01	9.7644	19.666059	0.000030	0.299338	0.050709	-0.000599
1025	5.1200e-01	9.7559	19.651092	0.000150	1.496688	0.253546	-0.002993
1026	5.1250e-01	9.7461	19.658789	-0.000077	-0.769725	-0.130395	0.001539
1027	5.1300e-01	9.7363	19.616882	0.000419	4.190728	0.709928	-0.008381
1028	5.1350e-01	9.7235	19.628855	-0.000120	-1.197351	-0.202837	0.002395
1029	5.1400e-01	9.7162	19.609185	0.000197	1.967076	0.333232	-0.003934
1030	5.1450e-01	9.7052	19.610895	-0.000017	-0.171050	-0.028977	0.000342
1031	5.1500e-01	9.6942	19.592507	0.000184	1.838789	0.311499	-0.003678
1032	5.1550e-01	9.6875	19.583099	0.000094	0.940776	0.159372	-0.001882
1033	5.1600e-01	9.6796	19.575402	0.000077	0.769725	0.130395	-0.001539
1034	5.1650e-01	9.6637	19.570271	0.000051	0.513150	0.086930	-0.001026
1035	5.1700e-01	9.6552	19.547607	0.000227	2.266414	0.383941	-0.004533
1036	5.1750e-01	9.6454	19.546751	0.000009	0.085525	0.014488	-0.000171
1037	5.1800e-01	9.6375	19.507410	0.000393	3.934153	0.666463	-0.007868
1038	5.1850e-01	9.6259	19.532212	-0.000248	-2.480227	-0.420162	0.004960
1039	5.1900e-01	9.6152	19.512969	0.000192	1.924314	0.325988	-0.003849
1040	5.1950e-01	9.6057	19.491588	0.000214	2.138126	0.362208	-0.004276
1041	5.2000e-01	9.5953	19.486456	0.000051	0.513150	0.086930	-0.001026
1042	5.2050e-01	9.5862	19.465503	0.000210	2.095364	0.354964	-0.004191
1043	5.2100e-01	9.5740	19.443694	0.000218	2.180889	0.369453	-0.004362
1044	5.2150e-01	9.5654	19.443694	-0.000000	-0.000000	-0.000000	0.000000
1045	5.2200e-01	9.5557	19.441128	0.000026	0.256575	0.043465	-0.000513
1046	5.2250e-01	9.5465	19.392379	0.000487	4.874928	0.825835	-0.009750
1047	5.2300e-01	9.5377	19.411622	-0.000192	-1.924314	-0.325988	0.003849
1048	5.2350e-01	9.5270	19.379122	0.000325	3.249952	0.550557	-0.006500
1049	5.2400e-01	9.5160	19.366721	0.000124	1.240113	0.210081	-0.002480
1050	5.2450e-01	9.5056	19.371853	-0.000051	-0.513150	-0.086930	0.001026
1051	5.2500e-01	9.4977	19.346623	0.000252	2.522989	0.427406	-0.005046
1052	5.2550e-01	9.4849	19.347050	-0.000004	-0.042763	-0.007244	0.000086
1053	5.2600e-01	9.4769	19.323103	0.000239	2.394702	0.405673	-0.004789
1054	5.2650e-01	9.4641	19.315834	0.000073	0.726963	0.123151	-0.001454
1055	5.2700e-01	9.4519	19.312413	0.000034	0.342100	0.057953	-0.000684
1056	5.2750e-01	9.4482	19.278203	0.000342	3.421002	0.579533	-0.006842
1057	5.2800e-01	9.4354	19.279058	-0.000009	-0.085525	-0.014488	0.000171
1058	5.2850e-01	9.4275	19.253828	0.000252	2.522989	0.427406	-0.005046
1059	5.2900e-01	9.4159	19.245703	0.000081	0.812488	0.137639	-0.001625
1060	5.2950e-01	9.4092	19.216625	0.000291	2.907852	0.492603	-0.005816
1061	5.3000e-01	9.3961	19.205079	0.000115	1.154588	0.195593	-0.002309
1062	5.3050e-01	9.3854	19.198237	0.000068	0.684200	0.115907	-0.001368
1063	5.3100e-01	9.3774	19.180276	0.000180	1.796026	0.304255	-0.003592
1064	5.3150e-01	9.3646	19.170441	0.000098	0.983538	0.166616	-0.001967
1065	5.3200e-01	9.3567	19.154619	0.000158	1.582214	0.268034	-0.003164
1066	5.3250e-01	9.3445	19.128961	0.000257	2.565752	0.434650	-0.005132
1067	5.3300e-01	9.3378	19.119554	0.000094	0.940776	0.159372	-0.001882
1068	5.3350e-01	9.3268	19.097317	0.000222	2.223651	0.376697	-0.004447
1069	5.3400e-01	9.3158	19.088337	0.000090	0.898013	0.152128	-0.001796
1070	5.3450e-01	9.3060	19.066956	0.000214	2.138126	0.362208	-0.004276
1071	5.3500e-01	9.2993	19.048568	0.000184	1.838789	0.311499	-0.003678
1072	5.3550e-01	9.2883	19.026759	0.000218	2.180889	0.369453	-0.004362
1073	5.3600e-01	9.2752	19.007943	0.000188	1.881551	0.318743	-0.003763
1074	5.3650e-01	9.2657	19.001529	0.000064	0.641438	0.108663	-0.001283
1075	5.3700e-01	9.2572	18.987417	0.000141	1.411163	0.239058	-0.002822
1076	5.3750e-01	9.2468	18.951069	0.000363	3.634815	0.615754	-0.007270
1077	5.3800e-01	9.2358	18.950642	0.000004	0.042763	0.007244	-0.000086
1078	5.3850e-01	9.2279	18.928833	0.000218	2.180889	0.369453	-0.004362
1079	5.3900e-01	9.2175	18.905741	0.000231	2.309176	0.391185	-0.004618
1080	5.3950e-01	9.2047	18.880084	0.000257	2.565752	0.434650	-0.005132
1081	5.4000e-01	9.1980	18.862978	0.000171	1.710501	0.289767	-0.003421
1082	5.4050e-01	9.1858	18.842452	0.000205	2.052601	0.347720	-0.004105
1083	5.4100e-01	9.1754	18.826630	0.000158	1.582214	0.268034	-0.003164
1084	5.4150e-01	9.1653	18.821071	0.000056	0.555913	0.094174	-0.001112
1085	5.4200e-01	9.1565	18.798835	0.000222	2.223651	0.376697	-0.004447
1086	5.4250e-01	9.1467	18.779164	0.000197	1.967076	0.333232	-0.003934
1087	5.4300e-01	9.1364	18.772322	0.000068	0.684200	0.115907	-0.001368
1088	5.4350e-01	9.1248	18.743671	0.000287	2.865089	0.485359	-0.005730
1089	5.4400e-01	9.1132	18.721862	0.000218	2.180889	0.369453	-0.004362
1090	5.4450e-01	9.1064	18.707323	0.000145	1.453926	0.246302	-0.002908
1091	5.4500e-01	9.0985	18.689790	0.000175	1.753264	0.297011	-0.003507
1092	5.4550e-01	9.0875	18.666698	0.000231	2.309176	0.391185	-0.004618
1093	5.4600e-01	9.0784	18.645745	0.000210	2.095364	0.354964	-0.004191
1094	5.4650e-01	9.0692	18.622225	0.000235	2.351939	0.398429	-0.004704
1095	5.4700e-01	9.0540	18.617522	0.000047	0.470388	0.079686	-0.000941
1096	5.4750e-01	9.0460	18.594002	0.000235	2.351939	0.398429	-0.004704
1097	5.4800e-01	9.0369	18.574331	0.000197	1.967076	0.333232	-0.003934
1098	5.4850e-01	9.0266	18.554233	0.000201	2.009839	0.340476	-0.004020
1099	5.4900e-01	9.0189	18.526865	0.000274	2.736802	0.463627	-0.005474
1100	5.4950e-01	9.0070	18.519168	0.000077	0.769725	0.130395	-0.001539
1101	5.5000e-01	8.9948	18.506767	0.000124	1.240113	0.210081	-0.002480
1102	5.5050e-01	8.9862	18.471274	0.000355	3.549290	0.601266	-0.007099
1103	5.5100e-01	8.9737	18.454169	0.000171	1.710501	0.289767	-0.003421
1104	5.5150e-01	8.9673	18.431932	0.000222	2.223651	0.376697	-0.004447
1105	5.5200e-01	8.9542	18.404564	0.000274	2.736802	0.463627	-0.005474
1106	5.5250e-01	8.9453	18.387032	0.000175	1.753264	0.297011	-0.003507
1107	5.5300e-01	8.9371	18.369499	0.000175	1.753264	0.297011	-0.003507
1108	5.5350e-01	8.9252	18.356670	0.000128	1.282876	0.217325	-0.002566
1109	5.5400e-01	8.9142	18.329302	0.000274	2.736802	0.463627	-0.005474
1110	5.5450e-01	8.9069	18.318612	0.000107	1.069063	0.181104	-0.002138
1111	5.5500e-01	8.8954	18.283974	0.000346	3.463765	0.586778	-0.006928
1112	5.5550e-01	8.8867	18.253185	0.000308	3.078902	0.521580	-0.006158
1113	5.5600e-01	8.8776	18.245488	0.000077	0.769725	0.130395	-0.001539
1114	5.5650e-01	8.8647	18.242067	0.000034	0.342100	0.057953	-0.000684
1115	5.5700e-01	8.8556	18.215981	0.000261	2.608514	0.441894	-0.005217
1116	5.5750e-01	8.8458	18.190324	0.000257	2.565752	0.434650	-0.005132
1117	5.5800e-01	8.8367	18.147561	0.000428	4.276253	0.724417	-0.008553
1118	5.5850e-01	8.8239	18.142858	0.000047	0.470388	0.079686	-0.000941
1119	5.5900e-01	8.8129	18.136016	0.000068	0.684200	0.115907	-0.001368
1120	5.5950e-01	8.8049	18.106082	0.000299	2.993377	0.507092	-0.005987
1121	5.6000e-01	8.7964	18.072299	0.000338	3.378240	0.572289	-0.006756
1122	5.6050e-01	8.7872	18.056050	0.000162	1.624976	0.275278	-0.003250
1123	5.6100e-01	8.7775	18.045359	0.000107	1.069063	0.181104	-0.002138
1124	5.6150e-01	8.7666	18.013287	0.000321	3.207190	0.543313	-0.006414
1125	5.6200e-01	8.7567	17.994472	0.000188	1.881551	0.318743	-0.003763
1126	5.6250e-01	8.7457	17.986347	0.000081	0.812488	0.137639	-0.001625
1127	5.6300e-01	8.7357	17.949999	0.000363	3.634815	0.615754	-0.007270
1128	5.6350e-01	8.7268	17.929473	0.000205	2.052601	0.347720	-0.004105
1129	5.6400e-01	8.7177	17.891414	0.000381	3.805865	0.644731	-0.007612
1130	5.6450e-01	8.7067	17.877730	0.000137	1.368401	0.231813	-0.002737
1131	5.6500e-01	8.6951	17.865756	0.000120	1.197351	0.202837	-0.002395
1132	5.6550e-01	8.6862	17.866612	-0.000009	-0.085525	-0.014488	0.000171
1133	5.6600e-01	8.6737	17.817007	0.000496	4.960453	0.840324	-0.009921
1134	5.6650e-01	8.6652	17.785790	0.000312	3.121665	0.528824	-0.006243
1135	5.6700e-01	8.6545	17.778521	0.000073	0.726963	0.123151	-0.001454
1136	5.6750e-01	8.6450	17.743028	0.000355	3.549290	0.601266	-0.007099
1137	5.6800e-01	8.6365	17.736614	0.000064	0.641438	0.108663	-0.001283
1138	5.6850e-01	8.6267	17.716515	0.000201	2.009839	0.340476	-0.004020
1139	5.6900e-01	8.6169	17.681450	0.000351	3.506527	0.594022	-0.007013
1140	5.6950e-01	8.6053	17.656220	0.000252	2.522989	0.427406	-0.005046
1141	5.7000e-01	8.6023	17.650661	0.000056	0.555913	0.094174	-0.001112
1142	5.7050e-01	8.5852	17.611319	0.000393	3.934153	0.666463	-0.007868
1143	5.7100e-01	8.5773	17.606188	0.000051	0.513150	0.086930	-0.001026
1144	5.7150e-01	8.5678	17.567274	0.000389	3.891390	0.659219	-0.007783
1145	5.7200e-01	8.5602	17.550597	0.000167	1.667739	0.282523	-0.003335
1146	5.7250e-01	8.5455	17.520663	0.000299	2.993377	0.507092	-0.005987
1147	5.7300e-01	8.5333	17.505268	0.000154	1.539451	0.260790	-0.003079
1148	5.7350e-01	8.5254	17.485170	0.000201	2.009839	0.340476	-0.004020
1149	5.7400e-01	8.5156	17.463361	0.000218	2.180889	0.369453	-0.004362
1150	5.7450e-01	8.5065	17.436848	0.000265	2.651277	0.449138	-0.005303
1151	5.7500e-01	8.4943	17.417605	0.000192	1.924314	0.325988	-0.003849
1152	5.7550e-01	8.4888	17.373132	0.000445	4.447303	0.753393	-0.008895
1153	5.7600e-01	8.4772	17.357738	0.000154	1.539451	0.260790	-0.003079
1154	5.7650e-01	8.4698	17.332935	0.000248	2.480227	0.420162	-0.004960
1155	5.7700e-01	8.4570	17.305567	0.000274	2.736802	0.463627	-0.005474
1156	5.7750e-01	8.4460	17.284186	0.000214	2.138126	0.362208	-0.004276
1157	5.7800e-01	8.4363	17.268364	0.000158	1.582214	0.268034	-0.003164
1158	5.7850e-01	8.4265	17.232443	0.000359	3.592052	0.608510	-0.007184
1159	5.7900e-01	8.4149	17.204648	0.000278	2.779564	0.470871	-0.005559
1160	5.7950e-01	8.4064	17.206786	-0.000021	-0.213813	-0.036221	0.000428
1161	5.8000e-01	8.3948	17.158892	0.000479	4.789403	0.811347	-0.009579
1162	5.8050e-01	8.3850	17.154616	0.000043	0.427625	0.072442	-0.000855
1163	5.8100e-01	8.3752	17.112281	0.000423	4.233490	0.717173	-0.008467
1164	5.8150e-01	8.3664	17.105866	0.000064	0.641438	0.108663	-0.001283
1165	5.8200e-01	8.3575	17.077643	0.000282	2.822327	0.478115	-0.005645
1166	5.8250e-01	8.3478	17.051130	0.000265	2.651277	0.449138	-0.005303
1167	5.8300e-01	8.3331	17.025045	0.000261	2.608514	0.441894	-0.005217
1168	5.8350e-01	8.3246	16.996822	0.000282	2.822327	0.478115	-0.005645
1169	5.8400e-01	8.3160	16.985704	0.000111	1.111826	0.188348	-0.002224
1170	5.8450e-01	8.3051	16.957908	0.000278	2.779564	0.470871	-0.005559
1171	5.8500e-01	8.2986	16.915573	0.000423	4.233490	0.717173	-0.008467
1172	5.8550e-01	8.2892	16.910869	0.000047	0.470388	0.079686	-0.000941
1173	5.8600e-01	8.2788	16.895902	0.000150	1.496688	0.253546	-0.002993
1174	5.8650e-01	8.2681	16.848436	0.000475	4.746641	0.804103	-0.009493
1175	5.8700e-01	8.2562	16.822351	0.000261	2.608514	0.441894	-0.005217
1176	5.8750e-01	8.2472	16.793272	0.000291	2.907852	0.492603	-0.005816
1177	5.8800e-01	8.2352	16.786003	0.000073	0.726963	0.123151	-0.001454
1178	5.8850e-01	8.2257	16.751793	0.000342	3.421002	0.579533	-0.006842
1179	5.8900e-01	8.2166	16.746233	0.000056	0.555913	0.094174	-0.001112
1180	5.8950e-01	8.2074	16.715444	0.000308	3.078902	0.521580	-0.006158
1181	5.9000e-01	8.1970	16.679951	0.000355	3.549290	0.601266	-0.007099
1182	5.9050e-01	8.1879	16.673537	0.000064	0.641438	0.108663	-0.001283
1183	5.9100e-01	8.1781	16.642748	0.000308	3.078902	0.521580	-0.006158
1184	5.9150e-01	8.1659	16.623077	0.000197	1.967076	0.333232	-0.003934
1185	5.9200e-01	8.1586	16.579887	0.000432	4.319015	0.731661	-0.008638
1186	5.9250e-01	8.1476	16.572618	0.000073	0.726963	0.123151	-0.001454
1187	5.9300e-01	8.1375	16.541401	0.000312	3.121665	0.528824	-0.006243
1188	5.9350e-01	8.1262	16.517881	0.000235	2.351939	0.398429	-0.004704
1189	5.9400e-01	8.1158	16.502487	0.000154	1.539451	0.260790	-0.003079
1190	5.9450e-01	8.1073	16.468705	0.000338	3.378240	0.572289	-0.006756
1191	5.9500e-01	8.0957	16.444758	0.000239	2.394702	0.405673	-0.004789
1192	5.9550e-01	8.0878	16.417390	0.000274	2.736802	0.463627	-0.005474
1193	5.9600e-01	8.0750	16.391732	0.000257	2.565752	0.434650	-0.005132
1194	5.9650e-01	8.0670	16.372917	0.000188	1.881551	0.318743	-0.003763
1195	5.9700e-01	8.0566	16.333575	0.000393	3.934153	0.666463	-0.007868
1196	5.9750e-01	8.0457	16.302358	0.000312	3.121665	0.528824	-0.006243
1197	5.9800e-01	8.0347	16.284826	0.000175	1.753264	0.297011	-0.003507
1198	5.9850e-01	8.0267	16.270714	0.000141	1.411163	0.239058	-0.002822
1199	5.9900e-01	8.0151	16.235221	0.000355	3.549290	0.601266	-0.007099
1200	5.9950e-01	8.0054	16.220682	0.000145	1.453926	0.246302	-0.002908
1201	6.0000e-01	7.9980	16.195452	0.000252	2.522989	0.427406	-0.005046
1202	6.0050e-01	7.9846	16.159959	0.000355	3.549290	0.601266	-0.007099
1203	6.0100e-01	7.9781	16.121473	0.000385	3.848627	0.651975	-0.007697
1204	6.0150e-01	7.9651	16.119335	0.000021	0.213813	0.036221	-0.000428
1205	6.0200e-01	7.9578	16.082131	0.000372	3.720340	0.630243	-0.007441
1206	6.0250e-01	7.9462	16.053053	0.000291	2.907852	0.492603	-0.005816
1207	6.0300e-01	7.9352	16.026112	0.000269	2.694039	0.456383	-0.005388
1208	6.0350e-01	7.9272	16.002593	0.000235	2.351939	0.398429	-0.004704
1209	6.0400e-01	7.9169	15.984633	0.000180	1.796026	0.304255	-0.003592
1210	6.0450e-01	7.9065	15.963252	0.000214	2.138126	0.362208	-0.004276
1211	6.0500e-01	7.8937	15.932462	0.000308	3.078902	0.521580	-0.006158
1212	6.0550e-01	7.8851	15.890555	0.000419	4.190728	0.709928	-0.008381
1213	6.0600e-01	7.8760	15.882003	0.000086	0.855251	0.144883	-0.001711
1214	6.0650e-01	7.8635	15.854207	0.000278	2.779564	0.470871	-0.005559
1215	6.0700e-01	7.8571	15.829405	0.000248	2.480227	0.420162	-0.004960
1216	6.0750e-01	7.8456	15.796905	0.000325	3.249952	0.550557	-0.006500
1217	6.0800e-01	7.8363	15.773814	0.000231	2.309176	0.391185	-0.004618
1218	6.0850e-01	7.8265	15.754570	0.000192	1.924314	0.325988	-0.003849
1219	6.0900e-01	7.8162	15.726347	0.000282	2.822327	0.478115	-0.005645
1220	6.0950e-01	7.8064	15.700262	0.000261	2.608514	0.441894	-0.005217
1221	6.1000e-01	7.7969	15.656644	0.000436	4.361778	0.738905	-0.008724
1222	6.1050e-01	7.7844	15.643388	0.000133	1.325638	0.224569	-0.002651
1223	6.1100e-01	7.7753	15.622862	0.000205	2.052601	0.347720	-0.004105
1224	6.1150e-01	7.7655	15.588224	0.000346	3.463765	0.586778	-0.006928
1225	6.1200e-01	7.7539	15.572830	0.000154	1.539451	0.260790	-0.003079
1226	6.1250e-01	7.7460	15.547600	0.000252	2.522989	0.427406	-0.005046
1227	6.1300e-01	7.7368	15.502699	0.000449	4.490065	0.760638	-0.008980
1228	6.1350e-01	7.7235	15.488587	0.000141	1.411163	0.239058	-0.002822
1229	6.1400e-01	7.7161	15.458654	0.000299	2.993377	0.507092	-0.005987
1230	6.1450e-01	7.7054	15.441549	0.000171	1.710501	0.289767	-0.003421
1231	6.1500e-01	7.6947	15.412043	0.000295	2.950614	0.499848	-0.005901
1232	6.1550e-01	7.6862	15.386813	0.000252	2.522989	0.427406	-0.005046
1233	6.1600e-01	7.6758	15.353030	0.000338	3.378240	0.572289	-0.006756
1234	6.1650e-01	7.6685	15.337208	0.000158	1.582214	0.268034	-0.003164
1235	6.1700e-01	7.6566	15.305564	0.000316	3.164427	0.536068	-0.006329
1236	6.1750e-01	7.6453	15.284183	0.000214	2.138126	0.362208	-0.004276
1237	6.1800e-01	7.6355	15.246124	0.000381	3.805865	0.644731	-0.007612
1238	6.1850e-01	7.6233	15.224743	0.000214	2.138126	0.362208	-0.004276
1239	6.1900e-01	7.6160	15.213197	0.000115	1.154588	0.195593	-0.002309
1240	6.1950e-01	7.6086	15.163592	0.000496	4.960453	0.840324	-0.009921
1241	6.2000e-01	7.5952	15.159316	0.000043	0.427625	0.072442	-0.000855
1242	6.2050e-01	7.5864	15.106718	0.000526	5.259791	0.891033	-0.010520
1243	6.2100e-01	7.5764	15.090468	0.000162	1.624976	0.275278	-0.003250
1244	6.2150e-01	7.5659	15.053265	0.000372	3.720340	0.630243	-0.007441
1245	6.2200e-01	7.5549	15.051982	0.000013	0.128288	0.021733	-0.000257
1246	6.2250e-01	7.5464	15.004088	0.000479	4.789403	0.811347	-0.009579
1247	6.2300e-01	7.5366	14.991687	0.000124	1.240113	0.210081	-0.002480
1248	6.2350e-01	7.5269	14.961753	0.000299	2.993377	0.507092	-0.005987
1249	6.2400e-01	7.5171	14.935668	0.000261	2.608514	0.441894	-0.005217
1250	6.2450e-01	7.5049	14.915570	0.000201	2.009839	0.340476	-0.004020
1251	6.2500e-01	7.4951	14.879221	0.000363	3.634815	0.615754	-0.007270
1252	6.2550e-01	7.4841	14.846722	0.000325	3.249952	0.550557	-0.006500
1253	6.2600e-01	7.4750	14.833893	0.000128	1.282876	0.217325	-0.002566
1254	6.2650e-01	7.4677	14.791131	0.000428	4.276253	0.724417	-0.008553
1255	6.2700e-01	7.4554	14.772315	0.000188	1.881551	0.318743	-0.003763
1256	6.2750e-01	7.4475	14.744519	0.000278	2.779564	0.470871	-0.005559
1257	6.2800e-01	7.4396	14.711592	0.000329	3.292715	0.557801	-0.006585
1258	6.2850e-01	7.4268	14.688928	0.000227	2.266414	0.383941	-0.004533
1259	6.2900e-01	7.4158	14.644455	0.000445	4.447303	0.753393	-0.008895
1260	6.2950e-01	7.4081	14.639751	0.000047	0.470388	0.079686	-0.000941
1261	6.3000e-01	7.3975	14.610673	0.000291	2.907852	0.492603	-0.005816
1262	6.3050e-01	7.3877	14.573042	0.000376	3.763102	0.637487	-0.007526
1263	6.3100e-01	7.3761	14.539687	0.000334	3.335477	0.565045	-0.006671
1264	6.3150e-01	7.3663	14.520016	0.000197	1.967076	0.333232	-0.003934
1265	6.3200e-01	7.3566	14.487517	0.000325	3.249952	0.550557	-0.006500
1266	6.3250e-01	7.3450	14.476398	0.000111	1.111826	0.188348	-0.002224
1267	6.3300e-01	7.3376	14.440478	0.000359	3.592052	0.608510	-0.007184
1268	6.3350e-01	7.3242	14.427649	0.000128	1.282876	0.217325	-0.002566
1269	6.3400e-01	7.3163	14.385742	0.000419	4.190728	0.709928	-0.008381
1270	6.3450e-01	7.3080	14.359657	0.000261	2.608514	0.441894	-0.005217
1271	6.3500e-01	7.2998	14.322026	0.000376	3.763102	0.637487	-0.007526
1272	6.3550e-01	7.2858	14.300217	0.000218	2.180889	0.369453	-0.004362
1273	6.3600e-01	7.2766	14.272421	0.000278	2.779564	0.470871	-0.005559
1274	6.3650e-01	7.2656	14.251468	0.000210	2.095364	0.354964	-0.004191
1275	6.3700e-01	7.2589	14.218113	0.000334	3.335477	0.565045	-0.006671
1276	6.3750e-01	7.2516	14.189462	0.000287	2.865089	0.485359	-0.005730
1277	6.3800e-01	7.2363	14.168508	0.000210	2.095364	0.354964	-0.004191
1278	6.3850e-01	7.2278	14.137292	0.000312	3.121665	0.528824	-0.006243
1279	6.3900e-01	7.2180	14.126173	0.000111	1.111826	0.188348	-0.002224
1280	6.3950e-01	7.2076	14.077424	0.000487	4.874928	0.825835	-0.009750
1281	6.4000e-01	7.1967	14.052194	0.000252	2.522989	0.427406	-0.005046
1282	6.4050e-01	7.1851	14.031668	0.000205	2.052601	0.347720	-0.004105
1283	6.4100e-01	7.1762	13.997458	0.000342	3.421002	0.579533	-0.006842
1284	6.4150e-01	7.1680	13.971801	0.000257	2.565752	0.434650	-0.005132
1285	6.4200e-01	7.1570	13.960682	0.000111	1.111826	0.188348	-0.002224
1286	6.4250e-01	7.1460	13.912788	0.000479	4.789403	0.811347	-0.009579
1287	6.4300e-01	7.1375	13.887986	0.000248	2.480227	0.420162	-0.004960
1288	6.4350e-01	7.1271	13.865322	0.000227	2.266414	0.383941	-0.004533
1289	6.4400e-01	7.1155	13.820849	0.000445	4.447303	0.753393	-0.008895
1290	6.4450e-01	7.1059	13.803316	0.000175	1.753264	0.297011	-0.003507
1291	6.4500e-01	7.0935	13.772100	0.000312	3.121665	0.528824	-0.006243
1292	6.4550e-01	7.0862	13.730620	0.000415	4.147965	0.702684	-0.008296
1293	6.4600e-01	7.0764	13.721212	0.000094	0.940776	0.159372	-0.001882
1294	6.4650e-01	7.0679	13.684436	0.000368	3.677577	0.622998	-0.007355
1295	6.4700e-01	7.0557	13.669897	0.000145	1.453926	0.246302	-0.002908
1296	6.4750e-01	7.0447	13.623714	0.000462	4.618353	0.782370	-0.009237
1297	6.4800e-01	7.0349	13.610030	0.000137	1.368401	0.231813	-0.002737
1298	6.4850e-01	7.0282	13.563846	0.000462	4.618353	0.782370	-0.009237
1299	6.4900e-01	7.0172	13.565557	-0.000017	-0.171050	-0.028977	0.000342
1300	6.4950e-01	7.0074	13.511676	0.000539	5.388078	0.912765	-0.010776
1301	6.5000e-01	6.9971	13.490295	0.000214	2.138126	0.362208	-0.004276
1302	6.5050e-01	6.9867	13.465492	0.000248	2.480227	0.420162	-0.004960
1303	6.5100e-01	6.9745	13.439407	0.000261	2.608514	0.441894	-0.005217
1304	6.5150e-01	6.9659	13.412894	0.000265	2.651277	0.449138	-0.005303
1305	6.5200e-01	6.9556	13.375691	0.000372	3.720340	0.630243	-0.007441
1306	6.5250e-01	6.9495	13.342764	0.000329	3.292715	0.557801	-0.006585
1307	6.5300e-01	6.9373	13.313685	0.000291	2.907852	0.492603	-0.005816
1308	6.5350e-01	6.9246	13.295725	0.000180	1.796026	0.304255	-0.003592
1309	6.5400e-01	6.9144	13.278192	0.000175	1.753264	0.297011	-0.003507
1310	6.5450e-01	6.9080	13.228160	0.000500	5.003216	0.847568	-0.010006
1311	6.5500e-01	6.8982	13.207634	0.000205	2.052601	0.347720	-0.004105
1312	6.5550e-01	6.8848	13.172569	0.000351	3.506527	0.594022	-0.007013
1313	6.5600e-01	6.8774	13.156319	0.000162	1.624976	0.275278	-0.003250
1314	6.5650e-01	6.8652	13.119543	0.000368	3.677577	0.622998	-0.007355
1315	6.5700e-01	6.8536	13.099445	0.000201	2.009839	0.340476	-0.004020
1316	6.5750e-01	6.8451	13.072932	0.000265	2.651277	0.449138	-0.005303
1317	6.5800e-01	6.8361	13.022472	0.000505	5.045978	0.854812	-0.010092
1318	6.5850e-01	6.8256	12.988690	0.000338	3.378240	0.572289	-0.006756
1319	6.5900e-01	6.8176	12.960894	0.000278	2.779564	0.470871	-0.005559
1320	6.5950e-01	6.8042	12.960039	0.000009	0.085525	0.014488	-0.000171
1321	6.6000e-01	6.7957	12.911290	0.000487	4.874928	0.825835	-0.009750
1322	6.6050e-01	6.7844	12.896323	0.000150	1.496688	0.253546	-0.002993
1323	6.6100e-01	6.7773	12.854843	0.000415	4.147965	0.702684	-0.008296
1324	6.6150e-01	6.7694	12.824054	0.000308	3.078902	0.521580	-0.006158
1325	6.6200e-01	6.7554	12.799252	0.000248	2.480227	0.420162	-0.004960
1326	6.6250e-01	6.7474	12.767608	0.000316	3.164427	0.536068	-0.006329
1327	6.6300e-01	6.7358	12.735964	0.000316	3.164427	0.536068	-0.006329
1328	6.6350e-01	6.7267	12.731260	0.000047	0.470388	0.079686	-0.000941
1329	6.6400e-01	6.7151	12.676951	0.000543	5.430841	0.920009	-0.010862
1330	6.6450e-01	6.7075	12.675668	0.000013	0.128288	0.021733	-0.000257
1331	6.6500e-01	6.6968	12.626919	0.000487	4.874928	0.825835	-0.009750
1332	6.6550e-01	6.6888	12.608104	0.000188	1.881551	0.318743	-0.003763
1333	6.6600e-01	6.6766	12.575176	0.000329	3.292715	0.557801	-0.006585
1334	6.6650e-01	6.6638	12.536690	0.000385	3.848627	0.651975	-0.007697
1335	6.6700e-01	6.6595	12.514881	0.000218	2.180889	0.369453	-0.004362
1336	6.6750e-01	6.6467	12.475112	0.000398	3.976915	0.673708	-0.007954
1337	6.6800e-01	6.6367	12.455441	0.000197	1.967076	0.333232	-0.003934
1338	6.6850e-01	6.6254	12.432777	0.000227	2.266414	0.383941	-0.004533
1339	6.6900e-01	6.6150	12.394719	0.000381	3.805865	0.644731	-0.007612
1340	6.6950e-01	6.6077	12.391725	0.000030	0.299338	0.050709	-0.000599
1341	6.7000e-01	6.5948	12.341693	0.000500	5.003216	0.847568	-0.010006
1342	6.7050e-01	6.5858	12.311332	0.000304	3.036139	0.514336	-0.006072
1343	6.7100e-01	6.5755	12.292944	0.000184	1.838789	0.311499	-0.003678
1344	6.7150e-01	6.5656	12.239063	0.000539	5.388078	0.912765	-0.010776
1345	6.7200e-01	6.5543	12.214688	0.000244	2.437464	0.412918	-0.004875
1346	6.7250e-01	6.5436	12.192452	0.000222	2.223651	0.376697	-0.004447
1347	6.7300e-01	6.5375	12.162946	0.000295	2.950614	0.499848	-0.005901
1348	6.7350e-01	6.5262	12.125315	0.000376	3.763102	0.637487	-0.007526
1349	6.7400e-01	6.5167	12.102651	0.000227	2.266414	0.383941	-0.004533
1350	6.7450e-01	6.5042	12.077421	0.000252	2.522989	0.427406	-0.005046
1351	6.7500e-01	6.4938	12.036369	0.000411	4.105203	0.695440	-0.008210
1352	6.7550e-01	6.4859	12.014132	0.000222	2.223651	0.376697	-0.004447
1353	6.7600e-01	6.4748	11.968804	0.000453	4.532828	0.767882	-0.009066
1354	6.7650e-01	6.4667	11.955547	0.000133	1.325638	0.224569	-0.002651
1355	6.7700e-01	6.4557	11.921765	0.000338	3.378240	0.572289	-0.006756
1356	6.7750e-01	6.4453	11.879003	0.000428	4.276253	0.724417	-0.008553
1357	6.7800e-01	6.4368	11.861042	0.000180	1.796026	0.304255	-0.003592
1358	6.7850e-01	6.4236	11.839233	0.000218	2.180889	0.369453	-0.004362
1359	6.7900e-01	6.4163	11.792622	0.000466	4.661115	0.789614	-0.009322
1360	6.7950e-01	6.4050	11.765254	0.000274	2.736802	0.463627	-0.005474
1361	6.8000e-01	6.3965	11.743445	0.000218	2.180889	0.369453	-0.004362
1362	6.8050e-01	6.3852	11.709663	0.000338	3.378240	0.572289	-0.006756
1363	6.8100e-01	6.3770	11.678874	0.000308	3.078902	0.521580	-0.006158
1364	6.8150e-01	6.3660	11.675025	0.000038	0.384863	0.065198	-0.000770
1365	6.8200e-01	6.3531	11.644664	0.000304	3.036139	0.514336	-0.006072
1366	6.8250e-01	6.3458	11.598908	0.000458	4.575590	0.775126	-0.009151
1367	6.8300e-01	6.3351	11.561705	0.000372	3.720340	0.630243	-0.007441
1368	6.8350e-01	6.3242	11.543744	0.000180	1.796026	0.304255	-0.003592
1369	6.8400e-01	6.3159	11.509962	0.000338	3.378240	0.572289	-0.006756
1370	6.8450e-01	6.3086	11.475324	0.000346	3.463765	0.586778	-0.006928
1371	6.8500e-01	6.2930	11.457364	0.000180	1.796026	0.304255	-0.003592
1372	6.8550e-01	6.2860	11.419305	0.000381	3.805865	0.644731	-0.007612
1373	6.8600e-01	6.2769	11.397069	0.000222	2.223651	0.376697	-0.004447
1374	6.8650e-01	6.2653	11.359438	0.000376	3.763102	0.637487	-0.007526
1375	6.8700e-01	6.2564	11.327366	0.000321	3.207190	0.543313	-0.006414
1376	6.8750e-01	6.2445	11.303419	0.000239	2.394702	0.405673	-0.004789
1377	6.8800e-01	6.2366	11.256808	0.000466	4.661115	0.789614	-0.009322
1378	6.8850e-01	6.2262	11.233288	0.000235	2.351939	0.398429	-0.004704
1379	6.8900e-01	6.2158	11.211479	0.000218	2.180889	0.369453	-0.004362
1380	6.8950e-01	6.2070	11.167434	0.000440	4.404540	0.746149	-0.008809
1381	6.9000e-01	6.1978	11.147763	0.000197	1.967076	0.333232	-0.003934
1382	6.9050e-01	6.1867	11.105428	0.000423	4.233490	0.717173	-0.008467
1383	6.9100e-01	6.1774	11.089179	0.000162	1.624976	0.275278	-0.003250
1384	6.9150e-01	6.1652	11.066942	0.000222	2.223651	0.376697	-0.004447
1385	6.9200e-01	6.1566	11.026318	0.000406	4.062440	0.688196	-0.008125
1386	6.9250e-01	6.1441	10.992108	0.000342	3.421002	0.579533	-0.006842
1387	6.9300e-01	6.1349	10.970299	0.000218	2.180889	0.369453	-0.004362
1388	6.9350e-01	6.1255	10.927109	0.000432	4.319015	0.731661	-0.008638
1389	6.9400e-01	6.1195	10.899741	0.000274	2.736802	0.463627	-0.005474
1390	6.9450e-01	6.1066	10.850991	0.000487	4.874928	0.825835	-0.009750
1391	6.9500e-01	6.0962	10.847143	0.000038	0.384863	0.065198	-0.000770
1392	6.9550e-01	6.0864	10.806091	0.000411	4.105203	0.695440	-0.008210
1393	6.9600e-01	6.0773	10.791124	0.000150	1.496688	0.253546	-0.002993
1394	6.9650e-01	6.0645	10.744085	0.000470	4.703878	0.796859	-0.009408
1395	6.9700e-01	6.0555	10.706882	0.000372	3.720340	0.630243	-0.007441
1396	6.9750e-01	6.0461	10.670106	0.000368	3.677577	0.622998	-0.007355
1397	6.9800e-01	6.0382	10.654284	0.000158	1.582214	0.268034	-0.003164
1398	6.9850e-01	6.0281	10.611949	0.000423	4.233490	0.717173	-0.008467
1399	6.9900e-01	6.0202	10.591423	0.000205	2.052601	0.347720	-0.004105
1400	6.9950e-01	6.0046	10.559779	0.000316	3.164427	0.536068	-0.006329
1401	7.0000e-01	5.9949	10.536259	0.000235	2.351939	0.398429	-0.004704
1402	7.0050e-01	5.9840	10.495635	0.000406	4.062440	0.688196	-0.008125
1403	7.0100e-01	5.9735	10.486655	0.000090	0.898013	0.152128	-0.001796
1404	7.0150e-01	5.9663	10.438761	0.000479	4.789403	0.811347	-0.009579
1405	7.0200e-01	5.9576	10.393005	0.000458	4.575590	0.775126	-0.009151
1406	7.0250e-01	5.9451	10.392577	0.000004	0.042763	0.007244	-0.000086
1407	7.0300e-01	5.9351	10.350242	0.000423	4.233490	0.717173	-0.008467
1408	7.0350e-01	5.9265	10.299782	0.000505	5.045978	0.854812	-0.010092
1409	7.0400e-01	5.9161	10.284815	0.000150	1.496688	0.253546	-0.002993
1410	7.0450e-01	5.9113	10.247612	0.000372	3.720340	0.630243	-0.007441
1411	7.0500e-01	5.8966	10.224520	0.000231	2.309176	0.391185	-0.004618
1412	7.0550e-01	5.8887	10.180047	0.000445	4.447303	0.753393	-0.008895
1413	7.0600e-01	5.8743	10.167646	0.000124	1.240113	0.210081	-0.002480
1414	7.0650e-01	5.8643	10.152679	0.000150	1.496688	0.253546	-0.002993
1415	7.0700e-01	5.8575	10.096660	0.000560	5.601891	0.948986	-0.011204
1416	7.0750e-01	5.8469	10.076990	0.000197	1.967076	0.333232	-0.003934
1417	7.0800e-01	5.8375	10.029951	0.000470	4.703878	0.796859	-0.009408
1418	7.0850e-01	5.8264	10.005149	0.000248	2.480227	0.420162	-0.004960
1419	7.0900e-01	5.8200	9.966662	0.000385	3.848627	0.651975	-0.007697
1420	7.0950e-01	5.8051	9.941005	0.000257	2.565752	0.434650	-0.005132
1421	7.1000e-01	5.7953	9.913637	0.000274	2.736802	0.463627	-0.005474
1422	7.1050e-01	5.7861	9.885413	0.000282	2.822327	0.478115	-0.005645
1423	7.1100e-01	5.7755	9.849921	0.000355	3.549290	0.601266	-0.007099
1424	7.1150e-01	5.7663	9.805448	0.000445	4.447303	0.753393	-0.008895
1425	7.1200e-01	5.7565	9.775941	0.000295	2.950614	0.499848	-0.005901
1426	7.1250e-01	5.7449	9.760547	0.000154	1.539451	0.260790	-0.003079
1427	7.1300e-01	5.7352	9.715646	0.000449	4.490065	0.760638	-0.008980
1428	7.1350e-01	5.7254	9.693410	0.000222	2.223651	0.376697	-0.004447
1429	7.1400e-01	5.7178	9.655351	0.000381	3.805865	0.644731	-0.007612
1430	7.1450e-01	5.7063	9.627555	0.000278	2.779564	0.470871	-0.005559
1431	7.1500e-01	5.6982	9.595056	0.000325	3.249952	0.550557	-0.006500
1432	7.1550e-01	5.6860	9.555714	0.000393	3.934153	0.666463	-0.007868
1433	7.1600e-01	5.6746	9.543741	0.000120	1.197351	0.202837	-0.002395
1434	7.1650e-01	5.6638	9.513379	0.000304	3.036139	0.514336	-0.006072
1435	7.1700e-01	5.6543	9.467196	0.000462	4.618353	0.782370	-0.009237
1436	7.1750e-01	5.6458	9.438117	0.000291	2.907852	0.492603	-0.005816
1437	7.1800e-01	5.6360	9.399204	0.000389	3.891390	0.659219	-0.007783
1438	7.1850e-01	5.6268	9.374401	0.000248	2.480227	0.420162	-0.004960
1439	7.1900e-01	5.6152	9.345750	0.000287	2.865089	0.485359	-0.005730
1440	7.1950e-01	5.6036	9.298284	0.000475	4.746641	0.804103	-0.009493
1441	7.2000e-01	5.5951	9.278613	0.000197	1.967076	0.333232	-0.003934
1442	7.2050e-01	5.5865	9.231147	0.000475	4.746641	0.804103	-0.009493
1443	7.2100e-01	5.5798	9.210621	0.000205	2.052601	0.347720	-0.004105
1444	7.2150e-01	5.5682	9.172135	0.000385	3.848627	0.651975	-0.007697
1445	7.2200e-01	5.5585	9.145622	0.000265	2.651277	0.449138	-0.005303
1446	7.2250e-01	5.5475	9.118254	0.000274	2.736802	0.463627	-0.005474
1447	7.2300e-01	5.5347	9.096445	0.000218	2.180889	0.369453	-0.004362
1448	7.2350e-01	5.5261	9.050689	0.000458	4.575590	0.775126	-0.009151
1449	7.2400e-01	5.5151	9.012203	0.000385	3.848627	0.651975	-0.007697
1450	7.2450e-01	5.5084	8.990394	0.000218	2.180889	0.369453	-0.004362
1451	7.2500e-01	5.4962	8.939079	0.000513	5.131503	0.869300	-0.010263
1452	7.2550e-01	5.4851	8.918553	0.000205	2.052601	0.347720	-0.004105
1453	7.2600e-01	5.4764	8.884343	0.000342	3.421002	0.579533	-0.006842
1454	7.2650e-01	5.4665	8.851843	0.000325	3.249952	0.550557	-0.006500
1455	7.2700e-01	5.4578	8.824048	0.000278	2.779564	0.470871	-0.005559
1456	7.2750e-01	5.4474	8.786417	0.000376	3.763102	0.637487	-0.007526
1457	7.2800e-01	5.4376	8.752206	0.000342	3.421002	0.579533	-0.006842
1458	7.2850e-01	5.4260	8.728259	0.000239	2.394702	0.405673	-0.004789
1459	7.2900e-01	5.4156	8.687635	0.000406	4.062440	0.688196	-0.008125
1460	7.2950e-01	5.4053	8.680793	0.000068	0.684200	0.115907	-0.001368
1461	7.3000e-01	5.3979	8.633754	0.000470	4.703878	0.796859	-0.009408
1462	7.3050e-01	5.3847	8.593558	0.000402	4.019678	0.680952	-0.008039
1463	7.3100e-01	5.3772	8.559775	0.000338	3.378240	0.572289	-0.006756
1464	7.3150e-01	5.3675	8.540104	0.000197	1.967076	0.333232	-0.003934
1465	7.3200e-01	5.3561	8.506322	0.000338	3.378240	0.572289	-0.006756
1466	7.3250e-01	5.3461	8.466980	0.000393	3.934153	0.666463	-0.007868
1467	7.3300e-01	5.3369	8.429777	0.000372	3.720340	0.630243	-0.007441
1468	7.3350e-01	5.3278	8.393429	0.000363	3.634815	0.615754	-0.007270
1469	7.3400e-01	5.3177	8.365206	0.000282	2.822327	0.478115	-0.005645
1470	7.3450e-01	5.3046	8.331423	0.000338	3.378240	0.572289	-0.006756
1471	7.3500e-01	5.2948	8.308331	0.000231	2.309176	0.391185	-0.004618
1472	7.3550e-01	5.2844	8.274977	0.000334	3.335477	0.565045	-0.006671
1473	7.3600e-01	5.2754	8.230931	0.000440	4.404540	0.746149	-0.008809
1474	7.3650e-01	5.2673	8.210405	0.000205	2.052601	0.347720	-0.004105
1475	7.3700e-01	5.2573	8.176623	0.000338	3.378240	0.572289	-0.006756
1476	7.3750e-01	5.2441	8.131722	0.000449	4.490065	0.760638	-0.008980
1477	7.3800e-01	5.2353	8.102644	0.000291	2.907852	0.492603	-0.005816
1478	7.3850e-01	5.2255	8.083828	0.000188	1.881551	0.318743	-0.003763
1479	7.3900e-01	5.2148	8.036362	0.000475	4.746641	0.804103	-0.009493
1480	7.3950e-01	5.2063	7.987613	0.000487	4.874928	0.825835	-0.009750
1481	7.4000e-01	5.1987	7.962810	0.000248	2.480227	0.420162	-0.004960
1482	7.4050e-01	5.1837	7.934587	0.000282	2.822327	0.478115	-0.005645
1483	7.4100e-01	5.1746	7.906791	0.000278	2.779564	0.470871	-0.005559
1484	7.4150e-01	5.1672	7.872154	0.000346	3.463765	0.586778	-0.006928
1485	7.4200e-01	5.1564	7.852055	0.000201	2.009839	0.340476	-0.004020
1486	7.4250e-01	5.1489	7.816135	0.000359	3.592052	0.608510	-0.007184
1487	7.4300e-01	5.1338	7.790477	0.000257	2.565752	0.434650	-0.005132
1488	7.4350e-01	5.1263	7.748998	0.000415	4.147965	0.702684	-0.008296
1489	7.4400e-01	5.1175	7.710939	0.000381	3.805865	0.644731	-0.007612
1490	7.4450e-01	5.1076	7.656631	0.000543	5.430841	0.920009	-0.010862
1491	7.4500e-01	5.0931	7.642091	0.000145	1.453926	0.246302	-0.002908
1492	7.4550e-01	5.0903	7.607026	0.000351	3.506527	0.594022	-0.007013
1493	7.4600e-01	5.0769	7.575809	0.000312	3.121665	0.528824	-0.006243
1494	7.4650e-01	5.0677	7.541172	0.000346	3.463765	0.586778	-0.006928
1495	7.4700e-01	5.0562	7.502258	0.000389	3.891390	0.659219	-0.007783
1496	7.4750e-01	5.0461	7.477456	0.000248	2.480227	0.420162	-0.004960
1497	7.4800e-01	5.0343	7.448805	0.000287	2.865089	0.485359	-0.005730
1498	7.4850e-01	5.0287	7.397490	0.000513	5.131503	0.869300	-0.010263
1499	7.4900e-01	5.0146	7.369266	0.000282	2.822327	0.478115	-0.005645
1500	7.4950e-01	5.0049	7.342326	0.000269	2.694039	0.456383	-0.005388
1501	7.5000e-01	4.9951	7.303840	0.000385	3.848627	0.651975	-0.007697
1502	7.5050e-01	4.9857	7.265781	0.000381	3.805865	0.644731	-0.007612
1503	7.5100e-01	4.9762	7.234564	0.000312	3.121665	0.528824	-0.006243
1504	7.5150e-01	4.9643	7.208907	0.000257	2.565752	0.434650	-0.005132
1505	7.5200e-01	4.9574	7.162296	0.000466	4.661115	0.789614	-0.009322
1506	7.5250e-01	4.9457	7.141342	0.000210	2.095364	0.354964	-0.004191
1507	7.5300e-01	4.9390	7.110981	0.000304	3.036139	0.514336	-0.006072
1508	7.5350e-01	4.9261	7.072494	0.000385	3.848627	0.651975	-0.007697
1509	7.5400e-01	4.9164	7.040423	0.000321	3.207190	0.543313	-0.006414
1510	7.5450e-01	4.9084	7.022890	0.000175	1.753264	0.297011	-0.003507
1511	7.5500e-01	4.8962	6.977989	0.000449	4.490065	0.760638	-0.008980
1512	7.5550e-01	4.8865	6.939931	0.000381	3.805865	0.644731	-0.007612
1513	7.5600e-01	4.8766	6.912990	0.000269	2.694039	0.456383	-0.005388
1514	7.5650e-01	4.8642	6.860820	0.000522	5.217028	0.883789	-0.010434
1515	7.5700e-01	4.8547	6.827038	0.000338	3.378240	0.572289	-0.006756
1516	7.5750e-01	4.8486	6.802235	0.000248	2.480227	0.420162	-0.004960
1517	7.5800e-01	4.8378	6.766315	0.000359	3.592052	0.608510	-0.007184
1518	7.5850e-01	4.8279	6.738519	0.000278	2.779564	0.470871	-0.005559
1519	7.5900e-01	4.8152	6.697467	0.000411	4.105203	0.695440	-0.008210
1520	7.5950e-01	4.8067	6.678224	0.000192	1.924314	0.325988	-0.003849
1521	7.6000e-01	4.7961	6.634179	0.000440	4.404540	0.746149	-0.008809
1522	7.6050e-01	4.7844	6.615791	0.000184	1.838789	0.311499	-0.003678
1523	7.6100e-01	4.7775	6.570462	0.000453	4.532828	0.767882	-0.009066
1524	7.6150e-01	4.7662	6.530693	0.000398	3.976915	0.673708	-0.007954
1525	7.6200e-01	4.7577	6.485365	0.000453	4.532828	0.767882	-0.009066
1526	7.6250e-01	4.7467	6.452865	0.000325	3.249952	0.550557	-0.006500
1527	7.6300e-01	4.7363	6.420366	0.000325	3.249952	0.550557	-0.006500
1528	7.6350e-01	4.7278	6.391287	0.000291	2.907852	0.492603	-0.005816
1529	7.6400e-01	4.7171	6.354939	0.000363	3.634815	0.615754	-0.007270
1530	7.6450e-01	4.7058	6.319874	0.000351	3.506527	0.594022	-0.007013
1531	7.6500e-01	4.6957	6.282243	0.000376	3.763102	0.637487	-0.007526
1532	7.6550e-01	4.6881	6.248033	0.000342	3.421002	0.579533	-0.006842
1533	7.6600e-01	4.6767	6.220665	0.000274	2.736802	0.463627	-0.005474
1534	7.6650e-01	4.6664	6.176192	0.000445	4.447303	0.753393	-0.008895
1535	7.6700e-01	4.6548	6.144120	0.000321	3.207190	0.543313	-0.006414
1536	7.6750e-01	4.6484	6.103496	0.000406	4.062440	0.688196	-0.008125
1537	7.6800e-01	4.6381	6.076128	0.000274	2.736802	0.463627	-0.005474
1538	7.6850e-01	4.6255	6.038069	0.000381	3.805865	0.644731	-0.007612
1539	7.6900e-01	4.6185	6.006425	0.000316	3.164427	0.536068	-0.006329
1540	7.6950e-01	4.6069	5.967938	0.000385	3.848627	0.651975	-0.007697
1541	7.7000e-01	4.5950	5.932445	0.000355	3.549290	0.601266	-0.007099
1542	7.7050e-01	4.5868	5.906788	0.000257	2.565752	0.434650	-0.005132
1543	7.7100e-01	4.5747	5.875144	0.000316	3.164427	0.536068	-0.006329
1544	7.7150e-01	4.5679	5.837513	0.000376	3.763102	0.637487	-0.007526
1545	7.7200e-01	4.5563	5.805441	0.000321	3.207190	0.543313	-0.006414
1546	7.7250e-01	4.5470	5.760540	0.000449	4.490065	0.760638	-0.008980
1547	7.7300e-01	4.5351	5.728041	0.000325	3.249952	0.550557	-0.006500
1548	7.7350e-01	4.5253	5.705376	0.000227	2.266414	0.383941	-0.004533
1549	7.7400e-01	4.5168	5.651496	0.000539	5.388078	0.912765	-0.010776
1550	7.7450e-01	4.5068	5.617713	0.000338	3.378240	0.572289	-0.006756
1551	7.7500e-01	4.4971	5.574523	0.000432	4.319015	0.731661	-0.008638
1552	7.7550e-01	4.4849	5.541596	0.000329	3.292715	0.557801	-0.006585
1553	7.7600e-01	4.4775	5.511662	0.000299	2.993377	0.507092	-0.005987
1554	7.7650e-01	4.4666	5.457781	0.000539	5.388078	0.912765	-0.010776
1555	7.7700e-01	4.4550	5.450512	0.000073	0.726963	0.123151	-0.001454
1556	7.7750e-01	4.4452	5.407322	0.000432	4.319015	0.731661	-0.008638
1557	7.7800e-01	4.4337	5.382519	0.000248	2.480227	0.420162	-0.004960
1558	7.7850e-01	4.4269	5.336336	0.000462	4.618353	0.782370	-0.009237
1559	7.7900e-01	4.4185	5.289725	0.000466	4.661115	0.789614	-0.009322
1560	7.7950e-01	4.4049	5.271764	0.000180	1.796026	0.304255	-0.003592
1561	7.8000e-01	4.3971	5.213180	0.000586	5.858466	0.992451	-0.011717
1562	7.8050e-01	4.3852	5.197358	0.000158	1.582214	0.268034	-0.003164
1563	7.8100e-01	4.3732	5.147753	0.000496	4.960453	0.840324	-0.009921
1564	7.8150e-01	4.3665	5.120385	0.000274	2.736802	0.463627	-0.005474
1565	7.8200e-01	4.3561	5.078478	0.000419	4.190728	0.709928	-0.008381
1566	7.8250e-01	4.3475	5.056241	0.000222	2.223651	0.376697	-0.004447
1567	7.8300e-01	4.3378	5.016472	0.000398	3.976915	0.673708	-0.007954
1568	7.8350e-01	4.3263	4.960881	0.000556	5.559129	0.941742	-0.011118
1569	7.8400e-01	4.3124	4.957887	0.000030	0.299338	0.050709	-0.000599
1570	7.8450e-01	4.3066	4.901869	0.000560	5.601891	0.948986	-0.011204
1571	7.8500e-01	4.2969	4.872790	0.000291	2.907852	0.492603	-0.005816
1572	7.8550e-01	4.2854	4.836442	0.000363	3.634815	0.615754	-0.007270
1573	7.8600e-01	4.2762	4.800094	0.000363	3.634815	0.615754	-0.007270
1574	7.8650e-01	4.2664	4.761180	0.000389	3.891390	0.659219	-0.007783
1575	7.8700e-01	4.2535	4.720555	0.000406	4.062440	0.688196	-0.008125
1576	7.8750e-01	4.2468	4.691905	0.000287	2.865089	0.485359	-0.005730
1577	7.8800e-01	4.2349	4.649142	0.000428	4.276253	0.724417	-0.008553
1578	7.8850e-01	4.2239	4.609373	0.000398	3.976915	0.673708	-0.007954
1579	7.8900e-01	4.2163	4.596544	0.000128	1.282876	0.217325	-0.002566
1580	7.8950e-01	4.2056	4.538387	0.000582	5.815704	0.985207	-0.011631
1581	7.9000e-01	4.1965	4.510591	0.000278	2.779564	0.470871	-0.005559
1582	7.9050e-01	4.1858	4.469967	0.000406	4.062440	0.688196	-0.008125
1583	7.9100e-01	4.1754	4.434902	0.000351	3.506527	0.594022	-0.007013
1584	7.9150e-01	4.1675	4.398126	0.000368	3.677577	0.622998	-0.007355
1585	7.9200e-01	4.1550	4.342535	0.000556	5.559129	0.941742	-0.011118
1586	7.9250e-01	4.1443	4.329706	0.000128	1.282876	0.217325	-0.002566
1587	7.9300e-01	4.1345	4.293785	0.000359	3.592052	0.608510	-0.007184
1588	7.9350e-01	4.1272	4.256154	0.000376	3.763102	0.637487	-0.007526
1589	7.9400e-01	4.1156	4.215530	0.000406	4.062440	0.688196	-0.008125
1590	7.9450e-01	4.1046	4.181320	0.000342	3.421002	0.579533	-0.006842
1591	7.9500e-01	4.0976	4.153097	0.000282	2.822327	0.478115	-0.005645
1592	7.9550e-01	4.0858	4.108196	0.000449	4.490065	0.760638	-0.008980
1593	7.9600e-01	4.0753	4.048756	0.000594	5.943991	1.006939	-0.011888
1594	7.9650e-01	4.0668	4.032506	0.000162	1.624976	0.275278	-0.003250
1595	7.9700e-01	4.0559	3.998296	0.000342	3.421002	0.579533	-0.006842
1596	7.9750e-01	4.0446	3.959810	0.000385	3.848627	0.651975	-0.007697
1597	7.9800e-01	4.0350	3.927311	0.000325	3.249952	0.550557	-0.006500
1598	7.9850e-01	4.0259	3.896094	0.000312	3.121665	0.528824	-0.006243
1599	7.9900e-01	4.0137	3.864450	0.000316	3.164427	0.536068	-0.006329
1600	7.9950e-01	4.0063	3.801589	0.000629	6.286092	1.064893	-0.012572
1601	8.0000e-01	3.9951	3.790043	0.000115	1.154588	0.195593	-0.002309
1602	8.0050e-01	3.9886	3.731458	0.000586	5.858466	0.992451	-0.011717
1603	8.0100e-01	3.9771	3.695110	0.000363	3.634815	0.615754	-0.007270
1604	8.0150e-01	3.9645	3.680998	0.000141	1.411163	0.239058	-0.002822
1605	8.0200e-01	3.9557	3.624124	0.000569	5.687416	0.963474	-0.011375
1606	8.0250e-01	3.9473	3.582645	0.000415	4.147965	0.702684	-0.008296
1607	8.0300e-01	3.9363	3.548862	0.000338	3.378240	0.572289	-0.006756
1608	8.0350e-01	3.9273	3.518928	0.000299	2.993377	0.507092	-0.005987
1609	8.0400e-01	3.9166	3.490705	0.000282	2.822327	0.478115	-0.005645
1610	8.0450e-01	3.9049	3.421430	0.000693	6.927529	1.173555	-0.013855
1611	8.0500e-01	3.8954	3.406891	0.000145	1.453926	0.246302	-0.002908
1612	8.0550e-01	3.8843	3.368404	0.000385	3.848627	0.651975	-0.007697
1613	8.0600e-01	3.8745	3.329063	0.000393	3.934153	0.666463	-0.007868
1614	8.0650e-01	3.8666	3.296136	0.000329	3.292715	0.557801	-0.006585
1615	8.0700e-01	3.8538	3.261498	0.000346	3.463765	0.586778	-0.006928
1616	8.0750e-01	3.8463	3.233275	0.000282	2.822327	0.478115	-0.005645
1617	8.0800e-01	3.8387	3.183243	0.000500	5.003216	0.847568	-0.010006
1618	8.0850e-01	3.8263	3.155447	0.000278	2.779564	0.470871	-0.005559
1619	8.0900e-01	3.8132	3.107553	0.000479	4.789403	0.811347	-0.009579
1620	8.0950e-01	3.8040	3.054527	0.000530	5.302553	0.898277	-0.010605
1621	8.1000e-01	3.7965	3.031008	0.000235	2.351939	0.398429	-0.004704
1622	8.1050e-01	3.7842	2.992949	0.000381	3.805865	0.644731	-0.007612
1623	8.1100e-01	3.7733	2.957456	0.000355	3.549290	0.601266	-0.007099
1624	8.1150e-01	3.7666	2.912556	0.000449	4.490065	0.760638	-0.008980
1625	8.1200e-01	3.7569	2.871076	0.000415	4.147965	0.702684	-0.008296
1626	8.1250e-01	3.7469	2.826603	0.000445	4.447303	0.753393	-0.008895
1627	8.1300e-01	3.7378	2.802228	0.000244	2.437464	0.412918	-0.004875
1628	8.1350e-01	3.7262	2.774433	0.000278	2.779564	0.470871	-0.005559
1629	8.1400e-01	3.7164	2.734664	0.000398	3.976915	0.673708	-0.007954
1630	8.1450e-01	3.7082	2.694039	0.000406	4.062440	0.688196	-0.008125
1631	8.1500e-01	3.6969	2.663250	0.000308	3.078902	0.521580	-0.006158
1632	8.1550e-01	3.6865	2.614073	0.000492	4.917691	0.833079	-0.009835
1633	8.1600e-01	3.6816	2.582429	0.000316	3.164427	0.536068	-0.006329
1634	8.1650e-01	3.6655	2.528121	0.000543	5.430841	0.920009	-0.010862
1635	8.1700e-01	3.6539	2.508022	0.000201	2.009839	0.340476	-0.004020
1636	8.1750e-01	3.6433	2.457562	0.000505	5.045978	0.854812	-0.010092
1637	8.1800e-01	3.6362	2.406247	0.000513	5.131503	0.869300	-0.010263
1638	8.1850e-01	3.6251	2.385294	0.000210	2.095364	0.354964	-0.004191
1639	8.1900e-01	3.6145	2.341248	0.000440	4.404540	0.746149	-0.008809
1640	8.1950e-01	3.6073	2.310032	0.000312	3.121665	0.528824	-0.006243
1641	8.2000e-01	3.5991	2.272828	0.000372	3.720340	0.630243	-0.007441
1642	8.2050e-01	3.5870	2.223651	0.000492	4.917691	0.833079	-0.009835
1643	8.2100e-01	3.5760	2.207402	0.000162	1.624976	0.275278	-0.003250
1644	8.2150e-01	3.5664	2.161218	0.000462	4.618353	0.782370	-0.009237
1645	8.2200e-01	3.5541	2.138126	0.000231	2.309176	0.391185	-0.004618
1646	8.2250e-01	3.5451	2.090660	0.000475	4.746641	0.804103	-0.009493
1647	8.2300e-01	3.5370	2.037634	0.000530	5.302553	0.898277	-0.010605
1648	8.2350e-01	3.5269	2.004280	0.000334	3.335477	0.565045	-0.006671
1649	8.2400e-01	3.5144	1.939708	0.000646	6.457142	1.093869	-0.012914
1650	8.2450e-01	3.5049	1.931156	0.000086	0.855251	0.144883	-0.001711
1651	8.2500e-01	3.4949	1.888821	0.000423	4.233490	0.717173	-0.008467
1652	8.2550e-01	3.4879	1.836651	0.000522	5.217028	0.883789	-0.010434
1653	8.2600e-01	3.4769	1.807144	0.000295	2.950614	0.499848	-0.005901
1654	8.2650e-01	3.4655	1.761816	0.000453	4.532828	0.767882	-0.009066
1655	8.2700e-01	3.4567	1.734020	0.000278	2.779564	0.470871	-0.005559
1656	8.2750e-01	3.4439	1.695107	0.000389	3.891390	0.659219	-0.007783
1657	8.2800e-01	3.4354	1.656620	0.000385	3.848627	0.651975	-0.007697
1658	8.2850e-01	3.4259	1.621983	0.000346	3.463765	0.586778	-0.006928
1659	8.2900e-01	3.4146	1.578793	0.000432	4.319015	0.731661	-0.008638
1660	8.2950e-01	3.4052	1.550569	0.000282	2.822327	0.478115	-0.005645
1661	8.3000e-01	3.3974	1.502248	0.000483	4.832166	0.818591	-0.009664
1662	8.3050e-01	3.3833	1.447512	0.000547	5.473604	0.927254	-0.010947
1663	8.3100e-01	3.3757	1.409881	0.000376	3.763102	0.637487	-0.007526
1664	8.3150e-01	3.3644	1.386789	0.000231	2.309176	0.391185	-0.004618
1665	8.3200e-01	3.3551	1.344881	0.000419	4.190728	0.709928	-0.008381
1666	8.3250e-01	3.3450	1.319652	0.000252	2.522989	0.427406	-0.005046
1667	8.3300e-01	3.3356	1.251232	0.000684	6.842004	1.159067	-0.013684
1668	8.3350e-01	3.3286	1.217449	0.000338	3.378240	0.572289	-0.006756
1669	8.3400e-01	3.3167	1.176825	0.000406	4.062440	0.688196	-0.008125
1670	8.3450e-01	3.3071	1.137056	0.000398	3.976915	0.673708	-0.007954
1671	8.3500e-01	3.2928	1.106267	0.000308	3.078902	0.521580	-0.006158
1672	8.3550e-01	3.2849	1.048965	0.000573	5.730179	0.970719	-0.011460
1673	8.3600e-01	3.2742	1.026301	0.000227	2.266414	0.383941	-0.004533
1674	8.3650e-01	3.2669	0.980117	0.000462	4.618353	0.782370	-0.009237
1675	8.3700e-01	3.2578	0.940776	0.000393	3.934153	0.666463	-0.007868
1676	8.3750e-01	3.2440	0.909559	0.000312	3.121665	0.528824	-0.006243
1677	8.3800e-01	3.2339	0.861237	0.000483	4.832166	0.818591	-0.009664
1678	8.3850e-01	3.2259	0.818047	0.000432	4.319015	0.731661	-0.008638
1679	8.3900e-01	3.2173	0.786403	0.000316	3.164427	0.536068	-0.006329
1680	8.3950e-01	3.2068	0.728673	0.000577	5.772941	0.977963	-0.011546
1681	8.4000e-01	3.1949	0.694463	0.000342	3.421002	0.579533	-0.006842
1682	8.4050e-01	3.1873	0.669234	0.000252	2.522989	0.427406	-0.005046
1683	8.4100e-01	3.1766	0.610221	0.000590	5.901229	0.999695	-0.011802
1684	8.4150e-01	3.1660	0.581998	0.000282	2.822327	0.478115	-0.005645
1685	8.4200e-01	3.1580	0.544367	0.000376	3.763102	0.637487	-0.007526
1686	8.4250e-01	3.1464	0.502460	0.000419	4.190728	0.709928	-0.008381
1687	8.4300e-01	3.1366	0.464401	0.000381	3.805865	0.644731	-0.007612
1688	8.4350e-01	3.1262	0.431474	0.000329	3.292715	0.557801	-0.006585
1689	8.4400e-01	3.1165	0.383580	0.000479	4.789403	0.811347	-0.009579
1690	8.4450e-01	3.1076	0.330127	0.000535	5.345316	0.905521	-0.010691
1691	8.4500e-01	3.0960	0.298910	0.000312	3.121665	0.528824	-0.006243
1692	8.4550e-01	3.0841	0.272825	0.000261	2.608514	0.441894	-0.005217
1693	8.4600e-01	3.0756	0.227497	0.000453	4.532828	0.767882	-0.009066
1694	8.4650e-01	3.0612	0.166774	0.000607	6.072279	1.028672	-0.012145
1695	8.4700e-01	3.0566	0.128288	0.000385	3.848627	0.651975	-0.007697
1696	8.4750e-01	3.0457	0.099209	0.000291	2.907852	0.492603	-0.005816
1697	8.4800e-01	3.0349	0.064571	0.000346	3.463765	0.586778	-0.006928
1698	8.4850e-01	3.0257	0.027796	0.000368	3.677577	0.622998	-0.007355
1699	8.4900e-01	3.0191	-0.026940	0.000547	5.473604	0.927254	-0.010947
1700	8.4950e-01	3.0055	-0.063289	0.000363	3.634815	0.615754	-0.007270
1701	8.5000e-01	2.9938	-0.112893	0.000496	4.960453	0.840324	-0.009921
1702	8.5050e-01	2.9852	-0.149241	0.000363	3.634815	0.615754	-0.007270
1703	8.5100e-01	2.9755	-0.193714	0.000445	4.447303	0.753393	-0.008895
1704	8.5150e-01	2.9672	-0.223220	0.000295	2.950614	0.499848	-0.005901
1705	8.5200e-01	2.9559	-0.266838	0.000436	4.361778	0.738905	-0.008724
1706	8.5250e-01	2.9465	-0.318153	0.000513	5.131503	0.869300	-0.010263
1707	8.5300e-01	2.9333	-0.354929	0.000368	3.677577	0.622998	-0.007355
1708	8.5350e-01	2.9262	-0.388284	0.000334	3.335477	0.565045	-0.006671
1709	8.5400e-01	2.9163	-0.434467	0.000462	4.618353	0.782370	-0.009237
1710	8.5450e-01	2.9080	-0.480223	0.000458	4.575590	0.775126	-0.009151
1711	8.5500e-01	2.8953	-0.509302	0.000291	2.907852	0.492603	-0.005816
1712	8.5550e-01	2.8865	-0.572590	0.000633	6.328854	1.072137	-0.012658
1713	8.5600e-01	2.8754	-0.598675	0.000261	2.608514	0.441894	-0.005217
1714	8.5650e-01	2.8658	-0.647425	0.000487	4.874928	0.825835	-0.009750
1715	8.5700e-01	2.8549	-0.679069	0.000316	3.164427	0.536068	-0.006329
1716	8.5750e-01	2.8461	-0.723114	0.000440	4.404540	0.746149	-0.008809
1717	8.5800e-01	2.8336	-0.758607	0.000355	3.549290	0.601266	-0.007099
1718	8.5850e-01	2.8263	-0.806501	0.000479	4.789403	0.811347	-0.009579
1719	8.5900e-01	2.8134	-0.843277	0.000368	3.677577	0.622998	-0.007355
1720	8.5950e-01	2.8061	-0.888178	0.000449	4.490065	0.760638	-0.008980
1721	8.6000e-01	2.7959	-0.923243	0.000351	3.506527	0.594022	-0.007013
1722	8.6050e-01	2.7881	-0.961729	0.000385	3.848627	0.651975	-0.007697
1723	8.6100e-01	2.7733	-1.007058	0.000453	4.532828	0.767882	-0.009066
1724	8.6150e-01	2.7682	-1.057945	0.000509	5.088741	0.862056	-0.010177
1725	8.6200e-01	2.7588	-1.097714	0.000398	3.976915	0.673708	-0.007954
1726	8.6250e-01	2.7469	-1.141759	0.000440	4.404540	0.746149	-0.008809
1727	8.6300e-01	2.7377	-1.179818	0.000381	3.805865	0.644731	-0.007612
1728	8.6350e-01	2.7242	-1.218304	0.000385	3.848627	0.651975	-0.007697
1729	8.6400e-01	2.7158	-1.281593	0.000633	6.328854	1.072137	-0.012658
1730	8.6450e-01	2.7045	-1.314092	0.000325	3.249952	0.550557	-0.006500
1731	8.6500e-01	2.6959	-1.361559	0.000475	4.746641	0.804103	-0.009493
1732	8.6550e-01	2.6874	-1.393631	0.000321	3.207190	0.543313	-0.006414
1733	8.6600e-01	2.6748	-1.445801	0.000522	5.217028	0.883789	-0.010434
1734	8.6650e-01	2.6682	-1.486853	0.000411	4.105203	0.695440	-0.008210
1735	8.6700e-01	2.6569	-1.517214	0.000304	3.036139	0.514336	-0.006072
1736	8.6750e-01	2.6488	-1.564681	0.000475	4.746641	0.804103	-0.009493
1737	8.6800e-01	2.6368	-1.610437	0.000458	4.575590	0.775126	-0.009151
1738	8.6850e-01	2.6266	-1.641226	0.000308	3.078902	0.521580	-0.006158
1739	8.6900e-01	2.6167	-1.684416	0.000432	4.319015	0.731661	-0.008638
1740	8.6950e-01	2.6044	-1.726751	0.000423	4.233490	0.717173	-0.008467
1741	8.7000e-01	2.5989	-1.783625	0.000569	5.687416	0.963474	-0.011375
1742	8.7050e-01	2.5842	-1.815269	0.000316	3.164427	0.536068	-0.006329
1743	8.7100e-01	2.5755	-1.872143	0.000569	5.687416	0.963474	-0.011375
1744	8.7150e-01	2.5641	-1.897801	0.000257	2.565752	0.434650	-0.005132
1745	8.7200e-01	2.5542	-1.943984	0.000462	4.618353	0.782370	-0.009237
1746	8.7250e-01	2.5449	-1.986319	0.000423	4.233490	0.717173	-0.008467
1747	8.7300e-01	2.5385	-2.022668	0.000363	3.634815	0.615754	-0.007270
1748	8.7350e-01	2.5250	-2.068423	0.000458	4.575590	0.775126	-0.009151
1749	8.7400e-01	2.5140	-2.124015	0.000556	5.559129	0.941742	-0.011118
1750	8.7450e-01	2.5038	-2.152238	0.000282	2.822327	0.478115	-0.005645
1751	8.7500e-01	2.4982	-2.197994	0.000458	4.575590	0.775126	-0.009151
1752	8.7550e-01	2.4873	-2.235625	0.000376	3.763102	0.637487	-0.007526
1753	8.7600e-01	2.4768	-2.282664	0.000470	4.703878	0.796859	-0.009408
1754	8.7650e-01	2.4712	-2.325854	0.000432	4.319015	0.731661	-0.008638
1755	8.7700e-01	2.4557	-2.370755	0.000449	4.490065	0.760638	-0.008980
1756	8.7750e-01	2.4443	-2.424208	0.000535	5.345316	0.905521	-0.010691
1757	8.7800e-01	2.4371	-2.471246	0.000470	4.703878	0.796859	-0.009408
1758	8.7850e-01	2.4286	-2.519996	0.000487	4.874928	0.825835	-0.009750
1759	8.7900e-01	2.4170	-2.552923	0.000329	3.292715	0.557801	-0.006585
1760	8.7950e-01	2.4052	-2.595685	0.000428	4.276253	0.724417	-0.008553
1761	8.8000e-01	2.3956	-2.637593	0.000419	4.190728	0.709928	-0.008381
1762	8.8050e-01	2.3862	-2.673941	0.000363	3.634815	0.615754	-0.007270
1763	8.8100e-01	2.3785	-2.724401	0.000505	5.045978	0.854812	-0.010092
1764	8.8150e-01	2.3676	-2.761176	0.000368	3.677577	0.622998	-0.007355
1765	8.8200e-01	2.3584	-2.801373	0.000402	4.019678	0.680952	-0.008039
1766	8.8250e-01	2.3448	-2.841570	0.000402	4.019678	0.680952	-0.008039
1767	8.8300e-01	2.3351	-2.904431	0.000629	6.286092	1.064893	-0.012572
1768	8.8350e-01	2.3250	-2.941207	0.000368	3.677577	0.622998	-0.007355
1769	8.8400e-01	2.3181	-2.978838	0.000376	3.763102	0.637487	-0.007526
1770	8.8450e-01	2.3047	-3.029725	0.000509	5.088741	0.862056	-0.010177
1771	8.8500e-01	2.2930	-3.059659	0.000299	2.993377	0.507092	-0.005987
1772	8.8550e-01	2.2862	-3.112257	0.000526	5.259791	0.891033	-0.010520
1773	8.8600e-01	2.2751	-3.160578	0.000483	4.832166	0.818591	-0.009664
1774	8.8650e-01	2.2647	-3.190512	0.000299	2.993377	0.507092	-0.005987
1775	8.8700e-01	2.2551	-3.246959	0.000564	5.644654	0.956230	-0.011289
1776	8.8750e-01	2.2453	-3.298274	0.000513	5.131503	0.869300	-0.010263
1777	8.8800e-01	2.2346	-3.321366	0.000231	2.309176	0.391185	-0.004618
1778	8.8850e-01	2.2250	-3.388075	0.000667	6.670954	1.130090	-0.013342
1779	8.8900e-01	2.2165	-3.421857	0.000338	3.378240	0.572289	-0.006756
1780	8.8950e-01	2.2046	-3.473172	0.000513	5.131503	0.869300	-0.010263
1781	8.9000e-01	2.1942	-3.500968	0.000278	2.779564	0.470871	-0.005559
1782	8.9050e-01	2.1873	-3.546724	0.000458	4.575590	0.775126	-0.009151
1783	8.9100e-01	2.1753	-3.620276	0.000736	7.355155	1.245997	-0.014710
1784	8.9150e-01	2.1660	-3.639091	0.000188	1.881551	0.318743	-0.003763
1785	8.9200e-01	2.1552	-3.699386	0.000603	6.029516	1.021428	-0.012059
1786	8.9250e-01	2.1424	-3.723333	0.000239	2.394702	0.405673	-0.004789
1787	8.9300e-01	2.1376	-3.785767	0.000624	6.243329	1.057649	-0.012487
1788	8.9350e-01	2.1260	-3.830667	0.000449	4.490065	0.760638	-0.008980
1789	8.9400e-01	2.1143	-3.856752	0.000261	2.608514	0.441894	-0.005217
1790	8.9450e-01	2.1083	-3.909778	0.000530	5.302553	0.898277	-0.010605
1791	8.9500e-01	2.0970	-3.948264	0.000385	3.848627	0.651975	-0.007697
1792	8.9550e-01	2.0850	-3.998724	0.000505	5.045978	0.854812	-0.010092
1793	8.9600e-01	2.0758	-4.053460	0.000547	5.473604	0.927254	-0.010947
1794	8.9650e-01	2.0660	-4.092374	0.000389	3.891390	0.659219	-0.007783
1795	8.9700e-01	2.0581	-4.140696	0.000483	4.832166	0.818591	-0.009664
1796	8.9750e-01	2.0444	-4.183030	0.000423	4.233490	0.717173	-0.008467
1797	8.9800e-01	2.0349	-4.223655	0.000406	4.062440	0.688196	-0.008125
1798	8.9850e-01	2.0230	-4.285661	0.000620	6.200566	1.050404	-0.012401
1799	8.9900e-01	2.0162	-4.324574	0.000389	3.891390	0.659219	-0.007783
1800	8.9950e-01	2.0050	-4.374607	0.000500	5.003216	0.847568	-0.010006
1801	9.0000e-01	1.9939	-4.413093	0.000385	3.848627	0.651975	-0.007697
1802	9.0050e-01	1.9844	-4.451151	0.000381	3.805865	0.644731	-0.007612
1803	9.0100e-01	1.9757	-4.507170	0.000560	5.601891	0.948986	-0.011204
1804	9.0150e-01	1.9650	-4.541808	0.000346	3.463765	0.586778	-0.006928
1805	9.0200e-01	1.9544	-4.594834	0.000530	5.302553	0.898277	-0.010605
1806	9.0250e-01	1.9470	-4.630326	0.000355	3.549290	0.601266	-0.007099
1807	9.0300e-01	1.9328	-4.683352	0.000530	5.302553	0.898277	-0.010605
1808	9.0350e-01	1.9254	-4.728253	0.000449	4.490065	0.760638	-0.008980
1809	9.0400e-01	1.9160	-4.758186	0.000299	2.993377	0.507092	-0.005987
1810	9.0450e-01	1.9026	-4.817626	0.000594	5.943991	1.006939	-0.011888
1811	9.0500e-01	1.8948	-4.872790	0.000552	5.516366	0.934498	-0.011033
1812	9.0550e-01	1.8839	-4.909566	0.000368	3.677577	0.622998	-0.007355
1813	9.0600e-01	1.8793	-4.951473	0.000419	4.190728	0.709928	-0.008381
1814	9.0650e-01	1.8666	-5.008347	0.000569	5.687416	0.963474	-0.011375
1815	9.0700e-01	1.8549	-5.042130	0.000338	3.378240	0.572289	-0.006756
1816	9.0750e-01	1.8465	-5.087458	0.000453	4.532828	0.767882	-0.009066
1817	9.0800e-01	1.8373	-5.164003	0.000765	7.654492	1.296706	-0.015309
1818	9.0850e-01	1.8287	-5.203772	0.000398	3.976915	0.673708	-0.007954
1819	9.0900e-01	1.8158	-5.243541	0.000398	3.976915	0.673708	-0.007954
1820	9.0950e-01	1.8060	-5.294429	0.000509	5.088741	0.862056	-0.010177
1821	9.1000e-01	1.7988	-5.329494	0.000351	3.506527	0.594022	-0.007013
1822	9.1050e-01	1.7854	-5.376105	0.000466	4.661115	0.789614	-0.009322
1823	9.1100e-01	1.7735	-5.417585	0.000415	4.147965	0.702684	-0.008296
1824	9.1150e-01	1.7663	-5.462485	0.000449	4.490065	0.760638	-0.008980
1825	9.1200e-01	1.7578	-5.507386	0.000449	4.490065	0.760638	-0.008980
1826	9.1250e-01	1.7484	-5.558701	0.000513	5.131503	0.869300	-0.010263
1827	9.1300e-01	1.7383	-5.613865	0.000552	5.516366	0.934498	-0.011033
1828	9.1350e-01	1.7271	-5.646364	0.000325	3.249952	0.550557	-0.006500
1829	9.1400e-01	1.7164	-5.699817	0.000535	5.345316	0.905521	-0.010691
1830	9.1450e-01	1.7085	-5.748567	0.000487	4.874928	0.825835	-0.009750
1831	9.1500e-01	1.6954	-5.791757	0.000432	4.319015	0.731661	-0.008638
1832	9.1550e-01	1.6830	-5.834519	0.000428	4.276253	0.724417	-0.008553
1833	9.1600e-01	1.6776	-5.886690	0.000522	5.217028	0.883789	-0.010434
1834	9.1650e-01	1.6666	-5.940570	0.000539	5.388078	0.912765	-0.010776
1835	9.1700e-01	1.6557	-5.989320	0.000487	4.874928	0.825835	-0.009750
1836	9.1750e-01	1.6492	-6.019681	0.000304	3.036139	0.514336	-0.006072
1837	9.1800e-01	1.6357	-6.068003	0.000483	4.832166	0.818591	-0.009664
1838	9.1850e-01	1.6238	-6.109055	0.000411	4.105203	0.695440	-0.008210
1839	9.1900e-01	1.6110	-6.165074	0.000560	5.601891	0.948986	-0.011204
1840	9.1950e-01	1.6043	-6.221520	0.000564	5.644654	0.956230	-0.011289
1841	9.2000e-01	1.5955	-6.260006	0.000385	3.848627	0.651975	-0.007697
1842	9.2050e-01	1.5845	-6.310894	0.000509	5.088741	0.862056	-0.010177
1843	9.2100e-01	1.5765	-6.363064	0.000522	5.217028	0.883789	-0.010434
1844	9.2150e-01	1.5630	-6.400695	0.000376	3.763102	0.637487	-0.007526
1845	9.2200e-01	1.5541	-6.455859	0.000552	5.516366	0.934498	-0.011033
1846	9.2250e-01	1.5430	-6.515299	0.000594	5.943991	1.006939	-0.011888
1847	9.2300e-01	1.5351	-6.555923	0.000406	4.062440	0.688196	-0.008125
1848	9.2350e-01	1.5234	-6.592271	0.000363	3.634815	0.615754	-0.007270
1849	9.2400e-01	1.5156	-6.646580	0.000543	5.430841	0.920009	-0.010862
1850	9.2450e-01	1.5067	-6.697039	0.000505	5.045978	0.854812	-0.010092
1851	9.2500e-01	1.4960	-6.740230	0.000432	4.319015	0.731661	-0.008638
1852	9.2550e-01	1.4854	-6.790689	0.000505	5.045978	0.854812	-0.010092
1853	9.2600e-01	1.4742	-6.830886	0.000402	4.019678	0.680952	-0.008039
1854	9.2650e-01	1.4645	-6.884767	0.000539	5.388078	0.912765	-0.010776
1855	9.2700e-01	1.4561	-6.923253	0.000385	3.848627	0.651975	-0.007697
1856	9.2750e-01	1.4468	-6.986114	0.000629	6.286092	1.064893	-0.012572
1857	9.2800e-01	1.4362	-7.038284	0.000522	5.217028	0.883789	-0.010434
1858	9.2850e-01	1.4223	-7.068646	0.000304	3.036139	0.514336	-0.006072
1859	9.2900e-01	1.4166	-7.120388	0.000517	5.174266	0.876544	-0.010349
1860	9.2950e-01	1.4035	-7.180684	0.000603	6.029516	1.021428	-0.012059
1861	9.3000e-01	1.3937	-7.217459	0.000368	3.677577	0.622998	-0.007355
1862	9.3050e-01	1.3859	-7.274761	0.000573	5.730179	0.970719	-0.011460
1863	9.3100e-01	1.3739	-7.307688	0.000329	3.292715	0.557801	-0.006585
1864	9.3150e-01	1.3671	-7.376108	0.000684	6.842004	1.159067	-0.013684
1865	9.3200e-01	1.3556	-7.424002	0.000479	4.789403	0.811347	-0.009579
1866	9.3250e-01	1.3416	-7.452653	0.000287	2.865089	0.485359	-0.005730
1867	9.3300e-01	1.3334	-7.512521	0.000599	5.986754	1.014184	-0.011974
1868	9.3350e-01	1.3261	-7.564263	0.000517	5.174266	0.876544	-0.010349
1869	9.3400e-01	1.3172	-7.622848	0.000586	5.858466	0.992451	-0.011717
1870	9.3450e-01	1.3054	-7.657058	0.000342	3.421002	0.579533	-0.006842
1871	9.3500e-01	1.2947	-7.694689	0.000376	3.763102	0.637487	-0.007526
1872	9.3550e-01	1.2862	-7.749853	0.000552	5.516366	0.934498	-0.011033
1873	9.3600e-01	1.2747	-7.801168	0.000513	5.131503	0.869300	-0.010263
1874	9.3650e-01	1.2656	-7.866167	0.000650	6.499904	1.101114	-0.013000
1875	9.3700e-01	1.2534	-7.893963	0.000278	2.779564	0.470871	-0.005559
1876	9.3750e-01	1.2454	-7.952975	0.000590	5.901229	0.999695	-0.011802
1877	9.3800e-01	1.2362	-8.009849	0.000569	5.687416	0.963474	-0.011375
1878	9.3850e-01	1.2250	-8.041066	0.000312	3.121665	0.528824	-0.006243
1879	9.3900e-01	1.2143	-8.093664	0.000526	5.259791	0.891033	-0.010520
1880	9.3950e-01	1.2062	-8.138992	0.000453	4.532828	0.767882	-0.009066
1881	9.4000e-01	1.1959	-8.194156	0.000552	5.516366	0.934498	-0.011033
1882	9.4050e-01	1.1870	-8.253595	0.000594	5.943991	1.006939	-0.011888
1883	9.4100e-01	1.1748	-8.302345	0.000487	4.874928	0.825835	-0.009750
1884	9.4150e-01	1.1655	-8.344680	0.000423	4.233490	0.717173	-0.008467
1885	9.4200e-01	1.1530	-8.378462	0.000338	3.378240	0.572289	-0.006756
1886	9.4250e-01	1.1478	-8.445172	0.000667	6.670954	1.130090	-0.013342
1887	9.4300e-01	1.1365	-8.491783	0.000466	4.661115	0.789614	-0.009322
1888	9.4350e-01	1.1263	-8.551223	0.000594	5.943991	1.006939	-0.011888
1889	9.4400e-01	1.1147	-8.600400	0.000492	4.917691	0.833079	-0.009835
1890	9.4450e-01	1.1031	-8.651287	0.000509	5.088741	0.862056	-0.010177
1891	9.4500e-01	1.0956	-8.698326	0.000470	4.703878	0.796859	-0.009408
1892	9.4550e-01	1.0856	-8.744082	0.000458	4.575590	0.775126	-0.009151
1893	9.4600e-01	1.0760	-8.799245	0.000552	5.516366	0.934498	-0.011033
1894	9.4650e-01	1.0657	-8.849705	0.000505	5.045978	0.854812	-0.010092
1895	9.4700e-01	1.0572	-8.908290	0.000586	5.858466	0.992451	-0.011717
1896	9.4750e-01	1.0476	-8.956184	0.000479	4.789403	0.811347	-0.009579
1897	9.4800e-01	1.0352	-8.999374	0.000432	4.319015	0.731661	-0.008638
1898	9.4850e-01	1.0255	-9.048551	0.000492	4.917691	0.833079	-0.009835
1899	9.4900e-01	1.0168	-9.088320	0.000398	3.976915	0.673708	-0.007954
1900	9.4950e-01	1.0088	-9.159733	0.000714	7.141342	1.209776	-0.014283
1901	9.5000e-01	0.9943	-9.193943	0.000342	3.421002	0.579533	-0.006842
1902	9.5050e-01	0.9863	-9.250390	0.000564	5.644654	0.956230	-0.011289
1903	9.5100e-01	0.9756	-9.290159	0.000398	3.976915	0.673708	-0.007954
1904	9.5150e-01	0.9671	-9.350454	0.000603	6.029516	1.021428	-0.012059
1905	9.5200e-01	0.9552	-9.394927	0.000445	4.447303	0.753393	-0.008895
1906	9.5250e-01	0.9482	-9.463347	0.000684	6.842004	1.159067	-0.013684
1907	9.5300e-01	0.9362	-9.505682	0.000423	4.233490	0.717173	-0.008467
1908	9.5350e-01	0.9265	-9.566833	0.000612	6.115041	1.035916	-0.012230
1909	9.5400e-01	0.9140	-9.614727	0.000479	4.789403	0.811347	-0.009579
1910	9.5450e-01	0.9063	-9.669035	0.000543	5.430841	0.920009	-0.010862
1911	9.5500e-01	0.8966	-9.713936	0.000449	4.490065	0.760638	-0.008980
1912	9.5550e-01	0.8862	-9.766534	0.000526	5.259791	0.891033	-0.010520
1913	9.5600e-01	0.8772	-9.817849	0.000513	5.131503	0.869300	-0.010263
1914	9.5650e-01	0.8670	-9.863177	0.000453	4.532828	0.767882	-0.009066
1915	9.5700e-01	0.8557	-9.920906	0.000577	5.772941	0.977963	-0.011546
1916	9.5750e-01	0.8453	-9.960248	0.000393	3.934153	0.666463	-0.007868
1917	9.5800e-01	0.8359	-10.019260	0.000590	5.901229	0.999695	-0.011802
1918	9.5850e-01	0.8255	-10.058602	0.000393	3.934153	0.666463	-0.007868
1919	9.5900e-01	0.8139	-10.125739	0.000671	6.713717	1.137334	-0.013427
1920	9.5950e-01	0.8051	-10.182613	0.000569	5.687416	0.963474	-0.011375
1921	9.6000e-01	0.7950	-10.239060	0.000564	5.644654	0.956230	-0.011289
1922	9.6050e-01	0.7877	-10.284388	0.000453	4.532828	0.767882	-0.009066
1923	9.6100e-01	0.7755	-10.325868	0.000415	4.147965	0.702684	-0.008296
1924	9.6150e-01	0.7672	-10.382742	0.000569	5.687416	0.963474	-0.011375
1925	9.6200e-01	0.7562	-10.431919	0.000492	4.917691	0.833079	-0.009835
1926	9.6250e-01	0.7453	-10.484516	0.000526	5.259791	0.891033	-0.010520
1927	9.6300e-01	0.7365	-10.531555	0.000470	4.703878	0.796859	-0.009408
1928	9.6350e-01	0.7266	-10.595271	0.000637	6.371617	1.079381	-0.012743
1929	9.6400e-01	0.7156	-10.641883	0.000466	4.661115	0.789614	-0.009322
1930	9.6450e-01	0.7071	-10.680796	0.000389	3.891390	0.659219	-0.007783
1931	9.6500e-01	0.6956	-10.746651	0.000659	6.585429	1.115602	-0.013171
1932	9.6550e-01	0.6831	-10.784709	0.000381	3.805865	0.644731	-0.007612
1933	9.6600e-01	0.6731	-10.857833	0.000731	7.312392	1.238753	-0.014625
1934	9.6650e-01	0.6695	-10.899741	0.000419	4.190728	0.709928	-0.008381
1935	9.6700e-01	0.6555	-10.942076	0.000423	4.233490	0.717173	-0.008467
1936	9.6750e-01	0.6441	-11.028883	0.000868	8.680793	1.470566	-0.017362
1937	9.6800e-01	0.6377	-11.073356	0.000445	4.447303	0.753393	-0.008895
1938	9.6850e-01	0.6251	-11.114836	0.000415	4.147965	0.702684	-0.008296
1939	9.6900e-01	0.6136	-11.168289	0.000535	5.345316	0.905521	-0.010691
1940	9.6950e-01	0.6084	-11.212335	0.000440	4.404540	0.746149	-0.008809
1941	9.7000e-01	0.5952	-11.273057	0.000607	6.072279	1.028672	-0.012145
1942	9.7050e-01	0.5844	-11.328649	0.000556	5.559129	0.941742	-0.011118
1943	9.7100e-01	0.5740	-11.372694	0.000440	4.404540	0.746149	-0.008809
1944	9.7150e-01	0.5672	-11.429996	0.000573	5.730179	0.970719	-0.011460
1945	9.7200e-01	0.5566	-11.486870	0.000569	5.687416	0.963474	-0.011375
1946	9.7250e-01	0.5455	-11.536047	0.000492	4.917691	0.833079	-0.009835
1947	9.7300e-01	0.5355	-11.585652	0.000496	4.960453	0.840324	-0.009921
1948	9.7350e-01	0.5256	-11.644664	0.000590	5.901229	0.999695	-0.011802
1949	9.7400e-01	0.5179	-11.695551	0.000509	5.088741	0.862056	-0.010177
1950	9.7450e-01	0.5057	-11.747722	0.000522	5.217028	0.883789	-0.010434
1951	9.7500e-01	0.4963	-11.810582	0.000629	6.286092	1.064893	-0.012572
1952	9.7550e-01	0.4852	-11.849069	0.000385	3.848627	0.651975	-0.007697
1953	9.7600e-01	0.4736	-11.922620	0.000736	7.355155	1.245997	-0.014710
1954	9.7650e-01	0.4670	-11.959824	0.000372	3.720340	0.630243	-0.007441
1955	9.7700e-01	0.4533	-12.008145	0.000483	4.832166	0.818591	-0.009664
1956	9.7750e-01	0.4427	-12.077421	0.000693	6.927529	1.173555	-0.013855
1957	9.7800e-01	0.4357	-12.124032	0.000466	4.661115	0.789614	-0.009322
1958	9.7850e-01	0.4236	-12.182189	0.000582	5.815704	0.985207	-0.011631
1959	9.7900e-01	0.4163	-12.238208	0.000560	5.601891	0.948986	-0.011204
1960	9.7950e-01	0.4046	-12.271135	0.000329	3.292715	0.557801	-0.006585
1961	9.8000e-01	0.3963	-12.336134	0.000650	6.499904	1.101114	-0.013000
1962	9.8050e-01	0.3851	-12.397284	0.000612	6.115041	1.035916	-0.012230
1963	9.8100e-01	0.3794	-12.448172	0.000509	5.088741	0.862056	-0.010177
1964	9.8150e-01	0.3656	-12.511460	0.000633	6.328854	1.072137	-0.012658
1965	9.8200e-01	0.3559	-12.555933	0.000445	4.447303	0.753393	-0.008895
1966	9.8250e-01	0.3477	-12.617939	0.000620	6.200566	1.050404	-0.012401
1967	9.8300e-01	0.3358	-12.665405	0.000475	4.746641	0.804103	-0.009493
1968	9.8350e-01	0.3244	-12.713299	0.000479	4.789403	0.811347	-0.009579
1969	9.8400e-01	0.3156	-12.780864	0.000676	6.756479	1.144579	-0.013513
1970	9.8450e-01	0.3031	-12.843725	0.000629	6.286092	1.064893	-0.012572
1971	9.8500e-01	0.2946	-12.880501	0.000368	3.677577	0.622998	-0.007355
1972	9.8550e-01	0.2841	-12.946783	0.000663	6.628192	1.122846	-0.013256
1973	9.8600e-01	0.2779	-12.996815	0.000500	5.003216	0.847568	-0.010006
1974	9.8650e-01	0.2663	-13.048558	0.000517	5.174266	0.876544	-0.010349
1975	9.8700e-01	0.2570	-13.113984	0.000654	6.542667	1.108358	-0.013085
1976	9.8750e-01	0.2443	-13.152043	0.000381	3.805865	0.644731	-0.007612
1977	9.8800e-01	0.2386	-13.213621	0.000616	6.157804	1.043160	-0.012316
1978	9.8850e-01	0.2273	-13.282896	0.000693	6.927529	1.173555	-0.013855
1979	9.8900e-01	0.2147	-13.322665	0.000398	3.976915	0.673708	-0.007954
1980	9.8950e-01	0.2081	-13.388947	0.000663	6.628192	1.122846	-0.013256
1981	9.9000e-01	0.1963	-13.434703	0.000458	4.575590	0.775126	-0.009151
1982	9.9050e-01	0.1841	-13.482170	0.000475	4.746641	0.804103	-0.009493
1983	9.9100e-01	0.1754	-13.557004	0.000748	7.483442	1.267729	-0.014967
1984	9.9150e-01	0.1662	-13.599767	0.000428	4.276253	0.724417	-0.008553
1985	9.9200e-01	0.1573	-13.660489	0.000607	6.072279	1.028672	-0.012145
1986	9.9250e-01	0.1456	-13.722495	0.000620	6.200566	1.050404	-0.012401
1987	9.9300e-01	0.1341	-13.763975	0.000415	4.147965	0.702684	-0.008296
1988	9.9350e-01	0.1226	-13.812296	0.000483	4.832166	0.818591	-0.009664
1989	9.9400e-01	0.1142	-13.881999	0.000697	6.970292	1.180799	-0.013941
1990	9.9450e-01	0.1037	-13.937591	0.000556	5.559129	0.941742	-0.011118
1991	9.9500e-01	0.0946	-13.977360	0.000398	3.976915	0.673708	-0.007954
1992	9.9550e-01	0.0846	-14.059891	0.000825	8.253168	1.398124	-0.016506
1993	9.9600e-01	0.0734	-14.103509	0.000436	4.361778	0.738905	-0.008724
1994	9.9650e-01	0.0650	-14.148410	0.000449	4.490065	0.760638	-0.008980
1995	9.9700e-01	0.0577	-14.236501	0.000881	8.809081	1.492299	-0.017618
1996	9.9750e-01	0.0460	-14.279263	0.000428	4.276253	0.724417	-0.008553
1997	9.9800e-01	0.0343	-14.321598	0.000423	4.233490	0.717173	-0.008467
1998	9.9850e-01	0.0235	-14.392156	0.000706	7.055817	1.195288	-0.014112
1999	9.9900e-01	0.0173	-14.449458	0.000573	5.730179	0.970719	-0.011460
2000	9.9950e-01	0.0028	-14.512747	0.000633	6.328854	1.072137	-0.012658
2001	1.0000e+00	-0.0029	-14.543963	0.000633	6.328854	1.072137	-0.006243

PMax (uC/cm2):	3.96e+01
Pr (uC/cm2):	5.24e+00
-Pr (uC/cm2):	0.00e+00
PLoss (uC/cm2):	0.00e+00
C (Max-Eff) (nF):	3.96e-01
K (Eff):	6.70e+02
Vert. (+/-Pr) Shift (uC/cm2):	2.62e+00
Offset (uC/cm2):	1.98e+01

A (Loop Area - uC/cm2·Volts):	-4.96e-02



Hysteresis Version: 5.48.1 - Radiant Technologies, Inc., 1999 - 9/12/24

