»»»»»»»»»»»»»»»»»»»»»»»»»»»»»»»»»»»» Hysteresis ««««««««««««««««««««««««««««««««««««
»»»  Executed Version:	5.48.1
»»»  Vision Version:	5.48.4 (R)
»»»  Vision Compiled:	9/18/24
»»»  Driver Version:	5.47.0
»»»  Windows Version:	Windows 8 or 8.1
»»»  Processor Information:	x86 (AMD or Intel) - 32 Processors
»»»  Tester Name:	PMF21124-494 (100V)
»»»  Tester S/N:	PMF21124-494
»»»  Internal Amp Type:	100V RevK 270k
»»»  Internal Amp S/N:	iAB2-596/K     
»»»  Execution Count:	1
»»»»»»»»»»»»»»»»»»»»»»»»»»»»»»»»»»»»»»»»»»««««««««««««««««««««««««««««««««««««««««««

Stored:	6/25/2025 - 15:42:28
Configured:	06/25/25 10:44:40 AM
Executed:	06/25/25 03:42:03 PM

»»»»»»»»»»»»»»»»»»»»»»»»»»»»»»»»»»» Sample Info ««««««««««««««««««««««««««««««««««««
Sample Name:	
Lot Name:	
Wafer Name:	
Die Row/Column:	0/0
Capacitor Number:	0
Sample Area (cm2):	1.00e-04
Sample Thickness (microns):	1.50e-01

Amplifier:	Internal

»»»»»»»»»»»»»»»»»»»»»»»»»»»»»»»»»»» Tester Info «««««««««««««««««««««««««««««««««««
Tester Name:	PMF21124-494 (100V)
Tester Serial Number:	PMF21124-494
Return Signal Amp. Level:	1.79 [Index: 2]

»»»»»»»»»»»»»»»»»»»»»»»»»»»»»»»» Hysteresis Info ««««««««««««««««««««««««««««««««««
Task Name:	Hyst-116
Volts:	10.00
Field:	666.67 (kV/cm)
DCBias:	0.00
DCField:	0.00 (kV/cm)
Hysteresis Period (ms):	1.00e+00
Preset:	Enabled
Preset Delay (ms):	1.00e+03
Profile:	Standard Monopolar

»»»»»»»»»»»»»»»»»»»»»»»»»»»»»»»»»»»»»» Data «««««««««««««««««««««««««««««««««««««««
Points:	2001

Valid Data

Point	Time (ms)	Drive Voltage	Measured Polarization (uC/cm2)	Capacitance (uF)	Normalized Capacitance (uF/cm2)	Dielectric Constant	Instantaneous Current (mA)
   1	0.0000e+00	-0.0021	-19.747735	0.000244	2.438348	0.413067	0.004875
   2	5.0000e-04	0.0062	-19.723361	0.000244	2.438348	0.413067	0.004875
   3	1.0000e-03	0.0153	-19.676749	0.000466	4.662805	0.789901	0.009322
   4	1.5000e-03	0.0253	-19.617309	0.000595	5.946146	1.007304	0.011888
   5	2.0000e-03	0.0372	-19.564712	0.000526	5.261698	0.891356	0.010520
   6	2.5000e-03	0.0456	-19.507837	0.000569	5.689478	0.963824	0.011375
   7	3.0000e-03	0.0541	-19.452674	0.000552	5.518366	0.934836	0.011033
   8	3.5000e-03	0.0631	-19.394517	0.000582	5.817812	0.985564	0.011631
   9	4.0000e-03	0.0765	-19.332939	0.000616	6.160036	1.043538	0.012316
  10	4.5000e-03	0.0867	-19.287183	0.000458	4.577249	0.775407	0.009151
  11	5.0000e-03	0.0974	-19.233302	0.000539	5.390032	0.913096	0.010776
  12	5.5000e-03	0.1081	-19.173862	0.000595	5.946146	1.007304	0.011888
  13	6.0000e-03	0.1151	-19.116560	0.000573	5.732256	0.971070	0.011460
  14	6.5000e-03	0.1273	-19.057976	0.000586	5.860590	0.992811	0.011717
  15	7.0000e-03	0.1360	-19.015213	0.000428	4.277803	0.724679	0.008553
  16	7.5000e-03	0.1441	-18.955773	0.000595	5.946146	1.007304	0.011888
  17	8.0000e-03	0.1613	-18.900610	0.000552	5.518366	0.934836	0.011033
  18	8.5000e-03	0.1635	-18.841597	0.000590	5.903368	1.000058	0.011802
  19	9.0000e-03	0.1758	-18.787716	0.000539	5.390032	0.913096	0.010776
  20	9.5000e-03	0.1846	-18.729987	0.000578	5.775034	0.978317	0.011546
  21	1.0000e-02	0.1940	-18.671830	0.000582	5.817812	0.985564	0.011631
  22	1.0500e-02	0.2032	-18.623508	0.000483	4.833917	0.818888	0.009664
  23	1.1000e-02	0.2168	-18.568772	0.000548	5.475588	0.927590	0.010947
  24	1.1500e-02	0.2287	-18.518740	0.000501	5.005030	0.847875	0.010006
  25	1.2000e-02	0.2319	-18.455879	0.000629	6.288370	1.065279	0.012572
  26	1.2500e-02	0.2470	-18.400716	0.000552	5.518366	0.934836	0.011033
  27	1.3000e-02	0.2551	-18.348973	0.000518	5.176142	0.876862	0.010349
  28	1.3500e-02	0.2632	-18.288250	0.000607	6.074480	1.029045	0.012145
  29	1.4000e-02	0.2766	-18.234369	0.000539	5.390032	0.913096	0.010776
  30	1.4500e-02	0.2847	-18.192034	0.000424	4.235025	0.717433	0.008467
  31	1.5000e-02	0.2965	-18.125753	0.000663	6.630595	1.123253	0.013256
  32	1.5500e-02	0.3049	-18.078714	0.000471	4.705583	0.797147	0.009408
  33	1.6000e-02	0.3158	-18.023550	0.000552	5.518366	0.934836	0.011033
  34	1.6500e-02	0.3256	-17.958123	0.000655	6.545039	1.108760	0.013085
  35	1.7000e-02	0.3347	-17.911940	0.000462	4.620027	0.782654	0.009237
  36	1.7500e-02	0.3442	-17.843520	0.000684	6.844485	1.159487	0.013684
  37	1.8000e-02	0.3550	-17.789639	0.000539	5.390032	0.913096	0.010776
  38	1.8500e-02	0.3685	-17.740462	0.000492	4.919473	0.833381	0.009835
  39	1.9000e-02	0.3745	-17.672897	0.000676	6.758929	1.144994	0.013513
  40	1.9500e-02	0.3854	-17.627997	0.000449	4.491693	0.760913	0.008980
  41	2.0000e-02	0.3969	-17.574971	0.000530	5.304476	0.898603	0.010605
  42	2.0500e-02	0.4054	-17.525367	0.000496	4.962251	0.840628	0.009921
  43	2.1000e-02	0.4166	-17.467637	0.000578	5.775034	0.978317	0.011546
  44	2.1500e-02	0.4260	-17.411191	0.000565	5.646700	0.956577	0.011289
  45	2.2000e-02	0.4378	-17.356882	0.000543	5.432810	0.920343	0.010862
  46	2.2500e-02	0.4458	-17.294449	0.000625	6.245592	1.058032	0.012487
  47	2.3000e-02	0.4538	-17.243134	0.000513	5.133364	0.869615	0.010263
  48	2.3500e-02	0.4651	-17.184977	0.000582	5.817812	0.985564	0.011631
  49	2.4000e-02	0.4750	-17.136655	0.000483	4.833917	0.818888	0.009664
  50	2.4500e-02	0.4847	-17.085768	0.000509	5.090586	0.862369	0.010177
  51	2.5000e-02	0.4942	-17.033170	0.000526	5.261698	0.891356	0.010520
  52	2.5500e-02	0.5057	-16.975013	0.000582	5.817812	0.985564	0.011631
  53	2.6000e-02	0.5137	-16.918994	0.000560	5.603922	0.949330	0.011204
  54	2.6500e-02	0.5267	-16.866396	0.000526	5.261698	0.891356	0.010520
  55	2.7000e-02	0.5376	-16.807384	0.000590	5.903368	1.000058	0.011802
  56	2.7500e-02	0.5453	-16.754786	0.000526	5.261698	0.891356	0.010520
  57	2.8000e-02	0.5552	-16.707319	0.000475	4.748361	0.804394	0.009493
  58	2.8500e-02	0.5688	-16.645741	0.000616	6.160036	1.043538	0.012316
  59	2.9000e-02	0.5730	-16.591005	0.000548	5.475588	0.927590	0.010947
  60	2.9500e-02	0.5875	-16.540973	0.000501	5.005030	0.847875	0.010006
  61	3.0000e-02	0.5945	-16.485810	0.000552	5.518366	0.934836	0.011033
  62	3.0500e-02	0.6051	-16.428508	0.000573	5.732256	0.971070	0.011460
  63	3.1000e-02	0.6157	-16.376338	0.000522	5.218920	0.884109	0.010434
  64	3.1500e-02	0.6256	-16.323312	0.000530	5.304476	0.898603	0.010605
  65	3.2000e-02	0.6364	-16.265155	0.000582	5.817812	0.985564	0.011631
  66	3.2500e-02	0.6430	-16.204432	0.000607	6.074480	1.029045	0.012145
  67	3.3000e-02	0.6561	-16.162953	0.000415	4.149469	0.702939	0.008296
  68	3.3500e-02	0.6683	-16.108644	0.000543	5.432810	0.920343	0.010862
  69	3.4000e-02	0.6767	-16.061605	0.000471	4.705583	0.797147	0.009408
  70	3.4500e-02	0.6849	-16.000883	0.000607	6.074480	1.029045	0.012145
  71	3.5000e-02	0.6962	-15.949995	0.000509	5.090586	0.862369	0.010177
  72	3.5500e-02	0.7035	-15.893976	0.000560	5.603922	0.949330	0.011204
  73	3.6000e-02	0.7150	-15.840095	0.000539	5.390032	0.913096	0.010776
  74	3.6500e-02	0.7275	-15.784077	0.000560	5.603922	0.949330	0.011204
  75	3.7000e-02	0.7359	-15.733617	0.000505	5.047808	0.855122	0.010092
  76	3.7500e-02	0.7465	-15.681019	0.000526	5.261698	0.891356	0.010520
  77	3.8000e-02	0.7552	-15.626710	0.000543	5.432810	0.920343	0.010862
  78	3.8500e-02	0.7648	-15.573685	0.000530	5.304476	0.898603	0.010605
  79	3.9000e-02	0.7735	-15.513390	0.000603	6.031702	1.021798	0.012059
  80	3.9500e-02	0.7849	-15.460792	0.000526	5.261698	0.891356	0.010520
  81	4.0000e-02	0.7973	-15.409049	0.000518	5.176142	0.876862	0.010349
  82	4.0500e-02	0.8069	-15.360727	0.000483	4.833917	0.818888	0.009664
  83	4.1000e-02	0.8154	-15.306419	0.000543	5.432810	0.920343	0.010862
  84	4.1500e-02	0.8250	-15.251683	0.000548	5.475588	0.927590	0.010947
  85	4.2000e-02	0.8376	-15.198230	0.000535	5.347254	0.905849	0.010691
  86	4.2500e-02	0.8458	-15.144349	0.000539	5.390032	0.913096	0.010776
  87	4.3000e-02	0.8560	-15.099876	0.000445	4.448915	0.753667	0.008895
  88	4.3500e-02	0.8652	-15.039153	0.000607	6.074480	1.029045	0.012145
  89	4.4000e-02	0.8776	-14.988694	0.000505	5.047808	0.855122	0.010092
  90	4.4500e-02	0.8834	-14.930964	0.000578	5.775034	0.978317	0.011546
  91	4.5000e-02	0.8949	-14.881787	0.000492	4.919473	0.833381	0.009835
  92	4.5500e-02	0.9082	-14.829189	0.000526	5.261698	0.891356	0.010520
  93	4.6000e-02	0.9161	-14.770177	0.000590	5.903368	1.000058	0.011802
  94	4.6500e-02	0.9258	-14.725276	0.000449	4.491693	0.760913	0.008980
  95	4.7000e-02	0.9381	-14.670113	0.000552	5.518366	0.934836	0.011033
  96	4.7500e-02	0.9476	-14.618798	0.000513	5.133364	0.869615	0.010263
  97	4.8000e-02	0.9579	-14.571331	0.000475	4.748361	0.804394	0.009493
  98	4.8500e-02	0.9669	-14.514885	0.000565	5.646700	0.956577	0.011289
  99	4.9000e-02	0.9729	-14.446037	0.000689	6.887263	1.166734	0.013770
 100	4.9500e-02	0.9860	-14.409261	0.000368	3.678911	0.623224	0.007355
 101	5.0000e-02	0.9961	-14.357946	0.000513	5.133364	0.869615	0.010263
 102	5.0500e-02	1.0040	-14.307914	0.000501	5.005030	0.847875	0.010006
 103	5.1000e-02	1.0129	-14.253606	0.000543	5.432810	0.920343	0.010862
 104	5.1500e-02	1.0249	-14.198442	0.000552	5.518366	0.934836	0.011033
 105	5.2000e-02	1.0351	-14.139002	0.000595	5.946146	1.007304	0.011888
 106	5.2500e-02	1.0441	-14.103509	0.000355	3.550576	0.601484	0.007099
 107	5.3000e-02	1.0557	-14.044925	0.000586	5.860590	0.992811	0.011717
 108	5.3500e-02	1.0639	-13.992327	0.000526	5.261698	0.891356	0.010520
 109	5.4000e-02	1.0764	-13.944005	0.000483	4.833917	0.818888	0.009664
 110	5.4500e-02	1.0866	-13.893545	0.000505	5.047808	0.855122	0.010092
 111	5.5000e-02	1.0952	-13.839664	0.000539	5.390032	0.913096	0.010776
 112	5.5500e-02	1.1050	-13.782363	0.000573	5.732256	0.971070	0.011460
 113	5.6000e-02	1.1154	-13.734041	0.000483	4.833917	0.818888	0.009664
 114	5.6500e-02	1.1252	-13.681871	0.000522	5.218920	0.884109	0.010434
 115	5.7000e-02	1.1390	-13.628418	0.000535	5.347254	0.905849	0.010691
 116	5.7500e-02	1.1444	-13.595063	0.000334	3.336686	0.565250	0.006671
 117	5.8000e-02	1.1542	-13.522794	0.000723	7.229487	1.224708	0.014454
 118	5.8500e-02	1.1658	-13.477466	0.000453	4.534471	0.768160	0.009066
 119	5.9000e-02	1.1740	-13.431282	0.000462	4.620027	0.782654	0.009237
 120	5.9500e-02	1.1858	-13.375263	0.000560	5.603922	0.949330	0.011204
 121	6.0000e-02	1.1965	-13.315396	0.000599	5.988924	1.014551	0.011974
 122	6.0500e-02	1.2061	-13.263653	0.000518	5.176142	0.876862	0.010349
 123	6.1000e-02	1.2138	-13.218752	0.000449	4.491693	0.760913	0.008980
 124	6.1500e-02	1.2263	-13.168720	0.000501	5.005030	0.847875	0.010006
 125	6.2000e-02	1.2348	-13.118261	0.000505	5.047808	0.855122	0.010092
 126	6.2500e-02	1.2485	-13.070794	0.000475	4.748361	0.804394	0.009493
 127	6.3000e-02	1.2561	-13.005367	0.000655	6.545039	1.108760	0.013085
 128	6.3500e-02	1.2679	-12.965598	0.000398	3.978357	0.673952	0.007954
 129	6.4000e-02	1.2770	-12.917704	0.000479	4.791139	0.811641	0.009579
 130	6.4500e-02	1.2863	-12.869383	0.000483	4.833917	0.818888	0.009664
 131	6.5000e-02	1.2954	-12.817212	0.000522	5.218920	0.884109	0.010434
 132	6.5500e-02	1.3052	-12.756490	0.000607	6.074480	1.029045	0.012145
 133	6.6000e-02	1.3151	-12.713727	0.000428	4.277803	0.724679	0.008553
 134	6.6500e-02	1.3241	-12.659846	0.000539	5.390032	0.913096	0.010776
 135	6.7000e-02	1.3351	-12.610669	0.000492	4.919473	0.833381	0.009835
 136	6.7500e-02	1.3447	-12.562775	0.000479	4.791139	0.811641	0.009579
 137	6.8000e-02	1.3538	-12.515309	0.000475	4.748361	0.804394	0.009493
 138	6.8500e-02	1.3631	-12.456297	0.000590	5.903368	1.000058	0.011802
 139	6.9000e-02	1.3759	-12.411824	0.000445	4.448915	0.753667	0.008895
 140	6.9500e-02	1.3873	-12.361364	0.000505	5.047808	0.855122	0.010092
 141	7.0000e-02	1.3998	-12.312187	0.000492	4.919473	0.833381	0.009835
 142	7.0500e-02	1.4032	-12.262582	0.000496	4.962251	0.840628	0.009921
 143	7.1000e-02	1.4160	-12.206563	0.000560	5.603922	0.949330	0.011204
 144	7.1500e-02	1.4268	-12.156531	0.000501	5.005030	0.847875	0.010006
 145	7.2000e-02	1.4313	-12.105644	0.000509	5.090586	0.862369	0.010177
 146	7.2500e-02	1.4449	-12.059888	0.000458	4.577249	0.775407	0.009151
 147	7.3000e-02	1.4546	-12.013704	0.000462	4.620027	0.782654	0.009237
 148	7.3500e-02	1.4641	-11.961107	0.000526	5.261698	0.891356	0.010520
 149	7.4000e-02	1.4745	-11.902522	0.000586	5.860590	0.992811	0.011717
 150	7.4500e-02	1.4862	-11.852062	0.000505	5.047808	0.855122	0.010092
 151	7.5000e-02	1.4966	-11.805451	0.000466	4.662805	0.789901	0.009322
 152	7.5500e-02	1.5070	-11.759695	0.000458	4.577249	0.775407	0.009151
 153	7.6000e-02	1.5159	-11.710518	0.000492	4.919473	0.833381	0.009835
 154	7.6500e-02	1.5236	-11.660486	0.000501	5.005030	0.847875	0.010006
 155	7.7000e-02	1.5355	-11.607460	0.000530	5.304476	0.898603	0.010605
 156	7.7500e-02	1.5474	-11.558284	0.000492	4.919473	0.833381	0.009835
 157	7.8000e-02	1.5555	-11.506969	0.000513	5.133364	0.869615	0.010263
 158	7.8500e-02	1.5683	-11.457792	0.000492	4.919473	0.833381	0.009835
 159	7.9000e-02	1.5744	-11.405621	0.000522	5.218920	0.884109	0.010434
 160	7.9500e-02	1.5845	-11.359865	0.000458	4.577249	0.775407	0.009151
 161	8.0000e-02	1.5944	-11.306412	0.000535	5.347254	0.905849	0.010691
 162	8.0500e-02	1.6035	-11.259801	0.000466	4.662805	0.789901	0.009322
 163	8.1000e-02	1.6154	-11.217039	0.000428	4.277803	0.724679	0.008553
 164	8.1500e-02	1.6260	-11.162303	0.000548	5.475588	0.927590	0.010947
 165	8.2000e-02	1.6361	-11.115264	0.000471	4.705583	0.797147	0.009408
 166	8.2500e-02	1.6463	-11.069080	0.000462	4.620027	0.782654	0.009237
 167	8.3000e-02	1.6553	-11.017338	0.000518	5.176142	0.876862	0.010349
 168	8.3500e-02	1.6647	-10.960036	0.000573	5.732256	0.971070	0.011460
 169	8.4000e-02	1.6748	-10.918984	0.000411	4.106691	0.695692	0.008210
 170	8.4500e-02	1.6829	-10.862110	0.000569	5.689478	0.963824	0.011375
 171	8.5000e-02	1.6978	-10.820202	0.000419	4.192247	0.710186	0.008381
 172	8.5500e-02	1.7046	-10.768032	0.000522	5.218920	0.884109	0.010434
 173	8.6000e-02	1.7155	-10.723131	0.000449	4.491693	0.760913	0.008980
 174	8.6500e-02	1.7247	-10.664974	0.000582	5.817812	0.985564	0.011631
 175	8.7000e-02	1.7346	-10.626060	0.000389	3.892801	0.659458	0.007783
 176	8.7500e-02	1.7429	-10.573890	0.000522	5.218920	0.884109	0.010434
 177	8.8000e-02	1.7549	-10.524713	0.000492	4.919473	0.833381	0.009835
 178	8.8500e-02	1.7700	-10.475109	0.000496	4.962251	0.840628	0.009921
 179	8.9000e-02	1.7756	-10.435340	0.000398	3.978357	0.673952	0.007954
 180	8.9500e-02	1.7852	-10.382314	0.000530	5.304476	0.898603	0.010605
 181	9.0000e-02	1.7961	-10.335275	0.000471	4.705583	0.797147	0.009408
 182	9.0500e-02	1.8069	-10.282250	0.000530	5.304476	0.898603	0.010605
 183	9.1000e-02	1.8146	-10.228369	0.000539	5.390032	0.913096	0.010776
 184	9.1500e-02	1.8251	-10.185606	0.000428	4.277803	0.724679	0.008553
 185	9.2000e-02	1.8359	-10.135574	0.000501	5.005030	0.847875	0.010006
 186	9.2500e-02	1.8472	-10.084687	0.000509	5.090586	0.862369	0.010177
 187	9.3000e-02	1.8581	-10.045773	0.000389	3.892801	0.659458	0.007783
 188	9.3500e-02	1.8655	-9.994886	0.000509	5.090586	0.862369	0.010177
 189	9.4000e-02	1.8773	-9.946992	0.000479	4.791139	0.811641	0.009579
 190	9.4500e-02	1.8854	-9.899097	0.000479	4.791139	0.811641	0.009579
 191	9.5000e-02	1.8954	-9.849921	0.000492	4.919473	0.833381	0.009835
 192	9.5500e-02	1.9051	-9.804592	0.000453	4.534471	0.768160	0.009066
 193	9.6000e-02	1.9159	-9.754988	0.000496	4.962251	0.840628	0.009921
 194	9.6500e-02	1.9246	-9.710942	0.000441	4.406137	0.746420	0.008809
 195	9.7000e-02	1.9337	-9.651930	0.000590	5.903368	1.000058	0.011802
 196	9.7500e-02	1.9460	-9.608740	0.000432	4.320581	0.731926	0.008638
 197	9.8000e-02	1.9575	-9.568116	0.000406	4.063913	0.688445	0.008125
 198	9.8500e-02	1.9694	-9.519794	0.000483	4.833917	0.818888	0.009664
 199	9.9000e-02	1.9770	-9.468051	0.000518	5.176142	0.876862	0.010349
 200	9.9500e-02	1.9845	-9.416309	0.000518	5.176142	0.876862	0.010349
 201	1.0000e-01	1.9955	-9.371408	0.000449	4.491693	0.760913	0.008980
 202	1.0050e-01	2.0061	-9.321376	0.000501	5.005030	0.847875	0.010006
 203	1.0100e-01	2.0172	-9.278186	0.000432	4.320581	0.731926	0.008638
 204	1.0150e-01	2.0252	-9.232002	0.000462	4.620027	0.782654	0.009237
 205	1.0200e-01	2.0363	-9.184108	0.000479	4.791139	0.811641	0.009579
 206	1.0250e-01	2.0465	-9.136642	0.000475	4.748361	0.804394	0.009493
 207	1.0300e-01	2.0550	-9.083616	0.000530	5.304476	0.898603	0.010605
 208	1.0350e-01	2.0654	-9.040854	0.000428	4.277803	0.724679	0.008553
 209	1.0400e-01	2.0734	-8.986118	0.000548	5.475588	0.927590	0.010947
 210	1.0450e-01	2.0844	-8.940789	0.000453	4.534471	0.768160	0.009066
 211	1.0500e-01	2.0963	-8.894178	0.000466	4.662805	0.789901	0.009322
 212	1.0550e-01	2.1066	-8.844574	0.000496	4.962251	0.840628	0.009921
 213	1.0600e-01	2.1170	-8.793686	0.000509	5.090586	0.862369	0.010177
 214	1.0650e-01	2.1281	-8.757766	0.000359	3.593355	0.608731	0.007184
 215	1.0700e-01	2.1346	-8.706023	0.000518	5.176142	0.876862	0.010349
 216	1.0750e-01	2.1455	-8.647866	0.000582	5.817812	0.985564	0.011631
 217	1.0800e-01	2.1563	-8.615794	0.000321	3.208352	0.543510	0.006414
 218	1.0850e-01	2.1655	-8.566617	0.000492	4.919473	0.833381	0.009835
 219	1.0900e-01	2.1783	-8.517440	0.000492	4.919473	0.833381	0.009835
 220	1.0950e-01	2.1857	-8.469119	0.000483	4.833917	0.818888	0.009664
 221	1.1000e-01	2.1956	-8.426356	0.000428	4.277803	0.724679	0.008553
 222	1.1050e-01	2.2044	-8.370765	0.000556	5.561144	0.942083	0.011118
 223	1.1100e-01	2.2157	-8.339976	0.000308	3.080018	0.521769	0.006158
 224	1.1150e-01	2.2273	-8.285240	0.000548	5.475588	0.927590	0.010947
 225	1.1200e-01	2.2370	-8.244615	0.000406	4.063913	0.688445	0.008125
 226	1.1250e-01	2.2467	-8.187741	0.000569	5.689478	0.963824	0.011375
 227	1.1300e-01	2.2546	-8.143696	0.000441	4.406137	0.746420	0.008809
 228	1.1350e-01	2.2653	-8.100506	0.000432	4.320581	0.731926	0.008638
 229	1.1400e-01	2.2752	-8.054750	0.000458	4.577249	0.775407	0.009151
 230	1.1450e-01	2.2858	-8.006000	0.000488	4.876695	0.826135	0.009750
 231	1.1500e-01	2.2951	-7.956823	0.000492	4.919473	0.833381	0.009835
 232	1.1550e-01	2.3050	-7.917054	0.000398	3.978357	0.673952	0.007954
 233	1.1600e-01	2.3141	-7.872581	0.000445	4.448915	0.753667	0.008895
 234	1.1650e-01	2.3245	-7.818273	0.000543	5.432810	0.920343	0.010862
 235	1.1700e-01	2.3366	-7.775083	0.000432	4.320581	0.731926	0.008638
 236	1.1750e-01	2.3441	-7.726761	0.000483	4.833917	0.818888	0.009664
 237	1.1800e-01	2.3550	-7.683999	0.000428	4.277803	0.724679	0.008553
 238	1.1850e-01	2.3663	-7.644229	0.000398	3.978357	0.673952	0.007954
 239	1.1900e-01	2.3761	-7.587355	0.000569	5.689478	0.963824	0.011375
 240	1.1950e-01	2.3845	-7.548441	0.000389	3.892801	0.659458	0.007783
 241	1.2000e-01	2.3950	-7.501403	0.000471	4.705583	0.797147	0.009408
 242	1.2050e-01	2.4051	-7.450088	0.000513	5.133364	0.869615	0.010263
 243	1.2100e-01	2.4152	-7.403476	0.000466	4.662805	0.789901	0.009322
 244	1.2150e-01	2.4249	-7.359431	0.000441	4.406137	0.746420	0.008809
 245	1.2200e-01	2.4352	-7.320517	0.000389	3.892801	0.659458	0.007783
 246	1.2250e-01	2.4471	-7.270913	0.000496	4.962251	0.840628	0.009921
 247	1.2300e-01	2.4542	-7.214466	0.000565	5.646700	0.956577	0.011289
 248	1.2350e-01	2.4659	-7.176835	0.000376	3.764467	0.637718	0.007526
 249	1.2400e-01	2.4747	-7.133217	0.000436	4.363359	0.739173	0.008724
 250	1.2450e-01	2.4852	-7.090882	0.000424	4.235025	0.717433	0.008467
 251	1.2500e-01	2.4982	-7.040850	0.000501	5.005030	0.847875	0.010006
 252	1.2550e-01	2.5057	-7.001081	0.000398	3.978357	0.673952	0.007954
 253	1.2600e-01	2.5163	-6.950621	0.000505	5.047808	0.855122	0.010092
 254	1.2650e-01	2.5264	-6.900589	0.000501	5.005030	0.847875	0.010006
 255	1.2700e-01	2.5366	-6.860392	0.000402	4.021135	0.681199	0.008039
 256	1.2750e-01	2.5454	-6.813781	0.000466	4.662805	0.789901	0.009322
 257	1.2800e-01	2.5545	-6.775722	0.000381	3.807245	0.644965	0.007612
 258	1.2850e-01	2.5641	-6.724835	0.000509	5.090586	0.862369	0.010177
 259	1.2900e-01	2.5751	-6.673948	0.000509	5.090586	0.862369	0.010177
 260	1.2950e-01	2.5843	-6.635461	0.000385	3.850023	0.652212	0.007697
 261	1.3000e-01	2.5971	-6.592699	0.000428	4.277803	0.724679	0.008553
 262	1.3050e-01	2.6067	-6.540956	0.000518	5.176142	0.876862	0.010349
 263	1.3100e-01	2.6169	-6.503325	0.000376	3.764467	0.637718	0.007526
 264	1.3150e-01	2.6242	-6.456286	0.000471	4.705583	0.797147	0.009408
 265	1.3200e-01	2.6352	-6.408820	0.000475	4.748361	0.804394	0.009493
 266	1.3250e-01	2.6477	-6.365202	0.000436	4.363359	0.739173	0.008724
 267	1.3300e-01	2.6563	-6.317308	0.000479	4.791139	0.811641	0.009579
 268	1.3350e-01	2.6654	-6.272835	0.000445	4.448915	0.753667	0.008895
 269	1.3400e-01	2.6752	-6.232211	0.000406	4.063913	0.688445	0.008125
 270	1.3450e-01	2.6825	-6.186455	0.000458	4.577249	0.775407	0.009151
 271	1.3500e-01	2.6951	-6.136423	0.000501	5.005030	0.847875	0.010006
 272	1.3550e-01	2.7073	-6.096654	0.000398	3.978357	0.673952	0.007954
 273	1.3600e-01	2.7155	-6.052181	0.000445	4.448915	0.753667	0.008895
 274	1.3650e-01	2.7238	-5.999583	0.000526	5.261698	0.891356	0.010520
 275	1.3700e-01	2.7351	-5.954254	0.000453	4.534471	0.768160	0.009066
 276	1.3750e-01	2.7448	-5.910637	0.000436	4.363359	0.739173	0.008724
 277	1.3800e-01	2.7561	-5.872150	0.000385	3.850023	0.652212	0.007697
 278	1.3850e-01	2.7686	-5.831526	0.000406	4.063913	0.688445	0.008125
 279	1.3900e-01	2.7756	-5.787480	0.000441	4.406137	0.746420	0.008809
 280	1.3950e-01	2.7850	-5.732317	0.000552	5.518366	0.934836	0.011033
 281	1.4000e-01	2.7914	-5.690410	0.000419	4.192247	0.710186	0.008381
 282	1.4050e-01	2.8035	-5.661331	0.000291	2.908906	0.492782	0.005816
 283	1.4100e-01	2.8137	-5.608305	0.000530	5.304476	0.898603	0.010605
 284	1.4150e-01	2.8271	-5.559984	0.000483	4.833917	0.818888	0.009664
 285	1.4200e-01	2.8345	-5.516366	0.000436	4.363359	0.739173	0.008724
 286	1.4250e-01	2.8473	-5.482584	0.000338	3.379464	0.572497	0.006756
 287	1.4300e-01	2.8571	-5.431696	0.000509	5.090586	0.862369	0.010177
 288	1.4350e-01	2.8668	-5.384657	0.000471	4.705583	0.797147	0.009408
 289	1.4400e-01	2.8745	-5.355579	0.000291	2.908906	0.492782	0.005816
 290	1.4450e-01	2.8872	-5.299132	0.000565	5.646700	0.956577	0.011289
 291	1.4500e-01	2.8949	-5.261929	0.000372	3.721689	0.630471	0.007441
 292	1.4550e-01	2.9050	-5.210614	0.000513	5.133364	0.869615	0.010263
 293	1.4600e-01	2.9141	-5.169134	0.000415	4.149469	0.702939	0.008296
 294	1.4650e-01	2.9260	-5.129793	0.000394	3.935579	0.666705	0.007868
 295	1.4700e-01	2.9364	-5.075057	0.000548	5.475588	0.927590	0.010947
 296	1.4750e-01	2.9476	-5.036998	0.000381	3.807245	0.644965	0.007612
 297	1.4800e-01	2.9590	-4.996801	0.000402	4.021135	0.681199	0.008039
 298	1.4850e-01	2.9691	-4.948907	0.000479	4.791139	0.811641	0.009579
 299	1.4900e-01	2.9755	-4.905290	0.000436	4.363359	0.739173	0.008724
 300	1.4950e-01	2.9851	-4.859961	0.000453	4.534471	0.768160	0.009066
 301	1.5000e-01	2.9968	-4.821047	0.000389	3.892801	0.659458	0.007783
 302	1.5050e-01	3.0063	-4.770588	0.000505	5.047808	0.855122	0.010092
 303	1.5100e-01	3.0157	-4.731674	0.000389	3.892801	0.659458	0.007783
 304	1.5150e-01	3.0268	-4.690622	0.000411	4.106691	0.695692	0.008210
 305	1.5200e-01	3.0341	-4.638451	0.000522	5.218920	0.884109	0.010434
 306	1.5250e-01	3.0457	-4.595689	0.000428	4.277803	0.724679	0.008553
 307	1.5300e-01	3.0540	-4.559768	0.000359	3.593355	0.608731	0.007184
 308	1.5350e-01	3.0646	-4.517861	0.000419	4.192247	0.710186	0.008381
 309	1.5400e-01	3.0759	-4.472960	0.000449	4.491693	0.760913	0.008980
 310	1.5450e-01	3.0856	-4.433619	0.000394	3.935579	0.666705	0.007868
 311	1.5500e-01	3.0969	-4.384014	0.000496	4.962251	0.840628	0.009921
 312	1.5550e-01	3.1019	-4.330561	0.000535	5.347254	0.905849	0.010691
 313	1.5600e-01	3.1146	-4.300627	0.000299	2.994462	0.507276	0.005987
 314	1.5650e-01	3.1253	-4.252733	0.000479	4.791139	0.811641	0.009579
 315	1.5700e-01	3.1367	-4.205267	0.000475	4.748361	0.804394	0.009493
 316	1.5750e-01	3.1465	-4.174050	0.000312	3.122796	0.529016	0.006243
 317	1.5800e-01	3.1555	-4.120170	0.000539	5.390032	0.913096	0.010776
 318	1.5850e-01	3.1696	-4.091091	0.000291	2.908906	0.492782	0.005816
 319	1.5900e-01	3.1734	-4.044480	0.000466	4.662805	0.789901	0.009322
 320	1.5950e-01	3.1854	-4.006849	0.000376	3.764467	0.637718	0.007526
 321	1.6000e-01	3.1970	-3.958955	0.000479	4.791139	0.811641	0.009579
 322	1.6050e-01	3.2025	-3.906357	0.000526	5.261698	0.891356	0.010520
 323	1.6100e-01	3.2201	-3.873002	0.000334	3.336686	0.565250	0.006671
 324	1.6150e-01	3.2254	-3.836226	0.000368	3.678911	0.623224	0.007355
 325	1.6200e-01	3.2367	-3.789188	0.000471	4.705583	0.797147	0.009408
 326	1.6250e-01	3.2442	-3.741721	0.000475	4.748361	0.804394	0.009493
 327	1.6300e-01	3.2545	-3.698959	0.000428	4.277803	0.724679	0.008553
 328	1.6350e-01	3.2668	-3.666887	0.000321	3.208352	0.543510	0.006414
 329	1.6400e-01	3.2788	-3.616855	0.000501	5.005030	0.847875	0.010006
 330	1.6450e-01	3.2870	-3.573237	0.000436	4.363359	0.739173	0.008724
 331	1.6500e-01	3.2967	-3.523205	0.000501	5.005030	0.847875	0.010006
 332	1.6550e-01	3.3063	-3.486001	0.000372	3.721689	0.630471	0.007441
 333	1.6600e-01	3.3163	-3.450936	0.000351	3.507798	0.594237	0.007013
 334	1.6650e-01	3.3267	-3.400049	0.000509	5.090586	0.862369	0.010177
 335	1.6700e-01	3.3368	-3.362845	0.000372	3.721689	0.630471	0.007441
 336	1.6750e-01	3.3450	-3.321366	0.000415	4.149469	0.702939	0.008296
 337	1.6800e-01	3.3575	-3.276892	0.000445	4.448915	0.753667	0.008895
 338	1.6850e-01	3.3676	-3.239261	0.000376	3.764467	0.637718	0.007526
 339	1.6900e-01	3.3789	-3.192223	0.000471	4.705583	0.797147	0.009408
 340	1.6950e-01	3.3850	-3.154164	0.000381	3.807245	0.644965	0.007612
 341	1.7000e-01	3.3929	-3.113967	0.000402	4.021135	0.681199	0.008039
 342	1.7050e-01	3.4095	-3.066073	0.000479	4.791139	0.811641	0.009579
 343	1.7100e-01	3.4151	-3.016469	0.000496	4.962251	0.840628	0.009921
 344	1.7150e-01	3.4266	-2.982259	0.000342	3.422242	0.579744	0.006842
 345	1.7200e-01	3.4341	-2.945483	0.000368	3.678911	0.623224	0.007355
 346	1.7250e-01	3.4433	-2.894168	0.000513	5.133364	0.869615	0.010263
 347	1.7300e-01	3.4558	-2.861668	0.000325	3.251130	0.550756	0.006500
 348	1.7350e-01	3.4647	-2.812064	0.000496	4.962251	0.840628	0.009921
 349	1.7400e-01	3.4769	-2.773578	0.000385	3.850023	0.652212	0.007697
 350	1.7450e-01	3.4857	-2.735947	0.000376	3.764467	0.637718	0.007526
 351	1.7500e-01	3.4979	-2.692329	0.000436	4.363359	0.739173	0.008724
 352	1.7550e-01	3.5046	-2.647428	0.000449	4.491693	0.760913	0.008980
 353	1.7600e-01	3.5156	-2.605093	0.000424	4.235025	0.717433	0.008467
 354	1.7650e-01	3.5242	-2.561048	0.000441	4.406137	0.746420	0.008809
 355	1.7700e-01	3.5382	-2.526838	0.000342	3.422242	0.579744	0.006842
 356	1.7750e-01	3.5483	-2.476806	0.000501	5.005030	0.847875	0.010006
 357	1.7800e-01	3.5572	-2.443878	0.000329	3.293908	0.558003	0.006585
 358	1.7850e-01	3.5669	-2.402826	0.000411	4.106691	0.695692	0.008210
 359	1.7900e-01	3.5776	-2.361774	0.000411	4.106691	0.695692	0.008210
 360	1.7950e-01	3.5852	-2.319439	0.000424	4.235025	0.717433	0.008467
 361	1.8000e-01	3.5963	-2.273256	0.000462	4.620027	0.782654	0.009237
 362	1.8050e-01	3.6061	-2.243750	0.000295	2.951684	0.500029	0.005901
 363	1.8100e-01	3.6163	-2.197139	0.000466	4.662805	0.789901	0.009322
 364	1.8150e-01	3.6255	-2.144541	0.000526	5.261698	0.891356	0.010520
 365	1.8200e-01	3.6357	-2.104344	0.000402	4.021135	0.681199	0.008039
 366	1.8250e-01	3.6469	-2.070562	0.000338	3.379464	0.572497	0.006756
 367	1.8300e-01	3.6539	-2.031648	0.000389	3.892801	0.659458	0.007783
 368	1.8350e-01	3.6658	-1.974346	0.000573	5.732256	0.971070	0.011460
 369	1.8400e-01	3.6755	-1.952109	0.000222	2.224458	0.376833	0.004447
 370	1.8450e-01	3.6884	-1.910630	0.000415	4.149469	0.702939	0.008296
 371	1.8500e-01	3.6971	-1.867440	0.000432	4.320581	0.731926	0.008638
 372	1.8550e-01	3.7079	-1.826815	0.000406	4.063913	0.688445	0.008125
 373	1.8600e-01	3.7151	-1.777638	0.000492	4.919473	0.833381	0.009835
 374	1.8650e-01	3.7265	-1.742145	0.000355	3.550576	0.601484	0.007099
 375	1.8700e-01	3.7384	-1.697245	0.000449	4.491693	0.760913	0.008980
 376	1.8750e-01	3.7483	-1.665173	0.000321	3.208352	0.543510	0.006414
 377	1.8800e-01	3.7561	-1.622410	0.000428	4.277803	0.724679	0.008553
 378	1.8850e-01	3.7650	-1.589483	0.000329	3.293908	0.558003	0.006585
 379	1.8900e-01	3.7775	-1.534747	0.000548	5.475588	0.927590	0.010947
 380	1.8950e-01	3.7903	-1.489419	0.000453	4.534471	0.768160	0.009066
 381	1.9000e-01	3.7979	-1.458630	0.000308	3.080018	0.521769	0.006158
 382	1.9050e-01	3.8058	-1.415867	0.000428	4.277803	0.724679	0.008553
 383	1.9100e-01	3.8153	-1.379947	0.000359	3.593355	0.608731	0.007184
 384	1.9150e-01	3.8256	-1.335901	0.000441	4.406137	0.746420	0.008809
 385	1.9200e-01	3.8367	-1.288007	0.000479	4.791139	0.811641	0.009579
 386	1.9250e-01	3.8461	-1.259784	0.000282	2.823350	0.478288	0.005645
 387	1.9300e-01	3.8573	-1.214883	0.000449	4.491693	0.760913	0.008980
 388	1.9350e-01	3.8681	-1.172121	0.000428	4.277803	0.724679	0.008553
 389	1.9400e-01	3.8754	-1.140049	0.000321	3.208352	0.543510	0.006414
 390	1.9450e-01	3.8873	-1.098142	0.000419	4.192247	0.710186	0.008381
 391	1.9500e-01	3.8953	-1.056662	0.000415	4.149469	0.702939	0.008296
 392	1.9550e-01	3.9052	-1.012189	0.000445	4.448915	0.753667	0.008895
 393	1.9600e-01	3.9148	-0.975413	0.000368	3.678911	0.623224	0.007355
 394	1.9650e-01	3.9270	-0.940776	0.000347	3.465020	0.586990	0.006928
 395	1.9700e-01	3.9353	-0.887750	0.000530	5.304476	0.898603	0.010605
 396	1.9750e-01	3.9456	-0.849264	0.000385	3.850023	0.652212	0.007697
 397	1.9800e-01	3.9532	-0.805218	0.000441	4.406137	0.746420	0.008809
 398	1.9850e-01	3.9655	-0.771008	0.000342	3.422242	0.579744	0.006842
 399	1.9900e-01	3.9752	-0.734233	0.000368	3.678911	0.623224	0.007355
 400	1.9950e-01	3.9880	-0.690187	0.000441	4.406137	0.746420	0.008809
 401	2.0000e-01	3.9963	-0.655122	0.000351	3.507798	0.594237	0.007013
 402	2.0050e-01	4.0040	-0.601241	0.000539	5.390032	0.913096	0.010776
 403	2.0100e-01	4.0167	-0.572590	0.000287	2.866128	0.485535	0.005730
 404	2.0150e-01	4.0271	-0.528545	0.000441	4.406137	0.746420	0.008809
 405	2.0200e-01	4.0372	-0.494762	0.000338	3.379464	0.572497	0.006756
 406	2.0250e-01	4.0469	-0.461835	0.000329	3.293908	0.558003	0.006585
 407	2.0300e-01	4.0546	-0.408382	0.000535	5.347254	0.905849	0.010691
 408	2.0350e-01	4.0649	-0.374600	0.000338	3.379464	0.572497	0.006756
 409	2.0400e-01	4.0778	-0.329271	0.000453	4.534471	0.768160	0.009066
 410	2.0450e-01	4.0846	-0.295061	0.000342	3.422242	0.579744	0.006842
 411	2.0500e-01	4.0967	-0.259141	0.000359	3.593355	0.608731	0.007184
 412	2.0550e-01	4.1048	-0.209109	0.000501	5.005030	0.847875	0.010006
 413	2.0600e-01	4.1147	-0.175326	0.000338	3.379464	0.572497	0.006756
 414	2.0650e-01	4.1260	-0.135985	0.000394	3.935579	0.666705	0.007868
 415	2.0700e-01	4.1385	-0.093650	0.000424	4.235025	0.717433	0.008467
 416	2.0750e-01	4.1457	-0.060295	0.000334	3.336686	0.565250	0.006671
 417	2.0800e-01	4.1554	-0.015822	0.000445	4.448915	0.753667	0.008895
 418	2.0850e-01	4.1655	0.019671	0.000355	3.550576	0.601484	0.007099
 419	2.0900e-01	4.1750	0.062006	0.000424	4.235025	0.717433	0.008467
 420	2.0950e-01	4.1864	0.097926	0.000359	3.593355	0.608731	0.007184
 421	2.1000e-01	4.1995	0.135557	0.000376	3.764467	0.637718	0.007526
 422	2.1050e-01	4.2062	0.185162	0.000496	4.962251	0.840628	0.009921
 423	2.1100e-01	4.2169	0.216806	0.000317	3.165574	0.536263	0.006329
 424	2.1150e-01	4.2250	0.261279	0.000445	4.448915	0.753667	0.008895
 425	2.1200e-01	4.2349	0.295917	0.000347	3.465020	0.586990	0.006928
 426	2.1250e-01	4.2462	0.339107	0.000432	4.320581	0.731926	0.008638
 427	2.1300e-01	4.2542	0.382297	0.000432	4.320581	0.731926	0.008638
 428	2.1350e-01	4.2654	0.409237	0.000270	2.695016	0.456548	0.005388
 429	2.1400e-01	4.2770	0.450289	0.000411	4.106691	0.695692	0.008210
 430	2.1450e-01	4.2885	0.498183	0.000479	4.791139	0.811641	0.009579
 431	2.1500e-01	4.2966	0.531538	0.000334	3.336686	0.565250	0.006671
 432	2.1550e-01	4.3060	0.573445	0.000419	4.192247	0.710186	0.008381
 433	2.1600e-01	4.3155	0.605517	0.000321	3.208352	0.543510	0.006414
 434	2.1650e-01	4.3256	0.649563	0.000441	4.406137	0.746420	0.008809
 435	2.1700e-01	4.3372	0.687194	0.000376	3.764467	0.637718	0.007526
 436	2.1750e-01	4.3488	0.731239	0.000441	4.406137	0.746420	0.008809
 437	2.1800e-01	4.3555	0.759462	0.000282	2.823350	0.478288	0.005645
 438	2.1850e-01	4.3631	0.798376	0.000389	3.892801	0.659458	0.007783
 439	2.1900e-01	4.3759	0.846698	0.000483	4.833917	0.818888	0.009664
 440	2.1950e-01	4.3866	0.875349	0.000287	2.866128	0.485535	0.005730
 441	2.2000e-01	4.3980	0.925809	0.000505	5.047808	0.855122	0.010092
 442	2.2050e-01	4.4080	0.964723	0.000389	3.892801	0.659458	0.007783
 443	2.2100e-01	4.4165	1.000216	0.000355	3.550576	0.601484	0.007099
 444	2.2150e-01	4.4250	1.035708	0.000355	3.550576	0.601484	0.007099
 445	2.2200e-01	4.4357	1.078043	0.000424	4.235025	0.717433	0.008467
 446	2.2250e-01	4.4441	1.118240	0.000402	4.021135	0.681199	0.008039
 447	2.2300e-01	4.4559	1.143042	0.000248	2.481126	0.420314	0.004960
 448	2.2350e-01	4.4676	1.185377	0.000424	4.235025	0.717433	0.008467
 449	2.2400e-01	4.4741	1.231133	0.000458	4.577249	0.775407	0.009151
 450	2.2450e-01	4.4843	1.268337	0.000372	3.721689	0.630471	0.007441
 451	2.2500e-01	4.4971	1.308961	0.000406	4.063913	0.688445	0.008125
 452	2.2550e-01	4.5074	1.333763	0.000248	2.481126	0.420314	0.004960
 453	2.2600e-01	4.5148	1.387216	0.000535	5.347254	0.905849	0.010691
 454	2.2650e-01	4.5258	1.417150	0.000299	2.994462	0.507276	0.005987
 455	2.2700e-01	4.5355	1.463334	0.000462	4.620027	0.782654	0.009237
 456	2.2750e-01	4.5468	1.499682	0.000364	3.636133	0.615978	0.007270
 457	2.2800e-01	4.5569	1.529188	0.000295	2.951684	0.500029	0.005901
 458	2.2850e-01	4.5667	1.575372	0.000462	4.620027	0.782654	0.009237
 459	2.2900e-01	4.5753	1.614285	0.000389	3.892801	0.659458	0.007783
 460	2.2950e-01	4.5837	1.656620	0.000424	4.235025	0.717433	0.008467
 461	2.3000e-01	4.5953	1.690830	0.000342	3.422242	0.579744	0.006842
 462	2.3050e-01	4.6048	1.711356	0.000205	2.053345	0.347846	0.004105
 463	2.3100e-01	4.6182	1.760533	0.000492	4.919473	0.833381	0.009835
 464	2.3150e-01	4.6255	1.798592	0.000381	3.807245	0.644965	0.007612
 465	2.3200e-01	4.6356	1.839216	0.000406	4.063913	0.688445	0.008125
 466	2.3250e-01	4.6466	1.883262	0.000441	4.406137	0.746420	0.008809
 467	2.3300e-01	4.6570	1.909774	0.000265	2.652238	0.449301	0.005303
 468	2.3350e-01	4.6680	1.952109	0.000424	4.235025	0.717433	0.008467
 469	2.3400e-01	4.6790	1.988030	0.000359	3.593355	0.608731	0.007184
 470	2.3450e-01	4.6872	2.029510	0.000415	4.149469	0.702939	0.008296
 471	2.3500e-01	4.6968	2.066285	0.000368	3.678911	0.623224	0.007355
 472	2.3550e-01	4.7072	2.103061	0.000368	3.678911	0.623224	0.007355
 473	2.3600e-01	4.7144	2.143258	0.000402	4.021135	0.681199	0.008039
 474	2.3650e-01	4.7266	2.180889	0.000376	3.764467	0.637718	0.007526
 475	2.3700e-01	4.7369	2.218092	0.000372	3.721689	0.630471	0.007441
 476	2.3750e-01	4.7464	2.251019	0.000329	3.293908	0.558003	0.006585
 477	2.3800e-01	4.7571	2.293354	0.000424	4.235025	0.717433	0.008467
 478	2.3850e-01	4.7687	2.332696	0.000394	3.935579	0.666705	0.007868
 479	2.3900e-01	4.7778	2.360492	0.000278	2.780572	0.471042	0.005559
 480	2.3950e-01	4.7876	2.403254	0.000428	4.277803	0.724679	0.008553
 481	2.4000e-01	4.7962	2.434898	0.000317	3.165574	0.536263	0.006329
 482	2.4050e-01	4.8053	2.482365	0.000475	4.748361	0.804394	0.009493
 483	2.4100e-01	4.8177	2.518713	0.000364	3.636133	0.615978	0.007270
 484	2.4150e-01	4.8257	2.557199	0.000385	3.850023	0.652212	0.007697
 485	2.4200e-01	4.8363	2.596113	0.000389	3.892801	0.659458	0.007783
 486	2.4250e-01	4.8436	2.633744	0.000376	3.764467	0.637718	0.007526
 487	2.4300e-01	4.8610	2.661540	0.000278	2.780572	0.471042	0.005559
 488	2.4350e-01	4.8685	2.694039	0.000325	3.251130	0.550756	0.006500
 489	2.4400e-01	4.8758	2.744071	0.000501	5.005030	0.847875	0.010006
 490	2.4450e-01	4.8849	2.781702	0.000376	3.764467	0.637718	0.007526
 491	2.4500e-01	4.8978	2.806505	0.000248	2.481126	0.420314	0.004960
 492	2.4550e-01	4.9063	2.848412	0.000419	4.192247	0.710186	0.008381
 493	2.4600e-01	4.9130	2.887326	0.000389	3.892801	0.659458	0.007783
 494	2.4650e-01	4.9265	2.921964	0.000347	3.465020	0.586990	0.006928
 495	2.4700e-01	4.9367	2.971568	0.000496	4.962251	0.840628	0.009921
 496	2.4750e-01	4.9460	3.002785	0.000312	3.122796	0.529016	0.006243
 497	2.4800e-01	4.9554	3.033574	0.000308	3.080018	0.521769	0.006158
 498	2.4850e-01	4.9683	3.071632	0.000381	3.807245	0.644965	0.007612
 499	2.4900e-01	4.9756	3.111829	0.000402	4.021135	0.681199	0.008039
 500	2.4950e-01	4.9861	3.152881	0.000411	4.106691	0.695692	0.008210
 501	2.5000e-01	4.9957	3.182815	0.000299	2.994462	0.507276	0.005987
 502	2.5050e-01	5.0098	3.215742	0.000329	3.293908	0.558003	0.006585
 503	2.5100e-01	5.0162	3.252090	0.000364	3.636133	0.615978	0.007270
 504	2.5150e-01	5.0275	3.292287	0.000402	4.021135	0.681199	0.008039
 505	2.5200e-01	5.0378	3.335477	0.000432	4.320581	0.731926	0.008638
 506	2.5250e-01	5.0479	3.369260	0.000338	3.379464	0.572497	0.006756
 507	2.5300e-01	5.0549	3.401331	0.000321	3.208352	0.543510	0.006414
 508	2.5350e-01	5.0641	3.438107	0.000368	3.678911	0.623224	0.007355
 509	2.5400e-01	5.0781	3.484291	0.000462	4.620027	0.782654	0.009237
 510	2.5450e-01	5.0873	3.518501	0.000342	3.422242	0.579744	0.006842
 511	2.5500e-01	5.0967	3.546724	0.000282	2.823350	0.478288	0.005645
 512	2.5550e-01	5.1041	3.596329	0.000496	4.962251	0.840628	0.009921
 513	2.5600e-01	5.1147	3.622841	0.000265	2.652238	0.449301	0.005303
 514	2.5650e-01	5.1254	3.669880	0.000471	4.705583	0.797147	0.009408
 515	2.5700e-01	5.1355	3.692544	0.000227	2.267236	0.384080	0.004533
 516	2.5750e-01	5.1459	3.732313	0.000398	3.978357	0.673952	0.007954
 517	2.5800e-01	5.1569	3.773365	0.000411	4.106691	0.695692	0.008210
 518	2.5850e-01	5.1636	3.805437	0.000321	3.208352	0.543510	0.006414
 519	2.5900e-01	5.1743	3.843924	0.000385	3.850023	0.652212	0.007697
 520	2.5950e-01	5.1865	3.880699	0.000368	3.678911	0.623224	0.007355
 521	2.6000e-01	5.1978	3.912344	0.000317	3.165574	0.536263	0.006329
 522	2.6050e-01	5.2045	3.946981	0.000347	3.465020	0.586990	0.006928
 523	2.6100e-01	5.2167	3.980764	0.000338	3.379464	0.572497	0.006756
 524	2.6150e-01	5.2277	4.020960	0.000402	4.021135	0.681199	0.008039
 525	2.6200e-01	5.2353	4.058591	0.000376	3.764467	0.637718	0.007526
 526	2.6250e-01	5.2484	4.092374	0.000338	3.379464	0.572497	0.006756
 527	2.6300e-01	5.2567	4.136847	0.000445	4.448915	0.753667	0.008895
 528	2.6350e-01	5.2661	4.162932	0.000261	2.609460	0.442054	0.005217
 529	2.6400e-01	5.2765	4.201418	0.000385	3.850023	0.652212	0.007697
 530	2.6450e-01	5.2863	4.239049	0.000376	3.764467	0.637718	0.007526
 531	2.6500e-01	5.2972	4.274115	0.000351	3.507798	0.594237	0.007013
 532	2.6550e-01	5.3064	4.312601	0.000385	3.850023	0.652212	0.007697
 533	2.6600e-01	5.3162	4.345528	0.000329	3.293908	0.558003	0.006585
 534	2.6650e-01	5.3265	4.384014	0.000385	3.850023	0.652212	0.007697
 535	2.6700e-01	5.3351	4.422501	0.000385	3.850023	0.652212	0.007697
 536	2.6750e-01	5.3473	4.453290	0.000308	3.080018	0.521769	0.006158
 537	2.6800e-01	5.3571	4.489210	0.000359	3.593355	0.608731	0.007184
 538	2.6850e-01	5.3674	4.525131	0.000359	3.593355	0.608731	0.007184
 539	2.6900e-01	5.3761	4.557203	0.000321	3.208352	0.543510	0.006414
 540	2.6950e-01	5.3870	4.594406	0.000372	3.721689	0.630471	0.007441
 541	2.7000e-01	5.3961	4.633747	0.000394	3.935579	0.666705	0.007868
 542	2.7050e-01	5.4059	4.673089	0.000394	3.935579	0.666705	0.007868
 543	2.7100e-01	5.4156	4.697464	0.000244	2.438348	0.413067	0.004875
 544	2.7150e-01	5.4248	4.747068	0.000496	4.962251	0.840628	0.009921
 545	2.7200e-01	5.4370	4.774436	0.000274	2.737794	0.463795	0.005474
 546	2.7250e-01	5.4449	4.815061	0.000406	4.063913	0.688445	0.008125
 547	2.7300e-01	5.4559	4.849698	0.000347	3.465020	0.586990	0.006928
 548	2.7350e-01	5.4669	4.878777	0.000291	2.908906	0.492782	0.005816
 549	2.7400e-01	5.4818	4.914270	0.000355	3.550576	0.601484	0.007099
 550	2.7450e-01	5.4855	4.948907	0.000347	3.465020	0.586990	0.006928
 551	2.7500e-01	5.4980	4.987821	0.000389	3.892801	0.659458	0.007783
 552	2.7550e-01	5.5054	5.029301	0.000415	4.149469	0.702939	0.008296
 553	2.7600e-01	5.5167	5.063511	0.000342	3.422242	0.579744	0.006842
 554	2.7650e-01	5.5286	5.091734	0.000282	2.823350	0.478288	0.005645
 555	2.7700e-01	5.5359	5.133214	0.000415	4.149469	0.702939	0.008296
 556	2.7750e-01	5.5457	5.170417	0.000372	3.721689	0.630471	0.007441
 557	2.7800e-01	5.5563	5.198640	0.000282	2.823350	0.478288	0.005645
 558	2.7850e-01	5.5640	5.241403	0.000428	4.277803	0.724679	0.008553
 559	2.7900e-01	5.5768	5.274330	0.000329	3.293908	0.558003	0.006585
 560	2.7950e-01	5.5872	5.310251	0.000359	3.593355	0.608731	0.007184
 561	2.8000e-01	5.5975	5.341467	0.000312	3.122796	0.529016	0.006243
 562	2.8050e-01	5.6061	5.382092	0.000406	4.063913	0.688445	0.008125
 563	2.8100e-01	5.6158	5.415874	0.000338	3.379464	0.572497	0.006756
 564	2.8150e-01	5.6258	5.448374	0.000325	3.251130	0.550756	0.006500
 565	2.8200e-01	5.6363	5.480873	0.000325	3.251130	0.550756	0.006500
 566	2.8250e-01	5.6451	5.522353	0.000415	4.149469	0.702939	0.008296
 567	2.8300e-01	5.6549	5.554852	0.000325	3.251130	0.550756	0.006500
 568	2.8350e-01	5.6647	5.587352	0.000325	3.251130	0.550756	0.006500
 569	2.8400e-01	5.6769	5.622845	0.000355	3.550576	0.601484	0.007099
 570	2.8450e-01	5.6866	5.657055	0.000342	3.422242	0.579744	0.006842
 571	2.8500e-01	5.6976	5.699390	0.000424	4.235025	0.717433	0.008467
 572	2.8550e-01	5.7047	5.736165	0.000368	3.678911	0.623224	0.007355
 573	2.8600e-01	5.7153	5.755409	0.000193	1.925011	0.326106	0.003849
 574	2.8650e-01	5.7263	5.798599	0.000432	4.320581	0.731926	0.008638
 575	2.8700e-01	5.7355	5.829815	0.000312	3.122796	0.529016	0.006243
 576	2.8750e-01	5.7455	5.864881	0.000351	3.507798	0.594237	0.007013
 577	2.8800e-01	5.7574	5.897380	0.000325	3.251130	0.550756	0.006500
 578	2.8850e-01	5.7672	5.940143	0.000428	4.277803	0.724679	0.008553
 579	2.8900e-01	5.7755	5.970504	0.000304	3.037240	0.514522	0.006072
 580	2.8950e-01	5.7858	6.011128	0.000406	4.063913	0.688445	0.008125
 581	2.9000e-01	5.7947	6.027806	0.000167	1.668343	0.282625	0.003335
 582	2.9050e-01	5.8057	6.071851	0.000441	4.406137	0.746420	0.008809
 583	2.9100e-01	5.8157	6.110338	0.000385	3.850023	0.652212	0.007697
 584	2.9150e-01	5.8252	6.141127	0.000308	3.080018	0.521769	0.006158
 585	2.9200e-01	5.8383	6.183034	0.000419	4.192247	0.710186	0.008381
 586	2.9250e-01	5.8453	6.218099	0.000351	3.507798	0.594237	0.007013
 587	2.9300e-01	5.8563	6.248033	0.000299	2.994462	0.507276	0.005987
 588	2.9350e-01	5.8643	6.283526	0.000355	3.550576	0.601484	0.007099
 589	2.9400e-01	5.8795	6.320729	0.000372	3.721689	0.630471	0.007441
 590	2.9450e-01	5.8875	6.352801	0.000321	3.208352	0.543510	0.006414
 591	2.9500e-01	5.8929	6.388294	0.000355	3.550576	0.601484	0.007099
 592	2.9550e-01	5.9048	6.425497	0.000372	3.721689	0.630471	0.007441
 593	2.9600e-01	5.9155	6.455004	0.000295	2.951684	0.500029	0.005901
 594	2.9650e-01	5.9296	6.491779	0.000368	3.678911	0.623224	0.007355
 595	2.9700e-01	5.9381	6.530266	0.000385	3.850023	0.652212	0.007697
 596	2.9750e-01	5.9467	6.555923	0.000257	2.566682	0.434808	0.005132
 597	2.9800e-01	5.9570	6.596547	0.000406	4.063913	0.688445	0.008125
 598	2.9850e-01	5.9656	6.629902	0.000334	3.336686	0.565250	0.006671
 599	2.9900e-01	5.9775	6.662829	0.000329	3.293908	0.558003	0.006585
 600	2.9950e-01	5.9857	6.694474	0.000317	3.165574	0.536263	0.006329
 601	3.0000e-01	5.9940	6.733815	0.000394	3.935579	0.666705	0.007868
 602	3.0050e-01	6.0052	6.765887	0.000321	3.208352	0.543510	0.006414
 603	3.0100e-01	6.0159	6.800097	0.000342	3.422242	0.579744	0.006842
 604	3.0150e-01	6.0275	6.830459	0.000304	3.037240	0.514522	0.006072
 605	3.0200e-01	6.0361	6.871511	0.000411	4.106691	0.695692	0.008210
 606	3.0250e-01	6.0498	6.902300	0.000308	3.080018	0.521769	0.006158
 607	3.0300e-01	6.0596	6.938648	0.000364	3.636133	0.615978	0.007270
 608	3.0350e-01	6.0690	6.972430	0.000338	3.379464	0.572497	0.006756
 609	3.0400e-01	6.0767	7.002791	0.000304	3.037240	0.514522	0.006072
 610	3.0450e-01	6.0873	7.036574	0.000338	3.379464	0.572497	0.006756
 611	3.0500e-01	6.0962	7.067363	0.000308	3.080018	0.521769	0.006158
 612	3.0550e-01	6.1053	7.113974	0.000466	4.662805	0.789901	0.009322
 613	3.0600e-01	6.1176	7.130651	0.000167	1.668343	0.282625	0.003335
 614	3.0650e-01	6.1285	7.175552	0.000449	4.491693	0.760913	0.008980
 615	3.0700e-01	6.1353	7.213183	0.000376	3.764467	0.637718	0.007526
 616	3.0750e-01	6.1493	7.238841	0.000257	2.566682	0.434808	0.005132
 617	3.0800e-01	6.1572	7.283741	0.000449	4.491693	0.760913	0.008980
 618	3.0850e-01	6.1664	7.311109	0.000274	2.737794	0.463795	0.005474
 619	3.0900e-01	6.1765	7.340615	0.000295	2.951684	0.500029	0.005901
 620	3.0950e-01	6.1865	7.373970	0.000334	3.336686	0.565250	0.006671
 621	3.1000e-01	6.1981	7.408608	0.000347	3.465020	0.586990	0.006928
 622	3.1050e-01	6.2067	7.449232	0.000406	4.063913	0.688445	0.008125
 623	3.1100e-01	6.2170	7.479166	0.000299	2.994462	0.507276	0.005987
 624	3.1150e-01	6.2280	7.518080	0.000389	3.892801	0.659458	0.007783
 625	3.1200e-01	6.2375	7.542882	0.000248	2.481126	0.420314	0.004960
 626	3.1250e-01	6.2469	7.579658	0.000368	3.678911	0.623224	0.007355
 627	3.1300e-01	6.2585	7.613013	0.000334	3.336686	0.565250	0.006671
 628	3.1350e-01	6.2659	7.646795	0.000338	3.379464	0.572497	0.006756
 629	3.1400e-01	6.2784	7.683143	0.000364	3.636133	0.615978	0.007270
 630	3.1450e-01	6.2860	7.719064	0.000359	3.593355	0.608731	0.007184
 631	3.1500e-01	6.2967	7.748570	0.000295	2.951684	0.500029	0.005901
 632	3.1550e-01	6.3074	7.778931	0.000304	3.037240	0.514522	0.006072
 633	3.1600e-01	6.3147	7.809720	0.000308	3.080018	0.521769	0.006158
 634	3.1650e-01	6.3245	7.847779	0.000381	3.807245	0.644965	0.007612
 635	3.1700e-01	6.3354	7.877713	0.000299	2.994462	0.507276	0.005987
 636	3.1750e-01	6.3489	7.914916	0.000372	3.721689	0.630471	0.007441
 637	3.1800e-01	6.3531	7.946988	0.000321	3.208352	0.543510	0.006414
 638	3.1850e-01	6.3678	7.973073	0.000261	2.609460	0.442054	0.005217
 639	3.1900e-01	6.3763	8.012842	0.000398	3.978357	0.673952	0.007954
 640	3.1950e-01	6.3852	8.041066	0.000282	2.823350	0.478288	0.005645
 641	3.2000e-01	6.3959	8.086822	0.000458	4.577249	0.775407	0.009151
 642	3.2050e-01	6.4063	8.107348	0.000205	2.053345	0.347846	0.004105
 643	3.2100e-01	6.4157	8.137709	0.000304	3.037240	0.514522	0.006072
 644	3.2150e-01	6.4282	8.187314	0.000496	4.962251	0.840628	0.009921
 645	3.2200e-01	6.4343	8.210405	0.000231	2.310014	0.391327	0.004618
 646	3.2250e-01	6.4481	8.246326	0.000359	3.593355	0.608731	0.007184
 647	3.2300e-01	6.4563	8.278825	0.000325	3.251130	0.550756	0.006500
 648	3.2350e-01	6.4685	8.310897	0.000321	3.208352	0.543510	0.006414
 649	3.2400e-01	6.4761	8.342114	0.000312	3.122796	0.529016	0.006243
 650	3.2450e-01	6.4850	8.376752	0.000347	3.465020	0.586990	0.006928
 651	3.2500e-01	6.4948	8.417804	0.000411	4.106691	0.695692	0.008210
 652	3.2550e-01	6.5082	8.440040	0.000222	2.224458	0.376833	0.004447
 653	3.2600e-01	6.5161	8.476388	0.000364	3.636133	0.615978	0.007270
 654	3.2650e-01	6.5277	8.503329	0.000270	2.695016	0.456548	0.005388
 655	3.2700e-01	6.5378	8.531979	0.000287	2.866128	0.485535	0.005730
 656	3.2750e-01	6.5466	8.579018	0.000471	4.705583	0.797147	0.009408
 657	3.2800e-01	6.5570	8.601682	0.000227	2.267236	0.384080	0.004533
 658	3.2850e-01	6.5674	8.638886	0.000372	3.721689	0.630471	0.007441
 659	3.2900e-01	6.5784	8.672241	0.000334	3.336686	0.565250	0.006671
 660	3.2950e-01	6.5869	8.702174	0.000299	2.994462	0.507276	0.005987
 661	3.3000e-01	6.5961	8.744937	0.000428	4.277803	0.724679	0.008553
 662	3.3050e-01	6.6058	8.770167	0.000252	2.523904	0.427561	0.005046
 663	3.3100e-01	6.6168	8.794541	0.000244	2.438348	0.413067	0.004875
 664	3.3150e-01	6.6266	8.843718	0.000492	4.919473	0.833381	0.009835
 665	3.3200e-01	6.6394	8.873652	0.000299	2.994462	0.507276	0.005987
 666	3.3250e-01	6.6467	8.903586	0.000299	2.994462	0.507276	0.005987
 667	3.3300e-01	6.6568	8.939506	0.000359	3.593355	0.608731	0.007184
 668	3.3350e-01	6.6675	8.966447	0.000270	2.695016	0.456548	0.005388
 669	3.3400e-01	6.6760	9.004505	0.000381	3.807245	0.644965	0.007612
 670	3.3450e-01	6.6840	9.034439	0.000299	2.994462	0.507276	0.005987
 671	3.3500e-01	6.6937	9.067366	0.000329	3.293908	0.558003	0.006585
 672	3.3550e-01	6.7078	9.094734	0.000274	2.737794	0.463795	0.005474
 673	3.3600e-01	6.7163	9.128517	0.000338	3.379464	0.572497	0.006756
 674	3.3650e-01	6.7271	9.162727	0.000342	3.422242	0.579744	0.006842
 675	3.3700e-01	6.7377	9.196509	0.000338	3.379464	0.572497	0.006756
 676	3.3750e-01	6.7462	9.227726	0.000312	3.122796	0.529016	0.006243
 677	3.3800e-01	6.7551	9.264074	0.000364	3.636133	0.615978	0.007270
 678	3.3850e-01	6.7682	9.301277	0.000372	3.721689	0.630471	0.007441
 679	3.3900e-01	6.7761	9.328645	0.000274	2.737794	0.463795	0.005474
 680	3.3950e-01	6.7856	9.357724	0.000291	2.908906	0.492782	0.005816
 681	3.4000e-01	6.7987	9.388085	0.000304	3.037240	0.514522	0.006072
 682	3.4050e-01	6.8060	9.419302	0.000312	3.122796	0.529016	0.006243
 683	3.4100e-01	6.8182	9.456505	0.000372	3.721689	0.630471	0.007441
 684	3.4150e-01	6.8274	9.487722	0.000312	3.122796	0.529016	0.006243
 685	3.4200e-01	6.8378	9.521504	0.000338	3.379464	0.572497	0.006756
 686	3.4250e-01	6.8469	9.555287	0.000338	3.379464	0.572497	0.006756
 687	3.4300e-01	6.8591	9.583082	0.000278	2.780572	0.471042	0.005559
 688	3.4350e-01	6.8683	9.619858	0.000368	3.678911	0.623224	0.007355
 689	3.4400e-01	6.8738	9.657489	0.000376	3.764467	0.637718	0.007526
 690	3.4450e-01	6.8842	9.684857	0.000274	2.737794	0.463795	0.005474
 691	3.4500e-01	6.8945	9.708804	0.000240	2.395570	0.405820	0.004789
 692	3.4550e-01	6.9061	9.750712	0.000419	4.192247	0.710186	0.008381
 693	3.4600e-01	6.9159	9.776797	0.000261	2.609460	0.442054	0.005217
 694	3.4650e-01	6.9281	9.813572	0.000368	3.678911	0.623224	0.007355
 695	3.4700e-01	6.9360	9.842651	0.000291	2.908906	0.492782	0.005816
 696	3.4750e-01	6.9452	9.876433	0.000338	3.379464	0.572497	0.006756
 697	3.4800e-01	6.9537	9.911499	0.000351	3.507798	0.594237	0.007013
 698	3.4850e-01	6.9656	9.939722	0.000282	2.823350	0.478288	0.005645
 699	3.4900e-01	6.9753	9.967945	0.000282	2.823350	0.478288	0.005645
 700	3.4950e-01	6.9861	10.003866	0.000359	3.593355	0.608731	0.007184
 701	3.5000e-01	6.9965	10.030806	0.000270	2.695016	0.456548	0.005388
 702	3.5050e-01	7.0056	10.064161	0.000334	3.336686	0.565250	0.006671
 703	3.5100e-01	7.0155	10.102219	0.000381	3.807245	0.644965	0.007612
 704	3.5150e-01	7.0245	10.127877	0.000257	2.566682	0.434808	0.005132
 705	3.5200e-01	7.0380	10.168501	0.000406	4.063913	0.688445	0.008125
 706	3.5250e-01	7.0471	10.192876	0.000244	2.438348	0.413067	0.004875
 707	3.5300e-01	7.0563	10.241198	0.000483	4.833917	0.818888	0.009664
 708	3.5350e-01	7.0679	10.255737	0.000145	1.454453	0.246391	0.002908
 709	3.5400e-01	7.0746	10.292085	0.000364	3.636133	0.615978	0.007270
 710	3.5450e-01	7.0862	10.330999	0.000389	3.892801	0.659458	0.007783
 711	3.5500e-01	7.0990	10.357084	0.000261	2.609460	0.442054	0.005217
 712	3.5550e-01	7.1075	10.389156	0.000321	3.208352	0.543510	0.006414
 713	3.5600e-01	7.1167	10.417807	0.000287	2.866128	0.485535	0.005730
 714	3.5650e-01	7.1280	10.450306	0.000325	3.251130	0.550756	0.006500
 715	3.5700e-01	7.1368	10.484516	0.000342	3.422242	0.579744	0.006842
 716	3.5750e-01	7.1451	10.517016	0.000325	3.251130	0.550756	0.006500
 717	3.5800e-01	7.1570	10.548233	0.000312	3.122796	0.529016	0.006243
 718	3.5850e-01	7.1698	10.581160	0.000329	3.293908	0.558003	0.006585
 719	3.5900e-01	7.1783	10.614942	0.000338	3.379464	0.572497	0.006756
 720	3.5950e-01	7.1857	10.638034	0.000231	2.310014	0.391327	0.004618
 721	3.6000e-01	7.1960	10.671816	0.000338	3.379464	0.572497	0.006756
 722	3.6050e-01	7.2028	10.688494	0.000167	1.668343	0.282625	0.003335
 723	3.6100e-01	7.2144	10.737243	0.000488	4.876695	0.826135	0.009750
 724	3.6150e-01	7.2284	10.769315	0.000321	3.208352	0.543510	0.006414
 725	3.6200e-01	7.2351	10.803525	0.000342	3.422242	0.579744	0.006842
 726	3.6250e-01	7.2455	10.837735	0.000342	3.422242	0.579744	0.006842
 727	3.6300e-01	7.2559	10.871945	0.000342	3.422242	0.579744	0.006842
 728	3.6350e-01	7.2687	10.897175	0.000252	2.523904	0.427561	0.005046
 729	3.6400e-01	7.2769	10.928819	0.000317	3.165574	0.536263	0.006329
 730	3.6450e-01	7.2852	10.956187	0.000274	2.737794	0.463795	0.005474
 731	3.6500e-01	7.2949	10.986121	0.000299	2.994462	0.507276	0.005987
 732	3.6550e-01	7.3059	11.021614	0.000355	3.550576	0.601484	0.007099
 733	3.6600e-01	7.3169	11.057962	0.000364	3.636133	0.615978	0.007270
 734	3.6650e-01	7.3254	11.084047	0.000261	2.609460	0.442054	0.005217
 735	3.6700e-01	7.3358	11.114409	0.000304	3.037240	0.514522	0.006072
 736	3.6750e-01	7.3470	11.147336	0.000329	3.293908	0.558003	0.006585
 737	3.6800e-01	7.3560	11.181118	0.000338	3.379464	0.572497	0.006756
 738	3.6850e-01	7.3694	11.214045	0.000329	3.293908	0.558003	0.006585
 739	3.6900e-01	7.3792	11.243551	0.000295	2.951684	0.500029	0.005901
 740	3.6950e-01	7.3854	11.275623	0.000321	3.208352	0.543510	0.006414
 741	3.7000e-01	7.3962	11.310261	0.000347	3.465020	0.586990	0.006928
 742	3.7050e-01	7.4066	11.335918	0.000257	2.566682	0.434808	0.005132
 743	3.7100e-01	7.4182	11.371411	0.000355	3.550576	0.601484	0.007099
 744	3.7150e-01	7.4255	11.406904	0.000355	3.550576	0.601484	0.007099
 745	3.7200e-01	7.4353	11.427430	0.000205	2.053345	0.347846	0.004105
 746	3.7250e-01	7.4445	11.464634	0.000372	3.721689	0.630471	0.007441
 747	3.7300e-01	7.4530	11.492857	0.000282	2.823350	0.478288	0.005645
 748	3.7350e-01	7.4664	11.525784	0.000329	3.293908	0.558003	0.006585
 749	3.7400e-01	7.4768	11.559139	0.000334	3.336686	0.565250	0.006671
 750	3.7450e-01	7.4890	11.584796	0.000257	2.566682	0.434808	0.005132
 751	3.7500e-01	7.5003	11.618579	0.000338	3.379464	0.572497	0.006756
 752	3.7550e-01	7.5079	11.653216	0.000347	3.465020	0.586990	0.006928
 753	3.7600e-01	7.5177	11.681867	0.000287	2.866128	0.485535	0.005730
 754	3.7650e-01	7.5269	11.716077	0.000342	3.422242	0.579744	0.006842
 755	3.7700e-01	7.5367	11.746439	0.000304	3.037240	0.514522	0.006072
 756	3.7750e-01	7.5482	11.770813	0.000244	2.438348	0.413067	0.004875
 757	3.7800e-01	7.5562	11.805023	0.000342	3.422242	0.579744	0.006842
 758	3.7850e-01	7.5684	11.843937	0.000389	3.892801	0.659458	0.007783
 759	3.7900e-01	7.5726	11.876437	0.000325	3.251130	0.550756	0.006500
 760	3.7950e-01	7.5850	11.906371	0.000299	2.994462	0.507276	0.005987
 761	3.8000e-01	7.5958	11.936732	0.000304	3.037240	0.514522	0.006072
 762	3.8050e-01	7.6080	11.964955	0.000282	2.823350	0.478288	0.005645
 763	3.8100e-01	7.6166	11.988475	0.000235	2.352792	0.398574	0.004704
 764	3.8150e-01	7.6263	12.028244	0.000398	3.978357	0.673952	0.007954
 765	3.8200e-01	7.6361	12.056895	0.000287	2.866128	0.485535	0.005730
 766	3.8250e-01	7.6477	12.090677	0.000338	3.379464	0.572497	0.006756
 767	3.8300e-01	7.6581	12.121038	0.000304	3.037240	0.514522	0.006072
 768	3.8350e-01	7.6662	12.143275	0.000222	2.224458	0.376833	0.004447
 769	3.8400e-01	7.6758	12.183472	0.000402	4.021135	0.681199	0.008039
 770	3.8450e-01	7.6855	12.223241	0.000398	3.978357	0.673952	0.007954
 771	3.8500e-01	7.6959	12.252319	0.000291	2.908906	0.492782	0.005816
 772	3.8550e-01	7.7051	12.282681	0.000304	3.037240	0.514522	0.006072
 773	3.8600e-01	7.7161	12.309621	0.000270	2.695016	0.456548	0.005388
 774	3.8650e-01	7.7252	12.339983	0.000304	3.037240	0.514522	0.006072
 775	3.8700e-01	7.7356	12.369061	0.000291	2.908906	0.492782	0.005816
 776	3.8750e-01	7.7435	12.405837	0.000368	3.678911	0.623224	0.007355
 777	3.8800e-01	7.7551	12.431922	0.000261	2.609460	0.442054	0.005217
 778	3.8850e-01	7.7661	12.470836	0.000389	3.892801	0.659458	0.007783
 779	3.8900e-01	7.7765	12.495638	0.000248	2.481126	0.420314	0.004960
 780	3.8950e-01	7.7882	12.526000	0.000304	3.037240	0.514522	0.006072
 781	3.9000e-01	7.7937	12.562348	0.000364	3.636133	0.615978	0.007270
 782	3.9050e-01	7.8049	12.591854	0.000295	2.951684	0.500029	0.005901
 783	3.9100e-01	7.8162	12.620505	0.000287	2.866128	0.485535	0.005730
 784	3.9150e-01	7.8247	12.650011	0.000295	2.951684	0.500029	0.005901
 785	3.9200e-01	7.8381	12.688925	0.000389	3.892801	0.659458	0.007783
 786	3.9250e-01	7.8448	12.714155	0.000252	2.523904	0.427561	0.005046
 787	3.9300e-01	7.8571	12.751786	0.000376	3.764467	0.637718	0.007526
 788	3.9350e-01	7.8656	12.777443	0.000257	2.566682	0.434808	0.005132
 789	3.9400e-01	7.8748	12.810798	0.000334	3.336686	0.565250	0.006671
 790	3.9450e-01	7.8864	12.845436	0.000347	3.465020	0.586990	0.006928
 791	3.9500e-01	7.8967	12.866817	0.000214	2.138902	0.362340	0.004276
 792	3.9550e-01	7.9065	12.906158	0.000394	3.935579	0.666705	0.007868
 793	3.9600e-01	7.9175	12.930533	0.000244	2.438348	0.413067	0.004875
 794	3.9650e-01	7.9237	12.963888	0.000334	3.336686	0.565250	0.006671
 795	3.9700e-01	7.9340	12.993394	0.000295	2.951684	0.500029	0.005901
 796	3.9750e-01	7.9425	13.026749	0.000334	3.336686	0.565250	0.006671
 797	3.9800e-01	7.9590	13.057538	0.000308	3.080018	0.521769	0.006158
 798	3.9850e-01	7.9651	13.094314	0.000368	3.678911	0.623224	0.007355
 799	3.9900e-01	7.9755	13.119543	0.000252	2.523904	0.427561	0.005046
 800	3.9950e-01	7.9861	13.148622	0.000291	2.908906	0.492782	0.005816
 801	4.0000e-01	7.9953	13.183687	0.000351	3.507798	0.594237	0.007013
 802	4.0050e-01	8.0078	13.216614	0.000329	3.293908	0.558003	0.006585
 803	4.0100e-01	8.0148	13.247403	0.000308	3.080018	0.521769	0.006158
 804	4.0150e-01	8.0261	13.272206	0.000248	2.481126	0.420314	0.004960
 805	4.0200e-01	8.0341	13.311975	0.000398	3.978357	0.673952	0.007954
 806	4.0250e-01	8.0438	13.338488	0.000265	2.652238	0.449301	0.005303
 807	4.0300e-01	8.0573	13.367138	0.000287	2.866128	0.485535	0.005730
 808	4.0350e-01	8.0673	13.390230	0.000231	2.310014	0.391327	0.004618
 809	4.0400e-01	8.0762	13.422302	0.000321	3.208352	0.543510	0.006414
 810	4.0450e-01	8.0872	13.459078	0.000368	3.678911	0.623224	0.007355
 811	4.0500e-01	8.0951	13.492005	0.000329	3.293908	0.558003	0.006585
 812	4.0550e-01	8.1055	13.530491	0.000385	3.850023	0.652212	0.007697
 813	4.0600e-01	8.1171	13.554866	0.000244	2.438348	0.413067	0.004875
 814	4.0650e-01	8.1274	13.595490	0.000406	4.063913	0.688445	0.008125
 815	4.0700e-01	8.1360	13.622003	0.000265	2.652238	0.449301	0.005303
 816	4.0750e-01	8.1464	13.651509	0.000295	2.951684	0.500029	0.005901
 817	4.0800e-01	8.1555	13.684864	0.000334	3.336686	0.565250	0.006671
 818	4.0850e-01	8.1635	13.714370	0.000295	2.951684	0.500029	0.005901
 819	4.0900e-01	8.1760	13.747725	0.000334	3.336686	0.565250	0.006671
 820	4.0950e-01	8.1873	13.768251	0.000205	2.053345	0.347846	0.004105
 821	4.1000e-01	8.1982	13.808875	0.000406	4.063913	0.688445	0.008125
 822	4.1050e-01	8.2062	13.830684	0.000218	2.181680	0.369587	0.004362
 823	4.1100e-01	8.2153	13.860190	0.000295	2.951684	0.500029	0.005901
 824	4.1150e-01	8.2263	13.903808	0.000436	4.363359	0.739173	0.008724
 825	4.1200e-01	8.2361	13.929038	0.000252	2.523904	0.427561	0.005046
 826	4.1250e-01	8.2446	13.961965	0.000329	3.293908	0.558003	0.006585
 827	4.1300e-01	8.2532	13.994892	0.000329	3.293908	0.558003	0.006585
 828	4.1350e-01	8.2642	14.021405	0.000265	2.652238	0.449301	0.005303
 829	4.1400e-01	8.2776	14.052194	0.000308	3.080018	0.521769	0.006158
 830	4.1450e-01	8.2870	14.085549	0.000334	3.336686	0.565250	0.006671
 831	4.1500e-01	8.2941	14.115483	0.000299	2.994462	0.507276	0.005987
 832	4.1550e-01	8.3063	14.146699	0.000312	3.122796	0.529016	0.006243
 833	4.1600e-01	8.3130	14.182192	0.000355	3.550576	0.601484	0.007099
 834	4.1650e-01	8.3234	14.216830	0.000347	3.465020	0.586990	0.006928
 835	4.1700e-01	8.3350	14.236501	0.000197	1.967789	0.333353	0.003934
 836	4.1750e-01	8.3447	14.273276	0.000368	3.678911	0.623224	0.007355
 837	4.1800e-01	8.3557	14.298506	0.000252	2.523904	0.427561	0.005046
 838	4.1850e-01	8.3673	14.337848	0.000394	3.935579	0.666705	0.007868
 839	4.1900e-01	8.3765	14.368209	0.000304	3.037240	0.514522	0.006072
 840	4.1950e-01	8.3868	14.390873	0.000227	2.267236	0.384080	0.004533
 841	4.2000e-01	8.3948	14.431070	0.000402	4.021135	0.681199	0.008039
 842	4.2050e-01	8.4059	14.457583	0.000265	2.652238	0.449301	0.005303
 843	4.2100e-01	8.4161	14.488800	0.000312	3.122796	0.529016	0.006243
 844	4.2150e-01	8.4271	14.516168	0.000274	2.737794	0.463795	0.005474
 845	4.2200e-01	8.4363	14.549095	0.000329	3.293908	0.558003	0.006585
 846	4.2250e-01	8.4467	14.593995	0.000449	4.491693	0.760913	0.008980
 847	4.2300e-01	8.4576	14.616660	0.000227	2.267236	0.384080	0.004533
 848	4.2350e-01	8.4662	14.645310	0.000287	2.866128	0.485535	0.005730
 849	4.2400e-01	8.4775	14.682941	0.000376	3.764467	0.637718	0.007526
 850	4.2450e-01	8.4875	14.710309	0.000274	2.737794	0.463795	0.005474
 851	4.2500e-01	8.4961	14.740671	0.000304	3.037240	0.514522	0.006072
 852	4.2550e-01	8.5010	14.781295	0.000406	4.063913	0.688445	0.008125
 853	4.2600e-01	8.5162	14.798400	0.000171	1.711121	0.289872	0.003421
 854	4.2650e-01	8.5260	14.836031	0.000376	3.764467	0.637718	0.007526
 855	4.2700e-01	8.5352	14.858268	0.000222	2.224458	0.376833	0.004447
 856	4.2750e-01	8.5449	14.889057	0.000308	3.080018	0.521769	0.006158
 857	4.2800e-01	8.5577	14.928826	0.000398	3.978357	0.673952	0.007954
 858	4.2850e-01	8.5657	14.961753	0.000329	3.293908	0.558003	0.006585
 859	4.2900e-01	8.5767	14.989549	0.000278	2.780572	0.471042	0.005559
 860	4.2950e-01	8.5890	15.023759	0.000342	3.422242	0.579744	0.006842
 861	4.3000e-01	8.5956	15.063528	0.000398	3.978357	0.673952	0.007954
 862	4.3050e-01	8.6066	15.089613	0.000261	2.609460	0.442054	0.005217
 863	4.3100e-01	8.6127	15.119119	0.000295	2.951684	0.500029	0.005901
 864	4.3150e-01	8.6261	15.146487	0.000274	2.737794	0.463795	0.005474
 865	4.3200e-01	8.6353	15.178559	0.000321	3.208352	0.543510	0.006414
 866	4.3250e-01	8.6444	15.216190	0.000376	3.764467	0.637718	0.007526
 867	4.3300e-01	8.6554	15.246552	0.000304	3.037240	0.514522	0.006072
 868	4.3350e-01	8.6633	15.282044	0.000355	3.550576	0.601484	0.007099
 869	4.3400e-01	8.6744	15.308130	0.000261	2.609460	0.442054	0.005217
 870	4.3450e-01	8.6844	15.343195	0.000351	3.507798	0.594237	0.007013
 871	4.3500e-01	8.6975	15.372273	0.000291	2.908906	0.492782	0.005816
 872	4.3550e-01	8.7061	15.400924	0.000287	2.866128	0.485535	0.005730
 873	4.3600e-01	8.7164	15.430858	0.000299	2.994462	0.507276	0.005987
 874	4.3650e-01	8.7280	15.467206	0.000364	3.636133	0.615978	0.007270
 875	4.3700e-01	8.7360	15.497140	0.000299	2.994462	0.507276	0.005987
 876	4.3750e-01	8.7451	15.528357	0.000312	3.122796	0.529016	0.006243
 877	4.3800e-01	8.7561	15.560428	0.000321	3.208352	0.543510	0.006414
 878	4.3850e-01	8.7659	15.594639	0.000342	3.422242	0.579744	0.006842
 879	4.3900e-01	8.7769	15.618158	0.000235	2.352792	0.398574	0.004704
 880	4.3950e-01	8.7866	15.652368	0.000342	3.422242	0.579744	0.006842
 881	4.4000e-01	8.7982	15.680164	0.000278	2.780572	0.471042	0.005559
 882	4.4050e-01	8.8058	15.718222	0.000381	3.807245	0.644965	0.007612
 883	4.4100e-01	8.8147	15.757564	0.000394	3.935579	0.666705	0.007868
 884	4.4150e-01	8.8269	15.779800	0.000222	2.224458	0.376833	0.004447
 885	4.4200e-01	8.8367	15.806313	0.000265	2.652238	0.449301	0.005303
 886	4.4250e-01	8.8441	15.841378	0.000351	3.507798	0.594237	0.007013
 887	4.4300e-01	8.8556	15.874305	0.000329	3.293908	0.558003	0.006585
 888	4.4350e-01	8.8666	15.908943	0.000347	3.465020	0.586990	0.006928
 889	4.4400e-01	8.8727	15.939304	0.000304	3.037240	0.514522	0.006072
 890	4.4450e-01	8.8855	15.979501	0.000402	4.021135	0.681199	0.008039
 891	4.4500e-01	8.8953	16.001738	0.000222	2.224458	0.376833	0.004447
 892	4.4550e-01	8.9063	16.036803	0.000351	3.507798	0.594237	0.007013
 893	4.4600e-01	8.9154	16.069730	0.000329	3.293908	0.558003	0.006585
 894	4.4650e-01	8.9258	16.098381	0.000287	2.866128	0.485535	0.005730
 895	4.4700e-01	8.9380	16.136012	0.000376	3.764467	0.637718	0.007526
 896	4.4750e-01	8.9453	16.161242	0.000252	2.523904	0.427561	0.005046
 897	4.4800e-01	8.9569	16.200156	0.000389	3.892801	0.659458	0.007783
 898	4.4850e-01	8.9673	16.225386	0.000252	2.523904	0.427561	0.005046
 899	4.4900e-01	8.9734	16.271569	0.000462	4.620027	0.782654	0.009237
 900	4.4950e-01	8.9850	16.298082	0.000265	2.652238	0.449301	0.005303
 901	4.5000e-01	8.9954	16.324595	0.000265	2.652238	0.449301	0.005303
 902	4.5050e-01	9.0057	16.353673	0.000291	2.908906	0.492782	0.005816
 903	4.5100e-01	9.0167	16.389166	0.000355	3.550576	0.601484	0.007099
 904	4.5150e-01	9.0268	16.423376	0.000342	3.422242	0.579744	0.006842
 905	4.5200e-01	9.0363	16.463145	0.000398	3.978357	0.673952	0.007954
 906	4.5250e-01	9.0442	16.483244	0.000201	2.010567	0.340599	0.004020
 907	4.5300e-01	9.0552	16.526862	0.000436	4.363359	0.739173	0.008724
 908	4.5350e-01	9.0649	16.555085	0.000282	2.823350	0.478288	0.005645
 909	4.5400e-01	9.0778	16.584163	0.000291	2.908906	0.492782	0.005816
 910	4.5450e-01	9.0845	16.626498	0.000424	4.235025	0.717433	0.008467
 911	4.5500e-01	9.0930	16.658570	0.000321	3.208352	0.543510	0.006414
 912	4.5550e-01	9.1046	16.685083	0.000265	2.652238	0.449301	0.005303
 913	4.5600e-01	9.1174	16.715444	0.000304	3.037240	0.514522	0.006072
 914	4.5650e-01	9.1272	16.749654	0.000342	3.422242	0.579744	0.006842
 915	4.5700e-01	9.1370	16.780016	0.000304	3.037240	0.514522	0.006072
 916	4.5750e-01	9.1486	16.810805	0.000308	3.080018	0.521769	0.006158
 917	4.5800e-01	9.1571	16.847581	0.000368	3.678911	0.623224	0.007355
 918	4.5850e-01	9.1663	16.876659	0.000291	2.908906	0.492782	0.005816
 919	4.5900e-01	9.1766	16.913007	0.000364	3.636133	0.615978	0.007270
 920	4.5950e-01	9.1852	16.940375	0.000274	2.737794	0.463795	0.005474
 921	4.6000e-01	9.1974	16.976296	0.000359	3.593355	0.608731	0.007184
 922	4.6050e-01	9.2049	17.009651	0.000334	3.336686	0.565250	0.006671
 923	4.6100e-01	9.2142	17.051985	0.000424	4.235025	0.717433	0.008467
 924	4.6150e-01	9.2276	17.082774	0.000308	3.080018	0.521769	0.006158
 925	4.6200e-01	9.2389	17.105439	0.000227	2.267236	0.384080	0.004533
 926	4.6250e-01	9.2456	17.136655	0.000312	3.122796	0.529016	0.006243
 927	4.6300e-01	9.2590	17.169582	0.000329	3.293908	0.558003	0.006585
 928	4.6350e-01	9.2664	17.208069	0.000385	3.850023	0.652212	0.007697
 929	4.6400e-01	9.2737	17.241423	0.000334	3.336686	0.565250	0.006671
 930	4.6450e-01	9.2834	17.275206	0.000338	3.379464	0.572497	0.006756
 931	4.6500e-01	9.2938	17.311554	0.000364	3.636133	0.615978	0.007270
 932	4.6550e-01	9.3060	17.342343	0.000308	3.080018	0.521769	0.006158
 933	4.6600e-01	9.3130	17.379119	0.000368	3.678911	0.623224	0.007355
 934	4.6650e-01	9.3231	17.410763	0.000317	3.165574	0.536263	0.006329
 935	4.6700e-01	9.3329	17.450960	0.000402	4.021135	0.681199	0.008039
 936	4.6750e-01	9.3466	17.480038	0.000291	2.908906	0.492782	0.005816
 937	4.6800e-01	9.3567	17.512965	0.000329	3.293908	0.558003	0.006585
 938	4.6850e-01	9.3677	17.542472	0.000295	2.951684	0.500029	0.005901
 939	4.6900e-01	9.3762	17.582241	0.000398	3.978357	0.673952	0.007954
 940	4.6950e-01	9.3872	17.614740	0.000325	3.251130	0.550756	0.006500
 941	4.7000e-01	9.3945	17.647667	0.000329	3.293908	0.558003	0.006585
 942	4.7050e-01	9.4067	17.667766	0.000201	2.010567	0.340599	0.004020
 943	4.7100e-01	9.4159	17.716088	0.000483	4.833917	0.818888	0.009664
 944	4.7150e-01	9.4244	17.740035	0.000240	2.395570	0.405820	0.004789
 945	4.7200e-01	9.4366	17.781942	0.000419	4.192247	0.710186	0.008381
 946	4.7250e-01	9.4476	17.809737	0.000278	2.780572	0.471042	0.005559
 947	4.7300e-01	9.4551	17.850789	0.000411	4.106691	0.695692	0.008210
 948	4.7350e-01	9.4684	17.882434	0.000317	3.165574	0.536263	0.006329
 949	4.7400e-01	9.4775	17.917071	0.000347	3.465020	0.586990	0.006928
 950	4.7450e-01	9.4855	17.947860	0.000308	3.080018	0.521769	0.006158
 951	4.7500e-01	9.4965	17.981643	0.000338	3.379464	0.572497	0.006756
 952	4.7550e-01	9.5068	18.018419	0.000368	3.678911	0.623224	0.007355
 953	4.7600e-01	9.5160	18.053484	0.000351	3.507798	0.594237	0.007013
 954	4.7650e-01	9.5248	18.079569	0.000261	2.609460	0.442054	0.005217
 955	4.7700e-01	9.5343	18.125325	0.000458	4.577249	0.775407	0.009151
 956	4.7750e-01	9.5435	18.157397	0.000321	3.208352	0.543510	0.006414
 957	4.7800e-01	9.5547	18.192890	0.000355	3.550576	0.601484	0.007099
 958	4.7850e-01	9.5642	18.221968	0.000291	2.908906	0.492782	0.005816
 959	4.7900e-01	9.5776	18.252330	0.000304	3.037240	0.514522	0.006072
 960	4.7950e-01	9.5868	18.290816	0.000385	3.850023	0.652212	0.007697
 961	4.8000e-01	9.5953	18.330157	0.000394	3.935579	0.666705	0.007868
 962	4.8050e-01	9.6045	18.362229	0.000321	3.208352	0.543510	0.006414
 963	4.8100e-01	9.6176	18.399005	0.000368	3.678911	0.623224	0.007355
 964	4.8150e-01	9.6259	18.427228	0.000282	2.823350	0.478288	0.005645
 965	4.8200e-01	9.6359	18.464004	0.000368	3.678911	0.623224	0.007355
 966	4.8250e-01	9.6436	18.493938	0.000299	2.994462	0.507276	0.005987
 967	4.8300e-01	9.6576	18.536273	0.000424	4.235025	0.717433	0.008467
 968	4.8350e-01	9.6661	18.568772	0.000325	3.251130	0.550756	0.006500
 969	4.8400e-01	9.6759	18.605120	0.000364	3.636133	0.615978	0.007270
 970	4.8450e-01	9.6857	18.639758	0.000347	3.465020	0.586990	0.006928
 971	4.8500e-01	9.6954	18.674823	0.000351	3.507798	0.594237	0.007013
 972	4.8550e-01	9.7083	18.715875	0.000411	4.106691	0.695692	0.008210
 973	4.8600e-01	9.7156	18.744954	0.000291	2.908906	0.492782	0.005816
 974	4.8650e-01	9.7253	18.776171	0.000312	3.122796	0.529016	0.006243
 975	4.8700e-01	9.7353	18.815084	0.000389	3.892801	0.659458	0.007783
 976	4.8750e-01	9.7449	18.848439	0.000334	3.336686	0.565250	0.006671
 977	4.8800e-01	9.7571	18.877090	0.000287	2.866128	0.485535	0.005730
 978	4.8850e-01	9.7668	18.921136	0.000441	4.406137	0.746420	0.008809
 979	4.8900e-01	9.7742	18.955346	0.000342	3.422242	0.579744	0.006842
 980	4.8950e-01	9.7864	18.991266	0.000359	3.593355	0.608731	0.007184
 981	4.9000e-01	9.7961	19.026759	0.000355	3.550576	0.601484	0.007099
 982	4.9050e-01	9.8071	19.059686	0.000329	3.293908	0.558003	0.006585
 983	4.9100e-01	9.8157	19.099028	0.000394	3.935579	0.666705	0.007868
 984	4.9150e-01	9.8279	19.132382	0.000334	3.336686	0.565250	0.006671
 985	4.9200e-01	9.8364	19.169158	0.000368	3.678911	0.623224	0.007355
 986	4.9250e-01	9.8438	19.196526	0.000274	2.737794	0.463795	0.005474
 987	4.9300e-01	9.8553	19.242710	0.000462	4.620027	0.782654	0.009237
 988	4.9350e-01	9.8639	19.271361	0.000287	2.866128	0.485535	0.005730
 989	4.9400e-01	9.8734	19.316689	0.000453	4.534471	0.768160	0.009066
 990	4.9450e-01	9.8868	19.346195	0.000295	2.951684	0.500029	0.005901
 991	4.9500e-01	9.8956	19.378695	0.000325	3.251130	0.550756	0.006500
 992	4.9550e-01	9.9066	19.418464	0.000398	3.978357	0.673952	0.007954
 993	4.9600e-01	9.9179	19.455239	0.000368	3.678911	0.623224	0.007355
 994	4.9650e-01	9.9292	19.483035	0.000278	2.780572	0.471042	0.005559
 995	4.9700e-01	9.9365	19.527081	0.000441	4.406137	0.746420	0.008809
 996	4.9750e-01	9.9445	19.559580	0.000325	3.251130	0.550756	0.006500
 997	4.9800e-01	9.9530	19.601060	0.000415	4.149469	0.702939	0.008296
 998	4.9850e-01	9.9652	19.642112	0.000411	4.106691	0.695692	0.008210
 999	4.9900e-01	9.9738	19.672901	0.000308	3.080018	0.521769	0.006158
1000	4.9950e-01	9.9854	19.706256	0.000334	3.336686	0.565250	0.006671
1001	5.0000e-01	9.9939	19.747735	0.000415	4.149469	0.702939	0.008296
1002	5.0050e-01	9.9866	19.738755	0.000090	0.898339	0.152183	-0.001796
1003	5.0100e-01	9.9768	19.728064	0.000107	1.069451	0.181170	-0.002138
1004	5.0150e-01	9.9683	19.712242	0.000158	1.582787	0.268131	-0.003164
1005	5.0200e-01	9.9567	19.705828	0.000064	0.641670	0.108702	-0.001283
1006	5.0250e-01	9.9451	19.687440	0.000184	1.839455	0.311612	-0.003678
1007	5.0300e-01	9.9396	19.675039	0.000124	1.240563	0.210157	-0.002480
1008	5.0350e-01	9.9255	19.663493	0.000116	1.155007	0.195663	-0.002309
1009	5.0400e-01	9.9164	19.646388	0.000171	1.711121	0.289872	-0.003421
1010	5.0450e-01	9.9060	19.622441	0.000240	2.395570	0.405820	-0.004789
1011	5.0500e-01	9.8962	19.611323	0.000111	1.112229	0.188417	-0.002224
1012	5.0550e-01	9.8871	19.598922	0.000124	1.240563	0.210157	-0.002480
1013	5.0600e-01	9.8761	19.583099	0.000158	1.582787	0.268131	-0.003164
1014	5.0650e-01	9.8648	19.567705	0.000154	1.540009	0.260885	-0.003079
1015	5.0700e-01	9.8578	19.549745	0.000180	1.796677	0.304365	-0.003592
1016	5.0750e-01	9.8459	19.532640	0.000171	1.711121	0.289872	-0.003421
1017	5.0800e-01	9.8352	19.514252	0.000184	1.839455	0.311612	-0.003678
1018	5.0850e-01	9.8248	19.490732	0.000235	2.352792	0.398574	-0.004704
1019	5.0900e-01	9.8181	19.478331	0.000124	1.240563	0.210157	-0.002480
1020	5.0950e-01	9.8059	19.462509	0.000158	1.582787	0.268131	-0.003164
1021	5.1000e-01	9.7974	19.443266	0.000193	1.925011	0.326106	-0.003849
1022	5.1050e-01	9.7876	19.419747	0.000235	2.352792	0.398574	-0.004704
1023	5.1100e-01	9.7748	19.413332	0.000064	0.641670	0.108702	-0.001283
1024	5.1150e-01	9.7656	19.391523	0.000218	2.181680	0.369587	-0.004362
1025	5.1200e-01	9.7565	19.370997	0.000205	2.053345	0.347846	-0.004105
1026	5.1250e-01	9.7479	19.350044	0.000210	2.096123	0.355093	-0.004191
1027	5.1300e-01	9.7342	19.337643	0.000124	1.240563	0.210157	-0.002480
1028	5.1350e-01	9.7278	19.315834	0.000218	2.181680	0.369587	-0.004362
1029	5.1400e-01	9.7168	19.291031	0.000248	2.481126	0.420314	-0.004960
1030	5.1450e-01	9.7058	19.271788	0.000193	1.925011	0.326106	-0.003849
1031	5.1500e-01	9.6973	19.256821	0.000150	1.497231	0.253638	-0.002993
1032	5.1550e-01	9.6857	19.237151	0.000197	1.967789	0.333353	-0.003934
1033	5.1600e-01	9.6759	19.220473	0.000167	1.668343	0.282625	-0.003335
1034	5.1650e-01	9.6686	19.198664	0.000218	2.181680	0.369587	-0.004362
1035	5.1700e-01	9.6559	19.171296	0.000274	2.737794	0.463795	-0.005474
1036	5.1750e-01	9.6472	19.159323	0.000120	1.197785	0.202910	-0.002395
1037	5.1800e-01	9.6405	19.133238	0.000261	2.609460	0.442054	-0.005217
1038	5.1850e-01	9.6271	19.109718	0.000235	2.352792	0.398574	-0.004704
1039	5.1900e-01	9.6155	19.092613	0.000171	1.711121	0.289872	-0.003421
1040	5.1950e-01	9.6063	19.071660	0.000210	2.096123	0.355093	-0.004191
1041	5.2000e-01	9.5929	19.062679	0.000090	0.898339	0.152183	-0.001796
1042	5.2050e-01	9.5868	19.034456	0.000282	2.823350	0.478288	-0.005645
1043	5.2100e-01	9.5752	19.016924	0.000175	1.753899	0.297119	-0.003507
1044	5.2150e-01	9.5636	19.000674	0.000163	1.625565	0.275378	-0.003250
1045	5.2200e-01	9.5551	18.977582	0.000231	2.310014	0.391327	-0.004618
1046	5.2250e-01	9.5453	18.951925	0.000257	2.566682	0.434808	-0.005132
1047	5.2300e-01	9.5367	18.927122	0.000248	2.481126	0.420314	-0.004960
1048	5.2350e-01	9.5251	18.909590	0.000175	1.753899	0.297119	-0.003507
1049	5.2400e-01	9.5166	18.885215	0.000244	2.438348	0.413067	-0.004875
1050	5.2450e-01	9.5074	18.861268	0.000240	2.395570	0.405820	-0.004789
1051	5.2500e-01	9.4965	18.847156	0.000141	1.411675	0.239144	-0.002822
1052	5.2550e-01	9.4855	18.827058	0.000201	2.010567	0.340599	-0.004020
1053	5.2600e-01	9.4781	18.795414	0.000317	3.165574	0.536263	-0.006329
1054	5.2650e-01	9.4638	18.780447	0.000150	1.497231	0.253638	-0.002993
1055	5.2700e-01	9.4550	18.750513	0.000299	2.994462	0.507276	-0.005987
1056	5.2750e-01	9.4452	18.738967	0.000116	1.155007	0.195663	-0.002309
1057	5.2800e-01	9.4385	18.707323	0.000317	3.165574	0.536263	-0.006329
1058	5.2850e-01	9.4263	18.697060	0.000103	1.026673	0.173923	-0.002053
1059	5.2900e-01	9.4147	18.673540	0.000235	2.352792	0.398574	-0.004704
1060	5.2950e-01	9.4067	18.637620	0.000359	3.593355	0.608731	-0.007184
1061	5.3000e-01	9.3958	18.616239	0.000214	2.138902	0.362340	-0.004276
1062	5.3050e-01	9.3872	18.596140	0.000201	2.010567	0.340599	-0.004020
1063	5.3100e-01	9.3756	18.577325	0.000188	1.882233	0.318859	-0.003763
1064	5.3150e-01	9.3634	18.555516	0.000218	2.181680	0.369587	-0.004362
1065	5.3200e-01	9.3579	18.537128	0.000184	1.839455	0.311612	-0.003678
1066	5.3250e-01	9.3472	18.507622	0.000295	2.951684	0.500029	-0.005901
1067	5.3300e-01	9.3359	18.485813	0.000218	2.181680	0.369587	-0.004362
1068	5.3350e-01	9.3231	18.470418	0.000154	1.540009	0.260885	-0.003079
1069	5.3400e-01	9.3158	18.438774	0.000317	3.165574	0.536263	-0.006329
1070	5.3450e-01	9.3036	18.415682	0.000231	2.310014	0.391327	-0.004618
1071	5.3500e-01	9.2957	18.399005	0.000167	1.668343	0.282625	-0.003335
1072	5.3550e-01	9.2853	18.360519	0.000385	3.850023	0.652212	-0.007697
1073	5.3600e-01	9.2755	18.359236	0.000013	0.128334	0.021740	-0.000257
1074	5.3650e-01	9.2676	18.319039	0.000402	4.021135	0.681199	-0.008039
1075	5.3700e-01	9.2548	18.303645	0.000154	1.540009	0.260885	-0.003079
1076	5.3750e-01	9.2456	18.274994	0.000287	2.866128	0.485535	-0.005730
1077	5.3800e-01	9.2358	18.249764	0.000252	2.523904	0.427561	-0.005046
1078	5.3850e-01	9.2249	18.231804	0.000180	1.796677	0.304365	-0.003592
1079	5.3900e-01	9.2188	18.197594	0.000342	3.422242	0.579744	-0.006842
1080	5.3950e-01	9.2067	18.179206	0.000184	1.839455	0.311612	-0.003678
1081	5.4000e-01	9.1959	18.157397	0.000218	2.181680	0.369587	-0.004362
1082	5.4050e-01	9.1870	18.135588	0.000218	2.181680	0.369587	-0.004362
1083	5.4100e-01	9.1772	18.110358	0.000252	2.523904	0.427561	-0.005046
1084	5.4150e-01	9.1675	18.087694	0.000227	2.267236	0.384080	-0.004533
1085	5.4200e-01	9.1528	18.068451	0.000193	1.925011	0.326106	-0.003849
1086	5.4250e-01	9.1449	18.045359	0.000231	2.310014	0.391327	-0.004618
1087	5.4300e-01	9.1351	18.015853	0.000295	2.951684	0.500029	-0.005901
1088	5.4350e-01	9.1278	17.994899	0.000210	2.096123	0.355093	-0.004191
1089	5.4400e-01	9.1193	17.967531	0.000274	2.737794	0.463795	-0.005474
1090	5.4450e-01	9.1083	17.948716	0.000188	1.882233	0.318859	-0.003763
1091	5.4500e-01	9.0961	17.920492	0.000282	2.823350	0.478288	-0.005645
1092	5.4550e-01	9.0869	17.896545	0.000240	2.395570	0.405820	-0.004789
1093	5.4600e-01	9.0778	17.879440	0.000171	1.711121	0.289872	-0.003421
1094	5.4650e-01	9.0674	17.846513	0.000329	3.293908	0.558003	-0.006585
1095	5.4700e-01	9.0546	17.829836	0.000167	1.668343	0.282625	-0.003335
1096	5.4750e-01	9.0466	17.799047	0.000308	3.080018	0.521769	-0.006158
1097	5.4800e-01	9.0381	17.773389	0.000257	2.566682	0.434808	-0.005132
1098	5.4850e-01	9.0277	17.754574	0.000188	1.882233	0.318859	-0.003763
1099	5.4900e-01	9.0152	17.725068	0.000295	2.951684	0.500029	-0.005901
1100	5.4950e-01	9.0042	17.705397	0.000197	1.967789	0.333353	-0.003934
1101	5.5000e-01	8.9984	17.686154	0.000193	1.925011	0.326106	-0.003849
1102	5.5050e-01	8.9832	17.656220	0.000299	2.994462	0.507276	-0.005987
1103	5.5100e-01	8.9737	17.631845	0.000244	2.438348	0.413067	-0.004875
1104	5.5150e-01	8.9673	17.602339	0.000295	2.951684	0.500029	-0.005901
1105	5.5200e-01	8.9539	17.584379	0.000180	1.796677	0.304365	-0.003592
1106	5.5250e-01	8.9459	17.551452	0.000329	3.293908	0.558003	-0.006585
1107	5.5300e-01	8.9380	17.527077	0.000244	2.438348	0.413067	-0.004875
1108	5.5350e-01	8.9282	17.507406	0.000197	1.967789	0.333353	-0.003934
1109	5.5400e-01	8.9178	17.475762	0.000317	3.165574	0.536263	-0.006329
1110	5.5450e-01	8.9081	17.458657	0.000171	1.711121	0.289872	-0.003421
1111	5.5500e-01	8.8959	17.428296	0.000304	3.037240	0.514522	-0.006072
1112	5.5550e-01	8.8873	17.407342	0.000210	2.096123	0.355093	-0.004191
1113	5.5600e-01	8.8771	17.381685	0.000257	2.566682	0.434808	-0.005132
1114	5.5650e-01	8.8678	17.362869	0.000188	1.882233	0.318859	-0.003763
1115	5.5700e-01	8.8556	17.333791	0.000291	2.908906	0.492782	-0.005816
1116	5.5750e-01	8.8489	17.300008	0.000338	3.379464	0.572497	-0.006756
1117	5.5800e-01	8.8385	17.286324	0.000137	1.368897	0.231897	-0.002737
1118	5.5850e-01	8.8263	17.257246	0.000291	2.908906	0.492782	-0.005816
1119	5.5900e-01	8.8147	17.230733	0.000265	2.652238	0.449301	-0.005303
1120	5.5950e-01	8.8080	17.209352	0.000214	2.138902	0.362340	-0.004276
1121	5.6000e-01	8.7961	17.182839	0.000265	2.652238	0.449301	-0.005303
1122	5.6050e-01	8.7857	17.153760	0.000291	2.908906	0.492782	-0.005816
1123	5.6100e-01	8.7775	17.128103	0.000257	2.566682	0.434808	-0.005132
1124	5.6150e-01	8.7656	17.112281	0.000158	1.582787	0.268131	-0.003164
1125	5.6200e-01	8.7567	17.084057	0.000282	2.823350	0.478288	-0.005645
1126	5.6250e-01	8.7469	17.056689	0.000274	2.737794	0.463795	-0.005474
1127	5.6300e-01	8.7372	17.034025	0.000227	2.267236	0.384080	-0.004533
1128	5.6350e-01	8.7280	17.007512	0.000265	2.652238	0.449301	-0.005303
1129	5.6400e-01	8.7183	16.975441	0.000321	3.208352	0.543510	-0.006414
1130	5.6450e-01	8.7061	16.961757	0.000137	1.368897	0.231897	-0.002737
1131	5.6500e-01	8.7000	16.929685	0.000321	3.208352	0.543510	-0.006414
1132	5.6550e-01	8.6877	16.898040	0.000317	3.165574	0.536263	-0.006329
1133	5.6600e-01	8.6761	16.881791	0.000163	1.625565	0.275378	-0.003250
1134	5.6650e-01	8.6682	16.856561	0.000252	2.523904	0.427561	-0.005046
1135	5.6700e-01	8.6591	16.825344	0.000312	3.122796	0.529016	-0.006243
1136	5.6750e-01	8.6469	16.798404	0.000270	2.695016	0.456548	-0.005388
1137	5.6800e-01	8.6395	16.775312	0.000231	2.310014	0.391327	-0.004618
1138	5.6850e-01	8.6279	16.745378	0.000299	2.994462	0.507276	-0.005987
1139	5.6900e-01	8.6194	16.717155	0.000282	2.823350	0.478288	-0.005645
1140	5.6950e-01	8.6121	16.694491	0.000227	2.267236	0.384080	-0.004533
1141	5.7000e-01	8.5974	16.679096	0.000154	1.540009	0.260885	-0.003079
1142	5.7050e-01	8.5864	16.645741	0.000334	3.336686	0.565250	-0.006671
1143	5.7100e-01	8.5760	16.623505	0.000222	2.224458	0.376833	-0.004447
1144	5.7150e-01	8.5657	16.596565	0.000270	2.695016	0.456548	-0.005388
1145	5.7200e-01	8.5577	16.568341	0.000282	2.823350	0.478288	-0.005645
1146	5.7250e-01	8.5480	16.541401	0.000270	2.695016	0.456548	-0.005388
1147	5.7300e-01	8.5358	16.518737	0.000227	2.267236	0.384080	-0.004533
1148	5.7350e-01	8.5294	16.486665	0.000321	3.208352	0.543510	-0.006414
1149	5.7400e-01	8.5156	16.469132	0.000175	1.753899	0.297119	-0.003507
1150	5.7450e-01	8.5077	16.443047	0.000261	2.609460	0.442054	-0.005217
1151	5.7500e-01	8.4964	16.416534	0.000265	2.652238	0.449301	-0.005303
1152	5.7550e-01	8.4866	16.384035	0.000325	3.251130	0.550756	-0.006500
1153	5.7600e-01	8.4766	16.364792	0.000193	1.925011	0.326106	-0.003849
1154	5.7650e-01	8.4662	16.328443	0.000364	3.636133	0.615978	-0.007270
1155	5.7700e-01	8.4558	16.302358	0.000261	2.609460	0.442054	-0.005217
1156	5.7750e-01	8.4473	16.287819	0.000145	1.454453	0.246391	-0.002908
1157	5.7800e-01	8.4399	16.248050	0.000398	3.978357	0.673952	-0.007954
1158	5.7850e-01	8.4271	16.229662	0.000184	1.839455	0.311612	-0.003678
1159	5.7900e-01	8.4155	16.201439	0.000282	2.823350	0.478288	-0.005645
1160	5.7950e-01	8.4048	16.177492	0.000240	2.395570	0.405820	-0.004789
1161	5.8000e-01	8.3975	16.150551	0.000270	2.695016	0.456548	-0.005388
1162	5.8050e-01	8.3862	16.118907	0.000317	3.165574	0.536263	-0.006329
1163	5.8100e-01	8.3789	16.098381	0.000205	2.053345	0.347846	-0.004105
1164	5.8150e-01	8.3664	16.069730	0.000287	2.866128	0.485535	-0.005730
1165	5.8200e-01	8.3588	16.047494	0.000222	2.224458	0.376833	-0.004447
1166	5.8250e-01	8.3453	16.014994	0.000325	3.251130	0.550756	-0.006500
1167	5.8300e-01	8.3380	15.985916	0.000291	2.908906	0.492782	-0.005816
1168	5.8350e-01	8.3252	15.962824	0.000231	2.310014	0.391327	-0.004618
1169	5.8400e-01	8.3173	15.935456	0.000274	2.737794	0.463795	-0.005474
1170	5.8450e-01	8.3096	15.910226	0.000252	2.523904	0.427561	-0.005046
1171	5.8500e-01	8.2959	15.889272	0.000210	2.096123	0.355093	-0.004191
1172	5.8550e-01	8.2857	15.858483	0.000308	3.080018	0.521769	-0.006158
1173	5.8600e-01	8.2770	15.830688	0.000278	2.780572	0.471042	-0.005559
1174	5.8650e-01	8.2672	15.803747	0.000270	2.695016	0.456548	-0.005388
1175	5.8700e-01	8.2568	15.778945	0.000248	2.481126	0.420314	-0.004960
1176	5.8750e-01	8.2466	15.743452	0.000355	3.550576	0.601484	-0.007099
1177	5.8800e-01	8.2343	15.729768	0.000137	1.368897	0.231897	-0.002737
1178	5.8850e-01	8.2257	15.700262	0.000295	2.951684	0.500029	-0.005901
1179	5.8900e-01	8.2159	15.670328	0.000299	2.994462	0.507276	-0.005987
1180	5.8950e-01	8.2080	15.644243	0.000261	2.609460	0.442054	-0.005217
1181	5.9000e-01	8.1964	15.603191	0.000411	4.106691	0.695692	-0.008210
1182	5.9050e-01	8.1860	15.584376	0.000188	1.882233	0.318859	-0.003763
1183	5.9100e-01	8.1787	15.558290	0.000261	2.609460	0.442054	-0.005217
1184	5.9150e-01	8.1653	15.533488	0.000248	2.481126	0.420314	-0.004960
1185	5.9200e-01	8.1573	15.506120	0.000274	2.737794	0.463795	-0.005474
1186	5.9250e-01	8.1479	15.481318	0.000248	2.481126	0.420314	-0.004960
1187	5.9300e-01	8.1372	15.455660	0.000257	2.566682	0.434808	-0.005132
1188	5.9350e-01	8.1287	15.427009	0.000287	2.866128	0.485535	-0.005730
1189	5.9400e-01	8.1183	15.391944	0.000351	3.507798	0.594237	-0.007013
1190	5.9450e-01	8.1082	15.369280	0.000227	2.267236	0.384080	-0.004533
1191	5.9500e-01	8.0972	15.341057	0.000282	2.823350	0.478288	-0.005645
1192	5.9550e-01	8.0853	15.319248	0.000218	2.181680	0.369587	-0.004362
1193	5.9600e-01	8.0804	15.294018	0.000252	2.523904	0.427561	-0.005046
1194	5.9650e-01	8.0667	15.252966	0.000411	4.106691	0.695692	-0.008210
1195	5.9700e-01	8.0591	15.242275	0.000107	1.069451	0.181170	-0.002138
1196	5.9750e-01	8.0484	15.211914	0.000304	3.037240	0.514522	-0.006072
1197	5.9800e-01	8.0373	15.187967	0.000240	2.395570	0.405820	-0.004789
1198	5.9850e-01	8.0273	15.150763	0.000372	3.721689	0.630471	-0.007441
1199	5.9900e-01	8.0164	15.128955	0.000218	2.181680	0.369587	-0.004362
1200	5.9950e-01	8.0075	15.101587	0.000274	2.737794	0.463795	-0.005474
1201	6.0000e-01	7.9962	15.069942	0.000317	3.165574	0.536263	-0.006329
1202	6.0050e-01	7.9880	15.048561	0.000214	2.138902	0.362340	-0.004276
1203	6.0100e-01	7.9767	15.022476	0.000261	2.609460	0.442054	-0.005217
1204	6.0150e-01	7.9651	14.991259	0.000312	3.122796	0.529016	-0.006243
1205	6.0200e-01	7.9553	14.962608	0.000287	2.866128	0.485535	-0.005730
1206	6.0250e-01	7.9456	14.931392	0.000312	3.122796	0.529016	-0.006243
1207	6.0300e-01	7.9358	14.911293	0.000201	2.010567	0.340599	-0.004020
1208	6.0350e-01	7.9272	14.878794	0.000325	3.251130	0.550756	-0.006500
1209	6.0400e-01	7.9166	14.850998	0.000278	2.780572	0.471042	-0.005559
1210	6.0450e-01	7.9077	14.826624	0.000244	2.438348	0.413067	-0.004875
1211	6.0500e-01	7.8949	14.797117	0.000295	2.951684	0.500029	-0.005901
1212	6.0550e-01	7.8839	14.769322	0.000278	2.780572	0.471042	-0.005559
1213	6.0600e-01	7.8772	14.740671	0.000287	2.866128	0.485535	-0.005730
1214	6.0650e-01	7.8662	14.715441	0.000252	2.523904	0.427561	-0.005046
1215	6.0700e-01	7.8558	14.685507	0.000299	2.994462	0.507276	-0.005987
1216	6.0750e-01	7.8455	14.659850	0.000257	2.566682	0.434808	-0.005132
1217	6.0800e-01	7.8372	14.631626	0.000282	2.823350	0.478288	-0.005645
1218	6.0850e-01	7.8271	14.599982	0.000317	3.165574	0.536263	-0.006329
1219	6.0900e-01	7.8162	14.575607	0.000244	2.438348	0.413067	-0.004875
1220	6.0950e-01	7.8070	14.545246	0.000304	3.037240	0.514522	-0.006072
1221	6.1000e-01	7.7972	14.521727	0.000235	2.352792	0.398574	-0.004704
1222	6.1050e-01	7.7863	14.488800	0.000329	3.293908	0.558003	-0.006585
1223	6.1100e-01	7.7774	14.465708	0.000231	2.310014	0.391327	-0.004618
1224	6.1150e-01	7.7657	14.442616	0.000231	2.310014	0.391327	-0.004618
1225	6.1200e-01	7.7563	14.409261	0.000334	3.336686	0.565250	-0.006671
1226	6.1250e-01	7.7460	14.380610	0.000287	2.866128	0.485535	-0.005730
1227	6.1300e-01	7.7383	14.352815	0.000278	2.780572	0.471042	-0.005559
1228	6.1350e-01	7.7277	14.323309	0.000295	2.951684	0.500029	-0.005901
1229	6.1400e-01	7.7191	14.294658	0.000287	2.866128	0.485535	-0.005730
1230	6.1450e-01	7.7060	14.261303	0.000334	3.336686	0.565250	-0.006671
1231	6.1500e-01	7.6990	14.241205	0.000201	2.010567	0.340599	-0.004020
1232	6.1550e-01	7.6862	14.208705	0.000325	3.251130	0.550756	-0.006500
1233	6.1600e-01	7.6764	14.182620	0.000261	2.609460	0.442054	-0.005217
1234	6.1650e-01	7.6669	14.160811	0.000218	2.181680	0.369587	-0.004362
1235	6.1700e-01	7.6587	14.121469	0.000394	3.935579	0.666705	-0.007868
1236	6.1750e-01	7.6483	14.097095	0.000244	2.438348	0.413067	-0.004875
1237	6.1800e-01	7.6355	14.075286	0.000218	2.181680	0.369587	-0.004362
1238	6.1850e-01	7.6282	14.043214	0.000321	3.208352	0.543510	-0.006414
1239	6.1900e-01	7.6172	14.013280	0.000299	2.994462	0.507276	-0.005987
1240	6.1950e-01	7.6082	13.976504	0.000368	3.678911	0.623224	-0.007355
1241	6.2000e-01	7.5970	13.965814	0.000107	1.069451	0.181170	-0.002138
1242	6.2050e-01	7.5879	13.934597	0.000312	3.122796	0.529016	-0.006243
1243	6.2100e-01	7.5757	13.898677	0.000359	3.593355	0.608731	-0.007184
1244	6.2150e-01	7.5665	13.874730	0.000240	2.395570	0.405820	-0.004789
1245	6.2200e-01	7.5562	13.840520	0.000342	3.422242	0.579744	-0.006842
1246	6.2250e-01	7.5452	13.822559	0.000180	1.796677	0.304365	-0.003592
1247	6.2300e-01	7.5360	13.786211	0.000364	3.636133	0.615978	-0.007270
1248	6.2350e-01	7.5262	13.765258	0.000210	2.096123	0.355093	-0.004191
1249	6.2400e-01	7.5177	13.729765	0.000355	3.550576	0.601484	-0.007099
1250	6.2450e-01	7.5087	13.709239	0.000205	2.053345	0.347846	-0.004105
1251	6.2500e-01	7.4957	13.676312	0.000329	3.293908	0.558003	-0.006585
1252	6.2550e-01	7.4860	13.646378	0.000299	2.994462	0.507276	-0.005987
1253	6.2600e-01	7.4765	13.613451	0.000329	3.293908	0.558003	-0.006585
1254	6.2650e-01	7.4646	13.580951	0.000325	3.251130	0.550756	-0.006500
1255	6.2700e-01	7.4585	13.551445	0.000295	2.951684	0.500029	-0.005901
1256	6.2750e-01	7.4457	13.530919	0.000205	2.053345	0.347846	-0.004105
1257	6.2800e-01	7.4377	13.503123	0.000278	2.780572	0.471042	-0.005559
1258	6.2850e-01	7.4261	13.469341	0.000338	3.379464	0.572497	-0.006756
1259	6.2900e-01	7.4149	13.442828	0.000265	2.652238	0.449301	-0.005303
1260	6.2950e-01	7.4048	13.414177	0.000287	2.866128	0.485535	-0.005730
1261	6.3000e-01	7.3993	13.384243	0.000299	2.994462	0.507276	-0.005987
1262	6.3050e-01	7.3868	13.358586	0.000257	2.566682	0.434808	-0.005132
1263	6.3100e-01	7.3743	13.331218	0.000274	2.737794	0.463795	-0.005474
1264	6.3150e-01	7.3645	13.302995	0.000282	2.823350	0.478288	-0.005645
1265	6.3200e-01	7.3621	13.271778	0.000312	3.122796	0.529016	-0.006243
1266	6.3250e-01	7.3468	13.239279	0.000325	3.251130	0.550756	-0.006500
1267	6.3300e-01	7.3370	13.211483	0.000278	2.780572	0.471042	-0.005559
1268	6.3350e-01	7.3273	13.184970	0.000265	2.652238	0.449301	-0.005303
1269	6.3400e-01	7.3157	13.157174	0.000278	2.780572	0.471042	-0.005559
1270	6.3450e-01	7.3080	13.130662	0.000265	2.652238	0.449301	-0.005303
1271	6.3500e-01	7.3007	13.094741	0.000359	3.593355	0.608731	-0.007184
1272	6.3550e-01	7.2879	13.062669	0.000321	3.208352	0.543510	-0.006414
1273	6.3600e-01	7.2760	13.034874	0.000278	2.780572	0.471042	-0.005559
1274	6.3650e-01	7.2668	13.010927	0.000240	2.395570	0.405820	-0.004789
1275	6.3700e-01	7.2562	12.971585	0.000394	3.935579	0.666705	-0.007868
1276	6.3750e-01	7.2461	12.944645	0.000270	2.695016	0.456548	-0.005388
1277	6.3800e-01	7.2382	12.914283	0.000304	3.037240	0.514522	-0.006072
1278	6.3850e-01	7.2241	12.889481	0.000248	2.481126	0.420314	-0.004960
1279	6.3900e-01	7.2192	12.857837	0.000317	3.165574	0.536263	-0.006329
1280	6.3950e-01	7.2047	12.837738	0.000201	2.010567	0.340599	-0.004020
1281	6.4000e-01	7.1954	12.802673	0.000351	3.507798	0.594237	-0.007013
1282	6.4050e-01	7.1875	12.779581	0.000231	2.310014	0.391327	-0.004618
1283	6.4100e-01	7.1790	12.749220	0.000304	3.037240	0.514522	-0.006072
1284	6.4150e-01	7.1649	12.718003	0.000312	3.122796	0.529016	-0.006243
1285	6.4200e-01	7.1564	12.682510	0.000355	3.550576	0.601484	-0.007099
1286	6.4250e-01	7.1448	12.654287	0.000282	2.823350	0.478288	-0.005645
1287	6.4300e-01	7.1368	12.628630	0.000257	2.566682	0.434808	-0.005132
1288	6.4350e-01	7.1295	12.603400	0.000252	2.523904	0.427561	-0.005046
1289	6.4400e-01	7.1210	12.565769	0.000376	3.764467	0.637718	-0.007526
1290	6.4450e-01	7.1094	12.536263	0.000295	2.951684	0.500029	-0.005901
1291	6.4500e-01	7.0975	12.510177	0.000261	2.609460	0.442054	-0.005217
1292	6.4550e-01	7.0865	12.475540	0.000347	3.465020	0.586990	-0.006928
1293	6.4600e-01	7.0737	12.450310	0.000252	2.523904	0.427561	-0.005046
1294	6.4650e-01	7.0636	12.419521	0.000308	3.080018	0.521769	-0.006158
1295	6.4700e-01	7.0569	12.394719	0.000248	2.481126	0.420314	-0.004960
1296	6.4750e-01	7.0453	12.366495	0.000282	2.823350	0.478288	-0.005645
1297	6.4800e-01	7.0355	12.329720	0.000368	3.678911	0.623224	-0.007355
1298	6.4850e-01	7.0276	12.298503	0.000312	3.122796	0.529016	-0.006243
1299	6.4900e-01	7.0178	12.265576	0.000329	3.293908	0.558003	-0.006585
1300	6.4950e-01	7.0062	12.241629	0.000240	2.395570	0.405820	-0.004789
1301	6.5000e-01	7.0001	12.208274	0.000334	3.336686	0.565250	-0.006671
1302	6.5050e-01	6.9873	12.186037	0.000222	2.224458	0.376833	-0.004447
1303	6.5100e-01	6.9751	12.147551	0.000385	3.850023	0.652212	-0.007697
1304	6.5150e-01	6.9641	12.124032	0.000235	2.352792	0.398574	-0.004704
1305	6.5200e-01	6.9562	12.090249	0.000338	3.379464	0.572497	-0.006756
1306	6.5250e-01	6.9470	12.070579	0.000197	1.967789	0.333353	-0.003934
1307	6.5300e-01	6.9360	12.034230	0.000364	3.636133	0.615978	-0.007270
1308	6.5350e-01	6.9257	12.000876	0.000334	3.336686	0.565250	-0.006671
1309	6.5400e-01	6.9183	11.979494	0.000214	2.138902	0.362340	-0.004276
1310	6.5450e-01	6.9055	11.942719	0.000368	3.678911	0.623224	-0.007355
1311	6.5500e-01	6.8970	11.908936	0.000338	3.379464	0.572497	-0.006756
1312	6.5550e-01	6.8860	11.880713	0.000282	2.823350	0.478288	-0.005645
1313	6.5600e-01	6.8750	11.853345	0.000274	2.737794	0.463795	-0.005474
1314	6.5650e-01	6.8680	11.821701	0.000317	3.165574	0.536263	-0.006329
1315	6.5700e-01	6.8561	11.794760	0.000270	2.695016	0.456548	-0.005388
1316	6.5750e-01	6.8457	11.760978	0.000338	3.379464	0.572497	-0.006756
1317	6.5800e-01	6.8365	11.732327	0.000287	2.866128	0.485535	-0.005730
1318	6.5850e-01	6.8240	11.707525	0.000248	2.481126	0.420314	-0.004960
1319	6.5900e-01	6.8164	11.672887	0.000347	3.465020	0.586990	-0.006928
1320	6.5950e-01	6.8054	11.638677	0.000342	3.422242	0.579744	-0.006842
1321	6.6000e-01	6.7957	11.615585	0.000231	2.310014	0.391327	-0.004618
1322	6.6050e-01	6.7847	11.574106	0.000415	4.149469	0.702939	-0.008296
1323	6.6100e-01	6.7767	11.548021	0.000261	2.609460	0.442054	-0.005217
1324	6.6150e-01	6.7685	11.517659	0.000304	3.037240	0.514522	-0.006072
1325	6.6200e-01	6.7609	11.491146	0.000265	2.652238	0.449301	-0.005303
1326	6.6250e-01	6.7468	11.463351	0.000278	2.780572	0.471042	-0.005559
1327	6.6300e-01	6.7334	11.442825	0.000205	2.053345	0.347846	-0.004105
1328	6.6350e-01	6.7267	11.400062	0.000428	4.277803	0.724679	-0.008553
1329	6.6400e-01	6.7145	11.367990	0.000321	3.208352	0.543510	-0.006414
1330	6.6450e-01	6.7062	11.331642	0.000364	3.636133	0.615978	-0.007270
1331	6.6500e-01	6.6968	11.308550	0.000231	2.310014	0.391327	-0.004618
1332	6.6550e-01	6.6864	11.274340	0.000342	3.422242	0.579744	-0.006842
1333	6.6600e-01	6.6766	11.246545	0.000278	2.780572	0.471042	-0.005559
1334	6.6650e-01	6.6663	11.220887	0.000257	2.566682	0.434808	-0.005132
1335	6.6700e-01	6.6571	11.186677	0.000342	3.422242	0.579744	-0.006842
1336	6.6750e-01	6.6467	11.163158	0.000235	2.352792	0.398574	-0.004704
1337	6.6800e-01	6.6370	11.128948	0.000342	3.422242	0.579744	-0.006842
1338	6.6850e-01	6.6238	11.099869	0.000291	2.908906	0.492782	-0.005816
1339	6.6900e-01	6.6148	11.062666	0.000372	3.721689	0.630471	-0.007441
1340	6.6950e-01	6.6071	11.037008	0.000257	2.566682	0.434808	-0.005132
1341	6.7000e-01	6.5961	11.005792	0.000312	3.122796	0.529016	-0.006243
1342	6.7050e-01	6.5863	10.969871	0.000359	3.593355	0.608731	-0.007184
1343	6.7100e-01	6.5759	10.935661	0.000342	3.422242	0.579744	-0.006842
1344	6.7150e-01	6.5669	10.911287	0.000244	2.438348	0.413067	-0.004875
1345	6.7200e-01	6.5596	10.866386	0.000449	4.491693	0.760913	-0.008980
1346	6.7250e-01	6.5491	10.846715	0.000197	1.967789	0.333353	-0.003934
1347	6.7300e-01	6.5381	10.811222	0.000355	3.550576	0.601484	-0.007099
1348	6.7350e-01	6.5274	10.787703	0.000235	2.352792	0.398574	-0.004704
1349	6.7400e-01	6.5158	10.759052	0.000287	2.866128	0.485535	-0.005730
1350	6.7450e-01	6.5070	10.726125	0.000329	3.293908	0.558003	-0.006585
1351	6.7500e-01	6.4978	10.695336	0.000308	3.080018	0.521769	-0.006158
1352	6.7550e-01	6.4857	10.660270	0.000351	3.507798	0.594237	-0.007013
1353	6.7600e-01	6.4771	10.637606	0.000227	2.267236	0.384080	-0.004533
1354	6.7650e-01	6.4667	10.598692	0.000389	3.892801	0.659458	-0.007783
1355	6.7700e-01	6.4575	10.563627	0.000351	3.507798	0.594237	-0.007013
1356	6.7750e-01	6.4471	10.534121	0.000295	2.951684	0.500029	-0.005901
1357	6.7800e-01	6.4368	10.509746	0.000244	2.438348	0.413067	-0.004875
1358	6.7850e-01	6.4270	10.480668	0.000291	2.908906	0.492782	-0.005816
1359	6.7900e-01	6.4160	10.443892	0.000368	3.678911	0.623224	-0.007355
1360	6.7950e-01	6.4056	10.413958	0.000299	2.994462	0.507276	-0.005987
1361	6.8000e-01	6.4001	10.384452	0.000295	2.951684	0.500029	-0.005901
1362	6.8050e-01	6.3873	10.344255	0.000402	4.021135	0.681199	-0.008039
1363	6.8100e-01	6.3776	10.313039	0.000312	3.122796	0.529016	-0.006243
1364	6.8150e-01	6.3672	10.286526	0.000265	2.652238	0.449301	-0.005303
1365	6.8200e-01	6.3580	10.257020	0.000295	2.951684	0.500029	-0.005901
1366	6.8250e-01	6.3455	10.229652	0.000274	2.737794	0.463795	-0.005474
1367	6.8300e-01	6.3385	10.194587	0.000351	3.507798	0.594237	-0.007013
1368	6.8350e-01	6.3269	10.160804	0.000338	3.379464	0.572497	-0.006756
1369	6.8400e-01	6.3187	10.128305	0.000325	3.251130	0.550756	-0.006500
1370	6.8450e-01	6.3077	10.098798	0.000295	2.951684	0.500029	-0.005901
1371	6.8500e-01	6.2952	10.065871	0.000329	3.293908	0.558003	-0.006585
1372	6.8550e-01	6.2863	10.034227	0.000317	3.165574	0.536263	-0.006329
1373	6.8600e-01	6.2762	10.005576	0.000287	2.866128	0.485535	-0.005730
1374	6.8650e-01	6.2683	9.972649	0.000329	3.293908	0.558003	-0.006585
1375	6.8700e-01	6.2543	9.950413	0.000222	2.224458	0.376833	-0.004447
1376	6.8750e-01	6.2469	9.906367	0.000441	4.406137	0.746420	-0.008809
1377	6.8800e-01	6.2360	9.884558	0.000218	2.181680	0.369587	-0.004362
1378	6.8850e-01	6.2256	9.850776	0.000338	3.379464	0.572497	-0.006756
1379	6.8900e-01	6.2170	9.817849	0.000329	3.293908	0.558003	-0.006585
1380	6.8950e-01	6.2056	9.779790	0.000381	3.807245	0.644965	-0.007612
1381	6.9000e-01	6.1984	9.753705	0.000261	2.609460	0.442054	-0.005217
1382	6.9050e-01	6.1859	9.718640	0.000351	3.507798	0.594237	-0.007013
1383	6.9100e-01	6.1768	9.686140	0.000325	3.251130	0.550756	-0.006500
1384	6.9150e-01	6.1670	9.657062	0.000291	2.908906	0.492782	-0.005816
1385	6.9200e-01	6.1586	9.630976	0.000261	2.609460	0.442054	-0.005217
1386	6.9250e-01	6.1469	9.594201	0.000368	3.678911	0.623224	-0.007355
1387	6.9300e-01	6.1324	9.567688	0.000265	2.652238	0.449301	-0.005303
1388	6.9350e-01	6.1285	9.533478	0.000342	3.422242	0.579744	-0.006842
1389	6.9400e-01	6.1176	9.501834	0.000317	3.165574	0.536263	-0.006329
1390	6.9450e-01	6.1078	9.466768	0.000351	3.507798	0.594237	-0.007013
1391	6.9500e-01	6.0999	9.432131	0.000347	3.465020	0.586990	-0.006928
1392	6.9550e-01	6.0864	9.400914	0.000312	3.122796	0.529016	-0.006243
1393	6.9600e-01	6.0782	9.375257	0.000257	2.566682	0.434808	-0.005132
1394	6.9650e-01	6.0663	9.338053	0.000372	3.721689	0.630471	-0.007441
1395	6.9700e-01	6.0587	9.312823	0.000252	2.523904	0.427561	-0.005046
1396	6.9750e-01	6.0449	9.277758	0.000351	3.507798	0.594237	-0.007013
1397	6.9800e-01	6.0394	9.241837	0.000359	3.593355	0.608731	-0.007184
1398	6.9850e-01	6.0272	9.211476	0.000304	3.037240	0.514522	-0.006072
1399	6.9900e-01	6.0187	9.171707	0.000398	3.978357	0.673952	-0.007954
1400	6.9950e-01	6.0089	9.143056	0.000287	2.866128	0.485535	-0.005730
1401	7.0000e-01	5.9971	9.115688	0.000274	2.737794	0.463795	-0.005474
1402	7.0050e-01	5.9875	9.085754	0.000299	2.994462	0.507276	-0.005987
1403	7.0100e-01	5.9769	9.042136	0.000436	4.363359	0.739173	-0.008724
1404	7.0150e-01	5.9669	9.013058	0.000291	2.908906	0.492782	-0.005816
1405	7.0200e-01	5.9570	8.986118	0.000270	2.695016	0.456548	-0.005388
1406	7.0250e-01	5.9503	8.947631	0.000385	3.850023	0.652212	-0.007697
1407	7.0300e-01	5.9372	8.919408	0.000282	2.823350	0.478288	-0.005645
1408	7.0350e-01	5.9271	8.877928	0.000415	4.149469	0.702939	-0.008296
1409	7.0400e-01	5.9189	8.848850	0.000291	2.908906	0.492782	-0.005816
1410	7.0450e-01	5.9070	8.815923	0.000329	3.293908	0.558003	-0.006585
1411	7.0500e-01	5.8955	8.790693	0.000252	2.523904	0.427561	-0.005046
1412	7.0550e-01	5.8868	8.761614	0.000291	2.908906	0.492782	-0.005816
1413	7.0600e-01	5.8768	8.724411	0.000372	3.721689	0.630471	-0.007441
1414	7.0650e-01	5.8673	8.695332	0.000291	2.908906	0.492782	-0.005816
1415	7.0700e-01	5.8575	8.654708	0.000406	4.063913	0.688445	-0.008125
1416	7.0750e-01	5.8453	8.630333	0.000244	2.438348	0.413067	-0.004875
1417	7.0800e-01	5.8377	8.597834	0.000325	3.251130	0.550756	-0.006500
1418	7.0850e-01	5.8234	8.561058	0.000368	3.678911	0.623224	-0.007355
1419	7.0900e-01	5.8170	8.534973	0.000261	2.609460	0.442054	-0.005217
1420	7.0950e-01	5.8075	8.492638	0.000424	4.235025	0.717433	-0.008467
1421	7.1000e-01	5.7953	8.469119	0.000235	2.352792	0.398574	-0.004704
1422	7.1050e-01	5.7861	8.430632	0.000385	3.850023	0.652212	-0.007697
1423	7.1100e-01	5.7788	8.398560	0.000321	3.208352	0.543510	-0.006414
1424	7.1150e-01	5.7648	8.364778	0.000338	3.379464	0.572497	-0.006756
1425	7.1200e-01	5.7544	8.327575	0.000372	3.721689	0.630471	-0.007441
1426	7.1250e-01	5.7474	8.288661	0.000389	3.892801	0.659458	-0.007783
1427	7.1300e-01	5.7373	8.258299	0.000304	3.037240	0.514522	-0.006072
1428	7.1350e-01	5.7272	8.226655	0.000317	3.165574	0.536263	-0.006329
1429	7.1400e-01	5.7166	8.201853	0.000248	2.481126	0.420314	-0.004960
1430	7.1450e-01	5.7117	8.165505	0.000364	3.636133	0.615978	-0.007270
1431	7.1500e-01	5.6976	8.131295	0.000342	3.422242	0.579744	-0.006842
1432	7.1550e-01	5.6848	8.094946	0.000364	3.636133	0.615978	-0.007270
1433	7.1600e-01	5.6763	8.068434	0.000265	2.652238	0.449301	-0.005303
1434	7.1650e-01	5.6665	8.041066	0.000274	2.737794	0.463795	-0.005474
1435	7.1700e-01	5.6580	7.991461	0.000496	4.962251	0.840628	-0.009921
1436	7.1750e-01	5.6470	7.969652	0.000218	2.181680	0.369587	-0.004362
1437	7.1800e-01	5.6360	7.930311	0.000394	3.935579	0.666705	-0.007868
1438	7.1850e-01	5.6253	7.891397	0.000389	3.892801	0.659458	-0.007783
1439	7.1900e-01	5.6180	7.872581	0.000188	1.882233	0.318859	-0.003763
1440	7.1950e-01	5.6062	7.838799	0.000338	3.379464	0.572497	-0.006756
1441	7.2000e-01	5.5991	7.800740	0.000381	3.807245	0.644965	-0.007612
1442	7.2050e-01	5.5865	7.766958	0.000338	3.379464	0.572497	-0.006756
1443	7.2100e-01	5.5786	7.729327	0.000376	3.764467	0.637718	-0.007526
1444	7.2150e-01	5.5679	7.693834	0.000355	3.550576	0.601484	-0.007099
1445	7.2200e-01	5.5548	7.664328	0.000295	2.951684	0.500029	-0.005901
1446	7.2250e-01	5.5450	7.638243	0.000261	2.609460	0.442054	-0.005217
1447	7.2300e-01	5.5420	7.595908	0.000424	4.235025	0.717433	-0.008467
1448	7.2350e-01	5.5270	7.560415	0.000355	3.550576	0.601484	-0.007099
1449	7.2400e-01	5.5145	7.528771	0.000317	3.165574	0.536263	-0.006329
1450	7.2450e-01	5.5086	7.492850	0.000359	3.593355	0.608731	-0.007184
1451	7.2500e-01	5.4980	7.466765	0.000261	2.609460	0.442054	-0.005217
1452	7.2550e-01	5.4858	7.427423	0.000394	3.935579	0.666705	-0.007868
1453	7.2600e-01	5.4761	7.395779	0.000317	3.165574	0.536263	-0.006329
1454	7.2650e-01	5.4675	7.362852	0.000329	3.293908	0.558003	-0.006585
1455	7.2700e-01	5.4587	7.326076	0.000368	3.678911	0.623224	-0.007355
1456	7.2750e-01	5.4474	7.299563	0.000265	2.652238	0.449301	-0.005303
1457	7.2800e-01	5.4376	7.256801	0.000428	4.277803	0.724679	-0.008553
1458	7.2850e-01	5.4254	7.232426	0.000244	2.438348	0.413067	-0.004875
1459	7.2900e-01	5.4175	7.191802	0.000406	4.063913	0.688445	-0.008125
1460	7.2950e-01	5.4077	7.164006	0.000278	2.780572	0.471042	-0.005559
1461	7.3000e-01	5.3995	7.121244	0.000428	4.277803	0.724679	-0.008553
1462	7.3050e-01	5.3857	7.088744	0.000325	3.251130	0.550756	-0.006500
1463	7.3100e-01	5.3766	7.057955	0.000308	3.080018	0.521769	-0.006158
1464	7.3150e-01	5.3659	7.025883	0.000321	3.208352	0.543510	-0.006414
1465	7.3200e-01	5.3572	6.984831	0.000411	4.106691	0.695692	-0.008210
1466	7.3250e-01	5.3487	6.957036	0.000278	2.780572	0.471042	-0.005559
1467	7.3300e-01	5.3363	6.922398	0.000347	3.465020	0.586990	-0.006928
1468	7.3350e-01	5.3275	6.890326	0.000321	3.208352	0.543510	-0.006414
1469	7.3400e-01	5.3162	6.852695	0.000376	3.764467	0.637718	-0.007526
1470	7.3450e-01	5.3076	6.820196	0.000325	3.251130	0.550756	-0.006500
1471	7.3500e-01	5.2960	6.792400	0.000278	2.780572	0.471042	-0.005559
1472	7.3550e-01	5.2863	6.754341	0.000381	3.807245	0.644965	-0.007612
1473	7.3600e-01	5.2774	6.714144	0.000402	4.021135	0.681199	-0.008039
1474	7.3650e-01	5.2673	6.676086	0.000381	3.807245	0.644965	-0.007612
1475	7.3700e-01	5.2573	6.651284	0.000248	2.481126	0.420314	-0.004960
1476	7.3750e-01	5.2475	6.606383	0.000449	4.491693	0.760913	-0.008980
1477	7.3800e-01	5.2374	6.579015	0.000274	2.737794	0.463795	-0.005474
1478	7.3850e-01	5.2283	6.547371	0.000317	3.165574	0.536263	-0.006329
1479	7.3900e-01	5.2167	6.512305	0.000351	3.507798	0.594237	-0.007013
1480	7.3950e-01	5.2065	6.471681	0.000406	4.063913	0.688445	-0.008125
1481	7.4000e-01	5.1959	6.437043	0.000347	3.465020	0.586990	-0.006928
1482	7.4050e-01	5.1862	6.410958	0.000261	2.609460	0.442054	-0.005217
1483	7.4100e-01	5.1753	6.374610	0.000364	3.636133	0.615978	-0.007270
1484	7.4150e-01	5.1672	6.335268	0.000394	3.935579	0.666705	-0.007868
1485	7.4200e-01	5.1556	6.300203	0.000351	3.507798	0.594237	-0.007013
1486	7.4250e-01	5.1483	6.267276	0.000329	3.293908	0.558003	-0.006585
1487	7.4300e-01	5.1373	6.231356	0.000359	3.593355	0.608731	-0.007184
1488	7.4350e-01	5.1270	6.193297	0.000381	3.807245	0.644965	-0.007612
1489	7.4400e-01	5.1160	6.161225	0.000321	3.208352	0.543510	-0.006414
1490	7.4450e-01	5.1073	6.126587	0.000347	3.465020	0.586990	-0.006928
1491	7.4500e-01	5.0971	6.089384	0.000372	3.721689	0.630471	-0.007441
1492	7.4550e-01	5.0880	6.059023	0.000304	3.037240	0.514522	-0.006072
1493	7.4600e-01	5.0763	6.016688	0.000424	4.235025	0.717433	-0.008467
1494	7.4650e-01	5.0690	5.987181	0.000295	2.951684	0.500029	-0.005901
1495	7.4700e-01	5.0568	5.957248	0.000299	2.994462	0.507276	-0.005987
1496	7.4750e-01	5.0458	5.917479	0.000398	3.978357	0.673952	-0.007954
1497	7.4800e-01	5.0331	5.872578	0.000449	4.491693	0.760913	-0.008980
1498	7.4850e-01	5.0299	5.847776	0.000248	2.481126	0.420314	-0.004960
1499	7.4900e-01	5.0174	5.808862	0.000389	3.892801	0.659458	-0.007783
1500	7.4950e-01	5.0092	5.775507	0.000334	3.336686	0.565250	-0.006671
1501	7.5000e-01	4.9934	5.733172	0.000424	4.235025	0.717433	-0.008467
1502	7.5050e-01	4.9890	5.700245	0.000329	3.293908	0.558003	-0.006585
1503	7.5100e-01	4.9786	5.671166	0.000291	2.908906	0.492782	-0.005816
1504	7.5150e-01	4.9658	5.645081	0.000261	2.609460	0.442054	-0.005217
1505	7.5200e-01	4.9591	5.606595	0.000385	3.850023	0.652212	-0.007697
1506	7.5250e-01	4.9448	5.574095	0.000325	3.251130	0.550756	-0.006500
1507	7.5300e-01	4.9368	5.532616	0.000415	4.149469	0.702939	-0.008296
1508	7.5350e-01	4.9274	5.501399	0.000312	3.122796	0.529016	-0.006243
1509	7.5400e-01	4.9182	5.462913	0.000385	3.850023	0.652212	-0.007697
1510	7.5450e-01	4.9072	5.431696	0.000312	3.122796	0.529016	-0.006243
1511	7.5500e-01	4.8950	5.395348	0.000364	3.636133	0.615978	-0.007270
1512	7.5550e-01	4.8868	5.356007	0.000394	3.935579	0.666705	-0.007868
1513	7.5600e-01	4.8730	5.320086	0.000359	3.593355	0.608731	-0.007184
1514	7.5650e-01	4.8654	5.283738	0.000364	3.636133	0.615978	-0.007270
1515	7.5700e-01	4.8590	5.242686	0.000411	4.106691	0.695692	-0.008210
1516	7.5750e-01	4.8456	5.212324	0.000304	3.037240	0.514522	-0.006072
1517	7.5800e-01	4.8360	5.179825	0.000325	3.251130	0.550756	-0.006500
1518	7.5850e-01	4.8291	5.137490	0.000424	4.235025	0.717433	-0.008467
1519	7.5900e-01	4.8169	5.110122	0.000274	2.737794	0.463795	-0.005474
1520	7.5950e-01	4.8073	5.074202	0.000359	3.593355	0.608731	-0.007184
1521	7.6000e-01	4.7986	5.032722	0.000415	4.149469	0.702939	-0.008296
1522	7.6050e-01	4.7858	4.996374	0.000364	3.636133	0.615978	-0.007270
1523	7.6100e-01	4.7775	4.968578	0.000278	2.780572	0.471042	-0.005559
1524	7.6150e-01	4.7673	4.928809	0.000398	3.978357	0.673952	-0.007954
1525	7.6200e-01	4.7562	4.883053	0.000458	4.577249	0.775407	-0.009151
1526	7.6250e-01	4.7482	4.856540	0.000265	2.652238	0.449301	-0.005303
1527	7.6300e-01	4.7382	4.813778	0.000428	4.277803	0.724679	-0.008553
1528	7.6350e-01	4.7287	4.776147	0.000376	3.764467	0.637718	-0.007526
1529	7.6400e-01	4.7180	4.743220	0.000329	3.293908	0.558003	-0.006585
1530	7.6450e-01	4.7070	4.711575	0.000317	3.165574	0.536263	-0.006329
1531	7.6500e-01	4.6964	4.683352	0.000282	2.823350	0.478288	-0.005645
1532	7.6550e-01	4.6887	4.635886	0.000475	4.748361	0.804394	-0.009493
1533	7.6600e-01	4.6765	4.604241	0.000317	3.165574	0.536263	-0.006329
1534	7.6650e-01	4.6649	4.573025	0.000312	3.122796	0.529016	-0.006243
1535	7.6700e-01	4.6613	4.534966	0.000381	3.807245	0.644965	-0.007612
1536	7.6750e-01	4.6463	4.495625	0.000394	3.935579	0.666705	-0.007868
1537	7.6800e-01	4.6352	4.457566	0.000381	3.807245	0.644965	-0.007612
1538	7.6850e-01	4.6297	4.421218	0.000364	3.636133	0.615978	-0.007270
1539	7.6900e-01	4.6167	4.388718	0.000325	3.251130	0.550756	-0.006500
1540	7.6950e-01	4.6097	4.344245	0.000445	4.448915	0.753667	-0.008895
1541	7.7000e-01	4.5992	4.312173	0.000321	3.208352	0.543510	-0.006414
1542	7.7050e-01	4.5880	4.271549	0.000406	4.063913	0.688445	-0.008125
1543	7.7100e-01	4.5749	4.239905	0.000317	3.165574	0.536263	-0.006329
1544	7.7150e-01	4.5670	4.203556	0.000364	3.636133	0.615978	-0.007270
1545	7.7200e-01	4.5584	4.157373	0.000462	4.620027	0.782654	-0.009237
1546	7.7250e-01	4.5480	4.131288	0.000261	2.609460	0.442054	-0.005217
1547	7.7300e-01	4.5383	4.091946	0.000394	3.935579	0.666705	-0.007868
1548	7.7350e-01	4.5282	4.048328	0.000436	4.363359	0.739173	-0.008724
1549	7.7400e-01	4.5174	4.019250	0.000291	2.908906	0.492782	-0.005816
1550	7.7450e-01	4.5062	3.979053	0.000402	4.021135	0.681199	-0.008039
1551	7.7500e-01	4.4952	3.944416	0.000347	3.465020	0.586990	-0.006928
1552	7.7550e-01	4.4843	3.907640	0.000368	3.678911	0.623224	-0.007355
1553	7.7600e-01	4.4730	3.877706	0.000299	2.994462	0.507276	-0.005987
1554	7.7650e-01	4.4675	3.834088	0.000436	4.363359	0.739173	-0.008724
1555	7.7700e-01	4.4577	3.797312	0.000368	3.678911	0.623224	-0.007355
1556	7.7750e-01	4.4479	3.761392	0.000359	3.593355	0.608731	-0.007184
1557	7.7800e-01	4.4360	3.721623	0.000398	3.978357	0.673952	-0.007954
1558	7.7850e-01	4.4275	3.687840	0.000338	3.379464	0.572497	-0.006756
1559	7.7900e-01	4.4159	3.648926	0.000389	3.892801	0.659458	-0.007783
1560	7.7950e-01	4.4061	3.617282	0.000317	3.165574	0.536263	-0.006329
1561	7.8000e-01	4.3973	3.581362	0.000359	3.593355	0.608731	-0.007184
1562	7.8050e-01	4.3872	3.538172	0.000432	4.320581	0.731926	-0.008638
1563	7.8100e-01	4.3762	3.503534	0.000347	3.465020	0.586990	-0.006928
1564	7.8150e-01	4.3678	3.459061	0.000445	4.448915	0.753667	-0.008895
1565	7.8200e-01	4.3561	3.428272	0.000308	3.080018	0.521769	-0.006158
1566	7.8250e-01	4.3476	3.391068	0.000372	3.721689	0.630471	-0.007441
1567	7.8300e-01	4.3372	3.354720	0.000364	3.636133	0.615978	-0.007270
1568	7.8350e-01	4.3274	3.314951	0.000398	3.978357	0.673952	-0.007954
1569	7.8400e-01	4.3176	3.273899	0.000411	4.106691	0.695692	-0.008210
1570	7.8450e-01	4.3079	3.243965	0.000299	2.994462	0.507276	-0.005987
1571	7.8500e-01	4.2944	3.209755	0.000342	3.422242	0.579744	-0.006842
1572	7.8550e-01	4.2847	3.160578	0.000492	4.919473	0.833381	-0.009835
1573	7.8600e-01	4.2761	3.128934	0.000317	3.165574	0.536263	-0.006329
1574	7.8650e-01	4.2688	3.086172	0.000428	4.277803	0.724679	-0.008553
1575	7.8700e-01	4.2609	3.050251	0.000359	3.593355	0.608731	-0.007184
1576	7.8750e-01	4.2460	3.016041	0.000342	3.422242	0.579744	-0.006842
1577	7.8800e-01	4.2358	2.979693	0.000364	3.636133	0.615978	-0.007270
1578	7.8850e-01	4.2279	2.934792	0.000449	4.491693	0.760913	-0.008980
1579	7.8900e-01	4.2178	2.907852	0.000270	2.695016	0.456548	-0.005388
1580	7.8950e-01	4.2075	2.862096	0.000458	4.577249	0.775407	-0.009151
1581	7.9000e-01	4.1969	2.823610	0.000385	3.850023	0.652212	-0.007697
1582	7.9050e-01	4.1850	2.787689	0.000359	3.593355	0.608731	-0.007184
1583	7.9100e-01	4.1776	2.745354	0.000424	4.235025	0.717433	-0.008467
1584	7.9150e-01	4.1681	2.718414	0.000270	2.695016	0.456548	-0.005388
1585	7.9200e-01	4.1553	2.674368	0.000441	4.406137	0.746420	-0.008809
1586	7.9250e-01	4.1483	2.628185	0.000462	4.620027	0.782654	-0.009237
1587	7.9300e-01	4.1357	2.602527	0.000257	2.566682	0.434808	-0.005132
1588	7.9350e-01	4.1246	2.557199	0.000453	4.534471	0.768160	-0.009066
1589	7.9400e-01	4.1165	2.517430	0.000398	3.978357	0.673952	-0.007954
1590	7.9450e-01	4.1055	2.490062	0.000274	2.737794	0.463795	-0.005474
1591	7.9500e-01	4.0973	2.434043	0.000560	5.603922	0.949330	-0.011204
1592	7.9550e-01	4.0918	2.405820	0.000282	2.823350	0.478288	-0.005645
1593	7.9600e-01	4.0773	2.369472	0.000364	3.636133	0.615978	-0.007270
1594	7.9650e-01	4.0646	2.326709	0.000428	4.277803	0.724679	-0.008553
1595	7.9700e-01	4.0564	2.295065	0.000317	3.165574	0.536263	-0.006329
1596	7.9750e-01	4.0466	2.249737	0.000453	4.534471	0.768160	-0.009066
1597	7.9800e-01	4.0387	2.218092	0.000317	3.165574	0.536263	-0.006329
1598	7.9850e-01	4.0286	2.178323	0.000398	3.978357	0.673952	-0.007954
1599	7.9900e-01	4.0176	2.138126	0.000402	4.021135	0.681199	-0.008039
1600	7.9950e-01	4.0047	2.098357	0.000398	3.978357	0.673952	-0.007954
1601	8.0000e-01	3.9948	2.064575	0.000338	3.379464	0.572497	-0.006756
1602	8.0050e-01	3.9861	2.026516	0.000381	3.807245	0.644965	-0.007612
1603	8.0100e-01	3.9769	1.984181	0.000424	4.235025	0.717433	-0.008467
1604	8.0150e-01	3.9636	1.945267	0.000389	3.892801	0.659458	-0.007783
1605	8.0200e-01	3.9588	1.906781	0.000385	3.850023	0.652212	-0.007697
1606	8.0250e-01	3.9436	1.872143	0.000347	3.465020	0.586990	-0.006928
1607	8.0300e-01	3.9360	1.828526	0.000436	4.363359	0.739173	-0.008724
1608	8.0350e-01	3.9256	1.794316	0.000342	3.422242	0.579744	-0.006842
1609	8.0400e-01	3.9182	1.755829	0.000385	3.850023	0.652212	-0.007697
1610	8.0450e-01	3.9069	1.723330	0.000325	3.251130	0.550756	-0.006500
1611	8.0500e-01	3.8983	1.661324	0.000620	6.202814	1.050785	-0.012401
1612	8.0550e-01	3.8879	1.630963	0.000304	3.037240	0.514522	-0.006072
1613	8.0600e-01	3.8763	1.584779	0.000462	4.620027	0.782654	-0.009237
1614	8.0650e-01	3.8672	1.557839	0.000270	2.695016	0.456548	-0.005388
1615	8.0700e-01	3.8552	1.514221	0.000436	4.363359	0.739173	-0.008724
1616	8.0750e-01	3.8466	1.478728	0.000355	3.550576	0.601484	-0.007099
1617	8.0800e-01	3.8385	1.436393	0.000424	4.235025	0.717433	-0.008467
1618	8.0850e-01	3.8251	1.400045	0.000364	3.636133	0.615978	-0.007270
1619	8.0900e-01	3.8156	1.361559	0.000385	3.850023	0.652212	-0.007697
1620	8.0950e-01	3.8049	1.311954	0.000496	4.962251	0.840628	-0.009921
1621	8.1000e-01	3.7962	1.281593	0.000304	3.037240	0.514522	-0.006072
1622	8.1050e-01	3.7857	1.243962	0.000376	3.764467	0.637718	-0.007526
1623	8.1100e-01	3.7729	1.191364	0.000526	5.261698	0.891356	-0.010520
1624	8.1150e-01	3.7662	1.169983	0.000214	2.138902	0.362340	-0.004276
1625	8.1200e-01	3.7570	1.126793	0.000432	4.320581	0.731926	-0.008638
1626	8.1250e-01	3.7476	1.080609	0.000462	4.620027	0.782654	-0.009237
1627	8.1300e-01	3.7372	1.053241	0.000274	2.737794	0.463795	-0.005474
1628	8.1350e-01	3.7254	1.012617	0.000406	4.063913	0.688445	-0.008125
1629	8.1400e-01	3.7167	0.972847	0.000398	3.978357	0.673952	-0.007954
1630	8.1450e-01	3.7051	0.925381	0.000475	4.748361	0.804394	-0.009493
1631	8.1500e-01	3.6961	0.892882	0.000325	3.251130	0.550756	-0.006500
1632	8.1550e-01	3.6856	0.844988	0.000479	4.791139	0.811641	-0.009579
1633	8.1600e-01	3.6749	0.813343	0.000317	3.165574	0.536263	-0.006329
1634	8.1650e-01	3.6688	0.766304	0.000471	4.705583	0.797147	-0.009408
1635	8.1700e-01	3.6584	0.721404	0.000449	4.491693	0.760913	-0.008980
1636	8.1750e-01	3.6451	0.689760	0.000317	3.165574	0.536263	-0.006329
1637	8.1800e-01	3.6386	0.646142	0.000436	4.363359	0.739173	-0.008724
1638	8.1850e-01	3.6249	0.610221	0.000359	3.593355	0.608731	-0.007184
1639	8.1900e-01	3.6159	0.576011	0.000342	3.422242	0.579744	-0.006842
1640	8.1950e-01	3.6053	0.531538	0.000445	4.448915	0.753667	-0.008895
1641	8.2000e-01	3.5947	0.483644	0.000479	4.791139	0.811641	-0.009579
1642	8.2050e-01	3.5856	0.452000	0.000317	3.165574	0.536263	-0.006329
1643	8.2100e-01	3.5757	0.411376	0.000406	4.063913	0.688445	-0.008125
1644	8.2150e-01	3.5681	0.370751	0.000406	4.063913	0.688445	-0.008125
1645	8.2200e-01	3.5580	0.327133	0.000436	4.363359	0.739173	-0.008724
1646	8.2250e-01	3.5480	0.285226	0.000419	4.192247	0.710186	-0.008381
1647	8.2300e-01	3.5364	0.245885	0.000394	3.935579	0.666705	-0.007868
1648	8.2350e-01	3.5257	0.207826	0.000381	3.807245	0.644965	-0.007612
1649	8.2400e-01	3.5173	0.164208	0.000436	4.363359	0.739173	-0.008724
1650	8.2450e-01	3.5056	0.124439	0.000398	3.978357	0.673952	-0.007954
1651	8.2500e-01	3.4973	0.081249	0.000432	4.320581	0.731926	-0.008638
1652	8.2550e-01	3.4888	0.048322	0.000329	3.293908	0.558003	-0.006585
1653	8.2600e-01	3.4775	0.009835	0.000385	3.850023	0.652212	-0.007697
1654	8.2650e-01	3.4668	-0.033782	0.000436	4.363359	0.739173	-0.008724
1655	8.2700e-01	3.4567	-0.072696	0.000389	3.892801	0.659458	-0.007783
1656	8.2750e-01	3.4467	-0.113321	0.000406	4.063913	0.688445	-0.008125
1657	8.2800e-01	3.4346	-0.155228	0.000419	4.192247	0.710186	-0.008381
1658	8.2850e-01	3.4254	-0.190721	0.000355	3.550576	0.601484	-0.007099
1659	8.2900e-01	3.4154	-0.241608	0.000509	5.090586	0.862369	-0.010177
1660	8.2950e-01	3.4067	-0.284798	0.000432	4.320581	0.731926	-0.008638
1661	8.3000e-01	3.3939	-0.320291	0.000355	3.550576	0.601484	-0.007099
1662	8.3050e-01	3.3881	-0.354074	0.000338	3.379464	0.572497	-0.006756
1663	8.3100e-01	3.3768	-0.392132	0.000381	3.807245	0.644965	-0.007612
1664	8.3150e-01	3.3672	-0.443875	0.000518	5.176142	0.876862	-0.010349
1665	8.3200e-01	3.3553	-0.489631	0.000458	4.577249	0.775407	-0.009151
1666	8.3250e-01	3.3481	-0.517854	0.000282	2.823350	0.478288	-0.005645
1667	8.3300e-01	3.3380	-0.570024	0.000522	5.218920	0.884109	-0.010434
1668	8.3350e-01	3.3257	-0.602096	0.000321	3.208352	0.543510	-0.006414
1669	8.3400e-01	3.3155	-0.646569	0.000445	4.448915	0.753667	-0.008895
1670	8.3450e-01	3.3081	-0.692753	0.000462	4.620027	0.782654	-0.009237
1671	8.3500e-01	3.2977	-0.735515	0.000428	4.277803	0.724679	-0.008553
1672	8.3550e-01	3.2861	-0.768015	0.000325	3.251130	0.550756	-0.006500
1673	8.3600e-01	3.2767	-0.806074	0.000381	3.807245	0.644965	-0.007612
1674	8.3650e-01	3.2672	-0.845415	0.000394	3.935579	0.666705	-0.007868
1675	8.3700e-01	3.2553	-0.899724	0.000543	5.432810	0.920343	-0.010862
1676	8.3750e-01	3.2477	-0.936927	0.000372	3.721689	0.630471	-0.007441
1677	8.3800e-01	3.2379	-0.985676	0.000488	4.876695	0.826135	-0.009750
1678	8.3850e-01	3.2252	-1.022024	0.000364	3.636133	0.615978	-0.007270
1679	8.3900e-01	3.2153	-1.068636	0.000466	4.662805	0.789901	-0.009322
1680	8.3950e-01	3.2056	-1.103273	0.000347	3.465020	0.586990	-0.006928
1681	8.4000e-01	3.1931	-1.141332	0.000381	3.807245	0.644965	-0.007612
1682	8.4050e-01	3.1870	-1.192219	0.000509	5.090586	0.862369	-0.010177
1683	8.4100e-01	3.1763	-1.223864	0.000317	3.165574	0.536263	-0.006329
1684	8.4150e-01	3.1696	-1.271330	0.000475	4.748361	0.804394	-0.009493
1685	8.4200e-01	3.1558	-1.307250	0.000359	3.593355	0.608731	-0.007184
1686	8.4250e-01	3.1441	-1.357710	0.000505	5.047808	0.855122	-0.010092
1687	8.4300e-01	3.1360	-1.390210	0.000325	3.251130	0.550756	-0.006500
1688	8.4350e-01	3.1238	-1.436821	0.000466	4.662805	0.789901	-0.009322
1689	8.4400e-01	3.1152	-1.482577	0.000458	4.577249	0.775407	-0.009151
1690	8.4450e-01	3.1058	-1.521491	0.000389	3.892801	0.659458	-0.007783
1691	8.4500e-01	3.0963	-1.565536	0.000441	4.406137	0.746420	-0.008809
1692	8.4550e-01	3.0835	-1.600174	0.000347	3.465020	0.586990	-0.006928
1693	8.4600e-01	3.0759	-1.654482	0.000543	5.432810	0.920343	-0.010862
1694	8.4650e-01	3.0666	-1.698955	0.000445	4.448915	0.753667	-0.008895
1695	8.4700e-01	3.0557	-1.729744	0.000308	3.080018	0.521769	-0.006158
1696	8.4750e-01	3.0450	-1.775500	0.000458	4.577249	0.775407	-0.009151
1697	8.4800e-01	3.0396	-1.818690	0.000432	4.320581	0.731926	-0.008638
1698	8.4850e-01	3.0286	-1.863591	0.000449	4.491693	0.760913	-0.008980
1699	8.4900e-01	3.0173	-1.900794	0.000372	3.721689	0.630471	-0.007441
1700	8.4950e-01	3.0064	-1.946123	0.000453	4.534471	0.768160	-0.009066
1701	8.5000e-01	2.9962	-1.987602	0.000415	4.149469	0.702939	-0.008296
1702	8.5050e-01	2.9854	-2.024806	0.000372	3.721689	0.630471	-0.007441
1703	8.5100e-01	2.9755	-2.069279	0.000445	4.448915	0.753667	-0.008895
1704	8.5150e-01	2.9706	-2.114607	0.000453	4.534471	0.768160	-0.009066
1705	8.5200e-01	2.9581	-2.156942	0.000424	4.235025	0.717433	-0.008467
1706	8.5250e-01	2.9437	-2.200132	0.000432	4.320581	0.731926	-0.008638
1707	8.5300e-01	2.9367	-2.236480	0.000364	3.636133	0.615978	-0.007270
1708	8.5350e-01	2.9282	-2.285229	0.000488	4.876695	0.826135	-0.009750
1709	8.5400e-01	2.9181	-2.332696	0.000475	4.748361	0.804394	-0.009493
1710	8.5450e-01	2.9063	-2.372893	0.000402	4.021135	0.681199	-0.008039
1711	8.5500e-01	2.8983	-2.413089	0.000402	4.021135	0.681199	-0.008039
1712	8.5550e-01	2.8854	-2.453714	0.000406	4.063913	0.688445	-0.008125
1713	8.5600e-01	2.8772	-2.506312	0.000526	5.261698	0.891356	-0.010520
1714	8.5650e-01	2.8664	-2.541377	0.000351	3.507798	0.594237	-0.007013
1715	8.5700e-01	2.8569	-2.583712	0.000424	4.235025	0.717433	-0.008467
1716	8.5750e-01	2.8461	-2.632461	0.000488	4.876695	0.826135	-0.009750
1717	8.5800e-01	2.8365	-2.671803	0.000394	3.935579	0.666705	-0.007868
1718	8.5850e-01	2.8254	-2.714565	0.000428	4.277803	0.724679	-0.008553
1719	8.5900e-01	2.8149	-2.762459	0.000479	4.791139	0.811641	-0.009579
1720	8.5950e-01	2.8055	-2.807360	0.000449	4.491693	0.760913	-0.008980
1721	8.6000e-01	2.7943	-2.847129	0.000398	3.978357	0.673952	-0.007954
1722	8.6050e-01	2.7864	-2.897589	0.000505	5.047808	0.855122	-0.010092
1723	8.6100e-01	2.7765	-2.940351	0.000428	4.277803	0.724679	-0.008553
1724	8.6150e-01	2.7676	-2.975417	0.000351	3.507798	0.594237	-0.007013
1725	8.6200e-01	2.7582	-3.022455	0.000471	4.705583	0.797147	-0.009408
1726	8.6250e-01	2.7451	-3.068639	0.000462	4.620027	0.782654	-0.009237
1727	8.6300e-01	2.7377	-3.104987	0.000364	3.636133	0.615978	-0.007270
1728	8.6350e-01	2.7258	-3.155019	0.000501	5.005030	0.847875	-0.010006
1729	8.6400e-01	2.7155	-3.196071	0.000411	4.106691	0.695692	-0.008210
1730	8.6450e-01	2.7054	-3.249524	0.000535	5.347254	0.905849	-0.010691
1731	8.6500e-01	2.6984	-3.286728	0.000372	3.721689	0.630471	-0.007441
1732	8.6550e-01	2.6859	-3.323076	0.000364	3.636133	0.615978	-0.007270
1733	8.6600e-01	2.6779	-3.367977	0.000449	4.491693	0.760913	-0.008980
1734	8.6650e-01	2.6685	-3.410739	0.000428	4.277803	0.724679	-0.008553
1735	8.6700e-01	2.6567	-3.472745	0.000620	6.202814	1.050785	-0.012401
1736	8.6750e-01	2.6480	-3.509093	0.000364	3.636133	0.615978	-0.007270
1737	8.6800e-01	2.6363	-3.548007	0.000389	3.892801	0.659458	-0.007783
1738	8.6850e-01	2.6274	-3.593335	0.000453	4.534471	0.768160	-0.009066
1739	8.6900e-01	2.6157	-3.642512	0.000492	4.919473	0.833381	-0.009835
1740	8.6950e-01	2.6038	-3.670735	0.000282	2.823350	0.478288	-0.005645
1741	8.7000e-01	2.5964	-3.725471	0.000548	5.475588	0.927590	-0.010947
1742	8.7050e-01	2.5851	-3.769517	0.000441	4.406137	0.746420	-0.008809
1743	8.7100e-01	2.5787	-3.814845	0.000453	4.534471	0.768160	-0.009066
1744	8.7150e-01	2.5671	-3.861884	0.000471	4.705583	0.797147	-0.009408
1745	8.7200e-01	2.5546	-3.905929	0.000441	4.406137	0.746420	-0.008809
1746	8.7250e-01	2.5452	-3.944843	0.000389	3.892801	0.659458	-0.007783
1747	8.7300e-01	2.5363	-3.988033	0.000432	4.320581	0.731926	-0.008638
1748	8.7350e-01	2.5261	-4.037210	0.000492	4.919473	0.833381	-0.009835
1749	8.7400e-01	2.5153	-4.076552	0.000394	3.935579	0.666705	-0.007868
1750	8.7450e-01	2.5025	-4.115893	0.000394	3.935579	0.666705	-0.007868
1751	8.7500e-01	2.4958	-4.170629	0.000548	5.475588	0.927590	-0.010947
1752	8.7550e-01	2.4841	-4.214247	0.000436	4.363359	0.739173	-0.008724
1753	8.7600e-01	2.4771	-4.254016	0.000398	3.978357	0.673952	-0.007954
1754	8.7650e-01	2.4684	-4.310035	0.000560	5.603922	0.949330	-0.011204
1755	8.7700e-01	2.4567	-4.348094	0.000381	3.807245	0.644965	-0.007612
1756	8.7750e-01	2.4449	-4.397698	0.000496	4.962251	0.840628	-0.009921
1757	8.7800e-01	2.4359	-4.441316	0.000436	4.363359	0.739173	-0.008724
1758	8.7850e-01	2.4268	-4.480658	0.000394	3.935579	0.666705	-0.007868
1759	8.7900e-01	2.4153	-4.526841	0.000462	4.620027	0.782654	-0.009237
1760	8.7950e-01	2.4051	-4.572597	0.000458	4.577249	0.775407	-0.009151
1761	8.8000e-01	2.3978	-4.627333	0.000548	5.475588	0.927590	-0.010947
1762	8.8050e-01	2.3859	-4.666675	0.000394	3.935579	0.666705	-0.007868
1763	8.8100e-01	2.3779	-4.709437	0.000428	4.277803	0.724679	-0.008553
1764	8.8150e-01	2.3667	-4.748351	0.000389	3.892801	0.659458	-0.007783
1765	8.8200e-01	2.3586	-4.797956	0.000496	4.962251	0.840628	-0.009921
1766	8.8250e-01	2.3463	-4.842856	0.000449	4.491693	0.760913	-0.008980
1767	8.8300e-01	2.3383	-4.889040	0.000462	4.620027	0.782654	-0.009237
1768	8.8350e-01	2.3250	-4.932230	0.000432	4.320581	0.731926	-0.008638
1769	8.8400e-01	2.3158	-4.987394	0.000552	5.518366	0.934836	-0.011033
1770	8.8450e-01	2.3097	-5.039991	0.000526	5.261698	0.891356	-0.010520
1771	8.8500e-01	2.2998	-5.073774	0.000338	3.379464	0.572497	-0.006756
1772	8.8550e-01	2.2888	-5.121240	0.000475	4.748361	0.804394	-0.009493
1773	8.8600e-01	2.2797	-5.169990	0.000488	4.876695	0.826135	-0.009750
1774	8.8650e-01	2.2662	-5.205055	0.000351	3.507798	0.594237	-0.007013
1775	8.8700e-01	2.2533	-5.257225	0.000522	5.218920	0.884109	-0.010434
1776	8.8750e-01	2.2440	-5.305547	0.000483	4.833917	0.818888	-0.009664
1777	8.8800e-01	2.2382	-5.350020	0.000445	4.448915	0.753667	-0.008895
1778	8.8850e-01	2.2272	-5.399624	0.000496	4.962251	0.840628	-0.009921
1779	8.8900e-01	2.2165	-5.444953	0.000453	4.534471	0.768160	-0.009066
1780	8.8950e-01	2.2028	-5.483439	0.000385	3.850023	0.652212	-0.007697
1781	8.9000e-01	2.1977	-5.533043	0.000496	4.962251	0.840628	-0.009921
1782	8.9050e-01	2.1884	-5.586497	0.000535	5.347254	0.905849	-0.010691
1783	8.9100e-01	2.1771	-5.633535	0.000471	4.705583	0.797147	-0.009408
1784	8.9150e-01	2.1661	-5.669028	0.000355	3.550576	0.601484	-0.007099
1785	8.9200e-01	2.1582	-5.714784	0.000458	4.577249	0.775407	-0.009151
1786	8.9250e-01	2.1460	-5.768237	0.000535	5.347254	0.905849	-0.010691
1787	8.9300e-01	2.1338	-5.808006	0.000398	3.978357	0.673952	-0.007954
1788	8.9350e-01	2.1276	-5.860604	0.000526	5.261698	0.891356	-0.010520
1789	8.9400e-01	2.1149	-5.902939	0.000424	4.235025	0.717433	-0.008467
1790	8.9450e-01	2.1038	-5.940998	0.000381	3.807245	0.644965	-0.007612
1791	8.9500e-01	2.0969	-6.008563	0.000676	6.758929	1.144994	-0.013513
1792	8.9550e-01	2.0898	-6.036786	0.000282	2.823350	0.478288	-0.005645
1793	8.9600e-01	2.0776	-6.092377	0.000556	5.561144	0.942083	-0.011118
1794	8.9650e-01	2.0676	-6.138133	0.000458	4.577249	0.775407	-0.009151
1795	8.9700e-01	2.0557	-6.188165	0.000501	5.005030	0.847875	-0.010006
1796	8.9750e-01	2.0480	-6.238625	0.000505	5.047808	0.855122	-0.010092
1797	8.9800e-01	2.0377	-6.278394	0.000398	3.978357	0.673952	-0.007954
1798	8.9850e-01	2.0253	-6.334413	0.000560	5.603922	0.949330	-0.011204
1799	8.9900e-01	2.0164	-6.371617	0.000372	3.721689	0.630471	-0.007441
1800	8.9950e-01	2.0050	-6.427208	0.000556	5.561144	0.942083	-0.011118
1801	9.0000e-01	1.9954	-6.475957	0.000488	4.876695	0.826135	-0.009750
1802	9.0050e-01	1.9861	-6.513588	0.000376	3.764467	0.637718	-0.007526
1803	9.0100e-01	1.9751	-6.564903	0.000513	5.133364	0.869615	-0.010263
1804	9.0150e-01	1.9650	-6.615363	0.000505	5.047808	0.855122	-0.010092
1805	9.0200e-01	1.9546	-6.654277	0.000389	3.892801	0.659458	-0.007783
1806	9.0250e-01	1.9459	-6.706020	0.000518	5.176142	0.876862	-0.010349
1807	9.0300e-01	1.9318	-6.750065	0.000441	4.406137	0.746420	-0.008809
1808	9.0350e-01	1.9257	-6.797531	0.000475	4.748361	0.804394	-0.009493
1809	9.0400e-01	1.9144	-6.844570	0.000471	4.705583	0.797147	-0.009408
1810	9.0450e-01	1.9046	-6.890754	0.000462	4.620027	0.782654	-0.009237
1811	9.0500e-01	1.8945	-6.945490	0.000548	5.475588	0.927590	-0.010947
1812	9.0550e-01	1.8863	-6.992101	0.000466	4.662805	0.789901	-0.009322
1813	9.0600e-01	1.8764	-7.044271	0.000522	5.218920	0.884109	-0.010434
1814	9.0650e-01	1.8677	-7.089599	0.000453	4.534471	0.768160	-0.009066
1815	9.0700e-01	1.8548	-7.125948	0.000364	3.636133	0.615978	-0.007270
1816	9.0750e-01	1.8452	-7.179828	0.000539	5.390032	0.913096	-0.010776
1817	9.0800e-01	1.8387	-7.225584	0.000458	4.577249	0.775407	-0.009151
1818	9.0850e-01	1.8251	-7.280320	0.000548	5.475588	0.927590	-0.010947
1819	9.0900e-01	1.8158	-7.323083	0.000428	4.277803	0.724679	-0.008553
1820	9.0950e-01	1.8079	-7.368411	0.000453	4.534471	0.768160	-0.009066
1821	9.1000e-01	1.7947	-7.420154	0.000518	5.176142	0.876862	-0.010349
1822	9.1050e-01	1.7865	-7.467620	0.000475	4.748361	0.804394	-0.009493
1823	9.1100e-01	1.7747	-7.522784	0.000552	5.518366	0.934836	-0.011033
1824	9.1150e-01	1.7661	-7.568540	0.000458	4.577249	0.775407	-0.009151
1825	9.1200e-01	1.7558	-7.614723	0.000462	4.620027	0.782654	-0.009237
1826	9.1250e-01	1.7458	-7.672880	0.000582	5.817812	0.985564	-0.011631
1827	9.1300e-01	1.7368	-7.707946	0.000351	3.507798	0.594237	-0.007013
1828	9.1350e-01	1.7243	-7.767385	0.000595	5.946146	1.007304	-0.011888
1829	9.1400e-01	1.7184	-7.812714	0.000453	4.534471	0.768160	-0.009066
1830	9.1450e-01	1.7056	-7.859325	0.000466	4.662805	0.789901	-0.009322
1831	9.1500e-01	1.6947	-7.908074	0.000488	4.876695	0.826135	-0.009750
1832	9.1550e-01	1.6855	-7.954685	0.000466	4.662805	0.789901	-0.009322
1833	9.1600e-01	1.6747	-8.003007	0.000483	4.833917	0.818888	-0.009664
1834	9.1650e-01	1.6638	-8.050901	0.000479	4.791139	0.811641	-0.009579
1835	9.1700e-01	1.6571	-8.103499	0.000526	5.261698	0.891356	-0.010520
1836	9.1750e-01	1.6443	-8.150965	0.000475	4.748361	0.804394	-0.009493
1837	9.1800e-01	1.6361	-8.195866	0.000449	4.491693	0.760913	-0.008980
1838	9.1850e-01	1.6261	-8.251457	0.000556	5.561144	0.942083	-0.011118
1839	9.1900e-01	1.6164	-8.291226	0.000398	3.978357	0.673952	-0.007954
1840	9.1950e-01	1.6051	-8.352377	0.000612	6.117258	1.036292	-0.012230
1841	9.2000e-01	1.5959	-8.400699	0.000483	4.833917	0.818888	-0.009664
1842	9.2050e-01	1.5860	-8.449875	0.000492	4.919473	0.833381	-0.009835
1843	9.2100e-01	1.5774	-8.500335	0.000505	5.047808	0.855122	-0.010092
1844	9.2150e-01	1.5650	-8.543098	0.000428	4.277803	0.724679	-0.008553
1845	9.2200e-01	1.5565	-8.592275	0.000492	4.919473	0.833381	-0.009835
1846	9.2250e-01	1.5419	-8.642307	0.000501	5.005030	0.847875	-0.010006
1847	9.2300e-01	1.5367	-8.702602	0.000603	6.031702	1.021798	-0.012059
1848	9.2350e-01	1.5265	-8.743654	0.000411	4.106691	0.695692	-0.008210
1849	9.2400e-01	1.5174	-8.788982	0.000453	4.534471	0.768160	-0.009066
1850	9.2450e-01	1.5103	-8.848422	0.000595	5.946146	1.007304	-0.011888
1851	9.2500e-01	1.4969	-8.891612	0.000432	4.320581	0.731926	-0.008638
1852	9.2550e-01	1.4851	-8.941644	0.000501	5.005030	0.847875	-0.010006
1853	9.2600e-01	1.4752	-8.985262	0.000436	4.363359	0.739173	-0.008724
1854	9.2650e-01	1.4671	-9.041281	0.000560	5.603922	0.949330	-0.011204
1855	9.2700e-01	1.4542	-9.093024	0.000518	5.176142	0.876862	-0.010349
1856	9.2750e-01	1.4478	-9.141773	0.000488	4.876695	0.826135	-0.009750
1857	9.2800e-01	1.4352	-9.202924	0.000612	6.117258	1.036292	-0.012230
1858	9.2850e-01	1.4270	-9.240127	0.000372	3.721689	0.630471	-0.007441
1859	9.2900e-01	1.4175	-9.292725	0.000526	5.261698	0.891356	-0.010520
1860	9.2950e-01	1.4050	-9.348316	0.000556	5.561144	0.942083	-0.011118
1861	9.3000e-01	1.3940	-9.389796	0.000415	4.149469	0.702939	-0.008296
1862	9.3050e-01	1.3843	-9.441966	0.000522	5.218920	0.884109	-0.010434
1863	9.3100e-01	1.3747	-9.489860	0.000479	4.791139	0.811641	-0.009579
1864	9.3150e-01	1.3657	-9.542886	0.000530	5.304476	0.898603	-0.010605
1865	9.3200e-01	1.3550	-9.586931	0.000441	4.406137	0.746420	-0.008809
1866	9.3250e-01	1.3452	-9.644233	0.000573	5.732256	0.971070	-0.011460
1867	9.3300e-01	1.3379	-9.699396	0.000552	5.518366	0.934836	-0.011033
1868	9.3350e-01	1.3271	-9.745152	0.000458	4.577249	0.775407	-0.009151
1869	9.3400e-01	1.3193	-9.799888	0.000548	5.475588	0.927590	-0.010947
1870	9.3450e-01	1.3054	-9.848210	0.000483	4.833917	0.818888	-0.009664
1871	9.3500e-01	1.2973	-9.901236	0.000530	5.304476	0.898603	-0.010605
1872	9.3550e-01	1.2830	-9.947847	0.000466	4.662805	0.789901	-0.009322
1873	9.3600e-01	1.2764	-10.001300	0.000535	5.347254	0.905849	-0.010691
1874	9.3650e-01	1.2655	-10.046628	0.000453	4.534471	0.768160	-0.009066
1875	9.3700e-01	1.2564	-10.109061	0.000625	6.245592	1.058032	-0.012487
1876	9.3750e-01	1.2467	-10.151824	0.000428	4.277803	0.724679	-0.008553
1877	9.3800e-01	1.2377	-10.198008	0.000462	4.620027	0.782654	-0.009237
1878	9.3850e-01	1.2272	-10.250178	0.000522	5.218920	0.884109	-0.010434
1879	9.3900e-01	1.2167	-10.298072	0.000479	4.791139	0.811641	-0.009579
1880	9.3950e-01	1.2052	-10.348104	0.000501	5.005030	0.847875	-0.010006
1881	9.4000e-01	1.1957	-10.407544	0.000595	5.946146	1.007304	-0.011888
1882	9.4050e-01	1.1866	-10.464846	0.000573	5.732256	0.971070	-0.011460
1883	9.4100e-01	1.1761	-10.512740	0.000479	4.791139	0.811641	-0.009579
1884	9.4150e-01	1.1674	-10.563627	0.000509	5.090586	0.862369	-0.010177
1885	9.4200e-01	1.1572	-10.625205	0.000616	6.160036	1.043538	-0.012316
1886	9.4250e-01	1.1490	-10.667968	0.000428	4.277803	0.724679	-0.008553
1887	9.4300e-01	1.1362	-10.711586	0.000436	4.363359	0.739173	-0.008724
1888	9.4350e-01	1.1266	-10.763328	0.000518	5.176142	0.876862	-0.010349
1889	9.4400e-01	1.1152	-10.816781	0.000535	5.347254	0.905849	-0.010691
1890	9.4450e-01	1.1073	-10.865958	0.000492	4.919473	0.833381	-0.009835
1891	9.4500e-01	1.0956	-10.925398	0.000595	5.946146	1.007304	-0.011888
1892	9.4550e-01	1.0858	-10.973292	0.000479	4.791139	0.811641	-0.009579
1893	9.4600e-01	1.0769	-11.026745	0.000535	5.347254	0.905849	-0.010691
1894	9.4650e-01	1.0678	-11.079771	0.000530	5.304476	0.898603	-0.010605
1895	9.4700e-01	1.0551	-11.127237	0.000475	4.748361	0.804394	-0.009493
1896	9.4750e-01	1.0461	-11.178552	0.000513	5.133364	0.869615	-0.010263
1897	9.4800e-01	1.0352	-11.229440	0.000509	5.090586	0.862369	-0.010177
1898	9.4850e-01	1.0236	-11.282893	0.000535	5.347254	0.905849	-0.010691
1899	9.4900e-01	1.0162	-11.339767	0.000569	5.689478	0.963824	-0.011375
1900	9.4950e-01	1.0083	-11.386378	0.000466	4.662805	0.789901	-0.009322
1901	9.5000e-01	0.9962	-11.447529	0.000612	6.117258	1.036292	-0.012230
1902	9.5050e-01	0.9866	-11.497561	0.000501	5.005030	0.847875	-0.010006
1903	9.5100e-01	0.9772	-11.547593	0.000501	5.005030	0.847875	-0.010006
1904	9.5150e-01	0.9650	-11.605322	0.000578	5.775034	0.978317	-0.011546
1905	9.5200e-01	0.9564	-11.654927	0.000496	4.962251	0.840628	-0.009921
1906	9.5250e-01	0.9447	-11.702821	0.000479	4.791139	0.811641	-0.009579
1907	9.5300e-01	0.9365	-11.768248	0.000655	6.545039	1.108760	-0.013085
1908	9.5350e-01	0.9272	-11.814003	0.000458	4.577249	0.775407	-0.009151
1909	9.5400e-01	0.9144	-11.869595	0.000556	5.561144	0.942083	-0.011118
1910	9.5450e-01	0.9057	-11.911930	0.000424	4.235025	0.717433	-0.008467
1911	9.5500e-01	0.8960	-11.968376	0.000565	5.646700	0.956577	-0.011289
1912	9.5550e-01	0.8867	-12.013704	0.000453	4.534471	0.768160	-0.009066
1913	9.5600e-01	0.8759	-12.075710	0.000620	6.202814	1.050785	-0.012401
1914	9.5650e-01	0.8652	-12.125315	0.000496	4.962251	0.840628	-0.009921
1915	9.5700e-01	0.8542	-12.179195	0.000539	5.390032	0.913096	-0.010776
1916	9.5750e-01	0.8453	-12.233504	0.000543	5.432810	0.920343	-0.010862
1917	9.5800e-01	0.8353	-12.291233	0.000578	5.775034	0.978317	-0.011546
1918	9.5850e-01	0.8269	-12.343831	0.000526	5.261698	0.891356	-0.010520
1919	9.5900e-01	0.8194	-12.397712	0.000539	5.390032	0.913096	-0.010776
1920	9.5950e-01	0.8058	-12.446461	0.000488	4.876695	0.826135	-0.009750
1921	9.6000e-01	0.7957	-12.503763	0.000573	5.732256	0.971070	-0.011460
1922	9.6050e-01	0.7850	-12.548236	0.000445	4.448915	0.753667	-0.008895
1923	9.6100e-01	0.7755	-12.614090	0.000659	6.587817	1.116006	-0.013171
1924	9.6150e-01	0.7658	-12.670109	0.000560	5.603922	0.949330	-0.011204
1925	9.6200e-01	0.7571	-12.725273	0.000552	5.518366	0.934836	-0.011033
1926	9.6250e-01	0.7471	-12.774450	0.000492	4.919473	0.833381	-0.009835
1927	9.6300e-01	0.7368	-12.820633	0.000462	4.620027	0.782654	-0.009237
1928	9.6350e-01	0.7263	-12.886060	0.000655	6.545039	1.108760	-0.013085
1929	9.6400e-01	0.7175	-12.934809	0.000488	4.876695	0.826135	-0.009750
1930	9.6450e-01	0.7036	-12.980993	0.000462	4.620027	0.782654	-0.009237
1931	9.6500e-01	0.6950	-13.037439	0.000565	5.646700	0.956577	-0.011289
1932	9.6550e-01	0.6854	-13.098590	0.000612	6.117258	1.036292	-0.012230
1933	9.6600e-01	0.6776	-13.151615	0.000530	5.304476	0.898603	-0.010605
1934	9.6650e-01	0.6647	-13.209345	0.000578	5.775034	0.978317	-0.011546
1935	9.6700e-01	0.6568	-13.258522	0.000492	4.919473	0.833381	-0.009835
1936	9.6750e-01	0.6480	-13.313258	0.000548	5.475588	0.927590	-0.010947
1937	9.6800e-01	0.6407	-13.366711	0.000535	5.347254	0.905849	-0.010691
1938	9.6850e-01	0.6260	-13.421019	0.000543	5.432810	0.920343	-0.010862
1939	9.6900e-01	0.6171	-13.474045	0.000530	5.304476	0.898603	-0.010605
1940	9.6950e-01	0.6046	-13.531347	0.000573	5.732256	0.971070	-0.011460
1941	9.7000e-01	0.5963	-13.582234	0.000509	5.090586	0.862369	-0.010177
1942	9.7050e-01	0.5869	-13.629273	0.000471	4.705583	0.797147	-0.009408
1943	9.7100e-01	0.5796	-13.689996	0.000607	6.074480	1.029045	-0.012145
1944	9.7150e-01	0.5680	-13.749863	0.000599	5.988924	1.014551	-0.011974
1945	9.7200e-01	0.5563	-13.802461	0.000526	5.261698	0.891356	-0.010520
1946	9.7250e-01	0.5466	-13.864039	0.000616	6.160036	1.043538	-0.012316
1947	9.7300e-01	0.5350	-13.920058	0.000560	5.603922	0.949330	-0.011204
1948	9.7350e-01	0.5259	-13.967952	0.000479	4.791139	0.811641	-0.009579
1949	9.7400e-01	0.5141	-14.023116	0.000552	5.518366	0.934836	-0.011033
1950	9.7450e-01	0.5082	-14.084266	0.000612	6.117258	1.036292	-0.012230
1951	9.7500e-01	0.4945	-14.130022	0.000458	4.577249	0.775407	-0.009151
1952	9.7550e-01	0.4860	-14.183475	0.000535	5.347254	0.905849	-0.010691
1953	9.7600e-01	0.4784	-14.241632	0.000582	5.817812	0.985564	-0.011631
1954	9.7650e-01	0.4663	-14.303210	0.000616	6.160036	1.043538	-0.012316
1955	9.7700e-01	0.4530	-14.345973	0.000428	4.277803	0.724679	-0.008553
1956	9.7750e-01	0.4461	-14.404130	0.000582	5.817812	0.985564	-0.011631
1957	9.7800e-01	0.4356	-14.461859	0.000578	5.775034	0.978317	-0.011546
1958	9.7850e-01	0.4245	-14.520444	0.000586	5.860590	0.992811	-0.011717
1959	9.7900e-01	0.4185	-14.578173	0.000578	5.775034	0.978317	-0.011546
1960	9.7950e-01	0.4058	-14.631626	0.000535	5.347254	0.905849	-0.010691
1961	9.8000e-01	0.3925	-14.682086	0.000505	5.047808	0.855122	-0.010092
1962	9.8050e-01	0.3848	-14.747513	0.000655	6.545039	1.108760	-0.013085
1963	9.8100e-01	0.3774	-14.803104	0.000556	5.561144	0.942083	-0.011118
1964	9.8150e-01	0.3670	-14.862116	0.000590	5.903368	1.000058	-0.011802
1965	9.8200e-01	0.3567	-14.907872	0.000458	4.577249	0.775407	-0.009151
1966	9.8250e-01	0.3453	-14.969878	0.000620	6.202814	1.050785	-0.012401
1967	9.8300e-01	0.3355	-15.029318	0.000595	5.946146	1.007304	-0.011888
1968	9.8350e-01	0.3241	-15.077212	0.000479	4.791139	0.811641	-0.009579
1969	9.8400e-01	0.3147	-15.137507	0.000603	6.031702	1.021798	-0.012059
1970	9.8450e-01	0.3039	-15.190105	0.000526	5.261698	0.891356	-0.010520
1971	9.8500e-01	0.2949	-15.238427	0.000483	4.833917	0.818888	-0.009664
1972	9.8550e-01	0.2879	-15.300432	0.000620	6.202814	1.050785	-0.012401
1973	9.8600e-01	0.2770	-15.361155	0.000607	6.074480	1.029045	-0.012145
1974	9.8650e-01	0.2656	-15.411615	0.000505	5.047808	0.855122	-0.010092
1975	9.8700e-01	0.2573	-15.483884	0.000723	7.229487	1.224708	-0.014454
1976	9.8750e-01	0.2466	-15.529639	0.000458	4.577249	0.775407	-0.009151
1977	9.8800e-01	0.2389	-15.589079	0.000595	5.946146	1.007304	-0.011888
1978	9.8850e-01	0.2257	-15.639539	0.000505	5.047808	0.855122	-0.010092
1979	9.8900e-01	0.2154	-15.695986	0.000565	5.646700	0.956577	-0.011289
1980	9.8950e-01	0.2071	-15.750294	0.000543	5.432810	0.920343	-0.010862
1981	9.9000e-01	0.1954	-15.809306	0.000590	5.903368	1.000058	-0.011802
1982	9.9050e-01	0.1859	-15.866181	0.000569	5.689478	0.963824	-0.011375
1983	9.9100e-01	0.1759	-15.923910	0.000578	5.775034	0.978317	-0.011546
1984	9.9150e-01	0.1657	-15.975653	0.000518	5.176142	0.876862	-0.010349
1985	9.9200e-01	0.1555	-16.037658	0.000620	6.202814	1.050785	-0.012401
1986	9.9250e-01	0.1443	-16.094105	0.000565	5.646700	0.956577	-0.011289
1987	9.9300e-01	0.1358	-16.144565	0.000505	5.047808	0.855122	-0.010092
1988	9.9350e-01	0.1274	-16.204860	0.000603	6.031702	1.021798	-0.012059
1989	9.9400e-01	0.1161	-16.263872	0.000590	5.903368	1.000058	-0.011802
1990	9.9450e-01	0.1074	-16.320319	0.000565	5.646700	0.956577	-0.011289
1991	9.9500e-01	0.0951	-16.375910	0.000556	5.561144	0.942083	-0.011118
1992	9.9550e-01	0.0848	-16.431501	0.000556	5.561144	0.942083	-0.011118
1993	9.9600e-01	0.0768	-16.495645	0.000642	6.416705	1.087019	-0.012829
1994	9.9650e-01	0.0697	-16.556368	0.000607	6.074480	1.029045	-0.012145
1995	9.9700e-01	0.0557	-16.608966	0.000526	5.261698	0.891356	-0.010520
1996	9.9750e-01	0.0456	-16.670971	0.000620	6.202814	1.050785	-0.012401
1997	9.9800e-01	0.0343	-16.714589	0.000436	4.363359	0.739173	-0.008724
1998	9.9850e-01	0.0248	-16.777022	0.000625	6.245592	1.058032	-0.012487
1999	9.9900e-01	0.0175	-16.838173	0.000612	6.117258	1.036292	-0.012230
2000	9.9950e-01	0.0056	-16.895902	0.000578	5.775034	0.978317	-0.011546
2001	1.0000e+00	-0.0029	-16.953204	0.000578	5.775034	0.978317	-0.011460

PMax (uC/cm2):	3.95e+01
Pr (uC/cm2):	2.80e+00
-Pr (uC/cm2):	0.00e+00
PLoss (uC/cm2):	0.00e+00
C (Max-Eff) (nF):	3.95e-01
K (Eff):	6.70e+02
Vert. (+/-Pr) Shift (uC/cm2):	1.40e+00
Offset (uC/cm2):	1.97e+01

A (Loop Area - uC/cm2·Volts):	-2.82e-02



Hysteresis Version: 5.48.1 - Radiant Technologies, Inc., 1999 - 9/12/24

