»»»»»»»»»»»»»»»»»»»»»»»»»»»»»»»»»»»» Hysteresis ««««««««««««««««««««««««««««««««««««
»»»  Executed Version:	5.48.1
»»»  Vision Version:	5.48.4 (R)
»»»  Vision Compiled:	9/18/24
»»»  Driver Version:	5.47.0
»»»  Windows Version:	Windows 8 or 8.1
»»»  Processor Information:	x86 (AMD or Intel) - 32 Processors
»»»  Tester Name:	PMF21124-494 (100V)
»»»  Tester S/N:	PMF21124-494
»»»  Internal Amp Type:	100V RevK 270k
»»»  Internal Amp S/N:	iAB2-596/K     
»»»  Execution Count:	1
»»»»»»»»»»»»»»»»»»»»»»»»»»»»»»»»»»»»»»»»»»««««««««««««««««««««««««««««««««««««««««««

Stored:	6/25/2025 - 15:57:9
Configured:	06/25/25 10:44:40 AM
Executed:	06/25/25 03:56:39 PM

»»»»»»»»»»»»»»»»»»»»»»»»»»»»»»»»»»» Sample Info ««««««««««««««««««««««««««««««««««««
Sample Name:	
Lot Name:	
Wafer Name:	
Die Row/Column:	0/0
Capacitor Number:	0
Sample Area (cm2):	1.00e-04
Sample Thickness (microns):	1.50e-01

Amplifier:	Internal

»»»»»»»»»»»»»»»»»»»»»»»»»»»»»»»»»»» Tester Info «««««««««««««««««««««««««««««««««««
Tester Name:	PMF21124-494 (100V)
Tester Serial Number:	PMF21124-494
Return Signal Amp. Level:	1.79 [Index: 2]

»»»»»»»»»»»»»»»»»»»»»»»»»»»»»»»» Hysteresis Info ««««««««««««««««««««««««««««««««««
Task Name:	Hyst-116
Volts:	10.00
Field:	666.67 (kV/cm)
DCBias:	0.00
DCField:	0.00 (kV/cm)
Hysteresis Period (ms):	1.00e+00
Preset:	Enabled
Preset Delay (ms):	1.00e+03
Profile:	Standard Monopolar

»»»»»»»»»»»»»»»»»»»»»»»»»»»»»»»»»»»»»» Data «««««««««««««««««««««««««««««««««««««««
Points:	2001

Valid Data

Point	Time (ms)	Drive Voltage	Measured Polarization (uC/cm2)	Capacitance (uF)	Normalized Capacitance (uF/cm2)	Dielectric Constant	Instantaneous Current (mA)
   1	0.0000e+00	-0.0048	-23.471282	0.000329	3.293142	0.557873	0.006585
   2	5.0000e-04	0.0070	-23.438355	0.000329	3.293142	0.557873	0.006585
   3	1.0000e-03	0.0140	-23.385330	0.000530	5.303241	0.898393	0.010605
   4	1.5000e-03	0.0259	-23.321613	0.000637	6.372443	1.079521	0.012743
   5	2.0000e-03	0.0367	-23.256187	0.000654	6.543515	1.108502	0.013085
   6	2.5000e-03	0.0454	-23.197174	0.000590	5.901994	0.999825	0.011802
   7	3.0000e-03	0.0555	-23.135596	0.000616	6.158603	1.043296	0.012316
   8	3.5000e-03	0.0650	-23.069742	0.000659	6.586283	1.115747	0.013171
   9	4.0000e-03	0.0758	-23.021420	0.000483	4.832792	0.818697	0.009664
  10	4.5000e-03	0.0843	-22.947869	0.000736	7.356109	1.246159	0.014710
  11	5.0000e-03	0.0959	-22.887574	0.000603	6.030299	1.021560	0.012059
  12	5.5000e-03	0.1057	-22.823858	0.000637	6.372443	1.079521	0.012743
  13	6.0000e-03	0.1170	-22.754582	0.000693	6.928428	1.173707	0.013855
  14	6.5000e-03	0.1251	-22.704123	0.000505	5.046633	0.854923	0.010092
  15	7.0000e-03	0.1345	-22.634420	0.000697	6.971196	1.180953	0.013941
  16	7.5000e-03	0.1457	-22.574552	0.000599	5.987530	1.014315	0.011974
  17	8.0000e-03	0.1550	-22.511264	0.000633	6.329675	1.072276	0.012658
  18	8.5000e-03	0.1655	-22.449258	0.000620	6.201371	1.050541	0.012401
  19	9.0000e-03	0.1741	-22.374851	0.000744	7.441645	1.260649	0.014881
  20	9.5000e-03	0.1864	-22.314556	0.000603	6.030299	1.021560	0.012059
  21	1.0000e-02	0.1953	-22.261103	0.000535	5.346009	0.905638	0.010691
  22	1.0500e-02	0.2046	-22.189262	0.000719	7.185037	1.217178	0.014368
  23	1.1000e-02	0.2158	-22.133243	0.000560	5.602618	0.949109	0.011204
  24	1.1500e-02	0.2251	-22.073375	0.000599	5.987530	1.014315	0.011974
  25	1.2000e-02	0.2327	-22.008376	0.000650	6.500747	1.101256	0.013000
  26	1.2500e-02	0.2446	-21.947653	0.000607	6.073067	1.028805	0.012145
  27	1.3000e-02	0.2551	-21.881371	0.000663	6.629052	1.122992	0.013256
  28	1.3500e-02	0.2676	-21.817228	0.000642	6.415211	1.086766	0.012829
  29	1.4000e-02	0.2767	-21.751801	0.000654	6.543515	1.108502	0.013085
  30	1.4500e-02	0.2847	-21.690651	0.000612	6.115835	1.036050	0.012230
  31	1.5000e-02	0.2969	-21.633776	0.000569	5.688154	0.963599	0.011375
  32	1.5500e-02	0.3043	-21.566639	0.000671	6.714588	1.137482	0.013427
  33	1.6000e-02	0.3136	-21.506772	0.000599	5.987530	1.014315	0.011974
  34	1.6500e-02	0.3255	-21.445194	0.000616	6.158603	1.043296	0.012316
  35	1.7000e-02	0.3384	-21.378484	0.000667	6.671820	1.130237	0.013342
  36	1.7500e-02	0.3422	-21.322465	0.000560	5.602618	0.949109	0.011204
  37	1.8000e-02	0.3542	-21.260032	0.000624	6.244139	1.057786	0.012487
  38	1.8500e-02	0.3631	-21.199737	0.000603	6.030299	1.021560	0.012059
  39	1.9000e-02	0.3756	-21.134310	0.000654	6.543515	1.108502	0.013085
  40	1.9500e-02	0.3833	-21.067601	0.000667	6.671820	1.130237	0.013342
  41	2.0000e-02	0.3964	-21.005595	0.000620	6.201371	1.050541	0.012401
  42	2.0500e-02	0.4050	-20.952997	0.000526	5.260473	0.891148	0.010520
  43	2.1000e-02	0.4167	-20.887998	0.000650	6.500747	1.101256	0.013000
  44	2.1500e-02	0.4230	-20.823854	0.000642	6.415211	1.086766	0.012829
  45	2.2000e-02	0.4356	-20.757145	0.000667	6.671820	1.130237	0.013342
  46	2.2500e-02	0.4443	-20.696422	0.000607	6.073067	1.028805	0.012145
  47	2.3000e-02	0.4544	-20.627147	0.000693	6.928428	1.173707	0.013855
  48	2.3500e-02	0.4647	-20.571555	0.000556	5.559850	0.941864	0.011118
  49	2.4000e-02	0.4771	-20.503990	0.000676	6.757356	1.144727	0.013513
  50	2.4500e-02	0.4836	-20.447116	0.000569	5.688154	0.963599	0.011375
  51	2.5000e-02	0.4957	-20.376131	0.000710	7.099500	1.202688	0.014197
  52	2.5500e-02	0.5042	-20.324388	0.000517	5.174937	0.876658	0.010349
  53	2.6000e-02	0.5161	-20.261955	0.000624	6.244139	1.057786	0.012487
  54	2.6500e-02	0.5249	-20.191824	0.000701	7.013964	1.188198	0.014026
  55	2.7000e-02	0.5355	-20.142219	0.000496	4.961097	0.840433	0.009921
  56	2.7500e-02	0.5457	-20.074227	0.000680	6.800124	1.151972	0.013598
  57	2.8000e-02	0.5542	-20.005379	0.000689	6.885660	1.166462	0.013770
  58	2.8500e-02	0.5653	-19.954492	0.000509	5.089401	0.862168	0.010177
  59	2.9000e-02	0.5748	-19.896763	0.000577	5.773690	0.978090	0.011546
  60	2.9500e-02	0.5884	-19.824922	0.000719	7.185037	1.217178	0.014368
  61	3.0000e-02	0.5930	-19.767620	0.000573	5.730922	0.970844	0.011460
  62	3.0500e-02	0.6038	-19.702193	0.000654	6.543515	1.108502	0.013085
  63	3.1000e-02	0.6107	-19.658148	0.000441	4.405112	0.746246	0.008809
  64	3.1500e-02	0.6264	-19.579465	0.000787	7.869326	1.333100	0.015737
  65	3.2000e-02	0.6364	-19.523873	0.000556	5.559850	0.941864	0.011118
  66	3.2500e-02	0.6464	-19.451605	0.000723	7.227805	1.224423	0.014454
  67	3.3000e-02	0.6536	-19.399007	0.000526	5.260473	0.891148	0.010520
  68	3.3500e-02	0.6664	-19.339567	0.000594	5.944762	1.007070	0.011888
  69	3.4000e-02	0.6736	-19.276278	0.000633	6.329675	1.072276	0.012658
  70	3.4500e-02	0.6853	-19.212135	0.000642	6.415211	1.086766	0.012829
  71	3.5000e-02	0.6950	-19.147135	0.000650	6.500747	1.101256	0.013000
  72	3.5500e-02	0.7034	-19.086840	0.000603	6.030299	1.021560	0.012059
  73	3.6000e-02	0.7192	-19.033815	0.000530	5.303241	0.898393	0.010605
  74	3.6500e-02	0.7246	-18.969671	0.000642	6.415211	1.086766	0.012829
  75	3.7000e-02	0.7315	-18.904672	0.000650	6.500747	1.101256	0.013000
  76	3.7500e-02	0.7468	-18.846943	0.000577	5.773690	0.978090	0.011546
  77	3.8000e-02	0.7552	-18.783226	0.000637	6.372443	1.079521	0.012743
  78	3.8500e-02	0.7648	-18.713096	0.000701	7.013964	1.188198	0.014026
  79	3.9000e-02	0.7735	-18.656222	0.000569	5.688154	0.963599	0.011375
  80	3.9500e-02	0.7851	-18.601913	0.000543	5.431545	0.920129	0.010862
  81	4.0000e-02	0.7989	-18.539052	0.000629	6.286907	1.065031	0.012572
  82	4.0500e-02	0.8060	-18.481751	0.000573	5.730922	0.970844	0.011460
  83	4.1000e-02	0.8172	-18.424449	0.000573	5.730922	0.970844	0.011460
  84	4.1500e-02	0.8263	-18.365864	0.000586	5.859226	0.992580	0.011717
  85	4.2000e-02	0.8350	-18.294878	0.000710	7.099500	1.202688	0.014197
  86	4.2500e-02	0.8438	-18.235438	0.000594	5.944762	1.007070	0.011888
  87	4.3000e-02	0.8535	-18.173005	0.000624	6.244139	1.057786	0.012487
  88	4.3500e-02	0.8651	-18.110999	0.000620	6.201371	1.050541	0.012401
  89	4.4000e-02	0.8734	-18.054125	0.000569	5.688154	0.963599	0.011375
  90	4.4500e-02	0.8858	-17.989554	0.000646	6.457979	1.094011	0.012914
  91	4.5000e-02	0.8984	-17.944226	0.000453	4.533416	0.767981	0.009066
  92	4.5500e-02	0.9041	-17.879227	0.000650	6.500747	1.101256	0.013000
  93	4.6000e-02	0.9159	-17.816366	0.000629	6.286907	1.065031	0.012572
  94	4.6500e-02	0.9242	-17.749656	0.000667	6.671820	1.130237	0.013342
  95	4.7000e-02	0.9334	-17.692354	0.000573	5.730922	0.970844	0.011460
  96	4.7500e-02	0.9451	-17.633342	0.000590	5.901994	0.999825	0.011802
  97	4.8000e-02	0.9542	-17.575613	0.000577	5.773690	0.978090	0.011546
  98	4.8500e-02	0.9657	-17.507193	0.000684	6.842892	1.159217	0.013684
  99	4.9000e-02	0.9760	-17.450318	0.000569	5.688154	0.963599	0.011375
 100	4.9500e-02	0.9854	-17.370780	0.000795	7.954862	1.347590	0.015908
 101	5.0000e-02	0.9961	-17.338281	0.000325	3.250374	0.550628	0.006500
 102	5.0500e-02	1.0052	-17.277130	0.000612	6.115835	1.036050	0.012230
 103	5.1000e-02	1.0159	-17.211276	0.000659	6.586283	1.115747	0.013171
 104	5.1500e-02	1.0248	-17.153546	0.000577	5.773690	0.978090	0.011546
 105	5.2000e-02	1.0339	-17.085126	0.000684	6.842892	1.159217	0.013684
 106	5.2500e-02	1.0453	-17.027825	0.000573	5.730922	0.970844	0.011460
 107	5.3000e-02	1.0545	-16.971378	0.000565	5.645386	0.956354	0.011289
 108	5.3500e-02	1.0648	-16.907662	0.000637	6.372443	1.079521	0.012743
 109	5.4000e-02	1.0735	-16.846512	0.000612	6.115835	1.036050	0.012230
 110	5.4500e-02	1.0855	-16.785361	0.000612	6.115835	1.036050	0.012230
 111	5.5000e-02	1.0970	-16.731908	0.000535	5.346009	0.905638	0.010691
 112	5.5500e-02	1.1060	-16.669902	0.000620	6.201371	1.050541	0.012401
 113	5.6000e-02	1.1141	-16.613028	0.000569	5.688154	0.963599	0.011375
 114	5.6500e-02	1.1258	-16.551878	0.000612	6.115835	1.036050	0.012230
 115	5.7000e-02	1.1366	-16.486023	0.000659	6.586283	1.115747	0.013171
 116	5.7500e-02	1.1444	-16.435991	0.000500	5.003865	0.847678	0.010006
 117	5.8000e-02	1.1552	-16.374841	0.000612	6.115835	1.036050	0.012230
 118	5.8500e-02	1.1673	-16.322671	0.000522	5.217705	0.883903	0.010434
 119	5.9000e-02	1.1750	-16.249119	0.000736	7.356109	1.246159	0.014710
 120	5.9500e-02	1.1842	-16.194383	0.000547	5.474314	0.927374	0.010947
 121	6.0000e-02	1.1963	-16.130239	0.000642	6.415211	1.086766	0.012829
 122	6.0500e-02	1.2089	-16.078924	0.000513	5.132169	0.869413	0.010263
 123	6.1000e-02	1.2160	-16.019912	0.000590	5.901994	0.999825	0.011802
 124	6.1500e-02	1.2262	-15.956196	0.000637	6.372443	1.079521	0.012743
 125	6.2000e-02	1.2382	-15.900604	0.000556	5.559850	0.941864	0.011118
 126	6.2500e-02	1.2428	-15.846724	0.000539	5.388777	0.912884	0.010776
 127	6.3000e-02	1.2570	-15.787284	0.000594	5.944762	1.007070	0.011888
 128	6.3500e-02	1.2682	-15.720574	0.000667	6.671820	1.130237	0.013342
 129	6.4000e-02	1.2771	-15.669259	0.000513	5.132169	0.869413	0.010263
 130	6.4500e-02	1.2845	-15.607681	0.000616	6.158603	1.043296	0.012316
 131	6.5000e-02	1.2975	-15.556794	0.000509	5.089401	0.862168	0.010177
 132	6.5500e-02	1.3029	-15.492222	0.000646	6.457979	1.094011	0.012914
 133	6.6000e-02	1.3144	-15.433638	0.000586	5.859226	0.992580	0.011717
 134	6.6500e-02	1.3263	-15.375908	0.000577	5.773690	0.978090	0.011546
 135	6.7000e-02	1.3352	-15.313475	0.000624	6.244139	1.057786	0.012487
 136	6.7500e-02	1.3459	-15.251042	0.000624	6.244139	1.057786	0.012487
 137	6.8000e-02	1.3556	-15.200154	0.000509	5.089401	0.862168	0.010177
 138	6.8500e-02	1.3645	-15.132589	0.000676	6.757356	1.144727	0.013513
 139	6.9000e-02	1.3734	-15.078709	0.000539	5.388777	0.912884	0.010776
 140	6.9500e-02	1.3847	-15.023545	0.000552	5.517082	0.934619	0.011033
 141	7.0000e-02	1.3931	-14.961112	0.000624	6.244139	1.057786	0.012487
 142	7.0500e-02	1.4045	-14.907231	0.000539	5.388777	0.912884	0.010776
 143	7.1000e-02	1.4153	-14.857626	0.000496	4.961097	0.840433	0.009921
 144	7.1500e-02	1.4256	-14.788779	0.000689	6.885660	1.166462	0.013770
 145	7.2000e-02	1.4348	-14.727628	0.000612	6.115835	1.036050	0.012230
 146	7.2500e-02	1.4428	-14.671182	0.000565	5.645386	0.956354	0.011289
 147	7.3000e-02	1.4536	-14.610887	0.000603	6.030299	1.021560	0.012059
 148	7.3500e-02	1.4659	-14.567269	0.000436	4.362344	0.739001	0.008724
 149	7.4000e-02	1.4750	-14.505691	0.000616	6.158603	1.043296	0.012316
 150	7.4500e-02	1.4847	-14.435988	0.000697	6.971196	1.180953	0.013941
 151	7.5000e-02	1.4942	-14.381252	0.000547	5.474314	0.927374	0.010947
 152	7.5500e-02	1.5060	-14.331220	0.000500	5.003865	0.847678	0.010006
 153	7.6000e-02	1.5168	-14.263655	0.000676	6.757356	1.144727	0.013513
 154	7.6500e-02	1.5186	-14.218754	0.000449	4.490648	0.760736	0.008980
 155	7.7000e-02	1.5376	-14.147768	0.000710	7.099500	1.202688	0.014197
 156	7.7500e-02	1.5443	-14.093460	0.000543	5.431545	0.920129	0.010862
 157	7.8000e-02	1.5547	-14.037441	0.000560	5.602618	0.949109	0.011204
 158	7.8500e-02	1.5665	-13.978429	0.000590	5.901994	0.999825	0.011802
 159	7.9000e-02	1.5747	-13.918134	0.000603	6.030299	1.021560	0.012059
 160	7.9500e-02	1.5863	-13.862970	0.000552	5.517082	0.934619	0.011033
 161	8.0000e-02	1.5964	-13.803958	0.000590	5.901994	0.999825	0.011802
 162	8.0500e-02	1.6055	-13.745801	0.000582	5.816458	0.985335	0.011631
 163	8.1000e-02	1.6166	-13.686788	0.000590	5.901994	0.999825	0.011802
 164	8.1500e-02	1.6249	-13.628631	0.000582	5.816458	0.985335	0.011631
 165	8.2000e-02	1.6373	-13.582020	0.000466	4.661720	0.789717	0.009322
 166	8.2500e-02	1.6467	-13.514455	0.000676	6.757356	1.144727	0.013513
 167	8.3000e-02	1.6544	-13.466989	0.000475	4.747256	0.804207	0.009493
 168	8.3500e-02	1.6643	-13.400279	0.000667	6.671820	1.130237	0.013342
 169	8.4000e-02	1.6755	-13.349820	0.000505	5.046633	0.854923	0.010092
 170	8.4500e-02	1.6852	-13.290807	0.000590	5.901994	0.999825	0.011802
 171	8.5000e-02	1.6956	-13.233506	0.000573	5.730922	0.970844	0.011460
 172	8.5500e-02	1.7038	-13.174066	0.000594	5.944762	1.007070	0.011888
 173	8.6000e-02	1.7149	-13.124033	0.000500	5.003865	0.847678	0.010006
 174	8.6500e-02	1.7223	-13.055186	0.000689	6.885660	1.166462	0.013770
 175	8.7000e-02	1.7376	-13.005154	0.000500	5.003865	0.847678	0.010006
 176	8.7500e-02	1.7429	-12.947852	0.000573	5.730922	0.970844	0.011460
 177	8.8000e-02	1.7545	-12.899530	0.000483	4.832792	0.818697	0.009664
 178	8.8500e-02	1.7641	-12.831110	0.000684	6.842892	1.159217	0.013684
 179	8.9000e-02	1.7762	-12.776802	0.000543	5.431545	0.920129	0.010862
 180	8.9500e-02	1.7896	-12.721210	0.000556	5.559850	0.941864	0.011118
 181	9.0000e-02	1.7944	-12.660060	0.000612	6.115835	1.036050	0.012230
 182	9.0500e-02	1.8074	-12.612166	0.000479	4.790024	0.811452	0.009579
 183	9.1000e-02	1.8136	-12.547595	0.000646	6.457979	1.094011	0.012914
 184	9.1500e-02	1.8259	-12.506115	0.000415	4.148503	0.702775	0.008296
 185	9.2000e-02	1.8361	-12.439833	0.000663	6.629052	1.122992	0.013256
 186	9.2500e-02	1.8446	-12.376545	0.000633	6.329675	1.072276	0.012658
 187	9.3000e-02	1.8581	-12.332499	0.000441	4.405112	0.746246	0.008809
 188	9.3500e-02	1.8665	-12.266217	0.000663	6.629052	1.122992	0.013256
 189	9.4000e-02	1.8765	-12.208488	0.000577	5.773690	0.978090	0.011546
 190	9.4500e-02	1.8840	-12.161021	0.000475	4.747256	0.804207	0.009493
 191	9.5000e-02	1.8964	-12.102009	0.000590	5.901994	0.999825	0.011802
 192	9.5500e-02	1.9053	-12.046845	0.000552	5.517082	0.934619	0.011033
 193	9.6000e-02	1.9131	-11.982702	0.000642	6.415211	1.086766	0.012829
 194	9.6500e-02	1.9249	-11.936518	0.000462	4.618952	0.782472	0.009237
 195	9.7000e-02	1.9348	-11.886486	0.000500	5.003865	0.847678	0.010006
 196	9.7500e-02	1.9427	-11.812934	0.000736	7.356109	1.246159	0.014710
 197	9.8000e-02	1.9563	-11.765468	0.000475	4.747256	0.804207	0.009493
 198	9.8500e-02	1.9653	-11.716719	0.000488	4.875560	0.825942	0.009750
 199	9.9000e-02	1.9742	-11.648299	0.000684	6.842892	1.159217	0.013684
 200	9.9500e-02	1.9848	-11.601260	0.000470	4.704488	0.796962	0.009408
 201	1.0000e-01	1.9934	-11.537116	0.000642	6.415211	1.086766	0.012829
 202	1.0050e-01	2.0061	-11.493071	0.000441	4.405112	0.746246	0.008809
 203	1.0100e-01	2.0148	-11.432348	0.000607	6.073067	1.028805	0.012145
 204	1.0150e-01	2.0244	-11.369915	0.000624	6.244139	1.057786	0.012487
 205	1.0200e-01	2.0370	-11.319882	0.000500	5.003865	0.847678	0.010006
 206	1.0250e-01	2.0443	-11.271133	0.000488	4.875560	0.825942	0.009750
 207	1.0300e-01	2.0557	-11.211693	0.000594	5.944762	1.007070	0.011888
 208	1.0350e-01	2.0642	-11.153964	0.000577	5.773690	0.978090	0.011546
 209	1.0400e-01	2.0747	-11.098800	0.000552	5.517082	0.934619	0.011033
 210	1.0450e-01	2.0886	-11.042781	0.000560	5.602618	0.949109	0.011204
 211	1.0500e-01	2.0966	-10.991894	0.000509	5.089401	0.862168	0.010177
 212	1.0550e-01	2.1065	-10.928605	0.000633	6.329675	1.072276	0.012658
 213	1.0600e-01	2.1139	-10.877718	0.000509	5.089401	0.862168	0.010177
 214	1.0650e-01	2.1281	-10.826403	0.000513	5.132169	0.869413	0.010263
 215	1.0700e-01	2.1368	-10.771239	0.000552	5.517082	0.934619	0.011033
 216	1.0750e-01	2.1488	-10.717358	0.000539	5.388777	0.912884	0.010776
 217	1.0800e-01	2.1564	-10.656208	0.000612	6.115835	1.036050	0.012230
 218	1.0850e-01	2.1644	-10.602327	0.000539	5.388777	0.912884	0.010776
 219	1.0900e-01	2.1768	-10.545881	0.000565	5.645386	0.956354	0.011289
 220	1.0950e-01	2.1864	-10.492000	0.000539	5.388777	0.912884	0.010776
 221	1.1000e-01	2.1954	-10.441113	0.000509	5.089401	0.862168	0.010177
 222	1.1050e-01	2.2055	-10.370127	0.000710	7.099500	1.202688	0.014197
 223	1.1100e-01	2.2153	-10.323943	0.000462	4.618952	0.782472	0.009237
 224	1.1150e-01	2.2244	-10.271773	0.000522	5.217705	0.883903	0.010434
 225	1.1200e-01	2.2359	-10.218320	0.000535	5.346009	0.905638	0.010691
 226	1.1250e-01	2.2443	-10.168715	0.000496	4.961097	0.840433	0.009921
 227	1.1300e-01	2.2620	-10.103716	0.000650	6.500747	1.101256	0.013000
 228	1.1350e-01	2.2665	-10.052829	0.000509	5.089401	0.862168	0.010177
 229	1.1400e-01	2.2776	-9.999376	0.000535	5.346009	0.905638	0.010691
 230	1.1450e-01	2.2849	-9.952337	0.000470	4.704488	0.796962	0.009408
 231	1.1500e-01	2.2974	-9.889904	0.000624	6.244139	1.057786	0.012487
 232	1.1550e-01	2.3065	-9.827043	0.000629	6.286907	1.065031	0.012572
 233	1.1600e-01	2.3146	-9.781287	0.000458	4.576184	0.775227	0.009151
 234	1.1650e-01	2.3270	-9.722274	0.000590	5.901994	0.999825	0.011802
 235	1.1700e-01	2.3364	-9.669677	0.000526	5.260473	0.891148	0.010520
 236	1.1750e-01	2.3456	-9.620072	0.000496	4.961097	0.840433	0.009921
 237	1.1800e-01	2.3556	-9.562343	0.000577	5.773690	0.978090	0.011546
 238	1.1850e-01	2.3710	-9.509745	0.000526	5.260473	0.891148	0.010520
 239	1.1900e-01	2.3779	-9.448167	0.000616	6.158603	1.043296	0.012316
 240	1.1950e-01	2.3845	-9.399417	0.000488	4.875560	0.825942	0.009750
 241	1.2000e-01	2.3975	-9.346819	0.000526	5.260473	0.891148	0.010520
 242	1.2050e-01	2.4062	-9.295932	0.000509	5.089401	0.862168	0.010177
 243	1.2100e-01	2.4177	-9.235209	0.000607	6.073067	1.028805	0.012145
 244	1.2150e-01	2.4265	-9.177052	0.000582	5.816458	0.985335	0.011631
 245	1.2200e-01	2.4336	-9.133007	0.000441	4.405112	0.746246	0.008809
 246	1.2250e-01	2.4417	-9.092810	0.000402	4.020199	0.681040	0.008039
 247	1.2300e-01	2.4594	-9.017548	0.000753	7.527181	1.275139	0.015052
 248	1.2350e-01	2.4664	-8.967943	0.000496	4.961097	0.840433	0.009921
 249	1.2400e-01	2.4770	-8.914918	0.000530	5.303241	0.898393	0.010605
 250	1.2450e-01	2.4873	-8.863175	0.000517	5.174937	0.876658	0.010349
 251	1.2500e-01	2.4963	-8.802025	0.000612	6.115835	1.036050	0.012230
 252	1.2550e-01	2.5052	-8.754558	0.000475	4.747256	0.804207	0.009493
 253	1.2600e-01	2.5153	-8.695546	0.000590	5.901994	0.999825	0.011802
 254	1.2650e-01	2.5275	-8.632258	0.000633	6.329675	1.072276	0.012658
 255	1.2700e-01	2.5357	-8.598903	0.000334	3.335910	0.565118	0.006671
 256	1.2750e-01	2.5427	-8.539463	0.000594	5.944762	1.007070	0.011888
 257	1.2800e-01	2.5537	-8.483016	0.000565	5.645386	0.956354	0.011289
 258	1.2850e-01	2.5654	-8.430418	0.000526	5.260473	0.891148	0.010520
 259	1.2900e-01	2.5761	-8.382524	0.000479	4.790024	0.811452	0.009579
 260	1.2950e-01	2.5853	-8.326933	0.000556	5.559850	0.941864	0.011118
 261	1.3000e-01	2.5970	-8.270059	0.000569	5.688154	0.963599	0.011375
 262	1.3050e-01	2.6075	-8.225586	0.000445	4.447880	0.753491	0.008895
 263	1.3100e-01	2.6178	-8.165718	0.000599	5.987530	1.014315	0.011974
 264	1.3150e-01	2.6246	-8.111410	0.000543	5.431545	0.920129	0.010862
 265	1.3200e-01	2.6352	-8.061378	0.000500	5.003865	0.847678	0.010006
 266	1.3250e-01	2.6454	-8.004931	0.000565	5.645386	0.956354	0.011289
 267	1.3300e-01	2.6544	-7.965162	0.000398	3.977431	0.673795	0.007954
 268	1.3350e-01	2.6640	-7.901018	0.000642	6.415211	1.086766	0.012829
 269	1.3400e-01	2.6776	-7.851414	0.000496	4.961097	0.840433	0.009921
 270	1.3450e-01	2.6843	-7.791974	0.000594	5.944762	1.007070	0.011888
 271	1.3500e-01	2.6964	-7.744080	0.000479	4.790024	0.811452	0.009579
 272	1.3550e-01	2.7063	-7.694903	0.000492	4.918329	0.833187	0.009835
 273	1.3600e-01	2.7168	-7.637601	0.000573	5.730922	0.970844	0.011460
 274	1.3650e-01	2.7242	-7.579872	0.000577	5.773690	0.978090	0.011546
 275	1.3700e-01	2.7322	-7.523853	0.000560	5.602618	0.949109	0.011204
 276	1.3750e-01	2.7451	-7.478952	0.000449	4.490648	0.760736	0.008980
 277	1.3800e-01	2.7576	-7.431058	0.000479	4.790024	0.811452	0.009579
 278	1.3850e-01	2.7672	-7.379743	0.000513	5.132169	0.869413	0.010263
 279	1.3900e-01	2.7753	-7.321159	0.000586	5.859226	0.992580	0.011717
 280	1.3950e-01	2.7863	-7.269843	0.000513	5.132169	0.869413	0.010263
 281	1.4000e-01	2.7981	-7.209121	0.000607	6.073067	1.028805	0.012145
 282	1.4050e-01	2.8033	-7.163792	0.000453	4.533416	0.767981	0.009066
 283	1.4100e-01	2.8180	-7.110339	0.000535	5.346009	0.905638	0.010691
 284	1.4150e-01	2.8265	-7.062873	0.000475	4.747256	0.804207	0.009493
 285	1.4200e-01	2.8369	-7.003433	0.000594	5.944762	1.007070	0.011888
 286	1.4250e-01	2.8464	-6.961098	0.000423	4.234039	0.717266	0.008467
 287	1.4300e-01	2.8555	-6.900375	0.000607	6.073067	1.028805	0.012145
 288	1.4350e-01	2.8676	-6.846494	0.000539	5.388777	0.912884	0.010776
 289	1.4400e-01	2.8766	-6.806725	0.000398	3.977431	0.673795	0.007954
 290	1.4450e-01	2.8864	-6.749851	0.000569	5.688154	0.963599	0.011375
 291	1.4500e-01	2.8961	-6.695115	0.000547	5.474314	0.927374	0.010947
 292	1.4550e-01	2.9044	-6.636958	0.000582	5.816458	0.985335	0.011631
 293	1.4600e-01	2.9160	-6.585215	0.000517	5.174937	0.876658	0.010349
 294	1.4650e-01	2.9236	-6.539460	0.000458	4.576184	0.775227	0.009151
 295	1.4700e-01	2.9348	-6.482585	0.000569	5.688154	0.963599	0.011375
 296	1.4750e-01	2.9431	-6.435974	0.000466	4.661720	0.789717	0.009322
 297	1.4800e-01	2.9543	-6.377390	0.000586	5.859226	0.992580	0.011717
 298	1.4850e-01	2.9675	-6.334199	0.000432	4.319576	0.731756	0.008638
 299	1.4900e-01	2.9774	-6.289726	0.000445	4.447880	0.753491	0.008895
 300	1.4950e-01	2.9872	-6.227293	0.000624	6.244139	1.057786	0.012487
 301	1.5000e-01	2.9956	-6.170419	0.000569	5.688154	0.963599	0.011375
 302	1.5050e-01	3.0060	-6.118249	0.000522	5.217705	0.883903	0.010434
 303	1.5100e-01	3.0164	-6.073776	0.000445	4.447880	0.753491	0.008895
 304	1.5150e-01	3.0276	-6.029730	0.000441	4.405112	0.746246	0.008809
 305	1.5200e-01	3.0367	-5.964731	0.000650	6.500747	1.101256	0.013000
 306	1.5250e-01	3.0477	-5.913416	0.000513	5.132169	0.869413	0.010263
 307	1.5300e-01	3.0562	-5.870654	0.000428	4.276807	0.724511	0.008553
 308	1.5350e-01	3.0674	-5.812924	0.000577	5.773690	0.978090	0.011546
 309	1.5400e-01	3.0786	-5.762037	0.000509	5.089401	0.862168	0.010177
 310	1.5450e-01	3.0848	-5.706445	0.000556	5.559850	0.941864	0.011118
 311	1.5500e-01	3.0948	-5.660262	0.000462	4.618952	0.782472	0.009237
 312	1.5550e-01	3.1049	-5.609375	0.000509	5.089401	0.862168	0.010177
 313	1.5600e-01	3.1155	-5.559770	0.000496	4.961097	0.840433	0.009921
 314	1.5650e-01	3.1273	-5.511448	0.000483	4.832792	0.818697	0.009664
 315	1.5700e-01	3.1370	-5.459278	0.000522	5.217705	0.883903	0.010434
 316	1.5750e-01	3.1454	-5.405397	0.000539	5.388777	0.912884	0.010776
 317	1.5800e-01	3.1577	-5.351089	0.000543	5.431545	0.920129	0.010862
 318	1.5850e-01	3.1691	-5.297208	0.000539	5.388777	0.912884	0.010776
 319	1.5900e-01	3.1752	-5.248886	0.000483	4.832792	0.818697	0.009664
 320	1.5950e-01	3.1874	-5.207834	0.000411	4.105735	0.695530	0.008210
 321	1.6000e-01	3.1952	-5.153954	0.000539	5.388777	0.912884	0.010776
 322	1.6050e-01	3.2050	-5.096652	0.000573	5.730922	0.970844	0.011460
 323	1.6100e-01	3.2172	-5.050896	0.000458	4.576184	0.775227	0.009151
 324	1.6150e-01	3.2272	-4.999153	0.000517	5.174937	0.876658	0.010349
 325	1.6200e-01	3.2380	-4.953397	0.000458	4.576184	0.775227	0.009151
 326	1.6250e-01	3.2475	-4.897378	0.000560	5.602618	0.949109	0.011204
 327	1.6300e-01	3.2544	-4.842215	0.000552	5.517082	0.934619	0.011033
 328	1.6350e-01	3.2662	-4.801163	0.000411	4.105735	0.695530	0.008210
 329	1.6400e-01	3.2776	-4.736164	0.000650	6.500747	1.101256	0.013000
 330	1.6450e-01	3.2869	-4.699388	0.000368	3.678054	0.623079	0.007355
 331	1.6500e-01	3.2947	-4.641659	0.000577	5.773690	0.978090	0.011546
 332	1.6550e-01	3.3061	-4.598468	0.000432	4.319576	0.731756	0.008638
 333	1.6600e-01	3.3168	-4.546726	0.000517	5.174937	0.876658	0.010349
 334	1.6650e-01	3.3276	-4.492845	0.000539	5.388777	0.912884	0.010776
 335	1.6700e-01	3.3369	-4.437254	0.000556	5.559850	0.941864	0.011118
 336	1.6750e-01	3.3437	-4.398340	0.000389	3.891895	0.659305	0.007783
 337	1.6800e-01	3.3536	-4.340610	0.000577	5.773690	0.978090	0.011546
 338	1.6850e-01	3.3612	-4.304262	0.000364	3.635286	0.615834	0.007270
 339	1.6900e-01	3.3757	-4.242257	0.000620	6.201371	1.050541	0.012401
 340	1.6950e-01	3.3862	-4.193507	0.000488	4.875560	0.825942	0.009750
 341	1.7000e-01	3.3972	-4.144758	0.000488	4.875560	0.825942	0.009750
 342	1.7050e-01	3.4058	-4.093443	0.000513	5.132169	0.869413	0.010263
 343	1.7100e-01	3.4140	-4.039990	0.000535	5.346009	0.905638	0.010691
 344	1.7150e-01	3.4265	-3.987392	0.000526	5.260473	0.891148	0.010520
 345	1.7200e-01	3.4384	-3.947195	0.000402	4.020199	0.681040	0.008039
 346	1.7250e-01	3.4471	-3.890749	0.000565	5.645386	0.956354	0.011289
 347	1.7300e-01	3.4561	-3.843282	0.000475	4.747256	0.804207	0.009493
 348	1.7350e-01	3.4671	-3.781704	0.000616	6.158603	1.043296	0.012316
 349	1.7400e-01	3.4775	-3.745356	0.000364	3.635286	0.615834	0.007270
 350	1.7450e-01	3.4827	-3.686344	0.000590	5.901994	0.999825	0.011802
 351	1.7500e-01	3.4958	-3.642298	0.000441	4.405112	0.746246	0.008809
 352	1.7550e-01	3.5059	-3.593549	0.000488	4.875560	0.825942	0.009750
 353	1.7600e-01	3.5168	-3.547365	0.000462	4.618952	0.782472	0.009237
 354	1.7650e-01	3.5254	-3.486215	0.000612	6.115835	1.036050	0.012230
 355	1.7700e-01	3.5358	-3.439176	0.000470	4.704488	0.796962	0.009408
 356	1.7750e-01	3.5449	-3.391710	0.000475	4.747256	0.804207	0.009493
 357	1.7800e-01	3.5583	-3.347237	0.000445	4.447880	0.753491	0.008895
 358	1.7850e-01	3.5666	-3.307040	0.000402	4.020199	0.681040	0.008039
 359	1.7900e-01	3.5786	-3.243752	0.000633	6.329675	1.072276	0.012658
 360	1.7950e-01	3.5851	-3.193292	0.000505	5.046633	0.854923	0.010092
 361	1.8000e-01	3.5938	-3.148819	0.000445	4.447880	0.753491	0.008895
 362	1.8050e-01	3.6078	-3.097504	0.000513	5.132169	0.869413	0.010263
 363	1.8100e-01	3.6139	-3.047472	0.000500	5.003865	0.847678	0.010006
 364	1.8150e-01	3.6267	-2.998722	0.000488	4.875560	0.825942	0.009750
 365	1.8200e-01	3.6337	-2.956387	0.000423	4.234039	0.717266	0.008467
 366	1.8250e-01	3.6450	-2.910631	0.000458	4.576184	0.775227	0.009151
 367	1.8300e-01	3.6578	-2.844777	0.000659	6.586283	1.115747	0.013171
 368	1.8350e-01	3.6652	-2.809712	0.000351	3.506982	0.594099	0.007013
 369	1.8400e-01	3.6761	-2.751555	0.000582	5.816458	0.985335	0.011631
 370	1.8450e-01	3.6871	-2.713924	0.000376	3.763591	0.637569	0.007526
 371	1.8500e-01	3.6966	-2.648925	0.000650	6.500747	1.101256	0.013000
 372	1.8550e-01	3.7042	-2.607017	0.000419	4.191271	0.710021	0.008381
 373	1.8600e-01	3.7164	-2.541163	0.000659	6.586283	1.115747	0.013171
 374	1.8650e-01	3.7289	-2.511657	0.000295	2.950997	0.499912	0.005901
 375	1.8700e-01	3.7357	-2.459059	0.000526	5.260473	0.891148	0.010520
 376	1.8750e-01	3.7466	-2.406034	0.000530	5.303241	0.898393	0.010605
 377	1.8800e-01	3.7555	-2.373962	0.000321	3.207606	0.543383	0.006414
 378	1.8850e-01	3.7678	-2.314949	0.000590	5.901994	0.999825	0.011802
 379	1.8900e-01	3.7762	-2.266200	0.000488	4.875560	0.825942	0.009750
 380	1.8950e-01	3.7885	-2.223438	0.000428	4.276807	0.724511	0.008553
 381	1.9000e-01	3.7949	-2.165281	0.000582	5.816458	0.985335	0.011631
 382	1.9050e-01	3.8051	-2.122090	0.000432	4.319576	0.731756	0.008638
 383	1.9100e-01	3.8141	-2.075052	0.000470	4.704488	0.796962	0.009408
 384	1.9150e-01	3.8251	-2.023309	0.000517	5.174937	0.876658	0.010349
 385	1.9200e-01	3.8354	-1.979264	0.000441	4.405112	0.746246	0.008809
 386	1.9250e-01	3.8434	-1.928376	0.000509	5.089401	0.862168	0.010177
 387	1.9300e-01	3.8556	-1.883903	0.000445	4.447880	0.753491	0.008895
 388	1.9350e-01	3.8654	-1.830022	0.000539	5.388777	0.912884	0.010776
 389	1.9400e-01	3.8752	-1.785122	0.000449	4.490648	0.760736	0.008980
 390	1.9450e-01	3.8844	-1.735517	0.000496	4.961097	0.840433	0.009921
 391	1.9500e-01	3.8969	-1.684630	0.000509	5.089401	0.862168	0.010177
 392	1.9550e-01	3.9075	-1.642295	0.000423	4.234039	0.717266	0.008467
 393	1.9600e-01	3.9160	-1.591407	0.000509	5.089401	0.862168	0.010177
 394	1.9650e-01	3.9278	-1.543086	0.000483	4.832792	0.818697	0.009664
 395	1.9700e-01	3.9349	-1.497758	0.000453	4.533416	0.767981	0.009066
 396	1.9750e-01	3.9471	-1.455423	0.000423	4.234039	0.717266	0.008467
 397	1.9800e-01	3.9561	-1.408384	0.000470	4.704488	0.796962	0.009408
 398	1.9850e-01	3.9664	-1.339109	0.000693	6.928428	1.173707	0.013855
 399	1.9900e-01	3.9761	-1.313023	0.000261	2.608853	0.441952	0.005217
 400	1.9950e-01	3.9868	-1.256577	0.000565	5.645386	0.956354	0.011289
 401	2.0000e-01	3.9980	-1.204834	0.000517	5.174937	0.876658	0.010349
 402	2.0050e-01	4.0100	-1.157368	0.000475	4.747256	0.804207	0.009493
 403	2.0100e-01	4.0156	-1.117171	0.000402	4.020199	0.681040	0.008039
 404	2.0150e-01	4.0259	-1.067994	0.000492	4.918329	0.833187	0.009835
 405	2.0200e-01	4.0369	-1.014113	0.000539	5.388777	0.912884	0.010776
 406	2.0250e-01	4.0473	-0.969213	0.000449	4.490648	0.760736	0.008980
 407	2.0300e-01	4.0577	-0.917898	0.000513	5.132169	0.869413	0.010263
 408	2.0350e-01	4.0668	-0.870859	0.000470	4.704488	0.796962	0.009408
 409	2.0400e-01	4.0747	-0.828524	0.000423	4.234039	0.717266	0.008467
 410	2.0450e-01	4.0877	-0.771650	0.000569	5.688154	0.963599	0.011375
 411	2.0500e-01	4.0988	-0.735302	0.000364	3.635286	0.615834	0.007270
 412	2.0550e-01	4.1074	-0.682276	0.000530	5.303241	0.898393	0.010605
 413	2.0600e-01	4.1150	-0.639086	0.000432	4.319576	0.731756	0.008638
 414	2.0650e-01	4.1269	-0.594185	0.000449	4.490648	0.760736	0.008980
 415	2.0700e-01	4.1358	-0.538594	0.000556	5.559850	0.941864	0.011118
 416	2.0750e-01	4.1458	-0.496259	0.000423	4.234039	0.717266	0.008467
 417	2.0800e-01	4.1573	-0.442378	0.000539	5.388777	0.912884	0.010776
 418	2.0850e-01	4.1645	-0.401754	0.000406	4.062967	0.688285	0.008125
 419	2.0900e-01	4.1769	-0.348728	0.000530	5.303241	0.898393	0.010605
 420	2.0950e-01	4.1861	-0.305966	0.000428	4.276807	0.724511	0.008553
 421	2.1000e-01	4.1956	-0.257217	0.000488	4.875560	0.825942	0.009750
 422	2.1050e-01	4.2065	-0.205046	0.000522	5.217705	0.883903	0.010434
 423	2.1100e-01	4.2181	-0.160573	0.000445	4.447880	0.753491	0.008895
 424	2.1150e-01	4.2256	-0.117811	0.000428	4.276807	0.724511	0.008553
 425	2.1200e-01	4.2395	-0.072482	0.000453	4.533416	0.767981	0.009066
 426	2.1250e-01	4.2453	-0.028009	0.000445	4.447880	0.753491	0.008895
 427	2.1300e-01	4.2554	0.027582	0.000556	5.559850	0.941864	0.011118
 428	2.1350e-01	4.2654	0.065640	0.000381	3.806359	0.644815	0.007612
 429	2.1400e-01	4.2753	0.120377	0.000547	5.474314	0.927374	0.010947
 430	2.1450e-01	4.2886	0.174685	0.000543	5.431545	0.920129	0.010862
 431	2.1500e-01	4.2972	0.212316	0.000376	3.763591	0.637569	0.007526
 432	2.1550e-01	4.3094	0.253368	0.000411	4.105735	0.695530	0.008210
 433	2.1600e-01	4.3130	0.304683	0.000513	5.132169	0.869413	0.010263
 434	2.1650e-01	4.3253	0.363268	0.000586	5.859226	0.992580	0.011717
 435	2.1700e-01	4.3356	0.397905	0.000346	3.464214	0.586854	0.006928
 436	2.1750e-01	4.3451	0.450503	0.000526	5.260473	0.891148	0.010520
 437	2.1800e-01	4.3549	0.496259	0.000458	4.576184	0.775227	0.009151
 438	2.1850e-01	4.3652	0.539449	0.000432	4.319576	0.731756	0.008638
 439	2.1900e-01	4.3750	0.586916	0.000475	4.747256	0.804207	0.009493
 440	2.1950e-01	4.3878	0.625830	0.000389	3.891895	0.659305	0.007783
 441	2.2000e-01	4.3964	0.678000	0.000522	5.217705	0.883903	0.010434
 442	2.2050e-01	4.4064	0.731453	0.000535	5.346009	0.905638	0.010691
 443	2.2100e-01	4.4168	0.763525	0.000321	3.207606	0.543383	0.006414
 444	2.2150e-01	4.4281	0.813129	0.000496	4.961097	0.840433	0.009921
 445	2.2200e-01	4.4360	0.854609	0.000415	4.148503	0.702775	0.008296
 446	2.2250e-01	4.4452	0.908490	0.000539	5.388777	0.912884	0.010776
 447	2.2300e-01	4.4556	0.950397	0.000419	4.191271	0.710021	0.008381
 448	2.2350e-01	4.4669	0.998291	0.000479	4.790024	0.811452	0.009579
 449	2.2400e-01	4.4800	1.045758	0.000475	4.747256	0.804207	0.009493
 450	2.2450e-01	4.4849	1.096645	0.000509	5.089401	0.862168	0.010177
 451	2.2500e-01	4.4968	1.134276	0.000376	3.763591	0.637569	0.007526
 452	2.2550e-01	4.5074	1.180887	0.000466	4.661720	0.789717	0.009322
 453	2.2600e-01	4.5160	1.225788	0.000449	4.490648	0.760736	0.008980
 454	2.2650e-01	4.5259	1.280096	0.000543	5.431545	0.920129	0.010862
 455	2.2700e-01	4.5363	1.323714	0.000436	4.362344	0.739001	0.008724
 456	2.2750e-01	4.5468	1.362200	0.000385	3.849127	0.652060	0.007697
 457	2.2800e-01	4.5570	1.416081	0.000539	5.388777	0.912884	0.010776
 458	2.2850e-01	4.5673	1.455423	0.000393	3.934663	0.666550	0.007868
 459	2.2900e-01	4.5743	1.502034	0.000466	4.661720	0.789717	0.009322
 460	2.2950e-01	4.5856	1.555915	0.000539	5.388777	0.912884	0.010776
 461	2.3000e-01	4.5978	1.596111	0.000402	4.020199	0.681040	0.008039
 462	2.3050e-01	4.6075	1.644433	0.000483	4.832792	0.818697	0.009664
 463	2.3100e-01	4.6161	1.688051	0.000436	4.362344	0.739001	0.008724
 464	2.3150e-01	4.6259	1.749629	0.000616	6.158603	1.043296	0.012316
 465	2.3200e-01	4.6381	1.774003	0.000244	2.437780	0.412971	0.004875
 466	2.3250e-01	4.6455	1.834726	0.000607	6.073067	1.028805	0.012145
 467	2.3300e-01	4.6603	1.866798	0.000321	3.207606	0.543383	0.006414
 468	2.3350e-01	4.6683	1.912982	0.000462	4.618952	0.782472	0.009237
 469	2.3400e-01	4.6796	1.959165	0.000462	4.618952	0.782472	0.009237
 470	2.3450e-01	4.6863	2.000645	0.000415	4.148503	0.702775	0.008296
 471	2.3500e-01	4.6964	2.045973	0.000453	4.533416	0.767981	0.009066
 472	2.3550e-01	4.7037	2.097716	0.000517	5.174937	0.876658	0.010349
 473	2.3600e-01	4.7186	2.145182	0.000475	4.747256	0.804207	0.009493
 474	2.3650e-01	4.7260	2.180675	0.000355	3.549750	0.601344	0.007099
 475	2.3700e-01	4.7391	2.232845	0.000522	5.217705	0.883903	0.010434
 476	2.3750e-01	4.7479	2.278174	0.000453	4.533416	0.767981	0.009066
 477	2.3800e-01	4.7577	2.319226	0.000411	4.105735	0.695530	0.008210
 478	2.3850e-01	4.7662	2.373106	0.000539	5.388777	0.912884	0.010776
 479	2.3900e-01	4.7739	2.421000	0.000479	4.790024	0.811452	0.009579
 480	2.3950e-01	4.7861	2.456066	0.000351	3.506982	0.594099	0.007013
 481	2.4000e-01	4.7949	2.501822	0.000458	4.576184	0.775227	0.009151
 482	2.4050e-01	4.8065	2.536887	0.000351	3.506982	0.594099	0.007013
 483	2.4100e-01	4.8157	2.592051	0.000552	5.517082	0.934619	0.011033
 484	2.4150e-01	4.8297	2.627544	0.000355	3.549750	0.601344	0.007099
 485	2.4200e-01	4.8373	2.683135	0.000556	5.559850	0.941864	0.011118
 486	2.4250e-01	4.8468	2.720338	0.000372	3.720822	0.630324	0.007441
 487	2.4300e-01	4.8566	2.774219	0.000539	5.388777	0.912884	0.010776
 488	2.4350e-01	4.8657	2.813133	0.000389	3.891895	0.659305	0.007783
 489	2.4400e-01	4.8758	2.855468	0.000423	4.234039	0.717266	0.008467
 490	2.4450e-01	4.8862	2.912342	0.000569	5.688154	0.963599	0.011375
 491	2.4500e-01	4.8984	2.946980	0.000346	3.464214	0.586854	0.006928
 492	2.4550e-01	4.9054	2.988459	0.000415	4.148503	0.702775	0.008296
 493	2.4600e-01	4.9170	3.042768	0.000543	5.431545	0.920129	0.010862
 494	2.4650e-01	4.9268	3.082109	0.000393	3.934663	0.666550	0.007868
 495	2.4700e-01	4.9359	3.130431	0.000483	4.832792	0.818697	0.009664
 496	2.4750e-01	4.9475	3.162075	0.000316	3.164838	0.536138	0.006329
 497	2.4800e-01	4.9548	3.217239	0.000552	5.517082	0.934619	0.011033
 498	2.4850e-01	4.9652	3.263422	0.000462	4.618952	0.782472	0.009237
 499	2.4900e-01	4.9770	3.301481	0.000381	3.806359	0.644815	0.007612
 500	2.4950e-01	4.9872	3.353224	0.000517	5.174937	0.876658	0.010349
 501	2.5000e-01	4.9966	3.395558	0.000423	4.234039	0.717266	0.008467
 502	2.5050e-01	5.0067	3.434472	0.000389	3.891895	0.659305	0.007783
 503	2.5100e-01	5.0171	3.483649	0.000492	4.918329	0.833187	0.009835
 504	2.5150e-01	5.0256	3.514866	0.000312	3.122069	0.528893	0.006243
 505	2.5200e-01	5.0336	3.570885	0.000560	5.602618	0.949109	0.011204
 506	2.5250e-01	5.0464	3.614503	0.000436	4.362344	0.739001	0.008724
 507	2.5300e-01	5.0589	3.657265	0.000428	4.276807	0.724511	0.008553
 508	2.5350e-01	5.0665	3.697034	0.000398	3.977431	0.673795	0.007954
 509	2.5400e-01	5.0763	3.736376	0.000393	3.934663	0.666550	0.007868
 510	2.5450e-01	5.0858	3.791539	0.000552	5.517082	0.934619	0.011033
 511	2.5500e-01	5.0951	3.834302	0.000428	4.276807	0.724511	0.008553
 512	2.5550e-01	5.1068	3.878775	0.000445	4.447880	0.753491	0.008895
 513	2.5600e-01	5.1163	3.923676	0.000449	4.490648	0.760736	0.008980
 514	2.5650e-01	5.1270	3.963445	0.000398	3.977431	0.673795	0.007954
 515	2.5700e-01	5.1379	4.006207	0.000428	4.276807	0.724511	0.008553
 516	2.5750e-01	5.1471	4.048115	0.000419	4.191271	0.710021	0.008381
 517	2.5800e-01	5.1563	4.105844	0.000577	5.773690	0.978090	0.011546
 518	2.5850e-01	5.1642	4.136205	0.000304	3.036533	0.514403	0.006072
 519	2.5900e-01	5.1736	4.181961	0.000458	4.576184	0.775227	0.009151
 520	2.5950e-01	5.1859	4.227717	0.000458	4.576184	0.775227	0.009151
 521	2.6000e-01	5.1978	4.267486	0.000398	3.977431	0.673795	0.007954
 522	2.6050e-01	5.2065	4.314953	0.000475	4.747256	0.804207	0.009493
 523	2.6100e-01	5.2151	4.354722	0.000398	3.977431	0.673795	0.007954
 524	2.6150e-01	5.2266	4.395346	0.000406	4.062967	0.688285	0.008125
 525	2.6200e-01	5.2380	4.446661	0.000513	5.132169	0.869413	0.010263
 526	2.6250e-01	5.2454	4.494983	0.000483	4.832792	0.818697	0.009664
 527	2.6300e-01	5.2554	4.537746	0.000428	4.276807	0.724511	0.008553
 528	2.6350e-01	5.2679	4.570673	0.000329	3.293142	0.557873	0.006585
 529	2.6400e-01	5.2798	4.618994	0.000483	4.832792	0.818697	0.009664
 530	2.6450e-01	5.2863	4.662185	0.000432	4.319576	0.731756	0.008638
 531	2.6500e-01	5.2972	4.707513	0.000453	4.533416	0.767981	0.009066
 532	2.6550e-01	5.3064	4.755407	0.000479	4.790024	0.811452	0.009579
 533	2.6600e-01	5.3174	4.789617	0.000342	3.421446	0.579609	0.006842
 534	2.6650e-01	5.3253	4.842642	0.000530	5.303241	0.898393	0.010605
 535	2.6700e-01	5.3372	4.876425	0.000338	3.378678	0.572364	0.006756
 536	2.6750e-01	5.3479	4.916622	0.000402	4.020199	0.681040	0.008039
 537	2.6800e-01	5.3578	4.964516	0.000479	4.790024	0.811452	0.009579
 538	2.6850e-01	5.3650	5.006423	0.000419	4.191271	0.710021	0.008381
 539	2.6900e-01	5.3760	5.056883	0.000505	5.046633	0.854923	0.010092
 540	2.6950e-01	5.3876	5.084251	0.000274	2.737157	0.463687	0.005474
 541	2.7000e-01	5.3955	5.133855	0.000496	4.961097	0.840433	0.009921
 542	2.7050e-01	5.4065	5.184315	0.000505	5.046633	0.854923	0.010092
 543	2.7100e-01	5.4150	5.211683	0.000274	2.737157	0.463687	0.005474
 544	2.7150e-01	5.4260	5.273689	0.000620	6.201371	1.050541	0.012401
 545	2.7200e-01	5.4346	5.316879	0.000432	4.319576	0.731756	0.008638
 546	2.7250e-01	5.4456	5.349806	0.000329	3.293142	0.557873	0.006585
 547	2.7300e-01	5.4559	5.393424	0.000436	4.362344	0.739001	0.008724
 548	2.7350e-01	5.4651	5.435759	0.000423	4.234039	0.717266	0.008467
 549	2.7400e-01	5.4773	5.481515	0.000458	4.576184	0.775227	0.009151
 550	2.7450e-01	5.4871	5.520428	0.000389	3.891895	0.659305	0.007783
 551	2.7500e-01	5.4951	5.565329	0.000449	4.490648	0.760736	0.008980
 552	2.7550e-01	5.5075	5.605098	0.000398	3.977431	0.673795	0.007954
 553	2.7600e-01	5.5176	5.644440	0.000393	3.934663	0.666550	0.007868
 554	2.7650e-01	5.5264	5.697893	0.000535	5.346009	0.905638	0.010691
 555	2.7700e-01	5.5374	5.742794	0.000449	4.490648	0.760736	0.008980
 556	2.7750e-01	5.5457	5.782135	0.000393	3.934663	0.666550	0.007868
 557	2.7800e-01	5.5551	5.822332	0.000402	4.020199	0.681040	0.008039
 558	2.7850e-01	5.5673	5.860818	0.000385	3.849127	0.652060	0.007697
 559	2.7900e-01	5.5771	5.905291	0.000445	4.447880	0.753491	0.008895
 560	2.7950e-01	5.5823	5.952330	0.000470	4.704488	0.796962	0.009408
 561	2.8000e-01	5.5969	5.984830	0.000325	3.250374	0.550628	0.006500
 562	2.8050e-01	5.6055	6.027592	0.000428	4.276807	0.724511	0.008553
 563	2.8100e-01	5.6146	6.077197	0.000496	4.961097	0.840433	0.009921
 564	2.8150e-01	5.6284	6.112262	0.000351	3.506982	0.594099	0.007013
 565	2.8200e-01	5.6372	6.153314	0.000411	4.105735	0.695530	0.008210
 566	2.8250e-01	5.6464	6.202491	0.000492	4.918329	0.833187	0.009835
 567	2.8300e-01	5.6550	6.234563	0.000321	3.207606	0.543383	0.006414
 568	2.8350e-01	5.6667	6.283312	0.000488	4.875560	0.825942	0.009750
 569	2.8400e-01	5.6799	6.328213	0.000449	4.490648	0.760736	0.008980
 570	2.8450e-01	5.6848	6.368837	0.000406	4.062967	0.688285	0.008125
 571	2.8500e-01	5.6989	6.409461	0.000406	4.062967	0.688285	0.008125
 572	2.8550e-01	5.7080	6.449658	0.000402	4.020199	0.681040	0.008039
 573	2.8600e-01	5.7169	6.498407	0.000488	4.875560	0.825942	0.009750
 574	2.8650e-01	5.7278	6.528769	0.000304	3.036533	0.514403	0.006072
 575	2.8700e-01	5.7361	6.573242	0.000445	4.447880	0.753491	0.008895
 576	2.8750e-01	5.7452	6.624985	0.000517	5.174937	0.876658	0.010349
 577	2.8800e-01	5.7550	6.658339	0.000334	3.335910	0.565118	0.006671
 578	2.8850e-01	5.7648	6.703668	0.000453	4.533416	0.767981	0.009066
 579	2.8900e-01	5.7751	6.749424	0.000458	4.576184	0.775227	0.009151
 580	2.8950e-01	5.7861	6.790048	0.000406	4.062967	0.688285	0.008125
 581	2.9000e-01	5.7966	6.831528	0.000415	4.148503	0.702775	0.008296
 582	2.9050e-01	5.8047	6.867448	0.000359	3.592518	0.608589	0.007184
 583	2.9100e-01	5.8154	6.915770	0.000483	4.832792	0.818697	0.009664
 584	2.9150e-01	5.8246	6.959815	0.000441	4.405112	0.746246	0.008809
 585	2.9200e-01	5.8356	7.007282	0.000475	4.747256	0.804207	0.009493
 586	2.9250e-01	5.8453	7.041492	0.000342	3.421446	0.579609	0.006842
 587	2.9300e-01	5.8582	7.079978	0.000385	3.849127	0.652060	0.007697
 588	2.9350e-01	5.8643	7.122740	0.000428	4.276807	0.724511	0.008553
 589	2.9400e-01	5.8759	7.161227	0.000385	3.849127	0.652060	0.007697
 590	2.9450e-01	5.8875	7.208265	0.000470	4.704488	0.796962	0.009408
 591	2.9500e-01	5.8942	7.242048	0.000338	3.378678	0.572364	0.006756
 592	2.9550e-01	5.9033	7.283527	0.000415	4.148503	0.702775	0.008296
 593	2.9600e-01	5.9155	7.332704	0.000492	4.918329	0.833187	0.009835
 594	2.9650e-01	5.9238	7.370335	0.000376	3.763591	0.637569	0.007526
 595	2.9700e-01	5.9377	7.417802	0.000475	4.747256	0.804207	0.009493
 596	2.9750e-01	5.9460	7.455433	0.000376	3.763591	0.637569	0.007526
 597	2.9800e-01	5.9564	7.499906	0.000445	4.447880	0.753491	0.008895
 598	2.9850e-01	5.9674	7.540103	0.000402	4.020199	0.681040	0.008039
 599	2.9900e-01	5.9808	7.580727	0.000406	4.062967	0.688285	0.008125
 600	2.9950e-01	5.9851	7.613654	0.000329	3.293142	0.557873	0.006585
 601	3.0000e-01	5.9985	7.656417	0.000428	4.276807	0.724511	0.008553
 602	3.0050e-01	6.0052	7.697469	0.000411	4.105735	0.695530	0.008210
 603	3.0100e-01	6.0162	7.744508	0.000470	4.704488	0.796962	0.009408
 604	3.0150e-01	6.0266	7.782139	0.000376	3.763591	0.637569	0.007526
 605	3.0200e-01	6.0364	7.820625	0.000385	3.849127	0.652060	0.007697
 606	3.0250e-01	6.0468	7.866808	0.000462	4.618952	0.782472	0.009237
 607	3.0300e-01	6.0559	7.909143	0.000423	4.234039	0.717266	0.008467
 608	3.0350e-01	6.0675	7.942498	0.000334	3.335910	0.565118	0.006671
 609	3.0400e-01	6.0785	7.981840	0.000393	3.934663	0.666550	0.007868
 610	3.0450e-01	6.0864	8.030589	0.000488	4.875560	0.825942	0.009750
 611	3.0500e-01	6.0947	8.069075	0.000385	3.849127	0.652060	0.007697
 612	3.0550e-01	6.1090	8.113121	0.000441	4.405112	0.746246	0.008809
 613	3.0600e-01	6.1148	8.153745	0.000406	4.062967	0.688285	0.008125
 614	3.0650e-01	6.1255	8.197790	0.000441	4.405112	0.746246	0.008809
 615	3.0700e-01	6.1380	8.234566	0.000368	3.678054	0.623079	0.007355
 616	3.0750e-01	6.1472	8.279467	0.000449	4.490648	0.760736	0.008980
 617	3.0800e-01	6.1577	8.316670	0.000372	3.720822	0.630324	0.007441
 618	3.0850e-01	6.1658	8.355156	0.000385	3.849127	0.652060	0.007697
 619	3.0900e-01	6.1761	8.398774	0.000436	4.362344	0.739001	0.008724
 620	3.0950e-01	6.1859	8.443247	0.000445	4.447880	0.753491	0.008895
 621	3.1000e-01	6.1963	8.478313	0.000351	3.506982	0.594099	0.007013
 622	3.1050e-01	6.2030	8.525779	0.000475	4.747256	0.804207	0.009493
 623	3.1100e-01	6.2195	8.568969	0.000432	4.319576	0.731756	0.008638
 624	3.1150e-01	6.2244	8.611304	0.000423	4.234039	0.717266	0.008467
 625	3.1200e-01	6.2341	8.650218	0.000389	3.891895	0.659305	0.007783
 626	3.1250e-01	6.2476	8.682290	0.000321	3.207606	0.543383	0.006414
 627	3.1300e-01	6.2561	8.715645	0.000334	3.335910	0.565118	0.006671
 628	3.1350e-01	6.2689	8.763111	0.000475	4.747256	0.804207	0.009493
 629	3.1400e-01	6.2756	8.806301	0.000432	4.319576	0.731756	0.008638
 630	3.1450e-01	6.2875	8.854623	0.000483	4.832792	0.818697	0.009664
 631	3.1500e-01	6.2952	8.884129	0.000295	2.950997	0.499912	0.005901
 632	3.1550e-01	6.3092	8.929457	0.000453	4.533416	0.767981	0.009066
 633	3.1600e-01	6.3190	8.957680	0.000282	2.822693	0.478177	0.005645
 634	3.1650e-01	6.3263	9.009851	0.000522	5.217705	0.883903	0.010434
 635	3.1700e-01	6.3354	9.047482	0.000376	3.763591	0.637569	0.007526
 636	3.1750e-01	6.3431	9.086823	0.000393	3.934663	0.666550	0.007868
 637	3.1800e-01	6.3565	9.127875	0.000411	4.105735	0.695530	0.008210
 638	3.1850e-01	6.3654	9.159520	0.000316	3.164838	0.536138	0.006329
 639	3.1900e-01	6.3753	9.209979	0.000505	5.046633	0.854923	0.010092
 640	3.1950e-01	6.3873	9.245472	0.000355	3.549750	0.601344	0.007099
 641	3.2000e-01	6.3959	9.286097	0.000406	4.062967	0.688285	0.008125
 642	3.2050e-01	6.4066	9.334418	0.000483	4.832792	0.818697	0.009664
 643	3.2100e-01	6.4172	9.358793	0.000244	2.437780	0.412971	0.004875
 644	3.2150e-01	6.4276	9.407115	0.000483	4.832792	0.818697	0.009664
 645	3.2200e-01	6.4355	9.444746	0.000376	3.763591	0.637569	0.007526
 646	3.2250e-01	6.4447	9.470831	0.000261	2.608853	0.441952	0.005217
 647	3.2300e-01	6.4545	9.531126	0.000603	6.030299	1.021560	0.012059
 648	3.2350e-01	6.4674	9.576882	0.000458	4.576184	0.775227	0.009151
 649	3.2400e-01	6.4764	9.617079	0.000402	4.020199	0.681040	0.008039
 650	3.2450e-01	6.4874	9.655565	0.000385	3.849127	0.652060	0.007697
 651	3.2500e-01	6.4966	9.695334	0.000398	3.977431	0.673795	0.007954
 652	3.2550e-01	6.5085	9.729972	0.000346	3.464214	0.586854	0.006928
 653	3.2600e-01	6.5169	9.762899	0.000329	3.293142	0.557873	0.006585
 654	3.2650e-01	6.5263	9.815069	0.000522	5.217705	0.883903	0.010434
 655	3.2700e-01	6.5372	9.844148	0.000291	2.908229	0.492667	0.005816
 656	3.2750e-01	6.5469	9.882206	0.000381	3.806359	0.644815	0.007612
 657	3.2800e-01	6.5564	9.933094	0.000509	5.089401	0.862168	0.010177
 658	3.2850e-01	6.5659	9.957041	0.000240	2.395012	0.405726	0.004789
 659	3.2900e-01	6.5759	10.008356	0.000513	5.132169	0.869413	0.010263
 660	3.2950e-01	6.5854	10.041711	0.000334	3.335910	0.565118	0.006671
 661	3.3000e-01	6.5927	10.081480	0.000398	3.977431	0.673795	0.007954
 662	3.3050e-01	6.6071	10.130229	0.000488	4.875560	0.825942	0.009750
 663	3.3100e-01	6.6180	10.165294	0.000351	3.506982	0.594099	0.007013
 664	3.3150e-01	6.6254	10.203780	0.000385	3.849127	0.652060	0.007697
 665	3.3200e-01	6.6385	10.243550	0.000398	3.977431	0.673795	0.007954
 666	3.3250e-01	6.6467	10.284602	0.000411	4.105735	0.695530	0.008210
 667	3.3300e-01	6.6547	10.318812	0.000342	3.421446	0.579609	0.006842
 668	3.3350e-01	6.6650	10.361574	0.000428	4.276807	0.724511	0.008553
 669	3.3400e-01	6.6751	10.409468	0.000479	4.790024	0.811452	0.009579
 670	3.3450e-01	6.6864	10.432988	0.000235	2.352244	0.398481	0.004704
 671	3.3500e-01	6.6946	10.485158	0.000522	5.217705	0.883903	0.010434
 672	3.3550e-01	6.7087	10.515947	0.000308	3.079301	0.521648	0.006158
 673	3.3600e-01	6.7157	10.566407	0.000505	5.046633	0.854923	0.010092
 674	3.3650e-01	6.7255	10.604038	0.000376	3.763591	0.637569	0.007526
 675	3.3700e-01	6.7365	10.646800	0.000428	4.276807	0.724511	0.008553
 676	3.3750e-01	6.7462	10.688708	0.000419	4.191271	0.710021	0.008381
 677	3.3800e-01	6.7566	10.722062	0.000334	3.335910	0.565118	0.006671
 678	3.3850e-01	6.7667	10.758838	0.000368	3.678054	0.623079	0.007355
 679	3.3900e-01	6.7725	10.803311	0.000445	4.447880	0.753491	0.008895
 680	3.3950e-01	6.7865	10.844363	0.000411	4.105735	0.695530	0.008210
 681	3.4000e-01	6.7952	10.882422	0.000381	3.806359	0.644815	0.007612
 682	3.4050e-01	6.8060	10.917915	0.000355	3.549750	0.601344	0.007099
 683	3.4100e-01	6.8207	10.952125	0.000342	3.421446	0.579609	0.006842
 684	3.4150e-01	6.8253	10.993177	0.000411	4.105735	0.695530	0.008210
 685	3.4200e-01	6.8372	11.040643	0.000475	4.747256	0.804207	0.009493
 686	3.4250e-01	6.8451	11.080840	0.000402	4.020199	0.681040	0.008039
 687	3.4300e-01	6.8555	11.109063	0.000282	2.822693	0.478177	0.005645
 688	3.4350e-01	6.8628	11.154819	0.000458	4.576184	0.775227	0.009151
 689	3.4400e-01	6.8762	11.181332	0.000265	2.651621	0.449197	0.005303
 690	3.4450e-01	6.8874	11.222384	0.000411	4.105735	0.695530	0.008210
 691	3.4500e-01	6.8964	11.270278	0.000479	4.790024	0.811452	0.009579
 692	3.4550e-01	6.9073	11.299356	0.000291	2.908229	0.492667	0.005816
 693	3.4600e-01	6.9159	11.346823	0.000475	4.747256	0.804207	0.009493
 694	3.4650e-01	6.9275	11.387875	0.000411	4.105735	0.695530	0.008210
 695	3.4700e-01	6.9385	11.435769	0.000479	4.790024	0.811452	0.009579
 696	3.4750e-01	6.9452	11.470834	0.000351	3.506982	0.594099	0.007013
 697	3.4800e-01	6.9576	11.502906	0.000321	3.207606	0.543383	0.006414
 698	3.4850e-01	6.9647	11.543958	0.000411	4.105735	0.695530	0.008210
 699	3.4900e-01	6.9772	11.573892	0.000299	2.993765	0.507158	0.005987
 700	3.4950e-01	6.9879	11.620931	0.000470	4.704488	0.796962	0.009408
 701	3.5000e-01	6.9965	11.651720	0.000308	3.079301	0.521648	0.006158
 702	3.5050e-01	7.0076	11.702179	0.000505	5.046633	0.854923	0.010092
 703	3.5100e-01	7.0190	11.743659	0.000415	4.148503	0.702775	0.008296
 704	3.5150e-01	7.0288	11.768889	0.000252	2.523316	0.427461	0.005046
 705	3.5200e-01	7.0386	11.813362	0.000445	4.447880	0.753491	0.008895
 706	3.5250e-01	7.0468	11.849283	0.000359	3.592518	0.608589	0.007184
 707	3.5300e-01	7.0557	11.890335	0.000411	4.105735	0.695530	0.008210
 708	3.5350e-01	7.0689	11.933097	0.000428	4.276807	0.724511	0.008553
 709	3.5400e-01	7.0776	11.966879	0.000338	3.378678	0.572364	0.006756
 710	3.5450e-01	7.0874	12.013918	0.000470	4.704488	0.796962	0.009408
 711	3.5500e-01	7.0941	12.055398	0.000415	4.148503	0.702775	0.008296
 712	3.5550e-01	7.1053	12.087042	0.000316	3.164838	0.536138	0.006329
 713	3.5600e-01	7.1155	12.124246	0.000372	3.720822	0.630324	0.007441
 714	3.5650e-01	7.1271	12.164442	0.000402	4.020199	0.681040	0.008039
 715	3.5700e-01	7.1387	12.197370	0.000329	3.293142	0.557873	0.006585
 716	3.5750e-01	7.1484	12.238422	0.000411	4.105735	0.695530	0.008210
 717	3.5800e-01	7.1582	12.276908	0.000385	3.849127	0.652060	0.007697
 718	3.5850e-01	7.1680	12.318387	0.000415	4.148503	0.702775	0.008296
 719	3.5900e-01	7.1790	12.356874	0.000385	3.849127	0.652060	0.007697
 720	3.5950e-01	7.1844	12.390656	0.000338	3.378678	0.572364	0.006756
 721	3.6000e-01	7.1979	12.429998	0.000393	3.934663	0.666550	0.007868
 722	3.6050e-01	7.2058	12.478747	0.000488	4.875560	0.825942	0.009750
 723	3.6100e-01	7.2168	12.510819	0.000321	3.207606	0.543383	0.006414
 724	3.6150e-01	7.2248	12.558285	0.000475	4.747256	0.804207	0.009493
 725	3.6200e-01	7.2336	12.590785	0.000325	3.250374	0.550628	0.006500
 726	3.6250e-01	7.2443	12.626278	0.000355	3.549750	0.601344	0.007099
 727	3.6300e-01	7.2589	12.659632	0.000334	3.335910	0.565118	0.006671
 728	3.6350e-01	7.2675	12.701540	0.000419	4.191271	0.710021	0.008381
 729	3.6400e-01	7.2766	12.741736	0.000402	4.020199	0.681040	0.008039
 730	3.6450e-01	7.2870	12.784499	0.000428	4.276807	0.724511	0.008553
 731	3.6500e-01	7.2974	12.814005	0.000295	2.950997	0.499912	0.005901
 732	3.6550e-01	7.3059	12.862327	0.000483	4.832792	0.818697	0.009664
 733	3.6600e-01	7.3145	12.897392	0.000351	3.506982	0.594099	0.007013
 734	3.6650e-01	7.3273	12.934595	0.000372	3.720822	0.630324	0.007441
 735	3.6700e-01	7.3352	12.977358	0.000428	4.276807	0.724511	0.008553
 736	3.6750e-01	7.3438	13.020976	0.000436	4.362344	0.739001	0.008724
 737	3.6800e-01	7.3557	13.046633	0.000257	2.566084	0.434706	0.005132
 738	3.6850e-01	7.3645	13.087258	0.000406	4.062967	0.688285	0.008125
 739	3.6900e-01	7.3755	13.128737	0.000415	4.148503	0.702775	0.008296
 740	3.6950e-01	7.3865	13.160809	0.000321	3.207606	0.543383	0.006414
 741	3.7000e-01	7.3972	13.202717	0.000419	4.191271	0.710021	0.008381
 742	3.7050e-01	7.4042	13.238637	0.000359	3.592518	0.608589	0.007184
 743	3.7100e-01	7.4158	13.273702	0.000351	3.506982	0.594099	0.007013
 744	3.7150e-01	7.4269	13.314327	0.000406	4.062967	0.688285	0.008125
 745	3.7200e-01	7.4350	13.351530	0.000372	3.720822	0.630324	0.007441
 746	3.7250e-01	7.4457	13.393010	0.000415	4.148503	0.702775	0.008296
 747	3.7300e-01	7.4530	13.443470	0.000505	5.046633	0.854923	0.010092
 748	3.7350e-01	7.4670	13.464851	0.000214	2.138404	0.362255	0.004276
 749	3.7400e-01	7.4747	13.516593	0.000517	5.174937	0.876658	0.010349
 750	3.7450e-01	7.4869	13.546100	0.000295	2.950997	0.499912	0.005901
 751	3.7500e-01	7.4951	13.583731	0.000376	3.763591	0.637569	0.007526
 752	3.7550e-01	7.5043	13.625638	0.000419	4.191271	0.710021	0.008381
 753	3.7600e-01	7.5183	13.657710	0.000321	3.207606	0.543383	0.006414
 754	3.7650e-01	7.5259	13.703466	0.000458	4.576184	0.775227	0.009151
 755	3.7700e-01	7.5372	13.739814	0.000364	3.635286	0.615834	0.007270
 756	3.7750e-01	7.5446	13.783004	0.000432	4.319576	0.731756	0.008638
 757	3.7800e-01	7.5555	13.816359	0.000334	3.335910	0.565118	0.006671
 758	3.7850e-01	7.5690	13.848858	0.000325	3.250374	0.550628	0.006500
 759	3.7900e-01	7.5751	13.888200	0.000393	3.934663	0.666550	0.007868
 760	3.7950e-01	7.5851	13.932245	0.000441	4.405112	0.746246	0.008809
 761	3.8000e-01	7.6001	13.966028	0.000338	3.378678	0.572364	0.006756
 762	3.8050e-01	7.6056	14.008790	0.000428	4.276807	0.724511	0.008553
 763	3.8100e-01	7.6147	14.043428	0.000346	3.464214	0.586854	0.006928
 764	3.8150e-01	7.6282	14.075072	0.000316	3.164838	0.536138	0.006329
 765	3.8200e-01	7.6416	14.113986	0.000389	3.891895	0.659305	0.007783
 766	3.8250e-01	7.6459	14.159314	0.000453	4.533416	0.767981	0.009066
 767	3.8300e-01	7.6575	14.192669	0.000334	3.335910	0.565118	0.006671
 768	3.8350e-01	7.6663	14.231583	0.000389	3.891895	0.659305	0.007783
 769	3.8400e-01	7.6752	14.268786	0.000372	3.720822	0.630324	0.007441
 770	3.8450e-01	7.6849	14.305562	0.000368	3.678054	0.623079	0.007355
 771	3.8500e-01	7.6959	14.356022	0.000505	5.046633	0.854923	0.010092
 772	3.8550e-01	7.7075	14.384673	0.000287	2.865461	0.485422	0.005730
 773	3.8600e-01	7.7148	14.430856	0.000462	4.618952	0.782472	0.009237
 774	3.8650e-01	7.7258	14.461218	0.000304	3.036533	0.514403	0.006072
 775	3.8700e-01	7.7374	14.502697	0.000415	4.148503	0.702775	0.008296
 776	3.8750e-01	7.7460	14.540328	0.000376	3.763591	0.637569	0.007526
 777	3.8800e-01	7.7554	14.574538	0.000342	3.421446	0.579609	0.006842
 778	3.8850e-01	7.7673	14.610887	0.000364	3.635286	0.615834	0.007270
 779	3.8900e-01	7.7771	14.655787	0.000449	4.490648	0.760736	0.008980
 780	3.8950e-01	7.7869	14.689570	0.000338	3.378678	0.572364	0.006756
 781	3.9000e-01	7.7974	14.728911	0.000393	3.934663	0.666550	0.007868
 782	3.9050e-01	7.8052	14.763121	0.000342	3.421446	0.579609	0.006842
 783	3.9100e-01	7.8171	14.806311	0.000432	4.319576	0.731756	0.008638
 784	3.9150e-01	7.8256	14.837528	0.000312	3.122069	0.528893	0.006243
 785	3.9200e-01	7.8369	14.879008	0.000415	4.148503	0.702775	0.008296
 786	3.9250e-01	7.8455	14.922625	0.000436	4.362344	0.739001	0.008724
 787	3.9300e-01	7.8574	14.952559	0.000299	2.993765	0.507158	0.005987
 788	3.9350e-01	7.8656	15.000881	0.000483	4.832792	0.818697	0.009664
 789	3.9400e-01	7.8766	15.033808	0.000329	3.293142	0.557873	0.006585
 790	3.9450e-01	7.8859	15.071439	0.000376	3.763591	0.637569	0.007526
 791	3.9500e-01	7.8955	15.106504	0.000351	3.506982	0.594099	0.007013
 792	3.9550e-01	7.9059	15.146701	0.000402	4.020199	0.681040	0.008039
 793	3.9600e-01	7.9175	15.180483	0.000338	3.378678	0.572364	0.006756
 794	3.9650e-01	7.9263	15.215121	0.000346	3.464214	0.586854	0.006928
 795	3.9700e-01	7.9370	15.268147	0.000530	5.303241	0.898393	0.010605
 796	3.9750e-01	7.9474	15.299363	0.000312	3.122069	0.528893	0.006243
 797	3.9800e-01	7.9561	15.332290	0.000329	3.293142	0.557873	0.006585
 798	3.9850e-01	7.9669	15.376763	0.000445	4.447880	0.753491	0.008895
 799	3.9900e-01	7.9745	15.413539	0.000368	3.678054	0.623079	0.007355
 800	3.9950e-01	7.9868	15.451598	0.000381	3.806359	0.644815	0.007612
 801	4.0000e-01	7.9965	15.496499	0.000449	4.490648	0.760736	0.008980
 802	4.0050e-01	8.0066	15.533274	0.000368	3.678054	0.623079	0.007355
 803	4.0100e-01	8.0151	15.566201	0.000329	3.293142	0.557873	0.006585
 804	4.0150e-01	8.0249	15.603832	0.000376	3.763591	0.637569	0.007526
 805	4.0200e-01	8.0371	15.640181	0.000364	3.635286	0.615834	0.007270
 806	4.0250e-01	8.0463	15.676101	0.000359	3.592518	0.608589	0.007184
 807	4.0300e-01	8.0580	15.721429	0.000453	4.533416	0.767981	0.009066
 808	4.0350e-01	8.0664	15.756495	0.000351	3.506982	0.594099	0.007013
 809	4.0400e-01	8.0769	15.794126	0.000376	3.763591	0.637569	0.007526
 810	4.0450e-01	8.0841	15.838599	0.000445	4.447880	0.753491	0.008895
 811	4.0500e-01	8.0945	15.865539	0.000269	2.694389	0.456442	0.005388
 812	4.0550e-01	8.1055	15.909585	0.000441	4.405112	0.746246	0.008809
 813	4.0600e-01	8.1171	15.946788	0.000372	3.720822	0.630324	0.007441
 814	4.0650e-01	8.1256	15.981853	0.000351	3.506982	0.594099	0.007013
 815	4.0700e-01	8.1381	16.016918	0.000351	3.506982	0.594099	0.007013
 816	4.0750e-01	8.1479	16.058826	0.000419	4.191271	0.710021	0.008381
 817	4.0800e-01	8.1573	16.090470	0.000316	3.164838	0.536138	0.006329
 818	4.0850e-01	8.1665	16.134943	0.000445	4.447880	0.753491	0.008895
 819	4.0900e-01	8.1769	16.174712	0.000398	3.977431	0.673795	0.007954
 820	4.0950e-01	8.1860	16.212771	0.000381	3.806359	0.644815	0.007612
 821	4.1000e-01	8.1964	16.240994	0.000282	2.822693	0.478177	0.005645
 822	4.1050e-01	8.2059	16.290599	0.000496	4.961097	0.840433	0.009921
 823	4.1100e-01	8.2159	16.326092	0.000355	3.549750	0.601344	0.007099
 824	4.1150e-01	8.2251	16.366288	0.000402	4.020199	0.681040	0.008039
 825	4.1200e-01	8.2376	16.390235	0.000240	2.395012	0.405726	0.004789
 826	4.1250e-01	8.2462	16.446682	0.000565	5.645386	0.956354	0.011289
 827	4.1300e-01	8.2550	16.478754	0.000321	3.207606	0.543383	0.006414
 828	4.1350e-01	8.2684	16.514674	0.000359	3.592518	0.608589	0.007184
 829	4.1400e-01	8.2755	16.548884	0.000342	3.421446	0.579609	0.006842
 830	4.1450e-01	8.2855	16.592502	0.000436	4.362344	0.739001	0.008724
 831	4.1500e-01	8.2953	16.630561	0.000381	3.806359	0.644815	0.007612
 832	4.1550e-01	8.3060	16.673751	0.000432	4.319576	0.731756	0.008638
 833	4.1600e-01	8.3185	16.708389	0.000346	3.464214	0.586854	0.006928
 834	4.1650e-01	8.3252	16.750296	0.000419	4.191271	0.710021	0.008381
 835	4.1700e-01	8.3344	16.786216	0.000359	3.592518	0.608589	0.007184
 836	4.1750e-01	8.3478	16.822564	0.000364	3.635286	0.615834	0.007270
 837	4.1800e-01	8.3575	16.861478	0.000389	3.891895	0.659305	0.007783
 838	4.1850e-01	8.3655	16.894406	0.000329	3.293142	0.557873	0.006585
 839	4.1900e-01	8.3752	16.938879	0.000445	4.447880	0.753491	0.008895
 840	4.1950e-01	8.3859	16.982069	0.000432	4.319576	0.731756	0.008638
 841	4.2000e-01	8.3954	17.023121	0.000411	4.105735	0.695530	0.008210
 842	4.2050e-01	8.4064	17.052199	0.000291	2.908229	0.492667	0.005816
 843	4.2100e-01	8.4161	17.079995	0.000278	2.779925	0.470932	0.005559
 844	4.2150e-01	8.4277	17.124896	0.000449	4.490648	0.760736	0.008980
 845	4.2200e-01	8.4375	17.163382	0.000385	3.849127	0.652060	0.007697
 846	4.2250e-01	8.4485	17.204006	0.000406	4.062967	0.688285	0.008125
 847	4.2300e-01	8.4570	17.237789	0.000338	3.378678	0.572364	0.006756
 848	4.2350e-01	8.4662	17.280551	0.000428	4.276807	0.724511	0.008553
 849	4.2400e-01	8.4778	17.316899	0.000364	3.635286	0.615834	0.007270
 850	4.2450e-01	8.4875	17.357096	0.000402	4.020199	0.681040	0.008039
 851	4.2500e-01	8.4958	17.402852	0.000458	4.576184	0.775227	0.009151
 852	4.2550e-01	8.5034	17.432786	0.000299	2.993765	0.507158	0.005987
 853	4.2600e-01	8.5150	17.480252	0.000475	4.747256	0.804207	0.009493
 854	4.2650e-01	8.5272	17.506337	0.000261	2.608853	0.441952	0.005217
 855	4.2700e-01	8.5345	17.557225	0.000509	5.089401	0.862168	0.010177
 856	4.2750e-01	8.5468	17.599132	0.000419	4.191271	0.710021	0.008381
 857	4.2800e-01	8.5577	17.625645	0.000265	2.651621	0.449197	0.005303
 858	4.2850e-01	8.5663	17.660282	0.000346	3.464214	0.586854	0.006928
 859	4.2900e-01	8.5748	17.703045	0.000428	4.276807	0.724511	0.008553
 860	4.2950e-01	8.5883	17.740676	0.000376	3.763591	0.637569	0.007526
 861	4.3000e-01	8.5962	17.788142	0.000475	4.747256	0.804207	0.009493
 862	4.3050e-01	8.6060	17.818076	0.000299	2.993765	0.507158	0.005987
 863	4.3100e-01	8.6157	17.869819	0.000517	5.174937	0.876658	0.010349
 864	4.3150e-01	8.6292	17.898042	0.000282	2.822693	0.478177	0.005645
 865	4.3200e-01	8.6359	17.939094	0.000411	4.105735	0.695530	0.008210
 866	4.3250e-01	8.6456	17.974159	0.000351	3.506982	0.594099	0.007013
 867	4.3300e-01	8.6562	18.015639	0.000415	4.148503	0.702775	0.008296
 868	4.3350e-01	8.6670	18.048566	0.000329	3.293142	0.557873	0.006585
 869	4.3400e-01	8.6768	18.088335	0.000398	3.977431	0.673795	0.007954
 870	4.3450e-01	8.6874	18.121690	0.000334	3.335910	0.565118	0.006671
 871	4.3500e-01	8.6969	18.173005	0.000513	5.132169	0.869413	0.010263
 872	4.3550e-01	8.7067	18.209781	0.000368	3.678054	0.623079	0.007355
 873	4.3600e-01	8.7158	18.252116	0.000423	4.234039	0.717266	0.008467
 874	4.3650e-01	8.7244	18.282477	0.000304	3.036533	0.514403	0.006072
 875	4.3700e-01	8.7366	18.323102	0.000406	4.062967	0.688285	0.008125
 876	4.3750e-01	8.7457	18.361160	0.000381	3.806359	0.644815	0.007612
 877	4.3800e-01	8.7549	18.403068	0.000419	4.191271	0.710021	0.008381
 878	4.3850e-01	8.7671	18.437705	0.000346	3.464214	0.586854	0.006928
 879	4.3900e-01	8.7750	18.476619	0.000389	3.891895	0.659305	0.007783
 880	4.3950e-01	8.7848	18.511684	0.000351	3.506982	0.594099	0.007013
 881	4.4000e-01	8.7982	18.551453	0.000398	3.977431	0.673795	0.007954
 882	4.4050e-01	8.8074	18.596782	0.000453	4.533416	0.767981	0.009066
 883	4.4100e-01	8.8153	18.639544	0.000428	4.276807	0.724511	0.008553
 884	4.4150e-01	8.8290	18.667768	0.000282	2.822693	0.478177	0.005645
 885	4.4200e-01	8.8348	18.705826	0.000381	3.806359	0.644815	0.007612
 886	4.4250e-01	8.8464	18.743885	0.000381	3.806359	0.644815	0.007612
 887	4.4300e-01	8.8550	18.778095	0.000342	3.421446	0.579609	0.006842
 888	4.4350e-01	8.8647	18.829838	0.000517	5.174937	0.876658	0.010349
 889	4.4400e-01	8.8748	18.867896	0.000381	3.806359	0.644815	0.007612
 890	4.4450e-01	8.8867	18.897830	0.000299	2.993765	0.507158	0.005987
 891	4.4500e-01	8.8953	18.947007	0.000492	4.918329	0.833187	0.009835
 892	4.4550e-01	8.9069	18.975658	0.000287	2.865461	0.485422	0.005730
 893	4.4600e-01	8.9175	19.016710	0.000411	4.105735	0.695530	0.008210
 894	4.4650e-01	8.9285	19.051347	0.000346	3.464214	0.586854	0.006928
 895	4.4700e-01	8.9352	19.096676	0.000453	4.533416	0.767981	0.009066
 896	4.4750e-01	8.9471	19.129603	0.000329	3.293142	0.557873	0.006585
 897	4.4800e-01	8.9563	19.177069	0.000475	4.747256	0.804207	0.009493
 898	4.4850e-01	8.9655	19.217694	0.000406	4.062967	0.688285	0.008125
 899	4.4900e-01	8.9764	19.253614	0.000359	3.592518	0.608589	0.007184
 900	4.4950e-01	8.9844	19.295521	0.000419	4.191271	0.710021	0.008381
 901	4.5000e-01	8.9960	19.334435	0.000389	3.891895	0.659305	0.007783
 902	4.5050e-01	9.0022	19.375487	0.000411	4.105735	0.695530	0.008210
 903	4.5100e-01	9.0155	19.408415	0.000329	3.293142	0.557873	0.006585
 904	4.5150e-01	9.0298	19.444763	0.000364	3.635286	0.615834	0.007270
 905	4.5200e-01	9.0369	19.495650	0.000509	5.089401	0.862168	0.010177
 906	4.5250e-01	9.0454	19.525584	0.000299	2.993765	0.507158	0.005987
 907	4.5300e-01	9.0588	19.566208	0.000406	4.062967	0.688285	0.008125
 908	4.5350e-01	9.0656	19.610254	0.000441	4.405112	0.746246	0.008809
 909	4.5400e-01	9.0747	19.650450	0.000402	4.020199	0.681040	0.008039
 910	4.5450e-01	9.0869	19.686799	0.000364	3.635286	0.615834	0.007270
 911	4.5500e-01	9.0948	19.718443	0.000316	3.164838	0.536138	0.006329
 912	4.5550e-01	9.1071	19.773179	0.000547	5.474314	0.927374	0.010947
 913	4.5600e-01	9.1187	19.811665	0.000385	3.849127	0.652060	0.007697
 914	4.5650e-01	9.1261	19.842882	0.000312	3.122069	0.528893	0.006243
 915	4.5700e-01	9.1336	19.886927	0.000441	4.405112	0.746246	0.008809
 916	4.5750e-01	9.1431	19.933538	0.000466	4.661720	0.789717	0.009322
 917	4.5800e-01	9.1534	19.976729	0.000432	4.319576	0.731756	0.008638
 918	4.5850e-01	9.1663	20.009656	0.000329	3.293142	0.557873	0.006585
 919	4.5900e-01	9.1760	20.044721	0.000351	3.506982	0.594099	0.007013
 920	4.5950e-01	9.1852	20.088339	0.000436	4.362344	0.739001	0.008724
 921	4.6000e-01	9.1980	20.127253	0.000389	3.891895	0.659305	0.007783
 922	4.6050e-01	9.2059	20.160607	0.000334	3.335910	0.565118	0.006671
 923	4.6100e-01	9.2139	20.205508	0.000449	4.490648	0.760736	0.008980
 924	4.6150e-01	9.2261	20.246560	0.000411	4.105735	0.695530	0.008210
 925	4.6200e-01	9.2342	20.282481	0.000359	3.592518	0.608589	0.007184
 926	4.6250e-01	9.2444	20.332513	0.000500	5.003865	0.847678	0.010006
 927	4.6300e-01	9.2523	20.367150	0.000346	3.464214	0.586854	0.006928
 928	4.6350e-01	9.2657	20.406492	0.000393	3.934663	0.666550	0.007868
 929	4.6400e-01	9.2749	20.447972	0.000415	4.148503	0.702775	0.008296
 930	4.6450e-01	9.2859	20.485603	0.000376	3.763591	0.637569	0.007526
 931	4.6500e-01	9.2950	20.526655	0.000411	4.105735	0.695530	0.008210
 932	4.6550e-01	9.3054	20.583101	0.000565	5.645386	0.956354	0.011289
 933	4.6600e-01	9.3146	20.610897	0.000278	2.779925	0.470932	0.005559
 934	4.6650e-01	9.3250	20.651521	0.000406	4.062967	0.688285	0.008125
 935	4.6700e-01	9.3369	20.695567	0.000441	4.405112	0.746246	0.008809
 936	4.6750e-01	9.3488	20.725073	0.000295	2.950997	0.499912	0.005901
 937	4.6800e-01	9.3561	20.762276	0.000372	3.720822	0.630324	0.007441
 938	4.6850e-01	9.3665	20.813591	0.000513	5.132169	0.869413	0.010263
 939	4.6900e-01	9.3756	20.849512	0.000359	3.592518	0.608589	0.007184
 940	4.6950e-01	9.3866	20.890136	0.000406	4.062967	0.688285	0.008125
 941	4.7000e-01	9.3939	20.936320	0.000462	4.618952	0.782472	0.009237
 942	4.7050e-01	9.4037	20.970957	0.000346	3.464214	0.586854	0.006928
 943	4.7100e-01	9.4135	21.016713	0.000458	4.576184	0.775227	0.009151
 944	4.7150e-01	9.4244	21.062041	0.000453	4.533416	0.767981	0.009066
 945	4.7200e-01	9.4348	21.093686	0.000316	3.164838	0.536138	0.006329
 946	4.7250e-01	9.4452	21.138586	0.000449	4.490648	0.760736	0.008980
 947	4.7300e-01	9.4543	21.182632	0.000441	4.405112	0.746246	0.008809
 948	4.7350e-01	9.4684	21.220263	0.000376	3.763591	0.637569	0.007526
 949	4.7400e-01	9.4760	21.261315	0.000411	4.105735	0.695530	0.008210
 950	4.7450e-01	9.4849	21.304505	0.000432	4.319576	0.731756	0.008638
 951	4.7500e-01	9.4971	21.350261	0.000458	4.576184	0.775227	0.009151
 952	4.7550e-01	9.5026	21.381050	0.000308	3.079301	0.521648	0.006158
 953	4.7600e-01	9.5166	21.428089	0.000470	4.704488	0.796962	0.009408
 954	4.7650e-01	9.5227	21.464864	0.000368	3.678054	0.623079	0.007355
 955	4.7700e-01	9.5355	21.504206	0.000393	3.934663	0.666550	0.007868
 956	4.7750e-01	9.5453	21.552528	0.000483	4.832792	0.818697	0.009664
 957	4.7800e-01	9.5575	21.592297	0.000398	3.977431	0.673795	0.007954
 958	4.7850e-01	9.5642	21.639763	0.000475	4.747256	0.804207	0.009493
 959	4.7900e-01	9.5758	21.673973	0.000342	3.421446	0.579609	0.006842
 960	4.7950e-01	9.5856	21.720157	0.000462	4.618952	0.782472	0.009237
 961	4.8000e-01	9.5935	21.760354	0.000402	4.020199	0.681040	0.008039
 962	4.8050e-01	9.6051	21.793708	0.000334	3.335910	0.565118	0.006671
 963	4.8100e-01	9.6179	21.836898	0.000432	4.319576	0.731756	0.008638
 964	4.8150e-01	9.6283	21.877095	0.000402	4.020199	0.681040	0.008039
 965	4.8200e-01	9.6362	21.919858	0.000428	4.276807	0.724511	0.008553
 966	4.8250e-01	9.6454	21.963476	0.000436	4.362344	0.739001	0.008724
 967	4.8300e-01	9.6582	22.002817	0.000393	3.934663	0.666550	0.007868
 968	4.8350e-01	9.6674	22.047290	0.000445	4.447880	0.753491	0.008895
 969	4.8400e-01	9.6753	22.091336	0.000441	4.405112	0.746246	0.008809
 970	4.8450e-01	9.6838	22.134526	0.000432	4.319576	0.731756	0.008638
 971	4.8500e-01	9.6967	22.180282	0.000458	4.576184	0.775227	0.009151
 972	4.8550e-01	9.7028	22.222616	0.000423	4.234039	0.717266	0.008467
 973	4.8600e-01	9.7156	22.258109	0.000355	3.549750	0.601344	0.007099
 974	4.8650e-01	9.7253	22.301727	0.000436	4.362344	0.739001	0.008724
 975	4.8700e-01	9.7375	22.347055	0.000453	4.533416	0.767981	0.009066
 976	4.8750e-01	9.7461	22.397515	0.000505	5.046633	0.854923	0.010092
 977	4.8800e-01	9.7589	22.428732	0.000312	3.122069	0.528893	0.006243
 978	4.8850e-01	9.7656	22.477909	0.000492	4.918329	0.833187	0.009835
 979	4.8900e-01	9.7748	22.520671	0.000428	4.276807	0.724511	0.008553
 980	4.8950e-01	9.7876	22.559158	0.000385	3.849127	0.652060	0.007697
 981	4.9000e-01	9.7943	22.600210	0.000411	4.105735	0.695530	0.008210
 982	4.9050e-01	9.8029	22.642117	0.000419	4.191271	0.710021	0.008381
 983	4.9100e-01	9.8181	22.687873	0.000458	4.576184	0.775227	0.009151
 984	4.9150e-01	9.8248	22.725504	0.000376	3.763591	0.637569	0.007526
 985	4.9200e-01	9.8370	22.765701	0.000402	4.020199	0.681040	0.008039
 986	4.9250e-01	9.8462	22.805897	0.000402	4.020199	0.681040	0.008039
 987	4.9300e-01	9.8590	22.848660	0.000428	4.276807	0.724511	0.008553
 988	4.9350e-01	9.8646	22.899120	0.000505	5.046633	0.854923	0.010092
 989	4.9400e-01	9.8755	22.940172	0.000411	4.105735	0.695530	0.008210
 990	4.9450e-01	9.8853	22.989349	0.000492	4.918329	0.833187	0.009835
 991	4.9500e-01	9.8962	23.030401	0.000411	4.105735	0.695530	0.008210
 992	4.9550e-01	9.9060	23.069742	0.000393	3.934663	0.666550	0.007868
 993	4.9600e-01	9.9164	23.123623	0.000539	5.388777	0.912884	0.010776
 994	4.9650e-01	9.9255	23.162964	0.000393	3.934663	0.666550	0.007868
 995	4.9700e-01	9.9384	23.198457	0.000355	3.549750	0.601344	0.007099
 996	4.9750e-01	9.9463	23.248917	0.000505	5.046633	0.854923	0.010092
 997	4.9800e-01	9.9548	23.285693	0.000368	3.678054	0.623079	0.007355
 998	4.9850e-01	9.9677	23.328455	0.000428	4.276807	0.724511	0.008553
 999	4.9900e-01	9.9744	23.376349	0.000479	4.790024	0.811452	0.009579
1000	4.9950e-01	9.9872	23.419112	0.000428	4.276807	0.724511	0.008553
1001	5.0000e-01	9.9945	23.471282	0.000522	5.217705	0.883903	0.010434
1002	5.0050e-01	9.9854	23.464440	0.000068	0.684289	0.115922	-0.001368
1003	5.0100e-01	9.9768	23.428520	0.000359	3.592518	0.608589	-0.007184
1004	5.0150e-01	9.9670	23.432796	-0.000043	-0.427681	-0.072451	0.000855
1005	5.0200e-01	9.9591	23.423816	0.000090	0.898130	0.152147	-0.001796
1006	5.0250e-01	9.9445	23.413125	0.000107	1.069202	0.181128	-0.002138
1007	5.0300e-01	9.9367	23.395165	0.000180	1.796259	0.304295	-0.003592
1008	5.0350e-01	9.9249	23.374211	0.000210	2.095636	0.355010	-0.004191
1009	5.0400e-01	9.9139	23.363093	0.000111	1.111970	0.188373	-0.002224
1010	5.0450e-01	9.9054	23.343850	0.000192	1.924563	0.326030	-0.003849
1011	5.0500e-01	9.8950	23.323324	0.000205	2.052868	0.347765	-0.004105
1012	5.0550e-01	9.8877	23.314344	0.000090	0.898130	0.152147	-0.001796
1013	5.0600e-01	9.8724	23.296384	0.000180	1.796259	0.304295	-0.003592
1014	5.0650e-01	9.8657	23.280989	0.000154	1.539651	0.260824	-0.003079
1015	5.0700e-01	9.8547	23.255759	0.000252	2.523316	0.427461	-0.005046
1016	5.0750e-01	9.8438	23.236516	0.000192	1.924563	0.326030	-0.003849
1017	5.0800e-01	9.8364	23.225398	0.000111	1.111970	0.188373	-0.002224
1018	5.0850e-01	9.8285	23.191615	0.000338	3.378678	0.572364	-0.006756
1019	5.0900e-01	9.8132	23.182635	0.000090	0.898130	0.152147	-0.001796
1020	5.0950e-01	9.8071	23.155695	0.000269	2.694389	0.456442	-0.005388
1021	5.1000e-01	9.7968	23.132175	0.000235	2.352244	0.398481	-0.004704
1022	5.1050e-01	9.7864	23.118919	0.000133	1.325810	0.224598	-0.002651
1023	5.1100e-01	9.7760	23.107373	0.000115	1.154738	0.195618	-0.002309
1024	5.1150e-01	9.7650	23.084709	0.000227	2.266708	0.383991	-0.004533
1025	5.1200e-01	9.7571	23.060762	0.000240	2.395012	0.405726	-0.004789
1026	5.1250e-01	9.7443	23.043229	0.000175	1.753491	0.297049	-0.003507
1027	5.1300e-01	9.7375	23.014151	0.000291	2.908229	0.492667	-0.005816
1028	5.1350e-01	9.7253	22.995763	0.000184	1.839027	0.311540	-0.003678
1029	5.1400e-01	9.7174	22.982079	0.000137	1.368578	0.231843	-0.002737
1030	5.1450e-01	9.7052	22.958132	0.000240	2.395012	0.405726	-0.004789
1031	5.1500e-01	9.6973	22.938889	0.000192	1.924563	0.326030	-0.003849
1032	5.1550e-01	9.6890	22.910666	0.000282	2.822693	0.478177	-0.005645
1033	5.1600e-01	9.6783	22.879449	0.000312	3.122069	0.528893	-0.006243
1034	5.1650e-01	9.6698	22.874745	0.000047	0.470449	0.079696	-0.000941
1035	5.1700e-01	9.6564	22.845239	0.000295	2.950997	0.499912	-0.005901
1036	5.1750e-01	9.6460	22.828134	0.000171	1.710723	0.289804	-0.003421
1037	5.1800e-01	9.6344	22.809318	0.000188	1.881795	0.318785	-0.003763
1038	5.1850e-01	9.6277	22.783233	0.000261	2.608853	0.441952	-0.005217
1039	5.1900e-01	9.6167	22.754582	0.000287	2.865461	0.485422	-0.005730
1040	5.1950e-01	9.6051	22.728497	0.000261	2.608853	0.441952	-0.005217
1041	5.2000e-01	9.5947	22.713958	0.000145	1.454115	0.246334	-0.002908
1042	5.2050e-01	9.5874	22.694287	0.000197	1.967331	0.333275	-0.003934
1043	5.2100e-01	9.5758	22.657511	0.000368	3.678054	0.623079	-0.007355
1044	5.2150e-01	9.5673	22.642117	0.000154	1.539651	0.260824	-0.003079
1045	5.2200e-01	9.5566	22.608334	0.000338	3.378678	0.572364	-0.006756
1046	5.2250e-01	9.5477	22.597644	0.000107	1.069202	0.181128	-0.002138
1047	5.2300e-01	9.5355	22.565144	0.000325	3.250374	0.550628	-0.006500
1048	5.2350e-01	9.5258	22.544618	0.000205	2.052868	0.347765	-0.004105
1049	5.2400e-01	9.5160	22.512546	0.000321	3.207606	0.543383	-0.006414
1050	5.2450e-01	9.5081	22.499718	0.000128	1.283042	0.217353	-0.002566
1051	5.2500e-01	9.4958	22.481757	0.000180	1.796259	0.304295	-0.003592
1052	5.2550e-01	9.4867	22.444126	0.000376	3.763591	0.637569	-0.007526
1053	5.2600e-01	9.4775	22.423600	0.000205	2.052868	0.347765	-0.004105
1054	5.2650e-01	9.4666	22.402219	0.000214	2.138404	0.362255	-0.004276
1055	5.2700e-01	9.4562	22.376989	0.000252	2.523316	0.427461	-0.005046
1056	5.2750e-01	9.4495	22.352187	0.000248	2.480548	0.420216	-0.004960
1057	5.2800e-01	9.4366	22.327385	0.000248	2.480548	0.420216	-0.004960
1058	5.2850e-01	9.4264	22.302155	0.000252	2.523316	0.427461	-0.005046
1059	5.2900e-01	9.4165	22.275214	0.000269	2.694389	0.456442	-0.005388
1060	5.2950e-01	9.4067	22.258537	0.000167	1.667955	0.282559	-0.003335
1061	5.3000e-01	9.3954	22.231169	0.000274	2.737157	0.463687	-0.005474
1062	5.3050e-01	9.3884	22.195676	0.000355	3.549750	0.601344	-0.007099
1063	5.3100e-01	9.3750	22.185841	0.000098	0.983666	0.166637	-0.001967
1064	5.3150e-01	9.3655	22.151203	0.000346	3.464214	0.586854	-0.006928
1065	5.3200e-01	9.3585	22.124263	0.000269	2.694389	0.456442	-0.005388
1066	5.3250e-01	9.3494	22.101171	0.000231	2.309476	0.391236	-0.004618
1067	5.3300e-01	9.3372	22.069099	0.000321	3.207606	0.543383	-0.006414
1068	5.3350e-01	9.3268	22.043014	0.000261	2.608853	0.441952	-0.005217
1069	5.3400e-01	9.3164	22.015646	0.000274	2.737157	0.463687	-0.005474
1070	5.3450e-01	9.3042	21.998113	0.000175	1.753491	0.297049	-0.003507
1071	5.3500e-01	9.2963	21.962620	0.000355	3.549750	0.601344	-0.007099
1072	5.3550e-01	9.2871	21.938673	0.000240	2.395012	0.405726	-0.004789
1073	5.3600e-01	9.2773	21.913871	0.000248	2.480548	0.420216	-0.004960
1074	5.3650e-01	9.2688	21.884792	0.000291	2.908229	0.492667	-0.005816
1075	5.3700e-01	9.2572	21.865977	0.000188	1.881795	0.318785	-0.003763
1076	5.3750e-01	9.2480	21.841175	0.000248	2.480548	0.420216	-0.004960
1077	5.3800e-01	9.2371	21.804399	0.000368	3.678054	0.623079	-0.007355
1078	5.3850e-01	9.2261	21.777886	0.000265	2.651621	0.449197	-0.005303
1079	5.3900e-01	9.2145	21.757360	0.000205	2.052868	0.347765	-0.004105
1080	5.3950e-01	9.2072	21.723150	0.000342	3.421446	0.579609	-0.006842
1081	5.4000e-01	9.1986	21.701769	0.000214	2.138404	0.362255	-0.004276
1082	5.4050e-01	9.1876	21.669269	0.000325	3.250374	0.550628	-0.006500
1083	5.4100e-01	9.1785	21.648316	0.000210	2.095636	0.355010	-0.004191
1084	5.4150e-01	9.1644	21.626079	0.000222	2.223940	0.376746	-0.004447
1085	5.4200e-01	9.1553	21.594435	0.000316	3.164838	0.536138	-0.006329
1086	5.4250e-01	9.1443	21.566212	0.000282	2.822693	0.478177	-0.005645
1087	5.4300e-01	9.1400	21.538844	0.000274	2.737157	0.463687	-0.005474
1088	5.4350e-01	9.1266	21.504206	0.000346	3.464214	0.586854	-0.006928
1089	5.4400e-01	9.1177	21.481969	0.000222	2.223940	0.376746	-0.004447
1090	5.4450e-01	9.1077	21.455029	0.000269	2.694389	0.456442	-0.005388
1091	5.4500e-01	9.0979	21.433220	0.000218	2.181172	0.369501	-0.004362
1092	5.4550e-01	9.0839	21.394306	0.000389	3.891895	0.659305	-0.007783
1093	5.4600e-01	9.0765	21.378484	0.000158	1.582419	0.268069	-0.003164
1094	5.4650e-01	9.0668	21.345557	0.000329	3.293142	0.557873	-0.006585
1095	5.4700e-01	9.0564	21.321182	0.000244	2.437780	0.412971	-0.004875
1096	5.4750e-01	9.0466	21.288255	0.000329	3.293142	0.557873	-0.006585
1097	5.4800e-01	9.0381	21.267729	0.000205	2.052868	0.347765	-0.004105
1098	5.4850e-01	9.0259	21.235657	0.000321	3.207606	0.543383	-0.006414
1099	5.4900e-01	9.0167	21.211283	0.000244	2.437780	0.412971	-0.004875
1100	5.4950e-01	9.0057	21.182632	0.000287	2.865461	0.485422	-0.005730
1101	5.5000e-01	8.9967	21.149277	0.000334	3.335910	0.565118	-0.006671
1102	5.5050e-01	8.9862	21.118060	0.000312	3.122069	0.528893	-0.006243
1103	5.5100e-01	8.9771	21.098817	0.000192	1.924563	0.326030	-0.003849
1104	5.5150e-01	8.9655	21.067601	0.000312	3.122069	0.528893	-0.006243
1105	5.5200e-01	8.9581	21.039377	0.000282	2.822693	0.478177	-0.005645
1106	5.5250e-01	8.9459	21.009016	0.000304	3.036533	0.514403	-0.006072
1107	5.5300e-01	8.9368	20.985069	0.000240	2.395012	0.405726	-0.004789
1108	5.5350e-01	8.9270	20.950859	0.000342	3.421446	0.579609	-0.006842
1109	5.5400e-01	8.9160	20.923063	0.000278	2.779925	0.470932	-0.005559
1110	5.5450e-01	8.9047	20.896978	0.000261	2.608853	0.441952	-0.005217
1111	5.5500e-01	8.8947	20.862768	0.000342	3.421446	0.579609	-0.006842
1112	5.5550e-01	8.8855	20.834972	0.000278	2.779925	0.470932	-0.005559
1113	5.5600e-01	8.8788	20.815729	0.000192	1.924563	0.326030	-0.003849
1114	5.5650e-01	8.8660	20.789644	0.000261	2.608853	0.441952	-0.005217
1115	5.5700e-01	8.8556	20.764842	0.000248	2.480548	0.420216	-0.004960
1116	5.5750e-01	8.8434	20.721652	0.000432	4.319576	0.731756	-0.008638
1117	5.5800e-01	8.8373	20.698988	0.000227	2.266708	0.383991	-0.004533
1118	5.5850e-01	8.8269	20.667771	0.000312	3.122069	0.528893	-0.006243
1119	5.5900e-01	8.8141	20.638265	0.000295	2.950997	0.499912	-0.005901
1120	5.5950e-01	8.8043	20.612180	0.000261	2.608853	0.441952	-0.005217
1121	5.6000e-01	8.7976	20.579253	0.000329	3.293142	0.557873	-0.006585
1122	5.6050e-01	8.7854	20.556161	0.000231	2.309476	0.391236	-0.004618
1123	5.6100e-01	8.7769	20.521951	0.000342	3.421446	0.579609	-0.006842
1124	5.6150e-01	8.7677	20.498859	0.000231	2.309476	0.391236	-0.004618
1125	5.6200e-01	8.7610	20.464649	0.000342	3.421446	0.579609	-0.006842
1126	5.6250e-01	8.7457	20.429584	0.000351	3.506982	0.594099	-0.007013
1127	5.6300e-01	8.7378	20.415900	0.000137	1.368578	0.231843	-0.002737
1128	5.6350e-01	8.7280	20.376986	0.000389	3.891895	0.659305	-0.007783
1129	5.6400e-01	8.7183	20.348335	0.000287	2.865461	0.485422	-0.005730
1130	5.6450e-01	8.7079	20.314125	0.000342	3.421446	0.579609	-0.006842
1131	5.6500e-01	8.6963	20.289323	0.000248	2.480548	0.420216	-0.004960
1132	5.6550e-01	8.6865	20.268369	0.000210	2.095636	0.355010	-0.004191
1133	5.6600e-01	8.6786	20.225606	0.000428	4.276807	0.724511	-0.008553
1134	5.6650e-01	8.6646	20.204653	0.000210	2.095636	0.355010	-0.004191
1135	5.6700e-01	8.6581	20.172581	0.000321	3.207606	0.543383	-0.006414
1136	5.6750e-01	8.6475	20.142647	0.000299	2.993765	0.507158	-0.005987
1137	5.6800e-01	8.6368	20.115279	0.000274	2.737157	0.463687	-0.005474
1138	5.6850e-01	8.6261	20.088339	0.000269	2.694389	0.456442	-0.005388
1139	5.6900e-01	8.6163	20.055412	0.000329	3.293142	0.557873	-0.006585
1140	5.6950e-01	8.6060	20.025905	0.000295	2.950997	0.499912	-0.005901
1141	5.7000e-01	8.5968	19.995116	0.000308	3.079301	0.521648	-0.006158
1142	5.7050e-01	8.5889	19.959196	0.000359	3.592518	0.608589	-0.007184
1143	5.7100e-01	8.5779	19.923703	0.000355	3.549750	0.601344	-0.007099
1144	5.7150e-01	8.5681	19.905315	0.000184	1.839027	0.311540	-0.003678
1145	5.7200e-01	8.5577	19.870677	0.000346	3.464214	0.586854	-0.006928
1146	5.7250e-01	8.5513	19.836467	0.000342	3.421446	0.579609	-0.006842
1147	5.7300e-01	8.5370	19.817224	0.000192	1.924563	0.326030	-0.003849
1148	5.7350e-01	8.5260	19.783442	0.000338	3.378678	0.572364	-0.006756
1149	5.7400e-01	8.5156	19.756074	0.000274	2.737157	0.463687	-0.005474
1150	5.7450e-01	8.5046	19.719298	0.000368	3.678054	0.623079	-0.007355
1151	5.7500e-01	8.4961	19.691075	0.000282	2.822693	0.478177	-0.005645
1152	5.7550e-01	8.4894	19.664990	0.000261	2.608853	0.441952	-0.005217
1153	5.7600e-01	8.4747	19.631635	0.000334	3.335910	0.565118	-0.006671
1154	5.7650e-01	8.4662	19.605550	0.000261	2.608853	0.441952	-0.005217
1155	5.7700e-01	8.4589	19.567919	0.000376	3.763591	0.637569	-0.007526
1156	5.7750e-01	8.4512	19.540123	0.000278	2.779925	0.470932	-0.005559
1157	5.7800e-01	8.4363	19.515748	0.000244	2.437780	0.412971	-0.004875
1158	5.7850e-01	8.4290	19.472558	0.000432	4.319576	0.731756	-0.008638
1159	5.7900e-01	8.4180	19.455453	0.000171	1.710723	0.289804	-0.003421
1160	5.7950e-01	8.4088	19.417395	0.000381	3.806359	0.644815	-0.007612
1161	5.8000e-01	8.3954	19.379764	0.000376	3.763591	0.637569	-0.007526
1162	5.8050e-01	8.3856	19.355817	0.000240	2.395012	0.405726	-0.004789
1163	5.8100e-01	8.3777	19.333580	0.000222	2.223940	0.376746	-0.004447
1164	5.8150e-01	8.3667	19.305357	0.000282	2.822693	0.478177	-0.005645
1165	5.8200e-01	8.3606	19.266871	0.000385	3.849127	0.652060	-0.007697
1166	5.8250e-01	8.3459	19.237792	0.000291	2.908229	0.492667	-0.005816
1167	5.8300e-01	8.3344	19.195030	0.000428	4.276807	0.724511	-0.008553
1168	5.8350e-01	8.3267	19.170655	0.000244	2.437780	0.412971	-0.004875
1169	5.8400e-01	8.3160	19.148418	0.000222	2.223940	0.376746	-0.004447
1170	5.8450e-01	8.3060	19.113781	0.000346	3.464214	0.586854	-0.006928
1171	5.8500e-01	8.2965	19.074439	0.000393	3.934663	0.666550	-0.007868
1172	5.8550e-01	8.2855	19.053913	0.000205	2.052868	0.347765	-0.004105
1173	5.8600e-01	8.2764	19.026545	0.000274	2.737157	0.463687	-0.005474
1174	5.8650e-01	8.2666	18.996184	0.000304	3.036533	0.514403	-0.006072
1175	5.8700e-01	8.2544	18.957270	0.000389	3.891895	0.659305	-0.007783
1176	5.8750e-01	8.2483	18.934606	0.000227	2.266708	0.383991	-0.004533
1177	5.8800e-01	8.2358	18.888850	0.000458	4.576184	0.775227	-0.009151
1178	5.8850e-01	8.2257	18.866613	0.000222	2.223940	0.376746	-0.004447
1179	5.8900e-01	8.2156	18.833259	0.000334	3.335910	0.565118	-0.006671
1180	5.8950e-01	8.2086	18.802042	0.000312	3.122069	0.528893	-0.006243
1181	5.9000e-01	8.1964	18.770825	0.000312	3.122069	0.528893	-0.006243
1182	5.9050e-01	8.1866	18.743885	0.000269	2.694389	0.456442	-0.005388
1183	5.9100e-01	8.1757	18.721221	0.000227	2.266708	0.383991	-0.004533
1184	5.9150e-01	8.1671	18.678458	0.000428	4.276807	0.724511	-0.008553
1185	5.9200e-01	8.1569	18.649807	0.000287	2.865461	0.485422	-0.005730
1186	5.9250e-01	8.1464	18.613032	0.000368	3.678054	0.623079	-0.007355
1187	5.9300e-01	8.1378	18.579249	0.000338	3.378678	0.572364	-0.006756
1188	5.9350e-01	8.1268	18.557868	0.000214	2.138404	0.362255	-0.004276
1189	5.9400e-01	8.1172	18.519809	0.000381	3.806359	0.644815	-0.007612
1190	5.9450e-01	8.1049	18.492869	0.000269	2.694389	0.456442	-0.005388
1191	5.9500e-01	8.0963	18.451817	0.000411	4.105735	0.695530	-0.008210
1192	5.9550e-01	8.0853	18.425304	0.000265	2.651621	0.449197	-0.005303
1193	5.9600e-01	8.0783	18.399219	0.000261	2.608853	0.441952	-0.005217
1194	5.9650e-01	8.0673	18.364154	0.000351	3.506982	0.594099	-0.007013
1195	5.9700e-01	8.0568	18.331226	0.000329	3.293142	0.557873	-0.006585
1196	5.9750e-01	8.0472	18.298727	0.000325	3.250374	0.550628	-0.006500
1197	5.9800e-01	8.0365	18.262806	0.000359	3.592518	0.608589	-0.007184
1198	5.9850e-01	8.0267	18.236294	0.000265	2.651621	0.449197	-0.005303
1199	5.9900e-01	8.0170	18.205077	0.000312	3.122069	0.528893	-0.006243
1200	5.9950e-01	8.0066	18.175998	0.000291	2.908229	0.492667	-0.005816
1201	6.0000e-01	7.9962	18.149913	0.000261	2.608853	0.441952	-0.005217
1202	6.0050e-01	7.9877	18.108006	0.000419	4.191271	0.710021	-0.008381
1203	6.0100e-01	7.9791	18.073796	0.000342	3.421446	0.579609	-0.006842
1204	6.0150e-01	7.9651	18.048994	0.000248	2.480548	0.420216	-0.004960
1205	6.0200e-01	7.9559	18.017777	0.000312	3.122069	0.528893	-0.006243
1206	6.0250e-01	7.9529	17.975442	0.000423	4.234039	0.717266	-0.008467
1207	6.0300e-01	7.9373	17.950640	0.000248	2.480548	0.420216	-0.004960
1208	6.0350e-01	7.9236	17.918996	0.000316	3.164838	0.536138	-0.006329
1209	6.0400e-01	7.9144	17.874950	0.000441	4.405112	0.746246	-0.008809
1210	6.0450e-01	7.9062	17.855280	0.000197	1.967331	0.333275	-0.003934
1211	6.0500e-01	7.8986	17.823208	0.000321	3.207606	0.543383	-0.006414
1212	6.0550e-01	7.8882	17.794129	0.000291	2.908229	0.492667	-0.005816
1213	6.0600e-01	7.8769	17.759491	0.000346	3.464214	0.586854	-0.006928
1214	6.0650e-01	7.8668	17.726992	0.000325	3.250374	0.550628	-0.006500
1215	6.0700e-01	7.8561	17.700479	0.000265	2.651621	0.449197	-0.005303
1216	6.0750e-01	7.8479	17.664131	0.000364	3.635286	0.615834	-0.007270
1217	6.0800e-01	7.8351	17.632487	0.000316	3.164838	0.536138	-0.006329
1218	6.0850e-01	7.8271	17.595283	0.000372	3.720822	0.630324	-0.007441
1219	6.0900e-01	7.8162	17.573474	0.000218	2.181172	0.369501	-0.004362
1220	6.0950e-01	7.8082	17.535416	0.000381	3.806359	0.644815	-0.007612
1221	6.1000e-01	7.7960	17.507620	0.000278	2.779925	0.470932	-0.005559
1222	6.1050e-01	7.7844	17.469134	0.000385	3.849127	0.652060	-0.007697
1223	6.1100e-01	7.7759	17.435352	0.000338	3.378678	0.572364	-0.006756
1224	6.1150e-01	7.7667	17.403280	0.000321	3.207606	0.543383	-0.006414
1225	6.1200e-01	7.7545	17.374201	0.000291	2.908229	0.492667	-0.005816
1226	6.1250e-01	7.7478	17.335287	0.000389	3.891895	0.659305	-0.007783
1227	6.1300e-01	7.7374	17.309630	0.000257	2.566084	0.434706	-0.005132
1228	6.1350e-01	7.7277	17.276275	0.000334	3.335910	0.565118	-0.006671
1229	6.1400e-01	7.7179	17.243775	0.000325	3.250374	0.550628	-0.006500
1230	6.1450e-01	7.7057	17.211276	0.000325	3.250374	0.550628	-0.006500
1231	6.1500e-01	7.6978	17.179632	0.000316	3.164838	0.536138	-0.006329
1232	6.1550e-01	7.6843	17.147987	0.000316	3.164838	0.536138	-0.006329
1233	6.1600e-01	7.6764	17.108646	0.000393	3.934663	0.666550	-0.007868
1234	6.1650e-01	7.6672	17.078284	0.000304	3.036533	0.514403	-0.006072
1235	6.1700e-01	7.6587	17.044502	0.000338	3.378678	0.572364	-0.006756
1236	6.1750e-01	7.6471	17.012858	0.000316	3.164838	0.536138	-0.006329
1237	6.1800e-01	7.6367	16.976937	0.000359	3.592518	0.608589	-0.007184
1238	6.1850e-01	7.6270	16.951707	0.000252	2.523316	0.427461	-0.005046
1239	6.1900e-01	7.6169	16.914076	0.000376	3.763591	0.637569	-0.007526
1240	6.1950e-01	7.6068	16.868320	0.000458	4.576184	0.775227	-0.009151
1241	6.2000e-01	7.5970	16.849077	0.000192	1.924563	0.326030	-0.003849
1242	6.2050e-01	7.5873	16.819571	0.000295	2.950997	0.499912	-0.005901
1243	6.2100e-01	7.5769	16.772532	0.000470	4.704488	0.796962	-0.009408
1244	6.2150e-01	7.5659	16.752006	0.000205	2.052868	0.347765	-0.004105
1245	6.2200e-01	7.5531	16.719079	0.000329	3.293142	0.557873	-0.006585
1246	6.2250e-01	7.5464	16.680165	0.000389	3.891895	0.659305	-0.007783
1247	6.2300e-01	7.5372	16.651514	0.000287	2.865461	0.485422	-0.005730
1248	6.2350e-01	7.5250	16.622436	0.000291	2.908229	0.492667	-0.005816
1249	6.2400e-01	7.5153	16.588226	0.000342	3.421446	0.579609	-0.006842
1250	6.2450e-01	7.5073	16.542042	0.000462	4.618952	0.782472	-0.009237
1251	6.2500e-01	7.4951	16.524082	0.000180	1.796259	0.304295	-0.003592
1252	6.2550e-01	7.4872	16.487734	0.000364	3.635286	0.615834	-0.007270
1253	6.2600e-01	7.4768	16.460366	0.000274	2.737157	0.463687	-0.005474
1254	6.2650e-01	7.4673	16.421024	0.000393	3.934663	0.666550	-0.007868
1255	6.2700e-01	7.4573	16.377834	0.000432	4.319576	0.731756	-0.008638
1256	6.2750e-01	7.4451	16.357308	0.000205	2.052868	0.347765	-0.004105
1257	6.2800e-01	7.4353	16.323526	0.000338	3.378678	0.572364	-0.006756
1258	6.2850e-01	7.4280	16.281191	0.000423	4.234039	0.717266	-0.008467
1259	6.2900e-01	7.4165	16.261948	0.000192	1.924563	0.326030	-0.003849
1260	6.2950e-01	7.4049	16.217475	0.000445	4.447880	0.753491	-0.008895
1261	6.3000e-01	7.3956	16.184975	0.000325	3.250374	0.550628	-0.006500
1262	6.3050e-01	7.3859	16.152048	0.000329	3.293142	0.557873	-0.006585
1263	6.3100e-01	7.3785	16.129812	0.000222	2.223940	0.376746	-0.004447
1264	6.3150e-01	7.3676	16.083628	0.000462	4.618952	0.782472	-0.009237
1265	6.3200e-01	7.3578	16.045997	0.000376	3.763591	0.637569	-0.007526
1266	6.3250e-01	7.3474	16.019057	0.000269	2.694389	0.456442	-0.005388
1267	6.3300e-01	7.3364	15.987840	0.000312	3.122069	0.528893	-0.006243
1268	6.3350e-01	7.3254	15.957051	0.000308	3.079301	0.521648	-0.006158
1269	6.3400e-01	7.3177	15.918992	0.000381	3.806359	0.644815	-0.007612
1270	6.3450e-01	7.3065	15.880078	0.000389	3.891895	0.659305	-0.007783
1271	6.3500e-01	7.2992	15.831757	0.000483	4.832792	0.818697	-0.009664
1272	6.3550e-01	7.2864	15.811658	0.000201	2.010100	0.340520	-0.004020
1273	6.3600e-01	7.2775	15.789422	0.000222	2.223940	0.376746	-0.004447
1274	6.3650e-01	7.2668	15.750508	0.000389	3.891895	0.659305	-0.007783
1275	6.3700e-01	7.2552	15.711594	0.000389	3.891895	0.659305	-0.007783
1276	6.3750e-01	7.2473	15.682516	0.000291	2.908229	0.492667	-0.005816
1277	6.3800e-01	7.2369	15.647023	0.000355	3.549750	0.601344	-0.007099
1278	6.3850e-01	7.2272	15.616234	0.000308	3.079301	0.521648	-0.006158
1279	6.3900e-01	7.2192	15.574326	0.000419	4.191271	0.710021	-0.008381
1280	6.3950e-01	7.2058	15.543110	0.000312	3.122069	0.528893	-0.006243
1281	6.4000e-01	7.1982	15.498209	0.000449	4.490648	0.760736	-0.008980
1282	6.4050e-01	7.1878	15.475973	0.000222	2.223940	0.376746	-0.004447
1283	6.4100e-01	7.1771	15.444328	0.000316	3.164838	0.536138	-0.006329
1284	6.4150e-01	7.1667	15.412256	0.000321	3.207606	0.543383	-0.006414
1285	6.4200e-01	7.1552	15.377619	0.000346	3.464214	0.586854	-0.006928
1286	6.4250e-01	7.1478	15.338705	0.000389	3.891895	0.659305	-0.007783
1287	6.4300e-01	7.1387	15.300646	0.000381	3.806359	0.644815	-0.007612
1288	6.4350e-01	7.1268	15.273278	0.000274	2.737157	0.463687	-0.005474
1289	6.4400e-01	7.1191	15.232226	0.000411	4.105735	0.695530	-0.008210
1290	6.4450e-01	7.1045	15.209990	0.000222	2.223940	0.376746	-0.004447
1291	6.4500e-01	7.0966	15.173214	0.000368	3.678054	0.623079	-0.007355
1292	6.4550e-01	7.0874	15.133872	0.000393	3.934663	0.666550	-0.007868
1293	6.4600e-01	7.0752	15.096241	0.000376	3.763591	0.637569	-0.007526
1294	6.4650e-01	7.0662	15.064597	0.000316	3.164838	0.536138	-0.006329
1295	6.4700e-01	7.0581	15.032953	0.000316	3.164838	0.536138	-0.006329
1296	6.4750e-01	7.0453	14.987197	0.000458	4.576184	0.775227	-0.009151
1297	6.4800e-01	7.0374	14.959401	0.000278	2.779925	0.470932	-0.005559
1298	6.4850e-01	7.0270	14.930323	0.000291	2.908229	0.492667	-0.005816
1299	6.4900e-01	7.0172	14.891409	0.000389	3.891895	0.659305	-0.007783
1300	6.4950e-01	7.0105	14.861475	0.000299	2.993765	0.507158	-0.005987
1301	6.5000e-01	6.9949	14.825127	0.000364	3.635286	0.615834	-0.007270
1302	6.5050e-01	6.9870	14.785358	0.000398	3.977431	0.673795	-0.007954
1303	6.5100e-01	6.9748	14.755424	0.000299	2.993765	0.507158	-0.005987
1304	6.5150e-01	6.9641	14.721214	0.000342	3.421446	0.579609	-0.006842
1305	6.5200e-01	6.9556	14.691708	0.000295	2.950997	0.499912	-0.005901
1306	6.5250e-01	6.9479	14.650228	0.000415	4.148503	0.702775	-0.008296
1307	6.5300e-01	6.9336	14.619867	0.000304	3.036533	0.514403	-0.006072
1308	6.5350e-01	6.9269	14.586512	0.000334	3.335910	0.565118	-0.006671
1309	6.5400e-01	6.9177	14.547598	0.000389	3.891895	0.659305	-0.007783
1310	6.5450e-01	6.9070	14.512960	0.000346	3.464214	0.586854	-0.006928
1311	6.5500e-01	6.8945	14.474046	0.000389	3.891895	0.659305	-0.007783
1312	6.5550e-01	6.8854	14.442830	0.000312	3.122069	0.528893	-0.006243
1313	6.5600e-01	6.8759	14.410758	0.000321	3.207606	0.543383	-0.006414
1314	6.5650e-01	6.8677	14.372272	0.000385	3.849127	0.652060	-0.007697
1315	6.5700e-01	6.8585	14.339345	0.000329	3.293142	0.557873	-0.006585
1316	6.5750e-01	6.8460	14.298292	0.000411	4.105735	0.695530	-0.008210
1317	6.5800e-01	6.8359	14.269214	0.000291	2.908229	0.492667	-0.005816
1318	6.5850e-01	6.8286	14.235432	0.000338	3.378678	0.572364	-0.006756
1319	6.5900e-01	6.8170	14.196945	0.000385	3.849127	0.652060	-0.007697
1320	6.5950e-01	6.8060	14.165301	0.000316	3.164838	0.536138	-0.006329
1321	6.6000e-01	6.7957	14.129381	0.000359	3.592518	0.608589	-0.007184
1322	6.6050e-01	6.7859	14.090894	0.000385	3.849127	0.652060	-0.007697
1323	6.6100e-01	6.7761	14.054974	0.000359	3.592518	0.608589	-0.007184
1324	6.6150e-01	6.7661	14.015632	0.000393	3.934663	0.666550	-0.007868
1325	6.6200e-01	6.7557	13.986126	0.000295	2.950997	0.499912	-0.005901
1326	6.6250e-01	6.7487	13.943791	0.000423	4.234039	0.717266	-0.008467
1327	6.6300e-01	6.7377	13.911719	0.000321	3.207606	0.543383	-0.006414
1328	6.6350e-01	6.7255	13.874088	0.000376	3.763591	0.637569	-0.007526
1329	6.6400e-01	6.7188	13.845010	0.000291	2.908229	0.492667	-0.005816
1330	6.6450e-01	6.7056	13.801820	0.000432	4.319576	0.731756	-0.008638
1331	6.6500e-01	6.6998	13.773169	0.000287	2.865461	0.485422	-0.005730
1332	6.6550e-01	6.6846	13.734255	0.000389	3.891895	0.659305	-0.007783
1333	6.6600e-01	6.6760	13.696624	0.000376	3.763591	0.637569	-0.007526
1334	6.6650e-01	6.6666	13.664979	0.000316	3.164838	0.536138	-0.006329
1335	6.6700e-01	6.6580	13.631197	0.000338	3.378678	0.572364	-0.006756
1336	6.6750e-01	6.6455	13.591000	0.000402	4.020199	0.681040	-0.008039
1337	6.6800e-01	6.6418	13.563205	0.000278	2.779925	0.470932	-0.005559
1338	6.6850e-01	6.6254	13.523008	0.000402	4.020199	0.681040	-0.008039
1339	6.6900e-01	6.6159	13.488798	0.000342	3.421446	0.579609	-0.006842
1340	6.6950e-01	6.6052	13.446891	0.000419	4.191271	0.710021	-0.008381
1341	6.7000e-01	6.5955	13.416957	0.000299	2.993765	0.507158	-0.005987
1342	6.7050e-01	6.5860	13.377615	0.000393	3.934663	0.666550	-0.007868
1343	6.7100e-01	6.5735	13.348964	0.000287	2.865461	0.485422	-0.005730
1344	6.7150e-01	6.5649	13.304919	0.000441	4.405112	0.746246	-0.008809
1345	6.7200e-01	6.5573	13.263867	0.000411	4.105735	0.695530	-0.008210
1346	6.7250e-01	6.5430	13.231795	0.000321	3.207606	0.543383	-0.006414
1347	6.7300e-01	6.5363	13.197585	0.000342	3.421446	0.579609	-0.006842
1348	6.7350e-01	6.5254	13.160809	0.000368	3.678054	0.623079	-0.007355
1349	6.7400e-01	6.5161	13.134724	0.000261	2.608853	0.441952	-0.005217
1350	6.7450e-01	6.5065	13.088968	0.000458	4.576184	0.775227	-0.009151
1351	6.7500e-01	6.4954	13.046206	0.000428	4.276807	0.724511	-0.008553
1352	6.7550e-01	6.4868	13.013279	0.000329	3.293142	0.557873	-0.006585
1353	6.7600e-01	6.4758	12.981207	0.000321	3.207606	0.543383	-0.006414
1354	6.7650e-01	6.4673	12.950845	0.000304	3.036533	0.514403	-0.006072
1355	6.7700e-01	6.4539	12.900385	0.000505	5.046633	0.854923	-0.010092
1356	6.7750e-01	6.4438	12.880715	0.000197	1.967331	0.333275	-0.003934
1357	6.7800e-01	6.4377	12.839235	0.000415	4.148503	0.702775	-0.008296
1358	6.7850e-01	6.4264	12.800321	0.000389	3.891895	0.659305	-0.007783
1359	6.7900e-01	6.4172	12.763973	0.000364	3.635286	0.615834	-0.007270
1360	6.7950e-01	6.4087	12.721638	0.000423	4.234039	0.717266	-0.008467
1361	6.8000e-01	6.3953	12.691704	0.000299	2.993765	0.507158	-0.005987
1362	6.8050e-01	6.3873	12.653218	0.000385	3.849127	0.652060	-0.007697
1363	6.8100e-01	6.3751	12.619436	0.000338	3.378678	0.572364	-0.006756
1364	6.8150e-01	6.3696	12.585226	0.000342	3.421446	0.579609	-0.006842
1365	6.8200e-01	6.3593	12.544601	0.000406	4.062967	0.688285	-0.008125
1366	6.8250e-01	6.3483	12.510391	0.000342	3.421446	0.579609	-0.006842
1367	6.8300e-01	6.3367	12.473188	0.000372	3.720822	0.630324	-0.007441
1368	6.8350e-01	6.3281	12.432563	0.000406	4.062967	0.688285	-0.008125
1369	6.8400e-01	6.3159	12.402630	0.000299	2.993765	0.507158	-0.005987
1370	6.8450e-01	6.3068	12.359012	0.000436	4.362344	0.739001	-0.008724
1371	6.8500e-01	6.2946	12.313684	0.000453	4.533416	0.767981	-0.009066
1372	6.8550e-01	6.2857	12.292302	0.000214	2.138404	0.362255	-0.004276
1373	6.8600e-01	6.2744	12.260658	0.000316	3.164838	0.536138	-0.006329
1374	6.8650e-01	6.2653	12.224310	0.000364	3.635286	0.615834	-0.007270
1375	6.8700e-01	6.2555	12.189245	0.000351	3.506982	0.594099	-0.007013
1376	6.8750e-01	6.2451	12.145199	0.000441	4.405112	0.746246	-0.008809
1377	6.8800e-01	6.2369	12.108423	0.000368	3.678054	0.623079	-0.007355
1378	6.8850e-01	6.2262	12.073358	0.000351	3.506982	0.594099	-0.007013
1379	6.8900e-01	6.2158	12.037865	0.000355	3.549750	0.601344	-0.007099
1380	6.8950e-01	6.2080	11.989544	0.000483	4.832792	0.818697	-0.009664
1381	6.9000e-01	6.2000	11.961748	0.000278	2.779925	0.470932	-0.005559
1382	6.9050e-01	6.1877	11.921551	0.000402	4.020199	0.681040	-0.008039
1383	6.9100e-01	6.1774	11.879644	0.000419	4.191271	0.710021	-0.008381
1384	6.9150e-01	6.1652	11.850565	0.000291	2.908229	0.492667	-0.005816
1385	6.9200e-01	6.1591	11.809941	0.000406	4.062967	0.688285	-0.008125
1386	6.9250e-01	6.1487	11.772738	0.000372	3.720822	0.630324	-0.007441
1387	6.9300e-01	6.1365	11.728692	0.000441	4.405112	0.746246	-0.008809
1388	6.9350e-01	6.1255	11.708166	0.000205	2.052868	0.347765	-0.004105
1389	6.9400e-01	6.1182	11.664121	0.000441	4.405112	0.746246	-0.008809
1390	6.9450e-01	6.1084	11.625635	0.000385	3.849127	0.652060	-0.007697
1391	6.9500e-01	6.0968	11.586721	0.000389	3.891895	0.659305	-0.007783
1392	6.9550e-01	6.0864	11.555932	0.000308	3.079301	0.521648	-0.006158
1393	6.9600e-01	6.0773	11.509748	0.000462	4.618952	0.782472	-0.009237
1394	6.9650e-01	6.0675	11.477249	0.000325	3.250374	0.550628	-0.006500
1395	6.9700e-01	6.0602	11.445604	0.000316	3.164838	0.536138	-0.006329
1396	6.9750e-01	6.0464	11.408829	0.000368	3.678054	0.623079	-0.007355
1397	6.9800e-01	6.0367	11.367776	0.000411	4.105735	0.695530	-0.008210
1398	6.9850e-01	6.0284	11.334849	0.000329	3.293142	0.557873	-0.006585
1399	6.9900e-01	6.0156	11.286100	0.000488	4.875560	0.825942	-0.009750
1400	6.9950e-01	6.0066	11.259160	0.000269	2.694389	0.456442	-0.005388
1401	7.0000e-01	5.9952	11.221956	0.000372	3.720822	0.630324	-0.007441
1402	7.0050e-01	5.9854	11.177911	0.000441	4.405112	0.746246	-0.008809
1403	7.0100e-01	5.9766	11.142418	0.000355	3.549750	0.601344	-0.007099
1404	7.0150e-01	5.9683	11.094096	0.000483	4.832792	0.818697	-0.009664
1405	7.0200e-01	5.9589	11.065873	0.000282	2.822693	0.478177	-0.005645
1406	7.0250e-01	5.9479	11.031663	0.000342	3.421446	0.579609	-0.006842
1407	7.0300e-01	5.9363	10.985052	0.000466	4.661720	0.789717	-0.009322
1408	7.0350e-01	5.9247	10.952980	0.000321	3.207606	0.543383	-0.006414
1409	7.0400e-01	5.9158	10.918770	0.000342	3.421446	0.579609	-0.006842
1410	7.0450e-01	5.9119	10.880284	0.000385	3.849127	0.652060	-0.007697
1411	7.0500e-01	5.8984	10.830679	0.000496	4.961097	0.840433	-0.009921
1412	7.0550e-01	5.8890	10.802884	0.000278	2.779925	0.470932	-0.005559
1413	7.0600e-01	5.8755	10.762259	0.000406	4.062967	0.688285	-0.008125
1414	7.0650e-01	5.8664	10.728049	0.000342	3.421446	0.579609	-0.006842
1415	7.0700e-01	5.8551	10.690418	0.000376	3.763591	0.637569	-0.007526
1416	7.0750e-01	5.8463	10.651932	0.000385	3.849127	0.652060	-0.007697
1417	7.0800e-01	5.8395	10.611735	0.000402	4.020199	0.681040	-0.008039
1418	7.0850e-01	5.8282	10.571538	0.000402	4.020199	0.681040	-0.008039
1419	7.0900e-01	5.8206	10.536045	0.000355	3.549750	0.601344	-0.007099
1420	7.0950e-01	5.8081	10.490717	0.000453	4.533416	0.767981	-0.009066
1421	7.1000e-01	5.7971	10.447955	0.000428	4.276807	0.724511	-0.008553
1422	7.1050e-01	5.7858	10.424863	0.000231	2.309476	0.391236	-0.004618
1423	7.1100e-01	5.7819	10.376541	0.000483	4.832792	0.818697	-0.009664
1424	7.1150e-01	5.7678	10.335061	0.000415	4.148503	0.702775	-0.008296
1425	7.1200e-01	5.7587	10.304272	0.000308	3.079301	0.521648	-0.006158
1426	7.1250e-01	5.7471	10.266641	0.000376	3.763591	0.637569	-0.007526
1427	7.1300e-01	5.7355	10.233287	0.000334	3.335910	0.565118	-0.006671
1428	7.1350e-01	5.7263	10.192662	0.000406	4.062967	0.688285	-0.008125
1429	7.1400e-01	5.7196	10.156742	0.000359	3.592518	0.608589	-0.007184
1430	7.1450e-01	5.7135	10.113124	0.000436	4.362344	0.739001	-0.008724
1431	7.1500e-01	5.6961	10.074638	0.000385	3.849127	0.652060	-0.007697
1432	7.1550e-01	5.6863	10.044276	0.000304	3.036533	0.514403	-0.006072
1433	7.1600e-01	5.6750	10.001514	0.000428	4.276807	0.724511	-0.008553
1434	7.1650e-01	5.6653	9.955330	0.000462	4.618952	0.782472	-0.009237
1435	7.1700e-01	5.6586	9.922403	0.000329	3.293142	0.557873	-0.006585
1436	7.1750e-01	5.6476	9.880496	0.000419	4.191271	0.710021	-0.008381
1437	7.1800e-01	5.6369	9.845003	0.000355	3.549750	0.601344	-0.007099
1438	7.1850e-01	5.6264	9.806517	0.000385	3.849127	0.652060	-0.007697
1439	7.1900e-01	5.6177	9.769313	0.000372	3.720822	0.630324	-0.007441
1440	7.1950e-01	5.6067	9.730827	0.000385	3.849127	0.652060	-0.007697
1441	7.2000e-01	5.5969	9.694479	0.000364	3.635286	0.615834	-0.007270
1442	7.2050e-01	5.5890	9.650006	0.000445	4.447880	0.753491	-0.008895
1443	7.2100e-01	5.5750	9.595697	0.000543	5.431545	0.920129	-0.010862
1444	7.2150e-01	5.5672	9.576882	0.000188	1.881795	0.318785	-0.003763
1445	7.2200e-01	5.5560	9.531554	0.000453	4.533416	0.767981	-0.009066
1446	7.2250e-01	5.5481	9.495205	0.000364	3.635286	0.615834	-0.007270
1447	7.2300e-01	5.5365	9.457574	0.000376	3.763591	0.637569	-0.007526
1448	7.2350e-01	5.5281	9.419516	0.000381	3.806359	0.644815	-0.007612
1449	7.2400e-01	5.5151	9.380174	0.000393	3.934663	0.666550	-0.007868
1450	7.2450e-01	5.5057	9.361359	0.000188	1.881795	0.318785	-0.003763
1451	7.2500e-01	5.4971	9.304057	0.000573	5.730922	0.970844	-0.011460
1452	7.2550e-01	5.4865	9.264288	0.000398	3.977431	0.673795	-0.007954
1453	7.2600e-01	5.4773	9.224946	0.000393	3.934663	0.666550	-0.007868
1454	7.2650e-01	5.4678	9.189026	0.000359	3.592518	0.608589	-0.007184
1455	7.2700e-01	5.4572	9.136855	0.000522	5.217705	0.883903	-0.010434
1456	7.2750e-01	5.4449	9.098797	0.000381	3.806359	0.644815	-0.007612
1457	7.2800e-01	5.4364	9.064587	0.000342	3.421446	0.579609	-0.006842
1458	7.2850e-01	5.4272	9.022679	0.000419	4.191271	0.710021	-0.008381
1459	7.2900e-01	5.4141	8.992746	0.000299	2.993765	0.507158	-0.005987
1460	7.2950e-01	5.4089	8.949128	0.000436	4.362344	0.739001	-0.008724
1461	7.3000e-01	5.3967	8.911069	0.000381	3.806359	0.644815	-0.007612
1462	7.3050e-01	5.3879	8.867024	0.000441	4.405112	0.746246	-0.008809
1463	7.3100e-01	5.3760	8.829393	0.000376	3.763591	0.637569	-0.007526
1464	7.3150e-01	5.3659	8.789196	0.000402	4.020199	0.681040	-0.008039
1465	7.3200e-01	5.3580	8.748999	0.000402	4.020199	0.681040	-0.008039
1466	7.3250e-01	5.3473	8.704099	0.000449	4.490648	0.760736	-0.008980
1467	7.3300e-01	5.3384	8.662191	0.000419	4.191271	0.710021	-0.008381
1468	7.3350e-01	5.3259	8.636106	0.000261	2.608853	0.441952	-0.005217
1469	7.3400e-01	5.3134	8.589495	0.000466	4.661720	0.789717	-0.009322
1470	7.3450e-01	5.3082	8.544594	0.000449	4.490648	0.760736	-0.008980
1471	7.3500e-01	5.2985	8.512095	0.000325	3.250374	0.550628	-0.006500
1472	7.3550e-01	5.2881	8.467194	0.000449	4.490648	0.760736	-0.008980
1473	7.3600e-01	5.2765	8.424004	0.000432	4.319576	0.731756	-0.008638
1474	7.3650e-01	5.2676	8.392787	0.000312	3.122069	0.528893	-0.006243
1475	7.3700e-01	5.2567	8.353446	0.000393	3.934663	0.666550	-0.007868
1476	7.3750e-01	5.2460	8.310683	0.000428	4.276807	0.724511	-0.008553
1477	7.3800e-01	5.2374	8.257230	0.000535	5.346009	0.905638	-0.010691
1478	7.3850e-01	5.2272	8.231573	0.000257	2.566084	0.434706	-0.005132
1479	7.3900e-01	5.2173	8.185389	0.000462	4.618952	0.782472	-0.009237
1480	7.3950e-01	5.2026	8.153745	0.000316	3.164838	0.536138	-0.006329
1481	7.4000e-01	5.1971	8.107134	0.000466	4.661720	0.789717	-0.009322
1482	7.4050e-01	5.1868	8.075917	0.000312	3.122069	0.528893	-0.006243
1483	7.4100e-01	5.1788	8.029306	0.000466	4.661720	0.789717	-0.009322
1484	7.4150e-01	5.1672	7.977991	0.000513	5.132169	0.869413	-0.010263
1485	7.4200e-01	5.1553	7.952761	0.000252	2.523316	0.427461	-0.005046
1486	7.4250e-01	5.1465	7.903584	0.000492	4.918329	0.833187	-0.009835
1487	7.4300e-01	5.1361	7.868091	0.000355	3.549750	0.601344	-0.007099
1488	7.4350e-01	5.1273	7.830033	0.000381	3.806359	0.644815	-0.007612
1489	7.4400e-01	5.1141	7.786415	0.000436	4.362344	0.739001	-0.008724
1490	7.4450e-01	5.1064	7.746218	0.000402	4.020199	0.681040	-0.008039
1491	7.4500e-01	5.0977	7.707304	0.000389	3.891895	0.659305	-0.007783
1492	7.4550e-01	5.0882	7.670528	0.000368	3.678054	0.623079	-0.007355
1493	7.4600e-01	5.0777	7.618786	0.000517	5.174937	0.876658	-0.010349
1494	7.4650e-01	5.0647	7.585003	0.000338	3.378678	0.572364	-0.006756
1495	7.4700e-01	5.0580	7.548655	0.000364	3.635286	0.615834	-0.007270
1496	7.4750e-01	5.0458	7.500334	0.000483	4.832792	0.818697	-0.009664
1497	7.4800e-01	5.0360	7.458426	0.000419	4.191271	0.710021	-0.008381
1498	7.4850e-01	5.0275	7.427637	0.000308	3.079301	0.521648	-0.006158
1499	7.4900e-01	5.0168	7.381454	0.000462	4.618952	0.782472	-0.009237
1500	7.4950e-01	5.0081	7.343395	0.000381	3.806359	0.644815	-0.007612
1501	7.5000e-01	4.9957	7.298494	0.000449	4.490648	0.760736	-0.008980
1502	7.5050e-01	4.9872	7.262146	0.000364	3.635286	0.615834	-0.007270
1503	7.5100e-01	4.9786	7.216390	0.000458	4.576184	0.775227	-0.009151
1504	7.5150e-01	4.9689	7.179615	0.000368	3.678054	0.623079	-0.007355
1505	7.5200e-01	4.9580	7.136852	0.000428	4.276807	0.724511	-0.008553
1506	7.5250e-01	4.9448	7.097510	0.000393	3.934663	0.666550	-0.007868
1507	7.5300e-01	4.9390	7.055603	0.000419	4.191271	0.710021	-0.008381
1508	7.5350e-01	4.9255	7.017545	0.000381	3.806359	0.644815	-0.007612
1509	7.5400e-01	4.9136	6.974782	0.000428	4.276807	0.724511	-0.008553
1510	7.5450e-01	4.9081	6.932020	0.000428	4.276807	0.724511	-0.008553
1511	7.5500e-01	4.8984	6.878994	0.000530	5.303241	0.898393	-0.010605
1512	7.5550e-01	4.8853	6.852054	0.000269	2.694389	0.456442	-0.005388
1513	7.5600e-01	4.8761	6.802449	0.000496	4.961097	0.840433	-0.009921
1514	7.5650e-01	4.8657	6.754555	0.000479	4.790024	0.811452	-0.009579
1515	7.5700e-01	4.8572	6.728470	0.000261	2.608853	0.441952	-0.005217
1516	7.5750e-01	4.8465	6.682286	0.000462	4.618952	0.782472	-0.009237
1517	7.5800e-01	4.8380	6.642090	0.000402	4.020199	0.681040	-0.008039
1518	7.5850e-01	4.8248	6.604031	0.000381	3.806359	0.644815	-0.007612
1519	7.5900e-01	4.8157	6.560841	0.000432	4.319576	0.731756	-0.008638
1520	7.5950e-01	4.8050	6.521072	0.000398	3.977431	0.673795	-0.007954
1521	7.6000e-01	4.7983	6.469329	0.000517	5.174937	0.876658	-0.010349
1522	7.6050e-01	4.7864	6.435547	0.000338	3.378678	0.572364	-0.006756
1523	7.6100e-01	4.7729	6.396205	0.000393	3.934663	0.666550	-0.007868
1524	7.6150e-01	4.7670	6.351732	0.000445	4.447880	0.753491	-0.008895
1525	7.6200e-01	4.7559	6.311108	0.000406	4.062967	0.688285	-0.008125
1526	7.6250e-01	4.7458	6.262786	0.000483	4.832792	0.818697	-0.009664
1527	7.6300e-01	4.7354	6.222589	0.000402	4.020199	0.681040	-0.008039
1528	7.6350e-01	4.7284	6.182820	0.000398	3.977431	0.673795	-0.007954
1529	7.6400e-01	4.7177	6.137919	0.000449	4.490648	0.760736	-0.008980
1530	7.6450e-01	4.7046	6.101144	0.000368	3.678054	0.623079	-0.007355
1531	7.6500e-01	4.6957	6.054105	0.000470	4.704488	0.796962	-0.009408
1532	7.6550e-01	4.6841	6.028020	0.000261	2.608853	0.441952	-0.005217
1533	7.6600e-01	4.6771	5.973284	0.000547	5.474314	0.927374	-0.010947
1534	7.6650e-01	4.6677	5.934370	0.000389	3.891895	0.659305	-0.007783
1535	7.6700e-01	4.6555	5.890324	0.000441	4.405112	0.746246	-0.008809
1536	7.6750e-01	4.6466	5.833450	0.000569	5.688154	0.963599	-0.011375
1537	7.6800e-01	4.6362	5.805655	0.000278	2.779925	0.470932	-0.005559
1538	7.6850e-01	4.6301	5.757761	0.000479	4.790024	0.811452	-0.009579
1539	7.6900e-01	4.6179	5.715853	0.000419	4.191271	0.710021	-0.008381
1540	7.6950e-01	4.6055	5.673091	0.000428	4.276807	0.724511	-0.008553
1541	7.7000e-01	4.5959	5.637170	0.000359	3.592518	0.608589	-0.007184
1542	7.7050e-01	4.5862	5.598256	0.000389	3.891895	0.659305	-0.007783
1543	7.7100e-01	4.5760	5.545231	0.000530	5.303241	0.898393	-0.010605
1544	7.7150e-01	4.5651	5.513159	0.000321	3.207606	0.543383	-0.006414
1545	7.7200e-01	4.5557	5.463982	0.000492	4.918329	0.833187	-0.009835
1546	7.7250e-01	4.5471	5.429772	0.000342	3.421446	0.579609	-0.006842
1547	7.7300e-01	4.5355	5.374181	0.000556	5.559850	0.941864	-0.011118
1548	7.7350e-01	4.5270	5.332273	0.000419	4.191271	0.710021	-0.008381
1549	7.7400e-01	4.5197	5.295925	0.000364	3.635286	0.615834	-0.007270
1550	7.7450e-01	4.5056	5.254873	0.000411	4.105735	0.695530	-0.008210
1551	7.7500e-01	4.4934	5.215532	0.000393	3.934663	0.666550	-0.007868
1552	7.7550e-01	4.4856	5.162079	0.000535	5.346009	0.905638	-0.010691
1553	7.7600e-01	4.4745	5.124020	0.000381	3.806359	0.644815	-0.007612
1554	7.7650e-01	4.4659	5.084678	0.000393	3.934663	0.666550	-0.007868
1555	7.7700e-01	4.4562	5.029942	0.000547	5.474314	0.927374	-0.010947
1556	7.7750e-01	4.4465	4.993167	0.000368	3.678054	0.623079	-0.007355
1557	7.7800e-01	4.4368	4.953825	0.000393	3.934663	0.666550	-0.007868
1558	7.7850e-01	4.4238	4.908924	0.000449	4.490648	0.760736	-0.008980
1559	7.7900e-01	4.4168	4.865307	0.000436	4.362344	0.739001	-0.008724
1560	7.7950e-01	4.4057	4.813564	0.000517	5.174937	0.876658	-0.010349
1561	7.8000e-01	4.3976	4.775933	0.000376	3.763591	0.637569	-0.007526
1562	7.8050e-01	4.3884	4.738729	0.000372	3.720822	0.630324	-0.007441
1563	7.8100e-01	4.3771	4.688270	0.000505	5.046633	0.854923	-0.010092
1564	7.8150e-01	4.3680	4.649356	0.000389	3.891895	0.659305	-0.007783
1565	7.8200e-01	4.3610	4.595047	0.000543	5.431545	0.920129	-0.010862
1566	7.8250e-01	4.3488	4.565541	0.000295	2.950997	0.499912	-0.005901
1567	7.8300e-01	4.3362	4.514226	0.000513	5.132169	0.869413	-0.010263
1568	7.8350e-01	4.3251	4.474457	0.000398	3.977431	0.673795	-0.007954
1569	7.8400e-01	4.3219	4.429556	0.000449	4.490648	0.760736	-0.008980
1570	7.8450e-01	4.3042	4.390643	0.000389	3.891895	0.659305	-0.007783
1571	7.8500e-01	4.2958	4.349590	0.000411	4.105735	0.695530	-0.008210
1572	7.8550e-01	4.2841	4.302124	0.000475	4.747256	0.804207	-0.009493
1573	7.8600e-01	4.2764	4.253802	0.000483	4.832792	0.818697	-0.009664
1574	7.8650e-01	4.2670	4.214461	0.000393	3.934663	0.666550	-0.007868
1575	7.8700e-01	4.2603	4.171698	0.000428	4.276807	0.724511	-0.008553
1576	7.8750e-01	4.2463	4.130646	0.000411	4.105735	0.695530	-0.008210
1577	7.8800e-01	4.2371	4.074200	0.000565	5.645386	0.956354	-0.011289
1578	7.8850e-01	4.2249	4.042983	0.000312	3.122069	0.528893	-0.006243
1579	7.8900e-01	4.2160	3.990813	0.000522	5.217705	0.883903	-0.010434
1580	7.8950e-01	4.2084	3.953609	0.000372	3.720822	0.630324	-0.007441
1581	7.9000e-01	4.1971	3.910847	0.000428	4.276807	0.724511	-0.008553
1582	7.9050e-01	4.1874	3.861242	0.000496	4.961097	0.840433	-0.009921
1583	7.9100e-01	4.1763	3.819763	0.000415	4.148503	0.702775	-0.008296
1584	7.9150e-01	4.1669	3.776145	0.000436	4.362344	0.739001	-0.008724
1585	7.9200e-01	4.1573	3.732100	0.000441	4.405112	0.746246	-0.008809
1586	7.9250e-01	4.1480	3.677791	0.000543	5.431545	0.920129	-0.010862
1587	7.9300e-01	4.1351	3.654272	0.000235	2.352244	0.398481	-0.004704
1588	7.9350e-01	4.1264	3.605095	0.000492	4.918329	0.833187	-0.009835
1589	7.9400e-01	4.1159	3.556346	0.000488	4.875560	0.825942	-0.009750
1590	7.9450e-01	4.1069	3.511873	0.000445	4.447880	0.753491	-0.008895
1591	7.9500e-01	4.0984	3.463123	0.000488	4.875560	0.825942	-0.009750
1592	7.9550e-01	4.0857	3.414374	0.000488	4.875560	0.825942	-0.009750
1593	7.9600e-01	4.0781	3.370329	0.000441	4.405112	0.746246	-0.008809
1594	7.9650e-01	4.0674	3.339112	0.000312	3.122069	0.528893	-0.006243
1595	7.9700e-01	4.0573	3.289080	0.000500	5.003865	0.847678	-0.010006
1596	7.9750e-01	4.0466	3.247600	0.000415	4.148503	0.702775	-0.008296
1597	7.9800e-01	4.0363	3.203127	0.000445	4.447880	0.753491	-0.008895
1598	7.9850e-01	4.0274	3.159082	0.000441	4.405112	0.746246	-0.008809
1599	7.9900e-01	4.0173	3.106484	0.000526	5.260473	0.891148	-0.010520
1600	7.9950e-01	4.0051	3.059017	0.000475	4.747256	0.804207	-0.009493
1601	8.0000e-01	3.9978	3.013261	0.000458	4.576184	0.775227	-0.009151
1602	8.0050e-01	3.9868	2.974775	0.000385	3.849127	0.652060	-0.007697
1603	8.0100e-01	3.9759	2.924743	0.000500	5.003865	0.847678	-0.010006
1604	8.0150e-01	3.9688	2.880270	0.000445	4.447880	0.753491	-0.008895
1605	8.0200e-01	3.9575	2.837935	0.000423	4.234039	0.717266	-0.008467
1606	8.0250e-01	3.9459	2.796455	0.000415	4.148503	0.702775	-0.008296
1607	8.0300e-01	3.9380	2.745996	0.000505	5.046633	0.854923	-0.010092
1608	8.0350e-01	3.9270	2.707509	0.000385	3.849127	0.652060	-0.007697
1609	8.0400e-01	3.9194	2.654484	0.000530	5.303241	0.898393	-0.010605
1610	8.0450e-01	3.9059	2.621984	0.000325	3.250374	0.550628	-0.006500
1611	8.0500e-01	3.8983	2.562972	0.000590	5.901994	0.999825	-0.011802
1612	8.0550e-01	3.8869	2.521065	0.000419	4.191271	0.710021	-0.008381
1613	8.0600e-01	3.8763	2.477447	0.000436	4.362344	0.739001	-0.008724
1614	8.0650e-01	3.8675	2.439388	0.000381	3.806359	0.644815	-0.007612
1615	8.0700e-01	3.8545	2.386363	0.000530	5.303241	0.898393	-0.010605
1616	8.0750e-01	3.8481	2.340607	0.000458	4.576184	0.775227	-0.009151
1617	8.0800e-01	3.8359	2.297417	0.000432	4.319576	0.731756	-0.008638
1618	8.0850e-01	3.8248	2.248668	0.000488	4.875560	0.825942	-0.009750
1619	8.0900e-01	3.8165	2.205905	0.000428	4.276807	0.724511	-0.008553
1620	8.0950e-01	3.8052	2.166991	0.000389	3.891895	0.659305	-0.007783
1621	8.1000e-01	3.7953	2.110972	0.000560	5.602618	0.949109	-0.011204
1622	8.1050e-01	3.7863	2.072058	0.000389	3.891895	0.659305	-0.007783
1623	8.1100e-01	3.7759	2.019460	0.000526	5.260473	0.891148	-0.010520
1624	8.1150e-01	3.7680	1.974132	0.000453	4.533416	0.767981	-0.009066
1625	8.1200e-01	3.7595	1.931370	0.000428	4.276807	0.724511	-0.008553
1626	8.1250e-01	3.7460	1.883048	0.000483	4.832792	0.818697	-0.009664
1627	8.1300e-01	3.7392	1.841141	0.000419	4.191271	0.710021	-0.008381
1628	8.1350e-01	3.7269	1.800944	0.000402	4.020199	0.681040	-0.008039
1629	8.1400e-01	3.7177	1.743642	0.000573	5.730922	0.970844	-0.011460
1630	8.1450e-01	3.7070	1.702162	0.000415	4.148503	0.702775	-0.008296
1631	8.1500e-01	3.6972	1.657689	0.000445	4.447880	0.753491	-0.008895
1632	8.1550e-01	3.6862	1.619203	0.000385	3.849127	0.652060	-0.007697
1633	8.1600e-01	3.6787	1.558053	0.000612	6.115835	1.036050	-0.012230
1634	8.1650e-01	3.6667	1.523415	0.000346	3.464214	0.586854	-0.006928
1635	8.1700e-01	3.6554	1.477659	0.000458	4.576184	0.775227	-0.009151
1636	8.1750e-01	3.6481	1.421213	0.000565	5.645386	0.956354	-0.011289
1637	8.1800e-01	3.6357	1.379305	0.000419	4.191271	0.710021	-0.008381
1638	8.1850e-01	3.6261	1.336115	0.000432	4.319576	0.731756	-0.008638
1639	8.1900e-01	3.6166	1.290359	0.000458	4.576184	0.775227	-0.009151
1640	8.1950e-01	3.6057	1.239899	0.000505	5.046633	0.854923	-0.010092
1641	8.2000e-01	3.5962	1.195854	0.000441	4.405112	0.746246	-0.008809
1642	8.2050e-01	3.5872	1.147532	0.000483	4.832792	0.818697	-0.009664
1643	8.2100e-01	3.5760	1.103487	0.000441	4.405112	0.746246	-0.008809
1644	8.2150e-01	3.5648	1.056876	0.000466	4.661720	0.789717	-0.009322
1645	8.2200e-01	3.5556	1.004706	0.000522	5.217705	0.883903	-0.010434
1646	8.2250e-01	3.5461	0.960660	0.000441	4.405112	0.746246	-0.008809
1647	8.2300e-01	3.5399	0.911056	0.000496	4.961097	0.840433	-0.009921
1648	8.2350e-01	3.5291	0.867010	0.000441	4.405112	0.746246	-0.008809
1649	8.2400e-01	3.5175	0.817833	0.000492	4.918329	0.833187	-0.009835
1650	8.2450e-01	3.5072	0.769512	0.000483	4.832792	0.818697	-0.009664
1651	8.2500e-01	3.4998	0.727604	0.000419	4.191271	0.710021	-0.008381
1652	8.2550e-01	3.4859	0.678855	0.000488	4.875560	0.825942	-0.009750
1653	8.2600e-01	3.4721	0.648494	0.000304	3.036533	0.514403	-0.006072
1654	8.2650e-01	3.4647	0.584350	0.000642	6.415211	1.086766	-0.012829
1655	8.2700e-01	3.4584	0.534318	0.000500	5.003865	0.847678	-0.010006
1656	8.2750e-01	3.4479	0.490272	0.000441	4.405112	0.746246	-0.008809
1657	8.2800e-01	3.4369	0.443234	0.000470	4.704488	0.796962	-0.009408
1658	8.2850e-01	3.4246	0.396195	0.000470	4.704488	0.796962	-0.009408
1659	8.2900e-01	3.4195	0.350439	0.000458	4.576184	0.775227	-0.009151
1660	8.2950e-01	3.4082	0.305111	0.000453	4.533416	0.767981	-0.009066
1661	8.3000e-01	3.3966	0.262348	0.000428	4.276807	0.724511	-0.008553
1662	8.3050e-01	3.3862	0.205902	0.000565	5.645386	0.956354	-0.011289
1663	8.3100e-01	3.3775	0.160573	0.000453	4.533416	0.767981	-0.009066
1664	8.3150e-01	3.3658	0.114817	0.000458	4.576184	0.775227	-0.009151
1665	8.3200e-01	3.3565	0.063075	0.000517	5.174937	0.876658	-0.010349
1666	8.3250e-01	3.3466	0.017319	0.000458	4.576184	0.775227	-0.009151
1667	8.3300e-01	3.3362	-0.031003	0.000483	4.832792	0.818697	-0.009664
1668	8.3350e-01	3.3282	-0.078042	0.000470	4.704488	0.796962	-0.009408
1669	8.3400e-01	3.3197	-0.128074	0.000500	5.003865	0.847678	-0.010006
1670	8.3450e-01	3.3073	-0.178106	0.000500	5.003865	0.847678	-0.010006
1671	8.3500e-01	3.2965	-0.218303	0.000402	4.020199	0.681040	-0.008039
1672	8.3550e-01	3.2858	-0.267480	0.000492	4.918329	0.833187	-0.009835
1673	8.3600e-01	3.2741	-0.323499	0.000560	5.602618	0.949109	-0.011204
1674	8.3650e-01	3.2693	-0.370537	0.000470	4.704488	0.796962	-0.009408
1675	8.3700e-01	3.2588	-0.414583	0.000441	4.405112	0.746246	-0.008809
1676	8.3750e-01	3.2501	-0.462477	0.000479	4.790024	0.811452	-0.009579
1677	8.3800e-01	3.2391	-0.514219	0.000517	5.174937	0.876658	-0.010349
1678	8.3850e-01	3.2271	-0.564679	0.000505	5.046633	0.854923	-0.010092
1679	8.3900e-01	3.2141	-0.608297	0.000436	4.362344	0.739001	-0.008724
1680	8.3950e-01	3.2068	-0.653198	0.000449	4.490648	0.760736	-0.008980
1681	8.4000e-01	3.1973	-0.709217	0.000560	5.602618	0.949109	-0.011204
1682	8.4050e-01	3.1830	-0.753690	0.000445	4.447880	0.753491	-0.008895
1683	8.4100e-01	3.1786	-0.800728	0.000470	4.704488	0.796962	-0.009408
1684	8.4150e-01	3.1683	-0.859741	0.000590	5.901994	0.999825	-0.011802
1685	8.4200e-01	3.1567	-0.890957	0.000312	3.122069	0.528893	-0.006243
1686	8.4250e-01	3.1458	-0.949970	0.000590	5.901994	0.999825	-0.011802
1687	8.4300e-01	3.1398	-1.003423	0.000535	5.346009	0.905638	-0.010691
1688	8.4350e-01	3.1262	-1.046185	0.000428	4.276807	0.724511	-0.008553
1689	8.4400e-01	3.1161	-1.091514	0.000453	4.533416	0.767981	-0.009066
1690	8.4450e-01	3.1058	-1.142401	0.000509	5.089401	0.862168	-0.010177
1691	8.4500e-01	3.0972	-1.194999	0.000526	5.260473	0.891148	-0.010520
1692	8.4550e-01	3.0869	-1.248024	0.000530	5.303241	0.898393	-0.010605
1693	8.4600e-01	3.0774	-1.283090	0.000351	3.506982	0.594099	-0.007013
1694	8.4650e-01	3.0659	-1.340391	0.000573	5.730922	0.970844	-0.011460
1695	8.4700e-01	3.0554	-1.387430	0.000470	4.704488	0.796962	-0.009408
1696	8.4750e-01	3.0457	-1.440456	0.000530	5.303241	0.898393	-0.010605
1697	8.4800e-01	3.0377	-1.481080	0.000406	4.062967	0.688285	-0.008125
1698	8.4850e-01	3.0276	-1.534533	0.000535	5.346009	0.905638	-0.010691
1699	8.4900e-01	3.0173	-1.584993	0.000505	5.046633	0.854923	-0.010092
1700	8.4950e-01	3.0057	-1.626900	0.000419	4.191271	0.710021	-0.008381
1701	8.5000e-01	2.9993	-1.690189	0.000633	6.329675	1.072276	-0.012658
1702	8.5050e-01	2.9875	-1.735517	0.000453	4.533416	0.767981	-0.009066
1703	8.5100e-01	2.9761	-1.782984	0.000475	4.747256	0.804207	-0.009493
1704	8.5150e-01	2.9700	-1.841141	0.000582	5.816458	0.985335	-0.011631
1705	8.5200e-01	2.9568	-1.886469	0.000453	4.533416	0.767981	-0.009066
1706	8.5250e-01	2.9479	-1.932225	0.000458	4.576184	0.775227	-0.009151
1707	8.5300e-01	2.9375	-1.982257	0.000500	5.003865	0.847678	-0.010006
1708	8.5350e-01	2.9280	-2.036993	0.000547	5.474314	0.927374	-0.010947
1709	8.5400e-01	2.9144	-2.087025	0.000500	5.003865	0.847678	-0.010006
1710	8.5450e-01	2.9059	-2.126794	0.000398	3.977431	0.673795	-0.007954
1711	8.5500e-01	2.8962	-2.177254	0.000505	5.046633	0.854923	-0.010092
1712	8.5550e-01	2.8850	-2.229424	0.000522	5.217705	0.883903	-0.010434
1713	8.5600e-01	2.8793	-2.283733	0.000543	5.431545	0.920129	-0.010862
1714	8.5650e-01	2.8658	-2.336331	0.000526	5.260473	0.891148	-0.010520
1715	8.5700e-01	2.8580	-2.379948	0.000436	4.362344	0.739001	-0.008724
1716	8.5750e-01	2.8451	-2.431263	0.000513	5.132169	0.869413	-0.010263
1717	8.5800e-01	2.8352	-2.481723	0.000505	5.046633	0.854923	-0.010092
1718	8.5850e-01	2.8239	-2.531755	0.000500	5.003865	0.847678	-0.010006
1719	8.5900e-01	2.8139	-2.589485	0.000577	5.773690	0.978090	-0.011546
1720	8.5950e-01	2.8056	-2.627116	0.000376	3.763591	0.637569	-0.007526
1721	8.6000e-01	2.7974	-2.683990	0.000569	5.688154	0.963599	-0.011375
1722	8.6050e-01	2.7882	-2.743858	0.000599	5.987530	1.014315	-0.011974
1723	8.6100e-01	2.7754	-2.787048	0.000432	4.319576	0.731756	-0.008638
1724	8.6150e-01	2.7676	-2.843494	0.000565	5.645386	0.956354	-0.011289
1725	8.6200e-01	2.7588	-2.884974	0.000415	4.148503	0.702775	-0.008296
1726	8.6250e-01	2.7467	-2.937999	0.000530	5.303241	0.898393	-0.010605
1727	8.6300e-01	2.7383	-2.981617	0.000436	4.362344	0.739001	-0.008724
1728	8.6350e-01	2.7252	-3.041912	0.000603	6.030299	1.021560	-0.012059
1729	8.6400e-01	2.7161	-3.093655	0.000517	5.174937	0.876658	-0.010349
1730	8.6450e-01	2.7036	-3.141549	0.000479	4.790024	0.811452	-0.009579
1731	8.6500e-01	2.6970	-3.190726	0.000492	4.918329	0.833187	-0.009835
1732	8.6550e-01	2.6880	-3.236910	0.000462	4.618952	0.782472	-0.009237
1733	8.6600e-01	2.6733	-3.297632	0.000607	6.073067	1.028805	-0.012145
1734	8.6650e-01	2.6657	-3.340822	0.000432	4.319576	0.731756	-0.008638
1735	8.6700e-01	2.6576	-3.405394	0.000646	6.457979	1.094011	-0.012914
1736	8.6750e-01	2.6465	-3.455426	0.000500	5.003865	0.847678	-0.010006
1737	8.6800e-01	2.6367	-3.497333	0.000419	4.191271	0.710021	-0.008381
1738	8.6850e-01	2.6237	-3.552925	0.000556	5.559850	0.941864	-0.011118
1739	8.6900e-01	2.6154	-3.601246	0.000483	4.832792	0.818697	-0.009664
1740	8.6950e-01	2.6050	-3.658548	0.000573	5.730922	0.970844	-0.011460
1741	8.7000e-01	2.5934	-3.703876	0.000453	4.533416	0.767981	-0.009066
1742	8.7050e-01	2.5885	-3.759468	0.000556	5.559850	0.941864	-0.011118
1743	8.7100e-01	2.5778	-3.812066	0.000526	5.260473	0.891148	-0.010520
1744	8.7150e-01	2.5670	-3.851835	0.000398	3.977431	0.673795	-0.007954
1745	8.7200e-01	2.5557	-3.912557	0.000607	6.073067	1.028805	-0.012145
1746	8.7250e-01	2.5479	-3.964728	0.000522	5.217705	0.883903	-0.010434
1747	8.7300e-01	2.5346	-4.014760	0.000500	5.003865	0.847678	-0.010006
1748	8.7350e-01	2.5282	-4.077193	0.000624	6.244139	1.057786	-0.012487
1749	8.7400e-01	2.5125	-4.116535	0.000393	3.934663	0.666550	-0.007868
1750	8.7450e-01	2.5053	-4.173409	0.000569	5.688154	0.963599	-0.011375
1751	8.7500e-01	2.4947	-4.227717	0.000543	5.431545	0.920129	-0.010862
1752	8.7550e-01	2.4860	-4.275184	0.000475	4.747256	0.804207	-0.009493
1753	8.7600e-01	2.4747	-4.323505	0.000483	4.832792	0.818697	-0.009664
1754	8.7650e-01	2.4657	-4.377814	0.000543	5.431545	0.920129	-0.010862
1755	8.7700e-01	2.4557	-4.430839	0.000530	5.303241	0.898393	-0.010605
1756	8.7750e-01	2.4466	-4.486431	0.000556	5.559850	0.941864	-0.011118
1757	8.7800e-01	2.4373	-4.536890	0.000505	5.046633	0.854923	-0.010092
1758	8.7850e-01	2.4263	-4.589916	0.000530	5.303241	0.898393	-0.010605
1759	8.7900e-01	2.4162	-4.650211	0.000603	6.030299	1.021560	-0.012059
1760	8.7950e-01	2.4066	-4.692118	0.000419	4.191271	0.710021	-0.008381
1761	8.8000e-01	2.3955	-4.752841	0.000607	6.073067	1.028805	-0.012145
1762	8.8050e-01	2.3849	-4.799452	0.000466	4.661720	0.789717	-0.009322
1763	8.8100e-01	2.3764	-4.851195	0.000517	5.174937	0.876658	-0.010349
1764	8.8150e-01	2.3685	-4.901227	0.000500	5.003865	0.847678	-0.010006
1765	8.8200e-01	2.3581	-4.962805	0.000616	6.158603	1.043296	-0.012316
1766	8.8250e-01	2.3468	-5.001719	0.000389	3.891895	0.659305	-0.007783
1767	8.8300e-01	2.3370	-5.067573	0.000659	6.586283	1.115747	-0.013171
1768	8.8350e-01	2.3256	-5.123165	0.000556	5.559850	0.941864	-0.011118
1769	8.8400e-01	2.3155	-5.171059	0.000479	4.790024	0.811452	-0.009579
1770	8.8450e-01	2.3061	-5.223657	0.000526	5.260473	0.891148	-0.010520
1771	8.8500e-01	2.2992	-5.277110	0.000535	5.346009	0.905638	-0.010691
1772	8.8550e-01	2.2861	-5.331846	0.000547	5.474314	0.927374	-0.010947
1773	8.8600e-01	2.2788	-5.380595	0.000488	4.875560	0.825942	-0.009750
1774	8.8650e-01	2.2665	-5.429772	0.000492	4.918329	0.833187	-0.009835
1775	8.8700e-01	2.2543	-5.480659	0.000509	5.089401	0.862168	-0.010177
1776	8.8750e-01	2.2461	-5.538389	0.000577	5.773690	0.978090	-0.011546
1777	8.8800e-01	2.2353	-5.594408	0.000560	5.602618	0.949109	-0.011204
1778	8.8850e-01	2.2246	-5.643585	0.000492	4.918329	0.833187	-0.009835
1779	8.8900e-01	2.2173	-5.712432	0.000689	6.885660	1.166462	-0.013770
1780	8.8950e-01	2.2054	-5.753912	0.000415	4.148503	0.702775	-0.008296
1781	8.9000e-01	2.1948	-5.800523	0.000466	4.661720	0.789717	-0.009322
1782	8.9050e-01	2.1843	-5.861246	0.000607	6.073067	1.028805	-0.012145
1783	8.9100e-01	2.1756	-5.910850	0.000496	4.961097	0.840433	-0.009921
1784	8.9150e-01	2.1660	-5.970718	0.000599	5.987530	1.014315	-0.011974
1785	8.9200e-01	2.1593	-6.025454	0.000547	5.474314	0.927374	-0.010947
1786	8.9250e-01	2.1464	-6.081473	0.000560	5.602618	0.949109	-0.011204
1787	8.9300e-01	2.1344	-6.135781	0.000543	5.431545	0.920129	-0.010862
1788	8.9350e-01	2.1253	-6.184531	0.000488	4.875560	0.825942	-0.009750
1789	8.9400e-01	2.1161	-6.249530	0.000650	6.500747	1.101256	-0.013000
1790	8.9450e-01	2.1045	-6.292720	0.000432	4.319576	0.731756	-0.008638
1791	8.9500e-01	2.1002	-6.351304	0.000586	5.859226	0.992580	-0.011717
1792	8.9550e-01	2.0880	-6.399626	0.000483	4.832792	0.818697	-0.009664
1793	8.9600e-01	2.0777	-6.453507	0.000539	5.388777	0.912884	-0.010776
1794	8.9650e-01	2.0658	-6.512947	0.000594	5.944762	1.007070	-0.011888
1795	8.9700e-01	2.0544	-6.560413	0.000475	4.747256	0.804207	-0.009493
1796	8.9750e-01	2.0461	-6.623274	0.000629	6.286907	1.065031	-0.012572
1797	8.9800e-01	2.0352	-6.676300	0.000530	5.303241	0.898393	-0.010605
1798	8.9850e-01	2.0251	-6.729753	0.000535	5.346009	0.905638	-0.010691
1799	8.9900e-01	2.0169	-6.787910	0.000582	5.816458	0.985335	-0.011631
1800	8.9950e-01	2.0052	-6.839652	0.000517	5.174937	0.876658	-0.010349
1801	9.0000e-01	1.9934	-6.894388	0.000547	5.474314	0.927374	-0.010947
1802	9.0050e-01	1.9850	-6.957677	0.000633	6.329675	1.072276	-0.012658
1803	9.0100e-01	1.9771	-7.002578	0.000449	4.490648	0.760736	-0.008980
1804	9.0150e-01	1.9661	-7.066294	0.000637	6.372443	1.079521	-0.012743
1805	9.0200e-01	1.9556	-7.118464	0.000522	5.217705	0.883903	-0.010434
1806	9.0250e-01	1.9466	-7.174911	0.000565	5.645386	0.956354	-0.011289
1807	9.0300e-01	1.9354	-7.226226	0.000513	5.132169	0.869413	-0.010263
1808	9.0350e-01	1.9247	-7.281817	0.000556	5.559850	0.941864	-0.011118
1809	9.0400e-01	1.9165	-7.339974	0.000582	5.816458	0.985335	-0.011631
1810	9.0450e-01	1.9044	-7.389579	0.000496	4.961097	0.840433	-0.009921
1811	9.0500e-01	1.8961	-7.440894	0.000513	5.132169	0.869413	-0.010263
1812	9.0550e-01	1.8881	-7.514873	0.000740	7.398877	1.253404	-0.014796
1813	9.0600e-01	1.8759	-7.559346	0.000445	4.447880	0.753491	-0.008895
1814	9.0650e-01	1.8665	-7.623062	0.000637	6.372443	1.079521	-0.012743
1815	9.0700e-01	1.8564	-7.661976	0.000389	3.891895	0.659305	-0.007783
1816	9.0750e-01	1.8448	-7.720561	0.000586	5.859226	0.992580	-0.011717
1817	9.0800e-01	1.8353	-7.776152	0.000556	5.559850	0.941864	-0.011118
1818	9.0850e-01	1.8274	-7.831315	0.000552	5.517082	0.934619	-0.011033
1819	9.0900e-01	1.8143	-7.886479	0.000552	5.517082	0.934619	-0.011033
1820	9.0950e-01	1.8071	-7.946774	0.000603	6.030299	1.021560	-0.012059
1821	9.1000e-01	1.7933	-8.004504	0.000577	5.773690	0.978090	-0.011546
1822	9.1050e-01	1.7894	-8.052825	0.000483	4.832792	0.818697	-0.009664
1823	9.1100e-01	1.7760	-8.118252	0.000654	6.543515	1.108502	-0.013085
1824	9.1150e-01	1.7679	-8.177692	0.000594	5.944762	1.007070	-0.011888
1825	9.1200e-01	1.7558	-8.232000	0.000543	5.431545	0.920129	-0.010862
1826	9.1250e-01	1.7456	-8.296144	0.000642	6.415211	1.086766	-0.012829
1827	9.1300e-01	1.7337	-8.350025	0.000539	5.388777	0.912884	-0.010776
1828	9.1350e-01	1.7231	-8.392360	0.000423	4.234039	0.717266	-0.008467
1829	9.1400e-01	1.7173	-8.462918	0.000706	7.056732	1.195443	-0.014112
1830	9.1450e-01	1.7065	-8.521503	0.000586	5.859226	0.992580	-0.011717
1831	9.1500e-01	1.6978	-8.574956	0.000535	5.346009	0.905638	-0.010691
1832	9.1550e-01	1.6852	-8.623705	0.000488	4.875560	0.825942	-0.009750
1833	9.1600e-01	1.6788	-8.682717	0.000590	5.901994	0.999825	-0.011802
1834	9.1650e-01	1.6655	-8.740019	0.000573	5.730922	0.970844	-0.011460
1835	9.1700e-01	1.6537	-8.796893	0.000569	5.688154	0.963599	-0.011375
1836	9.1750e-01	1.6478	-8.853767	0.000569	5.688154	0.963599	-0.011375
1837	9.1800e-01	1.6354	-8.911497	0.000577	5.773690	0.978090	-0.011546
1838	9.1850e-01	1.6250	-8.969654	0.000582	5.816458	0.985335	-0.011631
1839	9.1900e-01	1.6153	-9.026956	0.000573	5.730922	0.970844	-0.011460
1840	9.1950e-01	1.6058	-9.086823	0.000599	5.987530	1.014315	-0.011974
1841	9.2000e-01	1.5981	-9.138138	0.000513	5.132169	0.869413	-0.010263
1842	9.2050e-01	1.5878	-9.201854	0.000637	6.372443	1.079521	-0.012743
1843	9.2100e-01	1.5739	-9.254880	0.000530	5.303241	0.898393	-0.010605
1844	9.2150e-01	1.5631	-9.315175	0.000603	6.030299	1.021560	-0.012059
1845	9.2200e-01	1.5536	-9.373332	0.000582	5.816458	0.985335	-0.011631
1846	9.2250e-01	1.5430	-9.423792	0.000505	5.046633	0.854923	-0.010092
1847	9.2300e-01	1.5356	-9.483660	0.000599	5.987530	1.014315	-0.011974
1848	9.2350e-01	1.5253	-9.540534	0.000569	5.688154	0.963599	-0.011375
1849	9.2400e-01	1.5178	-9.602539	0.000620	6.201371	1.050541	-0.012401
1850	9.2450e-01	1.5067	-9.660696	0.000582	5.816458	0.985335	-0.011631
1851	9.2500e-01	1.4972	-9.725268	0.000646	6.457979	1.094011	-0.012914
1852	9.2550e-01	1.4877	-9.785563	0.000603	6.030299	1.021560	-0.012059
1853	9.2600e-01	1.4748	-9.836878	0.000513	5.132169	0.869413	-0.010263
1854	9.2650e-01	1.4658	-9.886910	0.000500	5.003865	0.847678	-0.010006
1855	9.2700e-01	1.4577	-9.953620	0.000667	6.671820	1.130237	-0.013342
1856	9.2750e-01	1.4481	-10.010921	0.000573	5.730922	0.970844	-0.011460
1857	9.2800e-01	1.4373	-10.069079	0.000582	5.816458	0.985335	-0.011631
1858	9.2850e-01	1.4264	-10.126808	0.000577	5.773690	0.978090	-0.011546
1859	9.2900e-01	1.4152	-10.181972	0.000552	5.517082	0.934619	-0.011033
1860	9.2950e-01	1.4060	-10.246115	0.000642	6.415211	1.086766	-0.012829
1861	9.3000e-01	1.3925	-10.295720	0.000496	4.961097	0.840433	-0.009921
1862	9.3050e-01	1.3844	-10.356870	0.000612	6.115835	1.036050	-0.012230
1863	9.3100e-01	1.3763	-10.414600	0.000577	5.773690	0.978090	-0.011546
1864	9.3150e-01	1.3634	-10.471902	0.000573	5.730922	0.970844	-0.011460
1865	9.3200e-01	1.3562	-10.542032	0.000701	7.013964	1.188198	-0.014026
1866	9.3250e-01	1.3486	-10.594202	0.000522	5.217705	0.883903	-0.010434
1867	9.3300e-01	1.3364	-10.644235	0.000500	5.003865	0.847678	-0.010006
1868	9.3350e-01	1.3245	-10.705813	0.000616	6.158603	1.043296	-0.012316
1869	9.3400e-01	1.3155	-10.771239	0.000654	6.543515	1.108502	-0.013085
1870	9.3450e-01	1.3027	-10.831107	0.000599	5.987530	1.014315	-0.011974
1871	9.3500e-01	1.2988	-10.897816	0.000667	6.671820	1.130237	-0.013342
1872	9.3550e-01	1.2868	-10.952125	0.000543	5.431545	0.920129	-0.010862
1873	9.3600e-01	1.2769	-11.010709	0.000586	5.859226	0.992580	-0.011717
1874	9.3650e-01	1.2636	-11.060742	0.000500	5.003865	0.847678	-0.010006
1875	9.3700e-01	1.2541	-11.125313	0.000646	6.457979	1.094011	-0.012914
1876	9.3750e-01	1.2451	-11.179621	0.000543	5.431545	0.920129	-0.010862
1877	9.3800e-01	1.2348	-11.250180	0.000706	7.056732	1.195443	-0.014112
1878	9.3850e-01	1.2312	-11.302777	0.000526	5.260473	0.891148	-0.010520
1879	9.3900e-01	1.2198	-11.365211	0.000624	6.244139	1.057786	-0.012487
1880	9.3950e-01	1.2079	-11.421230	0.000560	5.602618	0.949109	-0.011204
1881	9.4000e-01	1.1950	-11.469551	0.000483	4.832792	0.818697	-0.009664
1882	9.4050e-01	1.1890	-11.547807	0.000783	7.826558	1.325855	-0.015651
1883	9.4100e-01	1.1742	-11.597839	0.000500	5.003865	0.847678	-0.010006
1884	9.4150e-01	1.1650	-11.670108	0.000723	7.227805	1.224423	-0.014454
1885	9.4200e-01	1.1572	-11.717574	0.000475	4.747256	0.804207	-0.009493
1886	9.4250e-01	1.1443	-11.780007	0.000624	6.244139	1.057786	-0.012487
1887	9.4300e-01	1.1362	-11.837309	0.000573	5.730922	0.970844	-0.011460
1888	9.4350e-01	1.1261	-11.900598	0.000633	6.329675	1.072276	-0.012658
1889	9.4400e-01	1.1154	-11.963886	0.000633	6.329675	1.072276	-0.012658
1890	9.4450e-01	1.1061	-12.022898	0.000590	5.901994	0.999825	-0.011802
1891	9.4500e-01	1.0946	-12.081911	0.000590	5.901994	0.999825	-0.011802
1892	9.4550e-01	1.0844	-12.145199	0.000633	6.329675	1.072276	-0.012658
1893	9.4600e-01	1.0788	-12.205067	0.000599	5.987530	1.014315	-0.011974
1894	9.4650e-01	1.0649	-12.266217	0.000612	6.115835	1.036050	-0.012230
1895	9.4700e-01	1.0559	-12.326940	0.000607	6.073067	1.028805	-0.012145
1896	9.4750e-01	1.0503	-12.390656	0.000637	6.372443	1.079521	-0.012743
1897	9.4800e-01	1.0385	-12.450951	0.000603	6.030299	1.021560	-0.012059
1898	9.4850e-01	1.0271	-12.516378	0.000654	6.543515	1.108502	-0.013085
1899	9.4900e-01	1.0155	-12.569404	0.000530	5.303241	0.898393	-0.010605
1900	9.4950e-01	1.0058	-12.631837	0.000624	6.244139	1.057786	-0.012487
1901	9.5000e-01	0.9961	-12.700257	0.000684	6.842892	1.159217	-0.013684
1902	9.5050e-01	0.9873	-12.756703	0.000565	5.645386	0.956354	-0.011289
1903	9.5100e-01	0.9811	-12.815288	0.000586	5.859226	0.992580	-0.011717
1904	9.5150e-01	0.9655	-12.891405	0.000761	7.612717	1.289629	-0.015223
1905	9.5200e-01	0.9549	-12.938444	0.000470	4.704488	0.796962	-0.009408
1906	9.5250e-01	0.9459	-12.998312	0.000599	5.987530	1.014315	-0.011974
1907	9.5300e-01	0.9378	-13.063738	0.000654	6.543515	1.108502	-0.013085
1908	9.5350e-01	0.9267	-13.124889	0.000612	6.115835	1.036050	-0.012230
1909	9.5400e-01	0.9160	-13.185184	0.000603	6.030299	1.021560	-0.012059
1910	9.5450e-01	0.9041	-13.240348	0.000552	5.517082	0.934619	-0.011033
1911	9.5500e-01	0.8960	-13.304064	0.000637	6.372443	1.079521	-0.012743
1912	9.5550e-01	0.8893	-13.367780	0.000637	6.372443	1.079521	-0.012743
1913	9.5600e-01	0.8782	-13.437483	0.000697	6.971196	1.180953	-0.013941
1914	9.5650e-01	0.8674	-13.493502	0.000560	5.602618	0.949109	-0.011204
1915	9.5700e-01	0.8590	-13.562777	0.000693	6.928428	1.173707	-0.013855
1916	9.5750e-01	0.8459	-13.617941	0.000552	5.517082	0.934619	-0.011033
1917	9.5800e-01	0.8350	-13.674387	0.000565	5.645386	0.956354	-0.011289
1918	9.5850e-01	0.8289	-13.741524	0.000671	6.714588	1.137482	-0.013427
1919	9.5900e-01	0.8167	-13.796688	0.000552	5.517082	0.934619	-0.011033
1920	9.5950e-01	0.8083	-13.866391	0.000697	6.971196	1.180953	-0.013941
1921	9.6000e-01	0.7987	-13.939515	0.000731	7.313341	1.238913	-0.014625
1922	9.6050e-01	0.7857	-13.997244	0.000577	5.773690	0.978090	-0.011546
1923	9.6100e-01	0.7753	-14.056684	0.000594	5.944762	1.007070	-0.011888
1924	9.6150e-01	0.7656	-14.116124	0.000594	5.944762	1.007070	-0.011888
1925	9.6200e-01	0.7553	-14.178557	0.000624	6.244139	1.057786	-0.012487
1926	9.6250e-01	0.7462	-14.246977	0.000684	6.842892	1.159217	-0.013684
1927	9.6300e-01	0.7358	-14.306845	0.000599	5.987530	1.014315	-0.011974
1928	9.6350e-01	0.7275	-14.377403	0.000706	7.056732	1.195443	-0.014112
1929	9.6400e-01	0.7169	-14.437271	0.000599	5.987530	1.014315	-0.011974
1930	9.6450e-01	0.7041	-14.496283	0.000590	5.901994	0.999825	-0.011802
1931	9.6500e-01	0.6953	-14.560854	0.000646	6.457979	1.094011	-0.012914
1932	9.6550e-01	0.6844	-14.624143	0.000633	6.329675	1.072276	-0.012658
1933	9.6600e-01	0.6773	-14.692563	0.000684	6.842892	1.159217	-0.013684
1934	9.6650e-01	0.6665	-14.748154	0.000556	5.559850	0.941864	-0.011118
1935	9.6700e-01	0.6562	-14.810588	0.000624	6.244139	1.057786	-0.012487
1936	9.6750e-01	0.6451	-14.874304	0.000637	6.372443	1.079521	-0.012743
1937	9.6800e-01	0.6376	-14.933744	0.000594	5.944762	1.007070	-0.011888
1938	9.6850e-01	0.6268	-15.009433	0.000757	7.569949	1.282384	-0.015138
1939	9.6900e-01	0.6166	-15.064169	0.000547	5.474314	0.927374	-0.010947
1940	9.6950e-01	0.6064	-15.126175	0.000620	6.201371	1.050541	-0.012401
1941	9.7000e-01	0.5929	-15.189464	0.000633	6.329675	1.072276	-0.012658
1942	9.7050e-01	0.5898	-15.251469	0.000620	6.201371	1.050541	-0.012401
1943	9.7100e-01	0.5771	-15.325448	0.000740	7.398877	1.253404	-0.014796
1944	9.7150e-01	0.5659	-15.379757	0.000543	5.431545	0.920129	-0.010862
1945	9.7200e-01	0.5546	-15.445611	0.000659	6.586283	1.115747	-0.013171
1946	9.7250e-01	0.5450	-15.514031	0.000684	6.842892	1.159217	-0.013684
1947	9.7300e-01	0.5376	-15.578603	0.000646	6.457979	1.094011	-0.012914
1948	9.7350e-01	0.5274	-15.645740	0.000671	6.714588	1.137482	-0.013427
1949	9.7400e-01	0.5170	-15.704324	0.000586	5.859226	0.992580	-0.011717
1950	9.7450e-01	0.5071	-15.774027	0.000697	6.971196	1.180953	-0.013941
1951	9.7500e-01	0.4960	-15.831757	0.000577	5.773690	0.978090	-0.011546
1952	9.7550e-01	0.4865	-15.896328	0.000646	6.457979	1.094011	-0.012914
1953	9.7600e-01	0.4760	-15.963465	0.000671	6.714588	1.137482	-0.013427
1954	9.7650e-01	0.4660	-16.029320	0.000659	6.586283	1.115747	-0.013171
1955	9.7700e-01	0.4570	-16.096884	0.000676	6.757356	1.144727	-0.013513
1956	9.7750e-01	0.4490	-16.156324	0.000594	5.944762	1.007070	-0.011888
1957	9.7800e-01	0.4362	-16.222606	0.000663	6.629052	1.122992	-0.013256
1958	9.7850e-01	0.4243	-16.286322	0.000637	6.372443	1.079521	-0.012743
1959	9.7900e-01	0.4150	-16.356453	0.000701	7.013964	1.188198	-0.014026
1960	9.7950e-01	0.4068	-16.422735	0.000663	6.629052	1.122992	-0.013256
1961	9.8000e-01	0.3986	-16.483458	0.000607	6.073067	1.028805	-0.012145
1962	9.8050e-01	0.3864	-16.551878	0.000684	6.842892	1.159217	-0.013684
1963	9.8100e-01	0.3769	-16.614739	0.000629	6.286907	1.065031	-0.012572
1964	9.8150e-01	0.3672	-16.679310	0.000646	6.457979	1.094011	-0.012914
1965	9.8200e-01	0.3555	-16.741316	0.000620	6.201371	1.050541	-0.012401
1966	9.8250e-01	0.3443	-16.805459	0.000642	6.415211	1.086766	-0.012829
1967	9.8300e-01	0.3347	-16.886281	0.000808	8.083166	1.369325	-0.016164
1968	9.8350e-01	0.3253	-16.943582	0.000573	5.730922	0.970844	-0.011460
1969	9.8400e-01	0.3128	-17.005588	0.000620	6.201371	1.050541	-0.012401
1970	9.8450e-01	0.3056	-17.077429	0.000719	7.185037	1.217178	-0.014368
1971	9.8500e-01	0.2969	-17.136014	0.000586	5.859226	0.992580	-0.011717
1972	9.8550e-01	0.2871	-17.206572	0.000706	7.056732	1.195443	-0.014112
1973	9.8600e-01	0.2775	-17.266440	0.000599	5.987530	1.014315	-0.011974
1974	9.8650e-01	0.2661	-17.340419	0.000740	7.398877	1.253404	-0.014796
1975	9.8700e-01	0.2587	-17.399003	0.000586	5.859226	0.992580	-0.011717
1976	9.8750e-01	0.2463	-17.469562	0.000706	7.056732	1.195443	-0.014112
1977	9.8800e-01	0.2386	-17.535416	0.000659	6.586283	1.115747	-0.013171
1978	9.8850e-01	0.2277	-17.601698	0.000663	6.629052	1.122992	-0.013256
1979	9.8900e-01	0.2156	-17.663703	0.000620	6.201371	1.050541	-0.012401
1980	9.8950e-01	0.2074	-17.731268	0.000676	6.757356	1.144727	-0.013513
1981	9.9000e-01	0.1952	-17.790280	0.000590	5.901994	0.999825	-0.011802
1982	9.9050e-01	0.1876	-17.860839	0.000706	7.056732	1.195443	-0.014112
1983	9.9100e-01	0.1757	-17.921989	0.000612	6.115835	1.036050	-0.012230
1984	9.9150e-01	0.1657	-17.994258	0.000723	7.227805	1.224423	-0.014454
1985	9.9200e-01	0.1547	-18.066954	0.000727	7.270573	1.231668	-0.014539
1986	9.9250e-01	0.1460	-18.122545	0.000556	5.559850	0.941864	-0.011118
1987	9.9300e-01	0.1344	-18.186689	0.000642	6.415211	1.086766	-0.012829
1988	9.9350e-01	0.1240	-18.267510	0.000808	8.083166	1.369325	-0.016164
1989	9.9400e-01	0.1183	-18.332509	0.000650	6.500747	1.101256	-0.013000
1990	9.9450e-01	0.1040	-18.403068	0.000706	7.056732	1.195443	-0.014112
1991	9.9500e-01	0.0951	-18.463790	0.000607	6.073067	1.028805	-0.012145
1992	9.9550e-01	0.0857	-18.533921	0.000701	7.013964	1.188198	-0.014026
1993	9.9600e-01	0.0761	-18.601486	0.000676	6.757356	1.144727	-0.013513
1994	9.9650e-01	0.0665	-18.665629	0.000642	6.415211	1.086766	-0.012829
1995	9.9700e-01	0.0571	-18.737898	0.000723	7.227805	1.224423	-0.014454
1996	9.9750e-01	0.0465	-18.804608	0.000667	6.671820	1.130237	-0.013342
1997	9.9800e-01	0.0330	-18.876449	0.000719	7.185037	1.217178	-0.014368
1998	9.9850e-01	0.0298	-18.934606	0.000582	5.816458	0.985335	-0.011631
1999	9.9900e-01	0.0160	-18.996184	0.000616	6.158603	1.043296	-0.012316
2000	9.9950e-01	0.0026	-19.063321	0.000671	6.714588	1.137482	-0.013427
2001	1.0000e+00	-0.0036	-19.147563	0.000671	6.714588	1.137482	-0.016848

PMax (uC/cm2):	4.69e+01
Pr (uC/cm2):	4.32e+00
-Pr (uC/cm2):	0.00e+00
PLoss (uC/cm2):	0.00e+00
C (Max-Eff) (nF):	4.70e-01
K (Eff):	7.96e+02
Vert. (+/-Pr) Shift (uC/cm2):	2.16e+00
Offset (uC/cm2):	2.35e+01

A (Loop Area - uC/cm2·Volts):	-4.39e-02



Hysteresis Version: 5.48.1 - Radiant Technologies, Inc., 1999 - 9/12/24

