»»»»»»»»»»»»»»»»»»»»»»»»»»»»»»»»»»»» Hysteresis ««««««««««««««««««««««««««««««««««««
»»»  Executed Version:	5.48.1
»»»  Vision Version:	5.48.4 (R)
»»»  Vision Compiled:	9/18/24
»»»  Driver Version:	5.47.0
»»»  Windows Version:	Windows 8 or 8.1
»»»  Processor Information:	x86 (AMD or Intel) - 32 Processors
»»»  Tester Name:	PMF21124-494 (100V)
»»»  Tester S/N:	PMF21124-494
»»»  Internal Amp Type:	100V RevK 270k
»»»  Internal Amp S/N:	iAB2-596/K     
»»»  Execution Count:	1
»»»»»»»»»»»»»»»»»»»»»»»»»»»»»»»»»»»»»»»»»»««««««««««««««««««««««««««««««««««««««««««

Stored:	6/25/2025 - 16:7:15
Configured:	06/25/25 10:44:40 AM
Executed:	06/25/25 04:06:42 PM

»»»»»»»»»»»»»»»»»»»»»»»»»»»»»»»»»»» Sample Info ««««««««««««««««««««««««««««««««««««
Sample Name:	
Lot Name:	
Wafer Name:	
Die Row/Column:	0/0
Capacitor Number:	0
Sample Area (cm2):	1.00e-04
Sample Thickness (microns):	1.50e-01

Amplifier:	Internal

»»»»»»»»»»»»»»»»»»»»»»»»»»»»»»»»»»» Tester Info «««««««««««««««««««««««««««««««««««
Tester Name:	PMF21124-494 (100V)
Tester Serial Number:	PMF21124-494
Return Signal Amp. Level:	1.79 [Index: 2]

»»»»»»»»»»»»»»»»»»»»»»»»»»»»»»»» Hysteresis Info ««««««««««««««««««««««««««««««««««
Task Name:	Hyst-116
Volts:	10.00
Field:	666.67 (kV/cm)
DCBias:	0.00
DCField:	0.00 (kV/cm)
Hysteresis Period (ms):	1.00e+00
Preset:	Enabled
Preset Delay (ms):	1.00e+03
Profile:	Standard Monopolar

»»»»»»»»»»»»»»»»»»»»»»»»»»»»»»»»»»»»»» Data «««««««««««««««««««««««««««««««««««««««
Points:	2001

Valid Data

Point	Time (ms)	Drive Voltage	Measured Polarization (uC/cm2)	Capacitance (uF)	Normalized Capacitance (uF/cm2)	Dielectric Constant	Instantaneous Current (mA)
   1	0.0000e+00	-0.0046	-23.048147	0.000436	4.361661	0.738885	0.008724
   2	5.0000e-04	0.0042	-23.004529	0.000436	4.361661	0.738885	0.008724
   3	1.0000e-03	0.0166	-22.950648	0.000539	5.387935	0.912741	0.010776
   4	1.5000e-03	0.0273	-22.881801	0.000688	6.884583	1.166280	0.013770
   5	2.0000e-03	0.0343	-22.821506	0.000603	6.029355	1.021400	0.012059
   6	2.5000e-03	0.0430	-22.756507	0.000650	6.499731	1.101084	0.013000
   7	3.0000e-03	0.0597	-22.689369	0.000671	6.713538	1.137304	0.013427
   8	3.5000e-03	0.0631	-22.633351	0.000560	5.601742	0.948961	0.011204
   9	4.0000e-03	0.0793	-22.575193	0.000582	5.815548	0.985181	0.011631
  10	4.5000e-03	0.0823	-22.505918	0.000693	6.927344	1.173524	0.013855
  11	5.0000e-03	0.0941	-22.449044	0.000569	5.687264	0.963449	0.011375
  12	5.5000e-03	0.1053	-22.389177	0.000599	5.986594	1.014156	0.011974
  13	6.0000e-03	0.1154	-22.325460	0.000637	6.371446	1.079352	0.012743
  14	6.5000e-03	0.1253	-22.261744	0.000637	6.371446	1.079352	0.012743
  15	7.0000e-03	0.1358	-22.206581	0.000552	5.516219	0.934473	0.011033
  16	7.5000e-03	0.1431	-22.136878	0.000697	6.970106	1.180768	0.013941
  17	8.0000e-03	0.1540	-22.071023	0.000659	6.585253	1.115572	0.013171
  18	8.5000e-03	0.1668	-22.023985	0.000470	4.703752	0.796837	0.009408
  19	9.0000e-03	0.1758	-21.957703	0.000663	6.628015	1.122816	0.013256
  20	9.5000e-03	0.1842	-21.900828	0.000569	5.687264	0.963449	0.011375
  21	1.0000e-02	0.1971	-21.834547	0.000663	6.628015	1.122816	0.013256
  22	1.0500e-02	0.2058	-21.769547	0.000650	6.499731	1.101084	0.013000
  23	1.1000e-02	0.2150	-21.713101	0.000564	5.644503	0.956205	0.011289
  24	1.1500e-02	0.2253	-21.648530	0.000646	6.456969	1.093840	0.012914
  25	1.2000e-02	0.2339	-21.574550	0.000740	7.397720	1.253208	0.014796
  26	1.2500e-02	0.2464	-21.529650	0.000449	4.489945	0.760617	0.008980
  27	1.3000e-02	0.2556	-21.466789	0.000629	6.285924	1.064864	0.012572
  28	1.3500e-02	0.2654	-21.401362	0.000654	6.542492	1.108328	0.013085
  29	1.4000e-02	0.2759	-21.337218	0.000641	6.414208	1.086596	0.012829
  30	1.4500e-02	0.2850	-21.278206	0.000590	5.901071	0.999669	0.011802
  31	1.5000e-02	0.2962	-21.214062	0.000641	6.414208	1.086596	0.012829
  32	1.5500e-02	0.3055	-21.148636	0.000654	6.542492	1.108328	0.013085
  33	1.6000e-02	0.3151	-21.092617	0.000560	5.601742	0.948961	0.011204
  34	1.6500e-02	0.3271	-21.033604	0.000590	5.901071	0.999669	0.011802
  35	1.7000e-02	0.3356	-20.971171	0.000624	6.243162	1.057620	0.012487
  36	1.7500e-02	0.3436	-20.910876	0.000603	6.029355	1.021400	0.012059
  37	1.8000e-02	0.3553	-20.840745	0.000701	7.012867	1.188012	0.014026
  38	1.8500e-02	0.3661	-20.792851	0.000479	4.789275	0.811325	0.009579
  39	1.9000e-02	0.3783	-20.721866	0.000710	7.098390	1.202500	0.014197
  40	1.9500e-02	0.3854	-20.657722	0.000641	6.414208	1.086596	0.012829
  41	2.0000e-02	0.3958	-20.596999	0.000607	6.072117	1.028644	0.012145
  42	2.0500e-02	0.4069	-20.536704	0.000603	6.029355	1.021400	0.012059
  43	2.1000e-02	0.4150	-20.473415	0.000633	6.328685	1.072108	0.012658
  44	2.1500e-02	0.4280	-20.413120	0.000603	6.029355	1.021400	0.012059
  45	2.2000e-02	0.4337	-20.349832	0.000633	6.328685	1.072108	0.012658
  46	2.2500e-02	0.4456	-20.292102	0.000577	5.772787	0.977937	0.011546
  47	2.3000e-02	0.4567	-20.228814	0.000633	6.328685	1.072108	0.012658
  48	2.3500e-02	0.4655	-20.173222	0.000556	5.558980	0.941717	0.011118
  49	2.4000e-02	0.4766	-20.106940	0.000663	6.628015	1.122816	0.013256
  50	2.4500e-02	0.4840	-20.046645	0.000603	6.029355	1.021400	0.012059
  51	2.5000e-02	0.4963	-19.986350	0.000603	6.029355	1.021400	0.012059
  52	2.5500e-02	0.5068	-19.926910	0.000594	5.943833	1.006913	0.011888
  53	2.6000e-02	0.5158	-19.866615	0.000603	6.029355	1.021400	0.012059
  54	2.6500e-02	0.5254	-19.803326	0.000633	6.328685	1.072108	0.012658
  55	2.7000e-02	0.5352	-19.746025	0.000573	5.730026	0.970693	0.011460
  56	2.7500e-02	0.5453	-19.677177	0.000688	6.884583	1.166280	0.013770
  57	2.8000e-02	0.5552	-19.621158	0.000560	5.601742	0.948961	0.011204
  58	2.8500e-02	0.5661	-19.578823	0.000423	4.233377	0.717154	0.008467
  59	2.9000e-02	0.5735	-19.488594	0.000902	9.022652	1.528479	0.018046
  60	2.9500e-02	0.5870	-19.433858	0.000547	5.473457	0.927229	0.010947
  61	3.0000e-02	0.5946	-19.387675	0.000462	4.618230	0.782349	0.009237
  62	3.0500e-02	0.6068	-19.303433	0.000842	8.423993	1.427063	0.016848
  63	3.1000e-02	0.6133	-19.260670	0.000428	4.276139	0.724397	0.008553
  64	3.1500e-02	0.6256	-19.203368	0.000573	5.730026	0.970693	0.011460
  65	3.2000e-02	0.6352	-19.132810	0.000706	7.055629	1.195256	0.014112
  66	3.2500e-02	0.6458	-19.084061	0.000487	4.874798	0.825813	0.009750
  67	3.3000e-02	0.6554	-19.016924	0.000671	6.713538	1.137304	0.013427
  68	3.3500e-02	0.6654	-18.957911	0.000590	5.901071	0.999669	0.011802
  69	3.4000e-02	0.6759	-18.897189	0.000607	6.072117	1.028644	0.012145
  70	3.4500e-02	0.6816	-18.834328	0.000629	6.285924	1.064864	0.012572
  71	3.5000e-02	0.6964	-18.781302	0.000530	5.302412	0.898253	0.010605
  72	3.5500e-02	0.7079	-18.723573	0.000577	5.772787	0.977937	0.011546
  73	3.6000e-02	0.7178	-18.659856	0.000637	6.371446	1.079352	0.012743
  74	3.6500e-02	0.7269	-18.599134	0.000607	6.072117	1.028644	0.012145
  75	3.7000e-02	0.7362	-18.533279	0.000659	6.585253	1.115572	0.013171
  76	3.7500e-02	0.7452	-18.468280	0.000650	6.499731	1.101084	0.013000
  77	3.8000e-02	0.7556	-18.419103	0.000492	4.917559	0.833057	0.009835
  78	3.8500e-02	0.7686	-18.359236	0.000599	5.986594	1.014156	0.011974
  79	3.9000e-02	0.7756	-18.285684	0.000735	7.354958	1.245964	0.014710
  80	3.9500e-02	0.7875	-18.244205	0.000415	4.147854	0.702666	0.008296
  81	4.0000e-02	0.7959	-18.175785	0.000684	6.841822	1.159036	0.013684
  82	4.0500e-02	0.8039	-18.113779	0.000620	6.200401	1.050376	0.012401
  83	4.1000e-02	0.8157	-18.056477	0.000573	5.730026	0.970693	0.011460
  84	4.1500e-02	0.8270	-18.000458	0.000560	5.601742	0.948961	0.011204
  85	4.2000e-02	0.8380	-17.947433	0.000530	5.302412	0.898253	0.010605
  86	4.2500e-02	0.8487	-17.878585	0.000688	6.884583	1.166280	0.013770
  87	4.3000e-02	0.8560	-17.832829	0.000458	4.575468	0.775105	0.009151
  88	4.3500e-02	0.8656	-17.760133	0.000727	7.269436	1.231476	0.014539
  89	4.4000e-02	0.8762	-17.707107	0.000530	5.302412	0.898253	0.010605
  90	4.4500e-02	0.8851	-17.647667	0.000594	5.943833	1.006913	0.011888
  91	4.5000e-02	0.8952	-17.577965	0.000697	6.970106	1.180768	0.013941
  92	4.5500e-02	0.9074	-17.510400	0.000676	6.756299	1.144548	0.013513
  93	4.6000e-02	0.9137	-17.459512	0.000509	5.088605	0.862033	0.010177
  94	4.6500e-02	0.9239	-17.409908	0.000496	4.960321	0.840301	0.009921
  95	4.7000e-02	0.9370	-17.347047	0.000629	6.285924	1.064864	0.012572
  96	4.7500e-02	0.9451	-17.290600	0.000564	5.644503	0.956205	0.011289
  97	4.8000e-02	0.9552	-17.232016	0.000586	5.858310	0.992425	0.011717
  98	4.8500e-02	0.9666	-17.167444	0.000646	6.456969	1.093840	0.012914
  99	4.9000e-02	0.9746	-17.119123	0.000483	4.832037	0.818569	0.009664
 100	4.9500e-02	0.9869	-17.055834	0.000633	6.328685	1.072108	0.012658
 101	5.0000e-02	0.9959	-16.983138	0.000727	7.269436	1.231476	0.014539
 102	5.0500e-02	1.0031	-16.933106	0.000500	5.003082	0.847545	0.010006
 103	5.1000e-02	1.0125	-16.870672	0.000624	6.243162	1.057620	0.012487
 104	5.1500e-02	1.0233	-16.817647	0.000530	5.302412	0.898253	0.010605
 105	5.2000e-02	1.0339	-16.753931	0.000637	6.371446	1.079352	0.012743
 106	5.2500e-02	1.0461	-16.696629	0.000573	5.730026	0.970693	0.011460
 107	5.3000e-02	1.0541	-16.639327	0.000573	5.730026	0.970693	0.011460
 108	5.3500e-02	1.0634	-16.584163	0.000552	5.516219	0.934473	0.011033
 109	5.4000e-02	1.0764	-16.524723	0.000594	5.943833	1.006913	0.011888
 110	5.4500e-02	1.0863	-16.472553	0.000522	5.216889	0.883765	0.010434
 111	5.5000e-02	1.0963	-16.402423	0.000701	7.012867	1.188012	0.014026
 112	5.5500e-02	1.1053	-16.355384	0.000470	4.703752	0.796837	0.009408
 113	5.6000e-02	1.1156	-16.282260	0.000731	7.312197	1.238720	0.014625
 114	5.6500e-02	1.1275	-16.235221	0.000470	4.703752	0.796837	0.009408
 115	5.7000e-02	1.1333	-16.176637	0.000586	5.858310	0.992425	0.011717
 116	5.7500e-02	1.1441	-16.122328	0.000543	5.430696	0.919985	0.010862
 117	5.8000e-02	1.1560	-16.058612	0.000637	6.371446	1.079352	0.012743
 118	5.8500e-02	1.1651	-16.003876	0.000547	5.473457	0.927229	0.010947
 119	5.9000e-02	1.1768	-15.938022	0.000659	6.585253	1.115572	0.013171
 120	5.9500e-02	1.1864	-15.885424	0.000526	5.259650	0.891009	0.010520
 121	6.0000e-02	1.1977	-15.839240	0.000462	4.618230	0.782349	0.009237
 122	6.0500e-02	1.2064	-15.781511	0.000577	5.772787	0.977937	0.011546
 123	6.1000e-02	1.2158	-15.698979	0.000825	8.252947	1.398087	0.016506
 124	6.1500e-02	1.2282	-15.650230	0.000487	4.874798	0.825813	0.009750
 125	6.2000e-02	1.2357	-15.589507	0.000607	6.072117	1.028644	0.012145
 126	6.2500e-02	1.2437	-15.534771	0.000547	5.473457	0.927229	0.010947
 127	6.3000e-02	1.2550	-15.480463	0.000543	5.430696	0.919985	0.010862
 128	6.3500e-02	1.2640	-15.418885	0.000616	6.157640	1.043132	0.012316
 129	6.4000e-02	1.2766	-15.367997	0.000509	5.088605	0.862033	0.010177
 130	6.4500e-02	1.2828	-15.321814	0.000462	4.618230	0.782349	0.009237
 131	6.5000e-02	1.2939	-15.270071	0.000517	5.174128	0.876521	0.010349
 132	6.5500e-02	1.3033	-15.185829	0.000842	8.423993	1.427063	0.016848
 133	6.6000e-02	1.3130	-15.129810	0.000560	5.601742	0.948961	0.011204
 134	6.6500e-02	1.3272	-15.081488	0.000483	4.832037	0.818569	0.009664
 135	6.7000e-02	1.3333	-15.020338	0.000611	6.114878	1.035888	0.012230
 136	6.7500e-02	1.3461	-14.966457	0.000539	5.387935	0.912741	0.010776
 137	6.8000e-02	1.3556	-14.918563	0.000479	4.789275	0.811325	0.009579
 138	6.8500e-02	1.3660	-14.849715	0.000688	6.884583	1.166280	0.013770
 139	6.9000e-02	1.3779	-14.801394	0.000483	4.832037	0.818569	0.009664
 140	6.9500e-02	1.3878	-14.743664	0.000577	5.772787	0.977937	0.011546
 141	7.0000e-02	1.3948	-14.689783	0.000539	5.387935	0.912741	0.010776
 142	7.0500e-02	1.4050	-14.631626	0.000582	5.815548	0.985181	0.011631
 143	7.1000e-02	1.4145	-14.576890	0.000547	5.473457	0.927229	0.010947
 144	7.1500e-02	1.4272	-14.512747	0.000641	6.414208	1.086596	0.012829
 145	7.2000e-02	1.4371	-14.463997	0.000487	4.874798	0.825813	0.009750
 146	7.2500e-02	1.4459	-14.397288	0.000667	6.670776	1.130060	0.013342
 147	7.3000e-02	1.4546	-14.346400	0.000509	5.088605	0.862033	0.010177
 148	7.3500e-02	1.4673	-14.298934	0.000475	4.746514	0.804081	0.009493
 149	7.4000e-02	1.4747	-14.236073	0.000629	6.285924	1.064864	0.012572
 150	7.4500e-02	1.4835	-14.183047	0.000530	5.302412	0.898253	0.010605
 151	7.5000e-02	1.4933	-14.129167	0.000539	5.387935	0.912741	0.010776
 152	7.5500e-02	1.5024	-14.062885	0.000663	6.628015	1.122816	0.013256
 153	7.6000e-02	1.5156	-14.013708	0.000492	4.917559	0.833057	0.009835
 154	7.6500e-02	1.5276	-13.958972	0.000547	5.473457	0.927229	0.010947
 155	7.7000e-02	1.5359	-13.898249	0.000607	6.072117	1.028644	0.012145
 156	7.7500e-02	1.5456	-13.846934	0.000513	5.131366	0.869277	0.010263
 157	7.8000e-02	1.5570	-13.793053	0.000539	5.387935	0.912741	0.010776
 158	7.8500e-02	1.5653	-13.740455	0.000526	5.259650	0.891009	0.010520
 159	7.9000e-02	1.5749	-13.678022	0.000624	6.243162	1.057620	0.012487
 160	7.9500e-02	1.5837	-13.616016	0.000620	6.200401	1.050376	0.012401
 161	8.0000e-02	1.5944	-13.575820	0.000402	4.019570	0.680934	0.008039
 162	8.0500e-02	1.6031	-13.508682	0.000671	6.713538	1.137304	0.013427
 163	8.1000e-02	1.6162	-13.454802	0.000539	5.387935	0.912741	0.010776
 164	8.1500e-02	1.6248	-13.410329	0.000445	4.447184	0.753373	0.008895
 165	8.2000e-02	1.6349	-13.342336	0.000680	6.799060	1.151792	0.013598
 166	8.2500e-02	1.6452	-13.286317	0.000560	5.601742	0.948961	0.011204
 167	8.3000e-02	1.6553	-13.237996	0.000483	4.832037	0.818569	0.009664
 168	8.3500e-02	1.6656	-13.175562	0.000624	6.243162	1.057620	0.012487
 169	8.4000e-02	1.6749	-13.114412	0.000611	6.114878	1.035888	0.012230
 170	8.4500e-02	1.6859	-13.065235	0.000492	4.917559	0.833057	0.009835
 171	8.5000e-02	1.6943	-13.019907	0.000453	4.532707	0.767861	0.009066
 172	8.5500e-02	1.7044	-12.960467	0.000594	5.943833	1.006913	0.011888
 173	8.6000e-02	1.7160	-12.898889	0.000616	6.157640	1.043132	0.012316
 174	8.6500e-02	1.7210	-12.837738	0.000611	6.114878	1.035888	0.012230
 175	8.7000e-02	1.7355	-12.795831	0.000419	4.190616	0.709910	0.008381
 176	8.7500e-02	1.7448	-12.745371	0.000505	5.045844	0.854789	0.010092
 177	8.8000e-02	1.7554	-12.674813	0.000706	7.055629	1.195256	0.014112
 178	8.8500e-02	1.7651	-12.630340	0.000445	4.447184	0.753373	0.008895
 179	8.9000e-02	1.7758	-12.570045	0.000603	6.029355	1.021400	0.012059
 180	8.9500e-02	1.7859	-12.522579	0.000475	4.746514	0.804081	0.009493
 181	9.0000e-02	1.7963	-12.469981	0.000526	5.259650	0.891009	0.010520
 182	9.0500e-02	1.8048	-12.408830	0.000611	6.114878	1.035888	0.012230
 183	9.1000e-02	1.8131	-12.351956	0.000569	5.687264	0.963449	0.011375
 184	9.1500e-02	1.8240	-12.290378	0.000616	6.157640	1.043132	0.012316
 185	9.2000e-02	1.8368	-12.246760	0.000436	4.361661	0.738885	0.008724
 186	9.2500e-02	1.8471	-12.186465	0.000603	6.029355	1.021400	0.012059
 187	9.3000e-02	1.8585	-12.145413	0.000411	4.105093	0.695422	0.008210
 188	9.3500e-02	1.8677	-12.093243	0.000522	5.216889	0.883765	0.010434
 189	9.4000e-02	1.8793	-12.030809	0.000624	6.243162	1.057620	0.012487
 190	9.4500e-02	1.8875	-11.982060	0.000487	4.874798	0.825813	0.009750
 191	9.5000e-02	1.8982	-11.912785	0.000693	6.927344	1.173524	0.013855
 192	9.5500e-02	1.9055	-11.870022	0.000428	4.276139	0.724397	0.008553
 193	9.6000e-02	1.9130	-11.804168	0.000659	6.585253	1.115572	0.013171
 194	9.6500e-02	1.9251	-11.758840	0.000453	4.532707	0.767861	0.009066
 195	9.7000e-02	1.9336	-11.703249	0.000556	5.558980	0.941717	0.011118
 196	9.7500e-02	1.9458	-11.642953	0.000603	6.029355	1.021400	0.012059
 197	9.8000e-02	1.9559	-11.595915	0.000470	4.703752	0.796837	0.009408
 198	9.8500e-02	1.9644	-11.541606	0.000543	5.430696	0.919985	0.010862
 199	9.9000e-02	1.9769	-11.491146	0.000505	5.045844	0.854789	0.010092
 200	9.9500e-02	1.9859	-11.433417	0.000577	5.772787	0.977937	0.011546
 201	1.0000e-01	1.9962	-11.377398	0.000560	5.601742	0.948961	0.011204
 202	1.0050e-01	2.0047	-11.331642	0.000458	4.575468	0.775105	0.009151
 203	1.0100e-01	2.0157	-11.275196	0.000564	5.644503	0.956205	0.011289
 204	1.0150e-01	2.0261	-11.214045	0.000611	6.114878	1.035888	0.012230
 205	1.0200e-01	2.0346	-11.169572	0.000445	4.447184	0.753373	0.008895
 206	1.0250e-01	2.0460	-11.111843	0.000577	5.772787	0.977937	0.011546
 207	1.0300e-01	2.0570	-11.057534	0.000543	5.430696	0.919985	0.010862
 208	1.0350e-01	2.0676	-11.019476	0.000381	3.805763	0.644714	0.007612
 209	1.0400e-01	2.0770	-10.952339	0.000671	6.713538	1.137304	0.013427
 210	1.0450e-01	2.0865	-10.899741	0.000526	5.259650	0.891009	0.010520
 211	1.0500e-01	2.0944	-10.845432	0.000543	5.430696	0.919985	0.010862
 212	1.0550e-01	2.1063	-10.800959	0.000445	4.447184	0.753373	0.008895
 213	1.0600e-01	2.1155	-10.747934	0.000530	5.302412	0.898253	0.010605
 214	1.0650e-01	2.1271	-10.688494	0.000594	5.943833	1.006913	0.011888
 215	1.0700e-01	2.1358	-10.632047	0.000564	5.644503	0.956205	0.011289
 216	1.0750e-01	2.1461	-10.577311	0.000547	5.473457	0.927229	0.010947
 217	1.0800e-01	2.1559	-10.532838	0.000445	4.447184	0.753373	0.008895
 218	1.0850e-01	2.1658	-10.480668	0.000522	5.216889	0.883765	0.010434
 219	1.0900e-01	2.1777	-10.413103	0.000676	6.756299	1.144548	0.013513
 220	1.0950e-01	2.1858	-10.374189	0.000389	3.891286	0.659202	0.007783
 221	1.1000e-01	2.1948	-10.320308	0.000539	5.387935	0.912741	0.010776
 222	1.1050e-01	2.2052	-10.273697	0.000466	4.660991	0.789593	0.009322
 223	1.1100e-01	2.2140	-10.198863	0.000748	7.483242	1.267696	0.014967
 224	1.1150e-01	2.2240	-10.149686	0.000492	4.917559	0.833057	0.009835
 225	1.1200e-01	2.2383	-10.109489	0.000402	4.019570	0.680934	0.008039
 226	1.1250e-01	2.2464	-10.063306	0.000462	4.618230	0.782349	0.009237
 227	1.1300e-01	2.2577	-10.000445	0.000629	6.285924	1.064864	0.012572
 228	1.1350e-01	2.2662	-9.946992	0.000535	5.345173	0.905497	0.010691
 229	1.1400e-01	2.2763	-9.893538	0.000535	5.345173	0.905497	0.010691
 230	1.1450e-01	2.2861	-9.845644	0.000479	4.789275	0.811325	0.009579
 231	1.1500e-01	2.2937	-9.796467	0.000492	4.917559	0.833057	0.009835
 232	1.1550e-01	2.3044	-9.739166	0.000573	5.730026	0.970693	0.011460
 233	1.1600e-01	2.3175	-9.689133	0.000500	5.003082	0.847545	0.010006
 234	1.1650e-01	2.3257	-9.637818	0.000513	5.131366	0.869277	0.010263
 235	1.1700e-01	2.3337	-9.577096	0.000607	6.072117	1.028644	0.012145
 236	1.1750e-01	2.3472	-9.525781	0.000513	5.131366	0.869277	0.010263
 237	1.1800e-01	2.3560	-9.480025	0.000458	4.575468	0.775105	0.009151
 238	1.1850e-01	2.3663	-9.421868	0.000582	5.815548	0.985181	0.011631
 239	1.1900e-01	2.3740	-9.370553	0.000513	5.131366	0.869277	0.010263
 240	1.1950e-01	2.3854	-9.326507	0.000440	4.404423	0.746129	0.008809
 241	1.2000e-01	2.3952	-9.273909	0.000526	5.259650	0.891009	0.010520
 242	1.2050e-01	2.4036	-9.217035	0.000569	5.687264	0.963449	0.011375
 243	1.2100e-01	2.4189	-9.174700	0.000423	4.233377	0.717154	0.008467
 244	1.2150e-01	2.4258	-9.122530	0.000522	5.216889	0.883765	0.010434
 245	1.2200e-01	2.4357	-9.069504	0.000530	5.302412	0.898253	0.010605
 246	1.2250e-01	2.4467	-9.011775	0.000577	5.772787	0.977937	0.011546
 247	1.2300e-01	2.4545	-8.959177	0.000526	5.259650	0.891009	0.010520
 248	1.2350e-01	2.4673	-8.910855	0.000483	4.832037	0.818569	0.009664
 249	1.2400e-01	2.4754	-8.856119	0.000547	5.473457	0.927229	0.010947
 250	1.2450e-01	2.4872	-8.807798	0.000483	4.832037	0.818569	0.009664
 251	1.2500e-01	2.4963	-8.756910	0.000509	5.088605	0.862033	0.010177
 252	1.2550e-01	2.5055	-8.714575	0.000423	4.233377	0.717154	0.008467
 253	1.2600e-01	2.5177	-8.667537	0.000470	4.703752	0.796837	0.009408
 254	1.2650e-01	2.5298	-8.589281	0.000783	7.825334	1.325647	0.015651
 255	1.2700e-01	2.5360	-8.560203	0.000291	2.907774	0.492590	0.005816
 256	1.2750e-01	2.5431	-8.507605	0.000526	5.259650	0.891009	0.010520
 257	1.2800e-01	2.5555	-8.444316	0.000633	6.328685	1.072108	0.012658
 258	1.2850e-01	2.5659	-8.401126	0.000432	4.318900	0.731641	0.008638
 259	1.2900e-01	2.5745	-8.351094	0.000500	5.003082	0.847545	0.010006
 260	1.2950e-01	2.5832	-8.297213	0.000539	5.387935	0.912741	0.010776
 261	1.3000e-01	2.5970	-8.249747	0.000475	4.746514	0.804081	0.009493
 262	1.3050e-01	2.6050	-8.206557	0.000432	4.318900	0.731641	0.008638
 263	1.3100e-01	2.6176	-8.154814	0.000517	5.174128	0.876521	0.010349
 264	1.3150e-01	2.6253	-8.089387	0.000654	6.542492	1.108328	0.013085
 265	1.3200e-01	2.6363	-8.057743	0.000316	3.164343	0.536054	0.006329
 266	1.3250e-01	2.6469	-8.011560	0.000462	4.618230	0.782349	0.009237
 267	1.3300e-01	2.6544	-7.934587	0.000770	7.697049	1.303915	0.015395
 268	1.3350e-01	2.6649	-7.899522	0.000351	3.506434	0.594006	0.007013
 269	1.3400e-01	2.6761	-7.846924	0.000526	5.259650	0.891009	0.010520
 270	1.3450e-01	2.6863	-7.805017	0.000419	4.190616	0.709910	0.008381
 271	1.3500e-01	2.6953	-7.743011	0.000620	6.200401	1.050376	0.012401
 272	1.3550e-01	2.7060	-7.688275	0.000547	5.473457	0.927229	0.010947
 273	1.3600e-01	2.7161	-7.651927	0.000363	3.634718	0.615738	0.007270
 274	1.3650e-01	2.7258	-7.584362	0.000676	6.756299	1.144548	0.013513
 275	1.3700e-01	2.7362	-7.542882	0.000415	4.147854	0.702666	0.008296
 276	1.3750e-01	2.7451	-7.492422	0.000505	5.045844	0.854789	0.010092
 277	1.3800e-01	2.7551	-7.459923	0.000325	3.249865	0.550542	0.006500
 278	1.3850e-01	2.7674	-7.400911	0.000590	5.901071	0.999669	0.011802
 279	1.3900e-01	2.7759	-7.342326	0.000586	5.858310	0.992425	0.011717
 280	1.3950e-01	2.7850	-7.295287	0.000470	4.703752	0.796837	0.009408
 281	1.4000e-01	2.7948	-7.237558	0.000577	5.772787	0.977937	0.011546
 282	1.4050e-01	2.8046	-7.189664	0.000479	4.789275	0.811325	0.009579
 283	1.4100e-01	2.8166	-7.154598	0.000351	3.506434	0.594006	0.007013
 284	1.4150e-01	2.8241	-7.092593	0.000620	6.200401	1.050376	0.012401
 285	1.4200e-01	2.8378	-7.048547	0.000440	4.404423	0.746129	0.008809
 286	1.4250e-01	2.8476	-6.984404	0.000641	6.414208	1.086596	0.012829
 287	1.4300e-01	2.8564	-6.945062	0.000393	3.934047	0.666446	0.007868
 288	1.4350e-01	2.8664	-6.884767	0.000603	6.029355	1.021400	0.012059
 289	1.4400e-01	2.8789	-6.842432	0.000423	4.233377	0.717154	0.008467
 290	1.4450e-01	2.8857	-6.807794	0.000346	3.463672	0.586762	0.006928
 291	1.4500e-01	2.8952	-6.742795	0.000650	6.499731	1.101084	0.013000
 292	1.4550e-01	2.9007	-6.697039	0.000458	4.575468	0.775105	0.009151
 293	1.4600e-01	2.9153	-6.650428	0.000466	4.660991	0.789593	0.009322
 294	1.4650e-01	2.9267	-6.591416	0.000590	5.901071	0.999669	0.011802
 295	1.4700e-01	2.9367	-6.556778	0.000346	3.463672	0.586762	0.006928
 296	1.4750e-01	2.9477	-6.485793	0.000710	7.098390	1.202500	0.014197
 297	1.4800e-01	2.9544	-6.444313	0.000415	4.147854	0.702666	0.008296
 298	1.4850e-01	2.9668	-6.406254	0.000381	3.805763	0.644714	0.007612
 299	1.4900e-01	2.9735	-6.340400	0.000659	6.585253	1.115572	0.013171
 300	1.4950e-01	2.9858	-6.307045	0.000334	3.335388	0.565030	0.006671
 301	1.5000e-01	2.9971	-6.237342	0.000697	6.970106	1.180768	0.013941
 302	1.5050e-01	3.0066	-6.198856	0.000385	3.848525	0.651958	0.007697
 303	1.5100e-01	3.0167	-6.159514	0.000393	3.934047	0.666446	0.007868
 304	1.5150e-01	3.0264	-6.103923	0.000556	5.558980	0.941717	0.011118
 305	1.5200e-01	3.0366	-6.057740	0.000462	4.618230	0.782349	0.009237
 306	1.5250e-01	3.0460	-6.000865	0.000569	5.687264	0.963449	0.011375
 307	1.5300e-01	3.0527	-5.957248	0.000436	4.361661	0.738885	0.008724
 308	1.5350e-01	3.0652	-5.914058	0.000432	4.318900	0.731641	0.008638
 309	1.5400e-01	3.0771	-5.860177	0.000539	5.387935	0.912741	0.010776
 310	1.5450e-01	3.0869	-5.821263	0.000389	3.891286	0.659202	0.007783
 311	1.5500e-01	3.0964	-5.774224	0.000470	4.703752	0.796837	0.009408
 312	1.5550e-01	3.1079	-5.714784	0.000594	5.943833	1.006913	0.011888
 313	1.5600e-01	3.1173	-5.660048	0.000547	5.473457	0.927229	0.010947
 314	1.5650e-01	3.1273	-5.631397	0.000287	2.865013	0.485346	0.005730
 315	1.5700e-01	3.1363	-5.577516	0.000539	5.387935	0.912741	0.010776
 316	1.5750e-01	3.1446	-5.511662	0.000659	6.585253	1.115572	0.013171
 317	1.5800e-01	3.1564	-5.468472	0.000432	4.318900	0.731641	0.008638
 318	1.5850e-01	3.1656	-5.416302	0.000522	5.216889	0.883765	0.010434
 319	1.5900e-01	3.1767	-5.382092	0.000342	3.420911	0.579518	0.006842
 320	1.5950e-01	3.1870	-5.320086	0.000620	6.200401	1.050376	0.012401
 321	1.6000e-01	3.1987	-5.283738	0.000363	3.634718	0.615738	0.007270
 322	1.6050e-01	3.2056	-5.231995	0.000517	5.174128	0.876521	0.010349
 323	1.6100e-01	3.2138	-5.167424	0.000646	6.456969	1.093840	0.012914
 324	1.6150e-01	3.2266	-5.133214	0.000342	3.420911	0.579518	0.006842
 325	1.6200e-01	3.2359	-5.090451	0.000428	4.276139	0.724397	0.008553
 326	1.6250e-01	3.2455	-5.039991	0.000505	5.045844	0.854789	0.010092
 327	1.6300e-01	3.2556	-4.998084	0.000419	4.190616	0.709910	0.008381
 328	1.6350e-01	3.2678	-4.938644	0.000594	5.943833	1.006913	0.011888
 329	1.6400e-01	3.2748	-4.902724	0.000359	3.591956	0.608494	0.007184
 330	1.6450e-01	3.2893	-4.844994	0.000577	5.772787	0.977937	0.011546
 331	1.6500e-01	3.2986	-4.812922	0.000321	3.207104	0.543298	0.006414
 332	1.6550e-01	3.3061	-4.749206	0.000637	6.371446	1.079352	0.012743
 333	1.6600e-01	3.3160	-4.703023	0.000462	4.618230	0.782349	0.009237
 334	1.6650e-01	3.3258	-4.670951	0.000321	3.207104	0.543298	0.006414
 335	1.6700e-01	3.3365	-4.603386	0.000676	6.756299	1.144548	0.013513
 336	1.6750e-01	3.3449	-4.567466	0.000359	3.591956	0.608494	0.007184
 337	1.6800e-01	3.3588	-4.516151	0.000513	5.131366	0.869277	0.010263
 338	1.6850e-01	3.3655	-4.458849	0.000573	5.730026	0.970693	0.011460
 339	1.6900e-01	3.3762	-4.414376	0.000445	4.447184	0.753373	0.008895
 340	1.6950e-01	3.3862	-4.362205	0.000522	5.216889	0.883765	0.010434
 341	1.7000e-01	3.3948	-4.328423	0.000338	3.378149	0.572274	0.006756
 342	1.7050e-01	3.4059	-4.269411	0.000590	5.901071	0.999669	0.011802
 343	1.7100e-01	3.4156	-4.222800	0.000466	4.660991	0.789593	0.009322
 344	1.7150e-01	3.4254	-4.176616	0.000462	4.618230	0.782349	0.009237
 345	1.7200e-01	3.4344	-4.127867	0.000487	4.874798	0.825813	0.009750
 346	1.7250e-01	3.4476	-4.083394	0.000445	4.447184	0.753373	0.008895
 347	1.7300e-01	3.4564	-4.046190	0.000372	3.720241	0.630226	0.007441
 348	1.7350e-01	3.4663	-3.995731	0.000505	5.045844	0.854789	0.010092
 349	1.7400e-01	3.4761	-3.948692	0.000470	4.703752	0.796837	0.009408
 350	1.7450e-01	3.4903	-3.904219	0.000445	4.447184	0.753373	0.008895
 351	1.7500e-01	3.4946	-3.847772	0.000564	5.644503	0.956205	0.011289
 352	1.7550e-01	3.5062	-3.804154	0.000436	4.361661	0.738885	0.008724
 353	1.7600e-01	3.5165	-3.766096	0.000381	3.805763	0.644714	0.007612
 354	1.7650e-01	3.5263	-3.718629	0.000475	4.746514	0.804081	0.009493
 355	1.7700e-01	3.5339	-3.663038	0.000556	5.558980	0.941717	0.011118
 356	1.7750e-01	3.5446	-3.621558	0.000415	4.147854	0.702666	0.008296
 357	1.7800e-01	3.5553	-3.575803	0.000458	4.575468	0.775105	0.009151
 358	1.7850e-01	3.5669	-3.521922	0.000539	5.387935	0.912741	0.010776
 359	1.7900e-01	3.5786	-3.482153	0.000398	3.976809	0.673690	0.007954
 360	1.7950e-01	3.5855	-3.431693	0.000505	5.045844	0.854789	0.010092
 361	1.8000e-01	3.5934	-3.384654	0.000470	4.703752	0.796837	0.009408
 362	1.8050e-01	3.6072	-3.341464	0.000432	4.318900	0.731641	0.008638
 363	1.8100e-01	3.6164	-3.288866	0.000526	5.259650	0.891009	0.010520
 364	1.8150e-01	3.6255	-3.238406	0.000505	5.045844	0.854789	0.010092
 365	1.8200e-01	3.6334	-3.202058	0.000363	3.634718	0.615738	0.007270
 366	1.8250e-01	3.6450	-3.152026	0.000500	5.003082	0.847545	0.010006
 367	1.8300e-01	3.6568	-3.097717	0.000543	5.430696	0.919985	0.010862
 368	1.8350e-01	3.6671	-3.063507	0.000342	3.420911	0.579518	0.006842
 369	1.8400e-01	3.6752	-3.007061	0.000564	5.644503	0.956205	0.011289
 370	1.8450e-01	3.6816	-2.977982	0.000291	2.907774	0.492590	0.005816
 371	1.8500e-01	3.6934	-2.919398	0.000586	5.858310	0.992425	0.011717
 372	1.8550e-01	3.7048	-2.870648	0.000487	4.874798	0.825813	0.009750
 373	1.8600e-01	3.7140	-2.825320	0.000453	4.532707	0.767861	0.009066
 374	1.8650e-01	3.7247	-2.787262	0.000381	3.805763	0.644714	0.007612
 375	1.8700e-01	3.7352	-2.730815	0.000564	5.644503	0.956205	0.011289
 376	1.8750e-01	3.7448	-2.687197	0.000436	4.361661	0.738885	0.008724
 377	1.8800e-01	3.7543	-2.646145	0.000411	4.105093	0.695422	0.008210
 378	1.8850e-01	3.7659	-2.599534	0.000466	4.660991	0.789593	0.009322
 379	1.8900e-01	3.7744	-2.544798	0.000547	5.473457	0.927229	0.010947
 380	1.8950e-01	3.7872	-2.504174	0.000406	4.062332	0.688178	0.008125
 381	1.9000e-01	3.7965	-2.467825	0.000363	3.634718	0.615738	0.007270
 382	1.9050e-01	3.8065	-2.414372	0.000535	5.345173	0.905497	0.010691
 383	1.9100e-01	3.8155	-2.358781	0.000556	5.558980	0.941717	0.011118
 384	1.9150e-01	3.8251	-2.322860	0.000359	3.591956	0.608494	0.007184
 385	1.9200e-01	3.8354	-2.274966	0.000479	4.789275	0.811325	0.009579
 386	1.9250e-01	3.8451	-2.221086	0.000539	5.387935	0.912741	0.010776
 387	1.9300e-01	3.8574	-2.182599	0.000385	3.848525	0.651958	0.007697
 388	1.9350e-01	3.8669	-2.142830	0.000398	3.976809	0.673690	0.007954
 389	1.9400e-01	3.8763	-2.095791	0.000470	4.703752	0.796837	0.009408
 390	1.9450e-01	3.8885	-2.060299	0.000355	3.549195	0.601250	0.007099
 391	1.9500e-01	3.8974	-1.996582	0.000637	6.371446	1.079352	0.012743
 392	1.9550e-01	3.9050	-1.952965	0.000436	4.361661	0.738885	0.008724
 393	1.9600e-01	3.9154	-1.911913	0.000411	4.105093	0.695422	0.008210
 394	1.9650e-01	3.9255	-1.866157	0.000458	4.575468	0.775105	0.009151
 395	1.9700e-01	3.9346	-1.821256	0.000449	4.489945	0.760617	0.008980
 396	1.9750e-01	3.9478	-1.779349	0.000419	4.190616	0.709910	0.008381
 397	1.9800e-01	3.9554	-1.738297	0.000411	4.105093	0.695422	0.008210
 398	1.9850e-01	3.9673	-1.686982	0.000513	5.131366	0.869277	0.010263
 399	1.9900e-01	3.9734	-1.644219	0.000428	4.276139	0.724397	0.008553
 400	1.9950e-01	3.9838	-1.596325	0.000479	4.789275	0.811325	0.009579
 401	2.0000e-01	3.9970	-1.545438	0.000509	5.088605	0.862033	0.010177
 402	2.0050e-01	4.0073	-1.506524	0.000389	3.891286	0.659202	0.007783
 403	2.0100e-01	4.0134	-1.460340	0.000462	4.618230	0.782349	0.009237
 404	2.0150e-01	4.0240	-1.423137	0.000372	3.720241	0.630226	0.007441
 405	2.0200e-01	4.0369	-1.373532	0.000496	4.960321	0.840301	0.009921
 406	2.0250e-01	4.0454	-1.339750	0.000338	3.378149	0.572274	0.006756
 407	2.0300e-01	4.0567	-1.277744	0.000620	6.200401	1.050376	0.012401
 408	2.0350e-01	4.0674	-1.235837	0.000419	4.190616	0.709910	0.008381
 409	2.0400e-01	4.0771	-1.205476	0.000304	3.036058	0.514322	0.006072
 410	2.0450e-01	4.0881	-1.143898	0.000616	6.157640	1.043132	0.012316
 411	2.0500e-01	4.0994	-1.104556	0.000393	3.934047	0.666446	0.007868
 412	2.0550e-01	4.1016	-1.048965	0.000556	5.558980	0.941717	0.011118
 413	2.0600e-01	4.1132	-1.015610	0.000334	3.335388	0.565030	0.006671
 414	2.0650e-01	4.1229	-0.975841	0.000398	3.976809	0.673690	0.007954
 415	2.0700e-01	4.1342	-0.910842	0.000650	6.499731	1.101084	0.013000
 416	2.0750e-01	4.1446	-0.879198	0.000316	3.164343	0.536054	0.006329
 417	2.0800e-01	4.1544	-0.834725	0.000445	4.447184	0.753373	0.008895
 418	2.0850e-01	4.1663	-0.796666	0.000381	3.805763	0.644714	0.007612
 419	2.0900e-01	4.1756	-0.741075	0.000556	5.558980	0.941717	0.011118
 420	2.0950e-01	4.1846	-0.693608	0.000475	4.746514	0.804081	0.009493
 421	2.1000e-01	4.1953	-0.662819	0.000308	3.078820	0.521566	0.006158
 422	2.1050e-01	4.2041	-0.620057	0.000428	4.276139	0.724397	0.008553
 423	2.1100e-01	4.2152	-0.569169	0.000509	5.088605	0.862033	0.010177
 424	2.1150e-01	4.2261	-0.525551	0.000436	4.361661	0.738885	0.008724
 425	2.1200e-01	4.2352	-0.482361	0.000432	4.318900	0.731641	0.008638
 426	2.1250e-01	4.2474	-0.419500	0.000629	6.285924	1.064864	0.012572
 427	2.1300e-01	4.2578	-0.389139	0.000304	3.036058	0.514322	0.006072
 428	2.1350e-01	4.2694	-0.347659	0.000415	4.147854	0.702666	0.008296
 429	2.1400e-01	4.2758	-0.305324	0.000423	4.233377	0.717154	0.008467
 430	2.1450e-01	4.2841	-0.259996	0.000453	4.532707	0.767861	0.009066
 431	2.1500e-01	4.2949	-0.227924	0.000321	3.207104	0.543298	0.006414
 432	2.1550e-01	4.3124	-0.165919	0.000620	6.200401	1.050376	0.012401
 433	2.1600e-01	4.3182	-0.141972	0.000239	2.394638	0.405663	0.004789
 434	2.1650e-01	4.3272	-0.082532	0.000594	5.943833	1.006913	0.011888
 435	2.1700e-01	4.3369	-0.039342	0.000432	4.318900	0.731641	0.008638
 436	2.1750e-01	4.3481	0.008553	0.000479	4.789275	0.811325	0.009579
 437	2.1800e-01	4.3555	0.050460	0.000419	4.190616	0.709910	0.008381
 438	2.1850e-01	4.3649	0.086380	0.000359	3.591956	0.608494	0.007184
 439	2.1900e-01	4.3774	0.148814	0.000624	6.243162	1.057620	0.012487
 440	2.1950e-01	4.3884	0.180885	0.000321	3.207104	0.543298	0.006414
 441	2.2000e-01	4.3977	0.217661	0.000368	3.677479	0.622982	0.007355
 442	2.2050e-01	4.4055	0.265983	0.000483	4.832037	0.818569	0.009664
 443	2.2100e-01	4.4167	0.301048	0.000351	3.506434	0.594006	0.007013
 444	2.2150e-01	4.4275	0.360916	0.000599	5.986594	1.014156	0.011974
 445	2.2200e-01	4.4351	0.391705	0.000308	3.078820	0.521566	0.006158
 446	2.2250e-01	4.4443	0.446441	0.000547	5.473457	0.927229	0.010947
 447	2.2300e-01	4.4559	0.487065	0.000406	4.062332	0.688178	0.008125
 448	2.2350e-01	4.4639	0.532393	0.000453	4.532707	0.767861	0.009066
 449	2.2400e-01	4.4711	0.570024	0.000376	3.763002	0.637470	0.007526
 450	2.2450e-01	4.4868	0.615780	0.000458	4.575468	0.775105	0.009151
 451	2.2500e-01	4.4974	0.654694	0.000389	3.891286	0.659202	0.007783
 452	2.2550e-01	4.5068	0.705582	0.000509	5.088605	0.862033	0.010177
 453	2.2600e-01	4.5135	0.740647	0.000351	3.506434	0.594006	0.007013
 454	2.2650e-01	4.5282	0.785120	0.000445	4.447184	0.753373	0.008895
 455	2.2700e-01	4.5361	0.822323	0.000372	3.720241	0.630226	0.007441
 456	2.2750e-01	4.5471	0.877487	0.000552	5.516219	0.934473	0.011033
 457	2.2800e-01	4.5544	0.921532	0.000440	4.404423	0.746129	0.008809
 458	2.2850e-01	4.5668	0.952321	0.000308	3.078820	0.521566	0.006158
 459	2.2900e-01	4.5752	1.002354	0.000500	5.003082	0.847545	0.010006
 460	2.2950e-01	4.5853	1.049392	0.000470	4.703752	0.796837	0.009408
 461	2.3000e-01	4.5978	1.094293	0.000449	4.489945	0.760617	0.008980
 462	2.3050e-01	4.6071	1.128931	0.000346	3.463672	0.586762	0.006928
 463	2.3100e-01	4.6169	1.173831	0.000449	4.489945	0.760617	0.008980
 464	2.3150e-01	4.6271	1.229423	0.000556	5.558980	0.941717	0.011118
 465	2.3200e-01	4.6382	1.249093	0.000197	1.967024	0.333223	0.003934
 466	2.3250e-01	4.6458	1.312382	0.000633	6.328685	1.072108	0.012658
 467	2.3300e-01	4.6576	1.341460	0.000291	2.907774	0.492590	0.005816
 468	2.3350e-01	4.6674	1.382513	0.000411	4.105093	0.695422	0.008210
 469	2.3400e-01	4.6777	1.438104	0.000556	5.558980	0.941717	0.011118
 470	2.3450e-01	4.6846	1.479583	0.000415	4.147854	0.702666	0.008296
 471	2.3500e-01	4.6951	1.511228	0.000316	3.164343	0.536054	0.006329
 472	2.3550e-01	4.7073	1.553563	0.000423	4.233377	0.717154	0.008467
 473	2.3600e-01	4.7151	1.599746	0.000462	4.618230	0.782349	0.009237
 474	2.3650e-01	4.7252	1.647640	0.000479	4.789275	0.811325	0.009579
 475	2.3700e-01	4.7383	1.682278	0.000346	3.463672	0.586762	0.006928
 476	2.3750e-01	4.7476	1.731027	0.000487	4.874798	0.825813	0.009750
 477	2.3800e-01	4.7585	1.775928	0.000449	4.489945	0.760617	0.008980
 478	2.3850e-01	4.7658	1.816980	0.000411	4.105093	0.695422	0.008210
 479	2.3900e-01	4.7778	1.868295	0.000513	5.131366	0.869277	0.010263
 480	2.3950e-01	4.7864	1.897801	0.000295	2.950536	0.499834	0.005901
 481	2.4000e-01	4.7961	1.956386	0.000586	5.858310	0.992425	0.011717
 482	2.4050e-01	4.8074	1.986319	0.000299	2.993297	0.507078	0.005987
 483	2.4100e-01	4.8183	2.028654	0.000423	4.233377	0.717154	0.008467
 484	2.4150e-01	4.8248	2.067568	0.000389	3.891286	0.659202	0.007783
 485	2.4200e-01	4.8364	2.105199	0.000376	3.763002	0.637470	0.007526
 486	2.4250e-01	4.8444	2.161646	0.000564	5.644503	0.956205	0.011289
 487	2.4300e-01	4.8584	2.192435	0.000308	3.078820	0.521566	0.006158
 488	2.4350e-01	4.8669	2.234342	0.000419	4.190616	0.709910	0.008381
 489	2.4400e-01	4.8764	2.284802	0.000505	5.045844	0.854789	0.010092
 490	2.4450e-01	4.8860	2.316446	0.000316	3.164343	0.536054	0.006329
 491	2.4500e-01	4.8953	2.376314	0.000599	5.986594	1.014156	0.011974
 492	2.4550e-01	4.9060	2.401116	0.000248	2.480160	0.420151	0.004960
 493	2.4600e-01	4.9162	2.450720	0.000496	4.960321	0.840301	0.009921
 494	2.4650e-01	4.9239	2.493055	0.000423	4.233377	0.717154	0.008467
 495	2.4700e-01	4.9380	2.514009	0.000210	2.095308	0.354955	0.004191
 496	2.4750e-01	4.9463	2.582429	0.000684	6.841822	1.159036	0.013684
 497	2.4800e-01	4.9573	2.617067	0.000346	3.463672	0.586762	0.006928
 498	2.4850e-01	4.9640	2.664533	0.000475	4.746514	0.804081	0.009493
 499	2.4900e-01	4.9747	2.700454	0.000359	3.591956	0.608494	0.007184
 500	2.4950e-01	4.9878	2.735947	0.000355	3.549195	0.601250	0.007099
 501	2.5000e-01	4.9973	2.772295	0.000363	3.634718	0.615738	0.007270
 502	2.5050e-01	5.0067	2.815912	0.000436	4.361661	0.738885	0.008724
 503	2.5100e-01	5.0162	2.869793	0.000539	5.387935	0.912741	0.010776
 504	2.5150e-01	5.0281	2.909990	0.000402	4.019570	0.680934	0.008039
 505	2.5200e-01	5.0363	2.950614	0.000406	4.062332	0.688178	0.008125
 506	2.5250e-01	5.0470	2.989528	0.000389	3.891286	0.659202	0.007783
 507	2.5300e-01	5.0549	3.030153	0.000406	4.062332	0.688178	0.008125
 508	2.5350e-01	5.0665	3.076336	0.000462	4.618230	0.782349	0.009237
 509	2.5400e-01	5.0766	3.110974	0.000346	3.463672	0.586762	0.006928
 510	2.5450e-01	5.0873	3.162289	0.000513	5.131366	0.869277	0.010263
 511	2.5500e-01	5.0957	3.196927	0.000346	3.463672	0.586762	0.006928
 512	2.5550e-01	5.1068	3.240544	0.000436	4.361661	0.738885	0.008724
 513	2.5600e-01	5.1181	3.291859	0.000513	5.131366	0.869277	0.010263
 514	2.5650e-01	5.1247	3.321366	0.000295	2.950536	0.499834	0.005901
 515	2.5700e-01	5.1361	3.364556	0.000432	4.318900	0.731641	0.008638
 516	2.5750e-01	5.1483	3.401331	0.000368	3.677479	0.622982	0.007355
 517	2.5800e-01	5.1572	3.430838	0.000295	2.950536	0.499834	0.005901
 518	2.5850e-01	5.1672	3.488995	0.000582	5.815548	0.985181	0.011631
 519	2.5900e-01	5.1724	3.537744	0.000487	4.874798	0.825813	0.009750
 520	2.5950e-01	5.1862	3.567250	0.000295	2.950536	0.499834	0.005901
 521	2.6000e-01	5.1967	3.602743	0.000355	3.549195	0.601250	0.007099
 522	2.6050e-01	5.2063	3.651920	0.000492	4.917559	0.833057	0.009835
 523	2.6100e-01	5.2167	3.682709	0.000308	3.078820	0.521566	0.006158
 524	2.6150e-01	5.2277	3.732313	0.000496	4.960321	0.840301	0.009921
 525	2.6200e-01	5.2365	3.776786	0.000445	4.447184	0.753373	0.008895
 526	2.6250e-01	5.2460	3.813990	0.000372	3.720241	0.630226	0.007441
 527	2.6300e-01	5.2576	3.859318	0.000453	4.532707	0.767861	0.009066
 528	2.6350e-01	5.2670	3.909778	0.000505	5.045844	0.854789	0.010092
 529	2.6400e-01	5.2785	3.936291	0.000265	2.651206	0.449126	0.005303
 530	2.6450e-01	5.2884	3.965369	0.000291	2.907774	0.492590	0.005816
 531	2.6500e-01	5.2951	4.021388	0.000560	5.601742	0.948961	0.011204
 532	2.6550e-01	5.3055	4.063723	0.000423	4.233377	0.717154	0.008467
 533	2.6600e-01	5.3139	4.113755	0.000500	5.003082	0.847545	0.010006
 534	2.6650e-01	5.3253	4.147110	0.000334	3.335388	0.565030	0.006671
 535	2.6700e-01	5.3357	4.186879	0.000398	3.976809	0.673690	0.007954
 536	2.6750e-01	5.3464	4.226648	0.000398	3.976809	0.673690	0.007954
 537	2.6800e-01	5.3577	4.267273	0.000406	4.062332	0.688178	0.008125
 538	2.6850e-01	5.3668	4.311746	0.000445	4.447184	0.753373	0.008895
 539	2.6900e-01	5.3766	4.352370	0.000406	4.062332	0.688178	0.008125
 540	2.6950e-01	5.3876	4.390856	0.000385	3.848525	0.651958	0.007697
 541	2.7000e-01	5.3961	4.419935	0.000291	2.907774	0.492590	0.005816
 542	2.7050e-01	5.4065	4.462697	0.000428	4.276139	0.724397	0.008553
 543	2.7100e-01	5.4166	4.506743	0.000440	4.404423	0.746129	0.008809
 544	2.7150e-01	5.4254	4.553782	0.000470	4.703752	0.796837	0.009408
 545	2.7200e-01	5.4370	4.581150	0.000274	2.736729	0.463614	0.005474
 546	2.7250e-01	5.4457	4.619636	0.000385	3.848525	0.651958	0.007697
 547	2.7300e-01	5.4553	4.685490	0.000659	6.585253	1.115572	0.013171
 548	2.7350e-01	5.4669	4.706444	0.000210	2.095308	0.354955	0.004191
 549	2.7400e-01	5.4764	4.736378	0.000299	2.993297	0.507078	0.005987
 550	2.7450e-01	5.4840	4.800094	0.000637	6.371446	1.079352	0.012743
 551	2.7500e-01	5.4950	4.827889	0.000278	2.779490	0.470858	0.005559
 552	2.7550e-01	5.5042	4.870652	0.000428	4.276139	0.724397	0.008553
 553	2.7600e-01	5.5154	4.920256	0.000496	4.960321	0.840301	0.009921
 554	2.7650e-01	5.5255	4.958315	0.000381	3.805763	0.644714	0.007612
 555	2.7700e-01	5.5377	4.998512	0.000402	4.019570	0.680934	0.008039
 556	2.7750e-01	5.5463	5.029301	0.000308	3.078820	0.521566	0.006158
 557	2.7800e-01	5.5579	5.069070	0.000398	3.976809	0.673690	0.007954
 558	2.7850e-01	5.5658	5.104991	0.000359	3.591956	0.608494	0.007184
 559	2.7900e-01	5.5771	5.150319	0.000453	4.532707	0.767861	0.009066
 560	2.7950e-01	5.5859	5.189660	0.000393	3.934047	0.666446	0.007868
 561	2.8000e-01	5.5951	5.234133	0.000445	4.447184	0.753373	0.008895
 562	2.8050e-01	5.6067	5.274330	0.000402	4.019570	0.680934	0.008039
 563	2.8100e-01	5.6177	5.311961	0.000376	3.763002	0.637470	0.007526
 564	2.8150e-01	5.6271	5.346171	0.000342	3.420911	0.579518	0.006842
 565	2.8200e-01	5.6354	5.389789	0.000436	4.361661	0.738885	0.008724
 566	2.8250e-01	5.6458	5.423999	0.000342	3.420911	0.579518	0.006842
 567	2.8300e-01	5.6549	5.468472	0.000445	4.447184	0.753373	0.008895
 568	2.8350e-01	5.6665	5.502682	0.000342	3.420911	0.579518	0.006842
 569	2.8400e-01	5.6750	5.553142	0.000505	5.045844	0.854789	0.010092
 570	2.8450e-01	5.6848	5.597187	0.000440	4.404423	0.746129	0.008809
 571	2.8500e-01	5.6964	5.630542	0.000334	3.335388	0.565030	0.006671
 572	2.8550e-01	5.7074	5.673305	0.000428	4.276139	0.724397	0.008553
 573	2.8600e-01	5.7153	5.711363	0.000381	3.805763	0.644714	0.007612
 574	2.8650e-01	5.7257	5.751988	0.000406	4.062332	0.688178	0.008125
 575	2.8700e-01	5.7370	5.792612	0.000406	4.062332	0.688178	0.008125
 576	2.8750e-01	5.7477	5.820835	0.000282	2.822251	0.478102	0.005645
 577	2.8800e-01	5.7550	5.873006	0.000522	5.216889	0.883765	0.010434
 578	2.8850e-01	5.7655	5.914913	0.000419	4.190616	0.709910	0.008381
 579	2.8900e-01	5.7761	5.952116	0.000372	3.720241	0.630226	0.007441
 580	2.8950e-01	5.7858	5.997444	0.000453	4.532707	0.767861	0.009066
 581	2.9000e-01	5.7935	6.025668	0.000282	2.822251	0.478102	0.005645
 582	2.9050e-01	5.8063	6.071851	0.000462	4.618230	0.782349	0.009237
 583	2.9100e-01	5.8188	6.114186	0.000423	4.233377	0.717154	0.008467
 584	2.9150e-01	5.8261	6.137278	0.000231	2.309115	0.391175	0.004618
 585	2.9200e-01	5.8374	6.184744	0.000475	4.746514	0.804081	0.009493
 586	2.9250e-01	5.8478	6.223231	0.000385	3.848525	0.651958	0.007697
 587	2.9300e-01	5.8582	6.257013	0.000338	3.378149	0.572274	0.006756
 588	2.9350e-01	5.8646	6.312177	0.000552	5.516219	0.934473	0.011033
 589	2.9400e-01	5.8783	6.342538	0.000304	3.036058	0.514322	0.006072
 590	2.9450e-01	5.8878	6.380597	0.000381	3.805763	0.644714	0.007612
 591	2.9500e-01	5.8969	6.435333	0.000547	5.473457	0.927229	0.010947
 592	2.9550e-01	5.9070	6.470826	0.000355	3.549195	0.601250	0.007099
 593	2.9600e-01	5.9186	6.499049	0.000282	2.822251	0.478102	0.005645
 594	2.9650e-01	5.9271	6.550364	0.000513	5.131366	0.869277	0.010263
 595	2.9700e-01	5.9351	6.583291	0.000329	3.292627	0.557786	0.006585
 596	2.9750e-01	5.9451	6.617929	0.000346	3.463672	0.586762	0.006928
 597	2.9800e-01	5.9547	6.656415	0.000385	3.848525	0.651958	0.007697
 598	2.9850e-01	5.9665	6.696184	0.000398	3.976809	0.673690	0.007954
 599	2.9900e-01	5.9772	6.741512	0.000453	4.532707	0.767861	0.009066
 600	2.9950e-01	5.9869	6.784703	0.000432	4.318900	0.731641	0.008638
 601	3.0000e-01	5.9961	6.808222	0.000235	2.351876	0.398419	0.004704
 602	3.0050e-01	6.0077	6.867662	0.000594	5.943833	1.006913	0.011888
 603	3.0100e-01	6.0150	6.884767	0.000171	1.710455	0.289759	0.003421
 604	3.0150e-01	6.0315	6.966443	0.000817	8.167425	1.383599	0.016335
 605	3.0200e-01	6.0352	6.984404	0.000180	1.795978	0.304247	0.003592
 606	3.0250e-01	6.0474	7.016903	0.000325	3.249865	0.550542	0.006500
 607	3.0300e-01	6.0565	7.054962	0.000381	3.805763	0.644714	0.007612
 608	3.0350e-01	6.0657	7.089172	0.000342	3.420911	0.579518	0.006842
 609	3.0400e-01	6.0785	7.118678	0.000295	2.950536	0.499834	0.005901
 610	3.0450e-01	6.0858	7.164861	0.000462	4.618230	0.782349	0.009237
 611	3.0500e-01	6.0971	7.200782	0.000359	3.591956	0.608494	0.007184
 612	3.0550e-01	6.1047	7.251242	0.000505	5.045844	0.854789	0.010092
 613	3.0600e-01	6.1200	7.293149	0.000419	4.190616	0.709910	0.008381
 614	3.0650e-01	6.1273	7.318807	0.000257	2.565683	0.434638	0.005132
 615	3.0700e-01	6.1377	7.359003	0.000402	4.019570	0.680934	0.008039
 616	3.0750e-01	6.1456	7.407753	0.000487	4.874798	0.825813	0.009750
 617	3.0800e-01	6.1560	7.447094	0.000393	3.934047	0.666446	0.007868
 618	3.0850e-01	6.1655	7.481732	0.000346	3.463672	0.586762	0.006928
 619	3.0900e-01	6.1768	7.509955	0.000282	2.822251	0.478102	0.005645
 620	3.0950e-01	6.1865	7.560415	0.000505	5.045844	0.854789	0.010092
 621	3.1000e-01	6.2000	7.593770	0.000334	3.335388	0.565030	0.006671
 622	3.1050e-01	6.2036	7.639953	0.000462	4.618230	0.782349	0.009237
 623	3.1100e-01	6.2164	7.676301	0.000363	3.634718	0.615738	0.007270
 624	3.1150e-01	6.2277	7.707090	0.000308	3.078820	0.521566	0.006158
 625	3.1200e-01	6.2390	7.736596	0.000295	2.950536	0.499834	0.005901
 626	3.1250e-01	6.2451	7.779787	0.000432	4.318900	0.731641	0.008638
 627	3.1300e-01	6.2585	7.835806	0.000560	5.601742	0.948961	0.011204
 628	3.1350e-01	6.2665	7.865739	0.000299	2.993297	0.507078	0.005987
 629	3.1400e-01	6.2769	7.915771	0.000500	5.003082	0.847545	0.010006
 630	3.1450e-01	6.2875	7.938008	0.000222	2.223592	0.376687	0.004447
 631	3.1500e-01	6.2958	7.993599	0.000556	5.558980	0.941717	0.011118
 632	3.1550e-01	6.3098	8.023533	0.000299	2.993297	0.507078	0.005987
 633	3.1600e-01	6.3184	8.052612	0.000291	2.907774	0.492590	0.005816
 634	3.1650e-01	6.3257	8.099650	0.000470	4.703752	0.796837	0.009408
 635	3.1700e-01	6.3342	8.130439	0.000308	3.078820	0.521566	0.006158
 636	3.1750e-01	6.3440	8.180044	0.000496	4.960321	0.840301	0.009921
 637	3.1800e-01	6.3562	8.222806	0.000428	4.276139	0.724397	0.008553
 638	3.1850e-01	6.3647	8.261293	0.000385	3.848525	0.651958	0.007697
 639	3.1900e-01	6.3763	8.289516	0.000282	2.822251	0.478102	0.005645
 640	3.1950e-01	6.3818	8.330568	0.000411	4.105093	0.695422	0.008210
 641	3.2000e-01	6.3983	8.369910	0.000393	3.934047	0.666446	0.007868
 642	3.2050e-01	6.4070	8.414810	0.000449	4.489945	0.760617	0.008980
 643	3.2100e-01	6.4148	8.431060	0.000162	1.624933	0.275271	0.003250
 644	3.2150e-01	6.4276	8.482375	0.000513	5.131366	0.869277	0.010263
 645	3.2200e-01	6.4362	8.525565	0.000432	4.318900	0.731641	0.008638
 646	3.2250e-01	6.4441	8.556782	0.000312	3.121581	0.528810	0.006243
 647	3.2300e-01	6.4572	8.598689	0.000419	4.190616	0.709910	0.008381
 648	3.2350e-01	6.4661	8.640169	0.000415	4.147854	0.702666	0.008296
 649	3.2400e-01	6.4795	8.669247	0.000291	2.907774	0.492590	0.005816
 650	3.2450e-01	6.4893	8.713293	0.000440	4.404423	0.746129	0.008809
 651	3.2500e-01	6.4984	8.750496	0.000372	3.720241	0.630226	0.007441
 652	3.2550e-01	6.5073	8.788127	0.000376	3.763002	0.637470	0.007526
 653	3.2600e-01	6.5170	8.822765	0.000346	3.463672	0.586762	0.006928
 654	3.2650e-01	6.5259	8.868093	0.000453	4.532707	0.767861	0.009066
 655	3.2700e-01	6.5344	8.902303	0.000342	3.420911	0.579518	0.006842
 656	3.2750e-01	6.5460	8.948486	0.000462	4.618230	0.782349	0.009237
 657	3.2800e-01	6.5559	8.992104	0.000436	4.361661	0.738885	0.008724
 658	3.2850e-01	6.5668	9.022466	0.000304	3.036058	0.514322	0.006072
 659	3.2900e-01	6.5759	9.070360	0.000479	4.789275	0.811325	0.009579
 660	3.2950e-01	6.5887	9.086609	0.000162	1.624933	0.275271	0.003250
 661	3.3000e-01	6.5955	9.137069	0.000505	5.045844	0.854789	0.010092
 662	3.3050e-01	6.6052	9.174273	0.000372	3.720241	0.630226	0.007441
 663	3.3100e-01	6.6174	9.212331	0.000381	3.805763	0.644714	0.007612
 664	3.3150e-01	6.6260	9.249535	0.000372	3.720241	0.630226	0.007441
 665	3.3200e-01	6.6382	9.291442	0.000419	4.190616	0.709910	0.008381
 666	3.3250e-01	6.6483	9.326507	0.000351	3.506434	0.594006	0.007013
 667	3.3300e-01	6.6571	9.366276	0.000398	3.976809	0.673690	0.007954
 668	3.3350e-01	6.6678	9.397065	0.000308	3.078820	0.521566	0.006158
 669	3.3400e-01	6.6760	9.444532	0.000475	4.746514	0.804081	0.009493
 670	3.3450e-01	6.6852	9.480025	0.000355	3.549195	0.601250	0.007099
 671	3.3500e-01	6.6946	9.508248	0.000282	2.822251	0.478102	0.005645
 672	3.3550e-01	6.7059	9.555287	0.000470	4.703752	0.796837	0.009408
 673	3.3600e-01	6.7157	9.589497	0.000342	3.420911	0.579518	0.006842
 674	3.3650e-01	6.7249	9.620713	0.000312	3.121581	0.528810	0.006243
 675	3.3700e-01	6.7348	9.666469	0.000458	4.575468	0.775105	0.009151
 676	3.3750e-01	6.7432	9.700252	0.000338	3.378149	0.572274	0.006756
 677	3.3800e-01	6.7572	9.728903	0.000287	2.865013	0.485346	0.005730
 678	3.3850e-01	6.7645	9.782783	0.000539	5.387935	0.912741	0.010776
 679	3.3900e-01	6.7764	9.824691	0.000419	4.190616	0.709910	0.008381
 680	3.3950e-01	6.7865	9.852059	0.000274	2.736729	0.463614	0.005474
 681	3.4000e-01	6.7969	9.901663	0.000496	4.960321	0.840301	0.009921
 682	3.4050e-01	6.8066	9.925610	0.000239	2.394638	0.405663	0.004789
 683	3.4100e-01	6.8176	9.973932	0.000483	4.832037	0.818569	0.009664
 684	3.4150e-01	6.8298	10.011991	0.000381	3.805763	0.644714	0.007612
 685	3.4200e-01	6.8365	10.047483	0.000355	3.549195	0.601250	0.007099
 686	3.4250e-01	6.8459	10.084259	0.000368	3.677479	0.622982	0.007355
 687	3.4300e-01	6.8573	10.113338	0.000291	2.907774	0.492590	0.005816
 688	3.4350e-01	6.8666	10.156956	0.000436	4.361661	0.738885	0.008724
 689	3.4400e-01	6.8799	10.202711	0.000458	4.575468	0.775105	0.009151
 690	3.4450e-01	6.8866	10.232645	0.000299	2.993297	0.507078	0.005987
 691	3.4500e-01	6.8988	10.269849	0.000372	3.720241	0.630226	0.007441
 692	3.4550e-01	6.9098	10.300638	0.000308	3.078820	0.521566	0.006158
 693	3.4600e-01	6.9148	10.356657	0.000560	5.601742	0.948961	0.011204
 694	3.4650e-01	6.9257	10.383169	0.000265	2.651206	0.449126	0.005303
 695	3.4700e-01	6.9385	10.426359	0.000432	4.318900	0.731641	0.008638
 696	3.4750e-01	6.9464	10.463135	0.000368	3.677479	0.622982	0.007355
 697	3.4800e-01	6.9580	10.492641	0.000295	2.950536	0.499834	0.005901
 698	3.4850e-01	6.9653	10.532411	0.000398	3.976809	0.673690	0.007954
 699	3.4900e-01	6.9785	10.566621	0.000342	3.420911	0.579518	0.006842
 700	3.4950e-01	6.9885	10.615797	0.000492	4.917559	0.833057	0.009835
 701	3.5000e-01	6.9995	10.644876	0.000291	2.907774	0.492590	0.005816
 702	3.5050e-01	7.0047	10.685073	0.000402	4.019570	0.680934	0.008039
 703	3.5100e-01	7.0178	10.713296	0.000282	2.822251	0.478102	0.005645
 704	3.5150e-01	7.0251	10.758197	0.000449	4.489945	0.760617	0.008980
 705	3.5200e-01	7.0367	10.801814	0.000436	4.361661	0.738885	0.008724
 706	3.5250e-01	7.0462	10.842011	0.000402	4.019570	0.680934	0.008039
 707	3.5300e-01	7.0569	10.877504	0.000355	3.549195	0.601250	0.007099
 708	3.5350e-01	7.0673	10.901451	0.000239	2.394638	0.405663	0.004789
 709	3.5400e-01	7.0764	10.946352	0.000449	4.489945	0.760617	0.008980
 710	3.5450e-01	7.0880	10.989542	0.000432	4.318900	0.731641	0.008638
 711	3.5500e-01	7.0953	11.025462	0.000359	3.591956	0.608494	0.007184
 712	3.5550e-01	7.1082	11.059672	0.000342	3.420911	0.579518	0.006842
 713	3.5600e-01	7.1173	11.099869	0.000402	4.019570	0.680934	0.008039
 714	3.5650e-01	7.1295	11.132369	0.000325	3.249865	0.550542	0.006500
 715	3.5700e-01	7.1381	11.169145	0.000368	3.677479	0.622982	0.007355
 716	3.5750e-01	7.1481	11.208486	0.000393	3.934047	0.666446	0.007868
 717	3.5800e-01	7.1570	11.253387	0.000449	4.489945	0.760617	0.008980
 718	3.5850e-01	7.1664	11.283320	0.000299	2.993297	0.507078	0.005987
 719	3.5900e-01	7.1771	11.332070	0.000487	4.874798	0.825813	0.009750
 720	3.5950e-01	7.1858	11.370984	0.000389	3.891286	0.659202	0.007783
 721	3.6000e-01	7.1960	11.408615	0.000376	3.763002	0.637470	0.007526
 722	3.6050e-01	7.2070	11.444535	0.000359	3.591956	0.608494	0.007184
 723	3.6100e-01	7.2162	11.481311	0.000368	3.677479	0.622982	0.007355
 724	3.6150e-01	7.2272	11.512955	0.000316	3.164343	0.536054	0.006329
 725	3.6200e-01	7.2363	11.553580	0.000406	4.062332	0.688178	0.008125
 726	3.6250e-01	7.2470	11.589928	0.000363	3.634718	0.615738	0.007270
 727	3.6300e-01	7.2571	11.636967	0.000470	4.703752	0.796837	0.009408
 728	3.6350e-01	7.2668	11.668611	0.000316	3.164343	0.536054	0.006329
 729	3.6400e-01	7.2766	11.698545	0.000299	2.993297	0.507078	0.005987
 730	3.6450e-01	7.2876	11.744728	0.000462	4.618230	0.782349	0.009237
 731	3.6500e-01	7.2943	11.775090	0.000304	3.036058	0.514322	0.006072
 732	3.6550e-01	7.3041	11.822128	0.000470	4.703752	0.796837	0.009408
 733	3.6600e-01	7.3151	11.854200	0.000321	3.207104	0.543298	0.006414
 734	3.6650e-01	7.3248	11.893969	0.000398	3.976809	0.673690	0.007954
 735	3.6700e-01	7.3376	11.929035	0.000351	3.506434	0.594006	0.007013
 736	3.6750e-01	7.3456	11.968804	0.000398	3.976809	0.673690	0.007954
 737	3.6800e-01	7.3563	12.006435	0.000376	3.763002	0.637470	0.007526
 738	3.6850e-01	7.3648	12.044921	0.000385	3.848525	0.651958	0.007697
 739	3.6900e-01	7.3743	12.088111	0.000432	4.318900	0.731641	0.008638
 740	3.6950e-01	7.3871	12.115052	0.000269	2.693967	0.456370	0.005388
 741	3.7000e-01	7.3975	12.158669	0.000436	4.361661	0.738885	0.008724
 742	3.7050e-01	7.4066	12.183472	0.000248	2.480160	0.420151	0.004960
 743	3.7100e-01	7.4164	12.219820	0.000363	3.634718	0.615738	0.007270
 744	3.7150e-01	7.4274	12.272845	0.000530	5.302412	0.898253	0.010605
 745	3.7200e-01	7.4365	12.306628	0.000338	3.378149	0.572274	0.006756
 746	3.7250e-01	7.4469	12.341265	0.000346	3.463672	0.586762	0.006928
 747	3.7300e-01	7.4582	12.372054	0.000308	3.078820	0.521566	0.006158
 748	3.7350e-01	7.4652	12.412679	0.000406	4.062332	0.688178	0.008125
 749	3.7400e-01	7.4744	12.451165	0.000385	3.848525	0.651958	0.007697
 750	3.7450e-01	7.4860	12.490079	0.000389	3.891286	0.659202	0.007783
 751	3.7500e-01	7.5006	12.527282	0.000372	3.720241	0.630226	0.007441
 752	3.7550e-01	7.5055	12.563203	0.000359	3.591956	0.608494	0.007184
 753	3.7600e-01	7.5162	12.607676	0.000445	4.447184	0.753373	0.008895
 754	3.7650e-01	7.5262	12.643596	0.000359	3.591956	0.608494	0.007184
 755	3.7700e-01	7.5357	12.670965	0.000274	2.736729	0.463614	0.005474
 756	3.7750e-01	7.5452	12.719286	0.000483	4.832037	0.818569	0.009664
 757	3.7800e-01	7.5562	12.762476	0.000432	4.318900	0.731641	0.008638
 758	3.7850e-01	7.5696	12.791982	0.000295	2.950536	0.499834	0.005901
 759	3.7900e-01	7.5751	12.822771	0.000308	3.078820	0.521566	0.006158
 760	3.7950e-01	7.5870	12.867245	0.000445	4.447184	0.753373	0.008895
 761	3.8000e-01	7.5958	12.902737	0.000355	3.549195	0.601250	0.007099
 762	3.8050e-01	7.6057	12.946355	0.000436	4.361661	0.738885	0.008724
 763	3.8100e-01	7.6147	12.977572	0.000312	3.121581	0.528810	0.006243
 764	3.8150e-01	7.6251	13.019907	0.000423	4.233377	0.717154	0.008467
 765	3.8200e-01	7.6361	13.060531	0.000406	4.062332	0.688178	0.008125
 766	3.8250e-01	7.6471	13.089610	0.000291	2.907774	0.492590	0.005816
 767	3.8300e-01	7.6563	13.131517	0.000419	4.190616	0.709910	0.008381
 768	3.8350e-01	7.6636	13.165727	0.000342	3.420911	0.579518	0.006842
 769	3.8400e-01	7.6764	13.211483	0.000458	4.575468	0.775105	0.009151
 770	3.8450e-01	7.6862	13.246548	0.000351	3.506434	0.594006	0.007013
 771	3.8500e-01	7.6971	13.264936	0.000184	1.838740	0.311491	0.003678
 772	3.8550e-01	7.7042	13.309409	0.000445	4.447184	0.753373	0.008895
 773	3.8600e-01	7.7179	13.361152	0.000517	5.174128	0.876521	0.010349
 774	3.8650e-01	7.7280	13.390658	0.000295	2.950536	0.499834	0.005901
 775	3.8700e-01	7.7374	13.427861	0.000372	3.720241	0.630226	0.007441
 776	3.8750e-01	7.7454	13.471051	0.000432	4.318900	0.731641	0.008638
 777	3.8800e-01	7.7582	13.519373	0.000483	4.832037	0.818569	0.009664
 778	3.8850e-01	7.7655	13.541610	0.000222	2.223592	0.376687	0.004447
 779	3.8900e-01	7.7771	13.585227	0.000436	4.361661	0.738885	0.008724
 780	3.8950e-01	7.7838	13.622003	0.000368	3.677479	0.622982	0.007355
 781	3.9000e-01	7.7948	13.656641	0.000346	3.463672	0.586762	0.006928
 782	3.9050e-01	7.8058	13.698120	0.000415	4.147854	0.702666	0.008296
 783	3.9100e-01	7.8180	13.732330	0.000342	3.420911	0.579518	0.006842
 784	3.9150e-01	7.8271	13.767396	0.000351	3.506434	0.594006	0.007013
 785	3.9200e-01	7.8363	13.808875	0.000415	4.147854	0.702666	0.008296
 786	3.9250e-01	7.8479	13.849500	0.000406	4.062332	0.688178	0.008125
 787	3.9300e-01	7.8577	13.881999	0.000325	3.249865	0.550542	0.006500
 788	3.9350e-01	7.8650	13.922624	0.000406	4.062332	0.688178	0.008125
 789	3.9400e-01	7.8757	13.962393	0.000398	3.976809	0.673690	0.007954
 790	3.9450e-01	7.8851	13.995320	0.000329	3.292627	0.557786	0.006585
 791	3.9500e-01	7.8979	14.037227	0.000419	4.190616	0.709910	0.008381
 792	3.9550e-01	7.9083	14.073575	0.000363	3.634718	0.615738	0.007270
 793	3.9600e-01	7.9144	14.112917	0.000393	3.934047	0.666446	0.007868
 794	3.9650e-01	7.9248	14.146272	0.000334	3.335388	0.565030	0.006671
 795	3.9700e-01	7.9364	14.180054	0.000338	3.378149	0.572274	0.006756
 796	3.9750e-01	7.9468	14.220251	0.000402	4.019570	0.680934	0.008039
 797	3.9800e-01	7.9602	14.257454	0.000372	3.720241	0.630226	0.007441
 798	3.9850e-01	7.9669	14.289954	0.000325	3.249865	0.550542	0.006500
 799	3.9900e-01	7.9767	14.334427	0.000445	4.447184	0.753373	0.008895
 800	3.9950e-01	7.9877	14.378045	0.000436	4.361661	0.738885	0.008724
 801	4.0000e-01	7.9956	14.412255	0.000342	3.420911	0.579518	0.006842
 802	4.0050e-01	8.0067	14.447748	0.000355	3.549195	0.601250	0.007099
 803	4.0100e-01	8.0124	14.502911	0.000552	5.516219	0.934473	0.011033
 804	4.0150e-01	8.0273	14.528141	0.000252	2.522922	0.427395	0.005046
 805	4.0200e-01	8.0389	14.554654	0.000265	2.651206	0.449126	0.005303
 806	4.0250e-01	8.0460	14.604686	0.000500	5.003082	0.847545	0.010006
 807	4.0300e-01	8.0573	14.639324	0.000346	3.463672	0.586762	0.006928
 808	4.0350e-01	8.0664	14.677382	0.000381	3.805763	0.644714	0.007612
 809	4.0400e-01	8.0768	14.709882	0.000325	3.249865	0.550542	0.006500
 810	4.0450e-01	8.0884	14.763763	0.000539	5.387935	0.912741	0.010776
 811	4.0500e-01	8.0975	14.794552	0.000308	3.078820	0.521566	0.006158
 812	4.0550e-01	8.1073	14.845867	0.000513	5.131366	0.869277	0.010263
 813	4.0600e-01	8.1152	14.874090	0.000282	2.822251	0.478102	0.005645
 814	4.0650e-01	8.1250	14.917280	0.000432	4.318900	0.731641	0.008638
 815	4.0700e-01	8.1360	14.957049	0.000398	3.976809	0.673690	0.007954
 816	4.0750e-01	8.1464	14.983990	0.000269	2.693967	0.456370	0.005388
 817	4.0800e-01	8.1567	15.037443	0.000535	5.345173	0.905497	0.010691
 818	4.0850e-01	8.1647	15.072080	0.000346	3.463672	0.586762	0.006928
 819	4.0900e-01	8.1781	15.109284	0.000372	3.720241	0.630226	0.007441
 820	4.0950e-01	8.1860	15.145204	0.000359	3.591956	0.608494	0.007184
 821	4.1000e-01	8.1958	15.171289	0.000261	2.608445	0.441882	0.005217
 822	4.1050e-01	8.2076	15.215763	0.000445	4.447184	0.753373	0.008895
 823	4.1100e-01	8.2092	15.268360	0.000526	5.259650	0.891009	0.010520
 824	4.1150e-01	8.2251	15.293590	0.000252	2.522922	0.427395	0.005046
 825	4.1200e-01	8.2379	15.347899	0.000543	5.430696	0.919985	0.010862
 826	4.1250e-01	8.2452	15.378688	0.000308	3.078820	0.521566	0.006158
 827	4.1300e-01	8.2568	15.406483	0.000278	2.779490	0.470858	0.005559
 828	4.1350e-01	8.2654	15.467206	0.000607	6.072117	1.028644	0.012145
 829	4.1400e-01	8.2753	15.490298	0.000231	2.309115	0.391175	0.004618
 830	4.1450e-01	8.2855	15.535199	0.000449	4.489945	0.760617	0.008980
 831	4.1500e-01	8.2959	15.572830	0.000376	3.763002	0.637470	0.007526
 832	4.1550e-01	8.3102	15.604902	0.000321	3.207104	0.543298	0.006414
 833	4.1600e-01	8.3167	15.645954	0.000411	4.105093	0.695422	0.008210
 834	4.1650e-01	8.3282	15.681446	0.000355	3.549195	0.601250	0.007099
 835	4.1700e-01	8.3356	15.735327	0.000539	5.387935	0.912741	0.010776
 836	4.1750e-01	8.3478	15.764406	0.000291	2.907774	0.492590	0.005816
 837	4.1800e-01	8.3569	15.803747	0.000393	3.934047	0.666446	0.007868
 838	4.1850e-01	8.3685	15.841806	0.000381	3.805763	0.644714	0.007612
 839	4.1900e-01	8.3771	15.873450	0.000316	3.164343	0.536054	0.006329
 840	4.1950e-01	8.3875	15.929897	0.000564	5.644503	0.956205	0.011289
 841	4.2000e-01	8.3972	15.959403	0.000295	2.950536	0.499834	0.005901
 842	4.2050e-01	8.4100	15.990620	0.000312	3.121581	0.528810	0.006243
 843	4.2100e-01	8.4149	16.032099	0.000415	4.147854	0.702666	0.008296
 844	4.2150e-01	8.4247	16.067592	0.000355	3.549195	0.601250	0.007099
 845	4.2200e-01	8.4351	16.111637	0.000440	4.404423	0.746129	0.008809
 846	4.2250e-01	8.4467	16.160387	0.000487	4.874798	0.825813	0.009750
 847	4.2300e-01	8.4564	16.203577	0.000432	4.318900	0.731641	0.008638
 848	4.2350e-01	8.4683	16.225813	0.000222	2.223592	0.376687	0.004447
 849	4.2400e-01	8.4772	16.273707	0.000479	4.789275	0.811325	0.009579
 850	4.2450e-01	8.4851	16.321174	0.000475	4.746514	0.804081	0.009493
 851	4.2500e-01	8.4979	16.350252	0.000291	2.907774	0.492590	0.005816
 852	4.2550e-01	8.5052	16.393443	0.000432	4.318900	0.731641	0.008638
 853	4.2600e-01	8.5175	16.424659	0.000312	3.121581	0.528810	0.006243
 854	4.2650e-01	8.5242	16.479395	0.000547	5.473457	0.927229	0.010947
 855	4.2700e-01	8.5358	16.514888	0.000355	3.549195	0.601250	0.007099
 856	4.2750e-01	8.5455	16.552947	0.000381	3.805763	0.644714	0.007612
 857	4.2800e-01	8.5541	16.592288	0.000393	3.934047	0.666446	0.007868
 858	4.2850e-01	8.5638	16.631630	0.000393	3.934047	0.666446	0.007868
 859	4.2900e-01	8.5803	16.676103	0.000445	4.447184	0.753373	0.008895
 860	4.2950e-01	8.5858	16.706464	0.000304	3.036058	0.514322	0.006072
 861	4.3000e-01	8.5974	16.749227	0.000428	4.276139	0.724397	0.008553
 862	4.3050e-01	8.6041	16.793272	0.000440	4.404423	0.746129	0.008809
 863	4.3100e-01	8.6166	16.834324	0.000411	4.105093	0.695422	0.008210
 864	4.3150e-01	8.6267	16.872383	0.000381	3.805763	0.644714	0.007612
 865	4.3200e-01	8.6340	16.912580	0.000402	4.019570	0.680934	0.008039
 866	4.3250e-01	8.6469	16.951066	0.000385	3.848525	0.651958	0.007697
 867	4.3300e-01	8.6578	16.991263	0.000402	4.019570	0.680934	0.008039
 868	4.3350e-01	8.6658	17.030177	0.000389	3.891286	0.659202	0.007783
 869	4.3400e-01	8.6743	17.083202	0.000530	5.302412	0.898253	0.010605
 870	4.3450e-01	8.6859	17.111425	0.000282	2.822251	0.478102	0.005645
 871	4.3500e-01	8.6960	17.149484	0.000381	3.805763	0.644714	0.007612
 872	4.3550e-01	8.7073	17.188826	0.000393	3.934047	0.666446	0.007868
 873	4.3600e-01	8.7152	17.240568	0.000517	5.174128	0.876521	0.010349
 874	4.3650e-01	8.7256	17.274351	0.000338	3.378149	0.572274	0.006756
 875	4.3700e-01	8.7360	17.308988	0.000346	3.463672	0.586762	0.006928
 876	4.3750e-01	8.7482	17.353461	0.000445	4.447184	0.753373	0.008895
 877	4.3800e-01	8.7604	17.397934	0.000445	4.447184	0.753373	0.008895
 878	4.3850e-01	8.7689	17.438986	0.000411	4.105093	0.695422	0.008210
 879	4.3900e-01	8.7769	17.481321	0.000423	4.233377	0.717154	0.008467
 880	4.3950e-01	8.7872	17.503558	0.000222	2.223592	0.376687	0.004447
 881	4.4000e-01	8.7970	17.570695	0.000671	6.713538	1.137304	0.013427
 882	4.4050e-01	8.8080	17.592076	0.000214	2.138069	0.362199	0.004276
 883	4.4100e-01	8.8159	17.640825	0.000487	4.874798	0.825813	0.009750
 884	4.4150e-01	8.8287	17.687009	0.000462	4.618230	0.782349	0.009237
 885	4.4200e-01	8.8364	17.724640	0.000376	3.763002	0.637470	0.007526
 886	4.4250e-01	8.8470	17.763126	0.000385	3.848525	0.651958	0.007697
 887	4.4300e-01	8.8544	17.799902	0.000368	3.677479	0.622982	0.007355
 888	4.4350e-01	8.8687	17.841809	0.000419	4.190616	0.709910	0.008381
 889	4.4400e-01	8.8776	17.887138	0.000453	4.532707	0.767861	0.009066
 890	4.4450e-01	8.8846	17.932038	0.000449	4.489945	0.760617	0.008980
 891	4.4500e-01	8.8953	17.977367	0.000453	4.532707	0.767861	0.009066
 892	4.4550e-01	8.9075	18.015425	0.000381	3.805763	0.644714	0.007612
 893	4.4600e-01	8.9178	18.058188	0.000428	4.276139	0.724397	0.008553
 894	4.4650e-01	8.9252	18.103944	0.000458	4.575468	0.775105	0.009151
 895	4.4700e-01	8.9380	18.134733	0.000308	3.078820	0.521566	0.006158
 896	4.4750e-01	8.9465	18.172364	0.000376	3.763002	0.637470	0.007526
 897	4.4800e-01	8.9551	18.221113	0.000487	4.874798	0.825813	0.009750
 898	4.4850e-01	8.9642	18.276704	0.000556	5.558980	0.941717	0.011118
 899	4.4900e-01	8.9758	18.307493	0.000308	3.078820	0.521566	0.006158
 900	4.4950e-01	8.9844	18.348973	0.000415	4.147854	0.702666	0.008296
 901	4.5000e-01	8.9954	18.385749	0.000368	3.677479	0.622982	0.007355
 902	4.5050e-01	9.0063	18.430222	0.000445	4.447184	0.753373	0.008895
 903	4.5100e-01	9.0125	18.490089	0.000599	5.986594	1.014156	0.011974
 904	4.5150e-01	9.0253	18.518313	0.000282	2.822251	0.478102	0.005645
 905	4.5200e-01	9.0347	18.568345	0.000500	5.003082	0.847545	0.010006
 906	4.5250e-01	9.0466	18.597423	0.000291	2.907774	0.492590	0.005816
 907	4.5300e-01	9.0576	18.640186	0.000428	4.276139	0.724397	0.008553
 908	4.5350e-01	9.0698	18.682948	0.000428	4.276139	0.724397	0.008553
 909	4.5400e-01	9.0753	18.725283	0.000423	4.233377	0.717154	0.008467
 910	4.5450e-01	9.0875	18.777026	0.000517	5.174128	0.876521	0.010349
 911	4.5500e-01	9.0939	18.829196	0.000522	5.216889	0.883765	0.010434
 912	4.5550e-01	9.1071	18.856992	0.000278	2.779490	0.470858	0.005559
 913	4.5600e-01	9.1153	18.920280	0.000633	6.328685	1.072108	0.012658
 914	4.5650e-01	9.1266	18.939096	0.000188	1.881501	0.318735	0.003763
 915	4.5700e-01	9.1339	18.985707	0.000466	4.660991	0.789593	0.009322
 916	4.5750e-01	9.1473	19.028897	0.000432	4.318900	0.731641	0.008638
 917	4.5800e-01	9.1559	19.074225	0.000453	4.532707	0.767861	0.009066
 918	4.5850e-01	9.1675	19.124258	0.000500	5.003082	0.847545	0.010006
 919	4.5900e-01	9.1779	19.158040	0.000338	3.378149	0.572274	0.006756
 920	4.5950e-01	9.1858	19.206362	0.000483	4.832037	0.818569	0.009664
 921	4.6000e-01	9.1949	19.243993	0.000376	3.763002	0.637470	0.007526
 922	4.6050e-01	9.2053	19.286755	0.000428	4.276139	0.724397	0.008553
 923	4.6100e-01	9.2151	19.339781	0.000530	5.302412	0.898253	0.010605
 924	4.6150e-01	9.2233	19.368859	0.000291	2.907774	0.492590	0.005816
 925	4.6200e-01	9.2358	19.426589	0.000577	5.772787	0.977937	0.011546
 926	4.6250e-01	9.2462	19.468068	0.000415	4.147854	0.702666	0.008296
 927	4.6300e-01	9.2554	19.502278	0.000342	3.420911	0.579518	0.006842
 928	4.6350e-01	9.2651	19.560008	0.000577	5.772787	0.977937	0.011546
 929	4.6400e-01	9.2792	19.590797	0.000308	3.078820	0.521566	0.006158
 930	4.6450e-01	9.2865	19.646388	0.000556	5.558980	0.941717	0.011118
 931	4.6500e-01	9.2950	19.694710	0.000483	4.832037	0.818569	0.009664
 932	4.6550e-01	9.3060	19.734906	0.000402	4.019570	0.680934	0.008039
 933	4.6600e-01	9.3140	19.774248	0.000393	3.934047	0.666446	0.007868
 934	4.6650e-01	9.3268	19.820004	0.000458	4.575468	0.775105	0.009151
 935	4.6700e-01	9.3372	19.873457	0.000535	5.345173	0.905497	0.010691
 936	4.6750e-01	9.3469	19.899542	0.000261	2.608445	0.441882	0.005217
 937	4.6800e-01	9.3542	19.949147	0.000496	4.960321	0.840301	0.009921
 938	4.6850e-01	9.3665	20.006448	0.000573	5.730026	0.970693	0.011460
 939	4.6900e-01	9.3756	20.032106	0.000257	2.565683	0.434638	0.005132
 940	4.6950e-01	9.3872	20.100954	0.000688	6.884583	1.166280	0.013770
 941	4.7000e-01	9.3958	20.132598	0.000316	3.164343	0.536054	0.006329
 942	4.7050e-01	9.4034	20.181347	0.000487	4.874798	0.825813	0.009750
 943	4.7100e-01	9.4165	20.222399	0.000411	4.105093	0.695422	0.008210
 944	4.7150e-01	9.4293	20.271149	0.000487	4.874798	0.825813	0.009750
 945	4.7200e-01	9.4318	20.314339	0.000432	4.318900	0.731641	0.008638
 946	4.7250e-01	9.4440	20.356674	0.000423	4.233377	0.717154	0.008467
 947	4.7300e-01	9.4543	20.420390	0.000637	6.371446	1.079352	0.012743
 948	4.7350e-01	9.4653	20.452462	0.000321	3.207104	0.543298	0.006414
 949	4.7400e-01	9.4733	20.503777	0.000513	5.131366	0.869277	0.010263
 950	4.7450e-01	9.4861	20.551671	0.000479	4.789275	0.811325	0.009579
 951	4.7500e-01	9.4928	20.590157	0.000385	3.848525	0.651958	0.007697
 952	4.7550e-01	9.5062	20.641472	0.000513	5.131366	0.869277	0.010263
 953	4.7600e-01	9.5178	20.678248	0.000368	3.677479	0.622982	0.007355
 954	4.7650e-01	9.5239	20.736832	0.000586	5.858310	0.992425	0.011717
 955	4.7700e-01	9.5361	20.774036	0.000372	3.720241	0.630226	0.007441
 956	4.7750e-01	9.5483	20.821502	0.000475	4.746514	0.804081	0.009493
 957	4.7800e-01	9.5569	20.879232	0.000577	5.772787	0.977937	0.011546
 958	4.7850e-01	9.5667	20.909593	0.000304	3.036058	0.514322	0.006072
 959	4.7900e-01	9.5758	20.959198	0.000496	4.960321	0.840301	0.009921
 960	4.7950e-01	9.5850	21.010513	0.000513	5.131366	0.869277	0.010263
 961	4.8000e-01	9.5953	21.063966	0.000535	5.345173	0.905497	0.010691
 962	4.8050e-01	9.6057	21.107156	0.000432	4.318900	0.731641	0.008638
 963	4.8100e-01	9.6149	21.163602	0.000564	5.644503	0.956205	0.011289
 964	4.8150e-01	9.6259	21.193536	0.000299	2.993297	0.507078	0.005987
 965	4.8200e-01	9.6350	21.253404	0.000599	5.986594	1.014156	0.011974
 966	4.8250e-01	9.6448	21.291890	0.000385	3.848525	0.651958	0.007697
 967	4.8300e-01	9.6558	21.348764	0.000569	5.687264	0.963449	0.011375
 968	4.8350e-01	9.6643	21.402645	0.000539	5.387935	0.912741	0.010776
 969	4.8400e-01	9.6747	21.433434	0.000308	3.078820	0.521566	0.006158
 970	4.8450e-01	9.6866	21.493302	0.000599	5.986594	1.014156	0.011974
 971	4.8500e-01	9.6985	21.532643	0.000393	3.934047	0.666446	0.007868
 972	4.8550e-01	9.7064	21.576261	0.000436	4.361661	0.738885	0.008724
 973	4.8600e-01	9.7137	21.639977	0.000637	6.371446	1.079352	0.012743
 974	4.8650e-01	9.7266	21.676325	0.000363	3.634718	0.615738	0.007270
 975	4.8700e-01	9.7363	21.739186	0.000629	6.285924	1.064864	0.012572
 976	4.8750e-01	9.7455	21.778955	0.000398	3.976809	0.673690	0.007954
 977	4.8800e-01	9.7546	21.831981	0.000530	5.302412	0.898253	0.010605
 978	4.8850e-01	9.7656	21.878592	0.000466	4.660991	0.789593	0.009322
 979	4.8900e-01	9.7754	21.932473	0.000539	5.387935	0.912741	0.010776
 980	4.8950e-01	9.7845	21.978656	0.000462	4.618230	0.782349	0.009237
 981	4.9000e-01	9.7937	22.024840	0.000462	4.618230	0.782349	0.009237
 982	4.9050e-01	9.8083	22.085135	0.000603	6.029355	1.021400	0.012059
 983	4.9100e-01	9.8151	22.136022	0.000509	5.088605	0.862033	0.010177
 984	4.9150e-01	9.8224	22.175364	0.000393	3.934047	0.666446	0.007868
 985	4.9200e-01	9.8352	22.231383	0.000560	5.601742	0.948961	0.011204
 986	4.9250e-01	9.8480	22.271152	0.000398	3.976809	0.673690	0.007954
 987	4.9300e-01	9.8560	22.328881	0.000577	5.772787	0.977937	0.011546
 988	4.9350e-01	9.8676	22.384045	0.000552	5.516219	0.934473	0.011033
 989	4.9400e-01	9.8737	22.439209	0.000552	5.516219	0.934473	0.011033
 990	4.9450e-01	9.8859	22.482826	0.000436	4.361661	0.738885	0.008724
 991	4.9500e-01	9.8987	22.530293	0.000475	4.746514	0.804081	0.009493
 992	4.9550e-01	9.9048	22.572628	0.000423	4.233377	0.717154	0.008467
 993	4.9600e-01	9.9146	22.643614	0.000710	7.098390	1.202500	0.014197
 994	4.9650e-01	9.9274	22.694929	0.000513	5.131366	0.869277	0.010263
 995	4.9700e-01	9.9353	22.744105	0.000492	4.917559	0.833057	0.009835
 996	4.9750e-01	9.9475	22.795848	0.000517	5.174128	0.876521	0.010349
 997	4.9800e-01	9.9567	22.844597	0.000487	4.874798	0.825813	0.009750
 998	4.9850e-01	9.9670	22.888215	0.000436	4.361661	0.738885	0.008724
 999	4.9900e-01	9.9719	22.945089	0.000569	5.687264	0.963449	0.011375
1000	4.9950e-01	9.9837	22.996404	0.000513	5.131366	0.869277	0.010263
1001	5.0000e-01	9.9963	23.040450	0.000440	4.404423	0.746129	0.008809
1002	5.0050e-01	9.9884	23.041305	-0.000009	-0.085523	-0.014488	0.000171
1003	5.0100e-01	9.9762	23.048147	-0.000068	-0.684182	-0.115904	0.001368
1004	5.0150e-01	9.9634	23.032753	0.000154	1.539410	0.260783	-0.003079
1005	5.0200e-01	9.9554	23.036601	-0.000038	-0.384852	-0.065196	0.000770
1006	5.0250e-01	9.9448	23.033608	0.000030	0.299330	0.050708	-0.000599
1007	5.0300e-01	9.9359	23.026766	0.000068	0.684182	0.115904	-0.001368
1008	5.0350e-01	9.9249	23.030614	-0.000038	-0.384852	-0.065196	0.000770
1009	5.0400e-01	9.9139	23.007523	0.000231	2.309115	0.391175	-0.004618
1010	5.0450e-01	9.9048	23.016503	-0.000090	-0.897989	-0.152123	0.001796
1011	5.0500e-01	9.8965	23.003674	0.000128	1.282842	0.217319	-0.002566
1012	5.0550e-01	9.8871	22.998970	0.000047	0.470375	0.079684	-0.000941
1013	5.0600e-01	9.8743	22.993411	0.000056	0.555898	0.094172	-0.001112
1014	5.0650e-01	9.8669	22.981438	0.000120	1.197319	0.202831	-0.002395
1015	5.0700e-01	9.8547	22.978444	0.000030	0.299330	0.050708	-0.000599
1016	5.0750e-01	9.8450	22.961339	0.000171	1.710455	0.289759	-0.003421
1017	5.0800e-01	9.8383	22.948083	0.000133	1.325603	0.224563	-0.002651
1018	5.0850e-01	9.8242	22.945517	0.000026	0.256568	0.043464	-0.000513
1019	5.0900e-01	9.8151	22.937392	0.000081	0.812466	0.137636	-0.001625
1020	5.0950e-01	9.8071	22.929267	0.000081	0.812466	0.137636	-0.001625
1021	5.1000e-01	9.7986	22.910024	0.000192	1.924262	0.325979	-0.003849
1022	5.1050e-01	9.7870	22.910024	-0.000000	-0.000000	-0.000000	0.000000
1023	5.1100e-01	9.7733	22.901899	0.000081	0.812466	0.137636	-0.001625
1024	5.1150e-01	9.7656	22.887788	0.000141	1.411126	0.239051	-0.002822
1025	5.1200e-01	9.7559	22.887788	-0.000000	-0.000000	-0.000000	0.000000
1026	5.1250e-01	9.7461	22.860420	0.000274	2.736729	0.463614	-0.005474
1027	5.1300e-01	9.7382	22.848446	0.000120	1.197319	0.202831	-0.002395
1028	5.1350e-01	9.7278	22.839894	0.000086	0.855228	0.144879	-0.001711
1029	5.1400e-01	9.7137	22.830913	0.000090	0.897989	0.152123	-0.001796
1030	5.1450e-01	9.7046	22.813808	0.000171	1.710455	0.289759	-0.003421
1031	5.1500e-01	9.6948	22.798842	0.000150	1.496648	0.253539	-0.002993
1032	5.1550e-01	9.6875	22.784302	0.000145	1.453887	0.246295	-0.002908
1033	5.1600e-01	9.6780	22.769335	0.000150	1.496648	0.253539	-0.002993
1034	5.1650e-01	9.6643	22.774039	-0.000047	-0.470375	-0.079684	0.000941
1035	5.1700e-01	9.6570	22.757789	0.000162	1.624933	0.275271	-0.003250
1036	5.1750e-01	9.6466	22.738546	0.000192	1.924262	0.325979	-0.003849
1037	5.1800e-01	9.6350	22.726573	0.000120	1.197319	0.202831	-0.002395
1038	5.1850e-01	9.6255	22.711606	0.000150	1.496648	0.253539	-0.002993
1039	5.1900e-01	9.6155	22.697922	0.000137	1.368364	0.231807	-0.002737
1040	5.1950e-01	9.6039	22.675685	0.000222	2.223592	0.376687	-0.004447
1041	5.2000e-01	9.5959	22.668843	0.000068	0.684182	0.115904	-0.001368
1042	5.2050e-01	9.5880	22.654304	0.000145	1.453887	0.246295	-0.002908
1043	5.2100e-01	9.5734	22.636344	0.000180	1.795978	0.304247	-0.003592
1044	5.2150e-01	9.5642	22.623943	0.000124	1.240080	0.210075	-0.002480
1045	5.2200e-01	9.5575	22.599141	0.000248	2.480160	0.420151	-0.004960
1046	5.2250e-01	9.5444	22.592726	0.000064	0.641421	0.108660	-0.001283
1047	5.2300e-01	9.5355	22.573055	0.000197	1.967024	0.333223	-0.003934
1048	5.2350e-01	9.5279	22.549964	0.000231	2.309115	0.391175	-0.004618
1049	5.2400e-01	9.5154	22.536280	0.000137	1.368364	0.231807	-0.002737
1050	5.2450e-01	9.5081	22.523023	0.000133	1.325603	0.224563	-0.002651
1051	5.2500e-01	9.4934	22.507201	0.000158	1.582171	0.268027	-0.003164
1052	5.2550e-01	9.4867	22.490951	0.000162	1.624933	0.275271	-0.003250
1053	5.2600e-01	9.4794	22.474702	0.000162	1.624933	0.275271	-0.003250
1054	5.2650e-01	9.4653	22.451610	0.000231	2.309115	0.391175	-0.004618
1055	5.2700e-01	9.4543	22.438353	0.000133	1.325603	0.224563	-0.002651
1056	5.2750e-01	9.4452	22.431939	0.000064	0.641421	0.108660	-0.001283
1057	5.2800e-01	9.4379	22.406282	0.000257	2.565683	0.434638	-0.005132
1058	5.2850e-01	9.4287	22.378058	0.000282	2.822251	0.478102	-0.005645
1059	5.2900e-01	9.4153	22.372499	0.000056	0.555898	0.094172	-0.001112
1060	5.2950e-01	9.4081	22.340000	0.000325	3.249865	0.550542	-0.006500
1061	5.3000e-01	9.3982	22.334868	0.000051	0.513137	0.086928	-0.001026
1062	5.3050e-01	9.3848	22.321612	0.000133	1.325603	0.224563	-0.002651
1063	5.3100e-01	9.3759	22.293388	0.000282	2.822251	0.478102	-0.005645
1064	5.3150e-01	9.3665	22.278422	0.000150	1.496648	0.253539	-0.002993
1065	5.3200e-01	9.3567	22.256185	0.000222	2.223592	0.376687	-0.004447
1066	5.3250e-01	9.3460	22.246777	0.000094	0.940750	0.159367	-0.001882
1067	5.3300e-01	9.3384	22.225396	0.000214	2.138069	0.362199	-0.004276
1068	5.3350e-01	9.3268	22.209146	0.000162	1.624933	0.275271	-0.003250
1069	5.3400e-01	9.3158	22.188620	0.000205	2.052547	0.347711	-0.004105
1070	5.3450e-01	9.3066	22.168949	0.000197	1.967024	0.333223	-0.003934
1071	5.3500e-01	9.2957	22.147141	0.000218	2.180831	0.369443	-0.004362
1072	5.3550e-01	9.2871	22.130036	0.000171	1.710455	0.289759	-0.003421
1073	5.3600e-01	9.2773	22.102240	0.000278	2.779490	0.470858	-0.005559
1074	5.3650e-01	9.2659	22.082569	0.000197	1.967024	0.333223	-0.003934
1075	5.3700e-01	9.2563	22.063754	0.000188	1.881501	0.318735	-0.003763
1076	5.3750e-01	9.2474	22.062898	0.000009	0.085523	0.014488	-0.000171
1077	5.3800e-01	9.2352	22.029544	0.000334	3.335388	0.565030	-0.006671
1078	5.3850e-01	9.2242	22.008162	0.000214	2.138069	0.362199	-0.004276
1079	5.3900e-01	9.2126	22.001748	0.000064	0.641421	0.108660	-0.001283
1080	5.3950e-01	9.2053	21.962406	0.000393	3.934047	0.666446	-0.007868
1081	5.4000e-01	9.2010	21.944019	0.000184	1.838740	0.311491	-0.003678
1082	5.4050e-01	9.1864	21.916223	0.000278	2.779490	0.470858	-0.005559
1083	5.4100e-01	9.1766	21.902967	0.000133	1.325603	0.224563	-0.002651
1084	5.4150e-01	9.1644	21.882441	0.000205	2.052547	0.347711	-0.004105
1085	5.4200e-01	9.1583	21.857211	0.000252	2.522922	0.427395	-0.005046
1086	5.4250e-01	9.1469	21.831553	0.000257	2.565683	0.434638	-0.005132
1087	5.4300e-01	9.1357	21.820863	0.000107	1.069035	0.181099	-0.002138
1088	5.4350e-01	9.1278	21.798626	0.000222	2.223592	0.376687	-0.004447
1089	5.4400e-01	9.1162	21.775534	0.000231	2.309115	0.391175	-0.004618
1090	5.4450e-01	9.1040	21.759712	0.000158	1.582171	0.268027	-0.003164
1091	5.4500e-01	9.0973	21.730634	0.000291	2.907774	0.492590	-0.005816
1092	5.4550e-01	9.0845	21.709680	0.000210	2.095308	0.354955	-0.004191
1093	5.4600e-01	9.0778	21.680601	0.000291	2.907774	0.492590	-0.005816
1094	5.4650e-01	9.0649	21.666062	0.000145	1.453887	0.246295	-0.002908
1095	5.4700e-01	9.0582	21.632280	0.000338	3.378149	0.572274	-0.006756
1096	5.4750e-01	9.0448	21.619879	0.000124	1.240080	0.210075	-0.002480
1097	5.4800e-01	9.0347	21.593366	0.000265	2.651206	0.449126	-0.005303
1098	5.4850e-01	9.0253	21.577544	0.000158	1.582171	0.268027	-0.003164
1099	5.4900e-01	9.0137	21.563004	0.000145	1.453887	0.246295	-0.002908
1100	5.4950e-01	9.0085	21.532215	0.000308	3.078820	0.521566	-0.006158
1101	5.5000e-01	8.9954	21.522808	0.000094	0.940750	0.159367	-0.001882
1102	5.5050e-01	8.9862	21.484749	0.000381	3.805763	0.644714	-0.007612
1103	5.5100e-01	8.9728	21.458236	0.000265	2.651206	0.449126	-0.005303
1104	5.5150e-01	8.9658	21.440276	0.000180	1.795978	0.304247	-0.003592
1105	5.5200e-01	8.9539	21.424454	0.000158	1.582171	0.268027	-0.003164
1106	5.5250e-01	8.9441	21.404355	0.000201	2.009785	0.340467	-0.004020
1107	5.5300e-01	8.9362	21.368007	0.000363	3.634718	0.615738	-0.007270
1108	5.5350e-01	8.9258	21.340639	0.000274	2.736729	0.463614	-0.005474
1109	5.5400e-01	8.9148	21.320541	0.000201	2.009785	0.340467	-0.004020
1110	5.5450e-01	8.9050	21.309423	0.000111	1.111796	0.188343	-0.002224
1111	5.5500e-01	8.8965	21.278206	0.000312	3.121581	0.528810	-0.006243
1112	5.5550e-01	8.8861	21.249983	0.000282	2.822251	0.478102	-0.005645
1113	5.5600e-01	8.8763	21.229029	0.000210	2.095308	0.354955	-0.004191
1114	5.5650e-01	8.8672	21.199095	0.000299	2.993297	0.507078	-0.005987
1115	5.5700e-01	8.8589	21.182418	0.000167	1.667694	0.282515	-0.003335
1116	5.5750e-01	8.8448	21.166596	0.000158	1.582171	0.268027	-0.003164
1117	5.5800e-01	8.8367	21.124261	0.000423	4.233377	0.717154	-0.008467
1118	5.5850e-01	8.8275	21.116991	0.000073	0.726944	0.123148	-0.001454
1119	5.5900e-01	8.8135	21.088340	0.000287	2.865013	0.485346	-0.005730
1120	5.5950e-01	8.8052	21.056269	0.000321	3.207104	0.543298	-0.006414
1121	5.6000e-01	8.7982	21.043440	0.000128	1.282842	0.217319	-0.002566
1122	5.6050e-01	8.7878	21.010085	0.000334	3.335388	0.565030	-0.006671
1123	5.6100e-01	8.7750	20.993835	0.000162	1.624933	0.275271	-0.003250
1124	5.6150e-01	8.7653	20.969461	0.000244	2.437399	0.412907	-0.004875
1125	5.6200e-01	8.7598	20.946369	0.000231	2.309115	0.391175	-0.004618
1126	5.6250e-01	8.7469	20.921139	0.000252	2.522922	0.427395	-0.005046
1127	5.6300e-01	8.7366	20.877949	0.000432	4.318900	0.731641	-0.008638
1128	5.6350e-01	8.7311	20.867258	0.000107	1.069035	0.181099	-0.002138
1129	5.6400e-01	8.7152	20.830482	0.000368	3.677479	0.622982	-0.007355
1130	5.6450e-01	8.7054	20.822785	0.000077	0.769705	0.130392	-0.001539
1131	5.6500e-01	8.6951	20.804397	0.000184	1.838740	0.311491	-0.003678
1132	5.6550e-01	8.6859	20.763345	0.000411	4.105093	0.695422	-0.008210
1133	5.6600e-01	8.6746	20.738115	0.000252	2.522922	0.427395	-0.005046
1134	5.6650e-01	8.6633	20.711603	0.000265	2.651206	0.449126	-0.005303
1135	5.6700e-01	8.6568	20.682524	0.000291	2.907774	0.492590	-0.005816
1136	5.6750e-01	8.6441	20.666702	0.000158	1.582171	0.268027	-0.003164
1137	5.6800e-01	8.6346	20.636768	0.000299	2.993297	0.507078	-0.005987
1138	5.6850e-01	8.6273	20.620091	0.000167	1.667694	0.282515	-0.003335
1139	5.6900e-01	8.6163	20.583315	0.000368	3.677479	0.622982	-0.007355
1140	5.6950e-01	8.6096	20.552954	0.000304	3.036058	0.514322	-0.006072
1141	5.7000e-01	8.5959	20.536276	0.000167	1.667694	0.282515	-0.003335
1142	5.7050e-01	8.5864	20.510191	0.000261	2.608445	0.441882	-0.005217
1143	5.7100e-01	8.5754	20.479830	0.000304	3.036058	0.514322	-0.006072
1144	5.7150e-01	8.5657	20.464008	0.000158	1.582171	0.268027	-0.003164
1145	5.7200e-01	8.5547	20.443909	0.000201	2.009785	0.340467	-0.004020
1146	5.7250e-01	8.5461	20.412265	0.000316	3.164343	0.536054	-0.006329
1147	5.7300e-01	8.5361	20.383614	0.000287	2.865013	0.485346	-0.005730
1148	5.7350e-01	8.5254	20.358812	0.000248	2.480160	0.420151	-0.004960
1149	5.7400e-01	8.5150	20.334865	0.000239	2.394638	0.405663	-0.004789
1150	5.7450e-01	8.5074	20.296806	0.000381	3.805763	0.644714	-0.007612
1151	5.7500e-01	8.4961	20.266017	0.000308	3.078820	0.521566	-0.006158
1152	5.7550e-01	8.4860	20.236083	0.000299	2.993297	0.507078	-0.005987
1153	5.7600e-01	8.4778	20.222827	0.000133	1.325603	0.224563	-0.002651
1154	5.7650e-01	8.4659	20.191610	0.000312	3.121581	0.528810	-0.006243
1155	5.7700e-01	8.4537	20.175788	0.000158	1.582171	0.268027	-0.003164
1156	5.7750e-01	8.4460	20.144571	0.000312	3.121581	0.528810	-0.006243
1157	5.7800e-01	8.4375	20.117631	0.000269	2.693967	0.456370	-0.005388
1158	5.7850e-01	8.4241	20.082993	0.000346	3.463672	0.586762	-0.006928
1159	5.7900e-01	8.4158	20.056908	0.000261	2.608445	0.441882	-0.005217
1160	5.7950e-01	8.4064	20.032106	0.000248	2.480160	0.420151	-0.004960
1161	5.8000e-01	8.3972	20.005593	0.000265	2.651206	0.449126	-0.005303
1162	5.8050e-01	8.3856	19.983357	0.000222	2.223592	0.376687	-0.004447
1163	5.8100e-01	8.3765	19.950430	0.000329	3.292627	0.557786	-0.006585
1164	5.8150e-01	8.3691	19.920923	0.000295	2.950536	0.499834	-0.005901
1165	5.8200e-01	8.3575	19.899542	0.000214	2.138069	0.362199	-0.004276
1166	5.8250e-01	8.3521	19.860628	0.000389	3.891286	0.659202	-0.007783
1167	5.8300e-01	8.3386	19.839247	0.000214	2.138069	0.362199	-0.004276
1168	5.8350e-01	8.3276	19.824708	0.000145	1.453887	0.246295	-0.002908
1169	5.8400e-01	8.3185	19.787077	0.000376	3.763002	0.637470	-0.007526
1170	5.8450e-01	8.3093	19.757998	0.000291	2.907774	0.492590	-0.005816
1171	5.8500e-01	8.2971	19.727209	0.000308	3.078820	0.521566	-0.006158
1172	5.8550e-01	8.2886	19.701979	0.000252	2.522922	0.427395	-0.005046
1173	5.8600e-01	8.2742	19.682309	0.000197	1.967024	0.333223	-0.003934
1174	5.8650e-01	8.2678	19.649809	0.000325	3.249865	0.550542	-0.006500
1175	5.8700e-01	8.2556	19.632276	0.000175	1.753217	0.297003	-0.003507
1176	5.8750e-01	8.2458	19.592080	0.000402	4.019570	0.680934	-0.008039
1177	5.8800e-01	8.2361	19.570698	0.000214	2.138069	0.362199	-0.004276
1178	5.8850e-01	8.2257	19.538626	0.000321	3.207104	0.543298	-0.006414
1179	5.8900e-01	8.2178	19.499285	0.000393	3.934047	0.666446	-0.007868
1180	5.8950e-01	8.2080	19.484746	0.000145	1.453887	0.246295	-0.002908
1181	5.9000e-01	8.1958	19.448397	0.000363	3.634718	0.615738	-0.007270
1182	5.9050e-01	8.1848	19.427871	0.000205	2.052547	0.347711	-0.004105
1183	5.9100e-01	8.1772	19.397082	0.000308	3.078820	0.521566	-0.006158
1184	5.9150e-01	8.1668	19.370997	0.000261	2.608445	0.441882	-0.005217
1185	5.9200e-01	8.1580	19.348333	0.000227	2.266353	0.383931	-0.004533
1186	5.9250e-01	8.1458	19.317544	0.000308	3.078820	0.521566	-0.006158
1187	5.9300e-01	8.1348	19.295308	0.000222	2.223592	0.376687	-0.004447
1188	5.9350e-01	8.1262	19.267940	0.000274	2.736729	0.463614	-0.005474
1189	5.9400e-01	8.1180	19.224322	0.000436	4.361661	0.738885	-0.008724
1190	5.9450e-01	8.1049	19.211493	0.000128	1.282842	0.217319	-0.002566
1191	5.9500e-01	8.0963	19.170869	0.000406	4.062332	0.688178	-0.008125
1192	5.9550e-01	8.0853	19.147777	0.000231	2.309115	0.391175	-0.004618
1193	5.9600e-01	8.0750	19.125113	0.000227	2.266353	0.383931	-0.004533
1194	5.9650e-01	8.0658	19.087054	0.000381	3.805763	0.644714	-0.007612
1195	5.9700e-01	8.0569	19.066100	0.000210	2.095308	0.354955	-0.004191
1196	5.9750e-01	8.0457	19.028469	0.000376	3.763002	0.637470	-0.007526
1197	5.9800e-01	8.0377	18.996825	0.000316	3.164343	0.536054	-0.006329
1198	5.9850e-01	8.0249	18.969885	0.000269	2.693967	0.456370	-0.005388
1199	5.9900e-01	8.0164	18.939523	0.000304	3.036058	0.514322	-0.006072
1200	5.9950e-01	8.0060	18.918997	0.000205	2.052547	0.347711	-0.004105
1201	6.0000e-01	7.9987	18.882649	0.000363	3.634718	0.615738	-0.007270
1202	6.0050e-01	7.9868	18.852715	0.000299	2.993297	0.507078	-0.005987
1203	6.0100e-01	7.9761	18.825347	0.000274	2.736729	0.463614	-0.005474
1204	6.0150e-01	7.9665	18.797979	0.000274	2.736729	0.463614	-0.005474
1205	6.0200e-01	7.9578	18.777026	0.000210	2.095308	0.354955	-0.004191
1206	6.0250e-01	7.9456	18.751368	0.000257	2.565683	0.434638	-0.005132
1207	6.0300e-01	7.9340	18.725283	0.000261	2.608445	0.441882	-0.005217
1208	6.0350e-01	7.9260	18.682093	0.000432	4.318900	0.731641	-0.008638
1209	6.0400e-01	7.9169	18.653870	0.000282	2.822251	0.478102	-0.005645
1210	6.0450e-01	7.9053	18.621798	0.000321	3.207104	0.543298	-0.006414
1211	6.0500e-01	7.8955	18.588443	0.000334	3.335388	0.565030	-0.006671
1212	6.0550e-01	7.8833	18.557654	0.000308	3.078820	0.521566	-0.006158
1213	6.0600e-01	7.8772	18.529431	0.000282	2.822251	0.478102	-0.005645
1214	6.0650e-01	7.8650	18.511898	0.000175	1.753217	0.297003	-0.003507
1215	6.0700e-01	7.8564	18.469136	0.000428	4.276139	0.724397	-0.008553
1216	6.0750e-01	7.8497	18.449037	0.000201	2.009785	0.340467	-0.004020
1217	6.0800e-01	7.8360	18.413544	0.000355	3.549195	0.601250	-0.007099
1218	6.0850e-01	7.8259	18.390025	0.000235	2.351876	0.398419	-0.004704
1219	6.0900e-01	7.8162	18.359236	0.000308	3.078820	0.521566	-0.006158
1220	6.0950e-01	7.8070	18.327164	0.000321	3.207104	0.543298	-0.006414
1221	6.1000e-01	7.7985	18.299368	0.000278	2.779490	0.470858	-0.005559
1222	6.1050e-01	7.7856	18.274566	0.000248	2.480160	0.420151	-0.004960
1223	6.1100e-01	7.7759	18.238218	0.000363	3.634718	0.615738	-0.007270
1224	6.1150e-01	7.7673	18.204436	0.000338	3.378149	0.572274	-0.006756
1225	6.1200e-01	7.7567	18.189041	0.000154	1.539410	0.260783	-0.003079
1226	6.1250e-01	7.7472	18.153121	0.000359	3.591956	0.608494	-0.007184
1227	6.1300e-01	7.7356	18.113351	0.000398	3.976809	0.673690	-0.007954
1228	6.1350e-01	7.7255	18.086839	0.000265	2.651206	0.449126	-0.005303
1229	6.1400e-01	7.7130	18.055622	0.000312	3.121581	0.528810	-0.006243
1230	6.1450e-01	7.7069	18.023122	0.000325	3.249865	0.550542	-0.006500
1231	6.1500e-01	7.6971	17.998320	0.000248	2.480160	0.420151	-0.004960
1232	6.1550e-01	7.6859	17.973518	0.000248	2.480160	0.420151	-0.004960
1233	6.1600e-01	7.6752	17.934176	0.000393	3.934047	0.666446	-0.007868
1234	6.1650e-01	7.6660	17.905526	0.000287	2.865013	0.485346	-0.005730
1235	6.1700e-01	7.6556	17.884144	0.000214	2.138069	0.362199	-0.004276
1236	6.1750e-01	7.6453	17.845658	0.000385	3.848525	0.651958	-0.007697
1237	6.1800e-01	7.6361	17.819145	0.000265	2.651206	0.449126	-0.005303
1238	6.1850e-01	7.6270	17.774672	0.000445	4.447184	0.753373	-0.008895
1239	6.1900e-01	7.6166	17.760561	0.000141	1.411126	0.239051	-0.002822
1240	6.1950e-01	7.6031	17.719081	0.000415	4.147854	0.702666	-0.008296
1241	6.2000e-01	7.5952	17.699410	0.000197	1.967024	0.333223	-0.003934
1242	6.2050e-01	7.5885	17.667766	0.000316	3.164343	0.536054	-0.006329
1243	6.2100e-01	7.5769	17.630562	0.000372	3.720241	0.630226	-0.007441
1244	6.2150e-01	7.5656	17.607471	0.000231	2.309115	0.391175	-0.004618
1245	6.2200e-01	7.5549	17.576254	0.000312	3.121581	0.528810	-0.006243
1246	6.2250e-01	7.5436	17.545465	0.000308	3.078820	0.521566	-0.006158
1247	6.2300e-01	7.5363	17.511255	0.000342	3.420911	0.579518	-0.006842
1248	6.2350e-01	7.5256	17.474479	0.000368	3.677479	0.622982	-0.007355
1249	6.2400e-01	7.5165	17.441124	0.000334	3.335388	0.565030	-0.006671
1250	6.2450e-01	7.5073	17.420171	0.000210	2.095308	0.354955	-0.004191
1251	6.2500e-01	7.4945	17.391520	0.000287	2.865013	0.485346	-0.005730
1252	6.2550e-01	7.4890	17.361159	0.000304	3.036058	0.514322	-0.006072
1253	6.2600e-01	7.4747	17.329942	0.000312	3.121581	0.528810	-0.006243
1254	6.2650e-01	7.4689	17.297870	0.000321	3.207104	0.543298	-0.006414
1255	6.2700e-01	7.4554	17.252114	0.000458	4.575468	0.775105	-0.009151
1256	6.2750e-01	7.4457	17.235437	0.000167	1.667694	0.282515	-0.003335
1257	6.2800e-01	7.4323	17.214055	0.000214	2.138069	0.362199	-0.004276
1258	6.2850e-01	7.4258	17.178135	0.000359	3.591956	0.608494	-0.007184
1259	6.2900e-01	7.4152	17.128530	0.000496	4.960321	0.840301	-0.009921
1260	6.2950e-01	7.4060	17.109287	0.000192	1.924262	0.325979	-0.003849
1261	6.3000e-01	7.3981	17.081064	0.000282	2.822251	0.478102	-0.005645
1262	6.3050e-01	7.3871	17.047282	0.000338	3.378149	0.572274	-0.006756
1263	6.3100e-01	7.3785	17.010933	0.000363	3.634718	0.615738	-0.007270
1264	6.3150e-01	7.3679	16.985276	0.000257	2.565683	0.434638	-0.005132
1265	6.3200e-01	7.3584	16.961757	0.000235	2.351876	0.398419	-0.004704
1266	6.3250e-01	7.3462	16.910014	0.000517	5.174128	0.876521	-0.010349
1267	6.3300e-01	7.3380	16.883501	0.000265	2.651206	0.449126	-0.005303
1268	6.3350e-01	7.3264	16.864686	0.000188	1.881501	0.318735	-0.003763
1269	6.3400e-01	7.3206	16.836890	0.000278	2.779490	0.470858	-0.005559
1270	6.3450e-01	7.3056	16.786858	0.000500	5.003082	0.847545	-0.010006
1271	6.3500e-01	7.2980	16.748372	0.000385	3.848525	0.651958	-0.007697
1272	6.3550e-01	7.2882	16.724424	0.000239	2.394638	0.405663	-0.004789
1273	6.3600e-01	7.2791	16.701760	0.000227	2.266353	0.383931	-0.004533
1274	6.3650e-01	7.2662	16.665412	0.000363	3.634718	0.615738	-0.007270
1275	6.3700e-01	7.2583	16.632913	0.000325	3.249865	0.550542	-0.006500
1276	6.3750e-01	7.2449	16.608538	0.000244	2.437399	0.412907	-0.004875
1277	6.3800e-01	7.2360	16.571762	0.000368	3.677479	0.622982	-0.007355
1278	6.3850e-01	7.2247	16.547815	0.000239	2.394638	0.405663	-0.004789
1279	6.3900e-01	7.2174	16.521302	0.000265	2.651206	0.449126	-0.005303
1280	6.3950e-01	7.2037	16.474691	0.000466	4.660991	0.789593	-0.009322
1281	6.4000e-01	7.1980	16.438343	0.000363	3.634718	0.615738	-0.007270
1282	6.4050e-01	7.1863	16.417390	0.000210	2.095308	0.354955	-0.004191
1283	6.4100e-01	7.1741	16.381469	0.000359	3.591956	0.608494	-0.007184
1284	6.4150e-01	7.1658	16.348970	0.000325	3.249865	0.550542	-0.006500
1285	6.4200e-01	7.1548	16.309200	0.000398	3.976809	0.673690	-0.007954
1286	6.4250e-01	7.1454	16.292951	0.000162	1.624933	0.275271	-0.003250
1287	6.4300e-01	7.1350	16.236076	0.000569	5.687264	0.963449	-0.011375
1288	6.4350e-01	7.1271	16.215978	0.000201	2.009785	0.340467	-0.004020
1289	6.4400e-01	7.1133	16.185617	0.000304	3.036058	0.514322	-0.006072
1290	6.4450e-01	7.1075	16.153117	0.000325	3.249865	0.550542	-0.006500
1291	6.4500e-01	7.0978	16.118479	0.000346	3.463672	0.586762	-0.006928
1292	6.4550e-01	7.0868	16.090684	0.000278	2.779490	0.470858	-0.005559
1293	6.4600e-01	7.0764	16.051770	0.000389	3.891286	0.659202	-0.007783
1294	6.4650e-01	7.0639	16.025685	0.000261	2.608445	0.441882	-0.005217
1295	6.4700e-01	7.0563	15.985488	0.000402	4.019570	0.680934	-0.008039
1296	6.4750e-01	7.0477	15.961113	0.000244	2.437399	0.412907	-0.004875
1297	6.4800e-01	7.0367	15.928186	0.000329	3.292627	0.557786	-0.006585
1298	6.4850e-01	7.0245	15.886707	0.000415	4.147854	0.702666	-0.008296
1299	6.4900e-01	7.0178	15.850786	0.000359	3.591956	0.608494	-0.007184
1300	6.4950e-01	7.0056	15.826411	0.000244	2.437399	0.412907	-0.004875
1301	6.5000e-01	6.9934	15.796905	0.000295	2.950536	0.499834	-0.005901
1302	6.5050e-01	6.9867	15.746873	0.000500	5.003082	0.847545	-0.010006
1303	6.5100e-01	6.9769	15.730196	0.000167	1.667694	0.282515	-0.003335
1304	6.5150e-01	6.9659	15.698551	0.000316	3.164343	0.536054	-0.006329
1305	6.5200e-01	6.9556	15.663059	0.000355	3.549195	0.601250	-0.007099
1306	6.5250e-01	6.9452	15.627566	0.000355	3.549195	0.601250	-0.007099
1307	6.5300e-01	6.9360	15.586514	0.000411	4.105093	0.695422	-0.008210
1308	6.5350e-01	6.9275	15.567698	0.000188	1.881501	0.318735	-0.003763
1309	6.5400e-01	6.9171	15.530922	0.000368	3.677479	0.622982	-0.007355
1310	6.5450e-01	6.9067	15.495002	0.000359	3.591956	0.608494	-0.007184
1311	6.5500e-01	6.8994	15.460792	0.000342	3.420911	0.579518	-0.006842
1312	6.5550e-01	6.8878	15.443259	0.000175	1.753217	0.297003	-0.003507
1313	6.5600e-01	6.8774	15.392799	0.000505	5.045844	0.854789	-0.010092
1314	6.5650e-01	6.8671	15.353458	0.000393	3.934047	0.666446	-0.007868
1315	6.5700e-01	6.8567	15.324379	0.000291	2.907774	0.492590	-0.005816
1316	6.5750e-01	6.8463	15.300005	0.000244	2.437399	0.412907	-0.004875
1317	6.5800e-01	6.8332	15.266650	0.000334	3.335388	0.565030	-0.006671
1318	6.5850e-01	6.8253	15.232012	0.000346	3.463672	0.586762	-0.006928
1319	6.5900e-01	6.8170	15.182408	0.000496	4.960321	0.840301	-0.009921
1320	6.5950e-01	6.8073	15.161026	0.000214	2.138069	0.362199	-0.004276
1321	6.6000e-01	6.7963	15.136652	0.000244	2.437399	0.412907	-0.004875
1322	6.6050e-01	6.7836	15.094745	0.000419	4.190616	0.709910	-0.008381
1323	6.6100e-01	6.7755	15.061817	0.000329	3.292627	0.557786	-0.006585
1324	6.6150e-01	6.7676	15.022048	0.000398	3.976809	0.673690	-0.007954
1325	6.6200e-01	6.7554	15.001522	0.000205	2.052547	0.347711	-0.004105
1326	6.6250e-01	6.7438	14.963464	0.000381	3.805763	0.644714	-0.007612
1327	6.6300e-01	6.7340	14.922839	0.000406	4.062332	0.688178	-0.008125
1328	6.6350e-01	6.7261	14.896326	0.000265	2.651206	0.449126	-0.005303
1329	6.6400e-01	6.7169	14.860406	0.000359	3.591956	0.608494	-0.007184
1330	6.6450e-01	6.7078	14.823630	0.000368	3.677479	0.622982	-0.007355
1331	6.6500e-01	6.6986	14.794552	0.000291	2.907774	0.492590	-0.005816
1332	6.6550e-01	6.6882	14.750506	0.000440	4.404423	0.746129	-0.008809
1333	6.6600e-01	6.6745	14.729125	0.000214	2.138069	0.362199	-0.004276
1334	6.6650e-01	6.6652	14.683369	0.000458	4.575468	0.775105	-0.009151
1335	6.6700e-01	6.6522	14.660705	0.000227	2.266353	0.383931	-0.004533
1336	6.6750e-01	6.6455	14.621791	0.000389	3.891286	0.659202	-0.007783
1337	6.6800e-01	6.6354	14.579884	0.000419	4.190616	0.709910	-0.008381
1338	6.6850e-01	6.6281	14.543536	0.000363	3.634718	0.615738	-0.007270
1339	6.6900e-01	6.6171	14.520871	0.000227	2.266353	0.383931	-0.004533
1340	6.6950e-01	6.6052	14.493503	0.000274	2.736729	0.463614	-0.005474
1341	6.7000e-01	6.5945	14.459293	0.000342	3.420911	0.579518	-0.006842
1342	6.7050e-01	6.5863	14.416959	0.000423	4.233377	0.717154	-0.008467
1343	6.7100e-01	6.5759	14.384459	0.000325	3.249865	0.550542	-0.006500
1344	6.7150e-01	6.5662	14.342124	0.000423	4.233377	0.717154	-0.008467
1345	6.7200e-01	6.5570	14.317749	0.000244	2.437399	0.412907	-0.004875
1346	6.7250e-01	6.5448	14.282257	0.000355	3.549195	0.601250	-0.007099
1347	6.7300e-01	6.5399	14.242915	0.000393	3.934047	0.666446	-0.007868
1348	6.7350e-01	6.5240	14.213837	0.000291	2.907774	0.492590	-0.005816
1349	6.7400e-01	6.5161	14.177916	0.000359	3.591956	0.608494	-0.007184
1350	6.7450e-01	6.5076	14.144989	0.000329	3.292627	0.557786	-0.006585
1351	6.7500e-01	6.4954	14.108213	0.000368	3.677479	0.622982	-0.007355
1352	6.7550e-01	6.4859	14.074431	0.000338	3.378149	0.572274	-0.006756
1353	6.7600e-01	6.4752	14.038938	0.000355	3.549195	0.601250	-0.007099
1354	6.7650e-01	6.4661	14.014991	0.000239	2.394638	0.405663	-0.004789
1355	6.7700e-01	6.4572	13.966669	0.000483	4.832037	0.818569	-0.009664
1356	6.7750e-01	6.4453	13.939729	0.000269	2.693967	0.456370	-0.005388
1357	6.7800e-01	6.4349	13.904663	0.000351	3.506434	0.594006	-0.007013
1358	6.7850e-01	6.4255	13.868315	0.000363	3.634718	0.615738	-0.007270
1359	6.7900e-01	6.4178	13.829829	0.000385	3.848525	0.651958	-0.007697
1360	6.7950e-01	6.4041	13.791770	0.000381	3.805763	0.644714	-0.007612
1361	6.8000e-01	6.3950	13.759698	0.000321	3.207104	0.543298	-0.006414
1362	6.8050e-01	6.3831	13.730192	0.000295	2.950536	0.499834	-0.005901
1363	6.8100e-01	6.3745	13.696410	0.000338	3.378149	0.572274	-0.006756
1364	6.8150e-01	6.3651	13.653647	0.000428	4.276139	0.724397	-0.008553
1365	6.8200e-01	6.3574	13.612168	0.000415	4.147854	0.702666	-0.008296
1366	6.8250e-01	6.3483	13.580523	0.000316	3.164343	0.536054	-0.006329
1367	6.8300e-01	6.3367	13.545031	0.000355	3.549195	0.601250	-0.007099
1368	6.8350e-01	6.3251	13.518945	0.000261	2.608445	0.441882	-0.005217
1369	6.8400e-01	6.3205	13.486446	0.000325	3.249865	0.550542	-0.006500
1370	6.8450e-01	6.3071	13.446249	0.000402	4.019570	0.680934	-0.008039
1371	6.8500e-01	6.2949	13.415032	0.000312	3.121581	0.528810	-0.006243
1372	6.8550e-01	6.2860	13.382961	0.000321	3.207104	0.543298	-0.006414
1373	6.8600e-01	6.2762	13.344902	0.000381	3.805763	0.644714	-0.007612
1374	6.8650e-01	6.2659	13.308981	0.000359	3.591956	0.608494	-0.007184
1375	6.8700e-01	6.2567	13.274344	0.000346	3.463672	0.586762	-0.006928
1376	6.8750e-01	6.2479	13.237996	0.000363	3.634718	0.615738	-0.007270
1377	6.8800e-01	6.2384	13.199937	0.000381	3.805763	0.644714	-0.007612
1378	6.8850e-01	6.2256	13.167437	0.000325	3.249865	0.550542	-0.006500
1379	6.8900e-01	6.2152	13.134510	0.000329	3.292627	0.557786	-0.006585
1380	6.8950e-01	6.2076	13.102011	0.000325	3.249865	0.550542	-0.006500
1381	6.9000e-01	6.2006	13.067373	0.000346	3.463672	0.586762	-0.006928
1382	6.9050e-01	6.1884	13.030597	0.000368	3.677479	0.622982	-0.007355
1383	6.9100e-01	6.1781	12.989973	0.000406	4.062332	0.688178	-0.008125
1384	6.9150e-01	6.1676	12.948066	0.000419	4.190616	0.709910	-0.008381
1385	6.9200e-01	6.1560	12.918560	0.000295	2.950536	0.499834	-0.005901
1386	6.9250e-01	6.1472	12.891619	0.000269	2.693967	0.456370	-0.005388
1387	6.9300e-01	6.1360	12.849284	0.000423	4.233377	0.717154	-0.008467
1388	6.9350e-01	6.1281	12.815074	0.000342	3.420911	0.579518	-0.006842
1389	6.9400e-01	6.1148	12.786851	0.000282	2.822251	0.478102	-0.005645
1390	6.9450e-01	6.1063	12.746227	0.000406	4.062332	0.688178	-0.008125
1391	6.9500e-01	6.0977	12.706885	0.000393	3.934047	0.666446	-0.007868
1392	6.9550e-01	6.0867	12.666261	0.000406	4.062332	0.688178	-0.008125
1393	6.9600e-01	6.0760	12.633333	0.000329	3.292627	0.557786	-0.006585
1394	6.9650e-01	6.0670	12.600834	0.000325	3.249865	0.550542	-0.006500
1395	6.9700e-01	6.0559	12.557216	0.000436	4.361661	0.738885	-0.008724
1396	6.9750e-01	6.0501	12.518730	0.000385	3.848525	0.651958	-0.007697
1397	6.9800e-01	6.0370	12.504618	0.000141	1.411126	0.239051	-0.002822
1398	6.9850e-01	6.0251	12.454158	0.000505	5.045844	0.854789	-0.010092
1399	6.9900e-01	6.0168	12.410968	0.000432	4.318900	0.731641	-0.008638
1400	6.9950e-01	6.0071	12.381035	0.000299	2.993297	0.507078	-0.005987
1401	7.0000e-01	5.9988	12.356232	0.000248	2.480160	0.420151	-0.004960
1402	7.0050e-01	5.9863	12.317746	0.000385	3.848525	0.651958	-0.007697
1403	7.0100e-01	5.9747	12.286529	0.000312	3.121581	0.528810	-0.006243
1404	7.0150e-01	5.9680	12.242484	0.000440	4.404423	0.746129	-0.008809
1405	7.0200e-01	5.9589	12.207846	0.000346	3.463672	0.586762	-0.006928
1406	7.0250e-01	5.9473	12.172353	0.000355	3.549195	0.601250	-0.007099
1407	7.0300e-01	5.9351	12.124032	0.000483	4.832037	0.818569	-0.009664
1408	7.0350e-01	5.9254	12.097519	0.000265	2.651206	0.449126	-0.005303
1409	7.0400e-01	5.9206	12.053046	0.000445	4.447184	0.753373	-0.008895
1410	7.0450e-01	5.9070	12.022257	0.000308	3.078820	0.521566	-0.006158
1411	7.0500e-01	5.8957	11.979922	0.000423	4.233377	0.717154	-0.008467
1412	7.0550e-01	5.8875	11.949133	0.000308	3.078820	0.521566	-0.006158
1413	7.0600e-01	5.8768	11.917489	0.000316	3.164343	0.536054	-0.006329
1414	7.0650e-01	5.8656	11.885417	0.000321	3.207104	0.543298	-0.006414
1415	7.0700e-01	5.8575	11.846503	0.000389	3.891286	0.659202	-0.007783
1416	7.0750e-01	5.8432	11.814859	0.000316	3.164343	0.536054	-0.006329
1417	7.0800e-01	5.8344	11.777228	0.000376	3.763002	0.637470	-0.007526
1418	7.0850e-01	5.8276	11.725913	0.000513	5.131366	0.869277	-0.010263
1419	7.0900e-01	5.8192	11.685288	0.000406	4.062332	0.688178	-0.008125
1420	7.0950e-01	5.8105	11.662624	0.000227	2.266353	0.383931	-0.004533
1421	7.1000e-01	5.7947	11.630125	0.000325	3.249865	0.550542	-0.006500
1422	7.1050e-01	5.7875	11.588217	0.000419	4.190616	0.709910	-0.008381
1423	7.1100e-01	5.7797	11.544600	0.000436	4.361661	0.738885	-0.008724
1424	7.1150e-01	5.7703	11.520653	0.000239	2.394638	0.405663	-0.004789
1425	7.1200e-01	5.7547	11.480028	0.000406	4.062332	0.688178	-0.008125
1426	7.1250e-01	5.7507	11.427430	0.000526	5.259650	0.891009	-0.010520
1427	7.1300e-01	5.7349	11.401345	0.000261	2.608445	0.441882	-0.005217
1428	7.1350e-01	5.7275	11.356872	0.000445	4.447184	0.753373	-0.008895
1429	7.1400e-01	5.7187	11.338484	0.000184	1.838740	0.311491	-0.003678
1430	7.1450e-01	5.7043	11.292728	0.000458	4.575468	0.775105	-0.009151
1431	7.1500e-01	5.6964	11.248255	0.000445	4.447184	0.753373	-0.008895
1432	7.1550e-01	5.6879	11.211479	0.000368	3.677479	0.622982	-0.007355
1433	7.1600e-01	5.6750	11.172566	0.000389	3.891286	0.659202	-0.007783
1434	7.1650e-01	5.6674	11.139638	0.000329	3.292627	0.557786	-0.006585
1435	7.1700e-01	5.6573	11.107994	0.000316	3.164343	0.536054	-0.006329
1436	7.1750e-01	5.6476	11.063521	0.000445	4.447184	0.753373	-0.008895
1437	7.1800e-01	5.6372	11.025890	0.000376	3.763002	0.637470	-0.007526
1438	7.1850e-01	5.6253	10.979279	0.000466	4.660991	0.789593	-0.009322
1439	7.1900e-01	5.6177	10.957898	0.000214	2.138069	0.362199	-0.004276
1440	7.1950e-01	5.6058	10.921977	0.000359	3.591956	0.608494	-0.007184
1441	7.2000e-01	5.5936	10.879215	0.000428	4.276139	0.724397	-0.008553
1442	7.2050e-01	5.5878	10.841156	0.000381	3.805763	0.644714	-0.007612
1443	7.2100e-01	5.5763	10.807801	0.000334	3.335388	0.565030	-0.006671
1444	7.2150e-01	5.5658	10.774019	0.000338	3.378149	0.572274	-0.006756
1445	7.2200e-01	5.5554	10.733822	0.000402	4.019570	0.680934	-0.008039
1446	7.2250e-01	5.5475	10.693198	0.000406	4.062332	0.688178	-0.008125
1447	7.2300e-01	5.5341	10.664974	0.000282	2.822251	0.478102	-0.005645
1448	7.2350e-01	5.5275	10.614942	0.000500	5.003082	0.847545	-0.010006
1449	7.2400e-01	5.5157	10.585436	0.000295	2.950536	0.499834	-0.005901
1450	7.2450e-01	5.5035	10.540535	0.000449	4.489945	0.760617	-0.008980
1451	7.2500e-01	5.4968	10.502477	0.000381	3.805763	0.644714	-0.007612
1452	7.2550e-01	5.4868	10.460142	0.000423	4.233377	0.717154	-0.008467
1453	7.2600e-01	5.4758	10.434484	0.000257	2.565683	0.434638	-0.005132
1454	7.2650e-01	5.4663	10.393860	0.000406	4.062332	0.688178	-0.008125
1455	7.2700e-01	5.4578	10.342545	0.000513	5.131366	0.869277	-0.010263
1456	7.2750e-01	5.4462	10.318170	0.000244	2.437399	0.412907	-0.004875
1457	7.2800e-01	5.4352	10.284388	0.000338	3.378149	0.572274	-0.006756
1458	7.2850e-01	5.4269	10.238632	0.000458	4.575468	0.775105	-0.009151
1459	7.2900e-01	5.4156	10.208698	0.000299	2.993297	0.507078	-0.005987
1460	7.2950e-01	5.4077	10.169357	0.000393	3.934047	0.666446	-0.007868
1461	7.3000e-01	5.3951	10.128732	0.000406	4.062332	0.688178	-0.008125
1462	7.3050e-01	5.3852	10.103075	0.000257	2.565683	0.434638	-0.005132
1463	7.3100e-01	5.3769	10.060312	0.000428	4.276139	0.724397	-0.008553
1464	7.3150e-01	5.3668	10.012846	0.000475	4.746514	0.804081	-0.009493
1465	7.3200e-01	5.3560	9.968373	0.000445	4.447184	0.753373	-0.008895
1466	7.3250e-01	5.3461	9.945709	0.000227	2.266353	0.383931	-0.004533
1467	7.3300e-01	5.3351	9.902946	0.000428	4.276139	0.724397	-0.008553
1468	7.3350e-01	5.3271	9.858901	0.000440	4.404423	0.746129	-0.008809
1469	7.3400e-01	5.3152	9.828967	0.000299	2.993297	0.507078	-0.005987
1470	7.3450e-01	5.3107	9.782783	0.000462	4.618230	0.782349	-0.009237
1471	7.3500e-01	5.2957	9.734889	0.000479	4.789275	0.811325	-0.009579
1472	7.3550e-01	5.2863	9.696831	0.000381	3.805763	0.644714	-0.007612
1473	7.3600e-01	5.2777	9.676732	0.000201	2.009785	0.340467	-0.004020
1474	7.3650e-01	5.2673	9.628411	0.000483	4.832037	0.818569	-0.009664
1475	7.3700e-01	5.2551	9.577951	0.000505	5.045844	0.854789	-0.010092
1476	7.3750e-01	5.2472	9.555287	0.000227	2.266353	0.383931	-0.004533
1477	7.3800e-01	5.2362	9.511241	0.000440	4.404423	0.746129	-0.008809
1478	7.3850e-01	5.2280	9.484729	0.000265	2.651206	0.449126	-0.005303
1479	7.3900e-01	5.2179	9.438117	0.000466	4.660991	0.789593	-0.009322
1480	7.3950e-01	5.2051	9.402625	0.000355	3.549195	0.601250	-0.007099
1481	7.4000e-01	5.1965	9.365421	0.000372	3.720241	0.630226	-0.007441
1482	7.4050e-01	5.1849	9.324797	0.000406	4.062332	0.688178	-0.008125
1483	7.4100e-01	5.1752	9.283745	0.000411	4.105093	0.695422	-0.008210
1484	7.4150e-01	5.1636	9.252528	0.000312	3.121581	0.528810	-0.006243
1485	7.4200e-01	5.1566	9.215752	0.000368	3.677479	0.622982	-0.007355
1486	7.4250e-01	5.1480	9.169141	0.000466	4.660991	0.789593	-0.009322
1487	7.4300e-01	5.1350	9.121675	0.000475	4.746514	0.804081	-0.009493
1488	7.4350e-01	5.1270	9.085754	0.000359	3.591956	0.608494	-0.007184
1489	7.4400e-01	5.1178	9.047696	0.000381	3.805763	0.644714	-0.007612
1490	7.4450e-01	5.1064	9.015196	0.000325	3.249865	0.550542	-0.006500
1491	7.4500e-01	5.0977	8.978848	0.000363	3.634718	0.615738	-0.007270
1492	7.4550e-01	5.0849	8.929671	0.000492	4.917559	0.833057	-0.009835
1493	7.4600e-01	5.0748	8.893323	0.000363	3.634718	0.615738	-0.007270
1494	7.4650e-01	5.0677	8.856119	0.000372	3.720241	0.630226	-0.007441
1495	7.4700e-01	5.0581	8.824048	0.000321	3.207104	0.543298	-0.006414
1496	7.4750e-01	5.0471	8.778292	0.000458	4.575468	0.775105	-0.009151
1497	7.4800e-01	5.0330	8.736812	0.000415	4.147854	0.702666	-0.008296
1498	7.4850e-01	5.0269	8.700036	0.000368	3.677479	0.622982	-0.007355
1499	7.4900e-01	5.0154	8.668820	0.000312	3.121581	0.528810	-0.006243
1500	7.4950e-01	5.0061	8.621781	0.000470	4.703752	0.796837	-0.009408
1501	7.5000e-01	4.9951	8.587571	0.000342	3.420911	0.579518	-0.006842
1502	7.5050e-01	4.9878	8.546091	0.000415	4.147854	0.702666	-0.008296
1503	7.5100e-01	4.9771	8.502901	0.000432	4.318900	0.731641	-0.008638
1504	7.5150e-01	4.9652	8.472967	0.000299	2.993297	0.507078	-0.005987
1505	7.5200e-01	4.9564	8.431488	0.000415	4.147854	0.702666	-0.008296
1506	7.5250e-01	4.9469	8.393857	0.000376	3.763002	0.637470	-0.007526
1507	7.5300e-01	4.9377	8.351522	0.000423	4.233377	0.717154	-0.008467
1508	7.5350e-01	4.9265	8.295075	0.000564	5.644503	0.956205	-0.011289
1509	7.5400e-01	4.9152	8.273266	0.000218	2.180831	0.369443	-0.004362
1510	7.5450e-01	4.9072	8.224517	0.000487	4.874798	0.825813	-0.009750
1511	7.5500e-01	4.8927	8.195011	0.000295	2.950536	0.499834	-0.005901
1512	7.5550e-01	4.8871	8.146689	0.000483	4.832037	0.818569	-0.009664
1513	7.5600e-01	4.8737	8.125308	0.000214	2.138069	0.362199	-0.004276
1514	7.5650e-01	4.8682	8.056460	0.000688	6.884583	1.166280	-0.013770
1515	7.5700e-01	4.8554	8.028237	0.000282	2.822251	0.478102	-0.005645
1516	7.5750e-01	4.8480	7.986330	0.000419	4.190616	0.709910	-0.008381
1517	7.5800e-01	4.8364	7.946133	0.000402	4.019570	0.680934	-0.008039
1518	7.5850e-01	4.8276	7.905936	0.000402	4.019570	0.680934	-0.008039
1519	7.5900e-01	4.8160	7.864884	0.000411	4.105093	0.695422	-0.008210
1520	7.5950e-01	4.8096	7.827681	0.000372	3.720241	0.630226	-0.007441
1521	7.6000e-01	4.7942	7.789622	0.000381	3.805763	0.644714	-0.007612
1522	7.6050e-01	4.7864	7.750708	0.000389	3.891286	0.659202	-0.007783
1523	7.6100e-01	4.7748	7.716498	0.000342	3.420911	0.579518	-0.006842
1524	7.6150e-01	4.7662	7.661762	0.000547	5.473457	0.927229	-0.010947
1525	7.6200e-01	4.7580	7.626697	0.000351	3.506434	0.594006	-0.007013
1526	7.6250e-01	4.7446	7.579230	0.000475	4.746514	0.804081	-0.009493
1527	7.6300e-01	4.7379	7.537751	0.000415	4.147854	0.702666	-0.008296
1528	7.6350e-01	4.7287	7.499692	0.000381	3.805763	0.644714	-0.007612
1529	7.6400e-01	4.7180	7.461633	0.000381	3.805763	0.644714	-0.007612
1530	7.6450e-01	4.7049	7.423147	0.000385	3.848525	0.651958	-0.007697
1531	7.6500e-01	4.6954	7.383806	0.000393	3.934047	0.666446	-0.007868
1532	7.6550e-01	4.6869	7.338905	0.000449	4.489945	0.760617	-0.008980
1533	7.6600e-01	4.6725	7.311537	0.000274	2.736729	0.463614	-0.005474
1534	7.6650e-01	4.6667	7.259794	0.000517	5.174128	0.876521	-0.010349
1535	7.6700e-01	4.6576	7.204631	0.000552	5.516219	0.934473	-0.011033
1536	7.6750e-01	4.6527	7.180256	0.000244	2.437399	0.412907	-0.004875
1537	7.6800e-01	4.6339	7.134928	0.000453	4.532707	0.767861	-0.009066
1538	7.6850e-01	4.6259	7.090027	0.000449	4.489945	0.760617	-0.008980
1539	7.6900e-01	4.6167	7.059238	0.000308	3.078820	0.521566	-0.006158
1540	7.6950e-01	4.6057	7.021179	0.000381	3.805763	0.644714	-0.007612
1541	7.7000e-01	4.5966	6.974568	0.000466	4.660991	0.789593	-0.009322
1542	7.7050e-01	4.5868	6.932661	0.000419	4.190616	0.709910	-0.008381
1543	7.7100e-01	4.5776	6.898879	0.000338	3.378149	0.572274	-0.006756
1544	7.7150e-01	4.5654	6.848419	0.000505	5.045844	0.854789	-0.010092
1545	7.7200e-01	4.5560	6.812071	0.000363	3.634718	0.615738	-0.007270
1546	7.7250e-01	4.5484	6.766315	0.000458	4.575468	0.775105	-0.009151
1547	7.7300e-01	4.5363	6.729539	0.000368	3.677479	0.622982	-0.007355
1548	7.7350e-01	4.5233	6.693191	0.000363	3.634718	0.615738	-0.007270
1549	7.7400e-01	4.5154	6.645297	0.000479	4.789275	0.811325	-0.009579
1550	7.7450e-01	4.5074	6.610231	0.000351	3.506434	0.594006	-0.007013
1551	7.7500e-01	4.4952	6.568752	0.000415	4.147854	0.702666	-0.008296
1552	7.7550e-01	4.4839	6.521713	0.000470	4.703752	0.796837	-0.009408
1553	7.7600e-01	4.4766	6.493062	0.000287	2.865013	0.485346	-0.005730
1554	7.7650e-01	4.4653	6.443885	0.000492	4.917559	0.833057	-0.009835
1555	7.7700e-01	4.4574	6.393425	0.000505	5.045844	0.854789	-0.010092
1556	7.7750e-01	4.4479	6.356650	0.000368	3.677479	0.622982	-0.007355
1557	7.7800e-01	4.4350	6.328854	0.000278	2.779490	0.470858	-0.005559
1558	7.7850e-01	4.4250	6.270269	0.000586	5.858310	0.992425	-0.011717
1559	7.7900e-01	4.4171	6.227935	0.000423	4.233377	0.717154	-0.008467
1560	7.7950e-01	4.4068	6.192869	0.000351	3.506434	0.594006	-0.007013
1561	7.8000e-01	4.3976	6.151817	0.000411	4.105093	0.695422	-0.008210
1562	7.8050e-01	4.3857	6.105206	0.000466	4.660991	0.789593	-0.009322
1563	7.8100e-01	4.3774	6.062444	0.000428	4.276139	0.724397	-0.008553
1564	7.8150e-01	4.3692	6.021391	0.000411	4.105093	0.695422	-0.008210
1565	7.8200e-01	4.3579	5.984616	0.000368	3.677479	0.622982	-0.007355
1566	7.8250e-01	4.3468	5.941426	0.000432	4.318900	0.731641	-0.008638
1567	7.8300e-01	4.3365	5.908071	0.000334	3.335388	0.565030	-0.006671
1568	7.8350e-01	4.3262	5.864025	0.000440	4.404423	0.746129	-0.008809
1569	7.8400e-01	4.3158	5.818269	0.000458	4.575468	0.775105	-0.009151
1570	7.8450e-01	4.3062	5.780211	0.000381	3.805763	0.644714	-0.007612
1571	7.8500e-01	4.2981	5.721199	0.000590	5.901071	0.999669	-0.011802
1572	7.8550e-01	4.2859	5.696396	0.000248	2.480160	0.420151	-0.004960
1573	7.8600e-01	4.2749	5.648930	0.000475	4.746514	0.804081	-0.009493
1574	7.8650e-01	4.2645	5.604457	0.000445	4.447184	0.753373	-0.008895
1575	7.8700e-01	4.2529	5.569819	0.000346	3.463672	0.586762	-0.006928
1576	7.8750e-01	4.2438	5.523208	0.000466	4.660991	0.789593	-0.009322
1577	7.8800e-01	4.2372	5.480873	0.000423	4.233377	0.717154	-0.008467
1578	7.8850e-01	4.2261	5.447518	0.000334	3.335388	0.565030	-0.006671
1579	7.8900e-01	4.2163	5.395776	0.000517	5.174128	0.876521	-0.010349
1580	7.8950e-01	4.2068	5.353013	0.000428	4.276139	0.724397	-0.008553
1581	7.9000e-01	4.1956	5.305119	0.000479	4.789275	0.811325	-0.009579
1582	7.9050e-01	4.1879	5.267061	0.000381	3.805763	0.644714	-0.007612
1583	7.9100e-01	4.1766	5.229429	0.000376	3.763002	0.637470	-0.007526
1584	7.9150e-01	4.1660	5.180253	0.000492	4.917559	0.833057	-0.009835
1585	7.9200e-01	4.1553	5.133641	0.000466	4.660991	0.789593	-0.009322
1586	7.9250e-01	4.1449	5.094300	0.000393	3.934047	0.666446	-0.007868
1587	7.9300e-01	4.1347	5.049399	0.000449	4.489945	0.760617	-0.008980
1588	7.9350e-01	4.1290	5.015189	0.000342	3.420911	0.579518	-0.006842
1589	7.9400e-01	4.1153	4.971144	0.000440	4.404423	0.746129	-0.008809
1590	7.9450e-01	4.1063	4.936079	0.000351	3.506434	0.594006	-0.007013
1591	7.9500e-01	4.0952	4.876211	0.000599	5.986594	1.014156	-0.011974
1592	7.9550e-01	4.0860	4.837297	0.000389	3.891286	0.659202	-0.007783
1593	7.9600e-01	4.0755	4.791969	0.000453	4.532707	0.767861	-0.009066
1594	7.9650e-01	4.0644	4.752200	0.000398	3.976809	0.673690	-0.007954
1595	7.9700e-01	4.0549	4.702595	0.000496	4.960321	0.840301	-0.009921
1596	7.9750e-01	4.0457	4.663681	0.000389	3.891286	0.659202	-0.007783
1597	7.9800e-01	4.0347	4.636313	0.000274	2.736729	0.463614	-0.005474
1598	7.9850e-01	4.0274	4.592268	0.000440	4.404423	0.746129	-0.008809
1599	7.9900e-01	4.0161	4.533683	0.000586	5.858310	0.992425	-0.011717
1600	7.9950e-01	4.0065	4.499473	0.000342	3.420911	0.579518	-0.006842
1601	8.0000e-01	3.9964	4.449869	0.000496	4.960321	0.840301	-0.009921
1602	8.0050e-01	3.9853	4.406251	0.000436	4.361661	0.738885	-0.008724
1603	8.0100e-01	3.9758	4.370758	0.000355	3.549195	0.601250	-0.007099
1604	8.0150e-01	3.9658	4.323719	0.000470	4.703752	0.796837	-0.009408
1605	8.0200e-01	3.9566	4.280101	0.000436	4.361661	0.738885	-0.008724
1606	8.0250e-01	3.9453	4.231352	0.000487	4.874798	0.825813	-0.009750
1607	8.0300e-01	3.9364	4.200991	0.000304	3.036058	0.514322	-0.006072
1608	8.0350e-01	3.9270	4.151814	0.000492	4.917559	0.833057	-0.009835
1609	8.0400e-01	3.9162	4.097933	0.000539	5.387935	0.912741	-0.010776
1610	8.0450e-01	3.9075	4.060302	0.000376	3.763002	0.637470	-0.007526
1611	8.0500e-01	3.8944	4.022671	0.000376	3.763002	0.637470	-0.007526
1612	8.0550e-01	3.8861	3.970928	0.000517	5.174128	0.876521	-0.010349
1613	8.0600e-01	3.8754	3.926455	0.000445	4.447184	0.753373	-0.008895
1614	8.0650e-01	3.8663	3.884976	0.000415	4.147854	0.702666	-0.008296
1615	8.0700e-01	3.8562	3.849483	0.000355	3.549195	0.601250	-0.007099
1616	8.0750e-01	3.8489	3.793891	0.000556	5.558980	0.941717	-0.011118
1617	8.0800e-01	3.8362	3.758399	0.000355	3.549195	0.601250	-0.007099
1618	8.0850e-01	3.8263	3.717774	0.000406	4.062332	0.688178	-0.008125
1619	8.0900e-01	3.8178	3.672018	0.000458	4.575468	0.775105	-0.009151
1620	8.0950e-01	3.8089	3.619420	0.000526	5.259650	0.891009	-0.010520
1621	8.1000e-01	3.7958	3.571099	0.000483	4.832037	0.818569	-0.009664
1622	8.1050e-01	3.7891	3.528764	0.000423	4.233377	0.717154	-0.008467
1623	8.1100e-01	3.7750	3.492416	0.000363	3.634718	0.615738	-0.007270
1624	8.1150e-01	3.7695	3.443666	0.000487	4.874798	0.825813	-0.009750
1625	8.1200e-01	3.7567	3.397055	0.000466	4.660991	0.789593	-0.009322
1626	8.1250e-01	3.7471	3.368832	0.000282	2.822251	0.478102	-0.005645
1627	8.1300e-01	3.7357	3.311958	0.000569	5.687264	0.963449	-0.011375
1628	8.1350e-01	3.7268	3.275182	0.000368	3.677479	0.622982	-0.007355
1629	8.1400e-01	3.7173	3.237551	0.000376	3.763002	0.637470	-0.007526
1630	8.1450e-01	3.7054	3.184098	0.000535	5.345173	0.905497	-0.010691
1631	8.1500e-01	3.6964	3.137059	0.000470	4.703752	0.796837	-0.009408
1632	8.1550e-01	3.6849	3.090448	0.000466	4.660991	0.789593	-0.009322
1633	8.1600e-01	3.6765	3.037422	0.000530	5.302412	0.898253	-0.010605
1634	8.1650e-01	3.6654	3.002785	0.000346	3.463672	0.586762	-0.006928
1635	8.1700e-01	3.6566	2.966437	0.000363	3.634718	0.615738	-0.007270
1636	8.1750e-01	3.6462	2.914266	0.000522	5.216889	0.883765	-0.010434
1637	8.1800e-01	3.6353	2.877063	0.000372	3.720241	0.630226	-0.007441
1638	8.1850e-01	3.6235	2.832590	0.000445	4.447184	0.753373	-0.008895
1639	8.1900e-01	3.6151	2.785551	0.000470	4.703752	0.796837	-0.009408
1640	8.1950e-01	3.6047	2.729960	0.000556	5.558980	0.941717	-0.011118
1641	8.2000e-01	3.5962	2.700454	0.000295	2.950536	0.499834	-0.005901
1642	8.2050e-01	3.5876	2.653415	0.000470	4.703752	0.796837	-0.009408
1643	8.2100e-01	3.5748	2.600817	0.000526	5.259650	0.891009	-0.010520
1644	8.2150e-01	3.5660	2.570456	0.000304	3.036058	0.514322	-0.006072
1645	8.2200e-01	3.5565	2.507595	0.000629	6.285924	1.064864	-0.012572
1646	8.2250e-01	3.5471	2.463122	0.000445	4.447184	0.753373	-0.008895
1647	8.2300e-01	3.5355	2.411807	0.000513	5.131366	0.869277	-0.010263
1648	8.2350e-01	3.5257	2.376314	0.000355	3.549195	0.601250	-0.007099
1649	8.2400e-01	3.5181	2.330130	0.000462	4.618230	0.782349	-0.009237
1650	8.2450e-01	3.5080	2.285229	0.000449	4.489945	0.760617	-0.008980
1651	8.2500e-01	3.4965	2.228355	0.000569	5.687264	0.963449	-0.011375
1652	8.2550e-01	3.4857	2.192435	0.000359	3.591956	0.608494	-0.007184
1653	8.2600e-01	3.4763	2.152666	0.000398	3.976809	0.673690	-0.007954
1654	8.2650e-01	3.4671	2.118028	0.000346	3.463672	0.586762	-0.006928
1655	8.2700e-01	3.4564	2.053029	0.000650	6.499731	1.101084	-0.013000
1656	8.2750e-01	3.4500	2.011549	0.000415	4.147854	0.702666	-0.008296
1657	8.2800e-01	3.4370	1.961090	0.000505	5.045844	0.854789	-0.010092
1658	8.2850e-01	3.4265	1.915761	0.000453	4.532707	0.767861	-0.009066
1659	8.2900e-01	3.4186	1.884972	0.000308	3.078820	0.521566	-0.006158
1660	8.2950e-01	3.4082	1.832802	0.000522	5.216889	0.883765	-0.010434
1661	8.3000e-01	3.4003	1.783197	0.000496	4.960321	0.840301	-0.009921
1662	8.3050e-01	3.3853	1.736159	0.000470	4.703752	0.796837	-0.009408
1663	8.3100e-01	3.3766	1.689547	0.000466	4.660991	0.789593	-0.009322
1664	8.3150e-01	3.3679	1.651916	0.000376	3.763002	0.637470	-0.007526
1665	8.3200e-01	3.3569	1.592049	0.000599	5.986594	1.014156	-0.011974
1666	8.3250e-01	3.3450	1.568530	0.000235	2.351876	0.398419	-0.004704
1667	8.3300e-01	3.3392	1.508234	0.000603	6.029355	1.021400	-0.012059
1668	8.3350e-01	3.3276	1.456919	0.000513	5.131366	0.869277	-0.010263
1669	8.3400e-01	3.3154	1.421426	0.000355	3.549195	0.601250	-0.007099
1670	8.3450e-01	3.3058	1.371822	0.000496	4.960321	0.840301	-0.009921
1671	8.3500e-01	3.2956	1.325638	0.000462	4.618230	0.782349	-0.009237
1672	8.3550e-01	3.2861	1.276461	0.000492	4.917559	0.833057	-0.009835
1673	8.3600e-01	3.2773	1.240969	0.000355	3.549195	0.601250	-0.007099
1674	8.3650e-01	3.2635	1.196923	0.000440	4.404423	0.746129	-0.008809
1675	8.3700e-01	3.2571	1.136200	0.000607	6.072117	1.028644	-0.012145
1676	8.3750e-01	3.2465	1.102846	0.000334	3.335388	0.565030	-0.006671
1677	8.3800e-01	3.2387	1.048110	0.000547	5.473457	0.927229	-0.010947
1678	8.3850e-01	3.2266	1.003637	0.000445	4.447184	0.753373	-0.008895
1679	8.3900e-01	3.2185	0.955742	0.000479	4.789275	0.811325	-0.009579
1680	8.3950e-01	3.2043	0.905710	0.000500	5.003082	0.847545	-0.010006
1681	8.4000e-01	3.1934	0.866369	0.000393	3.934047	0.666446	-0.007868
1682	8.4050e-01	3.1885	0.806929	0.000594	5.943833	1.006913	-0.011888
1683	8.4100e-01	3.1744	0.762028	0.000449	4.489945	0.760617	-0.008980
1684	8.4150e-01	3.1674	0.706865	0.000552	5.516219	0.934473	-0.011033
1685	8.4200e-01	3.1577	0.659398	0.000475	4.746514	0.804081	-0.009493
1686	8.4250e-01	3.1458	0.623905	0.000355	3.549195	0.601250	-0.007099
1687	8.4300e-01	3.1369	0.562755	0.000611	6.114878	1.035888	-0.012230
1688	8.4350e-01	3.1253	0.534104	0.000287	2.865013	0.485346	-0.005730
1689	8.4400e-01	3.1149	0.479796	0.000543	5.430696	0.919985	-0.010862
1690	8.4450e-01	3.1092	0.433184	0.000466	4.660991	0.789593	-0.009322
1691	8.4500e-01	3.0949	0.398974	0.000342	3.420911	0.579518	-0.006842
1692	8.4550e-01	3.0865	0.334403	0.000646	6.456969	1.093840	-0.012914
1693	8.4600e-01	3.0756	0.292496	0.000419	4.190616	0.709910	-0.008381
1694	8.4650e-01	3.0659	0.250588	0.000419	4.190616	0.709910	-0.008381
1695	8.4700e-01	3.0551	0.202694	0.000479	4.789275	0.811325	-0.009579
1696	8.4750e-01	3.0515	0.162070	0.000406	4.062332	0.688178	-0.008125
1697	8.4800e-01	3.0365	0.100064	0.000620	6.200401	1.050376	-0.012401
1698	8.4850e-01	3.0252	0.065427	0.000346	3.463672	0.586762	-0.006928
1699	8.4900e-01	3.0171	0.011546	0.000539	5.387935	0.912741	-0.010776
1700	8.4950e-01	3.0057	-0.038059	0.000496	4.960321	0.840301	-0.009921
1701	8.5000e-01	2.9962	-0.080394	0.000423	4.233377	0.717154	-0.008467
1702	8.5050e-01	2.9865	-0.133419	0.000530	5.302412	0.898253	-0.010605
1703	8.5100e-01	2.9756	-0.187300	0.000539	5.387935	0.912741	-0.010776
1704	8.5150e-01	2.9639	-0.230062	0.000428	4.276139	0.724397	-0.008553
1705	8.5200e-01	2.9581	-0.281805	0.000517	5.174128	0.876521	-0.010349
1706	8.5250e-01	2.9486	-0.334403	0.000526	5.259650	0.891009	-0.010520
1707	8.5300e-01	2.9355	-0.378448	0.000440	4.404423	0.746129	-0.008809
1708	8.5350e-01	2.9271	-0.430619	0.000522	5.216889	0.883765	-0.010434
1709	8.5400e-01	2.9200	-0.478940	0.000483	4.832037	0.818569	-0.009664
1710	8.5450e-01	2.9065	-0.516999	0.000381	3.805763	0.644714	-0.007612
1711	8.5500e-01	2.8976	-0.570452	0.000535	5.345173	0.905497	-0.010691
1712	8.5550e-01	2.8854	-0.620484	0.000500	5.003082	0.847545	-0.010006
1713	8.5600e-01	2.8766	-0.655550	0.000351	3.506434	0.594006	-0.007013
1714	8.5650e-01	2.8662	-0.708147	0.000526	5.259650	0.891009	-0.010520
1715	8.5700e-01	2.8581	-0.753903	0.000458	4.575468	0.775105	-0.009151
1716	8.5750e-01	2.8471	-0.807784	0.000539	5.387935	0.912741	-0.010776
1717	8.5800e-01	2.8358	-0.849264	0.000415	4.147854	0.702666	-0.008296
1718	8.5850e-01	2.8262	-0.901006	0.000517	5.174128	0.876521	-0.010349
1719	8.5900e-01	2.8162	-0.951894	0.000509	5.088605	0.862033	-0.010177
1720	8.5950e-01	2.8076	-1.006202	0.000543	5.430696	0.919985	-0.010862
1721	8.6000e-01	2.8008	-1.053669	0.000475	4.746514	0.804081	-0.009493
1722	8.6050e-01	2.7881	-1.098142	0.000445	4.447184	0.753373	-0.008895
1723	8.6100e-01	2.7757	-1.137483	0.000393	3.934047	0.666446	-0.007868
1724	8.6150e-01	2.7657	-1.199917	0.000624	6.243162	1.057620	-0.012487
1725	8.6200e-01	2.7570	-1.243107	0.000432	4.318900	0.731641	-0.008638
1726	8.6250e-01	2.7451	-1.291001	0.000479	4.789275	0.811325	-0.009579
1727	8.6300e-01	2.7359	-1.344454	0.000535	5.345173	0.905497	-0.010691
1728	8.6350e-01	2.7262	-1.385934	0.000415	4.147854	0.702666	-0.008296
1729	8.6400e-01	2.7156	-1.436821	0.000509	5.088605	0.862033	-0.010177
1730	8.6450e-01	2.7069	-1.488564	0.000517	5.174128	0.876521	-0.010349
1731	8.6500e-01	2.6939	-1.536458	0.000479	4.789275	0.811325	-0.009579
1732	8.6550e-01	2.6875	-1.595470	0.000590	5.901071	0.999669	-0.011802
1733	8.6600e-01	2.6751	-1.639088	0.000436	4.361661	0.738885	-0.008724
1734	8.6650e-01	2.6666	-1.687837	0.000487	4.874798	0.825813	-0.009750
1735	8.6700e-01	2.6552	-1.731027	0.000432	4.318900	0.731641	-0.008638
1736	8.6750e-01	2.6450	-1.777211	0.000462	4.618230	0.782349	-0.009237
1737	8.6800e-01	2.6348	-1.843493	0.000663	6.628015	1.122816	-0.013256
1738	8.6850e-01	2.6265	-1.888821	0.000453	4.532707	0.767861	-0.009066
1739	8.6900e-01	2.6166	-1.942274	0.000535	5.345173	0.905497	-0.010691
1740	8.6950e-01	2.6070	-1.985892	0.000436	4.361661	0.738885	-0.008724
1741	8.7000e-01	2.5975	-2.044476	0.000586	5.858310	0.992425	-0.011717
1742	8.7050e-01	2.5861	-2.090660	0.000462	4.618230	0.782349	-0.009237
1743	8.7100e-01	2.5761	-2.134278	0.000436	4.361661	0.738885	-0.008724
1744	8.7150e-01	2.5655	-2.178323	0.000440	4.404423	0.746129	-0.008809
1745	8.7200e-01	2.5542	-2.242467	0.000641	6.414208	1.086596	-0.012829
1746	8.7250e-01	2.5458	-2.287368	0.000449	4.489945	0.760617	-0.008980
1747	8.7300e-01	2.5369	-2.333979	0.000466	4.660991	0.789593	-0.009322
1748	8.7350e-01	2.5262	-2.387432	0.000535	5.345173	0.905497	-0.010691
1749	8.7400e-01	2.5142	-2.437464	0.000500	5.003082	0.847545	-0.010006
1750	8.7450e-01	2.5063	-2.481509	0.000440	4.404423	0.746129	-0.008809
1751	8.7500e-01	2.4968	-2.530686	0.000492	4.917559	0.833057	-0.009835
1752	8.7550e-01	2.4890	-2.584995	0.000543	5.430696	0.919985	-0.010862
1753	8.7600e-01	2.4728	-2.640158	0.000552	5.516219	0.934473	-0.011033
1754	8.7650e-01	2.4672	-2.686770	0.000466	4.660991	0.789593	-0.009322
1755	8.7700e-01	2.4557	-2.739368	0.000526	5.259650	0.891009	-0.010520
1756	8.7750e-01	2.4457	-2.785551	0.000462	4.618230	0.782349	-0.009237
1757	8.7800e-01	2.4351	-2.839432	0.000539	5.387935	0.912741	-0.010776
1758	8.7850e-01	2.4274	-2.887326	0.000479	4.789275	0.811325	-0.009579
1759	8.7900e-01	2.4158	-2.935220	0.000479	4.789275	0.811325	-0.009579
1760	8.7950e-01	2.4064	-2.975417	0.000402	4.019570	0.680934	-0.008039
1761	8.8000e-01	2.3988	-3.038705	0.000633	6.328685	1.072108	-0.012658
1762	8.8050e-01	2.3853	-3.088737	0.000500	5.003082	0.847545	-0.010006
1763	8.8100e-01	2.3764	-3.132783	0.000440	4.404423	0.746129	-0.008809
1764	8.8150e-01	2.3651	-3.200775	0.000680	6.799060	1.151792	-0.013598
1765	8.8200e-01	2.3563	-3.248669	0.000479	4.789275	0.811325	-0.009579
1766	8.8250e-01	2.3448	-3.294425	0.000458	4.575468	0.775105	-0.009151
1767	8.8300e-01	2.3354	-3.337615	0.000432	4.318900	0.731641	-0.008638
1768	8.8350e-01	2.3279	-3.391068	0.000535	5.345173	0.905497	-0.010691
1769	8.8400e-01	2.3164	-3.446660	0.000556	5.558980	0.941717	-0.011118
1770	8.8450e-01	2.3080	-3.497119	0.000505	5.045844	0.854789	-0.010092
1771	8.8500e-01	2.2929	-3.551856	0.000547	5.473457	0.927229	-0.010947
1772	8.8550e-01	2.2839	-3.599322	0.000475	4.746514	0.804081	-0.009493
1773	8.8600e-01	2.2781	-3.659617	0.000603	6.029355	1.021400	-0.012059
1774	8.8650e-01	2.2662	-3.700242	0.000406	4.062332	0.688178	-0.008125
1775	8.8700e-01	2.2581	-3.757971	0.000577	5.772787	0.977937	-0.011546
1776	8.8750e-01	2.2464	-3.802872	0.000449	4.489945	0.760617	-0.008980
1777	8.8800e-01	2.2359	-3.854614	0.000517	5.174128	0.876521	-0.010349
1778	8.8850e-01	2.2255	-3.910633	0.000560	5.601742	0.948961	-0.011204
1779	8.8900e-01	2.2157	-3.955534	0.000449	4.489945	0.760617	-0.008980
1780	8.8950e-01	2.2061	-4.020960	0.000654	6.542492	1.108328	-0.013085
1781	8.9000e-01	2.1939	-4.070565	0.000496	4.960321	0.840301	-0.009921
1782	8.9050e-01	2.1852	-4.115038	0.000445	4.447184	0.753373	-0.008895
1783	8.9100e-01	2.1749	-4.173623	0.000586	5.858310	0.992425	-0.011717
1784	8.9150e-01	2.1671	-4.231780	0.000582	5.815548	0.985181	-0.011631
1785	8.9200e-01	2.1570	-4.271976	0.000402	4.019570	0.680934	-0.008039
1786	8.9250e-01	2.1454	-4.332272	0.000603	6.029355	1.021400	-0.012059
1787	8.9300e-01	2.1365	-4.378883	0.000466	4.660991	0.789593	-0.009322
1788	8.9350e-01	2.1237	-4.435329	0.000564	5.644503	0.956205	-0.011289
1789	8.9400e-01	2.1162	-4.486644	0.000513	5.131366	0.869277	-0.010263
1790	8.9450e-01	2.1061	-4.548650	0.000620	6.200401	1.050376	-0.012401
1791	8.9500e-01	2.0947	-4.596544	0.000479	4.789275	0.811325	-0.009579
1792	8.9550e-01	2.0870	-4.635886	0.000393	3.934047	0.666446	-0.007868
1793	8.9600e-01	2.0778	-4.700457	0.000646	6.456969	1.093840	-0.012914
1794	8.9650e-01	2.0673	-4.749634	0.000492	4.917559	0.833057	-0.009835
1795	8.9700e-01	2.0560	-4.800094	0.000505	5.045844	0.854789	-0.010092
1796	8.9750e-01	2.0470	-4.858678	0.000586	5.858310	0.992425	-0.011717
1797	8.9800e-01	2.0346	-4.907000	0.000483	4.832037	0.818569	-0.009664
1798	8.9850e-01	2.0281	-4.961736	0.000547	5.473457	0.927229	-0.010947
1799	8.9900e-01	2.0166	-5.013479	0.000517	5.174128	0.876521	-0.010349
1800	8.9950e-01	2.0042	-5.066077	0.000526	5.259650	0.891009	-0.010520
1801	9.0000e-01	1.9953	-5.118675	0.000526	5.259650	0.891009	-0.010520
1802	9.0050e-01	1.9875	-5.159727	0.000411	4.105093	0.695422	-0.008210
1803	9.0100e-01	1.9751	-5.214890	0.000552	5.516219	0.934473	-0.011033
1804	9.0150e-01	1.9669	-5.279462	0.000646	6.456969	1.093840	-0.012914
1805	9.0200e-01	1.9537	-5.350020	0.000706	7.055629	1.195256	-0.014112
1806	9.0250e-01	1.9446	-5.396631	0.000466	4.660991	0.789593	-0.009322
1807	9.0300e-01	1.9355	-5.441532	0.000449	4.489945	0.760617	-0.008980
1808	9.0350e-01	1.9257	-5.491136	0.000496	4.960321	0.840301	-0.009921
1809	9.0400e-01	1.9138	-5.543306	0.000522	5.216889	0.883765	-0.010434
1810	9.0450e-01	1.9050	-5.600608	0.000573	5.730026	0.970693	-0.011460
1811	9.0500e-01	1.8951	-5.653206	0.000526	5.259650	0.891009	-0.010520
1812	9.0550e-01	1.8884	-5.713929	0.000607	6.072117	1.028644	-0.012145
1813	9.0600e-01	1.8765	-5.767810	0.000539	5.387935	0.912741	-0.010776
1814	9.0650e-01	1.8657	-5.817842	0.000500	5.003082	0.847545	-0.010006
1815	9.0700e-01	1.8533	-5.863170	0.000453	4.532707	0.767861	-0.009066
1816	9.0750e-01	1.8442	-5.917906	0.000547	5.473457	0.927229	-0.010947
1817	9.0800e-01	1.8362	-5.963662	0.000458	4.575468	0.775105	-0.009151
1818	9.0850e-01	1.8243	-6.042345	0.000787	7.868095	1.332891	-0.015737
1819	9.0900e-01	1.8143	-6.076128	0.000338	3.378149	0.572274	-0.006756
1820	9.0950e-01	1.8046	-6.141127	0.000650	6.499731	1.101084	-0.013000
1821	9.1000e-01	1.7940	-6.192014	0.000509	5.088605	0.862033	-0.010177
1822	9.1050e-01	1.7848	-6.234777	0.000428	4.276139	0.724397	-0.008553
1823	9.1100e-01	1.7767	-6.314315	0.000795	7.953618	1.347379	-0.015908
1824	9.1150e-01	1.7677	-6.363492	0.000492	4.917559	0.833057	-0.009835
1825	9.1200e-01	1.7558	-6.400695	0.000372	3.720241	0.630226	-0.007441
1826	9.1250e-01	1.7468	-6.463556	0.000629	6.285924	1.064864	-0.012572
1827	9.1300e-01	1.7377	-6.521285	0.000577	5.772787	0.977937	-0.011546
1828	9.1350e-01	1.7256	-6.568752	0.000475	4.746514	0.804081	-0.009493
1829	9.1400e-01	1.7129	-6.622633	0.000539	5.387935	0.912741	-0.010776
1830	9.1450e-01	1.7035	-6.673520	0.000509	5.088605	0.862033	-0.010177
1831	9.1500e-01	1.6985	-6.739374	0.000659	6.585253	1.115572	-0.013171
1832	9.1550e-01	1.6846	-6.786413	0.000470	4.703752	0.796837	-0.009408
1833	9.1600e-01	1.6769	-6.850557	0.000641	6.414208	1.086596	-0.012829
1834	9.1650e-01	1.6666	-6.901017	0.000505	5.045844	0.854789	-0.010092
1835	9.1700e-01	1.6545	-6.960457	0.000594	5.943833	1.006913	-0.011888
1836	9.1750e-01	1.6435	-7.014765	0.000543	5.430696	0.919985	-0.010862
1837	9.1800e-01	1.6370	-7.065225	0.000505	5.045844	0.854789	-0.010092
1838	9.1850e-01	1.6281	-7.115257	0.000500	5.003082	0.847545	-0.010006
1839	9.1900e-01	1.6145	-7.171276	0.000560	5.601742	0.948961	-0.011204
1840	9.1950e-01	1.6061	-7.237985	0.000667	6.670776	1.130060	-0.013342
1841	9.2000e-01	1.5949	-7.289728	0.000517	5.174128	0.876521	-0.010349
1842	9.2050e-01	1.5850	-7.339760	0.000500	5.003082	0.847545	-0.010006
1843	9.2100e-01	1.5765	-7.408180	0.000684	6.841822	1.159036	-0.013684
1844	9.2150e-01	1.5652	-7.452653	0.000445	4.447184	0.753373	-0.008895
1845	9.2200e-01	1.5546	-7.510383	0.000577	5.772787	0.977937	-0.011546
1846	9.2250e-01	1.5450	-7.565974	0.000556	5.558980	0.941717	-0.011118
1847	9.2300e-01	1.5381	-7.617717	0.000517	5.174128	0.876521	-0.010349
1848	9.2350e-01	1.5271	-7.690841	0.000731	7.312197	1.238720	-0.014625
1849	9.2400e-01	1.5176	-7.722485	0.000316	3.164343	0.536054	-0.006329
1850	9.2450e-01	1.5061	-7.794326	0.000718	7.183913	1.216988	-0.014368
1851	9.2500e-01	1.4970	-7.840509	0.000462	4.618230	0.782349	-0.009237
1852	9.2550e-01	1.4840	-7.900805	0.000603	6.029355	1.021400	-0.012059
1853	9.2600e-01	1.4771	-7.972646	0.000718	7.183913	1.216988	-0.014368
1854	9.2650e-01	1.4674	-8.014125	0.000415	4.147854	0.702666	-0.008296
1855	9.2700e-01	1.4555	-8.080407	0.000663	6.628015	1.122816	-0.013256
1856	9.2750e-01	1.4447	-8.130439	0.000500	5.003082	0.847545	-0.010006
1857	9.2800e-01	1.4345	-8.189024	0.000586	5.858310	0.992425	-0.011717
1858	9.2850e-01	1.4247	-8.242905	0.000539	5.387935	0.912741	-0.010776
1859	9.2900e-01	1.4212	-8.278825	0.000359	3.591956	0.608494	-0.007184
1860	9.2950e-01	1.4039	-8.367344	0.000885	8.851607	1.499503	-0.017704
1861	9.3000e-01	1.3944	-8.410962	0.000436	4.361661	0.738885	-0.008724
1862	9.3050e-01	1.3842	-8.467836	0.000569	5.687264	0.963449	-0.011375
1863	9.3100e-01	1.3733	-8.524282	0.000564	5.644503	0.956205	-0.011289
1864	9.3150e-01	1.3660	-8.579018	0.000547	5.473457	0.927229	-0.010947
1865	9.3200e-01	1.3564	-8.644017	0.000650	6.499731	1.101084	-0.013000
1866	9.3250e-01	1.3422	-8.680365	0.000363	3.634718	0.615738	-0.007270
1867	9.3300e-01	1.3356	-8.747503	0.000671	6.713538	1.137304	-0.013427
1868	9.3350e-01	1.3247	-8.812502	0.000650	6.499731	1.101084	-0.013000
1869	9.3400e-01	1.3153	-8.859968	0.000475	4.746514	0.804081	-0.009493
1870	9.3450e-01	1.3058	-8.913849	0.000539	5.387935	0.912741	-0.010776
1871	9.3500e-01	1.2958	-8.975855	0.000620	6.200401	1.050376	-0.012401
1872	9.3550e-01	1.2853	-9.039998	0.000641	6.414208	1.086596	-0.012829
1873	9.3600e-01	1.2750	-9.089175	0.000492	4.917559	0.833057	-0.009835
1874	9.3650e-01	1.2654	-9.147760	0.000586	5.858310	0.992425	-0.011717
1875	9.3700e-01	1.2526	-9.217890	0.000701	7.012867	1.188012	-0.014026
1876	9.3750e-01	1.2476	-9.262363	0.000445	4.447184	0.753373	-0.008895
1877	9.3800e-01	1.2372	-9.317527	0.000552	5.516219	0.934473	-0.011033
1878	9.3850e-01	1.2263	-9.378678	0.000611	6.114878	1.035888	-0.012230
1879	9.3900e-01	1.2190	-9.432558	0.000539	5.387935	0.912741	-0.010776
1880	9.3950e-01	1.2058	-9.504399	0.000718	7.183913	1.216988	-0.014368
1881	9.4000e-01	1.1977	-9.534333	0.000299	2.993297	0.507078	-0.005987
1882	9.4050e-01	1.1883	-9.593773	0.000594	5.943833	1.006913	-0.011888
1883	9.4100e-01	1.1771	-9.659627	0.000659	6.585253	1.115572	-0.013171
1884	9.4150e-01	1.1662	-9.724199	0.000646	6.456969	1.093840	-0.012914
1885	9.4200e-01	1.1565	-9.782356	0.000582	5.815548	0.985181	-0.011631
1886	9.4250e-01	1.1461	-9.837519	0.000552	5.516219	0.934473	-0.011033
1887	9.4300e-01	1.1356	-9.898670	0.000611	6.114878	1.035888	-0.012230
1888	9.4350e-01	1.1284	-9.949130	0.000505	5.045844	0.854789	-0.010092
1889	9.4400e-01	1.1183	-10.012418	0.000633	6.328685	1.072108	-0.012658
1890	9.4450e-01	1.1074	-10.069720	0.000573	5.730026	0.970693	-0.011460
1891	9.4500e-01	1.0952	-10.123601	0.000539	5.387935	0.912741	-0.010776
1892	9.4550e-01	1.0896	-10.186889	0.000633	6.328685	1.072108	-0.012658
1893	9.4600e-01	1.0762	-10.245474	0.000586	5.858310	0.992425	-0.011717
1894	9.4650e-01	1.0677	-10.319026	0.000735	7.354958	1.245964	-0.014710
1895	9.4700e-01	1.0562	-10.368202	0.000492	4.917559	0.833057	-0.009835
1896	9.4750e-01	1.0468	-10.425077	0.000569	5.687264	0.963449	-0.011375
1897	9.4800e-01	1.0347	-10.483234	0.000582	5.815548	0.985181	-0.011631
1898	9.4850e-01	1.0245	-10.544812	0.000616	6.157640	1.043132	-0.012316
1899	9.4900e-01	1.0133	-10.598692	0.000539	5.387935	0.912741	-0.010776
1900	9.4950e-01	1.0089	-10.665402	0.000667	6.670776	1.130060	-0.013342
1901	9.5000e-01	0.9950	-10.726552	0.000611	6.114878	1.035888	-0.012230
1902	9.5050e-01	0.9857	-10.778723	0.000522	5.216889	0.883765	-0.010434
1903	9.5100e-01	0.9759	-10.852702	0.000740	7.397720	1.253208	-0.014796
1904	9.5150e-01	0.9650	-10.898030	0.000453	4.532707	0.767861	-0.009066
1905	9.5200e-01	0.9579	-10.950200	0.000522	5.216889	0.883765	-0.010434
1906	9.5250e-01	0.9487	-11.013917	0.000637	6.371446	1.079352	-0.012743
1907	9.5300e-01	0.9337	-11.075922	0.000620	6.200401	1.050376	-0.012401
1908	9.5350e-01	0.9269	-11.130231	0.000543	5.430696	0.919985	-0.010862
1909	9.5400e-01	0.9188	-11.196085	0.000659	6.585253	1.115572	-0.013171
1910	9.5450e-01	0.9103	-11.255952	0.000599	5.986594	1.014156	-0.011974
1911	9.5500e-01	0.8978	-11.308550	0.000526	5.259650	0.891009	-0.010520
1912	9.5550e-01	0.8858	-11.376970	0.000684	6.841822	1.159036	-0.013684
1913	9.5600e-01	0.8768	-11.425720	0.000487	4.874798	0.825813	-0.009750
1914	9.5650e-01	0.8618	-11.495423	0.000697	6.970106	1.180768	-0.013941
1915	9.5700e-01	0.8551	-11.548021	0.000526	5.259650	0.891009	-0.010520
1916	9.5750e-01	0.8506	-11.603612	0.000556	5.558980	0.941717	-0.011118
1917	9.5800e-01	0.8373	-11.678019	0.000744	7.440481	1.260452	-0.014881
1918	9.5850e-01	0.8246	-11.735748	0.000577	5.772787	0.977937	-0.011546
1919	9.5900e-01	0.8176	-11.793477	0.000577	5.772787	0.977937	-0.011546
1920	9.5950e-01	0.8090	-11.846931	0.000535	5.345173	0.905497	-0.010691
1921	9.6000e-01	0.7950	-11.902950	0.000560	5.601742	0.948961	-0.011204
1922	9.6050e-01	0.7858	-11.979067	0.000761	7.611527	1.289428	-0.015223
1923	9.6100e-01	0.7726	-12.033803	0.000547	5.473457	0.927229	-0.010947
1924	9.6150e-01	0.7678	-12.094098	0.000603	6.029355	1.021400	-0.012059
1925	9.6200e-01	0.7553	-12.155248	0.000611	6.114878	1.035888	-0.012230
1926	9.6250e-01	0.7476	-12.206991	0.000517	5.174128	0.876521	-0.010349
1927	9.6300e-01	0.7383	-12.280970	0.000740	7.397720	1.253208	-0.014796
1928	9.6350e-01	0.7256	-12.332285	0.000513	5.131366	0.869277	-0.010263
1929	9.6400e-01	0.7170	-12.399422	0.000671	6.713538	1.137304	-0.013427
1930	9.6450e-01	0.7074	-12.464422	0.000650	6.499731	1.101084	-0.013000
1931	9.6500e-01	0.6958	-12.516592	0.000522	5.216889	0.883765	-0.010434
1932	9.6550e-01	0.6850	-12.588860	0.000723	7.226674	1.224232	-0.014454
1933	9.6600e-01	0.6763	-12.642314	0.000535	5.345173	0.905497	-0.010691
1934	9.6650e-01	0.6666	-12.704747	0.000624	6.243162	1.057620	-0.012487
1935	9.6700e-01	0.6548	-12.768035	0.000633	6.328685	1.072108	-0.012658
1936	9.6750e-01	0.6453	-12.823199	0.000552	5.516219	0.934473	-0.011033
1937	9.6800e-01	0.6361	-12.883067	0.000599	5.986594	1.014156	-0.011974
1938	9.6850e-01	0.6255	-12.958756	0.000757	7.568765	1.282184	-0.015138
1939	9.6900e-01	0.6145	-12.998953	0.000402	4.019570	0.680934	-0.008039
1940	9.6950e-01	0.6052	-13.071222	0.000723	7.226674	1.224232	-0.014454
1941	9.7000e-01	0.5939	-13.122109	0.000509	5.088605	0.862033	-0.010177
1942	9.7050e-01	0.5829	-13.196088	0.000740	7.397720	1.253208	-0.014796
1943	9.7100e-01	0.5779	-13.257666	0.000616	6.157640	1.043132	-0.012316
1944	9.7150e-01	0.5658	-13.309409	0.000517	5.174128	0.876521	-0.010349
1945	9.7200e-01	0.5547	-13.365428	0.000560	5.601742	0.948961	-0.011204
1946	9.7250e-01	0.5465	-13.444111	0.000787	7.868095	1.332891	-0.015737
1947	9.7300e-01	0.5341	-13.492860	0.000487	4.874798	0.825813	-0.009750
1948	9.7350e-01	0.5259	-13.571116	0.000783	7.825334	1.325647	-0.015651
1949	9.7400e-01	0.5167	-13.637398	0.000663	6.628015	1.122816	-0.013256
1950	9.7450e-01	0.5112	-13.686575	0.000492	4.917559	0.833057	-0.009835
1951	9.7500e-01	0.4942	-13.740883	0.000543	5.430696	0.919985	-0.010862
1952	9.7550e-01	0.4866	-13.816145	0.000753	7.526004	1.274940	-0.015052
1953	9.7600e-01	0.4780	-13.870453	0.000543	5.430696	0.919985	-0.010862
1954	9.7650e-01	0.4647	-13.937591	0.000671	6.713538	1.137304	-0.013427
1955	9.7700e-01	0.4552	-13.994037	0.000564	5.644503	0.956205	-0.011289
1956	9.7750e-01	0.4461	-14.057326	0.000633	6.328685	1.072108	-0.012658
1957	9.7800e-01	0.4371	-14.117621	0.000603	6.029355	1.021400	-0.012059
1958	9.7850e-01	0.4243	-14.191172	0.000735	7.354958	1.245964	-0.014710
1959	9.7900e-01	0.4149	-14.248047	0.000569	5.687264	0.963449	-0.011375
1960	9.7950e-01	0.4073	-14.304921	0.000569	5.687264	0.963449	-0.011375
1961	9.8000e-01	0.3954	-14.373768	0.000688	6.884583	1.166280	-0.013770
1962	9.8050e-01	0.3841	-14.435774	0.000620	6.200401	1.050376	-0.012401
1963	9.8100e-01	0.3751	-14.484523	0.000487	4.874798	0.825813	-0.009750
1964	9.8150e-01	0.3650	-14.562779	0.000783	7.825334	1.325647	-0.015651
1965	9.8200e-01	0.3561	-14.622646	0.000599	5.986594	1.014156	-0.011974
1966	9.8250e-01	0.3456	-14.685935	0.000633	6.328685	1.072108	-0.012658
1967	9.8300e-01	0.3385	-14.747085	0.000611	6.114878	1.035888	-0.012230
1968	9.8350e-01	0.3267	-14.821920	0.000748	7.483242	1.267696	-0.014967
1969	9.8400e-01	0.3194	-14.882642	0.000607	6.072117	1.028644	-0.012145
1970	9.8450e-01	0.3055	-14.936951	0.000543	5.430696	0.919985	-0.010862
1971	9.8500e-01	0.2968	-15.005799	0.000688	6.884583	1.166280	-0.013770
1972	9.8550e-01	0.2876	-15.063100	0.000573	5.730026	0.970693	-0.011460
1973	9.8600e-01	0.2746	-15.120402	0.000573	5.730026	0.970693	-0.011460
1974	9.8650e-01	0.2664	-15.191816	0.000714	7.141151	1.209744	-0.014283
1975	9.8700e-01	0.2563	-15.255959	0.000641	6.414208	1.086596	-0.012829
1976	9.8750e-01	0.2470	-15.330794	0.000748	7.483242	1.267696	-0.014967
1977	9.8800e-01	0.2362	-15.382536	0.000517	5.174128	0.876521	-0.010349
1978	9.8850e-01	0.2242	-15.447963	0.000654	6.542492	1.108328	-0.013085
1979	9.8900e-01	0.2151	-15.507831	0.000599	5.986594	1.014156	-0.011974
1980	9.8950e-01	0.2053	-15.567270	0.000594	5.943833	1.006913	-0.011888
1981	9.9000e-01	0.1964	-15.638684	0.000714	7.141151	1.209744	-0.014283
1982	9.9050e-01	0.1858	-15.703255	0.000646	6.456969	1.093840	-0.012914
1983	9.9100e-01	0.1765	-15.778945	0.000757	7.568765	1.282184	-0.015138
1984	9.9150e-01	0.1653	-15.835819	0.000569	5.687264	0.963449	-0.011375
1985	9.9200e-01	0.1555	-15.891838	0.000560	5.601742	0.948961	-0.011204
1986	9.9250e-01	0.1448	-15.952133	0.000603	6.029355	1.021400	-0.012059
1987	9.9300e-01	0.1355	-16.026968	0.000748	7.483242	1.267696	-0.014967
1988	9.9350e-01	0.1260	-16.082987	0.000560	5.601742	0.948961	-0.011204
1989	9.9400e-01	0.1149	-16.147130	0.000641	6.414208	1.086596	-0.012829
1990	9.9450e-01	0.1073	-16.212557	0.000654	6.542492	1.108328	-0.013085
1991	9.9500e-01	0.0938	-16.279694	0.000671	6.713538	1.137304	-0.013427
1992	9.9550e-01	0.0885	-16.341700	0.000620	6.200401	1.050376	-0.012401
1993	9.9600e-01	0.0748	-16.410120	0.000684	6.841822	1.159036	-0.013684
1994	9.9650e-01	0.0639	-16.477257	0.000671	6.713538	1.137304	-0.013427
1995	9.9700e-01	0.0542	-16.526006	0.000487	4.874798	0.825813	-0.009750
1996	9.9750e-01	0.0447	-16.612814	0.000868	8.680561	1.470527	-0.017362
1997	9.9800e-01	0.0345	-16.668833	0.000560	5.601742	0.948961	-0.011204
1998	9.9850e-01	0.0262	-16.728273	0.000594	5.943833	1.006913	-0.011888
1999	9.9900e-01	0.0196	-16.796266	0.000680	6.799060	1.151792	-0.013598
2000	9.9950e-01	0.0088	-16.853567	0.000573	5.730026	0.970693	-0.011460
2001	1.0000e+00	-0.0033	-16.922415	0.000573	5.730026	0.970693	-0.013770

PMax (uC/cm2):	4.61e+01
Pr (uC/cm2):	6.13e+00
-Pr (uC/cm2):	0.00e+00
PLoss (uC/cm2):	0.00e+00
C (Max-Eff) (nF):	4.61e-01
K (Eff):	7.81e+02
Vert. (+/-Pr) Shift (uC/cm2):	3.06e+00
Offset (uC/cm2):	2.31e+01

A (Loop Area - uC/cm2·Volts):	-6.06e-02



Hysteresis Version: 5.48.1 - Radiant Technologies, Inc., 1999 - 9/12/24

