»»»»»»»»»»»»»»»»»»»»»»»»»»»»»»»»»»»» Hysteresis ««««««««««««««««««««««««««««««««««««
»»»  Executed Version:	5.48.1
»»»  Vision Version:	5.48.4 (R)
»»»  Vision Compiled:	9/18/24
»»»  Driver Version:	5.47.0
»»»  Windows Version:	Windows 8 or 8.1
»»»  Processor Information:	x86 (AMD or Intel) - 32 Processors
»»»  Tester Name:	PMF21124-494 (100V)
»»»  Tester S/N:	PMF21124-494
»»»  Internal Amp Type:	100V RevK 270k
»»»  Internal Amp S/N:	iAB2-596/K     
»»»  Execution Count:	1
»»»»»»»»»»»»»»»»»»»»»»»»»»»»»»»»»»»»»»»»»»««««««««««««««««««««««««««««««««««««««««««

Stored:	6/25/2025 - 16:3:36
Configured:	06/25/25 10:44:40 AM
Executed:	06/25/25 04:03:06 PM

»»»»»»»»»»»»»»»»»»»»»»»»»»»»»»»»»»» Sample Info ««««««««««««««««««««««««««««««««««««
Sample Name:	
Lot Name:	
Wafer Name:	
Die Row/Column:	0/0
Capacitor Number:	0
Sample Area (cm2):	1.00e-04
Sample Thickness (microns):	1.50e-01

Amplifier:	Internal

»»»»»»»»»»»»»»»»»»»»»»»»»»»»»»»»»»» Tester Info «««««««««««««««««««««««««««««««««««
Tester Name:	PMF21124-494 (100V)
Tester Serial Number:	PMF21124-494
Return Signal Amp. Level:	1.79 [Index: 2]

»»»»»»»»»»»»»»»»»»»»»»»»»»»»»»»» Hysteresis Info ««««««««««««««««««««««««««««««««««
Task Name:	Hyst-116
Volts:	10.00
Field:	666.67 (kV/cm)
DCBias:	0.00
DCField:	0.00 (kV/cm)
Hysteresis Period (ms):	1.00e+00
Preset:	Enabled
Preset Delay (ms):	1.00e+03
Profile:	Standard Monopolar

»»»»»»»»»»»»»»»»»»»»»»»»»»»»»»»»»»»»»» Data «««««««««««««««««««««««««««««««««««««««
Points:	2001

Valid Data

Point	Time (ms)	Drive Voltage	Measured Polarization (uC/cm2)	Capacitance (uF)	Normalized Capacitance (uF/cm2)	Dielectric Constant	Instantaneous Current (mA)
   1	0.0000e+00	-0.0040	-22.472777	-0.000004	-0.042775	-0.007246	-0.000086
   2	5.0000e-04	0.0055	-22.473205	-0.000004	-0.042775	-0.007246	-0.000086
   3	1.0000e-03	0.0143	-22.470211	0.000030	0.299428	0.050724	0.000599
   4	1.5000e-03	0.0253	-22.468501	0.000017	0.171102	0.028985	0.000342
   5	2.0000e-03	0.0366	-22.463369	0.000051	0.513305	0.086956	0.001026
   6	2.5000e-03	0.0428	-22.465080	-0.000017	-0.171102	-0.028985	-0.000342
   7	3.0000e-03	0.0554	-22.462942	0.000021	0.213877	0.036232	0.000428
   8	3.5000e-03	0.0650	-22.456527	0.000064	0.641631	0.108695	0.001283
   9	4.0000e-03	0.0758	-22.457383	-0.000009	-0.085551	-0.014493	-0.000171
  10	4.5000e-03	0.0861	-22.453534	0.000038	0.384979	0.065217	0.000770
  11	5.0000e-03	0.0945	-22.447547	0.000060	0.598856	0.101449	0.001197
  12	5.5000e-03	0.1061	-22.439422	0.000081	0.812733	0.137681	0.001625
  13	6.0000e-03	0.1168	-22.433863	0.000056	0.556080	0.094203	0.001112
  14	6.5000e-03	0.1279	-22.432580	0.000013	0.128326	0.021739	0.000257
  15	7.0000e-03	0.1351	-22.421462	0.000111	1.112161	0.188405	0.002224
  16	7.5000e-03	0.1453	-22.416758	0.000047	0.470530	0.079710	0.000941
  17	8.0000e-03	0.1550	-22.409916	0.000068	0.684407	0.115942	0.001368
  18	8.5000e-03	0.1669	-22.401791	0.000081	0.812733	0.137681	0.001625
  19	9.0000e-03	0.1790	-22.393239	0.000086	0.855508	0.144927	0.001711
  20	9.5000e-03	0.1857	-22.380410	0.000128	1.283263	0.217391	0.002566
  21	1.0000e-02	0.1949	-22.375279	0.000051	0.513305	0.086956	0.001026
  22	1.0500e-02	0.2048	-22.356036	0.000192	1.924894	0.326086	0.003849
  23	1.1000e-02	0.2151	-22.344490	0.000115	1.154936	0.195652	0.002309
  24	1.1500e-02	0.2286	-22.338503	0.000060	0.598856	0.101449	0.001197
  25	1.2000e-02	0.2341	-22.329523	0.000090	0.898284	0.152173	0.001796
  26	1.2500e-02	0.2456	-22.317122	0.000124	1.240487	0.210144	0.002480
  27	1.3000e-02	0.2558	-22.304721	0.000124	1.240487	0.210144	0.002480
  28	1.3500e-02	0.2660	-22.290181	0.000145	1.454364	0.246376	0.002908
  29	1.4000e-02	0.2759	-22.281629	0.000086	0.855508	0.144927	0.001711
  30	1.4500e-02	0.2874	-22.252123	0.000295	2.951504	0.499998	0.005901
  31	1.5000e-02	0.2950	-22.243142	0.000090	0.898284	0.152173	0.001796
  32	1.5500e-02	0.3047	-22.234162	0.000090	0.898284	0.152173	0.001796
  33	1.6000e-02	0.3152	-22.213209	0.000210	2.095995	0.355071	0.004191
  34	1.6500e-02	0.3223	-22.203373	0.000098	0.983835	0.166666	0.001967
  35	1.7000e-02	0.3346	-22.187979	0.000154	1.539915	0.260869	0.003079
  36	1.7500e-02	0.3453	-22.169163	0.000188	1.882118	0.318839	0.003763
  37	1.8000e-02	0.3556	-22.157617	0.000115	1.154936	0.195652	0.002309
  38	1.8500e-02	0.3649	-22.138374	0.000192	1.924894	0.326086	0.003849
  39	1.9000e-02	0.3734	-22.119131	0.000192	1.924894	0.326086	0.003849
  40	1.9500e-02	0.3848	-22.102026	0.000171	1.711017	0.289854	0.003421
  41	2.0000e-02	0.3931	-22.083211	0.000188	1.882118	0.318839	0.003763
  42	2.0500e-02	0.4071	-22.069099	0.000141	1.411589	0.239130	0.002822
  43	2.1000e-02	0.4161	-22.047290	0.000218	2.181546	0.369564	0.004362
  44	2.1500e-02	0.4258	-22.027192	0.000201	2.010445	0.340579	0.004020
  45	2.2000e-02	0.4353	-22.007521	0.000197	1.967669	0.333332	0.003934
  46	2.2500e-02	0.4445	-21.984429	0.000231	2.309873	0.391303	0.004618
  47	2.3000e-02	0.4559	-21.965614	0.000188	1.882118	0.318839	0.003763
  48	2.3500e-02	0.4681	-21.943805	0.000218	2.181546	0.369564	0.004362
  49	2.4000e-02	0.4741	-21.925845	0.000180	1.796568	0.304347	0.003592
  50	2.4500e-02	0.4845	-21.900187	0.000257	2.566525	0.434781	0.005132
  51	2.5000e-02	0.4948	-21.879661	0.000205	2.053220	0.347825	0.004105
  52	2.5500e-02	0.5064	-21.846306	0.000334	3.336483	0.565215	0.006671
  53	2.6000e-02	0.5154	-21.825353	0.000210	2.095995	0.355071	0.004191
  54	2.6500e-02	0.5295	-21.802688	0.000227	2.267097	0.384057	0.004533
  55	2.7000e-02	0.5346	-21.773182	0.000295	2.951504	0.499998	0.005901
  56	2.7500e-02	0.5486	-21.753939	0.000192	1.924894	0.326086	0.003849
  57	2.8000e-02	0.5539	-21.731275	0.000227	2.267097	0.384057	0.004533
  58	2.8500e-02	0.5647	-21.702624	0.000287	2.865953	0.485506	0.005730
  59	2.9000e-02	0.5754	-21.687230	0.000154	1.539915	0.260869	0.003079
  60	2.9500e-02	0.5858	-21.653447	0.000338	3.379258	0.572462	0.006756
  61	3.0000e-02	0.5970	-21.623513	0.000299	2.994279	0.507245	0.005987
  62	3.0500e-02	0.6049	-21.604270	0.000192	1.924894	0.326086	0.003849
  63	3.1000e-02	0.6145	-21.573054	0.000312	3.122606	0.528984	0.006243
  64	3.1500e-02	0.6243	-21.542265	0.000308	3.079830	0.521737	0.006158
  65	3.2000e-02	0.6348	-21.514897	0.000274	2.737627	0.463767	0.005474
  66	3.2500e-02	0.6461	-21.486673	0.000282	2.823178	0.478259	0.005645
  67	3.3000e-02	0.6561	-21.460161	0.000265	2.652076	0.449274	0.005303
  68	3.3500e-02	0.6651	-21.423812	0.000364	3.635911	0.615940	0.007270
  69	3.4000e-02	0.6755	-21.398155	0.000257	2.566525	0.434781	0.005132
  70	3.4500e-02	0.6825	-21.374208	0.000240	2.395423	0.405796	0.004789
  71	3.5000e-02	0.6978	-21.339143	0.000351	3.507584	0.594201	0.007013
  72	3.5500e-02	0.7071	-21.306215	0.000329	3.293707	0.557969	0.006585
  73	3.6000e-02	0.7140	-21.278847	0.000274	2.737627	0.463767	0.005474
  74	3.6500e-02	0.7249	-21.253190	0.000257	2.566525	0.434781	0.005132
  75	3.7000e-02	0.7349	-21.221973	0.000312	3.122606	0.528984	0.006243
  76	3.7500e-02	0.7432	-21.190757	0.000312	3.122606	0.528984	0.006243
  77	3.8000e-02	0.7556	-21.153126	0.000376	3.764237	0.637679	0.007526
  78	3.8500e-02	0.7648	-21.124902	0.000282	2.823178	0.478259	0.005645
  79	3.9000e-02	0.7742	-21.093686	0.000312	3.122606	0.528984	0.006243
  80	3.9500e-02	0.7871	-21.062469	0.000312	3.122606	0.528984	0.006243
  81	4.0000e-02	0.7952	-21.038094	0.000244	2.438199	0.413042	0.004875
  82	4.0500e-02	0.8065	-20.988490	0.000496	4.961949	0.840577	0.009921
  83	4.1000e-02	0.8144	-20.958129	0.000304	3.037055	0.514491	0.006072
  84	4.1500e-02	0.8253	-20.920925	0.000372	3.721461	0.630433	0.007441
  85	4.2000e-02	0.8385	-20.885860	0.000351	3.507584	0.594201	0.007013
  86	4.2500e-02	0.8469	-20.854216	0.000317	3.165381	0.536230	0.006329
  87	4.3000e-02	0.8552	-20.821716	0.000325	3.250932	0.550723	0.006500
  88	4.3500e-02	0.8678	-20.786223	0.000355	3.550360	0.601447	0.007099
  89	4.4000e-02	0.8777	-20.744744	0.000415	4.149216	0.702896	0.008296
  90	4.4500e-02	0.8869	-20.708823	0.000359	3.593135	0.608694	0.007184
  91	4.5000e-02	0.8935	-20.676751	0.000321	3.208156	0.543476	0.006414
  92	4.5500e-02	0.9042	-20.640831	0.000359	3.593135	0.608694	0.007184
  93	4.6000e-02	0.9155	-20.602772	0.000381	3.807012	0.644925	0.007612
  94	4.6500e-02	0.9241	-20.568990	0.000338	3.379258	0.572462	0.006756
  95	4.7000e-02	0.9352	-20.530931	0.000381	3.807012	0.644925	0.007612
  96	4.7500e-02	0.9467	-20.492017	0.000389	3.892563	0.659418	0.007783
  97	4.8000e-02	0.9557	-20.453958	0.000381	3.807012	0.644925	0.007612
  98	4.8500e-02	0.9653	-20.418465	0.000355	3.550360	0.601447	0.007099
  99	4.9000e-02	0.9774	-20.385538	0.000329	3.293707	0.557969	0.006585
 100	4.9500e-02	0.9869	-20.339782	0.000458	4.576970	0.775360	0.009151
 101	5.0000e-02	0.9943	-20.306855	0.000329	3.293707	0.557969	0.006585
 102	5.0500e-02	1.0023	-20.267086	0.000398	3.978114	0.673911	0.007954
 103	5.1000e-02	1.0168	-20.231593	0.000355	3.550360	0.601447	0.007099
 104	5.1500e-02	1.0281	-20.189258	0.000423	4.234766	0.717389	0.008467
 105	5.2000e-02	1.0342	-20.150344	0.000389	3.892563	0.659418	0.007783
 106	5.2500e-02	1.0461	-20.113996	0.000364	3.635911	0.615940	0.007270
 107	5.3000e-02	1.0564	-20.074227	0.000398	3.978114	0.673911	0.007954
 108	5.3500e-02	1.0663	-20.030182	0.000441	4.405868	0.746374	0.008809
 109	5.4000e-02	1.0764	-20.003241	0.000269	2.694851	0.456520	0.005388
 110	5.4500e-02	1.0854	-19.957485	0.000458	4.576970	0.775360	0.009151
 111	5.5000e-02	1.0928	-19.919427	0.000381	3.807012	0.644925	0.007612
 112	5.5500e-02	1.1069	-19.870677	0.000488	4.876398	0.826084	0.009750
 113	5.6000e-02	1.1157	-19.830053	0.000406	4.063665	0.688403	0.008125
 114	5.6500e-02	1.1249	-19.788146	0.000419	4.191991	0.710142	0.008381
 115	5.7000e-02	1.1338	-19.747521	0.000406	4.063665	0.688403	0.008125
 116	5.7500e-02	1.1452	-19.710746	0.000368	3.678686	0.623186	0.007355
 117	5.8000e-02	1.1549	-19.666700	0.000441	4.405868	0.746374	0.008809
 118	5.8500e-02	1.1652	-19.622655	0.000441	4.405868	0.746374	0.008809
 119	5.9000e-02	1.1760	-19.579037	0.000436	4.363093	0.739128	0.008724
 120	5.9500e-02	1.1856	-19.542689	0.000364	3.635911	0.615940	0.007270
 121	6.0000e-02	1.1978	-19.497788	0.000449	4.491419	0.760867	0.008980
 122	6.0500e-02	1.2045	-19.455026	0.000428	4.277542	0.724635	0.008553
 123	6.1000e-02	1.2131	-19.411836	0.000432	4.320317	0.731882	0.008638
 124	6.1500e-02	1.2250	-19.370784	0.000411	4.106440	0.695650	0.008210
 125	6.2000e-02	1.2371	-19.325028	0.000458	4.576970	0.775360	0.009151
 126	6.2500e-02	1.2440	-19.280127	0.000449	4.491419	0.760867	0.008980
 127	6.3000e-02	1.2555	-19.236937	0.000432	4.320317	0.731882	0.008638
 128	6.3500e-02	1.2690	-19.190326	0.000466	4.662521	0.789852	0.009322
 129	6.4000e-02	1.2735	-19.139011	0.000513	5.133050	0.869562	0.010263
 130	6.4500e-02	1.2851	-19.096676	0.000423	4.234766	0.717389	0.008467
 131	6.5000e-02	1.2952	-19.053486	0.000432	4.320317	0.731882	0.008638
 132	6.5500e-02	1.3042	-19.009868	0.000436	4.363093	0.739128	0.008724
 133	6.6000e-02	1.3147	-18.961974	0.000479	4.790847	0.811591	0.009579
 134	6.6500e-02	1.3232	-18.917501	0.000445	4.448644	0.753621	0.008895
 135	6.7000e-02	1.3387	-18.867041	0.000505	5.047499	0.855070	0.010092
 136	6.7500e-02	1.3449	-18.822568	0.000445	4.448644	0.753621	0.008895
 137	6.8000e-02	1.3545	-18.783654	0.000389	3.892563	0.659418	0.007783
 138	6.8500e-02	1.3651	-18.730201	0.000535	5.346927	0.905794	0.010691
 139	6.9000e-02	1.3725	-18.692997	0.000372	3.721461	0.630433	0.007441
 140	6.9500e-02	1.3905	-18.634413	0.000586	5.860232	0.992750	0.011717
 141	7.0000e-02	1.3959	-18.586519	0.000479	4.790847	0.811591	0.009579
 142	7.0500e-02	1.4075	-18.535631	0.000509	5.090275	0.862316	0.010177
 143	7.1000e-02	1.4185	-18.491586	0.000441	4.405868	0.746374	0.008809
 144	7.1500e-02	1.4230	-18.441554	0.000500	5.004724	0.847823	0.010006
 145	7.2000e-02	1.4349	-18.394515	0.000471	4.705296	0.797099	0.009408
 146	7.2500e-02	1.4458	-18.344910	0.000496	4.961949	0.840577	0.009921
 147	7.3000e-02	1.4565	-18.285898	0.000590	5.903008	0.999997	0.011802
 148	7.3500e-02	1.4654	-18.243136	0.000428	4.277542	0.724635	0.008553
 149	7.4000e-02	1.4751	-18.193959	0.000492	4.919173	0.833330	0.009835
 150	7.4500e-02	1.4870	-18.145209	0.000488	4.876398	0.826084	0.009750
 151	7.5000e-02	1.4966	-18.091329	0.000539	5.389703	0.913040	0.010776
 152	7.5500e-02	1.5063	-18.051987	0.000394	3.935338	0.666664	0.007868
 153	7.6000e-02	1.5129	-17.998534	0.000535	5.346927	0.905794	0.010691
 154	7.6500e-02	1.5225	-17.948929	0.000496	4.961949	0.840577	0.009921
 155	7.7000e-02	1.5334	-17.902746	0.000462	4.619745	0.782606	0.009237
 156	7.7500e-02	1.5437	-17.850576	0.000522	5.218601	0.884055	0.010434
 157	7.8000e-02	1.5543	-17.802682	0.000479	4.790847	0.811591	0.009579
 158	7.8500e-02	1.5652	-17.749656	0.000530	5.304152	0.898548	0.010605
 159	7.9000e-02	1.5776	-17.706466	0.000432	4.320317	0.731882	0.008638
 160	7.9500e-02	1.5845	-17.654723	0.000518	5.175826	0.876809	0.010349
 161	8.0000e-02	1.5936	-17.599560	0.000552	5.518029	0.934779	0.011033
 162	8.0500e-02	1.6055	-17.546962	0.000526	5.261376	0.891301	0.010520
 163	8.1000e-02	1.6161	-17.499068	0.000479	4.790847	0.811591	0.009579
 164	8.1500e-02	1.6277	-17.449036	0.000500	5.004724	0.847823	0.010006
 165	8.2000e-02	1.6382	-17.399003	0.000500	5.004724	0.847823	0.010006
 166	8.2500e-02	1.6418	-17.348116	0.000509	5.090275	0.862316	0.010177
 167	8.3000e-02	1.6551	-17.296801	0.000513	5.133050	0.869562	0.010263
 168	8.3500e-02	1.6644	-17.245058	0.000518	5.175826	0.876809	0.010349
 169	8.4000e-02	1.6740	-17.195881	0.000492	4.919173	0.833330	0.009835
 170	8.4500e-02	1.6861	-17.153546	0.000423	4.234766	0.717389	0.008467
 171	8.5000e-02	1.6983	-17.091541	0.000620	6.202436	1.050721	0.012401
 172	8.5500e-02	1.7059	-17.036805	0.000548	5.475254	0.927533	0.010947
 173	8.6000e-02	1.7147	-16.985062	0.000518	5.175826	0.876809	0.010349
 174	8.6500e-02	1.7252	-16.935458	0.000496	4.961949	0.840577	0.009921
 175	8.7000e-02	1.7334	-16.887136	0.000483	4.833622	0.818838	0.009664
 176	8.7500e-02	1.7444	-16.828551	0.000586	5.860232	0.992750	0.011717
 177	8.8000e-02	1.7554	-16.787499	0.000411	4.106440	0.695650	0.008210
 178	8.8500e-02	1.7636	-16.733618	0.000539	5.389703	0.913040	0.010776
 179	8.9000e-02	1.7769	-16.676317	0.000573	5.731906	0.971011	0.011460
 180	8.9500e-02	1.7866	-16.623291	0.000530	5.304152	0.898548	0.010605
 181	9.0000e-02	1.7943	-16.572404	0.000509	5.090275	0.862316	0.010177
 182	9.0500e-02	1.8030	-16.522372	0.000500	5.004724	0.847823	0.010006
 183	9.1000e-02	1.8152	-16.471912	0.000505	5.047499	0.855070	0.010092
 184	9.1500e-02	1.8286	-16.417603	0.000543	5.432478	0.920287	0.010862
 185	9.2000e-02	1.8372	-16.367571	0.000500	5.004724	0.847823	0.010006
 186	9.2500e-02	1.8458	-16.312408	0.000552	5.518029	0.934779	0.011033
 187	9.3000e-02	1.8536	-16.261948	0.000505	5.047499	0.855070	0.010092
 188	9.3500e-02	1.8622	-16.211060	0.000509	5.090275	0.862316	0.010177
 189	9.4000e-02	1.8757	-16.157180	0.000539	5.389703	0.913040	0.010776
 190	9.4500e-02	1.8851	-16.100733	0.000565	5.646355	0.956518	0.011289
 191	9.5000e-02	1.8968	-16.056260	0.000445	4.448644	0.753621	0.008895
 192	9.5500e-02	1.9059	-16.007511	0.000488	4.876398	0.826084	0.009750
 193	9.6000e-02	1.9154	-15.950637	0.000569	5.689131	0.963765	0.011375
 194	9.6500e-02	1.9231	-15.898894	0.000518	5.175826	0.876809	0.010349
 195	9.7000e-02	1.9360	-15.844585	0.000543	5.432478	0.920287	0.010862
 196	9.7500e-02	1.9458	-15.789422	0.000552	5.518029	0.934779	0.011033
 197	9.8000e-02	1.9550	-15.738107	0.000513	5.133050	0.869562	0.010263
 198	9.8500e-02	1.9624	-15.662845	0.000753	7.528474	1.275358	0.015052
 199	9.9000e-02	1.9757	-15.621365	0.000415	4.149216	0.702896	0.008296
 200	9.9500e-02	1.9840	-15.562353	0.000590	5.903008	0.999997	0.011802
 201	1.0000e-01	1.9940	-15.511038	0.000513	5.133050	0.869562	0.010263
 202	1.0050e-01	2.0053	-15.453308	0.000577	5.774681	0.978258	0.011546
 203	1.0100e-01	2.0152	-15.402849	0.000505	5.047499	0.855070	0.010092
 204	1.0150e-01	2.0245	-15.348540	0.000543	5.432478	0.920287	0.010862
 205	1.0200e-01	2.0293	-15.289528	0.000590	5.903008	0.999997	0.011802
 206	1.0250e-01	2.0464	-15.231371	0.000582	5.817457	0.985504	0.011631
 207	1.0300e-01	2.0583	-15.179201	0.000522	5.218601	0.884055	0.010434
 208	1.0350e-01	2.0668	-15.121899	0.000573	5.731906	0.971011	0.011460
 209	1.0400e-01	2.0782	-15.065452	0.000565	5.646355	0.956518	0.011289
 210	1.0450e-01	2.0852	-15.006012	0.000595	5.945783	1.007243	0.011888
 211	1.0500e-01	2.0947	-14.956835	0.000492	4.919173	0.833330	0.009835
 212	1.0550e-01	2.1053	-14.894830	0.000620	6.202436	1.050721	0.012401
 213	1.0600e-01	2.1162	-14.842659	0.000522	5.218601	0.884055	0.010434
 214	1.0650e-01	2.1252	-14.786213	0.000565	5.646355	0.956518	0.011289
 215	1.0700e-01	2.1344	-14.736608	0.000496	4.961949	0.840577	0.009921
 216	1.0750e-01	2.1466	-14.675886	0.000607	6.074109	1.028982	0.012145
 217	1.0800e-01	2.1553	-14.626281	0.000496	4.961949	0.840577	0.009921
 218	1.0850e-01	2.1655	-14.568979	0.000573	5.731906	0.971011	0.011460
 219	1.0900e-01	2.1768	-14.516381	0.000526	5.261376	0.891301	0.010520
 220	1.0950e-01	2.1848	-14.454376	0.000620	6.202436	1.050721	0.012401
 221	1.1000e-01	2.1934	-14.396219	0.000582	5.817457	0.985504	0.011631
 222	1.1050e-01	2.2111	-14.341483	0.000548	5.475254	0.927533	0.010947
 223	1.1100e-01	2.2162	-14.287602	0.000539	5.389703	0.913040	0.010776
 224	1.1150e-01	2.2256	-14.234576	0.000530	5.304152	0.898548	0.010605
 225	1.1200e-01	2.2354	-14.176847	0.000577	5.774681	0.978258	0.011546
 226	1.1250e-01	2.2430	-14.118690	0.000582	5.817457	0.985504	0.011631
 227	1.1300e-01	2.2540	-14.065237	0.000535	5.346927	0.905794	0.010691
 228	1.1350e-01	2.2658	-14.009218	0.000560	5.603580	0.949272	0.011204
 229	1.1400e-01	2.2778	-13.964745	0.000445	4.448644	0.753621	0.008895
 230	1.1450e-01	2.2849	-13.898890	0.000659	6.587414	1.115938	0.013171
 231	1.1500e-01	2.2934	-13.839451	0.000595	5.945783	1.007243	0.011888
 232	1.1550e-01	2.3037	-13.786853	0.000526	5.261376	0.891301	0.010520
 233	1.1600e-01	2.3181	-13.733400	0.000535	5.346927	0.905794	0.010691
 234	1.1650e-01	2.3258	-13.677808	0.000556	5.560804	0.942026	0.011118
 235	1.1700e-01	2.3350	-13.614092	0.000637	6.373537	1.079706	0.012743
 236	1.1750e-01	2.3474	-13.565343	0.000488	4.876398	0.826084	0.009750
 237	1.1800e-01	2.3553	-13.508469	0.000569	5.689131	0.963765	0.011375
 238	1.1850e-01	2.3657	-13.453733	0.000548	5.475254	0.927533	0.010947
 239	1.1900e-01	2.3758	-13.401990	0.000518	5.175826	0.876809	0.010349
 240	1.1950e-01	2.3877	-13.347682	0.000543	5.432478	0.920287	0.010862
 241	1.2000e-01	2.3962	-13.292945	0.000548	5.475254	0.927533	0.010947
 242	1.2050e-01	2.4036	-13.233933	0.000590	5.903008	0.999997	0.011802
 243	1.2100e-01	2.4158	-13.175349	0.000586	5.860232	0.992750	0.011717
 244	1.2150e-01	2.4231	-13.121040	0.000543	5.432478	0.920287	0.010862
 245	1.2200e-01	2.4347	-13.066732	0.000543	5.432478	0.920287	0.010862
 246	1.2250e-01	2.4478	-13.011140	0.000556	5.560804	0.942026	0.011118
 247	1.2300e-01	2.4574	-12.959825	0.000513	5.133050	0.869562	0.010263
 248	1.2350e-01	2.4664	-12.894399	0.000654	6.544639	1.108692	0.013085
 249	1.2400e-01	2.4769	-12.841373	0.000530	5.304152	0.898548	0.010605
 250	1.2450e-01	2.4847	-12.785354	0.000560	5.603580	0.949272	0.011204
 251	1.2500e-01	2.4953	-12.730191	0.000552	5.518029	0.934779	0.011033
 252	1.2550e-01	2.5053	-12.668185	0.000620	6.202436	1.050721	0.012401
 253	1.2600e-01	2.5192	-12.616870	0.000513	5.133050	0.869562	0.010263
 254	1.2650e-01	2.5284	-12.561706	0.000552	5.518029	0.934779	0.011033
 255	1.2700e-01	2.5370	-12.499273	0.000625	6.245211	1.057967	0.012487
 256	1.2750e-01	2.5433	-12.446247	0.000530	5.304152	0.898548	0.010605
 257	1.2800e-01	2.5568	-12.378255	0.000680	6.801292	1.152170	0.013598
 258	1.2850e-01	2.5690	-12.317532	0.000607	6.074109	1.028982	0.012145
 259	1.2900e-01	2.5758	-12.263651	0.000539	5.389703	0.913040	0.010776
 260	1.2950e-01	2.5827	-12.204212	0.000595	5.945783	1.007243	0.011888
 261	1.3000e-01	2.5966	-12.149903	0.000543	5.432478	0.920287	0.010862
 262	1.3050e-01	2.6080	-12.098588	0.000513	5.133050	0.869562	0.010263
 263	1.3100e-01	2.6172	-12.035727	0.000629	6.287986	1.065214	0.012572
 264	1.3150e-01	2.6228	-11.982274	0.000535	5.346927	0.905794	0.010691
 265	1.3200e-01	2.6347	-11.916847	0.000654	6.544639	1.108692	0.013085
 266	1.3250e-01	2.6440	-11.860828	0.000560	5.603580	0.949272	0.011204
 267	1.3300e-01	2.6546	-11.806520	0.000543	5.432478	0.920287	0.010862
 268	1.3350e-01	2.6657	-11.745370	0.000612	6.116885	1.036228	0.012230
 269	1.3400e-01	2.6746	-11.691489	0.000539	5.389703	0.913040	0.010776
 270	1.3450e-01	2.6874	-11.638463	0.000530	5.304152	0.898548	0.010605
 271	1.3500e-01	2.6967	-11.580734	0.000577	5.774681	0.978258	0.011546
 272	1.3550e-01	2.7054	-11.526853	0.000539	5.389703	0.913040	0.010776
 273	1.3600e-01	2.7182	-11.474683	0.000522	5.218601	0.884055	0.010434
 274	1.3650e-01	2.7261	-11.415671	0.000590	5.903008	0.999997	0.011802
 275	1.3700e-01	2.7371	-11.360079	0.000556	5.560804	0.942026	0.011118
 276	1.3750e-01	2.7470	-11.302350	0.000577	5.774681	0.978258	0.011546
 277	1.3800e-01	2.7551	-11.253601	0.000488	4.876398	0.826084	0.009750
 278	1.3850e-01	2.7638	-11.195871	0.000577	5.774681	0.978258	0.011546
 279	1.3900e-01	2.7765	-11.138142	0.000577	5.774681	0.978258	0.011546
 280	1.3950e-01	2.7875	-11.076564	0.000616	6.159660	1.043475	0.012316
 281	1.4000e-01	2.7930	-11.024393	0.000522	5.218601	0.884055	0.010434
 282	1.4050e-01	2.8091	-10.970513	0.000539	5.389703	0.913040	0.010776
 283	1.4100e-01	2.8143	-10.917915	0.000526	5.261376	0.891301	0.010520
 284	1.4150e-01	2.8265	-10.859758	0.000582	5.817457	0.985504	0.011631
 285	1.4200e-01	2.8349	-10.804166	0.000556	5.560804	0.942026	0.011118
 286	1.4250e-01	2.8455	-10.747292	0.000569	5.689131	0.963765	0.011375
 287	1.4300e-01	2.8583	-10.695122	0.000522	5.218601	0.884055	0.010434
 288	1.4350e-01	2.8671	-10.620288	0.000749	7.485698	1.268112	0.014967
 289	1.4400e-01	2.8767	-10.576242	0.000441	4.405868	0.746374	0.008809
 290	1.4450e-01	2.8848	-10.524927	0.000513	5.133050	0.869562	0.010263
 291	1.4500e-01	2.8958	-10.474467	0.000505	5.047499	0.855070	0.010092
 292	1.4550e-01	2.9054	-10.417166	0.000573	5.731906	0.971011	0.011460
 293	1.4600e-01	2.9163	-10.365850	0.000513	5.133050	0.869562	0.010263
 294	1.4650e-01	2.9268	-10.307266	0.000586	5.860232	0.992750	0.011717
 295	1.4700e-01	2.9352	-10.255523	0.000518	5.175826	0.876809	0.010349
 296	1.4750e-01	2.9480	-10.202498	0.000530	5.304152	0.898548	0.010605
 297	1.4800e-01	2.9568	-10.146479	0.000560	5.603580	0.949272	0.011204
 298	1.4850e-01	2.9658	-10.090460	0.000560	5.603580	0.949272	0.011204
 299	1.4900e-01	2.9755	-10.036579	0.000539	5.389703	0.913040	0.010776
 300	1.4950e-01	2.9858	-9.987402	0.000492	4.919173	0.833330	0.009835
 301	1.5000e-01	2.9990	-9.927535	0.000599	5.988559	1.014489	0.011974
 302	1.5050e-01	3.0060	-9.875364	0.000522	5.218601	0.884055	0.010434
 303	1.5100e-01	3.0167	-9.827898	0.000475	4.748071	0.804345	0.009493
 304	1.5150e-01	3.0228	-9.768886	0.000590	5.903008	0.999997	0.011802
 305	1.5200e-01	3.0402	-9.713294	0.000556	5.560804	0.942026	0.011118
 306	1.5250e-01	3.0458	-9.656848	0.000565	5.646355	0.956518	0.011289
 307	1.5300e-01	3.0553	-9.605960	0.000509	5.090275	0.862316	0.010177
 308	1.5350e-01	3.0649	-9.549514	0.000565	5.646355	0.956518	0.011289
 309	1.5400e-01	3.0759	-9.491357	0.000582	5.817457	0.985504	0.011631
 310	1.5450e-01	3.0841	-9.440042	0.000513	5.133050	0.869562	0.010263
 311	1.5500e-01	3.0960	-9.387871	0.000522	5.218601	0.884055	0.010434
 312	1.5550e-01	3.1047	-9.335274	0.000526	5.261376	0.891301	0.010520
 313	1.5600e-01	3.1154	-9.277117	0.000582	5.817457	0.985504	0.011631
 314	1.5650e-01	3.1255	-9.225374	0.000518	5.175826	0.876809	0.010349
 315	1.5700e-01	3.1388	-9.153105	0.000723	7.229046	1.224633	0.014454
 316	1.5750e-01	3.1453	-9.105211	0.000479	4.790847	0.811591	0.009579
 317	1.5800e-01	3.1573	-9.047482	0.000577	5.774681	0.978258	0.011546
 318	1.5850e-01	3.1668	-8.992318	0.000552	5.518029	0.934779	0.011033
 319	1.5900e-01	3.1720	-8.940148	0.000522	5.218601	0.884055	0.010434
 320	1.5950e-01	3.1860	-8.884557	0.000556	5.560804	0.942026	0.011118
 321	1.6000e-01	3.1961	-8.833241	0.000513	5.133050	0.869562	0.010263
 322	1.6050e-01	3.2056	-8.769953	0.000633	6.330762	1.072460	0.012658
 323	1.6100e-01	3.2162	-8.711796	0.000582	5.817457	0.985504	0.011631
 324	1.6150e-01	3.2269	-8.660053	0.000518	5.175826	0.876809	0.010349
 325	1.6200e-01	3.2367	-8.607883	0.000522	5.218601	0.884055	0.010434
 326	1.6250e-01	3.2450	-8.553147	0.000548	5.475254	0.927533	0.010947
 327	1.6300e-01	3.2565	-8.496700	0.000565	5.646355	0.956518	0.011289
 328	1.6350e-01	3.2662	-8.441964	0.000548	5.475254	0.927533	0.010947
 329	1.6400e-01	3.2761	-8.391932	0.000500	5.004724	0.847823	0.010006
 330	1.6450e-01	3.2886	-8.336341	0.000556	5.560804	0.942026	0.011118
 331	1.6500e-01	3.2947	-8.282888	0.000535	5.346927	0.905794	0.010691
 332	1.6550e-01	3.3070	-8.226869	0.000560	5.603580	0.949272	0.011204
 333	1.6600e-01	3.3173	-8.179402	0.000475	4.748071	0.804345	0.009493
 334	1.6650e-01	3.3267	-8.123384	0.000560	5.603580	0.949272	0.011204
 335	1.6700e-01	3.3359	-8.072068	0.000513	5.133050	0.869562	0.010263
 336	1.6750e-01	3.3435	-8.018188	0.000539	5.389703	0.913040	0.010776
 337	1.6800e-01	3.3565	-7.966017	0.000522	5.218601	0.884055	0.010434
 338	1.6850e-01	3.3665	-7.915985	0.000500	5.004724	0.847823	0.010006
 339	1.6900e-01	3.3746	-7.856118	0.000599	5.988559	1.014489	0.011974
 340	1.6950e-01	3.3850	-7.809507	0.000466	4.662521	0.789852	0.009322
 341	1.7000e-01	3.3948	-7.750067	0.000595	5.945783	1.007243	0.011888
 342	1.7050e-01	3.4070	-7.697469	0.000526	5.261376	0.891301	0.010520
 343	1.7100e-01	3.4134	-7.641877	0.000556	5.560804	0.942026	0.011118
 344	1.7150e-01	3.4274	-7.589280	0.000526	5.261376	0.891301	0.010520
 345	1.7200e-01	3.4354	-7.537537	0.000518	5.175826	0.876809	0.010349
 346	1.7250e-01	3.4470	-7.479380	0.000582	5.817457	0.985504	0.011631
 347	1.7300e-01	3.4567	-7.410105	0.000693	6.929618	1.173909	0.013855
 348	1.7350e-01	3.4662	-7.365632	0.000445	4.448644	0.753621	0.008895
 349	1.7400e-01	3.4756	-7.312178	0.000535	5.346927	0.905794	0.010691
 350	1.7450e-01	3.4848	-7.261719	0.000505	5.047499	0.855070	0.010092
 351	1.7500e-01	3.4943	-7.207410	0.000543	5.432478	0.920287	0.010862
 352	1.7550e-01	3.5085	-7.156095	0.000513	5.133050	0.869562	0.010263
 353	1.7600e-01	3.5144	-7.101787	0.000543	5.432478	0.920287	0.010862
 354	1.7650e-01	3.5251	-7.048334	0.000535	5.346927	0.905794	0.010691
 355	1.7700e-01	3.5333	-6.995736	0.000526	5.261376	0.891301	0.010520
 356	1.7750e-01	3.5449	-6.938862	0.000569	5.689131	0.963765	0.011375
 357	1.7800e-01	3.5556	-6.887974	0.000509	5.090275	0.862316	0.010177
 358	1.7850e-01	3.5663	-6.838797	0.000492	4.919173	0.833330	0.009835
 359	1.7900e-01	3.5753	-6.787482	0.000513	5.133050	0.869562	0.010263
 360	1.7950e-01	3.5864	-6.724621	0.000629	6.287986	1.065214	0.012572
 361	1.8000e-01	3.5944	-6.673734	0.000509	5.090275	0.862316	0.010177
 362	1.8050e-01	3.6057	-6.626267	0.000475	4.748071	0.804345	0.009493
 363	1.8100e-01	3.6149	-6.572814	0.000535	5.346927	0.905794	0.010691
 364	1.8150e-01	3.6255	-6.519789	0.000530	5.304152	0.898548	0.010605
 365	1.8200e-01	3.6367	-6.466336	0.000535	5.346927	0.905794	0.010691
 366	1.8250e-01	3.6444	-6.412027	0.000543	5.432478	0.920287	0.010862
 367	1.8300e-01	3.6572	-6.357719	0.000543	5.432478	0.920287	0.010862
 368	1.8350e-01	3.6658	-6.302127	0.000556	5.560804	0.942026	0.011118
 369	1.8400e-01	3.6740	-6.253378	0.000488	4.876398	0.826084	0.009750
 370	1.8450e-01	3.6865	-6.201636	0.000518	5.175826	0.876809	0.010349
 371	1.8500e-01	3.6978	-6.150321	0.000513	5.133050	0.869562	0.010263
 372	1.8550e-01	3.7068	-6.098578	0.000518	5.175826	0.876809	0.010349
 373	1.8600e-01	3.7164	-6.058809	0.000398	3.978114	0.673911	0.007954
 374	1.8650e-01	3.7244	-5.984830	0.000740	7.400147	1.253619	0.014796
 375	1.8700e-01	3.7367	-5.932659	0.000522	5.218601	0.884055	0.010434
 376	1.8750e-01	3.7471	-5.881344	0.000513	5.133050	0.869562	0.010263
 377	1.8800e-01	3.7531	-5.822760	0.000586	5.860232	0.992750	0.011717
 378	1.8850e-01	3.7639	-5.780425	0.000423	4.234766	0.717389	0.008467
 379	1.8900e-01	3.7799	-5.731248	0.000492	4.919173	0.833330	0.009835
 380	1.8950e-01	3.7875	-5.674801	0.000565	5.646355	0.956518	0.011289
 381	1.9000e-01	3.7958	-5.623486	0.000513	5.133050	0.869562	0.010263
 382	1.9050e-01	3.8068	-5.571744	0.000518	5.175826	0.876809	0.010349
 383	1.9100e-01	3.8136	-5.516152	0.000556	5.560804	0.942026	0.011118
 384	1.9150e-01	3.8228	-5.472107	0.000441	4.405868	0.746374	0.008809
 385	1.9200e-01	3.8342	-5.416516	0.000556	5.560804	0.942026	0.011118
 386	1.9250e-01	3.8473	-5.367339	0.000492	4.919173	0.833330	0.009835
 387	1.9300e-01	3.8562	-5.315596	0.000518	5.175826	0.876809	0.010349
 388	1.9350e-01	3.8666	-5.264281	0.000513	5.133050	0.869562	0.010263
 389	1.9400e-01	3.8782	-5.215104	0.000492	4.919173	0.833330	0.009835
 390	1.9450e-01	3.8840	-5.164644	0.000505	5.047499	0.855070	0.010092
 391	1.9500e-01	3.8947	-5.116750	0.000479	4.790847	0.811591	0.009579
 392	1.9550e-01	3.9041	-5.065863	0.000509	5.090275	0.862316	0.010177
 393	1.9600e-01	3.9145	-5.014975	0.000509	5.090275	0.862316	0.010177
 394	1.9650e-01	3.9240	-4.962377	0.000526	5.261376	0.891301	0.010520
 395	1.9700e-01	3.9368	-4.908924	0.000535	5.346927	0.905794	0.010691
 396	1.9750e-01	3.9447	-4.858465	0.000505	5.047499	0.855070	0.010092
 397	1.9800e-01	3.9532	-4.810998	0.000475	4.748071	0.804345	0.009493
 398	1.9850e-01	3.9655	-4.759255	0.000518	5.175826	0.876809	0.010349
 399	1.9900e-01	3.9737	-4.705802	0.000535	5.346927	0.905794	0.010691
 400	1.9950e-01	3.9835	-4.661757	0.000441	4.405868	0.746374	0.008809
 401	2.0000e-01	3.9941	-4.606593	0.000552	5.518029	0.934779	0.011033
 402	2.0050e-01	4.0051	-4.556561	0.000500	5.004724	0.847823	0.010006
 403	2.0100e-01	4.0155	-4.506101	0.000505	5.047499	0.855070	0.010092
 404	2.0150e-01	4.0259	-4.457780	0.000483	4.833622	0.818838	0.009664
 405	2.0200e-01	4.0364	-4.405182	0.000526	5.261376	0.891301	0.010520
 406	2.0250e-01	4.0439	-4.338472	0.000667	6.672965	1.130431	0.013342
 407	2.0300e-01	4.0562	-4.298275	0.000402	4.020889	0.681157	0.008039
 408	2.0350e-01	4.0633	-4.250381	0.000479	4.790847	0.811591	0.009579
 409	2.0400e-01	4.0762	-4.201205	0.000492	4.919173	0.833330	0.009835
 410	2.0450e-01	4.0857	-4.155876	0.000453	4.534194	0.768113	0.009066
 411	2.0500e-01	4.0961	-4.100713	0.000552	5.518029	0.934779	0.011033
 412	2.0550e-01	4.1058	-4.052391	0.000483	4.833622	0.818838	0.009664
 413	2.0600e-01	4.1147	-3.995944	0.000565	5.646355	0.956518	0.011289
 414	2.0650e-01	4.1254	-3.945485	0.000505	5.047499	0.855070	0.010092
 415	2.0700e-01	4.1354	-3.896735	0.000488	4.876398	0.826084	0.009750
 416	2.0750e-01	4.1449	-3.847131	0.000496	4.961949	0.840577	0.009921
 417	2.0800e-01	4.1551	-3.797954	0.000492	4.919173	0.833330	0.009835
 418	2.0850e-01	4.1621	-3.743645	0.000543	5.432478	0.920287	0.010862
 419	2.0900e-01	4.1779	-3.692758	0.000509	5.090275	0.862316	0.010177
 420	2.0950e-01	4.1879	-3.640588	0.000522	5.218601	0.884055	0.010434
 421	2.1000e-01	4.1962	-3.588845	0.000518	5.175826	0.876809	0.010349
 422	2.1050e-01	4.2047	-3.539241	0.000496	4.961949	0.840577	0.009921
 423	2.1100e-01	4.2148	-3.484505	0.000548	5.475254	0.927533	0.010947
 424	2.1150e-01	4.2258	-3.436611	0.000479	4.790847	0.811591	0.009579
 425	2.1200e-01	4.2331	-3.379736	0.000569	5.689131	0.963765	0.011375
 426	2.1250e-01	4.2441	-3.334836	0.000449	4.491419	0.760867	0.008980
 427	2.1300e-01	4.2544	-3.285231	0.000496	4.961949	0.840577	0.009921
 428	2.1350e-01	4.2653	-3.233916	0.000513	5.133050	0.869562	0.010263
 429	2.1400e-01	4.2752	-3.187733	0.000462	4.619745	0.782606	0.009237
 430	2.1450e-01	4.2851	-3.137700	0.000500	5.004724	0.847823	0.010006
 431	2.1500e-01	4.2957	-3.093227	0.000445	4.448644	0.753621	0.008895
 432	2.1550e-01	4.3103	-3.032932	0.000603	6.031334	1.021736	0.012059
 433	2.1600e-01	4.3176	-2.979479	0.000535	5.346927	0.905794	0.010691
 434	2.1650e-01	4.3268	-2.932440	0.000471	4.705296	0.797099	0.009408
 435	2.1700e-01	4.3378	-2.883263	0.000492	4.919173	0.833330	0.009835
 436	2.1750e-01	4.3475	-2.840501	0.000428	4.277542	0.724635	0.008553
 437	2.1800e-01	4.3558	-2.792179	0.000483	4.833622	0.818838	0.009664
 438	2.1850e-01	4.3640	-2.745140	0.000471	4.705296	0.797099	0.009408
 439	2.1900e-01	4.3774	-2.703233	0.000419	4.191991	0.710142	0.008381
 440	2.1950e-01	4.3884	-2.638662	0.000646	6.459088	1.094199	0.012914
 441	2.2000e-01	4.3939	-2.595472	0.000432	4.320317	0.731882	0.008638
 442	2.2050e-01	4.4089	-2.552281	0.000432	4.320317	0.731882	0.008638
 443	2.2100e-01	4.4165	-2.507808	0.000445	4.448644	0.753621	0.008895
 444	2.2150e-01	4.4260	-2.457349	0.000505	5.047499	0.855070	0.010092
 445	2.2200e-01	4.4366	-2.409455	0.000479	4.790847	0.811591	0.009579
 446	2.2250e-01	4.4458	-2.366692	0.000428	4.277542	0.724635	0.008553
 447	2.2300e-01	4.4580	-2.318370	0.000483	4.833622	0.818838	0.009664
 448	2.2350e-01	4.4653	-2.276036	0.000423	4.234766	0.717389	0.008467
 449	2.2400e-01	4.4751	-2.230707	0.000453	4.534194	0.768113	0.009066
 450	2.2450e-01	4.4846	-2.185379	0.000453	4.534194	0.768113	0.009066
 451	2.2500e-01	4.4955	-2.143472	0.000419	4.191991	0.710142	0.008381
 452	2.2550e-01	4.5047	-2.098571	0.000449	4.491419	0.760867	0.008980
 453	2.2600e-01	4.5172	-2.051532	0.000471	4.705296	0.797099	0.009408
 454	2.2650e-01	4.5248	-2.006632	0.000449	4.491419	0.760867	0.008980
 455	2.2700e-01	4.5364	-1.960020	0.000466	4.662521	0.789852	0.009322
 456	2.2750e-01	4.5456	-1.914692	0.000453	4.534194	0.768113	0.009066
 457	2.2800e-01	4.5551	-1.868936	0.000458	4.576970	0.775360	0.009151
 458	2.2850e-01	4.5661	-1.824891	0.000441	4.405868	0.746374	0.008809
 459	2.2900e-01	4.5778	-1.779563	0.000453	4.534194	0.768113	0.009066
 460	2.2950e-01	4.5856	-1.733379	0.000462	4.619745	0.782606	0.009237
 461	2.3000e-01	4.5956	-1.689334	0.000441	4.405868	0.746374	0.008809
 462	2.3050e-01	4.6063	-1.645716	0.000436	4.363093	0.739128	0.008724
 463	2.3100e-01	4.6136	-1.598677	0.000471	4.705296	0.797099	0.009408
 464	2.3150e-01	4.6239	-1.550355	0.000483	4.833622	0.818838	0.009664
 465	2.3200e-01	4.6363	-1.509731	0.000406	4.063665	0.688403	0.008125
 466	2.3250e-01	4.6473	-1.457133	0.000526	5.261376	0.891301	0.010520
 467	2.3300e-01	4.6552	-1.415226	0.000419	4.191991	0.710142	0.008381
 468	2.3350e-01	4.6655	-1.366477	0.000488	4.876398	0.826084	0.009750
 469	2.3400e-01	4.6768	-1.320721	0.000458	4.576970	0.775360	0.009151
 470	2.3450e-01	4.6864	-1.274965	0.000458	4.576970	0.775360	0.009151
 471	2.3500e-01	4.6918	-1.231347	0.000436	4.363093	0.739128	0.008724
 472	2.3550e-01	4.7059	-1.192861	0.000385	3.849788	0.652172	0.007697
 473	2.3600e-01	4.7156	-1.135987	0.000569	5.689131	0.963765	0.011375
 474	2.3650e-01	4.7269	-1.091086	0.000449	4.491419	0.760867	0.008980
 475	2.3700e-01	4.7388	-1.046185	0.000449	4.491419	0.760867	0.008980
 476	2.3750e-01	4.7455	-0.996581	0.000496	4.961949	0.840577	0.009921
 477	2.3800e-01	4.7568	-0.952108	0.000445	4.448644	0.753621	0.008895
 478	2.3850e-01	4.7675	-0.905497	0.000466	4.662521	0.789852	0.009322
 479	2.3900e-01	4.7777	-0.853754	0.000518	5.175826	0.876809	0.010349
 480	2.3950e-01	4.7862	-0.810991	0.000428	4.277542	0.724635	0.008553
 481	2.4000e-01	4.7986	-0.763097	0.000479	4.790847	0.811591	0.009579
 482	2.4050e-01	4.8059	-0.713065	0.000500	5.004724	0.847823	0.010006
 483	2.4100e-01	4.8146	-0.667309	0.000458	4.576970	0.775360	0.009151
 484	2.4150e-01	4.8248	-0.619843	0.000475	4.748071	0.804345	0.009493
 485	2.4200e-01	4.8389	-0.572804	0.000471	4.705296	0.797099	0.009408
 486	2.4250e-01	4.8462	-0.526621	0.000462	4.619745	0.782606	0.009237
 487	2.4300e-01	4.8561	-0.480009	0.000466	4.662521	0.789852	0.009322
 488	2.4350e-01	4.8651	-0.432971	0.000471	4.705296	0.797099	0.009408
 489	2.4400e-01	4.8730	-0.382083	0.000509	5.090275	0.862316	0.010177
 490	2.4450e-01	4.8859	-0.335900	0.000462	4.619745	0.782606	0.009237
 491	2.4500e-01	4.8969	-0.264059	0.000719	7.186270	1.217387	0.014368
 492	2.4550e-01	4.9078	-0.230276	0.000338	3.379258	0.572462	0.006756
 493	2.4600e-01	4.9146	-0.179816	0.000505	5.047499	0.855070	0.010092
 494	2.4650e-01	4.9243	-0.136626	0.000432	4.320317	0.731882	0.008638
 495	2.4700e-01	4.9353	-0.092153	0.000445	4.448644	0.753621	0.008895
 496	2.4750e-01	4.9432	-0.045542	0.000466	4.662521	0.789852	0.009322
 497	2.4800e-01	4.9579	-0.001497	0.000441	4.405868	0.746374	0.008809
 498	2.4850e-01	4.9667	0.056660	0.000582	5.817457	0.985504	0.011631
 499	2.4900e-01	4.9763	0.104127	0.000475	4.748071	0.804345	0.009493
 500	2.4950e-01	4.9899	0.147317	0.000432	4.320317	0.731882	0.008638
 501	2.5000e-01	4.9976	0.193073	0.000458	4.576970	0.775360	0.009151
 502	2.5050e-01	5.0073	0.235835	0.000428	4.277542	0.724635	0.008553
 503	2.5100e-01	5.0153	0.285012	0.000492	4.919173	0.833330	0.009835
 504	2.5150e-01	5.0266	0.328202	0.000432	4.320317	0.731882	0.008638
 505	2.5200e-01	5.0385	0.378235	0.000500	5.004724	0.847823	0.010006
 506	2.5250e-01	5.0497	0.420997	0.000428	4.277542	0.724635	0.008553
 507	2.5300e-01	5.0550	0.465042	0.000441	4.405868	0.746374	0.008809
 508	2.5350e-01	5.0644	0.515075	0.000500	5.004724	0.847823	0.010006
 509	2.5400e-01	5.0757	0.553133	0.000381	3.807012	0.644925	0.007612
 510	2.5450e-01	5.0864	0.597606	0.000445	4.448644	0.753621	0.008895
 511	2.5500e-01	5.0967	0.640796	0.000432	4.320317	0.731882	0.008638
 512	2.5550e-01	5.1056	0.690401	0.000496	4.961949	0.840577	0.009921
 513	2.5600e-01	5.1187	0.731453	0.000411	4.106440	0.695650	0.008210
 514	2.5650e-01	5.1270	0.774643	0.000432	4.320317	0.731882	0.008638
 515	2.5700e-01	5.1367	0.826813	0.000522	5.218601	0.884055	0.010434
 516	2.5750e-01	5.1459	0.869576	0.000428	4.277542	0.724635	0.008553
 517	2.5800e-01	5.1544	0.910200	0.000406	4.063665	0.688403	0.008125
 518	2.5850e-01	5.1653	0.958522	0.000483	4.833622	0.818838	0.009664
 519	2.5900e-01	5.1758	1.002567	0.000441	4.405868	0.746374	0.008809
 520	2.5950e-01	5.1862	1.045758	0.000432	4.320317	0.731882	0.008638
 521	2.6000e-01	5.1950	1.087665	0.000419	4.191991	0.710142	0.008381
 522	2.6050e-01	5.2049	1.133848	0.000462	4.619745	0.782606	0.009237
 523	2.6100e-01	5.2173	1.180032	0.000462	4.619745	0.782606	0.009237
 524	2.6150e-01	5.2271	1.230919	0.000509	5.090275	0.862316	0.010177
 525	2.6200e-01	5.2371	1.268978	0.000381	3.807012	0.644925	0.007612
 526	2.6250e-01	5.2472	1.309175	0.000402	4.020889	0.681157	0.008039
 527	2.6300e-01	5.2527	1.355358	0.000462	4.619745	0.782606	0.009237
 528	2.6350e-01	5.2658	1.393845	0.000385	3.849788	0.652172	0.007697
 529	2.6400e-01	5.2783	1.441311	0.000475	4.748071	0.804345	0.009493
 530	2.6450e-01	5.2838	1.484501	0.000432	4.320317	0.731882	0.008638
 531	2.6500e-01	5.2979	1.536244	0.000518	5.175826	0.876809	0.010349
 532	2.6550e-01	5.3064	1.577723	0.000415	4.149216	0.702896	0.008296
 533	2.6600e-01	5.3145	1.623052	0.000453	4.534194	0.768113	0.009066
 534	2.6650e-01	5.3232	1.662821	0.000398	3.978114	0.673911	0.007954
 535	2.6700e-01	5.3351	1.706866	0.000441	4.405868	0.746374	0.008809
 536	2.6750e-01	5.3485	1.759464	0.000526	5.261376	0.891301	0.010520
 537	2.6800e-01	5.3571	1.800944	0.000415	4.149216	0.702896	0.008296
 538	2.6850e-01	5.3674	1.848838	0.000479	4.790847	0.811591	0.009579
 539	2.6900e-01	5.3763	1.889890	0.000411	4.106440	0.695650	0.008210
 540	2.6950e-01	5.3842	1.935646	0.000458	4.576970	0.775360	0.009151
 541	2.7000e-01	5.3955	1.981402	0.000458	4.576970	0.775360	0.009151
 542	2.7050e-01	5.4036	2.026302	0.000449	4.491419	0.760867	0.008980
 543	2.7100e-01	5.4170	2.071631	0.000453	4.534194	0.768113	0.009066
 544	2.7150e-01	5.4254	2.118669	0.000471	4.705296	0.797099	0.009408
 545	2.7200e-01	5.4395	2.160577	0.000419	4.191991	0.710142	0.008381
 546	2.7250e-01	5.4434	2.220872	0.000603	6.031334	1.021736	0.012059
 547	2.7300e-01	5.4581	2.258931	0.000381	3.807012	0.644925	0.007612
 548	2.7350e-01	5.4645	2.305542	0.000466	4.662521	0.789852	0.009322
 549	2.7400e-01	5.4750	2.347877	0.000423	4.234766	0.717389	0.008467
 550	2.7450e-01	5.4865	2.390639	0.000428	4.277542	0.724635	0.008553
 551	2.7500e-01	5.4962	2.431263	0.000406	4.063665	0.688403	0.008125
 552	2.7550e-01	5.5060	2.475737	0.000445	4.448644	0.753621	0.008895
 553	2.7600e-01	5.5093	2.525769	0.000500	5.004724	0.847823	0.010006
 554	2.7650e-01	5.5280	2.570242	0.000445	4.448644	0.753621	0.008895
 555	2.7700e-01	5.5355	2.609156	0.000389	3.892563	0.659418	0.007783
 556	2.7750e-01	5.5450	2.651063	0.000419	4.191991	0.710142	0.008381
 557	2.7800e-01	5.5566	2.695964	0.000449	4.491419	0.760867	0.008980
 558	2.7850e-01	5.5670	2.735733	0.000398	3.978114	0.673911	0.007954
 559	2.7900e-01	5.5771	2.780206	0.000445	4.448644	0.753621	0.008895
 560	2.7950e-01	5.5818	2.822968	0.000428	4.277542	0.724635	0.008553
 561	2.8000e-01	5.5966	2.866586	0.000436	4.363093	0.739128	0.008724
 562	2.8050e-01	5.6075	2.908493	0.000419	4.191991	0.710142	0.008381
 563	2.8100e-01	5.6129	2.951256	0.000428	4.277542	0.724635	0.008553
 564	2.8150e-01	5.6268	2.987604	0.000364	3.635911	0.615940	0.007270
 565	2.8200e-01	5.6354	3.031222	0.000436	4.363093	0.739128	0.008724
 566	2.8250e-01	5.6477	3.073557	0.000423	4.234766	0.717389	0.008467
 567	2.8300e-01	5.6552	3.121878	0.000483	4.833622	0.818838	0.009664
 568	2.8350e-01	5.6697	3.159082	0.000372	3.721461	0.630433	0.007441
 569	2.8400e-01	5.6802	3.198851	0.000398	3.978114	0.673911	0.007954
 570	2.8450e-01	5.6863	3.243752	0.000449	4.491419	0.760867	0.008980
 571	2.8500e-01	5.6952	3.288225	0.000445	4.448644	0.753621	0.008895
 572	2.8550e-01	5.7074	3.327994	0.000398	3.978114	0.673911	0.007954
 573	2.8600e-01	5.7153	3.370756	0.000428	4.277542	0.724635	0.008553
 574	2.8650e-01	5.7260	3.415229	0.000445	4.448644	0.753621	0.008895
 575	2.8700e-01	5.7358	3.459702	0.000445	4.448644	0.753621	0.008895
 576	2.8750e-01	5.7477	3.499899	0.000402	4.020889	0.681157	0.008039
 577	2.8800e-01	5.7556	3.542234	0.000423	4.234766	0.717389	0.008467
 578	2.8850e-01	5.7645	3.583714	0.000415	4.149216	0.702896	0.008296
 579	2.8900e-01	5.7758	3.625193	0.000415	4.149216	0.702896	0.008296
 580	2.8950e-01	5.7849	3.668383	0.000432	4.320317	0.731882	0.008638
 581	2.9000e-01	5.7947	3.712001	0.000436	4.363093	0.739128	0.008724
 582	2.9050e-01	5.8066	3.756902	0.000449	4.491419	0.760867	0.008980
 583	2.9100e-01	5.8167	3.786408	0.000295	2.951504	0.499998	0.005901
 584	2.9150e-01	5.8264	3.834730	0.000483	4.833622	0.818838	0.009664
 585	2.9200e-01	5.8374	3.879630	0.000449	4.491419	0.760867	0.008980
 586	2.9250e-01	5.8453	3.924959	0.000453	4.534194	0.768113	0.009066
 587	2.9300e-01	5.8548	3.969859	0.000449	4.491419	0.760867	0.008980
 588	2.9350e-01	5.8685	4.013905	0.000441	4.405868	0.746374	0.008809
 589	2.9400e-01	5.8762	4.052819	0.000389	3.892563	0.659418	0.007783
 590	2.9450e-01	5.8844	4.090022	0.000372	3.721461	0.630433	0.007441
 591	2.9500e-01	5.8966	4.135350	0.000453	4.534194	0.768113	0.009066
 592	2.9550e-01	5.9050	4.175119	0.000398	3.978114	0.673911	0.007954
 593	2.9600e-01	5.9174	4.215316	0.000402	4.020889	0.681157	0.008039
 594	2.9650e-01	5.9253	4.262355	0.000471	4.705296	0.797099	0.009408
 595	2.9700e-01	5.9344	4.305545	0.000432	4.320317	0.731882	0.008638
 596	2.9750e-01	5.9448	4.352156	0.000466	4.662521	0.789852	0.009322
 597	2.9800e-01	5.9543	4.390215	0.000381	3.807012	0.644925	0.007612
 598	2.9850e-01	5.9645	4.432122	0.000419	4.191991	0.710142	0.008381
 599	2.9900e-01	5.9741	4.474885	0.000428	4.277542	0.724635	0.008553
 600	2.9950e-01	5.9857	4.518930	0.000441	4.405868	0.746374	0.008809
 601	3.0000e-01	5.9975	4.573238	0.000543	5.432478	0.920287	0.010862
 602	3.0050e-01	6.0046	4.611725	0.000385	3.849788	0.652172	0.007697
 603	3.0100e-01	6.0150	4.654060	0.000423	4.234766	0.717389	0.008467
 604	3.0150e-01	6.0255	4.694684	0.000406	4.063665	0.688403	0.008125
 605	3.0200e-01	6.0352	4.734026	0.000394	3.935338	0.666664	0.007868
 606	3.0250e-01	6.0480	4.777643	0.000436	4.363093	0.739128	0.008724
 607	3.0300e-01	6.0574	4.819123	0.000415	4.149216	0.702896	0.008296
 608	3.0350e-01	6.0638	4.861030	0.000419	4.191991	0.710142	0.008381
 609	3.0400e-01	6.0754	4.908924	0.000479	4.790847	0.811591	0.009579
 610	3.0450e-01	6.0852	4.949121	0.000402	4.020889	0.681157	0.008039
 611	3.0500e-01	6.0968	4.988890	0.000398	3.978114	0.673911	0.007954
 612	3.0550e-01	6.1044	5.034646	0.000458	4.576970	0.775360	0.009151
 613	3.0600e-01	6.1151	5.082113	0.000475	4.748071	0.804345	0.009493
 614	3.0650e-01	6.1263	5.120171	0.000381	3.807012	0.644925	0.007612
 615	3.0700e-01	6.1359	5.162079	0.000419	4.191991	0.710142	0.008381
 616	3.0750e-01	6.1469	5.206979	0.000449	4.491419	0.760867	0.008980
 617	3.0800e-01	6.1578	5.244183	0.000372	3.721461	0.630433	0.007441
 618	3.0850e-01	6.1665	5.283096	0.000389	3.892563	0.659418	0.007783
 619	3.0900e-01	6.1746	5.329708	0.000466	4.662521	0.789852	0.009322
 620	3.0950e-01	6.1844	5.368194	0.000385	3.849788	0.652172	0.007697
 621	3.1000e-01	6.1957	5.409674	0.000415	4.149216	0.702896	0.008296
 622	3.1050e-01	6.2061	5.456712	0.000471	4.705296	0.797099	0.009408
 623	3.1100e-01	6.2173	5.496481	0.000398	3.978114	0.673911	0.007954
 624	3.1150e-01	6.2271	5.543093	0.000466	4.662521	0.789852	0.009322
 625	3.1200e-01	6.2378	5.585855	0.000428	4.277542	0.724635	0.008553
 626	3.1250e-01	6.2445	5.622203	0.000364	3.635911	0.615940	0.007270
 627	3.1300e-01	6.2543	5.666676	0.000445	4.448644	0.753621	0.008895
 628	3.1350e-01	6.2671	5.709011	0.000423	4.234766	0.717389	0.008467
 629	3.1400e-01	6.2775	5.756905	0.000479	4.790847	0.811591	0.009579
 630	3.1450e-01	6.2892	5.793253	0.000364	3.635911	0.615940	0.007270
 631	3.1500e-01	6.2976	5.833450	0.000402	4.020889	0.681157	0.008039
 632	3.1550e-01	6.3083	5.871936	0.000385	3.849788	0.652172	0.007697
 633	3.1600e-01	6.3190	5.918548	0.000466	4.662521	0.789852	0.009322
 634	3.1650e-01	6.3248	5.957889	0.000394	3.935338	0.666664	0.007868
 635	3.1700e-01	6.3348	5.999369	0.000415	4.149216	0.702896	0.008296
 636	3.1750e-01	6.3461	6.042559	0.000432	4.320317	0.731882	0.008638
 637	3.1800e-01	6.3556	6.080190	0.000376	3.764237	0.637679	0.007526
 638	3.1850e-01	6.3675	6.124663	0.000445	4.448644	0.753621	0.008895
 639	3.1900e-01	6.3751	6.164432	0.000398	3.978114	0.673911	0.007954
 640	3.1950e-01	6.3861	6.207195	0.000428	4.277542	0.724635	0.008553
 641	3.2000e-01	6.3983	6.262358	0.000552	5.518029	0.934779	0.011033
 642	3.2050e-01	6.4044	6.304693	0.000423	4.234766	0.717389	0.008467
 643	3.2100e-01	6.4172	6.341041	0.000364	3.635911	0.615940	0.007270
 644	3.2150e-01	6.4249	6.379955	0.000389	3.892563	0.659418	0.007783
 645	3.2200e-01	6.4343	6.421435	0.000415	4.149216	0.702896	0.008296
 646	3.2250e-01	6.4478	6.463770	0.000423	4.234766	0.717389	0.008467
 647	3.2300e-01	6.4539	6.508670	0.000449	4.491419	0.760867	0.008980
 648	3.2350e-01	6.4655	6.545019	0.000364	3.635911	0.615940	0.007270
 649	3.2400e-01	6.4764	6.591630	0.000466	4.662521	0.789852	0.009322
 650	3.2450e-01	6.4838	6.627550	0.000359	3.593135	0.608694	0.007184
 651	3.2500e-01	6.4978	6.674161	0.000466	4.662521	0.789852	0.009322
 652	3.2550e-01	6.5073	6.711792	0.000376	3.764237	0.637679	0.007526
 653	3.2600e-01	6.5149	6.751134	0.000394	3.935338	0.666664	0.007868
 654	3.2650e-01	6.5228	6.793897	0.000428	4.277542	0.724635	0.008553
 655	3.2700e-01	6.5369	6.839652	0.000458	4.576970	0.775360	0.009151
 656	3.2750e-01	6.5448	6.882415	0.000428	4.277542	0.724635	0.008553
 657	3.2800e-01	6.5564	6.930737	0.000483	4.833622	0.818838	0.009664
 658	3.2850e-01	6.5649	6.969223	0.000385	3.849788	0.652172	0.007697
 659	3.2900e-01	6.5765	7.012413	0.000432	4.320317	0.731882	0.008638
 660	3.2950e-01	6.5894	7.056458	0.000441	4.405868	0.746374	0.008809
 661	3.3000e-01	6.5936	7.093234	0.000368	3.678686	0.623186	0.007355
 662	3.3050e-01	6.6035	7.135569	0.000423	4.234766	0.717389	0.008467
 663	3.3100e-01	6.6150	7.175338	0.000398	3.978114	0.673911	0.007954
 664	3.3150e-01	6.6251	7.221522	0.000462	4.619745	0.782606	0.009237
 665	3.3200e-01	6.6376	7.264284	0.000428	4.277542	0.724635	0.008553
 666	3.3250e-01	6.6452	7.304481	0.000402	4.020889	0.681157	0.008039
 667	3.3300e-01	6.6573	7.344678	0.000402	4.020889	0.681157	0.008039
 668	3.3350e-01	6.6687	7.391289	0.000466	4.662521	0.789852	0.009322
 669	3.3400e-01	6.6785	7.428492	0.000372	3.721461	0.630433	0.007441
 670	3.3450e-01	6.6858	7.466979	0.000385	3.849788	0.652172	0.007697
 671	3.3500e-01	6.6974	7.509741	0.000428	4.277542	0.724635	0.008553
 672	3.3550e-01	6.7053	7.550793	0.000411	4.106440	0.695650	0.008210
 673	3.3600e-01	6.7151	7.593128	0.000423	4.234766	0.717389	0.008467
 674	3.3650e-01	6.7244	7.634608	0.000415	4.149216	0.702896	0.008296
 675	3.3700e-01	6.7365	7.674805	0.000402	4.020889	0.681157	0.008039
 676	3.3750e-01	6.7441	7.715001	0.000402	4.020889	0.681157	0.008039
 677	3.3800e-01	6.7575	7.748784	0.000338	3.379258	0.572462	0.006756
 678	3.3850e-01	6.7657	7.797533	0.000488	4.876398	0.826084	0.009750
 679	3.3900e-01	6.7761	7.838585	0.000411	4.106440	0.695650	0.008210
 680	3.3950e-01	6.7847	7.873223	0.000346	3.464809	0.586955	0.006928
 681	3.4000e-01	6.7957	7.915558	0.000423	4.234766	0.717389	0.008467
 682	3.4050e-01	6.8054	7.953189	0.000376	3.764237	0.637679	0.007526
 683	3.4100e-01	6.8140	7.995524	0.000423	4.234766	0.717389	0.008467
 684	3.4150e-01	6.8253	8.039141	0.000436	4.363093	0.739128	0.008724
 685	3.4200e-01	6.8347	8.081049	0.000419	4.191991	0.710142	0.008381
 686	3.4250e-01	6.8463	8.115259	0.000342	3.422033	0.579708	0.006842
 687	3.4300e-01	6.8530	8.158449	0.000432	4.320317	0.731882	0.008638
 688	3.4350e-01	6.8658	8.201639	0.000432	4.320317	0.731882	0.008638
 689	3.4400e-01	6.8762	8.240980	0.000394	3.935338	0.666664	0.007868
 690	3.4450e-01	6.8890	8.283743	0.000428	4.277542	0.724635	0.008553
 691	3.4500e-01	6.8970	8.323512	0.000398	3.978114	0.673911	0.007954
 692	3.4550e-01	6.9046	8.364564	0.000411	4.106440	0.695650	0.008210
 693	3.4600e-01	6.9159	8.404761	0.000402	4.020889	0.681157	0.008039
 694	3.4650e-01	6.9244	8.449662	0.000449	4.491419	0.760867	0.008980
 695	3.4700e-01	6.9379	8.494562	0.000449	4.491419	0.760867	0.008980
 696	3.4750e-01	6.9452	8.530910	0.000364	3.635911	0.615940	0.007270
 697	3.4800e-01	6.9586	8.572390	0.000415	4.149216	0.702896	0.008296
 698	3.4850e-01	6.9666	8.619856	0.000475	4.748071	0.804345	0.009493
 699	3.4900e-01	6.9760	8.662191	0.000423	4.234766	0.717389	0.008467
 700	3.4950e-01	6.9858	8.708803	0.000466	4.662521	0.789852	0.009322
 701	3.5000e-01	6.9949	8.746861	0.000381	3.807012	0.644925	0.007612
 702	3.5050e-01	7.0062	8.785775	0.000389	3.892563	0.659418	0.007783
 703	3.5100e-01	7.0160	8.825972	0.000402	4.020889	0.681157	0.008039
 704	3.5150e-01	7.0261	8.864458	0.000385	3.849788	0.652172	0.007697
 705	3.5200e-01	7.0389	8.902517	0.000381	3.807012	0.644925	0.007612
 706	3.5250e-01	7.0459	8.948273	0.000458	4.576970	0.775360	0.009151
 707	3.5300e-01	7.0563	8.989325	0.000411	4.106440	0.695650	0.008210
 708	3.5350e-01	7.0648	9.021397	0.000321	3.208156	0.543476	0.006414
 709	3.5400e-01	7.0734	9.064587	0.000432	4.320317	0.731882	0.008638
 710	3.5450e-01	7.0868	9.106922	0.000423	4.234766	0.717389	0.008467
 711	3.5500e-01	7.0953	9.150967	0.000441	4.405868	0.746374	0.008809
 712	3.5550e-01	7.1085	9.189881	0.000389	3.892563	0.659418	0.007783
 713	3.5600e-01	7.1169	9.237775	0.000479	4.790847	0.811591	0.009579
 714	3.5650e-01	7.1289	9.271130	0.000334	3.336483	0.565215	0.006671
 715	3.5700e-01	7.1368	9.310471	0.000394	3.935338	0.666664	0.007868
 716	3.5750e-01	7.1478	9.351951	0.000415	4.149216	0.702896	0.008296
 717	3.5800e-01	7.1545	9.392575	0.000406	4.063665	0.688403	0.008125
 718	3.5850e-01	7.1661	9.431917	0.000394	3.935338	0.666664	0.007868
 719	3.5900e-01	7.1744	9.472541	0.000406	4.063665	0.688403	0.008125
 720	3.5950e-01	7.1844	9.523856	0.000513	5.133050	0.869562	0.010263
 721	3.6000e-01	7.1957	9.562343	0.000385	3.849788	0.652172	0.007697
 722	3.6050e-01	7.2066	9.593987	0.000317	3.165381	0.536230	0.006329
 723	3.6100e-01	7.2180	9.637605	0.000436	4.363093	0.739128	0.008724
 724	3.6150e-01	7.2260	9.671815	0.000342	3.422033	0.579708	0.006842
 725	3.6200e-01	7.2357	9.717143	0.000453	4.534194	0.768113	0.009066
 726	3.6250e-01	7.2452	9.758623	0.000415	4.149216	0.702896	0.008296
 727	3.6300e-01	7.2583	9.800102	0.000415	4.149216	0.702896	0.008296
 728	3.6350e-01	7.2668	9.837733	0.000376	3.764237	0.637679	0.007526
 729	3.6400e-01	7.2791	9.871088	0.000334	3.336483	0.565215	0.006671
 730	3.6450e-01	7.2852	9.915989	0.000449	4.491419	0.760867	0.008980
 731	3.6500e-01	7.2940	9.953620	0.000376	3.764237	0.637679	0.007526
 732	3.6550e-01	7.3062	9.991251	0.000376	3.764237	0.637679	0.007526
 733	3.6600e-01	7.3163	10.028027	0.000368	3.678686	0.623186	0.007355
 734	3.6650e-01	7.3254	10.068223	0.000402	4.020889	0.681157	0.008039
 735	3.6700e-01	7.3367	10.106282	0.000381	3.807012	0.644925	0.007612
 736	3.6750e-01	7.3489	10.147762	0.000415	4.149216	0.702896	0.008296
 737	3.6800e-01	7.3543	10.182399	0.000346	3.464809	0.586955	0.006928
 738	3.6850e-01	7.3657	10.219603	0.000372	3.721461	0.630433	0.007441
 739	3.6900e-01	7.3743	10.265359	0.000458	4.576970	0.775360	0.009151
 740	3.6950e-01	7.3871	10.298713	0.000334	3.336483	0.565215	0.006671
 741	3.7000e-01	7.3950	10.337627	0.000389	3.892563	0.659418	0.007783
 742	3.7050e-01	7.4063	10.375258	0.000376	3.764237	0.637679	0.007526
 743	3.7100e-01	7.4158	10.408185	0.000329	3.293707	0.557969	0.006585
 744	3.7150e-01	7.4271	10.455652	0.000475	4.748071	0.804345	0.009493
 745	3.7200e-01	7.4368	10.493283	0.000376	3.764237	0.637679	0.007526
 746	3.7250e-01	7.4487	10.529631	0.000364	3.635911	0.615940	0.007270
 747	3.7300e-01	7.4536	10.566834	0.000372	3.721461	0.630433	0.007441
 748	3.7350e-01	7.4643	10.609169	0.000423	4.234766	0.717389	0.008467
 749	3.7400e-01	7.4750	10.650649	0.000415	4.149216	0.702896	0.008296
 750	3.7450e-01	7.4854	10.685287	0.000346	3.464809	0.586955	0.006928
 751	3.7500e-01	7.4957	10.722490	0.000372	3.721461	0.630433	0.007441
 752	3.7550e-01	7.5032	10.759693	0.000372	3.721461	0.630433	0.007441
 753	3.7600e-01	7.5122	10.795614	0.000359	3.593135	0.608694	0.007184
 754	3.7650e-01	7.5238	10.837521	0.000419	4.191991	0.710142	0.008381
 755	3.7700e-01	7.5351	10.875580	0.000381	3.807012	0.644925	0.007612
 756	3.7750e-01	7.5446	10.914921	0.000394	3.935338	0.666664	0.007868
 757	3.7800e-01	7.5586	10.956829	0.000419	4.191991	0.710142	0.008381
 758	3.7850e-01	7.5690	10.991894	0.000351	3.507584	0.594201	0.007013
 759	3.7900e-01	7.5751	11.030808	0.000389	3.892563	0.659418	0.007783
 760	3.7950e-01	7.5848	11.066728	0.000359	3.593135	0.608694	0.007184
 761	3.8000e-01	7.5934	11.105642	0.000389	3.892563	0.659418	0.007783
 762	3.8050e-01	7.6050	11.147977	0.000423	4.234766	0.717389	0.008467
 763	3.8100e-01	7.6161	11.182615	0.000346	3.464809	0.586955	0.006928
 764	3.8150e-01	7.6266	11.225805	0.000432	4.320317	0.731882	0.008638
 765	3.8200e-01	7.6398	11.266429	0.000406	4.063665	0.688403	0.008125
 766	3.8250e-01	7.6462	11.300212	0.000338	3.379258	0.572462	0.006756
 767	3.8300e-01	7.6575	11.322876	0.000227	2.267097	0.384057	0.004533
 768	3.8350e-01	7.6669	11.377612	0.000548	5.475254	0.927533	0.010947
 769	3.8400e-01	7.6776	11.422940	0.000453	4.534194	0.768113	0.009066
 770	3.8450e-01	7.6843	11.455012	0.000321	3.208156	0.543476	0.006414
 771	3.8500e-01	7.6941	11.490505	0.000355	3.550360	0.601447	0.007099
 772	3.8550e-01	7.7094	11.528991	0.000385	3.849788	0.652172	0.007697
 773	3.8600e-01	7.7148	11.565767	0.000368	3.678686	0.623186	0.007355
 774	3.8650e-01	7.7258	11.602543	0.000368	3.678686	0.623186	0.007355
 775	3.8700e-01	7.7380	11.642740	0.000402	4.020889	0.681157	0.008039
 776	3.8750e-01	7.7441	11.682936	0.000402	4.020889	0.681157	0.008039
 777	3.8800e-01	7.7557	11.729975	0.000471	4.705296	0.797099	0.009408
 778	3.8850e-01	7.7679	11.765040	0.000351	3.507584	0.594201	0.007013
 779	3.8900e-01	7.7737	11.810369	0.000453	4.534194	0.768113	0.009066
 780	3.8950e-01	7.7856	11.845006	0.000346	3.464809	0.586955	0.006928
 781	3.9000e-01	7.7972	11.883493	0.000385	3.849788	0.652172	0.007697
 782	3.9050e-01	7.8064	11.915992	0.000325	3.250932	0.550723	0.006500
 783	3.9100e-01	7.8183	11.955334	0.000394	3.935338	0.666664	0.007868
 784	3.9150e-01	7.8259	11.993820	0.000385	3.849788	0.652172	0.007697
 785	3.9200e-01	7.8329	12.033161	0.000394	3.935338	0.666664	0.007868
 786	3.9250e-01	7.8479	12.069937	0.000368	3.678686	0.623186	0.007355
 787	3.9300e-01	7.8546	12.105002	0.000351	3.507584	0.594201	0.007013
 788	3.9350e-01	7.8668	12.144344	0.000394	3.935338	0.666664	0.007868
 789	3.9400e-01	7.8754	12.181975	0.000376	3.764237	0.637679	0.007526
 790	3.9450e-01	7.8864	12.223882	0.000419	4.191991	0.710142	0.008381
 791	3.9500e-01	7.8946	12.257237	0.000334	3.336483	0.565215	0.006671
 792	3.9550e-01	7.9074	12.300000	0.000428	4.277542	0.724635	0.008553
 793	3.9600e-01	7.9138	12.338058	0.000381	3.807012	0.644925	0.007612
 794	3.9650e-01	7.9285	12.377827	0.000398	3.978114	0.673911	0.007954
 795	3.9700e-01	7.9388	12.416314	0.000385	3.849788	0.652172	0.007697
 796	3.9750e-01	7.9468	12.452662	0.000364	3.635911	0.615940	0.007270
 797	3.9800e-01	7.9547	12.493714	0.000411	4.106440	0.695650	0.008210
 798	3.9850e-01	7.9669	12.530917	0.000372	3.721461	0.630433	0.007441
 799	3.9900e-01	7.9730	12.565127	0.000342	3.422033	0.579708	0.006842
 800	3.9950e-01	7.9840	12.608745	0.000436	4.363093	0.739128	0.008724
 801	4.0000e-01	7.9968	12.647659	0.000389	3.892563	0.659418	0.007783
 802	4.0050e-01	8.0072	12.679303	0.000317	3.165381	0.536230	0.006329
 803	4.0100e-01	8.0115	12.725059	0.000458	4.576970	0.775360	0.009151
 804	4.0150e-01	8.0255	12.760980	0.000359	3.593135	0.608694	0.007184
 805	4.0200e-01	8.0359	12.805453	0.000445	4.448644	0.753621	0.008895
 806	4.0250e-01	8.0457	12.841801	0.000364	3.635911	0.615940	0.007270
 807	4.0300e-01	8.0573	12.881142	0.000394	3.935338	0.666664	0.007868
 808	4.0350e-01	8.0634	12.920484	0.000394	3.935338	0.666664	0.007868
 809	4.0400e-01	8.0768	12.956404	0.000359	3.593135	0.608694	0.007184
 810	4.0450e-01	8.0853	12.994035	0.000376	3.764237	0.637679	0.007526
 811	4.0500e-01	8.0975	13.034660	0.000406	4.063665	0.688403	0.008125
 812	4.0550e-01	8.1073	13.075712	0.000411	4.106440	0.695650	0.008210
 813	4.0600e-01	8.1180	13.114198	0.000385	3.849788	0.652172	0.007697
 814	4.0650e-01	8.1271	13.156961	0.000428	4.277542	0.724635	0.008553
 815	4.0700e-01	8.1332	13.199296	0.000423	4.234766	0.717389	0.008467
 816	4.0750e-01	8.1467	13.234361	0.000351	3.507584	0.594201	0.007013
 817	4.0800e-01	8.1573	13.274130	0.000398	3.978114	0.673911	0.007954
 818	4.0850e-01	8.1628	13.312189	0.000381	3.807012	0.644925	0.007612
 819	4.0900e-01	8.1775	13.342550	0.000304	3.037055	0.514491	0.006072
 820	4.0950e-01	8.1866	13.390444	0.000479	4.790847	0.811591	0.009579
 821	4.1000e-01	8.1976	13.431496	0.000411	4.106440	0.695650	0.008210
 822	4.1050e-01	8.2043	13.466134	0.000346	3.464809	0.586955	0.006928
 823	4.1100e-01	8.2141	13.505475	0.000394	3.935338	0.666664	0.007868
 824	4.1150e-01	8.2227	13.551231	0.000458	4.576970	0.775360	0.009151
 825	4.1200e-01	8.2355	13.587152	0.000359	3.593135	0.608694	0.007184
 826	4.1250e-01	8.2452	13.624783	0.000376	3.764237	0.637679	0.007526
 827	4.1300e-01	8.2553	13.661131	0.000364	3.635911	0.615940	0.007270
 828	4.1350e-01	8.2678	13.697479	0.000364	3.635911	0.615940	0.007270
 829	4.1400e-01	8.2764	13.733827	0.000364	3.635911	0.615940	0.007270
 830	4.1450e-01	8.2867	13.773596	0.000398	3.978114	0.673911	0.007954
 831	4.1500e-01	8.2935	13.814221	0.000406	4.063665	0.688403	0.008125
 832	4.1550e-01	8.3060	13.854417	0.000402	4.020889	0.681157	0.008039
 833	4.1600e-01	8.3167	13.892476	0.000381	3.807012	0.644925	0.007612
 834	4.1650e-01	8.3270	13.927541	0.000351	3.507584	0.594201	0.007013
 835	4.1700e-01	8.3350	13.969449	0.000419	4.191991	0.710142	0.008381
 836	4.1750e-01	8.3478	14.007080	0.000376	3.764237	0.637679	0.007526
 837	4.1800e-01	8.3582	14.046421	0.000394	3.935338	0.666664	0.007868
 838	4.1850e-01	8.3673	14.088756	0.000423	4.234766	0.717389	0.008467
 839	4.1900e-01	8.3771	14.129381	0.000406	4.063665	0.688403	0.008125
 840	4.1950e-01	8.3850	14.159314	0.000299	2.994279	0.507245	0.005987
 841	4.2000e-01	8.3972	14.197373	0.000381	3.807012	0.644925	0.007612
 842	4.2050e-01	8.4064	14.232438	0.000351	3.507584	0.594201	0.007013
 843	4.2100e-01	8.4149	14.270497	0.000381	3.807012	0.644925	0.007612
 844	4.2150e-01	8.4265	14.318819	0.000483	4.833622	0.818838	0.009664
 845	4.2200e-01	8.4351	14.352173	0.000334	3.336483	0.565215	0.006671
 846	4.2250e-01	8.4448	14.394936	0.000428	4.277542	0.724635	0.008553
 847	4.2300e-01	8.4570	14.425297	0.000304	3.037055	0.514491	0.006072
 848	4.2350e-01	8.4668	14.468915	0.000436	4.363093	0.739128	0.008724
 849	4.2400e-01	8.4769	14.503125	0.000342	3.422033	0.579708	0.006842
 850	4.2450e-01	8.4875	14.548453	0.000453	4.534194	0.768113	0.009066
 851	4.2500e-01	8.4979	14.586512	0.000381	3.807012	0.644925	0.007612
 852	4.2550e-01	8.5046	14.627992	0.000415	4.149216	0.702896	0.008296
 853	4.2600e-01	8.5175	14.663912	0.000359	3.593135	0.608694	0.007184
 854	4.2650e-01	8.5278	14.706247	0.000423	4.234766	0.717389	0.008467
 855	4.2700e-01	8.5364	14.746016	0.000398	3.978114	0.673911	0.007954
 856	4.2750e-01	8.5452	14.784075	0.000381	3.807012	0.644925	0.007612
 857	4.2800e-01	8.5532	14.831541	0.000475	4.748071	0.804345	0.009493
 858	4.2850e-01	8.5632	14.866606	0.000351	3.507584	0.594201	0.007013
 859	4.2900e-01	8.5779	14.908514	0.000419	4.191991	0.710142	0.008381
 860	4.2950e-01	8.5858	14.955980	0.000475	4.748071	0.804345	0.009493
 861	4.3000e-01	8.5974	14.995322	0.000394	3.935338	0.666664	0.007868
 862	4.3050e-01	8.6047	15.037229	0.000419	4.191991	0.710142	0.008381
 863	4.3100e-01	8.6127	15.076143	0.000389	3.892563	0.659418	0.007783
 864	4.3150e-01	8.6267	15.120616	0.000445	4.448644	0.753621	0.008895
 865	4.3200e-01	8.6340	15.162096	0.000415	4.149216	0.702896	0.008296
 866	4.3250e-01	8.6452	15.201865	0.000398	3.978114	0.673911	0.007954
 867	4.3300e-01	8.6569	15.245482	0.000436	4.363093	0.739128	0.008724
 868	4.3350e-01	8.6647	15.282686	0.000372	3.721461	0.630433	0.007441
 869	4.3400e-01	8.6737	15.323738	0.000411	4.106440	0.695650	0.008210
 870	4.3450e-01	8.6847	15.365218	0.000415	4.149216	0.702896	0.008296
 871	4.3500e-01	8.6969	15.408408	0.000432	4.320317	0.731882	0.008638
 872	4.3550e-01	8.7048	15.446894	0.000385	3.849788	0.652172	0.007697
 873	4.3600e-01	8.7170	15.492222	0.000453	4.534194	0.768113	0.009066
 874	4.3650e-01	8.7268	15.532847	0.000406	4.063665	0.688403	0.008125
 875	4.3700e-01	8.7366	15.574754	0.000419	4.191991	0.710142	0.008381
 876	4.3750e-01	8.7476	15.617089	0.000423	4.234766	0.717389	0.008467
 877	4.3800e-01	8.7561	15.660707	0.000436	4.363093	0.739128	0.008724
 878	4.3850e-01	8.7671	15.690640	0.000299	2.994279	0.507245	0.005987
 879	4.3900e-01	8.7744	15.737252	0.000466	4.662521	0.789852	0.009322
 880	4.3950e-01	8.7869	15.791560	0.000543	5.432478	0.920287	0.010862
 881	4.4000e-01	8.7958	15.828336	0.000368	3.678686	0.623186	0.007355
 882	4.4050e-01	8.8062	15.870243	0.000419	4.191991	0.710142	0.008381
 883	4.4100e-01	8.8159	15.909585	0.000394	3.935338	0.666664	0.007868
 884	4.4150e-01	8.8287	15.948926	0.000394	3.935338	0.666664	0.007868
 885	4.4200e-01	8.8324	15.976722	0.000278	2.780402	0.471013	0.005559
 886	4.4250e-01	8.8446	16.026754	0.000500	5.004724	0.847823	0.010006
 887	4.4300e-01	8.8541	16.070799	0.000441	4.405868	0.746374	0.008809
 888	4.4350e-01	8.8690	16.118266	0.000475	4.748071	0.804345	0.009493
 889	4.4400e-01	8.8818	16.155897	0.000376	3.764237	0.637679	0.007526
 890	4.4450e-01	8.8867	16.200370	0.000445	4.448644	0.753621	0.008895
 891	4.4500e-01	8.8965	16.239711	0.000394	3.935338	0.666664	0.007868
 892	4.4550e-01	8.9063	16.279908	0.000402	4.020889	0.681157	0.008039
 893	4.4600e-01	8.9130	16.322243	0.000423	4.234766	0.717389	0.008467
 894	4.4650e-01	8.9276	16.363723	0.000415	4.149216	0.702896	0.008296
 895	4.4700e-01	8.9368	16.401354	0.000376	3.764237	0.637679	0.007526
 896	4.4750e-01	8.9435	16.447537	0.000462	4.619745	0.782606	0.009237
 897	4.4800e-01	8.9575	16.493293	0.000458	4.576970	0.775360	0.009151
 898	4.4850e-01	8.9630	16.534345	0.000411	4.106440	0.695650	0.008210
 899	4.4900e-01	8.9728	16.567272	0.000329	3.293707	0.557969	0.006585
 900	4.4950e-01	8.9856	16.607897	0.000406	4.063665	0.688403	0.008125
 901	4.5000e-01	8.9941	16.650659	0.000428	4.277542	0.724635	0.008553
 902	4.5050e-01	9.0039	16.695560	0.000449	4.491419	0.760867	0.008980
 903	4.5100e-01	9.0173	16.731480	0.000359	3.593135	0.608694	0.007184
 904	4.5150e-01	9.0259	16.772960	0.000415	4.149216	0.702896	0.008296
 905	4.5200e-01	9.0338	16.815295	0.000423	4.234766	0.717389	0.008467
 906	4.5250e-01	9.0466	16.849077	0.000338	3.379258	0.572462	0.006756
 907	4.5300e-01	9.0564	16.896971	0.000479	4.790847	0.811591	0.009579
 908	4.5350e-01	9.0643	16.941017	0.000441	4.405868	0.746374	0.008809
 909	4.5400e-01	9.0784	16.978648	0.000376	3.764237	0.637679	0.007526
 910	4.5450e-01	9.0863	17.017989	0.000394	3.935338	0.666664	0.007868
 911	4.5500e-01	9.0955	17.060752	0.000428	4.277542	0.724635	0.008553
 912	4.5550e-01	9.1040	17.107791	0.000471	4.705296	0.797099	0.009408
 913	4.5600e-01	9.1162	17.148843	0.000411	4.106440	0.695650	0.008210
 914	4.5650e-01	9.1229	17.186046	0.000372	3.721461	0.630433	0.007441
 915	4.5700e-01	9.1370	17.226670	0.000406	4.063665	0.688403	0.008125
 916	4.5750e-01	9.1443	17.268578	0.000419	4.191991	0.710142	0.008381
 917	4.5800e-01	9.1534	17.310913	0.000423	4.234766	0.717389	0.008467
 918	4.5850e-01	9.1656	17.350682	0.000398	3.978114	0.673911	0.007954
 919	4.5900e-01	9.1785	17.396865	0.000462	4.619745	0.782606	0.009237
 920	4.5950e-01	9.1870	17.439628	0.000428	4.277542	0.724635	0.008553
 921	4.6000e-01	9.1956	17.481107	0.000415	4.149216	0.702896	0.008296
 922	4.6050e-01	9.2053	17.524298	0.000432	4.320317	0.731882	0.008638
 923	4.6100e-01	9.2175	17.565777	0.000415	4.149216	0.702896	0.008296
 924	4.6150e-01	9.2249	17.612816	0.000471	4.705296	0.797099	0.009408
 925	4.6200e-01	9.2371	17.648737	0.000359	3.593135	0.608694	0.007184
 926	4.6250e-01	9.2444	17.694492	0.000458	4.576970	0.775360	0.009151
 927	4.6300e-01	9.2566	17.735544	0.000411	4.106440	0.695650	0.008210
 928	4.6350e-01	9.2670	17.775741	0.000402	4.020889	0.681157	0.008039
 929	4.6400e-01	9.2755	17.825773	0.000500	5.004724	0.847823	0.010006
 930	4.6450e-01	9.2871	17.864687	0.000389	3.892563	0.659418	0.007783
 931	4.6500e-01	9.2969	17.908305	0.000436	4.363093	0.739128	0.008724
 932	4.6550e-01	9.3048	17.949357	0.000411	4.106440	0.695650	0.008210
 933	4.6600e-01	9.3149	17.992120	0.000428	4.277542	0.724635	0.008553
 934	4.6650e-01	9.3256	18.033599	0.000415	4.149216	0.702896	0.008296
 935	4.6700e-01	9.3378	18.076789	0.000432	4.320317	0.731882	0.008638
 936	4.6750e-01	9.3475	18.116559	0.000398	3.978114	0.673911	0.007954
 937	4.6800e-01	9.3555	18.176426	0.000599	5.988559	1.014489	0.011974
 938	4.6850e-01	9.3646	18.209781	0.000334	3.336483	0.565215	0.006671
 939	4.6900e-01	9.3750	18.258958	0.000492	4.919173	0.833330	0.009835
 940	4.6950e-01	9.3866	18.298299	0.000394	3.935338	0.666664	0.007868
 941	4.7000e-01	9.3964	18.345766	0.000475	4.748071	0.804345	0.009493
 942	4.7050e-01	9.4043	18.395370	0.000496	4.961949	0.840577	0.009921
 943	4.7100e-01	9.4159	18.433001	0.000376	3.764237	0.637679	0.007526
 944	4.7150e-01	9.4257	18.468494	0.000355	3.550360	0.601447	0.007099
 945	4.7200e-01	9.4354	18.525368	0.000569	5.689131	0.963765	0.011375
 946	4.7250e-01	9.4476	18.572407	0.000471	4.705296	0.797099	0.009408
 947	4.7300e-01	9.4568	18.617735	0.000453	4.534194	0.768113	0.009066
 948	4.7350e-01	9.4669	18.665202	0.000475	4.748071	0.804345	0.009493
 949	4.7400e-01	9.4751	18.710102	0.000449	4.491419	0.760867	0.008980
 950	4.7450e-01	9.4843	18.755858	0.000458	4.576970	0.775360	0.009151
 951	4.7500e-01	9.4971	18.805035	0.000492	4.919173	0.833330	0.009835
 952	4.7550e-01	9.5062	18.852502	0.000475	4.748071	0.804345	0.009493
 953	4.7600e-01	9.5178	18.896975	0.000445	4.448644	0.753621	0.008895
 954	4.7650e-01	9.5258	18.941448	0.000445	4.448644	0.753621	0.008895
 955	4.7700e-01	9.5337	18.988059	0.000466	4.662521	0.789852	0.009322
 956	4.7750e-01	9.5438	19.033387	0.000453	4.534194	0.768113	0.009066
 957	4.7800e-01	9.5575	19.078715	0.000453	4.534194	0.768113	0.009066
 958	4.7850e-01	9.5642	19.121906	0.000432	4.320317	0.731882	0.008638
 959	4.7900e-01	9.5758	19.167234	0.000453	4.534194	0.768113	0.009066
 960	4.7950e-01	9.5862	19.210852	0.000436	4.363093	0.739128	0.008724
 961	4.8000e-01	9.5966	19.260884	0.000500	5.004724	0.847823	0.010006
 962	4.8050e-01	9.6033	19.305357	0.000445	4.448644	0.753621	0.008895
 963	4.8100e-01	9.6133	19.351113	0.000458	4.576970	0.775360	0.009151
 964	4.8150e-01	9.6246	19.393020	0.000419	4.191991	0.710142	0.008381
 965	4.8200e-01	9.6344	19.436638	0.000436	4.363093	0.739128	0.008724
 966	4.8250e-01	9.6448	19.483249	0.000466	4.662521	0.789852	0.009322
 967	4.8300e-01	9.6552	19.526011	0.000428	4.277542	0.724635	0.008553
 968	4.8350e-01	9.6646	19.570057	0.000441	4.405868	0.746374	0.008809
 969	4.8400e-01	9.6744	19.615813	0.000458	4.576970	0.775360	0.009151
 970	4.8450e-01	9.6851	19.656865	0.000411	4.106440	0.695650	0.008210
 971	4.8500e-01	9.6991	19.703904	0.000471	4.705296	0.797099	0.009408
 972	4.8550e-01	9.7052	19.747949	0.000441	4.405868	0.746374	0.008809
 973	4.8600e-01	9.7156	19.794988	0.000471	4.705296	0.797099	0.009408
 974	4.8650e-01	9.7266	19.837750	0.000428	4.277542	0.724635	0.008553
 975	4.8700e-01	9.7357	19.888638	0.000509	5.090275	0.862316	0.010177
 976	4.8750e-01	9.7461	19.930973	0.000423	4.234766	0.717389	0.008467
 977	4.8800e-01	9.7559	19.974590	0.000436	4.363093	0.739128	0.008724
 978	4.8850e-01	9.7687	20.021629	0.000471	4.705296	0.797099	0.009408
 979	4.8900e-01	9.7754	20.069096	0.000475	4.748071	0.804345	0.009493
 980	4.8950e-01	9.7882	20.115707	0.000466	4.662521	0.789852	0.009322
 981	4.9000e-01	9.7974	20.158469	0.000428	4.277542	0.724635	0.008553
 982	4.9050e-01	9.8047	20.203370	0.000449	4.491419	0.760867	0.008980
 983	4.9100e-01	9.8175	20.246132	0.000428	4.277542	0.724635	0.008553
 984	4.9150e-01	9.8224	20.291033	0.000449	4.491419	0.760867	0.008980
 985	4.9200e-01	9.8370	20.339782	0.000488	4.876398	0.826084	0.009750
 986	4.9250e-01	9.8468	20.382545	0.000428	4.277542	0.724635	0.008553
 987	4.9300e-01	9.8560	20.432577	0.000500	5.004724	0.847823	0.010006
 988	4.9350e-01	9.8627	20.478333	0.000458	4.576970	0.775360	0.009151
 989	4.9400e-01	9.8767	20.526227	0.000479	4.790847	0.811591	0.009579
 990	4.9450e-01	9.8846	20.569417	0.000432	4.320317	0.731882	0.008638
 991	4.9500e-01	9.8962	20.616028	0.000466	4.662521	0.789852	0.009322
 992	4.9550e-01	9.9054	20.669909	0.000539	5.389703	0.913040	0.010776
 993	4.9600e-01	9.9152	20.711816	0.000419	4.191991	0.710142	0.008381
 994	4.9650e-01	9.9243	20.760138	0.000483	4.833622	0.818838	0.009664
 995	4.9700e-01	9.9335	20.805894	0.000458	4.576970	0.775360	0.009151
 996	4.9750e-01	9.9451	20.861485	0.000556	5.560804	0.942026	0.011118
 997	4.9800e-01	9.9554	20.901254	0.000398	3.978114	0.673911	0.007954
 998	4.9850e-01	9.9652	20.949576	0.000483	4.833622	0.818838	0.009664
 999	4.9900e-01	9.9747	21.001319	0.000518	5.175826	0.876809	0.010349
1000	4.9950e-01	9.9847	21.059476	0.000582	5.817457	0.985504	0.011631
1001	5.0000e-01	9.9939	21.101383	0.000419	4.191991	0.710142	0.008381
1002	5.0050e-01	9.9866	21.153981	-0.000526	-5.261376	-0.891301	0.010520
1003	5.0100e-01	9.9780	21.195033	-0.000411	-4.106440	-0.695650	0.008210
1004	5.0150e-01	9.9670	21.242927	-0.000479	-4.790847	-0.811591	0.009579
1005	5.0200e-01	9.9548	21.284407	-0.000415	-4.149216	-0.702896	0.008296
1006	5.0250e-01	9.9463	21.326314	-0.000419	-4.191991	-0.710142	0.008381
1007	5.0300e-01	9.9341	21.371215	-0.000449	-4.491419	-0.760867	0.008980
1008	5.0350e-01	9.9243	21.408418	-0.000372	-3.721461	-0.630433	0.007441
1009	5.0400e-01	9.9139	21.446904	-0.000385	-3.849788	-0.652172	0.007697
1010	5.0450e-01	9.9054	21.487529	-0.000406	-4.063665	-0.688403	0.008125
1011	5.0500e-01	9.8956	21.522166	-0.000346	-3.464809	-0.586955	0.006928
1012	5.0550e-01	9.8840	21.554666	-0.000325	-3.250932	-0.550723	0.006500
1013	5.0600e-01	9.8761	21.593152	-0.000385	-3.849788	-0.652172	0.007697
1014	5.0650e-01	9.8645	21.631638	-0.000385	-3.849788	-0.652172	0.007697
1015	5.0700e-01	9.8547	21.667559	-0.000359	-3.593135	-0.608694	0.007184
1016	5.0750e-01	9.8474	21.696637	-0.000291	-2.908728	-0.492752	0.005816
1017	5.0800e-01	9.8364	21.728282	-0.000317	-3.165381	-0.536230	0.006329
1018	5.0850e-01	9.8230	21.752656	-0.000244	-2.438199	-0.413042	0.004875
1019	5.0900e-01	9.8175	21.783445	-0.000308	-3.079830	-0.521737	0.006158
1020	5.0950e-01	9.8099	21.817228	-0.000338	-3.379258	-0.572462	0.006756
1021	5.1000e-01	9.7974	21.840319	-0.000231	-2.309873	-0.391303	0.004618
1022	5.1050e-01	9.7833	21.869398	-0.000291	-2.908728	-0.492752	0.005816
1023	5.1100e-01	9.7748	21.889924	-0.000205	-2.053220	-0.347825	0.004105
1024	5.1150e-01	9.7668	21.915582	-0.000257	-2.566525	-0.434781	0.005132
1025	5.1200e-01	9.7577	21.942094	-0.000265	-2.652076	-0.449274	0.005303
1026	5.1250e-01	9.7479	21.964758	-0.000227	-2.267097	-0.384057	0.004533
1027	5.1300e-01	9.7333	21.983574	-0.000188	-1.882118	-0.318839	0.003763
1028	5.1350e-01	9.7272	22.008376	-0.000248	-2.480974	-0.420288	0.004960
1029	5.1400e-01	9.7174	22.034034	-0.000257	-2.566525	-0.434781	0.005132
1030	5.1450e-01	9.7070	22.048573	-0.000145	-1.454364	-0.246376	0.002908
1031	5.1500e-01	9.6967	22.069527	-0.000210	-2.095995	-0.355071	0.004191
1032	5.1550e-01	9.6875	22.090908	-0.000214	-2.138771	-0.362318	0.004276
1033	5.1600e-01	9.6765	22.108868	-0.000180	-1.796568	-0.304347	0.003592
1034	5.1650e-01	9.6692	22.122980	-0.000141	-1.411589	-0.239130	0.002822
1035	5.1700e-01	9.6576	22.144361	-0.000214	-2.138771	-0.362318	0.004276
1036	5.1750e-01	9.6460	22.162321	-0.000180	-1.796568	-0.304347	0.003592
1037	5.1800e-01	9.6368	22.178143	-0.000158	-1.582690	-0.268115	0.003164
1038	5.1850e-01	9.6246	22.197387	-0.000192	-1.924894	-0.326086	0.003849
1039	5.1900e-01	9.6176	22.207222	-0.000098	-0.983835	-0.166666	0.001967
1040	5.1950e-01	9.6051	22.225182	-0.000180	-1.796568	-0.304347	0.003592
1041	5.2000e-01	9.5978	22.239721	-0.000145	-1.454364	-0.246376	0.002908
1042	5.2050e-01	9.5874	22.252978	-0.000133	-1.326038	-0.224637	0.002651
1043	5.2100e-01	9.5770	22.268372	-0.000154	-1.539915	-0.260869	0.003079
1044	5.2150e-01	9.5660	22.278208	-0.000098	-0.983835	-0.166666	0.001967
1045	5.2200e-01	9.5526	22.289754	-0.000115	-1.154936	-0.195652	0.002309
1046	5.2250e-01	9.5471	22.302582	-0.000128	-1.283263	-0.217391	0.002566
1047	5.2300e-01	9.5355	22.313701	-0.000111	-1.112161	-0.188405	0.002224
1048	5.2350e-01	9.5276	22.321398	-0.000077	-0.769958	-0.130434	0.001539
1049	5.2400e-01	9.5178	22.331233	-0.000098	-0.983835	-0.166666	0.001967
1050	5.2450e-01	9.5068	22.346628	-0.000154	-1.539915	-0.260869	0.003079
1051	5.2500e-01	9.4958	22.359884	-0.000133	-1.326038	-0.224637	0.002651
1052	5.2550e-01	9.4836	22.364588	-0.000047	-0.470530	-0.079710	0.000941
1053	5.2600e-01	9.4757	22.373141	-0.000086	-0.855508	-0.144927	0.001711
1054	5.2650e-01	9.4641	22.377844	-0.000047	-0.470530	-0.079710	0.000941
1055	5.2700e-01	9.4580	22.400936	-0.000231	-2.309873	-0.391303	0.004618
1056	5.2750e-01	9.4452	22.405640	-0.000047	-0.470530	-0.079710	0.000941
1057	5.2800e-01	9.4342	22.405212	0.000004	0.042775	0.007246	-0.000086
1058	5.2850e-01	9.4269	22.409061	-0.000038	-0.384979	-0.065217	0.000770
1059	5.2900e-01	9.4189	22.421035	-0.000120	-1.197712	-0.202898	0.002395
1060	5.2950e-01	9.4055	22.426594	-0.000056	-0.556080	-0.094203	0.001112
1061	5.3000e-01	9.3970	22.433008	-0.000064	-0.641631	-0.108695	0.001283
1062	5.3050e-01	9.3860	22.433863	-0.000009	-0.085551	-0.014493	0.000171
1063	5.3100e-01	9.3774	22.432153	0.000017	0.171102	0.028985	-0.000342
1064	5.3150e-01	9.3677	22.441988	-0.000098	-0.983835	-0.166666	0.001967
1065	5.3200e-01	9.3555	22.449258	-0.000073	-0.727182	-0.123188	0.001454
1066	5.3250e-01	9.3488	22.444982	0.000043	0.427754	0.072464	-0.000855
1067	5.3300e-01	9.3378	22.455672	-0.000107	-1.069385	-0.181159	0.002138
1068	5.3350e-01	9.3256	22.453962	0.000017	0.171102	0.028985	-0.000342
1069	5.3400e-01	9.3152	22.460804	-0.000068	-0.684407	-0.115942	0.001368
1070	5.3450e-01	9.3036	22.460376	0.000004	0.042775	0.007246	-0.000086
1071	5.3500e-01	9.2981	22.465935	-0.000056	-0.556080	-0.094203	0.001112
1072	5.3550e-01	9.2850	22.465080	0.000009	0.085551	0.014493	-0.000171
1073	5.3600e-01	9.2780	22.464652	0.000004	0.042775	0.007246	-0.000086
1074	5.3650e-01	9.2639	22.469784	-0.000051	-0.513305	-0.086956	0.001026
1075	5.3700e-01	9.2560	22.471494	-0.000017	-0.171102	-0.028985	0.000342
1076	5.3750e-01	9.2456	22.471494	-0.000000	-0.000000	-0.000000	0.000000
1077	5.3800e-01	9.2337	22.471067	0.000004	0.042775	0.007246	-0.000086
1078	5.3850e-01	9.2267	22.467218	0.000038	0.384979	0.065217	-0.000770
1079	5.3900e-01	9.2151	22.471067	-0.000038	-0.384979	-0.065217	0.000770
1080	5.3950e-01	9.2065	22.473205	-0.000021	-0.213877	-0.036232	0.000428
1081	5.4000e-01	9.1949	22.469356	0.000038	0.384979	0.065217	-0.000770
1082	5.4050e-01	9.1891	22.467218	0.000021	0.213877	0.036232	-0.000428
1083	5.4100e-01	9.1766	22.465080	0.000021	0.213877	0.036232	-0.000428
1084	5.4150e-01	9.1681	22.467218	-0.000021	-0.213877	-0.036232	0.000428
1085	5.4200e-01	9.1553	22.462087	0.000051	0.513305	0.086956	-0.001026
1086	5.4250e-01	9.1461	22.456955	0.000051	0.513305	0.086956	-0.001026
1087	5.4300e-01	9.1354	22.454389	0.000026	0.256653	0.043478	-0.000513
1088	5.4350e-01	9.1272	22.456100	-0.000017	-0.171102	-0.028985	0.000342
1089	5.4400e-01	9.1168	22.453962	0.000021	0.213877	0.036232	-0.000428
1090	5.4450e-01	9.1071	22.448403	0.000056	0.556080	0.094203	-0.001112
1091	5.4500e-01	9.0961	22.446264	0.000021	0.213877	0.036232	-0.000428
1092	5.4550e-01	9.0863	22.438140	0.000081	0.812733	0.137681	-0.001625
1093	5.4600e-01	9.0784	22.434719	0.000034	0.342203	0.057971	-0.000684
1094	5.4650e-01	9.0649	22.429159	0.000056	0.556080	0.094203	-0.001112
1095	5.4700e-01	9.0582	22.423600	0.000056	0.556080	0.094203	-0.001112
1096	5.4750e-01	9.0472	22.420179	0.000034	0.342203	0.057971	-0.000684
1097	5.4800e-01	9.0363	22.414620	0.000056	0.556080	0.094203	-0.001112
1098	5.4850e-01	9.0289	22.412482	0.000021	0.213877	0.036232	-0.000428
1099	5.4900e-01	9.0146	22.404785	0.000077	0.769958	0.130434	-0.001539
1100	5.4950e-01	9.0057	22.395377	0.000094	0.941059	0.159420	-0.001882
1101	5.5000e-01	8.9954	22.388107	0.000073	0.727182	0.123188	-0.001454
1102	5.5050e-01	8.9905	22.385969	0.000021	0.213877	0.036232	-0.000428
1103	5.5100e-01	8.9755	22.376562	0.000094	0.941059	0.159420	-0.001882
1104	5.5150e-01	8.9673	22.375279	0.000013	0.128326	0.021739	-0.000257
1105	5.5200e-01	8.9557	22.370147	0.000051	0.513305	0.086956	-0.001026
1106	5.5250e-01	8.9450	22.351759	0.000184	1.839343	0.311593	-0.003678
1107	5.5300e-01	8.9337	22.349194	0.000026	0.256653	0.043478	-0.000513
1108	5.5350e-01	8.9273	22.341496	0.000077	0.769958	0.130434	-0.001539
1109	5.5400e-01	8.9154	22.329523	0.000120	1.197712	0.202898	-0.002395
1110	5.5450e-01	8.9069	22.323536	0.000060	0.598856	0.101449	-0.001197
1111	5.5500e-01	8.8977	22.317122	0.000064	0.641631	0.108695	-0.001283
1112	5.5550e-01	8.8895	22.305576	0.000115	1.154936	0.195652	-0.002309
1113	5.5600e-01	8.8739	22.289326	0.000163	1.625466	0.275361	-0.003250
1114	5.5650e-01	8.8666	22.285050	0.000043	0.427754	0.072464	-0.000855
1115	5.5700e-01	8.8550	22.281201	0.000038	0.384979	0.065217	-0.000770
1116	5.5750e-01	8.8501	22.270510	0.000107	1.069385	0.181159	-0.002138
1117	5.5800e-01	8.8354	22.261103	0.000094	0.941059	0.159420	-0.001882
1118	5.5850e-01	8.8257	22.245708	0.000154	1.539915	0.260869	-0.003079
1119	5.5900e-01	8.8159	22.241004	0.000047	0.470530	0.079710	-0.000941
1120	5.5950e-01	8.8068	22.230314	0.000107	1.069385	0.181159	-0.002138
1121	5.6000e-01	8.7973	22.213209	0.000171	1.711017	0.289854	-0.003421
1122	5.6050e-01	8.7863	22.200808	0.000124	1.240487	0.210144	-0.002480
1123	5.6100e-01	8.7769	22.192683	0.000081	0.812733	0.137681	-0.001625
1124	5.6150e-01	8.7665	22.182420	0.000103	1.026610	0.173912	-0.002053
1125	5.6200e-01	8.7598	22.172157	0.000103	1.026610	0.173912	-0.002053
1126	5.6250e-01	8.7451	22.157617	0.000145	1.454364	0.246376	-0.002908
1127	5.6300e-01	8.7363	22.149065	0.000086	0.855508	0.144927	-0.001711
1128	5.6350e-01	8.7256	22.134526	0.000145	1.454364	0.246376	-0.002908
1129	5.6400e-01	8.7164	22.122552	0.000120	1.197712	0.202898	-0.002395
1130	5.6450e-01	8.7054	22.110151	0.000124	1.240487	0.210144	-0.002480
1131	5.6500e-01	8.6975	22.096895	0.000133	1.326038	0.224637	-0.002651
1132	5.6550e-01	8.6880	22.083211	0.000137	1.368813	0.231883	-0.002737
1133	5.6600e-01	8.6761	22.075086	0.000081	0.812733	0.137681	-0.001625
1134	5.6650e-01	8.6670	22.060546	0.000145	1.454364	0.246376	-0.002908
1135	5.6700e-01	8.6548	22.045580	0.000150	1.497140	0.253622	-0.002993
1136	5.6750e-01	8.6487	22.032323	0.000133	1.326038	0.224637	-0.002651
1137	5.6800e-01	8.6365	22.019494	0.000128	1.283263	0.217391	-0.002566
1138	5.6850e-01	8.6292	22.002817	0.000167	1.668241	0.282608	-0.003335
1139	5.6900e-01	8.6200	21.992554	0.000103	1.026610	0.173912	-0.002053
1140	5.6950e-01	8.6084	21.972883	0.000197	1.967669	0.333332	-0.003934
1141	5.7000e-01	8.6005	21.961337	0.000115	1.154936	0.195652	-0.002309
1142	5.7050e-01	8.5840	21.943805	0.000175	1.753792	0.297100	-0.003507
1143	5.7100e-01	8.5767	21.930121	0.000137	1.368813	0.231883	-0.002737
1144	5.7150e-01	8.5663	21.915582	0.000145	1.454364	0.246376	-0.002908
1145	5.7200e-01	8.5583	21.899332	0.000163	1.625466	0.275361	-0.003250
1146	5.7250e-01	8.5474	21.889924	0.000094	0.941059	0.159420	-0.001882
1147	5.7300e-01	8.5376	21.872819	0.000171	1.711017	0.289854	-0.003421
1148	5.7350e-01	8.5284	21.854859	0.000180	1.796568	0.304347	-0.003592
1149	5.7400e-01	8.5175	21.839037	0.000158	1.582690	0.268115	-0.003164
1150	5.7450e-01	8.5107	21.822787	0.000163	1.625466	0.275361	-0.003250
1151	5.7500e-01	8.4988	21.803544	0.000192	1.924894	0.326086	-0.003849
1152	5.7550e-01	8.4863	21.790715	0.000128	1.283263	0.217391	-0.002566
1153	5.7600e-01	8.4772	21.772755	0.000180	1.796568	0.304347	-0.003592
1154	5.7650e-01	8.4674	21.756933	0.000158	1.582690	0.268115	-0.003164
1155	5.7700e-01	8.4564	21.737262	0.000197	1.967669	0.333332	-0.003934
1156	5.7750e-01	8.4485	21.724433	0.000128	1.283263	0.217391	-0.002566
1157	5.7800e-01	8.4375	21.702624	0.000218	2.181546	0.369564	-0.004362
1158	5.7850e-01	8.4290	21.689368	0.000133	1.326038	0.224637	-0.002651
1159	5.7900e-01	8.4204	21.667131	0.000222	2.224322	0.376810	-0.004447
1160	5.7950e-01	8.4070	21.651737	0.000154	1.539915	0.260869	-0.003079
1161	5.8000e-01	8.3960	21.626079	0.000257	2.566525	0.434781	-0.005132
1162	5.8050e-01	8.3865	21.610685	0.000154	1.539915	0.260869	-0.003079
1163	5.8100e-01	8.3789	21.598284	0.000124	1.240487	0.210144	-0.002480
1164	5.8150e-01	8.3669	21.577330	0.000210	2.095995	0.355071	-0.004191
1165	5.8200e-01	8.3618	21.558087	0.000192	1.924894	0.326086	-0.003849
1166	5.8250e-01	8.3496	21.539271	0.000188	1.882118	0.318839	-0.003763
1167	5.8300e-01	8.3380	21.521739	0.000175	1.753792	0.297100	-0.003507
1168	5.8350e-01	8.3276	21.500357	0.000214	2.138771	0.362318	-0.004276
1169	5.8400e-01	8.3148	21.487956	0.000124	1.240487	0.210144	-0.002480
1170	5.8450e-01	8.3087	21.463154	0.000248	2.480974	0.420288	-0.004960
1171	5.8500e-01	8.2941	21.447759	0.000154	1.539915	0.260869	-0.003079
1172	5.8550e-01	8.2874	21.425523	0.000222	2.224322	0.376810	-0.004447
1173	5.8600e-01	8.2782	21.404569	0.000210	2.095995	0.355071	-0.004191
1174	5.8650e-01	8.2672	21.393023	0.000115	1.154936	0.195652	-0.002309
1175	5.8700e-01	8.2574	21.370359	0.000227	2.267097	0.384057	-0.004533
1176	5.8750e-01	8.2465	21.354110	0.000163	1.625466	0.275361	-0.003250
1177	5.8800e-01	8.2355	21.332728	0.000214	2.138771	0.362318	-0.004276
1178	5.8850e-01	8.2263	21.314340	0.000184	1.839343	0.311593	-0.003678
1179	5.8900e-01	8.2184	21.290821	0.000235	2.352648	0.398549	-0.004704
1180	5.8950e-01	8.2053	21.257039	0.000338	3.379258	0.572462	-0.006756
1181	5.9000e-01	8.1982	21.248486	0.000086	0.855508	0.144927	-0.001711
1182	5.9050e-01	8.1891	21.223684	0.000248	2.480974	0.420288	-0.004960
1183	5.9100e-01	8.1781	21.207006	0.000167	1.668241	0.282608	-0.003335
1184	5.9150e-01	8.1665	21.182632	0.000244	2.438199	0.413042	-0.004875
1185	5.9200e-01	8.1573	21.166810	0.000158	1.582690	0.268115	-0.003164
1186	5.9250e-01	8.1488	21.141580	0.000252	2.523750	0.427535	-0.005046
1187	5.9300e-01	8.1363	21.122764	0.000188	1.882118	0.318839	-0.003763
1188	5.9350e-01	8.1281	21.094969	0.000278	2.780402	0.471013	-0.005559
1189	5.9400e-01	8.1158	21.079574	0.000154	1.539915	0.260869	-0.003079
1190	5.9450e-01	8.1079	21.050496	0.000291	2.908728	0.492752	-0.005816
1191	5.9500e-01	8.0963	21.034673	0.000158	1.582690	0.268115	-0.003164
1192	5.9550e-01	8.0902	21.014575	0.000201	2.010445	0.340579	-0.004020
1193	5.9600e-01	8.0786	20.994904	0.000197	1.967669	0.333332	-0.003934
1194	5.9650e-01	8.0661	20.969674	0.000252	2.523750	0.427535	-0.005046
1195	5.9700e-01	8.0591	20.943589	0.000261	2.609301	0.442027	-0.005217
1196	5.9750e-01	8.0481	20.921780	0.000218	2.181546	0.369564	-0.004362
1197	5.9800e-01	8.0386	20.904248	0.000175	1.753792	0.297100	-0.003507
1198	5.9850e-01	8.0283	20.881156	0.000231	2.309873	0.391303	-0.004618
1199	5.9900e-01	8.0170	20.858064	0.000231	2.309873	0.391303	-0.004618
1200	5.9950e-01	8.0109	20.829413	0.000287	2.865953	0.485506	-0.005730
1201	6.0000e-01	7.9990	20.811453	0.000180	1.796568	0.304347	-0.003592
1202	6.0050e-01	7.9907	20.786651	0.000248	2.480974	0.420288	-0.004960
1203	6.0100e-01	7.9773	20.765697	0.000210	2.095995	0.355071	-0.004191
1204	6.0150e-01	7.9681	20.744744	0.000210	2.095995	0.355071	-0.004191
1205	6.0200e-01	7.9572	20.717375	0.000274	2.737627	0.463767	-0.005474
1206	6.0250e-01	7.9449	20.698132	0.000192	1.924894	0.326086	-0.003849
1207	6.0300e-01	7.9361	20.667771	0.000304	3.037055	0.514491	-0.006072
1208	6.0350e-01	7.9260	20.645107	0.000227	2.267097	0.384057	-0.004533
1209	6.0400e-01	7.9172	20.622870	0.000222	2.224322	0.376810	-0.004447
1210	6.0450e-01	7.9071	20.602344	0.000205	2.053220	0.347825	-0.004105
1211	6.0500e-01	7.8955	20.576259	0.000261	2.609301	0.442027	-0.005217
1212	6.0550e-01	7.8882	20.556588	0.000197	1.967669	0.333332	-0.003934
1213	6.0600e-01	7.8784	20.528365	0.000282	2.823178	0.478259	-0.005645
1214	6.0650e-01	7.8693	20.502708	0.000257	2.566525	0.434781	-0.005132
1215	6.0700e-01	7.8564	20.480471	0.000222	2.224322	0.376810	-0.004447
1216	6.0750e-01	7.8455	20.454814	0.000257	2.566525	0.434781	-0.005132
1217	6.0800e-01	7.8363	20.435143	0.000197	1.967669	0.333332	-0.003934
1218	6.0850e-01	7.8265	20.403071	0.000321	3.208156	0.543476	-0.006414
1219	6.0900e-01	7.8162	20.381690	0.000214	2.138771	0.362318	-0.004276
1220	6.0950e-01	7.8064	20.351328	0.000304	3.037055	0.514491	-0.006072
1221	6.1000e-01	7.7942	20.329092	0.000222	2.224322	0.376810	-0.004447
1222	6.1050e-01	7.7872	20.305572	0.000235	2.352648	0.398549	-0.004704
1223	6.1100e-01	7.7780	20.283763	0.000218	2.181546	0.369564	-0.004362
1224	6.1150e-01	7.7661	20.249981	0.000338	3.379258	0.572462	-0.006756
1225	6.1200e-01	7.7582	20.226034	0.000240	2.395423	0.405796	-0.004789
1226	6.1250e-01	7.7466	20.199094	0.000269	2.694851	0.456520	-0.005388
1227	6.1300e-01	7.7368	20.181133	0.000180	1.796568	0.304347	-0.003592
1228	6.1350e-01	7.7283	20.154193	0.000269	2.694851	0.456520	-0.005388
1229	6.1400e-01	7.7130	20.125970	0.000282	2.823178	0.478259	-0.005645
1230	6.1450e-01	7.7048	20.105444	0.000205	2.053220	0.347825	-0.004105
1231	6.1500e-01	7.6978	20.077220	0.000282	2.823178	0.478259	-0.005645
1232	6.1550e-01	7.6840	20.047287	0.000299	2.994279	0.507245	-0.005987
1233	6.1600e-01	7.6764	20.023340	0.000240	2.395423	0.405796	-0.004789
1234	6.1650e-01	7.6654	19.995972	0.000274	2.737627	0.463767	-0.005474
1235	6.1700e-01	7.6569	19.969031	0.000269	2.694851	0.456520	-0.005388
1236	6.1750e-01	7.6440	19.942091	0.000269	2.694851	0.456520	-0.005388
1237	6.1800e-01	7.6355	19.912585	0.000295	2.951504	0.499998	-0.005901
1238	6.1850e-01	7.6288	19.882651	0.000299	2.994279	0.507245	-0.005987
1239	6.1900e-01	7.6141	19.857421	0.000252	2.523750	0.427535	-0.005046
1240	6.1950e-01	7.6062	19.833474	0.000240	2.395423	0.405796	-0.004789
1241	6.2000e-01	7.5946	19.811665	0.000218	2.181546	0.369564	-0.004362
1242	6.2050e-01	7.5922	19.781304	0.000304	3.037055	0.514491	-0.006072
1243	6.2100e-01	7.5766	19.757357	0.000240	2.395423	0.405796	-0.004789
1244	6.2150e-01	7.5677	19.731699	0.000257	2.566525	0.434781	-0.005132
1245	6.2200e-01	7.5562	19.703476	0.000282	2.823178	0.478259	-0.005645
1246	6.2250e-01	7.5470	19.678246	0.000252	2.523750	0.427535	-0.005046
1247	6.2300e-01	7.5354	19.649168	0.000291	2.908728	0.492752	-0.005816
1248	6.2350e-01	7.5272	19.629497	0.000197	1.967669	0.333332	-0.003934
1249	6.2400e-01	7.5165	19.601274	0.000282	2.823178	0.478259	-0.005645
1250	6.2450e-01	7.5061	19.572195	0.000291	2.908728	0.492752	-0.005816
1251	6.2500e-01	7.4976	19.551241	0.000210	2.095995	0.355071	-0.004191
1252	6.2550e-01	7.4860	19.523018	0.000282	2.823178	0.478259	-0.005645
1253	6.2600e-01	7.4762	19.498643	0.000244	2.438199	0.413042	-0.004875
1254	6.2650e-01	7.4670	19.466144	0.000325	3.250932	0.550723	-0.006500
1255	6.2700e-01	7.4585	19.438348	0.000278	2.780402	0.471013	-0.005559
1256	6.2750e-01	7.4457	19.418250	0.000201	2.010445	0.340579	-0.004020
1257	6.2800e-01	7.4359	19.391310	0.000269	2.694851	0.456520	-0.005388
1258	6.2850e-01	7.4258	19.359665	0.000317	3.165381	0.536230	-0.006329
1259	6.2900e-01	7.4170	19.337856	0.000218	2.181546	0.369564	-0.004362
1260	6.2950e-01	7.4054	19.307067	0.000308	3.079830	0.521737	-0.006158
1261	6.3000e-01	7.3981	19.289107	0.000180	1.796568	0.304347	-0.003592
1262	6.3050e-01	7.3854	19.262594	0.000265	2.652076	0.449274	-0.005303
1263	6.3100e-01	7.3761	19.230095	0.000325	3.250932	0.550723	-0.006500
1264	6.3150e-01	7.3666	19.204865	0.000252	2.523750	0.427535	-0.005046
1265	6.3200e-01	7.3553	19.181773	0.000231	2.309873	0.391303	-0.004618
1266	6.3250e-01	7.3450	19.152267	0.000295	2.951504	0.499998	-0.005901
1267	6.3300e-01	7.3358	19.127465	0.000248	2.480974	0.420288	-0.004960
1268	6.3350e-01	7.3285	19.103945	0.000235	2.352648	0.398549	-0.004704
1269	6.3400e-01	7.3151	19.075722	0.000282	2.823178	0.478259	-0.005645
1270	6.3450e-01	7.3120	19.047926	0.000278	2.780402	0.471013	-0.005559
1271	6.3500e-01	7.2980	19.019703	0.000282	2.823178	0.478259	-0.005645
1272	6.3550e-01	7.2852	18.991052	0.000287	2.865953	0.485506	-0.005730
1273	6.3600e-01	7.2806	18.961546	0.000295	2.951504	0.499998	-0.005901
1274	6.3650e-01	7.2668	18.933750	0.000278	2.780402	0.471013	-0.005559
1275	6.3700e-01	7.2589	18.908521	0.000252	2.523750	0.427535	-0.005046
1276	6.3750e-01	7.2455	18.878587	0.000299	2.994279	0.507245	-0.005987
1277	6.3800e-01	7.2354	18.849508	0.000291	2.908728	0.492752	-0.005816
1278	6.3850e-01	7.2278	18.828555	0.000210	2.095995	0.355071	-0.004191
1279	6.3900e-01	7.2174	18.799904	0.000287	2.865953	0.485506	-0.005730
1280	6.3950e-01	7.2052	18.767832	0.000321	3.208156	0.543476	-0.006414
1281	6.4000e-01	7.1979	18.737470	0.000304	3.037055	0.514491	-0.006072
1282	6.4050e-01	7.1875	18.716944	0.000205	2.053220	0.347825	-0.004105
1283	6.4100e-01	7.1802	18.687866	0.000291	2.908728	0.492752	-0.005816
1284	6.4150e-01	7.1661	18.660926	0.000269	2.694851	0.456520	-0.005388
1285	6.4200e-01	7.1552	18.635696	0.000252	2.523750	0.427535	-0.005046
1286	6.4250e-01	7.1484	18.602769	0.000329	3.293707	0.557969	-0.006585
1287	6.4300e-01	7.1362	18.574973	0.000278	2.780402	0.471013	-0.005559
1288	6.4350e-01	7.1271	18.545894	0.000291	2.908728	0.492752	-0.005816
1289	6.4400e-01	7.1173	18.521520	0.000244	2.438199	0.413042	-0.004875
1290	6.4450e-01	7.1094	18.482178	0.000394	3.935338	0.666664	-0.007868
1291	6.4500e-01	7.0947	18.465928	0.000163	1.625466	0.275361	-0.003250
1292	6.4550e-01	7.0886	18.434284	0.000317	3.165381	0.536230	-0.006329
1293	6.4600e-01	7.0734	18.410337	0.000240	2.395423	0.405796	-0.004789
1294	6.4650e-01	7.0674	18.379976	0.000304	3.037055	0.514491	-0.006072
1295	6.4700e-01	7.0569	18.350470	0.000295	2.951504	0.499998	-0.005901
1296	6.4750e-01	7.0456	18.324384	0.000261	2.609301	0.442027	-0.005217
1297	6.4800e-01	7.0337	18.297444	0.000269	2.694851	0.456520	-0.005388
1298	6.4850e-01	7.0245	18.259813	0.000376	3.764237	0.637679	-0.007526
1299	6.4900e-01	7.0151	18.235011	0.000248	2.480974	0.420288	-0.004960
1300	6.4950e-01	7.0074	18.206360	0.000287	2.865953	0.485506	-0.005730
1301	6.5000e-01	6.9983	18.178137	0.000282	2.823178	0.478259	-0.005645
1302	6.5050e-01	6.9843	18.142216	0.000359	3.593135	0.608694	-0.007184
1303	6.5100e-01	6.9788	18.114420	0.000278	2.780402	0.471013	-0.005559
1304	6.5150e-01	6.9673	18.091329	0.000231	2.309873	0.391303	-0.004618
1305	6.5200e-01	6.9568	18.063105	0.000282	2.823178	0.478259	-0.005645
1306	6.5250e-01	6.9473	18.029751	0.000334	3.336483	0.565215	-0.006671
1307	6.5300e-01	6.9330	17.998534	0.000312	3.122606	0.528984	-0.006243
1308	6.5350e-01	6.9263	17.968600	0.000299	2.994279	0.507245	-0.005987
1309	6.5400e-01	6.9141	17.947647	0.000210	2.095995	0.355071	-0.004191
1310	6.5450e-01	6.9080	17.913437	0.000342	3.422033	0.579708	-0.006842
1311	6.5500e-01	6.8994	17.887779	0.000257	2.566525	0.434781	-0.005132
1312	6.5550e-01	6.8878	17.855280	0.000325	3.250932	0.550723	-0.006500
1313	6.5600e-01	6.8768	17.827056	0.000282	2.823178	0.478259	-0.005645
1314	6.5650e-01	6.8695	17.795840	0.000312	3.122606	0.528984	-0.006243
1315	6.5700e-01	6.8585	17.768044	0.000278	2.780402	0.471013	-0.005559
1316	6.5750e-01	6.8469	17.738965	0.000291	2.908728	0.492752	-0.005816
1317	6.5800e-01	6.8347	17.706894	0.000321	3.208156	0.543476	-0.006414
1318	6.5850e-01	6.8317	17.678243	0.000287	2.865953	0.485506	-0.005730
1319	6.5900e-01	6.8161	17.645743	0.000325	3.250932	0.550723	-0.006500
1320	6.5950e-01	6.8066	17.614099	0.000317	3.165381	0.536230	-0.006329
1321	6.6000e-01	6.7969	17.583310	0.000308	3.079830	0.521737	-0.006158
1322	6.6050e-01	6.7877	17.553804	0.000295	2.951504	0.499998	-0.005901
1323	6.6100e-01	6.7770	17.519594	0.000342	3.422033	0.579708	-0.006842
1324	6.6150e-01	6.7651	17.491370	0.000282	2.823178	0.478259	-0.005645
1325	6.6200e-01	6.7572	17.459726	0.000317	3.165381	0.536230	-0.006329
1326	6.6250e-01	6.7459	17.429365	0.000304	3.037055	0.514491	-0.006072
1327	6.6300e-01	6.7404	17.397293	0.000321	3.208156	0.543476	-0.006414
1328	6.6350e-01	6.7261	17.361372	0.000359	3.593135	0.608694	-0.007184
1329	6.6400e-01	6.7203	17.324597	0.000368	3.678686	0.623186	-0.007355
1330	6.6450e-01	6.7062	17.289104	0.000355	3.550360	0.601447	-0.007099
1331	6.6500e-01	6.6943	17.260025	0.000291	2.908728	0.492752	-0.005816
1332	6.6550e-01	6.6865	17.236506	0.000235	2.352648	0.398549	-0.004704
1333	6.6600e-01	6.6776	17.204006	0.000325	3.250932	0.550723	-0.006500
1334	6.6650e-01	6.6669	17.167658	0.000364	3.635911	0.615940	-0.007270
1335	6.6700e-01	6.6559	17.135586	0.000321	3.208156	0.543476	-0.006414
1336	6.6750e-01	6.6449	17.104370	0.000312	3.122606	0.528984	-0.006243
1337	6.6800e-01	6.6394	17.084699	0.000197	1.967669	0.333332	-0.003934
1338	6.6850e-01	6.6278	17.047495	0.000372	3.721461	0.630433	-0.007441
1339	6.6900e-01	6.6174	17.012858	0.000346	3.464809	0.586955	-0.006928
1340	6.6950e-01	6.6064	16.981213	0.000317	3.165381	0.536230	-0.006329
1341	6.7000e-01	6.5961	16.949997	0.000312	3.122606	0.528984	-0.006243
1342	6.7050e-01	6.5875	16.918353	0.000317	3.165381	0.536230	-0.006329
1343	6.7100e-01	6.5790	16.881149	0.000372	3.721461	0.630433	-0.007441
1344	6.7150e-01	6.5689	16.850788	0.000304	3.037055	0.514491	-0.006072
1345	6.7200e-01	6.5579	16.819999	0.000308	3.079830	0.521737	-0.006158
1346	6.7250e-01	6.5475	16.793486	0.000265	2.652076	0.449274	-0.005303
1347	6.7300e-01	6.5356	16.756283	0.000372	3.721461	0.630433	-0.007441
1348	6.7350e-01	6.5253	16.722500	0.000338	3.379258	0.572462	-0.006756
1349	6.7400e-01	6.5173	16.678455	0.000441	4.405868	0.746374	-0.008809
1350	6.7450e-01	6.5063	16.663916	0.000145	1.454364	0.246376	-0.002908
1351	6.7500e-01	6.4990	16.630561	0.000334	3.336483	0.565215	-0.006671
1352	6.7550e-01	6.4880	16.602765	0.000278	2.780402	0.471013	-0.005559
1353	6.7600e-01	6.4771	16.574542	0.000282	2.823178	0.478259	-0.005645
1354	6.7650e-01	6.4661	16.533490	0.000411	4.106440	0.695650	-0.008210
1355	6.7700e-01	6.4557	16.502701	0.000308	3.079830	0.521737	-0.006158
1356	6.7750e-01	6.4478	16.473622	0.000291	2.908728	0.492752	-0.005816
1357	6.7800e-01	6.4349	16.439412	0.000342	3.422033	0.579708	-0.006842
1358	6.7850e-01	6.4270	16.405202	0.000342	3.422033	0.579708	-0.006842
1359	6.7900e-01	6.4178	16.376979	0.000282	2.823178	0.478259	-0.005645
1360	6.7950e-01	6.4075	16.338920	0.000381	3.807012	0.644925	-0.007612
1361	6.8000e-01	6.3977	16.311125	0.000278	2.780402	0.471013	-0.005559
1362	6.8050e-01	6.3892	16.273494	0.000376	3.764237	0.637679	-0.007526
1363	6.8100e-01	6.3776	16.241849	0.000317	3.165381	0.536230	-0.006329
1364	6.8150e-01	6.3657	16.211488	0.000304	3.037055	0.514491	-0.006072
1365	6.8200e-01	6.3574	16.178133	0.000334	3.336483	0.565215	-0.006671
1366	6.8250e-01	6.3440	16.142213	0.000359	3.593135	0.608694	-0.007184
1367	6.8300e-01	6.3358	16.110996	0.000312	3.122606	0.528984	-0.006243
1368	6.8350e-01	6.3257	16.078924	0.000321	3.208156	0.543476	-0.006414
1369	6.8400e-01	6.3177	16.044286	0.000346	3.464809	0.586955	-0.006928
1370	6.8450e-01	6.3049	16.013497	0.000308	3.079830	0.521737	-0.006158
1371	6.8500e-01	6.2965	15.977577	0.000359	3.593135	0.608694	-0.007184
1372	6.8550e-01	6.2860	15.944650	0.000329	3.293707	0.557969	-0.006585
1373	6.8600e-01	6.2750	15.914716	0.000299	2.994279	0.507245	-0.005987
1374	6.8650e-01	6.2656	15.881789	0.000329	3.293707	0.557969	-0.006585
1375	6.8700e-01	6.2573	15.849717	0.000321	3.208156	0.543476	-0.006414
1376	6.8750e-01	6.2482	15.815935	0.000338	3.379258	0.572462	-0.006756
1377	6.8800e-01	6.2354	15.782152	0.000338	3.379258	0.572462	-0.006756
1378	6.8850e-01	6.2286	15.748797	0.000334	3.336483	0.565215	-0.006671
1379	6.8900e-01	6.2173	15.716298	0.000325	3.250932	0.550723	-0.006500
1380	6.8950e-01	6.2048	15.681233	0.000351	3.507584	0.594201	-0.007013
1381	6.9000e-01	6.2006	15.647023	0.000342	3.422033	0.579708	-0.006842
1382	6.9050e-01	6.1874	15.614095	0.000329	3.293707	0.557969	-0.006585
1383	6.9100e-01	6.1743	15.584589	0.000295	2.951504	0.499998	-0.005901
1384	6.9150e-01	6.1670	15.555083	0.000295	2.951504	0.499998	-0.005901
1385	6.9200e-01	6.1581	15.516597	0.000385	3.849788	0.652172	-0.007697
1386	6.9250e-01	6.1487	15.480676	0.000359	3.593135	0.608694	-0.007184
1387	6.9300e-01	6.1337	15.451598	0.000291	2.908728	0.492752	-0.005816
1388	6.9350e-01	6.1269	15.417388	0.000342	3.422033	0.579708	-0.006842
1389	6.9400e-01	6.1179	15.383178	0.000342	3.422033	0.579708	-0.006842
1390	6.9450e-01	6.1060	15.347685	0.000355	3.550360	0.601447	-0.007099
1391	6.9500e-01	6.0962	15.313903	0.000338	3.379258	0.572462	-0.006756
1392	6.9550e-01	6.0852	15.286107	0.000278	2.780402	0.471013	-0.005559
1393	6.9600e-01	6.0770	15.247193	0.000389	3.892563	0.659418	-0.007783
1394	6.9650e-01	6.0669	15.218542	0.000287	2.865953	0.485506	-0.005730
1395	6.9700e-01	6.0529	15.187325	0.000312	3.122606	0.528984	-0.006243
1396	6.9750e-01	6.0458	15.157819	0.000295	2.951504	0.499998	-0.005901
1397	6.9800e-01	6.0352	15.122754	0.000351	3.507584	0.594201	-0.007013
1398	6.9850e-01	6.0284	15.091965	0.000308	3.079830	0.521737	-0.006158
1399	6.9900e-01	6.0181	15.058610	0.000334	3.336483	0.565215	-0.006671
1400	6.9950e-01	6.0071	15.027394	0.000312	3.122606	0.528984	-0.006243
1401	7.0000e-01	5.9962	14.991473	0.000359	3.593135	0.608694	-0.007184
1402	7.0050e-01	5.9872	14.961112	0.000304	3.037055	0.514491	-0.006072
1403	7.0100e-01	5.9782	14.925619	0.000355	3.550360	0.601447	-0.007099
1404	7.0150e-01	5.9650	14.894402	0.000312	3.122606	0.528984	-0.006243
1405	7.0200e-01	5.9546	14.858909	0.000355	3.550360	0.601447	-0.007099
1406	7.0250e-01	5.9491	14.825554	0.000334	3.336483	0.565215	-0.006671
1407	7.0300e-01	5.9378	14.792200	0.000334	3.336483	0.565215	-0.006671
1408	7.0350e-01	5.9259	14.765687	0.000265	2.652076	0.449274	-0.005303
1409	7.0400e-01	5.9174	14.731477	0.000342	3.422033	0.579708	-0.006842
1410	7.0450e-01	5.9061	14.690852	0.000406	4.063665	0.688403	-0.008125
1411	7.0500e-01	5.8978	14.649800	0.000411	4.106440	0.695650	-0.008210
1412	7.0550e-01	5.8871	14.621150	0.000287	2.865953	0.485506	-0.005730
1413	7.0600e-01	5.8798	14.589505	0.000317	3.165381	0.536230	-0.006329
1414	7.0650e-01	5.8646	14.552302	0.000372	3.721461	0.630433	-0.007441
1415	7.0700e-01	5.8575	14.510822	0.000415	4.149216	0.702896	-0.008296
1416	7.0750e-01	5.8463	14.478323	0.000325	3.250932	0.550723	-0.006500
1417	7.0800e-01	5.8347	14.446251	0.000321	3.208156	0.543476	-0.006414
1418	7.0850e-01	5.8246	14.409475	0.000368	3.678686	0.623186	-0.007355
1419	7.0900e-01	5.8161	14.379114	0.000304	3.037055	0.514491	-0.006072
1420	7.0950e-01	5.8051	14.344048	0.000351	3.507584	0.594201	-0.007013
1421	7.1000e-01	5.7974	14.308556	0.000355	3.550360	0.601447	-0.007099
1422	7.1050e-01	5.7870	14.279905	0.000287	2.865953	0.485506	-0.005730
1423	7.1100e-01	5.7770	14.242701	0.000372	3.721461	0.630433	-0.007441
1424	7.1150e-01	5.7661	14.206353	0.000364	3.635911	0.615940	-0.007270
1425	7.1200e-01	5.7568	14.174709	0.000317	3.165381	0.536230	-0.006329
1426	7.1250e-01	5.7480	14.140926	0.000338	3.379258	0.572462	-0.006756
1427	7.1300e-01	5.7382	14.105433	0.000355	3.550360	0.601447	-0.007099
1428	7.1350e-01	5.7251	14.075072	0.000304	3.037055	0.514491	-0.006072
1429	7.1400e-01	5.7184	14.039579	0.000355	3.550360	0.601447	-0.007099
1430	7.1450e-01	5.7076	14.006224	0.000334	3.336483	0.565215	-0.006671
1431	7.1500e-01	5.6946	13.969021	0.000372	3.721461	0.630433	-0.007441
1432	7.1550e-01	5.6866	13.934383	0.000346	3.464809	0.586955	-0.006928
1433	7.1600e-01	5.6763	13.902739	0.000317	3.165381	0.536230	-0.006329
1434	7.1650e-01	5.6665	13.869384	0.000334	3.336483	0.565215	-0.006671
1435	7.1700e-01	5.6561	13.832181	0.000372	3.721461	0.630433	-0.007441
1436	7.1750e-01	5.6494	13.798399	0.000338	3.379258	0.572462	-0.006756
1437	7.1800e-01	5.6354	13.760340	0.000381	3.807012	0.644925	-0.007612
1438	7.1850e-01	5.6265	13.731689	0.000287	2.865953	0.485506	-0.005730
1439	7.1900e-01	5.6146	13.697479	0.000342	3.422033	0.579708	-0.006842
1440	7.1950e-01	5.6049	13.656855	0.000406	4.063665	0.688403	-0.008125
1441	7.2000e-01	5.5966	13.623927	0.000329	3.293707	0.557969	-0.006585
1442	7.2050e-01	5.5884	13.591428	0.000325	3.250932	0.550723	-0.006500
1443	7.2100e-01	5.5763	13.551659	0.000398	3.978114	0.673911	-0.007954
1444	7.2150e-01	5.5652	13.516593	0.000351	3.507584	0.594201	-0.007013
1445	7.2200e-01	5.5582	13.475969	0.000406	4.063665	0.688403	-0.008125
1446	7.2250e-01	5.5469	13.443470	0.000325	3.250932	0.550723	-0.006500
1447	7.2300e-01	5.5365	13.409260	0.000342	3.422033	0.579708	-0.006842
1448	7.2350e-01	5.5255	13.367780	0.000415	4.149216	0.702896	-0.008296
1449	7.2400e-01	5.5142	13.336563	0.000312	3.122606	0.528984	-0.006243
1450	7.2450e-01	5.5031	13.296794	0.000398	3.978114	0.673911	-0.007954
1451	7.2500e-01	5.4987	13.260446	0.000364	3.635911	0.615940	-0.007270
1452	7.2550e-01	5.4858	13.227091	0.000334	3.336483	0.565215	-0.006671
1453	7.2600e-01	5.4745	13.193309	0.000338	3.379258	0.572462	-0.006756
1454	7.2650e-01	5.4669	13.153540	0.000398	3.978114	0.673911	-0.007954
1455	7.2700e-01	5.4576	13.120612	0.000329	3.293707	0.557969	-0.006585
1456	7.2750e-01	5.4468	13.083837	0.000368	3.678686	0.623186	-0.007355
1457	7.2800e-01	5.4367	13.049199	0.000346	3.464809	0.586955	-0.006928
1458	7.2850e-01	5.4276	13.010713	0.000385	3.849788	0.652172	-0.007697
1459	7.2900e-01	5.4156	12.977786	0.000329	3.293707	0.557969	-0.006585
1460	7.2950e-01	5.4059	12.937589	0.000402	4.020889	0.681157	-0.008039
1461	7.3000e-01	5.3975	12.900385	0.000372	3.721461	0.630433	-0.007441
1462	7.3050e-01	5.3885	12.862754	0.000376	3.764237	0.637679	-0.007526
1463	7.3100e-01	5.3766	12.834104	0.000287	2.865953	0.485506	-0.005730
1464	7.3150e-01	5.3658	12.793479	0.000406	4.063665	0.688403	-0.008125
1465	7.3200e-01	5.3564	12.764828	0.000287	2.865953	0.485506	-0.005730
1466	7.3250e-01	5.3467	12.727625	0.000372	3.721461	0.630433	-0.007441
1467	7.3300e-01	5.3357	12.709665	0.000180	1.796568	0.304347	-0.003592
1468	7.3350e-01	5.3287	12.662626	0.000471	4.705296	0.797099	-0.009408
1469	7.3400e-01	5.3180	12.624140	0.000385	3.849788	0.652172	-0.007697
1470	7.3450e-01	5.3052	12.587364	0.000368	3.678686	0.623186	-0.007355
1471	7.3500e-01	5.3006	12.554009	0.000334	3.336483	0.565215	-0.006671
1472	7.3550e-01	5.2856	12.510391	0.000436	4.363093	0.739128	-0.008724
1473	7.3600e-01	5.2768	12.479602	0.000308	3.079830	0.521737	-0.006158
1474	7.3650e-01	5.2676	12.438978	0.000406	4.063665	0.688403	-0.008125
1475	7.3700e-01	5.2539	12.399636	0.000394	3.935338	0.666664	-0.007868
1476	7.3750e-01	5.2460	12.367137	0.000325	3.250932	0.550723	-0.006500
1477	7.3800e-01	5.2405	12.332499	0.000346	3.464809	0.586955	-0.006928
1478	7.3850e-01	5.2277	12.294868	0.000376	3.764237	0.637679	-0.007526
1479	7.3900e-01	5.2155	12.265362	0.000295	2.951504	0.499998	-0.005901
1480	7.3950e-01	5.2090	12.228586	0.000368	3.678686	0.623186	-0.007355
1481	7.4000e-01	5.1962	12.192238	0.000364	3.635911	0.615940	-0.007270
1482	7.4050e-01	5.1846	12.155890	0.000364	3.635911	0.615940	-0.007270
1483	7.4100e-01	5.1752	12.117831	0.000381	3.807012	0.644925	-0.007612
1484	7.4150e-01	5.1666	12.078062	0.000398	3.978114	0.673911	-0.007954
1485	7.4200e-01	5.1575	12.043852	0.000342	3.422033	0.579708	-0.006842
1486	7.4250e-01	5.1465	12.010497	0.000334	3.336483	0.565215	-0.006671
1487	7.4300e-01	5.1361	11.977143	0.000334	3.336483	0.565215	-0.006671
1488	7.4350e-01	5.1262	11.936090	0.000411	4.106440	0.695650	-0.008210
1489	7.4400e-01	5.1196	11.901453	0.000346	3.464809	0.586955	-0.006928
1490	7.4450e-01	5.1086	11.867670	0.000338	3.379258	0.572462	-0.006756
1491	7.4500e-01	5.0984	11.824908	0.000428	4.277542	0.724635	-0.008553
1492	7.4550e-01	5.0854	11.791553	0.000334	3.336483	0.565215	-0.006671
1493	7.4600e-01	5.0775	11.754777	0.000368	3.678686	0.623186	-0.007355
1494	7.4650e-01	5.0665	11.717574	0.000372	3.721461	0.630433	-0.007441
1495	7.4700e-01	5.0574	11.683792	0.000338	3.379258	0.572462	-0.006756
1496	7.4750e-01	5.0488	11.649582	0.000342	3.422033	0.579708	-0.006842
1497	7.4800e-01	5.0320	11.610668	0.000389	3.892563	0.659418	-0.007783
1498	7.4850e-01	5.0290	11.578596	0.000321	3.208156	0.543476	-0.006414
1499	7.4900e-01	5.0168	11.531129	0.000475	4.748071	0.804345	-0.009493
1500	7.4950e-01	5.0073	11.489222	0.000419	4.191991	0.710142	-0.008381
1501	7.5000e-01	4.9963	11.454584	0.000346	3.464809	0.586955	-0.006928
1502	7.5050e-01	4.9831	11.418236	0.000364	3.635911	0.615940	-0.007270
1503	7.5100e-01	4.9779	11.381460	0.000368	3.678686	0.623186	-0.007355
1504	7.5150e-01	4.9634	11.347678	0.000338	3.379258	0.572462	-0.006756
1505	7.5200e-01	4.9584	11.313040	0.000346	3.464809	0.586955	-0.006928
1506	7.5250e-01	4.9445	11.274127	0.000389	3.892563	0.659418	-0.007783
1507	7.5300e-01	4.9353	11.236923	0.000372	3.721461	0.630433	-0.007441
1508	7.5350e-01	4.9319	11.203141	0.000338	3.379258	0.572462	-0.006756
1509	7.5400e-01	4.9158	11.165937	0.000372	3.721461	0.630433	-0.007441
1510	7.5450e-01	4.9075	11.127451	0.000385	3.849788	0.652172	-0.007697
1511	7.5500e-01	4.8938	11.095807	0.000317	3.165381	0.536230	-0.006329
1512	7.5550e-01	4.8871	11.055610	0.000402	4.020889	0.681157	-0.008039
1513	7.5600e-01	4.8755	11.021400	0.000342	3.422033	0.579708	-0.006842
1514	7.5650e-01	4.8657	10.980348	0.000411	4.106440	0.695650	-0.008210
1515	7.5700e-01	4.8590	10.945283	0.000351	3.507584	0.594201	-0.007013
1516	7.5750e-01	4.8480	10.911073	0.000342	3.422033	0.579708	-0.006842
1517	7.5800e-01	4.8383	10.868738	0.000423	4.234766	0.717389	-0.008467
1518	7.5850e-01	4.8254	10.834100	0.000346	3.464809	0.586955	-0.006928
1519	7.5900e-01	4.8169	10.799035	0.000351	3.507584	0.594201	-0.007013
1520	7.5950e-01	4.8080	10.768673	0.000304	3.037055	0.514491	-0.006072
1521	7.6000e-01	4.7949	10.728049	0.000406	4.063665	0.688403	-0.008125
1522	7.6050e-01	4.7865	10.693411	0.000346	3.464809	0.586955	-0.006928
1523	7.6100e-01	4.7757	10.653642	0.000398	3.978114	0.673911	-0.007954
1524	7.6150e-01	4.7699	10.620715	0.000329	3.293707	0.557969	-0.006585
1525	7.6200e-01	4.7577	10.585222	0.000355	3.550360	0.601447	-0.007099
1526	7.6250e-01	4.7461	10.534762	0.000505	5.047499	0.855070	-0.010092
1527	7.6300e-01	4.7357	10.515092	0.000197	1.967669	0.333332	-0.003934
1528	7.6350e-01	4.7266	10.473184	0.000419	4.191991	0.710142	-0.008381
1529	7.6400e-01	4.7186	10.441113	0.000321	3.208156	0.543476	-0.006414
1530	7.6450e-01	4.7083	10.402626	0.000385	3.849788	0.652172	-0.007697
1531	7.6500e-01	4.6960	10.366706	0.000359	3.593135	0.608694	-0.007184
1532	7.6550e-01	4.6875	10.325226	0.000415	4.149216	0.702896	-0.008296
1533	7.6600e-01	4.6793	10.291871	0.000334	3.336483	0.565215	-0.006671
1534	7.6650e-01	4.6671	10.252102	0.000398	3.978114	0.673911	-0.007954
1535	7.6700e-01	4.6558	10.215326	0.000368	3.678686	0.623186	-0.007355
1536	7.6750e-01	4.6472	10.179406	0.000359	3.593135	0.608694	-0.007184
1537	7.6800e-01	4.6384	10.137926	0.000415	4.149216	0.702896	-0.008296
1538	7.6850e-01	4.6259	10.107565	0.000304	3.037055	0.514491	-0.006072
1539	7.6900e-01	4.6164	10.069079	0.000385	3.849788	0.652172	-0.007697
1540	7.6950e-01	4.6066	10.031448	0.000376	3.764237	0.637679	-0.007526
1541	7.7000e-01	4.5963	9.990823	0.000406	4.063665	0.688403	-0.008125
1542	7.7050e-01	4.5863	9.954475	0.000364	3.635911	0.615940	-0.007270
1543	7.7100e-01	4.5752	9.920693	0.000338	3.379258	0.572462	-0.006756
1544	7.7150e-01	4.5679	9.882206	0.000385	3.849788	0.652172	-0.007697
1545	7.7200e-01	4.5551	9.841582	0.000406	4.063665	0.688403	-0.008125
1546	7.7250e-01	4.5457	9.806517	0.000351	3.507584	0.594201	-0.007013
1547	7.7300e-01	4.5319	9.769741	0.000368	3.678686	0.623186	-0.007355
1548	7.7350e-01	4.5251	9.729116	0.000406	4.063665	0.688403	-0.008125
1549	7.7400e-01	4.5160	9.696189	0.000329	3.293707	0.557969	-0.006585
1550	7.7450e-01	4.5062	9.655137	0.000411	4.106440	0.695650	-0.008210
1551	7.7500e-01	4.4963	9.617079	0.000381	3.807012	0.644925	-0.007612
1552	7.7550e-01	4.4855	9.580730	0.000364	3.635911	0.615940	-0.007270
1553	7.7600e-01	4.4783	9.543099	0.000376	3.764237	0.637679	-0.007526
1554	7.7650e-01	4.4698	9.504613	0.000385	3.849788	0.652172	-0.007697
1555	7.7700e-01	4.4550	9.470403	0.000342	3.422033	0.579708	-0.006842
1556	7.7750e-01	4.4482	9.429351	0.000411	4.106440	0.695650	-0.008210
1557	7.7800e-01	4.4354	9.388727	0.000406	4.063665	0.688403	-0.008125
1558	7.7850e-01	4.4260	9.348530	0.000402	4.020889	0.681157	-0.008039
1559	7.7900e-01	4.4167	9.312182	0.000364	3.635911	0.615940	-0.007270
1560	7.7950e-01	4.4055	9.280538	0.000317	3.165381	0.536230	-0.006329
1561	7.8000e-01	4.3967	9.244617	0.000359	3.593135	0.608694	-0.007184
1562	7.8050e-01	4.3878	9.208696	0.000359	3.593135	0.608694	-0.007184
1563	7.8100e-01	4.3762	9.163796	0.000449	4.491419	0.760867	-0.008980
1564	7.8150e-01	4.3665	9.136000	0.000278	2.780402	0.471013	-0.005559
1565	7.8200e-01	4.3552	9.099224	0.000368	3.678686	0.623186	-0.007355
1566	7.8250e-01	4.3451	9.060311	0.000389	3.892563	0.659418	-0.007783
1567	7.8300e-01	4.3378	9.021824	0.000385	3.849788	0.652172	-0.007697
1568	7.8350e-01	4.3280	8.988469	0.000334	3.336483	0.565215	-0.006671
1569	7.8400e-01	4.3176	8.949556	0.000389	3.892563	0.659418	-0.007783
1570	7.8450e-01	4.3073	8.911497	0.000381	3.807012	0.644925	-0.007612
1571	7.8500e-01	4.2972	8.876859	0.000346	3.464809	0.586955	-0.006928
1572	7.8550e-01	4.2877	8.840083	0.000368	3.678686	0.623186	-0.007355
1573	7.8600e-01	4.2767	8.803308	0.000368	3.678686	0.623186	-0.007355
1574	7.8650e-01	4.2670	8.767815	0.000355	3.550360	0.601447	-0.007099
1575	7.8700e-01	4.2584	8.728901	0.000389	3.892563	0.659418	-0.007783
1576	7.8750e-01	4.2470	8.692125	0.000368	3.678686	0.623186	-0.007355
1577	7.8800e-01	4.2380	8.656632	0.000355	3.550360	0.601447	-0.007099
1578	7.8850e-01	4.2239	8.615580	0.000411	4.106440	0.695650	-0.008210
1579	7.8900e-01	4.2163	8.578804	0.000368	3.678686	0.623186	-0.007355
1580	7.8950e-01	4.2062	8.542029	0.000368	3.678686	0.623186	-0.007355
1581	7.9000e-01	4.1980	8.504825	0.000372	3.721461	0.630433	-0.007441
1582	7.9050e-01	4.1882	8.466767	0.000381	3.807012	0.644925	-0.007612
1583	7.9100e-01	4.1754	8.429563	0.000372	3.721461	0.630433	-0.007441
1584	7.9150e-01	4.1689	8.395353	0.000342	3.422033	0.579708	-0.006842
1585	7.9200e-01	4.1589	8.350453	0.000449	4.491419	0.760867	-0.008980
1586	7.9250e-01	4.1438	8.313677	0.000368	3.678686	0.623186	-0.007355
1587	7.9300e-01	4.1376	8.282033	0.000317	3.165381	0.536230	-0.006329
1588	7.9350e-01	4.1258	8.237132	0.000449	4.491419	0.760867	-0.008980
1589	7.9400e-01	4.1145	8.204205	0.000329	3.293707	0.557969	-0.006585
1590	7.9450e-01	4.1035	8.161442	0.000428	4.277542	0.724635	-0.008553
1591	7.9500e-01	4.0973	8.132364	0.000291	2.908728	0.492752	-0.005816
1592	7.9550e-01	4.0839	8.078055	0.000543	5.432478	0.920287	-0.010862
1593	7.9600e-01	4.0730	8.049832	0.000282	2.823178	0.478259	-0.005645
1594	7.9650e-01	4.0668	8.006642	0.000432	4.320317	0.731882	-0.008638
1595	7.9700e-01	4.0570	7.972859	0.000338	3.379258	0.572462	-0.006756
1596	7.9750e-01	4.0468	7.930525	0.000423	4.234766	0.717389	-0.008467
1597	7.9800e-01	4.0393	7.897170	0.000334	3.336483	0.565215	-0.006671
1598	7.9850e-01	4.0298	7.858683	0.000385	3.849788	0.652172	-0.007697
1599	7.9900e-01	4.0158	7.825756	0.000329	3.293707	0.557969	-0.006585
1600	7.9950e-01	4.0077	7.782994	0.000428	4.277542	0.724635	-0.008553
1601	8.0000e-01	3.9960	7.740659	0.000423	4.234766	0.717389	-0.008467
1602	8.0050e-01	3.9856	7.707304	0.000334	3.336483	0.565215	-0.006671
1603	8.0100e-01	3.9734	7.668818	0.000385	3.849788	0.652172	-0.007697
1604	8.0150e-01	3.9673	7.627766	0.000411	4.106440	0.695650	-0.008210
1605	8.0200e-01	3.9542	7.592701	0.000351	3.507584	0.594201	-0.007013
1606	8.0250e-01	3.9468	7.548655	0.000441	4.405868	0.746374	-0.008809
1607	8.0300e-01	3.9320	7.517011	0.000317	3.165381	0.536230	-0.006329
1608	8.0350e-01	3.9282	7.473393	0.000436	4.363093	0.739128	-0.008724
1609	8.0400e-01	3.9172	7.441749	0.000317	3.165381	0.536230	-0.006329
1610	8.0450e-01	3.9044	7.393855	0.000479	4.790847	0.811591	-0.009579
1611	8.0500e-01	3.8928	7.351092	0.000428	4.277542	0.724635	-0.008553
1612	8.0550e-01	3.8885	7.309185	0.000419	4.191991	0.710142	-0.008381
1613	8.0600e-01	3.8760	7.273692	0.000355	3.550360	0.601447	-0.007099
1614	8.0650e-01	3.8696	7.234778	0.000389	3.892563	0.659418	-0.007783
1615	8.0700e-01	3.8547	7.198430	0.000364	3.635911	0.615940	-0.007270
1616	8.0750e-01	3.8458	7.158661	0.000398	3.978114	0.673911	-0.007954
1617	8.0800e-01	3.8354	7.121030	0.000376	3.764237	0.637679	-0.007526
1618	8.0850e-01	3.8283	7.078695	0.000423	4.234766	0.717389	-0.008467
1619	8.0900e-01	3.8166	7.043202	0.000355	3.550360	0.601447	-0.007099
1620	8.0950e-01	3.8051	7.002150	0.000411	4.106440	0.695650	-0.008210
1621	8.1000e-01	3.7961	6.964947	0.000372	3.721461	0.630433	-0.007441
1622	8.1050e-01	3.7848	6.931164	0.000338	3.379258	0.572462	-0.006756
1623	8.1100e-01	3.7766	6.887119	0.000441	4.405868	0.746374	-0.008809
1624	8.1150e-01	3.7662	6.846922	0.000402	4.020889	0.681157	-0.008039
1625	8.1200e-01	3.7582	6.804587	0.000423	4.234766	0.717389	-0.008467
1626	8.1250e-01	3.7445	6.769522	0.000351	3.507584	0.594201	-0.007013
1627	8.1300e-01	3.7381	6.734884	0.000346	3.464809	0.586955	-0.006928
1628	8.1350e-01	3.7262	6.690411	0.000445	4.448644	0.753621	-0.008895
1629	8.1400e-01	3.7157	6.656629	0.000338	3.379258	0.572462	-0.006756
1630	8.1450e-01	3.7057	6.611301	0.000453	4.534194	0.768113	-0.009066
1631	8.1500e-01	3.7006	6.567683	0.000436	4.363093	0.739128	-0.008724
1632	8.1550e-01	3.6833	6.536039	0.000317	3.165381	0.536230	-0.006329
1633	8.1600e-01	3.6776	6.495414	0.000406	4.063665	0.688403	-0.008125
1634	8.1650e-01	3.6642	6.450513	0.000449	4.491419	0.760867	-0.008980
1635	8.1700e-01	3.6576	6.415021	0.000355	3.550360	0.601447	-0.007099
1636	8.1750e-01	3.6469	6.371403	0.000436	4.363093	0.739128	-0.008724
1637	8.1800e-01	3.6359	6.333772	0.000376	3.764237	0.637679	-0.007526
1638	8.1850e-01	3.6270	6.297424	0.000364	3.635911	0.615940	-0.007270
1639	8.1900e-01	3.6177	6.255944	0.000415	4.149216	0.702896	-0.008296
1640	8.1950e-01	3.6070	6.214037	0.000419	4.191991	0.710142	-0.008381
1641	8.2000e-01	3.5962	6.174695	0.000394	3.935338	0.666664	-0.007868
1642	8.2050e-01	3.5870	6.135354	0.000394	3.935338	0.666664	-0.007868
1643	8.2100e-01	3.5779	6.095584	0.000398	3.978114	0.673911	-0.007954
1644	8.2150e-01	3.5666	6.053250	0.000423	4.234766	0.717389	-0.008467
1645	8.2200e-01	3.5541	6.020322	0.000329	3.293707	0.557969	-0.006585
1646	8.2250e-01	3.5458	5.974139	0.000462	4.619745	0.782606	-0.009237
1647	8.2300e-01	3.5383	5.940784	0.000334	3.336483	0.565215	-0.006671
1648	8.2350e-01	3.5287	5.897166	0.000436	4.363093	0.739128	-0.008724
1649	8.2400e-01	3.5144	5.852266	0.000449	4.491419	0.760867	-0.008980
1650	8.2450e-01	3.5066	5.812497	0.000398	3.978114	0.673911	-0.007954
1651	8.2500e-01	3.4956	5.770162	0.000423	4.234766	0.717389	-0.008467
1652	8.2550e-01	3.4863	5.734241	0.000359	3.593135	0.608694	-0.007184
1653	8.2600e-01	3.4772	5.694900	0.000394	3.935338	0.666664	-0.007868
1654	8.2650e-01	3.4674	5.651282	0.000436	4.363093	0.739128	-0.008724
1655	8.2700e-01	3.4571	5.611513	0.000398	3.978114	0.673911	-0.007954
1656	8.2750e-01	3.4468	5.572171	0.000394	3.935338	0.666664	-0.007868
1657	8.2800e-01	3.4357	5.529409	0.000428	4.277542	0.724635	-0.008553
1658	8.2850e-01	3.4268	5.486646	0.000428	4.277542	0.724635	-0.008553
1659	8.2900e-01	3.4171	5.443456	0.000432	4.320317	0.731882	-0.008638
1660	8.2950e-01	3.4048	5.409674	0.000338	3.379258	0.572462	-0.006756
1661	8.3000e-01	3.3968	5.367766	0.000419	4.191991	0.710142	-0.008381
1662	8.3050e-01	3.3844	5.327997	0.000398	3.978114	0.673911	-0.007954
1663	8.3100e-01	3.3748	5.283952	0.000441	4.405868	0.746374	-0.008809
1664	8.3150e-01	3.3661	5.248031	0.000359	3.593135	0.608694	-0.007184
1665	8.3200e-01	3.3565	5.206979	0.000411	4.106440	0.695650	-0.008210
1666	8.3250e-01	3.3478	5.165500	0.000415	4.149216	0.702896	-0.008296
1667	8.3300e-01	3.3369	5.120171	0.000453	4.534194	0.768113	-0.009066
1668	8.3350e-01	3.3276	5.081257	0.000389	3.892563	0.659418	-0.007783
1669	8.3400e-01	3.3165	5.035929	0.000453	4.534194	0.768113	-0.009066
1670	8.3450e-01	3.3044	4.994022	0.000419	4.191991	0.710142	-0.008381
1671	8.3500e-01	3.2939	4.949121	0.000449	4.491419	0.760867	-0.008980
1672	8.3550e-01	3.2863	4.910207	0.000389	3.892563	0.659418	-0.007783
1673	8.3600e-01	3.2767	4.871721	0.000385	3.849788	0.652172	-0.007697
1674	8.3650e-01	3.2651	4.835373	0.000364	3.635911	0.615940	-0.007270
1675	8.3700e-01	3.2547	4.787479	0.000479	4.790847	0.811591	-0.009579
1676	8.3750e-01	3.2452	4.752841	0.000346	3.464809	0.586955	-0.006928
1677	8.3800e-01	3.2379	4.712644	0.000402	4.020889	0.681157	-0.008039
1678	8.3850e-01	3.2257	4.668599	0.000441	4.405868	0.746374	-0.008809
1679	8.3900e-01	3.2199	4.631823	0.000368	3.678686	0.623186	-0.007355
1680	8.3950e-01	3.2047	4.591626	0.000402	4.020889	0.681157	-0.008039
1681	8.4000e-01	3.1964	4.550147	0.000415	4.149216	0.702896	-0.008296
1682	8.4050e-01	3.1855	4.511233	0.000389	3.892563	0.659418	-0.007783
1683	8.4100e-01	3.1764	4.465049	0.000462	4.619745	0.782606	-0.009237
1684	8.4150e-01	3.1665	4.420149	0.000449	4.491419	0.760867	-0.008980
1685	8.4200e-01	3.1567	4.386366	0.000338	3.379258	0.572462	-0.006756
1686	8.4250e-01	3.1477	4.339327	0.000471	4.705296	0.797099	-0.009408
1687	8.4300e-01	3.1364	4.297848	0.000415	4.149216	0.702896	-0.008296
1688	8.4350e-01	3.1274	4.258079	0.000398	3.978114	0.673911	-0.007954
1689	8.4400e-01	3.1180	4.217454	0.000406	4.063665	0.688403	-0.008125
1690	8.4450e-01	3.1049	4.174692	0.000428	4.277542	0.724635	-0.008553
1691	8.4500e-01	3.0957	4.132357	0.000423	4.234766	0.717389	-0.008467
1692	8.4550e-01	3.0861	4.084463	0.000479	4.790847	0.811591	-0.009579
1693	8.4600e-01	3.0798	4.043411	0.000411	4.106440	0.695650	-0.008210
1694	8.4650e-01	3.0685	3.999365	0.000441	4.405868	0.746374	-0.008809
1695	8.4700e-01	3.0568	3.961307	0.000381	3.807012	0.644925	-0.007612
1696	8.4750e-01	3.0478	3.916406	0.000449	4.491419	0.760867	-0.008980
1697	8.4800e-01	3.0402	3.869367	0.000471	4.705296	0.797099	-0.009408
1698	8.4850e-01	3.0270	3.827888	0.000415	4.149216	0.702896	-0.008296
1699	8.4900e-01	3.0164	3.790684	0.000372	3.721461	0.630433	-0.007441
1700	8.4950e-01	3.0033	3.749205	0.000415	4.149216	0.702896	-0.008296
1701	8.5000e-01	2.9956	3.702593	0.000466	4.662521	0.789852	-0.009322
1702	8.5050e-01	2.9878	3.667101	0.000355	3.550360	0.601447	-0.007099
1703	8.5100e-01	2.9800	3.627331	0.000398	3.978114	0.673911	-0.007954
1704	8.5150e-01	2.9654	3.570885	0.000565	5.646355	0.956518	-0.011289
1705	8.5200e-01	2.9597	3.528978	0.000419	4.191991	0.710142	-0.008381
1706	8.5250e-01	2.9481	3.488353	0.000406	4.063665	0.688403	-0.008125
1707	8.5300e-01	2.9396	3.444308	0.000441	4.405868	0.746374	-0.008809
1708	8.5350e-01	2.9276	3.398124	0.000462	4.619745	0.782606	-0.009237
1709	8.5400e-01	2.9126	3.359210	0.000389	3.892563	0.659418	-0.007783
1710	8.5450e-01	2.9063	3.311744	0.000475	4.748071	0.804345	-0.009493
1711	8.5500e-01	2.9001	3.270264	0.000415	4.149216	0.702896	-0.008296
1712	8.5550e-01	2.8854	3.233489	0.000368	3.678686	0.623186	-0.007355
1713	8.5600e-01	2.8766	3.185594	0.000479	4.790847	0.811591	-0.009579
1714	8.5650e-01	2.8664	3.146681	0.000389	3.892563	0.659418	-0.007783
1715	8.5700e-01	2.8568	3.101780	0.000449	4.491419	0.760867	-0.008980
1716	8.5750e-01	2.8458	3.067570	0.000342	3.422033	0.579708	-0.006842
1717	8.5800e-01	2.8363	3.021386	0.000462	4.619745	0.782606	-0.009237
1718	8.5850e-01	2.8275	2.986749	0.000346	3.464809	0.586955	-0.006928
1719	8.5900e-01	2.8162	2.931157	0.000556	5.560804	0.942026	-0.011118
1720	8.5950e-01	2.8064	2.890105	0.000411	4.106440	0.695650	-0.008210
1721	8.6000e-01	2.7960	2.849909	0.000402	4.020889	0.681157	-0.008039
1722	8.6050e-01	2.7838	2.809712	0.000402	4.020889	0.681157	-0.008039
1723	8.6100e-01	2.7748	2.763956	0.000458	4.576970	0.775360	-0.009151
1724	8.6150e-01	2.7649	2.723759	0.000402	4.020889	0.681157	-0.008039
1725	8.6200e-01	2.7576	2.674582	0.000492	4.919173	0.833330	-0.009835
1726	8.6250e-01	2.7454	2.623695	0.000509	5.090275	0.862316	-0.010177
1727	8.6300e-01	2.7381	2.584781	0.000389	3.892563	0.659418	-0.007783
1728	8.6350e-01	2.7265	2.538170	0.000466	4.662521	0.789852	-0.009322
1729	8.6400e-01	2.7149	2.496263	0.000419	4.191991	0.710142	-0.008381
1730	8.6450e-01	2.7082	2.453500	0.000428	4.277542	0.724635	-0.008553
1731	8.6500e-01	2.6984	2.405606	0.000479	4.790847	0.811591	-0.009579
1732	8.6550e-01	2.6819	2.362843	0.000428	4.277542	0.724635	-0.008553
1733	8.6600e-01	2.6777	2.319653	0.000432	4.320317	0.731882	-0.008638
1734	8.6650e-01	2.6674	2.271332	0.000483	4.833622	0.818838	-0.009664
1735	8.6700e-01	2.6591	2.226431	0.000449	4.491419	0.760867	-0.008980
1736	8.6750e-01	2.6440	2.190510	0.000359	3.593135	0.608694	-0.007184
1737	8.6800e-01	2.6361	2.145610	0.000449	4.491419	0.760867	-0.008980
1738	8.6850e-01	2.6291	2.099854	0.000458	4.576970	0.775360	-0.009151
1739	8.6900e-01	2.6178	2.061368	0.000385	3.849788	0.652172	-0.007697
1740	8.6950e-01	2.6053	2.016467	0.000449	4.491419	0.760867	-0.008980
1741	8.7000e-01	2.5964	1.969856	0.000466	4.662521	0.789852	-0.009322
1742	8.7050e-01	2.5850	1.930514	0.000394	3.935338	0.666664	-0.007868
1743	8.7100e-01	2.5778	1.888179	0.000423	4.234766	0.717389	-0.008467
1744	8.7150e-01	2.5662	1.843706	0.000445	4.448644	0.753621	-0.008895
1745	8.7200e-01	2.5563	1.796668	0.000471	4.705296	0.797099	-0.009408
1746	8.7250e-01	2.5452	1.756471	0.000402	4.020889	0.681157	-0.008039
1747	8.7300e-01	2.5386	1.717129	0.000394	3.935338	0.666664	-0.007868
1748	8.7350e-01	2.5269	1.667097	0.000500	5.004724	0.847823	-0.010006
1749	8.7400e-01	2.5159	1.626045	0.000411	4.106440	0.695650	-0.008210
1750	8.7450e-01	2.5067	1.579862	0.000462	4.619745	0.782606	-0.009237
1751	8.7500e-01	2.4953	1.537527	0.000423	4.234766	0.717389	-0.008467
1752	8.7550e-01	2.4866	1.498185	0.000394	3.935338	0.666664	-0.007868
1753	8.7600e-01	2.4783	1.449008	0.000492	4.919173	0.833330	-0.009835
1754	8.7650e-01	2.4677	1.402397	0.000466	4.662521	0.789852	-0.009322
1755	8.7700e-01	2.4587	1.358352	0.000441	4.405868	0.746374	-0.008809
1756	8.7750e-01	2.4451	1.316872	0.000415	4.149216	0.702896	-0.008296
1757	8.7800e-01	2.4362	1.271544	0.000453	4.534194	0.768113	-0.009066
1758	8.7850e-01	2.4274	1.228354	0.000432	4.320317	0.731882	-0.008638
1759	8.7900e-01	2.4181	1.179177	0.000492	4.919173	0.833330	-0.009835
1760	8.7950e-01	2.4049	1.134276	0.000449	4.491419	0.760867	-0.008980
1761	8.8000e-01	2.3960	1.096645	0.000376	3.764237	0.637679	-0.007526
1762	8.8050e-01	2.3853	1.048323	0.000483	4.833622	0.818838	-0.009664
1763	8.8100e-01	2.3771	1.000429	0.000479	4.790847	0.811591	-0.009579
1764	8.8150e-01	2.3651	0.955101	0.000453	4.534194	0.768113	-0.009066
1765	8.8200e-01	2.3586	0.910200	0.000449	4.491419	0.760867	-0.008980
1766	8.8250e-01	2.3466	0.867865	0.000423	4.234766	0.717389	-0.008467
1767	8.8300e-01	2.3355	0.819116	0.000488	4.876398	0.826084	-0.009750
1768	8.8350e-01	2.3264	0.779347	0.000398	3.978114	0.673911	-0.007954
1769	8.8400e-01	2.3191	0.736585	0.000428	4.277542	0.724635	-0.008553
1770	8.8450e-01	2.3059	0.686125	0.000505	5.047499	0.855070	-0.010092
1771	8.8500e-01	2.2961	0.641224	0.000449	4.491419	0.760867	-0.008980
1772	8.8550e-01	2.2849	0.596323	0.000449	4.491419	0.760867	-0.008980
1773	8.8600e-01	2.2754	0.554844	0.000415	4.149216	0.702896	-0.008296
1774	8.8650e-01	2.2663	0.512509	0.000423	4.234766	0.717389	-0.008467
1775	8.8700e-01	2.2577	0.462477	0.000500	5.004724	0.847823	-0.010006
1776	8.8750e-01	2.2462	0.418004	0.000445	4.448644	0.753621	-0.008895
1777	8.8800e-01	2.2356	0.373103	0.000449	4.491419	0.760867	-0.008980
1778	8.8850e-01	2.2242	0.328202	0.000449	4.491419	0.760867	-0.008980
1779	8.8900e-01	2.2174	0.283302	0.000449	4.491419	0.760867	-0.008980
1780	8.8950e-01	2.2067	0.242250	0.000411	4.106440	0.695650	-0.008210
1781	8.9000e-01	2.1921	0.195639	0.000466	4.662521	0.789852	-0.009322
1782	8.9050e-01	2.1841	0.147745	0.000479	4.790847	0.811591	-0.009579
1783	8.9100e-01	2.1798	0.091298	0.000565	5.646355	0.956518	-0.011289
1784	8.9150e-01	2.1665	0.047680	0.000436	4.363093	0.739128	-0.008724
1785	8.9200e-01	2.1572	0.001497	0.000462	4.619745	0.782606	-0.009237
1786	8.9250e-01	2.1451	-0.041693	0.000432	4.320317	0.731882	-0.008638
1787	8.9300e-01	2.1350	-0.086166	0.000445	4.448644	0.753621	-0.008895
1788	8.9350e-01	2.1243	-0.124653	0.000385	3.849788	0.652172	-0.007697
1789	8.9400e-01	2.1167	-0.178961	0.000543	5.432478	0.920287	-0.010862
1790	8.9450e-01	2.1058	-0.221296	0.000423	4.234766	0.717389	-0.008467
1791	8.9500e-01	2.0964	-0.269190	0.000479	4.790847	0.811591	-0.009579
1792	8.9550e-01	2.0844	-0.307676	0.000385	3.849788	0.652172	-0.007697
1793	8.9600e-01	2.0789	-0.355998	0.000483	4.833622	0.818838	-0.009664
1794	8.9650e-01	2.0638	-0.398761	0.000428	4.277542	0.724635	-0.008553
1795	8.9700e-01	2.0569	-0.444944	0.000462	4.619745	0.782606	-0.009237
1796	8.9750e-01	2.0450	-0.490700	0.000458	4.576970	0.775360	-0.009151
1797	8.9800e-01	2.0345	-0.533890	0.000432	4.320317	0.731882	-0.008638
1798	8.9850e-01	2.0274	-0.580501	0.000466	4.662521	0.789852	-0.009322
1799	8.9900e-01	2.0143	-0.630106	0.000496	4.961949	0.840577	-0.009921
1800	8.9950e-01	2.0059	-0.672868	0.000428	4.277542	0.724635	-0.008553
1801	9.0000e-01	1.9955	-0.722473	0.000496	4.961949	0.840577	-0.009921
1802	9.0050e-01	1.9856	-0.766518	0.000441	4.405868	0.746374	-0.008809
1803	9.0100e-01	1.9745	-0.813557	0.000471	4.705296	0.797099	-0.009408
1804	9.0150e-01	1.9672	-0.855464	0.000419	4.191991	0.710142	-0.008381
1805	9.0200e-01	1.9569	-0.901220	0.000458	4.576970	0.775360	-0.009151
1806	9.0250e-01	1.9460	-0.953818	0.000526	5.261376	0.891301	-0.010520
1807	9.0300e-01	1.9373	-1.000857	0.000471	4.705296	0.797099	-0.009408
1808	9.0350e-01	1.9239	-1.043192	0.000423	4.234766	0.717389	-0.008467
1809	9.0400e-01	1.9168	-1.088520	0.000453	4.534194	0.768113	-0.009066
1810	9.0450e-01	1.9073	-1.143256	0.000548	5.475254	0.927533	-0.010947
1811	9.0500e-01	1.8967	-1.189012	0.000458	4.576970	0.775360	-0.009151
1812	9.0550e-01	1.8851	-1.234340	0.000453	4.534194	0.768113	-0.009066
1813	9.0600e-01	1.8744	-1.281807	0.000475	4.748071	0.804345	-0.009493
1814	9.0650e-01	1.8706	-1.330984	0.000492	4.919173	0.833330	-0.009835
1815	9.0700e-01	1.8553	-1.377167	0.000462	4.619745	0.782606	-0.009237
1816	9.0750e-01	1.8465	-1.425061	0.000479	4.790847	0.811591	-0.009579
1817	9.0800e-01	1.8359	-1.475949	0.000509	5.090275	0.862316	-0.010177
1818	9.0850e-01	1.8241	-1.525126	0.000492	4.919173	0.833330	-0.009835
1819	9.0900e-01	1.8139	-1.573875	0.000488	4.876398	0.826084	-0.009750
1820	9.0950e-01	1.8054	-1.613644	0.000398	3.978114	0.673911	-0.007954
1821	9.1000e-01	1.7937	-1.663676	0.000500	5.004724	0.847823	-0.010006
1822	9.1050e-01	1.7847	-1.714136	0.000505	5.047499	0.855070	-0.010092
1823	9.1100e-01	1.7737	-1.765451	0.000513	5.133050	0.869562	-0.010263
1824	9.1150e-01	1.7658	-1.811207	0.000458	4.576970	0.775360	-0.009151
1825	9.1200e-01	1.7529	-1.863805	0.000526	5.261376	0.891301	-0.010520
1826	9.1250e-01	1.7447	-1.904002	0.000402	4.020889	0.681157	-0.008039
1827	9.1300e-01	1.7354	-1.951896	0.000479	4.790847	0.811591	-0.009579
1828	9.1350e-01	1.7247	-2.014756	0.000629	6.287986	1.065214	-0.012572
1829	9.1400e-01	1.7146	-2.053243	0.000385	3.849788	0.652172	-0.007697
1830	9.1450e-01	1.7041	-2.095578	0.000423	4.234766	0.717389	-0.008467
1831	9.1500e-01	1.6964	-2.149031	0.000535	5.346927	0.905794	-0.010691
1832	9.1550e-01	1.6855	-2.192649	0.000436	4.363093	0.739128	-0.008724
1833	9.1600e-01	1.6746	-2.245247	0.000526	5.261376	0.891301	-0.010520
1834	9.1650e-01	1.6659	-2.288009	0.000428	4.277542	0.724635	-0.008553
1835	9.1700e-01	1.6572	-2.336758	0.000488	4.876398	0.826084	-0.009750
1836	9.1750e-01	1.6447	-2.381659	0.000449	4.491419	0.760867	-0.008980
1837	9.1800e-01	1.6357	-2.434257	0.000526	5.261376	0.891301	-0.010520
1838	9.1850e-01	1.6212	-2.485144	0.000509	5.090275	0.862316	-0.010177
1839	9.1900e-01	1.6138	-2.536459	0.000513	5.133050	0.869562	-0.010263
1840	9.1950e-01	1.6034	-2.590768	0.000543	5.432478	0.920287	-0.010862
1841	9.2000e-01	1.5958	-2.633530	0.000428	4.277542	0.724635	-0.008553
1842	9.2050e-01	1.5876	-2.685273	0.000518	5.175826	0.876809	-0.010349
1843	9.2100e-01	1.5742	-2.732312	0.000471	4.705296	0.797099	-0.009408
1844	9.2150e-01	1.5652	-2.781916	0.000496	4.961949	0.840577	-0.009921
1845	9.2200e-01	1.5539	-2.834087	0.000522	5.218601	0.884055	-0.010434
1846	9.2250e-01	1.5466	-2.879415	0.000453	4.534194	0.768113	-0.009066
1847	9.2300e-01	1.5369	-2.931585	0.000522	5.218601	0.884055	-0.010434
1848	9.2350e-01	1.5271	-2.981190	0.000496	4.961949	0.840577	-0.009921
1849	9.2400e-01	1.5144	-3.029939	0.000488	4.876398	0.826084	-0.009750
1850	9.2450e-01	1.5070	-3.076978	0.000471	4.705296	0.797099	-0.009408
1851	9.2500e-01	1.4973	-3.128293	0.000513	5.133050	0.869562	-0.010263
1852	9.2550e-01	1.4845	-3.181746	0.000535	5.346927	0.905794	-0.010691
1853	9.2600e-01	1.4764	-3.228785	0.000471	4.705296	0.797099	-0.009408
1854	9.2650e-01	1.4664	-3.280100	0.000513	5.133050	0.869562	-0.010263
1855	9.2700e-01	1.4558	-3.323717	0.000436	4.363093	0.739128	-0.008724
1856	9.2750e-01	1.4450	-3.374605	0.000509	5.090275	0.862316	-0.010177
1857	9.2800e-01	1.4365	-3.426348	0.000518	5.175826	0.876809	-0.010349
1858	9.2850e-01	1.4246	-3.473386	0.000471	4.705296	0.797099	-0.009408
1859	9.2900e-01	1.4167	-3.519570	0.000462	4.619745	0.782606	-0.009237
1860	9.2950e-01	1.4070	-3.568747	0.000492	4.919173	0.833330	-0.009835
1861	9.3000e-01	1.4005	-3.618779	0.000500	5.004724	0.847823	-0.010006
1862	9.3050e-01	1.3842	-3.670094	0.000513	5.133050	0.869562	-0.010263
1863	9.3100e-01	1.3751	-3.720554	0.000505	5.047499	0.855070	-0.010092
1864	9.3150e-01	1.3660	-3.765027	0.000445	4.448644	0.753621	-0.008895
1865	9.3200e-01	1.3574	-3.811210	0.000462	4.619745	0.782606	-0.009237
1866	9.3250e-01	1.3446	-3.861670	0.000505	5.047499	0.855070	-0.010092
1867	9.3300e-01	1.3340	-3.915123	0.000535	5.346927	0.905794	-0.010691
1868	9.3350e-01	1.3247	-3.960024	0.000449	4.491419	0.760867	-0.008980
1869	9.3400e-01	1.3131	-4.004069	0.000441	4.405868	0.746374	-0.008809
1870	9.3450e-01	1.3046	-4.060088	0.000560	5.603580	0.949272	-0.011204
1871	9.3500e-01	1.2936	-4.102851	0.000428	4.277542	0.724635	-0.008553
1872	9.3550e-01	1.2860	-4.154166	0.000513	5.133050	0.869562	-0.010263
1873	9.3600e-01	1.2743	-4.199494	0.000453	4.534194	0.768113	-0.009066
1874	9.3650e-01	1.2649	-4.249526	0.000500	5.004724	0.847823	-0.010006
1875	9.3700e-01	1.2531	-4.295282	0.000458	4.576970	0.775360	-0.009151
1876	9.3750e-01	1.2490	-4.344887	0.000496	4.961949	0.840577	-0.009921
1877	9.3800e-01	1.2379	-4.397485	0.000526	5.261376	0.891301	-0.010520
1878	9.3850e-01	1.2265	-4.443240	0.000458	4.576970	0.775360	-0.009151
1879	9.3900e-01	1.2172	-4.502680	0.000595	5.945783	1.007243	-0.011888
1880	9.3950e-01	1.2045	-4.537318	0.000346	3.464809	0.586955	-0.006928
1881	9.4000e-01	1.1969	-4.589488	0.000522	5.218601	0.884055	-0.010434
1882	9.4050e-01	1.1876	-4.634817	0.000453	4.534194	0.768113	-0.009066
1883	9.4100e-01	1.1756	-4.682283	0.000475	4.748071	0.804345	-0.009493
1884	9.4150e-01	1.1651	-4.728039	0.000458	4.576970	0.775360	-0.009151
1885	9.4200e-01	1.1568	-4.778926	0.000509	5.090275	0.862316	-0.010177
1886	9.4250e-01	1.1504	-4.823399	0.000445	4.448644	0.753621	-0.008895
1887	9.4300e-01	1.1363	-4.875570	0.000522	5.218601	0.884055	-0.010434
1888	9.4350e-01	1.1279	-4.923036	0.000475	4.748071	0.804345	-0.009493
1889	9.4400e-01	1.1165	-4.972213	0.000492	4.919173	0.833330	-0.009835
1890	9.4450e-01	1.1060	-5.022245	0.000500	5.004724	0.847823	-0.010006
1891	9.4500e-01	1.0978	-5.070567	0.000483	4.833622	0.818838	-0.009664
1892	9.4550e-01	1.0862	-5.117605	0.000471	4.705296	0.797099	-0.009408
1893	9.4600e-01	1.0754	-5.168493	0.000509	5.090275	0.862316	-0.010177
1894	9.4650e-01	1.0657	-5.221091	0.000526	5.261376	0.891301	-0.010520
1895	9.4700e-01	1.0554	-5.272406	0.000513	5.133050	0.869562	-0.010263
1896	9.4750e-01	1.0471	-5.327142	0.000548	5.475254	0.927533	-0.010947
1897	9.4800e-01	1.0368	-5.377602	0.000505	5.047499	0.855070	-0.010092
1898	9.4850e-01	1.0257	-5.432338	0.000548	5.475254	0.927533	-0.010947
1899	9.4900e-01	1.0168	-5.475528	0.000432	4.320317	0.731882	-0.008638
1900	9.4950e-01	1.0057	-5.522567	0.000471	4.705296	0.797099	-0.009408
1901	9.5000e-01	0.9958	-5.574737	0.000522	5.218601	0.884055	-0.010434
1902	9.5050e-01	0.9850	-5.625197	0.000505	5.047499	0.855070	-0.010092
1903	9.5100e-01	0.9768	-5.673946	0.000488	4.876398	0.826084	-0.009750
1904	9.5150e-01	0.9658	-5.723978	0.000500	5.004724	0.847823	-0.010006
1905	9.5200e-01	0.9562	-5.771017	0.000471	4.705296	0.797099	-0.009408
1906	9.5250e-01	0.9460	-5.818911	0.000479	4.790847	0.811591	-0.009579
1907	9.5300e-01	0.9339	-5.869798	0.000509	5.090275	0.862316	-0.010177
1908	9.5350e-01	0.9261	-5.918548	0.000488	4.876398	0.826084	-0.009750
1909	9.5400e-01	0.9160	-5.967297	0.000488	4.876398	0.826084	-0.009750
1910	9.5450e-01	0.9059	-6.014763	0.000475	4.748071	0.804345	-0.009493
1911	9.5500e-01	0.8965	-6.068216	0.000535	5.346927	0.905794	-0.010691
1912	9.5550e-01	0.8860	-6.121242	0.000530	5.304152	0.898548	-0.010605
1913	9.5600e-01	0.8778	-6.166998	0.000458	4.576970	0.775360	-0.009151
1914	9.5650e-01	0.8679	-6.216175	0.000492	4.919173	0.833330	-0.009835
1915	9.5700e-01	0.8528	-6.266635	0.000505	5.047499	0.855070	-0.010092
1916	9.5750e-01	0.8456	-6.317522	0.000509	5.090275	0.862316	-0.010177
1917	9.5800e-01	0.8363	-6.363706	0.000462	4.619745	0.782606	-0.009237
1918	9.5850e-01	0.8260	-6.418014	0.000543	5.432478	0.920287	-0.010862
1919	9.5900e-01	0.8173	-6.468046	0.000500	5.004724	0.847823	-0.010006
1920	9.5950e-01	0.8060	-6.517651	0.000496	4.961949	0.840577	-0.009921
1921	9.6000e-01	0.7955	-6.563834	0.000462	4.619745	0.782606	-0.009237
1922	9.6050e-01	0.7862	-6.613439	0.000496	4.961949	0.840577	-0.009921
1923	9.6100e-01	0.7787	-6.666464	0.000530	5.304152	0.898548	-0.010605
1924	9.6150e-01	0.7684	-6.722483	0.000560	5.603580	0.949272	-0.011204
1925	9.6200e-01	0.7547	-6.768667	0.000462	4.619745	0.782606	-0.009237
1926	9.6250e-01	0.7454	-6.821265	0.000526	5.261376	0.891301	-0.010520
1927	9.6300e-01	0.7349	-6.870441	0.000492	4.919173	0.833330	-0.009835
1928	9.6350e-01	0.7256	-6.923039	0.000526	5.261376	0.891301	-0.010520
1929	9.6400e-01	0.7170	-6.971789	0.000488	4.876398	0.826084	-0.009750
1930	9.6450e-01	0.7062	-7.017117	0.000453	4.534194	0.768113	-0.009066
1931	9.6500e-01	0.6990	-7.067577	0.000505	5.047499	0.855070	-0.010092
1932	9.6550e-01	0.6877	-7.117181	0.000496	4.961949	0.840577	-0.009921
1933	9.6600e-01	0.6735	-7.171062	0.000539	5.389703	0.913040	-0.010776
1934	9.6650e-01	0.6653	-7.218528	0.000475	4.748071	0.804345	-0.009493
1935	9.6700e-01	0.6567	-7.268988	0.000505	5.047499	0.855070	-0.010092
1936	9.6750e-01	0.6461	-7.316882	0.000479	4.790847	0.811591	-0.009579
1937	9.6800e-01	0.6387	-7.374184	0.000573	5.731906	0.971011	-0.011460
1938	9.6850e-01	0.6284	-7.428065	0.000539	5.389703	0.913040	-0.010776
1939	9.6900e-01	0.6165	-7.471255	0.000432	4.320317	0.731882	-0.008638
1940	9.6950e-01	0.6073	-7.520432	0.000492	4.919173	0.833330	-0.009835
1941	9.7000e-01	0.5948	-7.568326	0.000479	4.790847	0.811591	-0.009579
1942	9.7050e-01	0.5874	-7.625200	0.000569	5.689131	0.963765	-0.011375
1943	9.7100e-01	0.5759	-7.673094	0.000479	4.790847	0.811591	-0.009579
1944	9.7150e-01	0.5658	-7.722699	0.000496	4.961949	0.840577	-0.009921
1945	9.7200e-01	0.5585	-7.777435	0.000548	5.475254	0.927533	-0.010947
1946	9.7250e-01	0.5498	-7.829177	0.000518	5.175826	0.876809	-0.010349
1947	9.7300e-01	0.5390	-7.878782	0.000496	4.961949	0.840577	-0.009921
1948	9.7350e-01	0.5271	-7.925393	0.000466	4.662521	0.789852	-0.009322
1949	9.7400e-01	0.5161	-7.979701	0.000543	5.432478	0.920287	-0.010862
1950	9.7450e-01	0.5064	-8.031872	0.000522	5.218601	0.884055	-0.010434
1951	9.7500e-01	0.4968	-8.081049	0.000492	4.919173	0.833330	-0.009835
1952	9.7550e-01	0.4842	-8.149896	0.000689	6.886842	1.166663	-0.013770
1953	9.7600e-01	0.4757	-8.201211	0.000513	5.133050	0.869562	-0.010263
1954	9.7650e-01	0.4665	-8.253382	0.000522	5.218601	0.884055	-0.010434
1955	9.7700e-01	0.4563	-8.304269	0.000509	5.090275	0.862316	-0.010177
1956	9.7750e-01	0.4472	-8.355584	0.000513	5.133050	0.869562	-0.010263
1957	9.7800e-01	0.4368	-8.412886	0.000573	5.731906	0.971011	-0.011460
1958	9.7850e-01	0.4272	-8.457359	0.000445	4.448644	0.753621	-0.008895
1959	9.7900e-01	0.4127	-8.516799	0.000595	5.945783	1.007243	-0.011888
1960	9.7950e-01	0.4062	-8.568541	0.000518	5.175826	0.876809	-0.010349
1961	9.8000e-01	0.3929	-8.622850	0.000543	5.432478	0.920287	-0.010862
1962	9.8050e-01	0.3851	-8.670744	0.000479	4.790847	0.811591	-0.009579
1963	9.8100e-01	0.3764	-8.725052	0.000543	5.432478	0.920287	-0.010862
1964	9.8150e-01	0.3661	-8.772519	0.000475	4.748071	0.804345	-0.009493
1965	9.8200e-01	0.3552	-8.823406	0.000509	5.090275	0.862316	-0.010177
1966	9.8250e-01	0.3481	-8.874721	0.000513	5.133050	0.869562	-0.010263
1967	9.8300e-01	0.3383	-8.928602	0.000539	5.389703	0.913040	-0.010776
1968	9.8350e-01	0.3264	-8.976924	0.000483	4.833622	0.818838	-0.009664
1969	9.8400e-01	0.3167	-9.029949	0.000530	5.304152	0.898548	-0.010605
1970	9.8450e-01	0.3036	-9.087679	0.000577	5.774681	0.978258	-0.011546
1971	9.8500e-01	0.2969	-9.134717	0.000471	4.705296	0.797099	-0.009408
1972	9.8550e-01	0.2839	-9.193730	0.000590	5.903008	0.999997	-0.011802
1973	9.8600e-01	0.2755	-9.242051	0.000483	4.833622	0.818838	-0.009664
1974	9.8650e-01	0.2676	-9.292939	0.000509	5.090275	0.862316	-0.010177
1975	9.8700e-01	0.2554	-9.353234	0.000603	6.031334	1.021736	-0.012059
1976	9.8750e-01	0.2448	-9.403266	0.000500	5.004724	0.847823	-0.010006
1977	9.8800e-01	0.2377	-9.462278	0.000590	5.903008	0.999997	-0.011802
1978	9.8850e-01	0.2256	-9.510600	0.000483	4.833622	0.818838	-0.009664
1979	9.8900e-01	0.2180	-9.565336	0.000548	5.475254	0.927533	-0.010947
1980	9.8950e-01	0.2049	-9.621782	0.000565	5.646355	0.956518	-0.011289
1981	9.9000e-01	0.1970	-9.675236	0.000535	5.346927	0.905794	-0.010691
1982	9.9050e-01	0.1853	-9.732965	0.000577	5.774681	0.978258	-0.011546
1983	9.9100e-01	0.1746	-9.785135	0.000522	5.218601	0.884055	-0.010434
1984	9.9150e-01	0.1654	-9.836878	0.000518	5.175826	0.876809	-0.010349
1985	9.9200e-01	0.1568	-9.891614	0.000548	5.475254	0.927533	-0.010947
1986	9.9250e-01	0.1475	-9.947633	0.000560	5.603580	0.949272	-0.011204
1987	9.9300e-01	0.1366	-10.004507	0.000569	5.689131	0.963765	-0.011375
1988	9.9350e-01	0.1238	-10.059243	0.000548	5.475254	0.927533	-0.010947
1989	9.9400e-01	0.1166	-10.117400	0.000582	5.817457	0.985504	-0.011631
1990	9.9450e-01	0.1043	-10.172991	0.000556	5.560804	0.942026	-0.011118
1991	9.9500e-01	0.0944	-10.230293	0.000573	5.731906	0.971011	-0.011460
1992	9.9550e-01	0.0832	-10.283319	0.000530	5.304152	0.898548	-0.010605
1993	9.9600e-01	0.0756	-10.337200	0.000539	5.389703	0.913040	-0.010776
1994	9.9650e-01	0.0683	-10.393218	0.000560	5.603580	0.949272	-0.011204
1995	9.9700e-01	0.0568	-10.449237	0.000560	5.603580	0.949272	-0.011204
1996	9.9750e-01	0.0426	-10.507394	0.000582	5.817457	0.985504	-0.011631
1997	9.9800e-01	0.0357	-10.558282	0.000509	5.090275	0.862316	-0.010177
1998	9.9850e-01	0.0256	-10.614728	0.000565	5.646355	0.956518	-0.011289
1999	9.9900e-01	0.0144	-10.669464	0.000548	5.475254	0.927533	-0.010947
2000	9.9950e-01	0.0066	-10.725911	0.000565	5.646355	0.956518	-0.011289
2001	1.0000e+00	-0.0022	-10.777654	0.000565	5.646355	0.956518	-0.010349

PMax (uC/cm2):	4.36e+01
Pr (uC/cm2):	1.17e+01
-Pr (uC/cm2):	0.00e+00
PLoss (uC/cm2):	0.00e+00
C (Max-Eff) (nF):	4.36e-01
K (Eff):	7.39e+02
Vert. (+/-Pr) Shift (uC/cm2):	5.85e+00
Offset (uC/cm2):	2.25e+01

A (Loop Area - uC/cm2·Volts):	-8.93e-02



Hysteresis Version: 5.48.1 - Radiant Technologies, Inc., 1999 - 9/12/24

