»»»»»»»»»»»»»»»»»»»»»»»»»»»»»»»»»»»» Hysteresis ««««««««««««««««««««««««««««««««««««
»»»  Executed Version:	5.48.1
»»»  Vision Version:	5.48.4 (R)
»»»  Vision Compiled:	9/18/24
»»»  Driver Version:	5.47.0
»»»  Windows Version:	Windows 8 or 8.1
»»»  Processor Information:	x86 (AMD or Intel) - 32 Processors
»»»  Tester Name:	PMF21124-494 (100V)
»»»  Tester S/N:	PMF21124-494
»»»  Internal Amp Type:	100V RevK 270k
»»»  Internal Amp S/N:	iAB2-596/K     
»»»  Execution Count:	1
»»»»»»»»»»»»»»»»»»»»»»»»»»»»»»»»»»»»»»»»»»««««««««««««««««««««««««««««««««««««««««««

Stored:	6/25/2025 - 16:41:44
Configured:	06/25/25 10:44:40 AM
Executed:	06/25/25 04:40:51 PM

»»»»»»»»»»»»»»»»»»»»»»»»»»»»»»»»»»» Sample Info ««««««««««««««««««««««««««««««««««««
Sample Name:	
Lot Name:	
Wafer Name:	
Die Row/Column:	0/0
Capacitor Number:	0
Sample Area (cm2):	1.00e-04
Sample Thickness (microns):	1.50e-01

Amplifier:	Internal

»»»»»»»»»»»»»»»»»»»»»»»»»»»»»»»»»»» Tester Info «««««««««««««««««««««««««««««««««««
Tester Name:	PMF21124-494 (100V)
Tester Serial Number:	PMF21124-494
Return Signal Amp. Level:	1.79 [Index: 2]

»»»»»»»»»»»»»»»»»»»»»»»»»»»»»»»» Hysteresis Info ««««««««««««««««««««««««««««««««««
Task Name:	Hyst-116
Volts:	10.00
Field:	666.67 (kV/cm)
DCBias:	0.00
DCField:	0.00 (kV/cm)
Hysteresis Period (ms):	1.00e+00
Preset:	Enabled
Preset Delay (ms):	1.00e+03
Profile:	Standard Monopolar

»»»»»»»»»»»»»»»»»»»»»»»»»»»»»»»»»»»»»» Data «««««««««««««««««««««««««««««««««««««««
Points:	2001

Valid Data

Point	Time (ms)	Drive Voltage	Measured Polarization (uC/cm2)	Capacitance (uF)	Normalized Capacitance (uF/cm2)	Dielectric Constant	Instantaneous Current (mA)
   1	0.0000e+00	-0.0038	-24.216847	0.000552	5.516513	0.934523	0.011033
   2	5.0000e-04	0.0043	-24.161683	0.000552	5.516513	0.934523	0.011033
   3	1.0000e-03	0.0137	-24.100105	0.000616	6.157968	1.043188	0.012316
   4	1.5000e-03	0.0254	-24.039810	0.000603	6.029677	1.021455	0.012059
   5	2.0000e-03	0.0376	-23.976522	0.000633	6.329023	1.072166	0.012658
   6	2.5000e-03	0.0423	-23.902542	0.000740	7.398115	1.253275	0.014796
   7	3.0000e-03	0.0543	-23.823004	0.000795	7.954043	1.347451	0.015908
   8	3.5000e-03	0.0685	-23.776393	0.000466	4.661240	0.789635	0.009322
   9	4.0000e-03	0.0767	-23.697282	0.000791	7.911279	1.340207	0.015822
  10	4.5000e-03	0.0835	-23.633566	0.000637	6.371787	1.079410	0.012743
  11	5.0000e-03	0.0926	-23.564291	0.000693	6.927714	1.173587	0.013855
  12	5.5000e-03	0.1051	-23.495871	0.000684	6.842187	1.159098	0.013684
  13	6.0000e-03	0.1161	-23.440707	0.000552	5.516513	0.934523	0.011033
  14	6.5000e-03	0.1254	-23.358175	0.000825	8.253388	1.398162	0.016506
  15	7.0000e-03	0.1352	-23.308998	0.000492	4.917822	0.833102	0.009835
  16	7.5000e-03	0.1438	-23.241434	0.000676	6.756660	1.144609	0.013513
  17	8.0000e-03	0.1538	-23.170020	0.000714	7.141533	1.209808	0.014283
  18	8.5000e-03	0.1675	-23.100745	0.000693	6.927714	1.173587	0.013855
  19	9.0000e-03	0.1752	-23.042160	0.000586	5.858623	0.992478	0.011717
  20	9.5000e-03	0.1846	-22.974596	0.000676	6.756660	1.144609	0.013513
  21	1.0000e-02	0.1971	-22.904893	0.000697	6.970478	1.180831	0.013941
  22	1.0500e-02	0.2059	-22.833052	0.000718	7.184296	1.217053	0.014368
  23	1.1000e-02	0.2164	-22.780881	0.000522	5.217168	0.883812	0.010434
  24	1.1500e-02	0.2257	-22.707757	0.000731	7.312587	1.238786	0.014625
  25	1.2000e-02	0.2372	-22.643186	0.000646	6.457314	1.093899	0.012914
  26	1.2500e-02	0.2462	-22.570917	0.000723	7.227060	1.224297	0.014454
  27	1.3000e-02	0.2554	-22.511050	0.000599	5.986914	1.014211	0.011974
  28	1.3500e-02	0.2676	-22.448189	0.000629	6.286259	1.064921	0.012572
  29	1.4000e-02	0.2731	-22.368650	0.000795	7.954043	1.347451	0.015908
  30	1.4500e-02	0.2831	-22.310066	0.000586	5.858623	0.992478	0.011717
  31	1.5000e-02	0.2948	-22.246350	0.000637	6.371787	1.079410	0.012743
  32	1.5500e-02	0.3077	-22.175791	0.000706	7.056005	1.195320	0.014112
  33	1.6000e-02	0.3162	-22.110792	0.000650	6.500078	1.101143	0.013000
  34	1.6500e-02	0.3252	-22.032965	0.000778	7.782988	1.318474	0.015566
  35	1.7000e-02	0.3351	-21.982505	0.000505	5.046113	0.854835	0.010092
  36	1.7500e-02	0.3457	-21.901256	0.000813	8.125097	1.376429	0.016250
  37	1.8000e-02	0.3553	-21.854645	0.000466	4.661240	0.789635	0.009322
  38	1.8500e-02	0.3657	-21.778528	0.000761	7.611933	1.289496	0.015223
  39	1.9000e-02	0.3769	-21.708397	0.000701	7.013242	1.188075	0.014026
  40	1.9500e-02	0.3844	-21.653233	0.000552	5.516513	0.934523	0.011033
  41	2.0000e-02	0.3950	-21.587807	0.000654	6.542841	1.108387	0.013085
  42	2.0500e-02	0.4057	-21.519814	0.000680	6.799423	1.151854	0.013598
  43	2.1000e-02	0.4155	-21.450539	0.000693	6.927714	1.173587	0.013855
  44	2.1500e-02	0.4253	-21.386395	0.000641	6.414550	1.086654	0.012829
  45	2.2000e-02	0.4358	-21.325672	0.000607	6.072441	1.028699	0.012145
  46	2.2500e-02	0.4473	-21.245707	0.000800	7.996806	1.354696	0.015993
  47	2.3000e-02	0.4559	-21.190543	0.000552	5.516513	0.934523	0.011033
  48	2.3500e-02	0.4671	-21.121268	0.000693	6.927714	1.173587	0.013855
  49	2.4000e-02	0.4745	-21.045150	0.000761	7.611933	1.289496	0.015223
  50	2.4500e-02	0.4844	-21.004953	0.000402	4.019785	0.680970	0.008039
  51	2.5000e-02	0.4958	-20.936533	0.000684	6.842187	1.159098	0.013684
  52	2.5500e-02	0.5057	-20.872390	0.000641	6.414550	1.086654	0.012829
  53	2.6000e-02	0.5145	-20.783871	0.000885	8.852080	1.499583	0.017704
  54	2.6500e-02	0.5262	-20.734267	0.000496	4.960586	0.840346	0.009921
  55	2.7000e-02	0.5373	-20.672689	0.000616	6.157968	1.043188	0.012316
  56	2.7500e-02	0.5489	-20.608117	0.000646	6.457314	1.093899	0.012914
  57	2.8000e-02	0.5566	-20.536704	0.000714	7.141533	1.209808	0.014283
  58	2.8500e-02	0.5660	-20.468711	0.000680	6.799423	1.151854	0.013598
  59	2.9000e-02	0.5754	-20.403712	0.000650	6.500078	1.101143	0.013000
  60	2.9500e-02	0.5863	-20.342990	0.000607	6.072441	1.028699	0.012145
  61	3.0000e-02	0.5970	-20.287398	0.000556	5.559277	0.941767	0.011118
  62	3.0500e-02	0.6041	-20.219833	0.000676	6.756660	1.144609	0.013513
  63	3.1000e-02	0.6177	-20.141150	0.000787	7.868515	1.332963	0.015737
  64	3.1500e-02	0.6265	-20.087697	0.000535	5.345459	0.905545	0.010691
  65	3.2000e-02	0.6355	-20.010725	0.000770	7.697460	1.303985	0.015395
  66	3.2500e-02	0.6441	-19.953423	0.000573	5.730332	0.970744	0.011460
  67	3.3000e-02	0.6555	-19.905529	0.000479	4.789531	0.811369	0.009579
  68	3.3500e-02	0.6667	-19.820431	0.000851	8.509970	1.441628	0.017019
  69	3.4000e-02	0.6751	-19.755860	0.000646	6.457314	1.093899	0.012914
  70	3.4500e-02	0.6863	-19.695993	0.000599	5.986914	1.014211	0.011974
  71	3.5000e-02	0.6956	-19.632276	0.000637	6.371787	1.079410	0.012743
  72	3.5500e-02	0.7047	-19.570271	0.000620	6.200732	1.050432	0.012401
  73	3.6000e-02	0.7155	-19.495436	0.000748	7.483642	1.267763	0.014967
  74	3.6500e-02	0.7239	-19.441555	0.000539	5.388222	0.912790	0.010776
  75	3.7000e-02	0.7374	-19.380405	0.000612	6.115205	1.035944	0.012230
  76	3.7500e-02	0.7468	-19.316261	0.000641	6.414550	1.086654	0.012829
  77	3.8000e-02	0.7572	-19.258104	0.000582	5.815859	0.985233	0.011631
  78	3.8500e-02	0.7661	-19.189257	0.000688	6.884951	1.166342	0.013770
  79	3.9000e-02	0.7764	-19.137942	0.000513	5.131640	0.869323	0.010263
  80	3.9500e-02	0.7840	-19.050278	0.000877	8.766552	1.485094	0.017533
  81	4.0000e-02	0.7974	-18.983996	0.000663	6.628369	1.122876	0.013256
  82	4.0500e-02	0.8047	-18.926695	0.000573	5.730332	0.970744	0.011460
  83	4.1000e-02	0.8166	-18.872386	0.000543	5.430986	0.920034	0.010862
  84	4.1500e-02	0.8271	-18.807815	0.000646	6.457314	1.093899	0.012914
  85	4.2000e-02	0.8309	-18.735974	0.000718	7.184296	1.217053	0.014368
  86	4.2500e-02	0.8465	-18.696205	0.000398	3.977021	0.673726	0.007954
  87	4.3000e-02	0.8546	-18.620087	0.000761	7.611933	1.289496	0.015223
  88	4.3500e-02	0.8655	-18.555944	0.000641	6.414550	1.086654	0.012829
  89	4.4000e-02	0.8755	-18.485385	0.000706	7.056005	1.195320	0.014112
  90	4.4500e-02	0.8859	-18.418676	0.000667	6.671132	1.130120	0.013342
  91	4.5000e-02	0.8961	-18.368644	0.000500	5.003349	0.847590	0.010006
  92	4.5500e-02	0.9056	-18.282691	0.000860	8.595498	1.456117	0.017191
  93	4.6000e-02	0.9129	-18.231376	0.000513	5.131640	0.869323	0.010263
  94	4.6500e-02	0.9231	-18.171081	0.000603	6.029677	1.021455	0.012059
  95	4.7000e-02	0.9372	-18.109503	0.000616	6.157968	1.043188	0.012316
  96	4.7500e-02	0.9448	-18.053484	0.000560	5.602041	0.949011	0.011204
  97	4.8000e-02	0.9546	-17.980788	0.000727	7.269824	1.231541	0.014539
  98	4.8500e-02	0.9641	-17.915789	0.000650	6.500078	1.101143	0.013000
  99	4.9000e-02	0.9753	-17.859770	0.000560	5.602041	0.949011	0.011204
 100	4.9500e-02	0.9866	-17.797336	0.000624	6.243496	1.057677	0.012487
 101	5.0000e-02	0.9949	-17.733620	0.000637	6.371787	1.079410	0.012743
 102	5.0500e-02	1.0070	-17.668193	0.000654	6.542841	1.108387	0.013085
 103	5.1000e-02	1.0131	-17.614313	0.000539	5.388222	0.912790	0.010776
 104	5.1500e-02	1.0258	-17.546748	0.000676	6.756660	1.144609	0.013513
 105	5.2000e-02	1.0345	-17.482176	0.000646	6.457314	1.093899	0.012914
 106	5.2500e-02	1.0439	-17.400928	0.000813	8.125097	1.376429	0.016250
 107	5.3000e-02	1.0558	-17.361586	0.000393	3.934258	0.666481	0.007868
 108	5.3500e-02	1.0656	-17.300008	0.000616	6.157968	1.043188	0.012316
 109	5.4000e-02	1.0760	-17.231160	0.000688	6.884951	1.166342	0.013770
 110	5.4500e-02	1.0841	-17.178990	0.000522	5.217168	0.883812	0.010434
 111	5.5000e-02	1.0951	-17.109287	0.000697	6.970478	1.180831	0.013941
 112	5.5500e-02	1.1069	-17.041722	0.000676	6.756660	1.144609	0.013513
 113	5.6000e-02	1.1170	-16.982710	0.000590	5.901386	0.999722	0.011802
 114	5.6500e-02	1.1240	-16.910869	0.000718	7.184296	1.217053	0.014368
 115	5.7000e-02	1.1349	-16.857844	0.000530	5.302695	0.898301	0.010605
 116	5.7500e-02	1.1449	-16.794555	0.000633	6.329023	1.072166	0.012658
 117	5.8000e-02	1.1573	-16.749227	0.000453	4.532949	0.767902	0.009066
 118	5.8500e-02	1.1655	-16.676958	0.000723	7.227060	1.224297	0.014454
 119	5.9000e-02	1.1745	-16.607683	0.000693	6.927714	1.173587	0.013855
 120	5.9500e-02	1.1856	-16.562782	0.000449	4.490185	0.760658	0.008980
 121	6.0000e-02	1.1959	-16.480250	0.000825	8.253388	1.398162	0.016506
 122	6.0500e-02	1.2051	-16.428080	0.000522	5.217168	0.883812	0.010434
 123	6.1000e-02	1.2193	-16.366930	0.000612	6.115205	1.035944	0.012230
 124	6.1500e-02	1.2260	-16.307490	0.000594	5.944150	1.006966	0.011888
 125	6.2000e-02	1.2360	-16.245912	0.000616	6.157968	1.043188	0.012316
 126	6.2500e-02	1.2445	-16.180058	0.000659	6.585605	1.115632	0.013171
 127	6.3000e-02	1.2566	-16.114203	0.000659	6.585605	1.115632	0.013171
 128	6.3500e-02	1.2680	-16.054763	0.000594	5.944150	1.006966	0.011888
 129	6.4000e-02	1.2741	-16.001738	0.000530	5.302695	0.898301	0.010605
 130	6.4500e-02	1.2862	-15.943153	0.000586	5.858623	0.992478	0.011717
 131	6.5000e-02	1.2971	-15.878154	0.000650	6.500078	1.101143	0.013000
 132	6.5500e-02	1.3069	-15.823846	0.000543	5.430986	0.920034	0.010862
 133	6.6000e-02	1.3172	-15.758419	0.000654	6.542841	1.108387	0.013085
 134	6.6500e-02	1.3263	-15.690427	0.000680	6.799423	1.151854	0.013598
 135	6.7000e-02	1.3352	-15.642533	0.000479	4.789531	0.811369	0.009579
 136	6.7500e-02	1.3470	-15.569409	0.000731	7.312587	1.238786	0.014625
 137	6.8000e-02	1.3574	-15.513390	0.000560	5.602041	0.949011	0.011204
 138	6.8500e-02	1.3660	-15.468917	0.000445	4.447422	0.753414	0.008895
 139	6.9000e-02	1.3757	-15.388523	0.000804	8.039570	1.361940	0.016079
 140	6.9500e-02	1.3869	-15.320531	0.000680	6.799423	1.151854	0.013598
 141	7.0000e-02	1.3955	-15.261091	0.000594	5.944150	1.006966	0.011888
 142	7.0500e-02	1.4052	-15.216618	0.000445	4.447422	0.753414	0.008895
 143	7.1000e-02	1.4152	-15.153329	0.000633	6.329023	1.072166	0.012658
 144	7.1500e-02	1.4251	-15.096883	0.000564	5.644804	0.956256	0.011289
 145	7.2000e-02	1.4337	-15.043002	0.000539	5.388222	0.912790	0.010776
 146	7.2500e-02	1.4465	-14.969023	0.000740	7.398115	1.253275	0.014796
 147	7.3000e-02	1.4552	-14.911721	0.000573	5.730332	0.970744	0.011460
 148	7.3500e-02	1.4645	-14.848005	0.000637	6.371787	1.079410	0.012743
 149	7.4000e-02	1.4764	-14.783433	0.000646	6.457314	1.093899	0.012914
 150	7.4500e-02	1.4867	-14.734256	0.000492	4.917822	0.833102	0.009835
 151	7.5000e-02	1.4946	-14.657284	0.000770	7.697460	1.303985	0.015395
 152	7.5500e-02	1.5065	-14.612383	0.000449	4.490185	0.760658	0.008980
 153	7.6000e-02	1.5146	-14.542253	0.000701	7.013242	1.188075	0.014026
 154	7.6500e-02	1.5254	-14.491793	0.000505	5.046113	0.854835	0.010092
 155	7.7000e-02	1.5341	-14.427649	0.000641	6.414550	1.086654	0.012829
 156	7.7500e-02	1.5470	-14.377617	0.000500	5.003349	0.847590	0.010006
 157	7.8000e-02	1.5543	-14.316467	0.000612	6.115205	1.035944	0.012230
 158	7.8500e-02	1.5658	-14.249757	0.000667	6.671132	1.130120	0.013342
 159	7.9000e-02	1.5761	-14.185613	0.000641	6.414550	1.086654	0.012829
 160	7.9500e-02	1.5854	-14.139857	0.000458	4.575713	0.775147	0.009151
 161	8.0000e-02	1.5955	-14.083838	0.000560	5.602041	0.949011	0.011204
 162	8.0500e-02	1.6055	-14.006011	0.000778	7.782988	1.318474	0.015566
 163	8.1000e-02	1.6137	-13.933742	0.000723	7.227060	1.224297	0.014454
 164	8.1500e-02	1.6248	-13.903381	0.000304	3.036221	0.514350	0.006072
 165	8.2000e-02	1.6354	-13.825553	0.000778	7.782988	1.318474	0.015566
 166	8.2500e-02	1.6443	-13.768679	0.000569	5.687568	0.963500	0.011375
 167	8.3000e-02	1.6560	-13.724633	0.000440	4.404658	0.746169	0.008809
 168	8.3500e-02	1.6653	-13.660062	0.000646	6.457314	1.093899	0.012914
 169	8.4000e-02	1.6767	-13.588648	0.000714	7.141533	1.209808	0.014283
 170	8.4500e-02	1.6891	-13.545031	0.000436	4.361894	0.738925	0.008724
 171	8.5000e-02	1.6962	-13.483025	0.000620	6.200732	1.050432	0.012401
 172	8.5500e-02	1.7056	-13.420592	0.000624	6.243496	1.057677	0.012487
 173	8.6000e-02	1.7162	-13.366283	0.000543	5.430986	0.920034	0.010862
 174	8.6500e-02	1.7282	-13.308126	0.000582	5.815859	0.985233	0.011631
 175	8.7000e-02	1.7353	-13.238851	0.000693	6.927714	1.173587	0.013855
 176	8.7500e-02	1.7447	-13.191384	0.000475	4.746767	0.804124	0.009493
 177	8.8000e-02	1.7540	-13.119116	0.000723	7.227060	1.224297	0.014454
 178	8.8500e-02	1.7683	-13.062669	0.000564	5.644804	0.956256	0.011289
 179	8.9000e-02	1.7756	-13.012637	0.000500	5.003349	0.847590	0.010006
 180	8.9500e-02	1.7879	-12.945500	0.000671	6.713896	1.137365	0.013427
 181	9.0000e-02	1.7957	-12.884350	0.000612	6.115205	1.035944	0.012230
 182	9.0500e-02	1.8049	-12.827475	0.000569	5.687568	0.963500	0.011375
 183	9.1000e-02	1.8124	-12.783858	0.000436	4.361894	0.738925	0.008724
 184	9.1500e-02	1.8244	-12.699615	0.000842	8.424443	1.427139	0.016848
 185	9.2000e-02	1.8332	-12.652577	0.000470	4.704004	0.796880	0.009408
 186	9.2500e-02	1.8434	-12.616228	0.000363	3.634912	0.615771	0.007270
 187	9.3000e-02	1.8565	-12.545670	0.000706	7.056005	1.195320	0.014112
 188	9.3500e-02	1.8665	-12.476823	0.000688	6.884951	1.166342	0.013770
 189	9.4000e-02	1.8752	-12.431922	0.000449	4.490185	0.760658	0.008980
 190	9.4500e-02	1.8848	-12.367778	0.000641	6.414550	1.086654	0.012829
 191	9.5000e-02	1.8980	-12.318174	0.000496	4.960586	0.840346	0.009921
 192	9.5500e-02	1.9032	-12.251892	0.000663	6.628369	1.122876	0.013256
 193	9.6000e-02	1.9177	-12.199721	0.000522	5.217168	0.883812	0.010434
 194	9.6500e-02	1.9269	-12.143703	0.000560	5.602041	0.949011	0.011204
 195	9.7000e-02	1.9370	-12.077421	0.000663	6.628369	1.122876	0.013256
 196	9.7500e-02	1.9440	-12.025678	0.000517	5.174404	0.876568	0.010349
 197	9.8000e-02	1.9553	-11.952554	0.000731	7.312587	1.238786	0.014625
 198	9.8500e-02	1.9659	-11.914923	0.000376	3.763203	0.637504	0.007526
 199	9.9000e-02	1.9770	-11.842227	0.000727	7.269824	1.231541	0.014539
 200	9.9500e-02	1.9852	-11.780649	0.000616	6.157968	1.043188	0.012316
 201	1.0000e-01	1.9956	-11.743445	0.000372	3.720439	0.630259	0.007441
 202	1.0050e-01	2.0068	-11.667756	0.000757	7.569169	1.282252	0.015138
 203	1.0100e-01	2.0160	-11.613875	0.000539	5.388222	0.912790	0.010776
 204	1.0150e-01	2.0268	-11.559994	0.000539	5.388222	0.912790	0.010776
 205	1.0200e-01	2.0349	-11.501409	0.000586	5.858623	0.992478	0.011717
 206	1.0250e-01	2.0481	-11.457364	0.000440	4.404658	0.746169	0.008809
 207	1.0300e-01	2.0541	-11.382530	0.000748	7.483642	1.267763	0.014967
 208	1.0350e-01	2.0674	-11.322662	0.000599	5.986914	1.014211	0.011974
 209	1.0400e-01	2.0746	-11.273913	0.000488	4.875058	0.825857	0.009750
 210	1.0450e-01	2.0868	-11.214900	0.000590	5.901386	0.999722	0.011802
 211	1.0500e-01	2.0976	-11.170855	0.000440	4.404658	0.746169	0.008809
 212	1.0550e-01	2.1066	-11.093455	0.000774	7.740224	1.311229	0.015480
 213	1.0600e-01	2.1149	-11.056251	0.000372	3.720439	0.630259	0.007441
 214	1.0650e-01	2.1259	-10.996384	0.000599	5.986914	1.014211	0.011974
 215	1.0700e-01	2.1338	-10.922405	0.000740	7.398115	1.253275	0.014796
 216	1.0750e-01	2.1457	-10.880925	0.000415	4.148076	0.702703	0.008296
 217	1.0800e-01	2.1571	-10.827472	0.000535	5.345459	0.905545	0.010691
 218	1.0850e-01	2.1641	-10.768887	0.000586	5.858623	0.992478	0.011717
 219	1.0900e-01	2.1744	-10.697474	0.000714	7.141533	1.209808	0.014283
 220	1.0950e-01	2.1871	-10.634613	0.000629	6.286259	1.064921	0.012572
 221	1.1000e-01	2.1943	-10.585008	0.000496	4.960586	0.840346	0.009921
 222	1.1050e-01	2.2032	-10.522148	0.000629	6.286259	1.064921	0.012572
 223	1.1100e-01	2.2162	-10.479385	0.000428	4.276367	0.724436	0.008553
 224	1.1150e-01	2.2272	-10.414814	0.000646	6.457314	1.093899	0.012914
 225	1.1200e-01	2.2372	-10.368630	0.000462	4.618476	0.782391	0.009237
 226	1.1250e-01	2.2437	-10.294651	0.000740	7.398115	1.253275	0.014796
 227	1.1300e-01	2.2536	-10.241198	0.000535	5.345459	0.905545	0.010691
 228	1.1350e-01	2.2664	-10.198435	0.000428	4.276367	0.724436	0.008553
 229	1.1400e-01	2.2766	-10.133864	0.000646	6.457314	1.093899	0.012914
 230	1.1450e-01	2.2849	-10.088535	0.000453	4.532949	0.767902	0.009066
 231	1.1500e-01	2.2971	-10.029523	0.000590	5.901386	0.999722	0.011802
 232	1.1550e-01	2.3071	-9.988471	0.000411	4.105312	0.695459	0.008210
 233	1.1600e-01	2.3177	-9.910643	0.000778	7.782988	1.318474	0.015566
 234	1.1650e-01	2.3267	-9.848210	0.000624	6.243496	1.057677	0.012487
 235	1.1700e-01	2.3362	-9.815711	0.000325	3.250039	0.550571	0.006500
 236	1.1750e-01	2.3474	-9.748573	0.000671	6.713896	1.137365	0.013427
 237	1.1800e-01	2.3583	-9.691699	0.000569	5.687568	0.963500	0.011375
 238	1.1850e-01	2.3667	-9.643378	0.000483	4.832295	0.818613	0.009664
 239	1.1900e-01	2.3763	-9.570254	0.000731	7.312587	1.238786	0.014625
 240	1.1950e-01	2.3867	-9.518939	0.000513	5.131640	0.869323	0.010263
 241	1.2000e-01	2.3953	-9.465485	0.000535	5.345459	0.905545	0.010691
 242	1.2050e-01	2.4048	-9.415453	0.000500	5.003349	0.847590	0.010006
 243	1.2100e-01	2.4191	-9.366276	0.000492	4.917822	0.833102	0.009835
 244	1.2150e-01	2.4253	-9.298712	0.000676	6.756660	1.144609	0.013513
 245	1.2200e-01	2.4353	-9.244831	0.000539	5.388222	0.912790	0.010776
 246	1.2250e-01	2.4475	-9.193516	0.000513	5.131640	0.869323	0.010263
 247	1.2300e-01	2.4545	-9.123813	0.000697	6.970478	1.180831	0.013941
 248	1.2350e-01	2.4673	-9.081478	0.000423	4.233603	0.717192	0.008467
 249	1.2400e-01	2.4762	-9.022038	0.000594	5.944150	1.006966	0.011888
 250	1.2450e-01	2.4861	-8.977993	0.000440	4.404658	0.746169	0.008809
 251	1.2500e-01	2.4960	-8.921974	0.000560	5.602041	0.949011	0.011204
 252	1.2550e-01	2.5049	-8.855692	0.000663	6.628369	1.122876	0.013256
 253	1.2600e-01	2.5177	-8.811219	0.000445	4.447422	0.753414	0.008895
 254	1.2650e-01	2.5294	-8.744082	0.000671	6.713896	1.137365	0.013427
 255	1.2700e-01	2.5373	-8.700464	0.000436	4.361894	0.738925	0.008724
 256	1.2750e-01	2.5488	-8.641879	0.000586	5.858623	0.992478	0.011717
 257	1.2800e-01	2.5536	-8.584577	0.000573	5.730332	0.970744	0.011460
 258	1.2850e-01	2.5659	-8.520861	0.000637	6.371787	1.079410	0.012743
 259	1.2900e-01	2.5772	-8.472967	0.000479	4.789531	0.811369	0.009579
 260	1.2950e-01	2.5859	-8.428922	0.000440	4.404658	0.746169	0.008809
 261	1.3000e-01	2.5977	-8.365633	0.000633	6.329023	1.072166	0.012658
 262	1.3050e-01	2.6065	-8.313463	0.000522	5.217168	0.883812	0.010434
 263	1.3100e-01	2.6162	-8.250174	0.000633	6.329023	1.072166	0.012658
 264	1.3150e-01	2.6249	-8.204419	0.000458	4.575713	0.775147	0.009151
 265	1.3200e-01	2.6358	-8.150538	0.000539	5.388222	0.912790	0.010776
 266	1.3250e-01	2.6477	-8.091953	0.000586	5.858623	0.992478	0.011717
 267	1.3300e-01	2.6559	-8.033368	0.000586	5.858623	0.992478	0.011717
 268	1.3350e-01	2.6645	-7.971363	0.000620	6.200732	1.050432	0.012401
 269	1.3400e-01	2.6743	-7.933304	0.000381	3.805967	0.644748	0.007612
 270	1.3450e-01	2.6855	-7.874292	0.000590	5.901386	0.999722	0.011802
 271	1.3500e-01	2.6978	-7.811859	0.000624	6.243496	1.057677	0.012487
 272	1.3550e-01	2.7063	-7.759688	0.000522	5.217168	0.883812	0.010434
 273	1.3600e-01	2.7148	-7.718636	0.000411	4.105312	0.695459	0.008210
 274	1.3650e-01	2.7254	-7.659624	0.000590	5.901386	0.999722	0.011802
 275	1.3700e-01	2.7380	-7.607026	0.000526	5.259931	0.891056	0.010520
 276	1.3750e-01	2.7448	-7.552718	0.000543	5.430986	0.920034	0.010862
 277	1.3800e-01	2.7588	-7.501403	0.000513	5.131640	0.869323	0.010263
 278	1.3850e-01	2.7664	-7.432127	0.000693	6.927714	1.173587	0.013855
 279	1.3900e-01	2.7766	-7.391930	0.000402	4.019785	0.680970	0.008039
 280	1.3950e-01	2.7875	-7.327787	0.000641	6.414550	1.086654	0.012829
 281	1.4000e-01	2.7966	-7.272623	0.000552	5.516513	0.934523	0.011033
 282	1.4050e-01	2.8078	-7.221308	0.000513	5.131640	0.869323	0.010263
 283	1.4100e-01	2.8156	-7.172131	0.000492	4.917822	0.833102	0.009835
 284	1.4150e-01	2.8259	-7.110981	0.000612	6.115205	1.035944	0.012230
 285	1.4200e-01	2.8358	-7.050258	0.000607	6.072441	1.028699	0.012145
 286	1.4250e-01	2.8470	-7.014337	0.000359	3.592148	0.608526	0.007184
 287	1.4300e-01	2.8577	-6.937792	0.000765	7.654697	1.296741	0.015309
 288	1.4350e-01	2.8632	-6.898451	0.000393	3.934258	0.666481	0.007868
 289	1.4400e-01	2.8753	-6.845853	0.000526	5.259931	0.891056	0.010520
 290	1.4450e-01	2.8845	-6.780426	0.000654	6.542841	1.108387	0.013085
 291	1.4500e-01	2.8955	-6.737236	0.000432	4.319131	0.731681	0.008638
 292	1.4550e-01	2.9059	-6.670527	0.000667	6.671132	1.130120	0.013342
 293	1.4600e-01	2.9154	-6.632468	0.000381	3.805967	0.644748	0.007612
 294	1.4650e-01	2.9269	-6.575166	0.000573	5.730332	0.970744	0.011460
 295	1.4700e-01	2.9364	-6.516582	0.000586	5.858623	0.992478	0.011717
 296	1.4750e-01	2.9453	-6.475957	0.000406	4.062549	0.688214	0.008125
 297	1.4800e-01	2.9605	-6.416090	0.000599	5.986914	1.014211	0.011974
 298	1.4850e-01	2.9660	-6.372472	0.000436	4.361894	0.738925	0.008724
 299	1.4900e-01	2.9767	-6.316453	0.000560	5.602041	0.949011	0.011204
 300	1.4950e-01	2.9880	-6.257868	0.000586	5.858623	0.992478	0.011717
 301	1.5000e-01	2.9967	-6.214678	0.000432	4.319131	0.731681	0.008638
 302	1.5050e-01	3.0051	-6.151390	0.000633	6.329023	1.072166	0.012658
 303	1.5100e-01	3.0143	-6.105634	0.000458	4.575713	0.775147	0.009151
 304	1.5150e-01	3.0286	-6.054746	0.000509	5.088877	0.862079	0.010177
 305	1.5200e-01	3.0377	-6.000438	0.000543	5.430986	0.920034	0.010862
 306	1.5250e-01	3.0484	-5.942281	0.000582	5.815859	0.985233	0.011631
 307	1.5300e-01	3.0560	-5.902084	0.000402	4.019785	0.680970	0.008039
 308	1.5350e-01	3.0675	-5.836657	0.000654	6.542841	1.108387	0.013085
 309	1.5400e-01	3.0762	-5.780211	0.000564	5.644804	0.956256	0.011289
 310	1.5450e-01	3.0890	-5.731034	0.000492	4.917822	0.833102	0.009835
 311	1.5500e-01	3.0975	-5.678864	0.000522	5.217168	0.883812	0.010434
 312	1.5550e-01	3.1076	-5.630114	0.000488	4.875058	0.825857	0.009750
 313	1.5600e-01	3.1177	-5.573240	0.000569	5.687568	0.963500	0.011375
 314	1.5650e-01	3.1253	-5.511235	0.000620	6.200732	1.050432	0.012401
 315	1.5700e-01	3.1351	-5.475742	0.000355	3.549385	0.601282	0.007099
 316	1.5750e-01	3.1448	-5.421006	0.000547	5.473750	0.927278	0.010947
 317	1.5800e-01	3.1558	-5.358145	0.000629	6.286259	1.064921	0.012572
 318	1.5850e-01	3.1671	-5.313244	0.000449	4.490185	0.760658	0.008980
 319	1.5900e-01	3.1776	-5.263212	0.000500	5.003349	0.847590	0.010006
 320	1.5950e-01	3.1860	-5.224726	0.000385	3.848730	0.651993	0.007697
 321	1.6000e-01	3.1979	-5.152885	0.000718	7.184296	1.217053	0.014368
 322	1.6050e-01	3.2037	-5.100287	0.000526	5.259931	0.891056	0.010520
 323	1.6100e-01	3.2178	-5.057096	0.000432	4.319131	0.731681	0.008638
 324	1.6150e-01	3.2245	-4.996374	0.000607	6.072441	1.028699	0.012145
 325	1.6200e-01	3.2356	-4.950618	0.000458	4.575713	0.775147	0.009151
 326	1.6250e-01	3.2495	-4.897165	0.000535	5.345459	0.905545	0.010691
 327	1.6300e-01	3.2565	-4.849698	0.000475	4.746767	0.804124	0.009493
 328	1.6350e-01	3.2676	-4.791969	0.000577	5.773095	0.977989	0.011546
 329	1.6400e-01	3.2776	-4.739799	0.000522	5.217168	0.883812	0.010434
 330	1.6450e-01	3.2861	-4.700457	0.000393	3.934258	0.666481	0.007868
 331	1.6500e-01	3.2964	-4.630326	0.000701	7.013242	1.188075	0.014026
 332	1.6550e-01	3.3064	-4.586281	0.000440	4.404658	0.746169	0.008809
 333	1.6600e-01	3.3163	-4.535821	0.000505	5.046113	0.854835	0.010092
 334	1.6650e-01	3.3258	-4.477237	0.000586	5.858623	0.992478	0.011717
 335	1.6700e-01	3.3362	-4.420790	0.000564	5.644804	0.956256	0.011289
 336	1.6750e-01	3.3459	-4.379738	0.000411	4.105312	0.695459	0.008210
 337	1.6800e-01	3.3554	-4.329706	0.000500	5.003349	0.847590	0.010006
 338	1.6850e-01	3.3633	-4.283095	0.000466	4.661240	0.789635	0.009322
 339	1.6900e-01	3.3762	-4.227076	0.000560	5.602041	0.949011	0.011204
 340	1.6950e-01	3.3861	-4.160366	0.000667	6.671132	1.130120	0.013342
 341	1.7000e-01	3.3942	-4.114183	0.000462	4.618476	0.782391	0.009237
 342	1.7050e-01	3.4042	-4.075696	0.000385	3.848730	0.651993	0.007697
 343	1.7100e-01	3.4174	-4.018822	0.000569	5.687568	0.963500	0.011375
 344	1.7150e-01	3.4303	-3.963659	0.000552	5.516513	0.934523	0.011033
 345	1.7200e-01	3.4372	-3.920896	0.000428	4.276367	0.724436	0.008553
 346	1.7250e-01	3.4425	-3.845206	0.000757	7.569169	1.282252	0.015138
 347	1.7300e-01	3.4567	-3.820404	0.000248	2.480293	0.420173	0.004960
 348	1.7350e-01	3.4671	-3.757971	0.000624	6.243496	1.057677	0.012487
 349	1.7400e-01	3.4756	-3.716919	0.000411	4.105312	0.695459	0.008210
 350	1.7450e-01	3.4836	-3.654058	0.000629	6.286259	1.064921	0.012572
 351	1.7500e-01	3.4961	-3.615999	0.000381	3.805967	0.644748	0.007612
 352	1.7550e-01	3.5075	-3.562974	0.000530	5.302695	0.898301	0.010605
 353	1.7600e-01	3.5164	-3.509093	0.000539	5.388222	0.912790	0.010776
 354	1.7650e-01	3.5274	-3.455640	0.000535	5.345459	0.905545	0.010691
 355	1.7700e-01	3.5352	-3.402187	0.000535	5.345459	0.905545	0.010691
 356	1.7750e-01	3.5458	-3.337615	0.000646	6.457314	1.093899	0.012914
 357	1.7800e-01	3.5556	-3.299984	0.000376	3.763203	0.637504	0.007526
 358	1.7850e-01	3.5681	-3.249097	0.000509	5.088877	0.862079	0.010177
 359	1.7900e-01	3.5785	-3.193933	0.000552	5.516513	0.934523	0.011033
 360	1.7950e-01	3.5853	-3.151171	0.000428	4.276367	0.724436	0.008553
 361	1.8000e-01	3.5956	-3.094724	0.000564	5.644804	0.956256	0.011289
 362	1.8050e-01	3.6069	-3.041699	0.000530	5.302695	0.898301	0.010605
 363	1.8100e-01	3.6153	-2.991239	0.000505	5.046113	0.854835	0.010092
 364	1.8150e-01	3.6263	-2.939496	0.000517	5.174404	0.876568	0.010349
 365	1.8200e-01	3.6353	-2.892030	0.000475	4.746767	0.804124	0.009493
 366	1.8250e-01	3.6450	-2.849267	0.000428	4.276367	0.724436	0.008553
 367	1.8300e-01	3.6560	-2.804794	0.000445	4.447422	0.753414	0.008895
 368	1.8350e-01	3.6658	-2.740223	0.000646	6.457314	1.093899	0.012914
 369	1.8400e-01	3.6776	-2.693612	0.000466	4.661240	0.789635	0.009322
 370	1.8450e-01	3.6865	-2.646145	0.000475	4.746767	0.804124	0.009493
 371	1.8500e-01	3.6972	-2.597396	0.000488	4.875058	0.825857	0.009750
 372	1.8550e-01	3.7083	-2.541805	0.000556	5.559277	0.941767	0.011118
 373	1.8600e-01	3.7158	-2.487496	0.000543	5.430986	0.920034	0.010862
 374	1.8650e-01	3.7280	-2.441740	0.000458	4.575713	0.775147	0.009151
 375	1.8700e-01	3.7355	-2.380590	0.000612	6.115205	1.035944	0.012230
 376	1.8750e-01	3.7463	-2.342531	0.000381	3.805967	0.644748	0.007612
 377	1.8800e-01	3.7570	-2.294637	0.000479	4.789531	0.811369	0.009579
 378	1.8850e-01	3.7677	-2.249309	0.000453	4.532949	0.767902	0.009066
 379	1.8900e-01	3.7756	-2.202270	0.000470	4.704004	0.796880	0.009408
 380	1.8950e-01	3.7878	-2.141120	0.000612	6.115205	1.035944	0.012230
 381	1.9000e-01	3.7964	-2.103061	0.000381	3.805967	0.644748	0.007612
 382	1.9050e-01	3.8058	-2.056878	0.000462	4.618476	0.782391	0.009237
 383	1.9100e-01	3.8153	-1.994444	0.000624	6.243496	1.057677	0.012487
 384	1.9150e-01	3.8284	-1.958096	0.000363	3.634912	0.615771	0.007270
 385	1.9200e-01	3.8367	-1.891387	0.000667	6.671132	1.130120	0.013342
 386	1.9250e-01	3.8467	-1.855466	0.000359	3.592148	0.608526	0.007184
 387	1.9300e-01	3.8577	-1.802868	0.000526	5.259931	0.891056	0.010520
 388	1.9350e-01	3.8663	-1.744711	0.000582	5.815859	0.985233	0.011631
 389	1.9400e-01	3.8747	-1.693396	0.000513	5.131640	0.869323	0.010263
 390	1.9450e-01	3.8855	-1.639943	0.000535	5.345459	0.905545	0.010691
 391	1.9500e-01	3.8966	-1.606588	0.000334	3.335566	0.565060	0.006671
 392	1.9550e-01	3.9056	-1.547148	0.000594	5.944150	1.006966	0.011888
 393	1.9600e-01	3.9178	-1.512511	0.000346	3.463857	0.586793	0.006928
 394	1.9650e-01	3.9261	-1.453498	0.000590	5.901386	0.999722	0.011802
 395	1.9700e-01	3.9358	-1.403894	0.000496	4.960586	0.840346	0.009921
 396	1.9750e-01	3.9447	-1.349158	0.000547	5.473750	0.927278	0.010947
 397	1.9800e-01	3.9560	-1.296132	0.000530	5.302695	0.898301	0.010605
 398	1.9850e-01	3.9667	-1.264060	0.000321	3.207275	0.543327	0.006414
 399	1.9900e-01	3.9745	-1.208041	0.000560	5.602041	0.949011	0.011204
 400	1.9950e-01	3.9853	-1.140904	0.000671	6.713896	1.137365	0.013427
 401	2.0000e-01	3.9948	-1.106694	0.000342	3.421094	0.579549	0.006842
 402	2.0050e-01	4.0050	-1.060938	0.000458	4.575713	0.775147	0.009151
 403	2.0100e-01	4.0149	-1.009623	0.000513	5.131640	0.869323	0.010263
 404	2.0150e-01	4.0262	-0.961302	0.000483	4.832295	0.818613	0.009664
 405	2.0200e-01	4.0356	-0.911269	0.000500	5.003349	0.847590	0.010006
 406	2.0250e-01	4.0463	-0.865514	0.000458	4.575713	0.775147	0.009151
 407	2.0300e-01	4.0579	-0.815481	0.000500	5.003349	0.847590	0.010006
 408	2.0350e-01	4.0680	-0.780844	0.000346	3.463857	0.586793	0.006928
 409	2.0400e-01	4.0790	-0.723970	0.000569	5.687568	0.963500	0.011375
 410	2.0450e-01	4.0869	-0.676931	0.000470	4.704004	0.796880	0.009408
 411	2.0500e-01	4.0974	-0.626899	0.000500	5.003349	0.847590	0.010006
 412	2.0550e-01	4.1058	-0.561900	0.000650	6.500078	1.101143	0.013000
 413	2.0600e-01	4.1196	-0.527690	0.000342	3.421094	0.579549	0.006842
 414	2.0650e-01	4.1257	-0.471671	0.000560	5.602041	0.949011	0.011204
 415	2.0700e-01	4.1340	-0.427198	0.000445	4.447422	0.753414	0.008895
 416	2.0750e-01	4.1473	-0.386146	0.000411	4.105312	0.695459	0.008210
 417	2.0800e-01	4.1553	-0.332692	0.000535	5.345459	0.905545	0.010691
 418	2.0850e-01	4.1638	-0.284798	0.000479	4.789531	0.811369	0.009579
 419	2.0900e-01	4.1776	-0.233056	0.000517	5.174404	0.876568	0.010349
 420	2.0950e-01	4.1846	-0.184306	0.000488	4.875058	0.825857	0.009750
 421	2.1000e-01	4.1954	-0.151807	0.000325	3.250039	0.550571	0.006500
 422	2.1050e-01	4.2059	-0.081676	0.000701	7.013242	1.188075	0.014026
 423	2.1100e-01	4.2191	-0.050887	0.000308	3.078984	0.521594	0.006158
 424	2.1150e-01	4.2270	0.002993	0.000539	5.388222	0.912790	0.010776
 425	2.1200e-01	4.2361	0.042335	0.000393	3.934258	0.666481	0.007868
 426	2.1250e-01	4.2465	0.110755	0.000684	6.842187	1.159098	0.013684
 427	2.1300e-01	4.2578	0.143682	0.000329	3.292803	0.557816	0.006585
 428	2.1350e-01	4.2676	0.199273	0.000556	5.559277	0.941767	0.011118
 429	2.1400e-01	4.2776	0.242464	0.000432	4.319131	0.731681	0.008638
 430	2.1450e-01	4.2867	0.284371	0.000419	4.190840	0.709947	0.008381
 431	2.1500e-01	4.2975	0.329699	0.000453	4.532949	0.767902	0.009066
 432	2.1550e-01	4.3080	0.387001	0.000573	5.730332	0.970744	0.011460
 433	2.1600e-01	4.3134	0.428908	0.000419	4.190840	0.709947	0.008381
 434	2.1650e-01	4.3265	0.485355	0.000564	5.644804	0.956256	0.011289
 435	2.1700e-01	4.3354	0.538380	0.000530	5.302695	0.898301	0.010605
 436	2.1750e-01	4.3457	0.581570	0.000432	4.319131	0.731681	0.008638
 437	2.1800e-01	4.3561	0.625188	0.000436	4.361894	0.738925	0.008724
 438	2.1850e-01	4.3671	0.672655	0.000475	4.746767	0.804124	0.009493
 439	2.1900e-01	4.3774	0.722687	0.000500	5.003349	0.847590	0.010006
 440	2.1950e-01	4.3866	0.768443	0.000458	4.575713	0.775147	0.009151
 441	2.2000e-01	4.3970	0.829165	0.000607	6.072441	1.028699	0.012145
 442	2.2050e-01	4.4055	0.870645	0.000415	4.148076	0.702703	0.008296
 443	2.2100e-01	4.4182	0.909987	0.000393	3.934258	0.666481	0.007868
 444	2.2150e-01	4.4275	0.962157	0.000522	5.217168	0.883812	0.010434
 445	2.2200e-01	4.4376	1.000643	0.000385	3.848730	0.651993	0.007697
 446	2.2250e-01	4.4464	1.049392	0.000488	4.875058	0.825857	0.009750
 447	2.2300e-01	4.4571	1.103273	0.000539	5.388222	0.912790	0.010776
 448	2.2350e-01	4.4661	1.138766	0.000355	3.549385	0.601282	0.007099
 449	2.2400e-01	4.4753	1.196923	0.000582	5.815859	0.985233	0.011631
 450	2.2450e-01	4.4876	1.248238	0.000513	5.131640	0.869323	0.010263
 451	2.2500e-01	4.4943	1.277744	0.000295	2.950693	0.499861	0.005901
 452	2.2550e-01	4.5071	1.328632	0.000509	5.088877	0.862079	0.010177
 453	2.2600e-01	4.5160	1.383795	0.000552	5.516513	0.934523	0.011033
 454	2.2650e-01	4.5255	1.433828	0.000500	5.003349	0.847590	0.010006
 455	2.2700e-01	4.5367	1.467182	0.000334	3.335566	0.565060	0.006671
 456	2.2750e-01	4.5448	1.529616	0.000624	6.243496	1.057677	0.012487
 457	2.2800e-01	4.5581	1.578365	0.000488	4.875058	0.825857	0.009750
 458	2.2850e-01	4.5654	1.619845	0.000415	4.148076	0.702703	0.008296
 459	2.2900e-01	4.5766	1.660897	0.000411	4.105312	0.695459	0.008210
 460	2.2950e-01	4.5856	1.713067	0.000522	5.217168	0.883812	0.010434
 461	2.3000e-01	4.5969	1.757540	0.000445	4.447422	0.753414	0.008895
 462	2.3050e-01	4.6048	1.816552	0.000590	5.901386	0.999722	0.011802
 463	2.3100e-01	4.6179	1.837078	0.000205	2.052656	0.347729	0.004105
 464	2.3150e-01	4.6265	1.895235	0.000582	5.815859	0.985233	0.011631
 465	2.3200e-01	4.6351	1.940136	0.000449	4.490185	0.760658	0.008980
 466	2.3250e-01	4.6475	1.985892	0.000458	4.575713	0.775147	0.009151
 467	2.3300e-01	4.6609	2.026089	0.000402	4.019785	0.680970	0.008039
 468	2.3350e-01	4.6661	2.082963	0.000569	5.687568	0.963500	0.011375
 469	2.3400e-01	4.6744	2.123159	0.000402	4.019785	0.680970	0.008039
 470	2.3450e-01	4.6869	2.193718	0.000706	7.056005	1.195320	0.014112
 471	2.3500e-01	4.6964	2.200987	0.000073	0.726982	0.123154	0.001454
 472	2.3550e-01	4.7061	2.273256	0.000723	7.227060	1.224297	0.014454
 473	2.3600e-01	4.7186	2.319012	0.000458	4.575713	0.775147	0.009151
 474	2.3650e-01	4.7263	2.360492	0.000415	4.148076	0.702703	0.008296
 475	2.3700e-01	4.7382	2.411807	0.000513	5.131640	0.869323	0.010263
 476	2.3750e-01	4.7455	2.444734	0.000329	3.292803	0.557816	0.006585
 477	2.3800e-01	4.7577	2.500325	0.000556	5.559277	0.941767	0.011118
 478	2.3850e-01	4.7650	2.565324	0.000650	6.500078	1.101143	0.013000
 479	2.3900e-01	4.7760	2.583284	0.000180	1.796074	0.304263	0.003592
 480	2.3950e-01	4.7833	2.648711	0.000654	6.542841	1.108387	0.013085
 481	2.4000e-01	4.7968	2.676079	0.000274	2.736875	0.463639	0.005474
 482	2.4050e-01	4.8077	2.719269	0.000432	4.319131	0.731681	0.008638
 483	2.4100e-01	4.8170	2.773578	0.000543	5.430986	0.920034	0.010862
 484	2.4150e-01	4.8254	2.813347	0.000398	3.977021	0.673726	0.007954
 485	2.4200e-01	4.8361	2.868083	0.000547	5.473750	0.927278	0.010947
 486	2.4250e-01	4.8459	2.911700	0.000436	4.361894	0.738925	0.008724
 487	2.4300e-01	4.8572	2.961733	0.000500	5.003349	0.847590	0.010006
 488	2.4350e-01	4.8643	3.006206	0.000445	4.447422	0.753414	0.008895
 489	2.4400e-01	4.8779	3.034001	0.000278	2.779639	0.470884	0.005559
 490	2.4450e-01	4.8892	3.098145	0.000641	6.414550	1.086654	0.012829
 491	2.4500e-01	4.8978	3.136631	0.000385	3.848730	0.651993	0.007697
 492	2.4550e-01	4.9094	3.182387	0.000458	4.575713	0.775147	0.009151
 493	2.4600e-01	4.9146	3.231137	0.000488	4.875058	0.825857	0.009750
 494	2.4650e-01	4.9255	3.289721	0.000586	5.858623	0.992478	0.011717
 495	2.4700e-01	4.9356	3.318372	0.000287	2.865166	0.485372	0.005730
 496	2.4750e-01	4.9484	3.358997	0.000406	4.062549	0.688214	0.008125
 497	2.4800e-01	4.9551	3.415871	0.000569	5.687568	0.963500	0.011375
 498	2.4850e-01	4.9689	3.445804	0.000299	2.993457	0.507105	0.005987
 499	2.4900e-01	4.9765	3.510804	0.000650	6.500078	1.101143	0.013000
 500	2.4950e-01	4.9878	3.543731	0.000329	3.292803	0.557816	0.006585
 501	2.5000e-01	4.9979	3.587776	0.000440	4.404658	0.746169	0.008809
 502	2.5050e-01	5.0061	3.633532	0.000458	4.575713	0.775147	0.009151
 503	2.5100e-01	5.0183	3.677577	0.000440	4.404658	0.746169	0.008809
 504	2.5150e-01	5.0278	3.731458	0.000539	5.388222	0.912790	0.010776
 505	2.5200e-01	5.0363	3.773365	0.000419	4.190840	0.709947	0.008381
 506	2.5250e-01	5.0485	3.831950	0.000586	5.858623	0.992478	0.011717
 507	2.5300e-01	5.0549	3.867015	0.000351	3.506621	0.594038	0.007013
 508	2.5350e-01	5.0677	3.897377	0.000304	3.036221	0.514350	0.006072
 509	2.5400e-01	5.0757	3.948264	0.000509	5.088877	0.862079	0.010177
 510	2.5450e-01	5.0882	3.989316	0.000411	4.105312	0.695459	0.008210
 511	2.5500e-01	5.0958	4.047046	0.000577	5.773095	0.977989	0.011546
 512	2.5550e-01	5.1068	4.088098	0.000411	4.105312	0.695459	0.008210
 513	2.5600e-01	5.1190	4.121880	0.000338	3.378330	0.572305	0.006756
 514	2.5650e-01	5.1266	4.176188	0.000543	5.430986	0.920034	0.010862
 515	2.5700e-01	5.1375	4.211254	0.000351	3.506621	0.594038	0.007013
 516	2.5750e-01	5.1486	4.257865	0.000466	4.661240	0.789635	0.009322
 517	2.5800e-01	5.1593	4.298062	0.000402	4.019785	0.680970	0.008039
 518	2.5850e-01	5.1672	4.362633	0.000646	6.457314	1.093899	0.012914
 519	2.5900e-01	5.1749	4.405823	0.000432	4.319131	0.731681	0.008638
 520	2.5950e-01	5.1862	4.432764	0.000269	2.694111	0.456395	0.005388
 521	2.6000e-01	5.1981	4.500328	0.000676	6.756660	1.144609	0.013513
 522	2.6050e-01	5.2087	4.526841	0.000265	2.651348	0.449150	0.005303
 523	2.6100e-01	5.2148	4.577729	0.000509	5.088877	0.862079	0.010177
 524	2.6150e-01	5.2261	4.629044	0.000513	5.131640	0.869323	0.010263
 525	2.6200e-01	5.2423	4.665392	0.000363	3.634912	0.615771	0.007270
 526	2.6250e-01	5.2461	4.706016	0.000406	4.062549	0.688214	0.008125
 527	2.6300e-01	5.2573	4.749634	0.000436	4.361894	0.738925	0.008724
 528	2.6350e-01	5.2640	4.797100	0.000475	4.746767	0.804124	0.009493
 529	2.6400e-01	5.2759	4.835159	0.000381	3.805967	0.644748	0.007612
 530	2.6450e-01	5.2869	4.897165	0.000620	6.200732	1.050432	0.012401
 531	2.6500e-01	5.2966	4.938217	0.000411	4.105312	0.695459	0.008210
 532	2.6550e-01	5.3094	4.983545	0.000453	4.532949	0.767902	0.009066
 533	2.6600e-01	5.3180	5.010485	0.000269	2.694111	0.456395	0.005388
 534	2.6650e-01	5.3259	5.071208	0.000607	6.072441	1.028699	0.012145
 535	2.6700e-01	5.3354	5.104991	0.000338	3.378330	0.572305	0.006756
 536	2.6750e-01	5.3467	5.145187	0.000402	4.019785	0.680970	0.008039
 537	2.6800e-01	5.3586	5.197785	0.000526	5.259931	0.891056	0.010520
 538	2.6850e-01	5.3668	5.236699	0.000389	3.891494	0.659237	0.007783
 539	2.6900e-01	5.3760	5.283310	0.000466	4.661240	0.789635	0.009322
 540	2.6950e-01	5.3870	5.320514	0.000372	3.720439	0.630259	0.007441
 541	2.7000e-01	5.3961	5.369691	0.000492	4.917822	0.833102	0.009835
 542	2.7050e-01	5.4042	5.412453	0.000428	4.276367	0.724436	0.008553
 543	2.7100e-01	5.4156	5.449657	0.000372	3.720439	0.630259	0.007441
 544	2.7150e-01	5.4254	5.501827	0.000522	5.217168	0.883812	0.010434
 545	2.7200e-01	5.4335	5.541596	0.000398	3.977021	0.673726	0.007954
 546	2.7250e-01	5.4468	5.597187	0.000556	5.559277	0.941767	0.011118
 547	2.7300e-01	5.4562	5.640805	0.000436	4.361894	0.738925	0.008724
 548	2.7350e-01	5.4675	5.674587	0.000338	3.378330	0.572305	0.006756
 549	2.7400e-01	5.4788	5.719060	0.000445	4.447422	0.753414	0.008895
 550	2.7450e-01	5.4858	5.751988	0.000329	3.292803	0.557816	0.006585
 551	2.7500e-01	5.4977	5.805441	0.000535	5.345459	0.905545	0.010691
 552	2.7550e-01	5.5054	5.851197	0.000458	4.575713	0.775147	0.009151
 553	2.7600e-01	5.5164	5.902084	0.000509	5.088877	0.862079	0.010177
 554	2.7650e-01	5.5254	5.936722	0.000346	3.463857	0.586793	0.006928
 555	2.7700e-01	5.5359	5.976918	0.000402	4.019785	0.680970	0.008039
 556	2.7750e-01	5.5457	6.024385	0.000475	4.746767	0.804124	0.009493
 557	2.7800e-01	5.5536	6.070996	0.000466	4.661240	0.789635	0.009322
 558	2.7850e-01	5.5658	6.117180	0.000462	4.618476	0.782391	0.009237
 559	2.7900e-01	5.5756	6.153528	0.000363	3.634912	0.615771	0.007270
 560	2.7950e-01	5.5859	6.192869	0.000393	3.934258	0.666481	0.007868
 561	2.8000e-01	5.5994	6.227507	0.000346	3.463857	0.586793	0.006928
 562	2.8050e-01	5.6073	6.276256	0.000488	4.875058	0.825857	0.009750
 563	2.8100e-01	5.6166	6.319019	0.000428	4.276367	0.724436	0.008553
 564	2.8150e-01	5.6259	6.369478	0.000505	5.046113	0.854835	0.010092
 565	2.8200e-01	5.6361	6.410103	0.000406	4.062549	0.688214	0.008125
 566	2.8250e-01	5.6483	6.449017	0.000389	3.891494	0.659237	0.007783
 567	2.8300e-01	5.6602	6.478951	0.000299	2.993457	0.507105	0.005987
 568	2.8350e-01	5.6666	6.549081	0.000701	7.013242	1.188075	0.014026
 569	2.8400e-01	5.6778	6.573883	0.000248	2.480293	0.420173	0.004960
 570	2.8450e-01	5.6836	6.626909	0.000530	5.302695	0.898301	0.010605
 571	2.8500e-01	5.6958	6.670954	0.000440	4.404658	0.746169	0.008809
 572	2.8550e-01	5.7065	6.714144	0.000432	4.319131	0.731681	0.008638
 573	2.8600e-01	5.7162	6.760328	0.000462	4.618476	0.782391	0.009237
 574	2.8650e-01	5.7245	6.796248	0.000359	3.592148	0.608526	0.007184
 575	2.8700e-01	5.7358	6.843715	0.000475	4.746767	0.804124	0.009493
 576	2.8750e-01	5.7471	6.880918	0.000372	3.720439	0.630259	0.007441
 577	2.8800e-01	5.7599	6.924964	0.000440	4.404658	0.746169	0.008809
 578	2.8850e-01	5.7678	6.959174	0.000342	3.421094	0.579549	0.006842
 579	2.8900e-01	5.7751	7.014337	0.000552	5.516513	0.934523	0.011033
 580	2.8950e-01	5.7861	7.051968	0.000376	3.763203	0.637504	0.007526
 581	2.9000e-01	5.7962	7.107987	0.000560	5.602041	0.949011	0.011204
 582	2.9050e-01	5.8078	7.134928	0.000269	2.694111	0.456395	0.005388
 583	2.9100e-01	5.8160	7.191374	0.000564	5.644804	0.956256	0.011289
 584	2.9150e-01	5.8240	7.223446	0.000321	3.207275	0.543327	0.006414
 585	2.9200e-01	5.8378	7.264498	0.000411	4.105312	0.695459	0.008210
 586	2.9250e-01	5.8453	7.303840	0.000393	3.934258	0.666481	0.007868
 587	2.9300e-01	5.8569	7.361141	0.000573	5.730332	0.970744	0.011460
 588	2.9350e-01	5.8655	7.392358	0.000312	3.121748	0.528838	0.006243
 589	2.9400e-01	5.8777	7.438542	0.000462	4.618476	0.782391	0.009237
 590	2.9450e-01	5.8853	7.471041	0.000325	3.250039	0.550571	0.006500
 591	2.9500e-01	5.8942	7.521501	0.000505	5.046113	0.854835	0.010092
 592	2.9550e-01	5.9055	7.567257	0.000458	4.575713	0.775147	0.009151
 593	2.9600e-01	5.9180	7.604888	0.000376	3.763203	0.637504	0.007526
 594	2.9650e-01	5.9265	7.644657	0.000398	3.977021	0.673726	0.007954
 595	2.9700e-01	5.9344	7.690841	0.000462	4.618476	0.782391	0.009237
 596	2.9750e-01	5.9467	7.739162	0.000483	4.832295	0.818613	0.009664
 597	2.9800e-01	5.9567	7.780214	0.000411	4.105312	0.695459	0.008210
 598	2.9850e-01	5.9674	7.805017	0.000248	2.480293	0.420173	0.004960
 599	2.9900e-01	5.9778	7.858897	0.000539	5.388222	0.912790	0.010776
 600	2.9950e-01	5.9879	7.897811	0.000389	3.891494	0.659237	0.007783
 601	3.0000e-01	5.9985	7.934587	0.000368	3.677676	0.623015	0.007355
 602	3.0050e-01	6.0083	7.982053	0.000475	4.746767	0.804124	0.009493
 603	3.0100e-01	6.0168	8.027382	0.000453	4.532949	0.767902	0.009066
 604	3.0150e-01	6.0269	8.067578	0.000402	4.019785	0.680970	0.008039
 605	3.0200e-01	6.0358	8.111196	0.000436	4.361894	0.738925	0.008724
 606	3.0250e-01	6.0449	8.160801	0.000496	4.960586	0.840346	0.009921
 607	3.0300e-01	6.0574	8.186031	0.000252	2.523056	0.427417	0.005046
 608	3.0350e-01	6.0651	8.228366	0.000423	4.233603	0.717192	0.008467
 609	3.0400e-01	6.0760	8.281391	0.000530	5.302695	0.898301	0.010605
 610	3.0450e-01	6.0883	8.316029	0.000346	3.463857	0.586793	0.006928
 611	3.0500e-01	6.0968	8.345535	0.000295	2.950693	0.499861	0.005901
 612	3.0550e-01	6.1053	8.396850	0.000513	5.131640	0.869323	0.010263
 613	3.0600e-01	6.1169	8.441323	0.000445	4.447422	0.753414	0.008895
 614	3.0650e-01	6.1237	8.494348	0.000530	5.302695	0.898301	0.010605
 615	3.0700e-01	6.1371	8.527276	0.000329	3.292803	0.557816	0.006585
 616	3.0750e-01	6.1452	8.571749	0.000445	4.447422	0.753414	0.008895
 617	3.0800e-01	6.1560	8.608524	0.000368	3.677676	0.623015	0.007355
 618	3.0850e-01	6.1707	8.651715	0.000432	4.319131	0.731681	0.008638
 619	3.0900e-01	6.1737	8.689346	0.000376	3.763203	0.637504	0.007526
 620	3.0950e-01	6.1859	8.732108	0.000428	4.276367	0.724436	0.008553
 621	3.1000e-01	6.1957	8.779147	0.000470	4.704004	0.796880	0.009408
 622	3.1050e-01	6.2097	8.812502	0.000334	3.335566	0.565060	0.006671
 623	3.1100e-01	6.2189	8.853981	0.000415	4.148076	0.702703	0.008296
 624	3.1150e-01	6.2265	8.903586	0.000496	4.960586	0.840346	0.009921
 625	3.1200e-01	6.2384	8.925822	0.000222	2.223711	0.376707	0.004447
 626	3.1250e-01	6.2457	8.991249	0.000654	6.542841	1.108387	0.013085
 627	3.1300e-01	6.2555	9.023321	0.000321	3.207275	0.543327	0.006414
 628	3.1350e-01	6.2671	9.069932	0.000466	4.661240	0.789635	0.009322
 629	3.1400e-01	6.2787	9.089603	0.000197	1.967129	0.333241	0.003934
 630	3.1450e-01	6.2872	9.139207	0.000496	4.960586	0.840346	0.009921
 631	3.1500e-01	6.2959	9.190095	0.000509	5.088877	0.862079	0.010177
 632	3.1550e-01	6.3089	9.218318	0.000282	2.822402	0.478128	0.005645
 633	3.1600e-01	6.3229	9.271771	0.000535	5.345459	0.905545	0.010691
 634	3.1650e-01	6.3293	9.301277	0.000295	2.950693	0.499861	0.005901
 635	3.1700e-01	6.3412	9.348744	0.000475	4.746767	0.804124	0.009493
 636	3.1750e-01	6.3452	9.388085	0.000393	3.934258	0.666481	0.007868
 637	3.1800e-01	6.3559	9.432558	0.000445	4.447422	0.753414	0.008895
 638	3.1850e-01	6.3672	9.463347	0.000308	3.078984	0.521594	0.006158
 639	3.1900e-01	6.3751	9.506965	0.000436	4.361894	0.738925	0.008724
 640	3.1950e-01	6.3867	9.558708	0.000517	5.174404	0.876568	0.010349
 641	3.2000e-01	6.3959	9.599760	0.000411	4.105312	0.695459	0.008210
 642	3.2050e-01	6.4063	9.624990	0.000252	2.523056	0.427417	0.005046
 643	3.2100e-01	6.4160	9.679726	0.000547	5.473750	0.927278	0.010947
 644	3.2150e-01	6.4288	9.722916	0.000432	4.319131	0.731681	0.008638
 645	3.2200e-01	6.4368	9.753705	0.000308	3.078984	0.521594	0.006158
 646	3.2250e-01	6.4481	9.793474	0.000398	3.977021	0.673726	0.007954
 647	3.2300e-01	6.4571	9.841368	0.000479	4.789531	0.811369	0.009579
 648	3.2350e-01	6.4661	9.879854	0.000385	3.848730	0.651993	0.007697
 649	3.2400e-01	6.4771	9.915347	0.000355	3.549385	0.601282	0.007099
 650	3.2450e-01	6.4862	9.965379	0.000500	5.003349	0.847590	0.010006
 651	3.2500e-01	6.4954	9.994458	0.000291	2.907930	0.492617	0.005816
 652	3.2550e-01	6.5045	10.034227	0.000398	3.977021	0.673726	0.007954
 653	3.2600e-01	6.5192	10.078700	0.000445	4.447422	0.753414	0.008895
 654	3.2650e-01	6.5280	10.127022	0.000483	4.832295	0.818613	0.009664
 655	3.2700e-01	6.5363	10.157811	0.000308	3.078984	0.521594	0.006158
 656	3.2750e-01	6.5479	10.210409	0.000526	5.259931	0.891056	0.010520
 657	3.2800e-01	6.5567	10.241198	0.000308	3.078984	0.521594	0.006158
 658	3.2850e-01	6.5663	10.283105	0.000419	4.190840	0.709947	0.008381
 659	3.2900e-01	6.5796	10.320736	0.000376	3.763203	0.637504	0.007526
 660	3.2950e-01	6.5863	10.367347	0.000466	4.661240	0.789635	0.009322
 661	3.3000e-01	6.5985	10.404123	0.000368	3.677676	0.623015	0.007355
 662	3.3050e-01	6.6077	10.451162	0.000470	4.704004	0.796880	0.009408
 663	3.3100e-01	6.6153	10.493924	0.000428	4.276367	0.724436	0.008553
 664	3.3150e-01	6.6293	10.520437	0.000265	2.651348	0.449150	0.005303
 665	3.3200e-01	6.6373	10.567476	0.000470	4.704004	0.796880	0.009408
 666	3.3250e-01	6.6455	10.615797	0.000483	4.832295	0.818613	0.009664
 667	3.3300e-01	6.6559	10.645731	0.000299	2.993457	0.507105	0.005987
 668	3.3350e-01	6.6675	10.688921	0.000432	4.319131	0.731681	0.008638
 669	3.3400e-01	6.6742	10.724842	0.000359	3.592148	0.608526	0.007184
 670	3.3450e-01	6.6843	10.766749	0.000419	4.190840	0.709947	0.008381
 671	3.3500e-01	6.6946	10.811222	0.000445	4.447422	0.753414	0.008895
 672	3.3550e-01	6.7072	10.859544	0.000483	4.832295	0.818613	0.009664
 673	3.3600e-01	6.7181	10.891616	0.000321	3.207275	0.543327	0.006414
 674	3.3650e-01	6.7249	10.930957	0.000393	3.934258	0.666481	0.007868
 675	3.3700e-01	6.7365	10.973720	0.000428	4.276367	0.724436	0.008553
 676	3.3750e-01	6.7493	11.008357	0.000346	3.463857	0.586793	0.006928
 677	3.3800e-01	6.7566	11.057534	0.000492	4.917822	0.833102	0.009835
 678	3.3850e-01	6.7651	11.107567	0.000500	5.003349	0.847590	0.010006
 679	3.3900e-01	6.7761	11.127237	0.000197	1.967129	0.333241	0.003934
 680	3.3950e-01	6.7862	11.183684	0.000564	5.644804	0.956256	0.011289
 681	3.4000e-01	6.7978	11.219177	0.000355	3.549385	0.601282	0.007099
 682	3.4050e-01	6.8057	11.258091	0.000389	3.891494	0.659237	0.007783
 683	3.4100e-01	6.8176	11.305557	0.000475	4.746767	0.804124	0.009493
 684	3.4150e-01	6.8250	11.338912	0.000334	3.335566	0.565060	0.006671
 685	3.4200e-01	6.8365	11.373122	0.000342	3.421094	0.579549	0.006842
 686	3.4250e-01	6.8475	11.403056	0.000299	2.993457	0.507105	0.005987
 687	3.4300e-01	6.8555	11.451377	0.000483	4.832295	0.818613	0.009664
 688	3.4350e-01	6.8655	11.492429	0.000411	4.105312	0.695459	0.008210
 689	3.4400e-01	6.8762	11.530060	0.000376	3.763203	0.637504	0.007526
 690	3.4450e-01	6.8872	11.569829	0.000398	3.977021	0.673726	0.007954
 691	3.4500e-01	6.8970	11.616868	0.000470	4.704004	0.796880	0.009408
 692	3.4550e-01	6.9061	11.657065	0.000402	4.019785	0.680970	0.008039
 693	3.4600e-01	6.9174	11.696834	0.000398	3.977021	0.673726	0.007954
 694	3.4650e-01	6.9263	11.737459	0.000406	4.062549	0.688214	0.008125
 695	3.4700e-01	6.9386	11.775090	0.000376	3.763203	0.637504	0.007526
 696	3.4750e-01	6.9458	11.802030	0.000269	2.694111	0.456395	0.005388
 697	3.4800e-01	6.9531	11.848213	0.000462	4.618476	0.782391	0.009237
 698	3.4850e-01	6.9690	11.883279	0.000351	3.506621	0.594038	0.007013
 699	3.4900e-01	6.9766	11.926897	0.000436	4.361894	0.738925	0.008724
 700	3.4950e-01	6.9867	11.976929	0.000500	5.003349	0.847590	0.010006
 701	3.5000e-01	6.9995	12.004297	0.000274	2.736875	0.463639	0.005474
 702	3.5050e-01	7.0050	12.047487	0.000432	4.319131	0.731681	0.008638
 703	3.5100e-01	7.0154	12.089822	0.000423	4.233603	0.717192	0.008467
 704	3.5150e-01	7.0258	12.117190	0.000274	2.736875	0.463639	0.005474
 705	3.5200e-01	7.0349	12.167222	0.000500	5.003349	0.847590	0.010006
 706	3.5250e-01	7.0483	12.210412	0.000432	4.319131	0.731681	0.008638
 707	3.5300e-01	7.0583	12.248043	0.000376	3.763203	0.637504	0.007526
 708	3.5350e-01	7.0654	12.277549	0.000295	2.950693	0.499861	0.005901
 709	3.5400e-01	7.0770	12.319884	0.000423	4.233603	0.717192	0.008467
 710	3.5450e-01	7.0862	12.363074	0.000432	4.319131	0.731681	0.008638
 711	3.5500e-01	7.0950	12.410113	0.000470	4.704004	0.796880	0.009408
 712	3.5550e-01	7.1071	12.448599	0.000385	3.848730	0.651993	0.007697
 713	3.5600e-01	7.1167	12.483237	0.000346	3.463857	0.586793	0.006928
 714	3.5650e-01	7.1295	12.520868	0.000376	3.763203	0.637504	0.007526
 715	3.5700e-01	7.1356	12.561065	0.000402	4.019785	0.680970	0.008039
 716	3.5750e-01	7.1472	12.609386	0.000483	4.832295	0.818613	0.009664
 717	3.5800e-01	7.1564	12.641886	0.000325	3.250039	0.550571	0.006500
 718	3.5850e-01	7.1651	12.688497	0.000466	4.661240	0.789635	0.009322
 719	3.5900e-01	7.1765	12.727411	0.000389	3.891494	0.659237	0.007783
 720	3.5950e-01	7.1863	12.760766	0.000334	3.335566	0.565060	0.006671
 721	3.6000e-01	7.1976	12.797114	0.000363	3.634912	0.615771	0.007270
 722	3.6050e-01	7.2107	12.840732	0.000436	4.361894	0.738925	0.008724
 723	3.6100e-01	7.2162	12.872376	0.000316	3.164512	0.536083	0.006329
 724	3.6150e-01	7.2266	12.915139	0.000428	4.276367	0.724436	0.008553
 725	3.6200e-01	7.2354	12.954908	0.000398	3.977021	0.673726	0.007954
 726	3.6250e-01	7.2479	12.994677	0.000398	3.977021	0.673726	0.007954
 727	3.6300e-01	7.2577	13.027176	0.000325	3.250039	0.550571	0.006500
 728	3.6350e-01	7.2652	13.072932	0.000458	4.575713	0.775147	0.009151
 729	3.6400e-01	7.2772	13.108425	0.000355	3.549385	0.601282	0.007099
 730	3.6450e-01	7.2867	13.154609	0.000462	4.618476	0.782391	0.009237
 731	3.6500e-01	7.2974	13.191812	0.000372	3.720439	0.630259	0.007441
 732	3.6550e-01	7.3065	13.216187	0.000244	2.437529	0.412929	0.004875
 733	3.6600e-01	7.3172	13.268357	0.000522	5.217168	0.883812	0.010434
 734	3.6650e-01	7.3267	13.314968	0.000466	4.661240	0.789635	0.009322
 735	3.6700e-01	7.3343	13.333784	0.000188	1.881601	0.318752	0.003763
 736	3.6750e-01	7.3431	13.402631	0.000688	6.884951	1.166342	0.013770
 737	3.6800e-01	7.3578	13.429999	0.000274	2.736875	0.463639	0.005474
 738	3.6850e-01	7.3639	13.457795	0.000278	2.779639	0.470884	0.005559
 739	3.6900e-01	7.3755	13.501413	0.000436	4.361894	0.738925	0.008724
 740	3.6950e-01	7.3865	13.539899	0.000385	3.848730	0.651993	0.007697
 741	3.7000e-01	7.3944	13.594635	0.000547	5.473750	0.927278	0.010947
 742	3.7050e-01	7.4066	13.619865	0.000252	2.523056	0.427417	0.005046
 743	3.7100e-01	7.4182	13.675456	0.000556	5.559277	0.941767	0.011118
 744	3.7150e-01	7.4240	13.698976	0.000235	2.352002	0.398440	0.004704
 745	3.7200e-01	7.4365	13.734041	0.000351	3.506621	0.594038	0.007013
 746	3.7250e-01	7.4457	13.784073	0.000500	5.003349	0.847590	0.010006
 747	3.7300e-01	7.4548	13.813152	0.000291	2.907930	0.492617	0.005816
 748	3.7350e-01	7.4649	13.850355	0.000372	3.720439	0.630259	0.007441
 749	3.7400e-01	7.4765	13.894828	0.000445	4.447422	0.753414	0.008895
 750	3.7450e-01	7.4887	13.926472	0.000316	3.164512	0.536083	0.006329
 751	3.7500e-01	7.4957	13.975222	0.000488	4.875058	0.825857	0.009750
 752	3.7550e-01	7.5070	13.998741	0.000235	2.352002	0.398440	0.004704
 753	3.7600e-01	7.5171	14.057326	0.000586	5.858623	0.992478	0.011717
 754	3.7650e-01	7.5296	14.091963	0.000346	3.463857	0.586793	0.006928
 755	3.7700e-01	7.5385	14.126173	0.000342	3.421094	0.579549	0.006842
 756	3.7750e-01	7.5446	14.170646	0.000445	4.447422	0.753414	0.008895
 757	3.7800e-01	7.5562	14.200152	0.000295	2.950693	0.499861	0.005901
 758	3.7850e-01	7.5684	14.239066	0.000389	3.891494	0.659237	0.007783
 759	3.7900e-01	7.5754	14.284395	0.000453	4.532949	0.767902	0.009066
 760	3.7950e-01	7.5864	14.327585	0.000432	4.319131	0.731681	0.008638
 761	3.8000e-01	7.5995	14.353670	0.000261	2.608584	0.441906	0.005217
 762	3.8050e-01	7.6056	14.401136	0.000475	4.746767	0.804124	0.009493
 763	3.8100e-01	7.6151	14.440906	0.000398	3.977021	0.673726	0.007954
 764	3.8150e-01	7.6245	14.480675	0.000398	3.977021	0.673726	0.007954
 765	3.8200e-01	7.6367	14.523010	0.000423	4.233603	0.717192	0.008467
 766	3.8250e-01	7.6462	14.538832	0.000158	1.582256	0.268041	0.003164
 767	3.8300e-01	7.6563	14.595706	0.000569	5.687568	0.963500	0.011375
 768	3.8350e-01	7.6654	14.643172	0.000475	4.746767	0.804124	0.009493
 769	3.8400e-01	7.6758	14.667119	0.000239	2.394765	0.405684	0.004789
 770	3.8450e-01	7.6874	14.709882	0.000428	4.276367	0.724436	0.008553
 771	3.8500e-01	7.6974	14.750079	0.000402	4.019785	0.680970	0.008039
 772	3.8550e-01	7.7075	14.779585	0.000295	2.950693	0.499861	0.005901
 773	3.8600e-01	7.7142	14.833038	0.000535	5.345459	0.905545	0.010691
 774	3.8650e-01	7.7261	14.864682	0.000316	3.164512	0.536083	0.006329
 775	3.8700e-01	7.7380	14.913004	0.000483	4.832295	0.818613	0.009664
 776	3.8750e-01	7.7478	14.930964	0.000180	1.796074	0.304263	0.003592
 777	3.8800e-01	7.7545	14.985700	0.000547	5.473750	0.927278	0.010947
 778	3.8850e-01	7.7655	15.016489	0.000308	3.078984	0.521594	0.006158
 779	3.8900e-01	7.7765	15.051982	0.000355	3.549385	0.601282	0.007099
 780	3.8950e-01	7.7856	15.108001	0.000560	5.602041	0.949011	0.011204
 781	3.9000e-01	7.7962	15.147342	0.000393	3.934258	0.666481	0.007868
 782	3.9050e-01	7.8082	15.179414	0.000321	3.207275	0.543327	0.006414
 783	3.9100e-01	7.8162	15.220466	0.000411	4.105312	0.695459	0.008210
 784	3.9150e-01	7.8278	15.249117	0.000287	2.865166	0.485372	0.005730
 785	3.9200e-01	7.8357	15.302570	0.000535	5.345459	0.905545	0.010691
 786	3.9250e-01	7.8458	15.321814	0.000192	1.924365	0.325996	0.003849
 787	3.9300e-01	7.8543	15.379115	0.000573	5.730332	0.970744	0.011460
 788	3.9350e-01	7.8677	15.410332	0.000312	3.121748	0.528838	0.006243
 789	3.9400e-01	7.8760	15.450101	0.000398	3.977021	0.673726	0.007954
 790	3.9450e-01	7.8870	15.492008	0.000419	4.190840	0.709947	0.008381
 791	3.9500e-01	7.8955	15.529212	0.000372	3.720439	0.630259	0.007441
 792	3.9550e-01	7.9071	15.559573	0.000304	3.036221	0.514350	0.006072
 793	3.9600e-01	7.9160	15.597204	0.000376	3.763203	0.637504	0.007526
 794	3.9650e-01	7.9257	15.647664	0.000505	5.046113	0.854835	0.010092
 795	3.9700e-01	7.9366	15.684012	0.000363	3.634912	0.615771	0.007270
 796	3.9750e-01	7.9486	15.710953	0.000269	2.694111	0.456395	0.005388
 797	3.9800e-01	7.9547	15.767827	0.000569	5.687568	0.963500	0.011375
 798	3.9850e-01	7.9663	15.796050	0.000282	2.822402	0.478128	0.005645
 799	3.9900e-01	7.9768	15.841806	0.000458	4.575713	0.775147	0.009151
 800	3.9950e-01	7.9858	15.880720	0.000389	3.891494	0.659237	0.007783
 801	4.0000e-01	7.9980	15.908515	0.000278	2.779639	0.470884	0.005559
 802	4.0050e-01	8.0060	15.939304	0.000308	3.078984	0.521594	0.006158
 803	4.0100e-01	8.0164	15.990192	0.000509	5.088877	0.862079	0.010177
 804	4.0150e-01	8.0267	16.037658	0.000475	4.746767	0.804124	0.009493
 805	4.0200e-01	8.0359	16.066309	0.000287	2.865166	0.485372	0.005730
 806	4.0250e-01	8.0487	16.122756	0.000564	5.644804	0.956256	0.011289
 807	4.0300e-01	8.0554	16.146703	0.000239	2.394765	0.405684	0.004789
 808	4.0350e-01	8.0682	16.184334	0.000376	3.763203	0.637504	0.007526
 809	4.0400e-01	8.0762	16.230090	0.000458	4.575713	0.775147	0.009151
 810	4.0450e-01	8.0853	16.273707	0.000436	4.361894	0.738925	0.008724
 811	4.0500e-01	8.0957	16.323740	0.000500	5.003349	0.847590	0.010006
 812	4.0550e-01	8.1055	16.348970	0.000252	2.523056	0.427417	0.005046
 813	4.0600e-01	8.1177	16.386173	0.000372	3.720439	0.630259	0.007441
 814	4.0650e-01	8.1250	16.424232	0.000381	3.805967	0.644748	0.007612
 815	4.0700e-01	8.1351	16.466139	0.000419	4.190840	0.709947	0.008381
 816	4.0750e-01	8.1445	16.512322	0.000462	4.618476	0.782391	0.009237
 817	4.0800e-01	8.1570	16.546960	0.000346	3.463857	0.586793	0.006928
 818	4.0850e-01	8.1653	16.589295	0.000423	4.233603	0.717192	0.008467
 819	4.0900e-01	8.1750	16.626498	0.000372	3.720439	0.630259	0.007441
 820	4.0950e-01	8.1866	16.659425	0.000329	3.292803	0.557816	0.006585
 821	4.1000e-01	8.1989	16.690642	0.000312	3.121748	0.528838	0.006243
 822	4.1050e-01	8.2101	16.736826	0.000462	4.618476	0.782391	0.009237
 823	4.1100e-01	8.2166	16.775312	0.000385	3.848730	0.651993	0.007697
 824	4.1150e-01	8.2281	16.817219	0.000419	4.190840	0.709947	0.008381
 825	4.1200e-01	8.2364	16.854423	0.000372	3.720439	0.630259	0.007441
 826	4.1250e-01	8.2483	16.881791	0.000274	2.736875	0.463639	0.005474
 827	4.1300e-01	8.2562	16.924553	0.000428	4.276367	0.724436	0.008553
 828	4.1350e-01	8.2672	16.978006	0.000535	5.345459	0.905545	0.010691
 829	4.1400e-01	8.2776	17.011361	0.000334	3.335566	0.565060	0.006671
 830	4.1450e-01	8.2886	17.049420	0.000381	3.805967	0.644748	0.007612
 831	4.1500e-01	8.2953	17.082347	0.000329	3.292803	0.557816	0.006585
 832	4.1550e-01	8.3063	17.112708	0.000304	3.036221	0.514350	0.006072
 833	4.1600e-01	8.3179	17.168300	0.000556	5.559277	0.941767	0.011118
 834	4.1650e-01	8.3261	17.211062	0.000428	4.276367	0.724436	0.008553
 835	4.1700e-01	8.3395	17.244844	0.000338	3.378330	0.572305	0.006756
 836	4.1750e-01	8.3466	17.278199	0.000334	3.335566	0.565060	0.006671
 837	4.1800e-01	8.3569	17.326093	0.000479	4.789531	0.811369	0.009579
 838	4.1850e-01	8.3669	17.364152	0.000381	3.805967	0.644748	0.007612
 839	4.1900e-01	8.3768	17.409053	0.000449	4.490185	0.760658	0.008980
 840	4.1950e-01	8.3865	17.435993	0.000269	2.694111	0.456395	0.005388
 841	4.2000e-01	8.3972	17.479183	0.000432	4.319131	0.731681	0.008638
 842	4.2050e-01	8.4064	17.517242	0.000381	3.805967	0.644748	0.007612
 843	4.2100e-01	8.4174	17.558294	0.000411	4.105312	0.695459	0.008210
 844	4.2150e-01	8.4247	17.609181	0.000509	5.088877	0.862079	0.010177
 845	4.2200e-01	8.4369	17.642964	0.000338	3.378330	0.572305	0.006756
 846	4.2250e-01	8.4454	17.678029	0.000351	3.506621	0.594038	0.007013
 847	4.2300e-01	8.4576	17.716515	0.000385	3.848730	0.651993	0.007697
 848	4.2350e-01	8.4674	17.752863	0.000363	3.634912	0.615771	0.007270
 849	4.2400e-01	8.4760	17.794343	0.000415	4.148076	0.702703	0.008296
 850	4.2450e-01	8.4894	17.831546	0.000372	3.720439	0.630259	0.007441
 851	4.2500e-01	8.4998	17.873026	0.000415	4.148076	0.702703	0.008296
 852	4.2550e-01	8.5059	17.910229	0.000372	3.720439	0.630259	0.007441
 853	4.2600e-01	8.5156	17.956413	0.000462	4.618476	0.782391	0.009237
 854	4.2650e-01	8.5248	18.004307	0.000479	4.789531	0.811369	0.009579
 855	4.2700e-01	8.5370	18.032958	0.000287	2.865166	0.485372	0.005730
 856	4.2750e-01	8.5452	18.075720	0.000428	4.276367	0.724436	0.008553
 857	4.2800e-01	8.5571	18.094963	0.000192	1.924365	0.325996	0.003849
 858	4.2850e-01	8.5645	18.139864	0.000449	4.490185	0.760658	0.008980
 859	4.2900e-01	8.5754	18.204008	0.000641	6.414550	1.086654	0.012829
 860	4.2950e-01	8.5889	18.230948	0.000269	2.694111	0.456395	0.005388
 861	4.3000e-01	8.5944	18.273711	0.000428	4.276367	0.724436	0.008553
 862	4.3050e-01	8.6084	18.307066	0.000334	3.335566	0.565060	0.006671
 863	4.3100e-01	8.6188	18.353677	0.000466	4.661240	0.789635	0.009322
 864	4.3150e-01	8.6261	18.390453	0.000368	3.677676	0.623015	0.007355
 865	4.3200e-01	8.6383	18.431505	0.000411	4.105312	0.695459	0.008210
 866	4.3250e-01	8.6450	18.484958	0.000535	5.345459	0.905545	0.010691
 867	4.3300e-01	8.6578	18.505484	0.000205	2.052656	0.347729	0.004105
 868	4.3350e-01	8.6670	18.551240	0.000458	4.575713	0.775147	0.009151
 869	4.3400e-01	8.6765	18.596568	0.000453	4.532949	0.767902	0.009066
 870	4.3450e-01	8.6896	18.635482	0.000389	3.891494	0.659237	0.007783
 871	4.3500e-01	8.6975	18.672258	0.000368	3.677676	0.623015	0.007355
 872	4.3550e-01	8.7088	18.710316	0.000381	3.805967	0.644748	0.007612
 873	4.3600e-01	8.7177	18.753079	0.000428	4.276367	0.724436	0.008553
 874	4.3650e-01	8.7244	18.792848	0.000398	3.977021	0.673726	0.007954
 875	4.3700e-01	8.7366	18.842452	0.000496	4.960586	0.840346	0.009921
 876	4.3750e-01	8.7457	18.866827	0.000244	2.437529	0.412929	0.004875
 877	4.3800e-01	8.7592	18.916859	0.000500	5.003349	0.847590	0.010006
 878	4.3850e-01	8.7653	18.951925	0.000351	3.506621	0.594038	0.007013
 879	4.3900e-01	8.7762	18.987417	0.000355	3.549385	0.601282	0.007099
 880	4.3950e-01	8.7860	19.028469	0.000411	4.105312	0.695459	0.008210
 881	4.4000e-01	8.7970	19.075508	0.000470	4.704004	0.796880	0.009408
 882	4.4050e-01	8.8086	19.120837	0.000453	4.532949	0.767902	0.009066
 883	4.4100e-01	8.8141	19.158895	0.000381	3.805967	0.644748	0.007612
 884	4.4150e-01	8.8281	19.201658	0.000428	4.276367	0.724436	0.008553
 885	4.4200e-01	8.8385	19.236295	0.000346	3.463857	0.586793	0.006928
 886	4.4250e-01	8.8477	19.272216	0.000359	3.592148	0.608526	0.007184
 887	4.4300e-01	8.8538	19.320965	0.000488	4.875058	0.825857	0.009750
 888	4.4350e-01	8.8678	19.360307	0.000393	3.934258	0.666481	0.007868
 889	4.4400e-01	8.8745	19.399221	0.000389	3.891494	0.659237	0.007783
 890	4.4450e-01	8.8849	19.445832	0.000466	4.661240	0.789635	0.009322
 891	4.4500e-01	8.8953	19.471917	0.000261	2.608584	0.441906	0.005217
 892	4.4550e-01	8.9038	19.518528	0.000466	4.661240	0.789635	0.009322
 893	4.4600e-01	8.9166	19.556587	0.000381	3.805967	0.644748	0.007612
 894	4.4650e-01	8.9240	19.606191	0.000496	4.960586	0.840346	0.009921
 895	4.4700e-01	8.9362	19.645960	0.000398	3.977021	0.673726	0.007954
 896	4.4750e-01	8.9465	19.669052	0.000231	2.309238	0.391196	0.004618
 897	4.4800e-01	8.9577	19.720367	0.000513	5.131640	0.869323	0.010263
 898	4.4850e-01	8.9655	19.763130	0.000428	4.276367	0.724436	0.008553
 899	4.4900e-01	8.9752	19.802471	0.000393	3.934258	0.666481	0.007868
 900	4.4950e-01	8.9862	19.829412	0.000269	2.694111	0.456395	0.005388
 901	4.5000e-01	8.9960	19.884148	0.000547	5.473750	0.927278	0.010947
 902	4.5050e-01	9.0051	19.931614	0.000475	4.746767	0.804124	0.009493
 903	4.5100e-01	9.0161	19.967107	0.000355	3.549385	0.601282	0.007099
 904	4.5150e-01	9.0271	20.003883	0.000368	3.677676	0.623015	0.007355
 905	4.5200e-01	9.0350	20.041514	0.000376	3.763203	0.637504	0.007526
 906	4.5250e-01	9.0466	20.084704	0.000432	4.319131	0.731681	0.008638
 907	4.5300e-01	9.0576	20.142433	0.000577	5.773095	0.977989	0.011546
 908	4.5350e-01	9.0692	20.165953	0.000235	2.352002	0.398440	0.004704
 909	4.5400e-01	9.0781	20.222399	0.000564	5.644804	0.956256	0.011289
 910	4.5450e-01	9.0869	20.238649	0.000163	1.625019	0.275286	0.003250
 911	4.5500e-01	9.0948	20.292102	0.000535	5.345459	0.905545	0.010691
 912	4.5550e-01	9.1071	20.325029	0.000329	3.292803	0.557816	0.006585
 913	4.5600e-01	9.1174	20.374634	0.000496	4.960586	0.840346	0.009921
 914	4.5650e-01	9.1266	20.428515	0.000539	5.388222	0.912790	0.010776
 915	4.5700e-01	9.1345	20.478119	0.000496	4.960586	0.840346	0.009921
 916	4.5750e-01	9.1449	20.500356	0.000222	2.223711	0.376707	0.004447
 917	4.5800e-01	9.1559	20.539697	0.000393	3.934258	0.666481	0.007868
 918	4.5850e-01	9.1666	20.589302	0.000496	4.960586	0.840346	0.009921
 919	4.5900e-01	9.1763	20.626933	0.000376	3.763203	0.637504	0.007526
 920	4.5950e-01	9.1864	20.661143	0.000342	3.421094	0.579549	0.006842
 921	4.6000e-01	9.1968	20.718445	0.000573	5.730332	0.970744	0.011460
 922	4.6050e-01	9.2041	20.749661	0.000312	3.121748	0.528838	0.006243
 923	4.6100e-01	9.2188	20.793279	0.000436	4.361894	0.738925	0.008724
 924	4.6150e-01	9.2239	20.841601	0.000483	4.832295	0.818613	0.009664
 925	4.6200e-01	9.2371	20.870252	0.000287	2.865166	0.485372	0.005730
 926	4.6250e-01	9.2480	20.919856	0.000496	4.960586	0.840346	0.009921
 927	4.6300e-01	9.2581	20.952356	0.000325	3.250039	0.550571	0.006500
 928	4.6350e-01	9.2682	20.985710	0.000334	3.335566	0.565060	0.006671
 929	4.6400e-01	9.2749	21.041729	0.000560	5.602041	0.949011	0.011204
 930	4.6450e-01	9.2871	21.078933	0.000372	3.720439	0.630259	0.007441
 931	4.6500e-01	9.2944	21.135807	0.000569	5.687568	0.963500	0.011375
 932	4.6550e-01	9.3036	21.169162	0.000334	3.335566	0.565060	0.006671
 933	4.6600e-01	9.3152	21.214062	0.000449	4.490185	0.760658	0.008980
 934	4.6650e-01	9.3292	21.252121	0.000381	3.805967	0.644748	0.007612
 935	4.6700e-01	9.3347	21.287186	0.000351	3.506621	0.594038	0.007013
 936	4.6750e-01	9.3475	21.336791	0.000496	4.960586	0.840346	0.009921
 937	4.6800e-01	9.3567	21.383829	0.000470	4.704004	0.796880	0.009408
 938	4.6850e-01	9.3677	21.427447	0.000436	4.361894	0.738925	0.008724
 939	4.6900e-01	9.3774	21.453532	0.000261	2.608584	0.441906	0.005217
 940	4.6950e-01	9.3866	21.506986	0.000535	5.345459	0.905545	0.010691
 941	4.7000e-01	9.3958	21.556162	0.000492	4.917822	0.833102	0.009835
 942	4.7050e-01	9.4061	21.584386	0.000282	2.822402	0.478128	0.005645
 943	4.7100e-01	9.4159	21.647674	0.000633	6.329023	1.072166	0.012658
 944	4.7150e-01	9.4266	21.679319	0.000316	3.164512	0.536083	0.006329
 945	4.7200e-01	9.4360	21.723364	0.000440	4.404658	0.746169	0.008809
 946	4.7250e-01	9.4446	21.781521	0.000582	5.815859	0.985233	0.011631
 947	4.7300e-01	9.4543	21.810172	0.000287	2.865166	0.485372	0.005730
 948	4.7350e-01	9.4672	21.848658	0.000385	3.848730	0.651993	0.007697
 949	4.7400e-01	9.4772	21.894842	0.000462	4.618476	0.782391	0.009237
 950	4.7450e-01	9.4836	21.927341	0.000325	3.250039	0.550571	0.006500
 951	4.7500e-01	9.4952	21.983788	0.000564	5.644804	0.956256	0.011289
 952	4.7550e-01	9.5038	22.024412	0.000406	4.062549	0.688214	0.008125
 953	4.7600e-01	9.5169	22.074444	0.000500	5.003349	0.847590	0.010006
 954	4.7650e-01	9.5236	22.104806	0.000304	3.036221	0.514350	0.006072
 955	4.7700e-01	9.5367	22.151844	0.000470	4.704004	0.796880	0.009408
 956	4.7750e-01	9.5432	22.206153	0.000543	5.430986	0.920034	0.010862
 957	4.7800e-01	9.5563	22.242073	0.000359	3.592148	0.608526	0.007184
 958	4.7850e-01	9.5679	22.282698	0.000406	4.062549	0.688214	0.008125
 959	4.7900e-01	9.5752	22.328026	0.000453	4.532949	0.767902	0.009066
 960	4.7950e-01	9.5856	22.373782	0.000458	4.575713	0.775147	0.009151
 961	4.8000e-01	9.5959	22.421676	0.000479	4.789531	0.811369	0.009579
 962	4.8050e-01	9.6066	22.452893	0.000312	3.121748	0.528838	0.006243
 963	4.8100e-01	9.6164	22.509339	0.000564	5.644804	0.956256	0.011289
 964	4.8150e-01	9.6252	22.530720	0.000214	2.138183	0.362218	0.004276
 965	4.8200e-01	9.6338	22.591871	0.000612	6.115205	1.035944	0.012230
 966	4.8250e-01	9.6454	22.634633	0.000428	4.276367	0.724436	0.008553
 967	4.8300e-01	9.6552	22.676541	0.000419	4.190840	0.709947	0.008381
 968	4.8350e-01	9.6638	22.738546	0.000620	6.200732	1.050432	0.012401
 969	4.8400e-01	9.6738	22.771474	0.000329	3.292803	0.557816	0.006585
 970	4.8450e-01	9.6841	22.816802	0.000453	4.532949	0.767902	0.009066
 971	4.8500e-01	9.6967	22.861275	0.000445	4.447422	0.753414	0.008895
 972	4.8550e-01	9.7040	22.905320	0.000440	4.404658	0.746169	0.008809
 973	4.8600e-01	9.7150	22.956635	0.000513	5.131640	0.869323	0.010263
 974	4.8650e-01	9.7247	22.997260	0.000406	4.062549	0.688214	0.008125
 975	4.8700e-01	9.7357	23.032753	0.000355	3.549385	0.601282	0.007099
 976	4.8750e-01	9.7449	23.076370	0.000436	4.361894	0.738925	0.008724
 977	4.8800e-01	9.7565	23.118705	0.000423	4.233603	0.717192	0.008467
 978	4.8850e-01	9.7644	23.176435	0.000577	5.773095	0.977989	0.011546
 979	4.8900e-01	9.7757	23.220480	0.000440	4.404658	0.746169	0.008809
 980	4.8950e-01	9.7876	23.255973	0.000355	3.549385	0.601282	0.007099
 981	4.9000e-01	9.7961	23.294032	0.000381	3.805967	0.644748	0.007612
 982	4.9050e-01	9.8071	23.345774	0.000517	5.174404	0.876568	0.010349
 983	4.9100e-01	9.8145	23.395806	0.000500	5.003349	0.847590	0.010006
 984	4.9150e-01	9.8230	23.438569	0.000428	4.276367	0.724436	0.008553
 985	4.9200e-01	9.8349	23.496298	0.000577	5.773095	0.977989	0.011546
 986	4.9250e-01	9.8462	23.524522	0.000282	2.822402	0.478128	0.005645
 987	4.9300e-01	9.8547	23.589093	0.000646	6.457314	1.093899	0.012914
 988	4.9350e-01	9.8651	23.616461	0.000274	2.736875	0.463639	0.005474
 989	4.9400e-01	9.8737	23.663072	0.000466	4.661240	0.789635	0.009322
 990	4.9450e-01	9.8868	23.711821	0.000488	4.875058	0.825857	0.009750
 991	4.9500e-01	9.8959	23.753729	0.000419	4.190840	0.709947	0.008381
 992	4.9550e-01	9.9054	23.803333	0.000496	4.960586	0.840346	0.009921
 993	4.9600e-01	9.9176	23.840537	0.000372	3.720439	0.630259	0.007441
 994	4.9650e-01	9.9243	23.896128	0.000556	5.559277	0.941767	0.011118
 995	4.9700e-01	9.9353	23.935897	0.000398	3.977021	0.673726	0.007954
 996	4.9750e-01	9.9463	23.979087	0.000432	4.319131	0.731681	0.008638
 997	4.9800e-01	9.9539	24.044086	0.000650	6.500078	1.101143	0.013000
 998	4.9850e-01	9.9646	24.074020	0.000299	2.993457	0.507105	0.005987
 999	4.9900e-01	9.9770	24.109085	0.000351	3.506621	0.594038	0.007013
1000	4.9950e-01	9.9860	24.168098	0.000590	5.901386	0.999722	0.011802
1001	5.0000e-01	9.9960	24.216847	0.000488	4.875058	0.825857	0.009750
1002	5.0050e-01	9.9847	24.192045	0.000248	2.480293	0.420173	-0.004960
1003	5.0100e-01	9.9750	24.178788	0.000133	1.325674	0.224575	-0.002651
1004	5.0150e-01	9.9652	24.167242	0.000115	1.154619	0.195598	-0.002309
1005	5.0200e-01	9.9561	24.156124	0.000111	1.111855	0.188353	-0.002224
1006	5.0250e-01	9.9457	24.149710	0.000064	0.641455	0.108665	-0.001283
1007	5.0300e-01	9.9353	24.129184	0.000205	2.052656	0.347729	-0.004105
1008	5.0350e-01	9.9268	24.105237	0.000239	2.394765	0.405684	-0.004789
1009	5.0400e-01	9.9158	24.115072	-0.000098	-0.983564	-0.166620	0.001967
1010	5.0450e-01	9.9054	24.089842	0.000252	2.523056	0.427417	-0.005046
1011	5.0500e-01	9.8962	24.060336	0.000295	2.950693	0.499861	-0.005901
1012	5.0550e-01	9.8859	24.041948	0.000184	1.838838	0.311508	-0.003678
1013	5.0600e-01	9.8761	24.026126	0.000158	1.582256	0.268041	-0.003164
1014	5.0650e-01	9.8657	24.012870	0.000133	1.325674	0.224575	-0.002651
1015	5.0700e-01	9.8547	24.003462	0.000094	0.940801	0.159376	-0.001882
1016	5.0750e-01	9.8462	23.980798	0.000227	2.266474	0.383951	-0.004533
1017	5.0800e-01	9.8340	23.965403	0.000154	1.539492	0.260797	-0.003079
1018	5.0850e-01	9.8267	23.935897	0.000295	2.950693	0.499861	-0.005901
1019	5.0900e-01	9.8151	23.917082	0.000188	1.881601	0.318752	-0.003763
1020	5.0950e-01	9.8044	23.910667	0.000064	0.641455	0.108665	-0.001283
1021	5.1000e-01	9.7974	23.891424	0.000192	1.924365	0.325996	-0.003849
1022	5.1050e-01	9.7858	23.872181	0.000192	1.924365	0.325996	-0.003849
1023	5.1100e-01	9.7791	23.855931	0.000163	1.625019	0.275286	-0.003250
1024	5.1150e-01	9.7626	23.824715	0.000312	3.121748	0.528838	-0.006243
1025	5.1200e-01	9.7589	23.811458	0.000133	1.325674	0.224575	-0.002651
1026	5.1250e-01	9.7450	23.790932	0.000205	2.052656	0.347729	-0.004105
1027	5.1300e-01	9.7351	23.767413	0.000235	2.352002	0.398440	-0.004704
1028	5.1350e-01	9.7241	23.762281	0.000051	0.513164	0.086932	-0.001026
1029	5.1400e-01	9.7192	23.727216	0.000351	3.506621	0.594038	-0.007013
1030	5.1450e-01	9.7046	23.710111	0.000171	1.710547	0.289774	-0.003421
1031	5.1500e-01	9.6948	23.698137	0.000120	1.197383	0.202842	-0.002395
1032	5.1550e-01	9.6857	23.660506	0.000376	3.763203	0.637504	-0.007526
1033	5.1600e-01	9.6777	23.651526	0.000090	0.898037	0.152132	-0.001796
1034	5.1650e-01	9.6674	23.631428	0.000201	2.009892	0.340485	-0.004020
1035	5.1700e-01	9.6570	23.592514	0.000389	3.891494	0.659237	-0.007783
1036	5.1750e-01	9.6454	23.560870	0.000316	3.164512	0.536083	-0.006329
1037	5.1800e-01	9.6381	23.556166	0.000047	0.470400	0.079688	-0.000941
1038	5.1850e-01	9.6246	23.521528	0.000346	3.463857	0.586793	-0.006928
1039	5.1900e-01	9.6167	23.503140	0.000184	1.838838	0.311508	-0.003678
1040	5.1950e-01	9.6082	23.493305	0.000098	0.983564	0.166620	-0.001967
1041	5.2000e-01	9.5941	23.462944	0.000304	3.036221	0.514350	-0.006072
1042	5.2050e-01	9.5837	23.442845	0.000201	2.009892	0.340485	-0.004020
1043	5.2100e-01	9.5752	23.415905	0.000269	2.694111	0.456395	-0.005388
1044	5.2150e-01	9.5660	23.407352	0.000086	0.855273	0.144887	-0.001711
1045	5.2200e-01	9.5557	23.367156	0.000402	4.019785	0.680970	-0.008039
1046	5.2250e-01	9.5483	23.341498	0.000257	2.565820	0.434662	-0.005132
1047	5.2300e-01	9.5386	23.319261	0.000222	2.223711	0.376707	-0.004447
1048	5.2350e-01	9.5239	23.290183	0.000291	2.907930	0.492617	-0.005816
1049	5.2400e-01	9.5184	23.276927	0.000133	1.325674	0.224575	-0.002651
1050	5.2450e-01	9.5087	23.261960	0.000150	1.496728	0.253553	-0.002993
1051	5.2500e-01	9.4995	23.223473	0.000385	3.848730	0.651993	-0.007697
1052	5.2550e-01	9.4843	23.196105	0.000274	2.736875	0.463639	-0.005474
1053	5.2600e-01	9.4745	23.191829	0.000043	0.427637	0.072444	-0.000855
1054	5.2650e-01	9.4653	23.156336	0.000355	3.549385	0.601282	-0.007099
1055	5.2700e-01	9.4556	23.124692	0.000316	3.164512	0.536083	-0.006329
1056	5.2750e-01	9.4470	23.095613	0.000291	2.907930	0.492617	-0.005816
1057	5.2800e-01	9.4379	23.078936	0.000167	1.667783	0.282530	-0.003335
1058	5.2850e-01	9.4281	23.048575	0.000304	3.036221	0.514350	-0.006072
1059	5.2900e-01	9.4177	23.034035	0.000145	1.453965	0.246308	-0.002908
1060	5.2950e-01	9.4043	23.001964	0.000321	3.207275	0.543327	-0.006414
1061	5.3000e-01	9.3964	22.963050	0.000389	3.891494	0.659237	-0.007783
1062	5.3050e-01	9.3896	22.951504	0.000115	1.154619	0.195598	-0.002309
1063	5.3100e-01	9.3768	22.927557	0.000239	2.394765	0.405684	-0.004789
1064	5.3150e-01	9.3646	22.893347	0.000342	3.421094	0.579549	-0.006842
1065	5.3200e-01	9.3555	22.868117	0.000252	2.523056	0.427417	-0.005046
1066	5.3250e-01	9.3460	22.851867	0.000163	1.625019	0.275286	-0.003250
1067	5.3300e-01	9.3372	22.816374	0.000355	3.549385	0.601282	-0.007099
1068	5.3350e-01	9.3256	22.795421	0.000210	2.095420	0.354974	-0.004191
1069	5.3400e-01	9.3158	22.774895	0.000205	2.052656	0.347729	-0.004105
1070	5.3450e-01	9.3073	22.746671	0.000282	2.822402	0.478128	-0.005645
1071	5.3500e-01	9.2957	22.725290	0.000214	2.138183	0.362218	-0.004276
1072	5.3550e-01	9.2871	22.697922	0.000274	2.736875	0.463639	-0.005474
1073	5.3600e-01	9.2780	22.662429	0.000355	3.549385	0.601282	-0.007099
1074	5.3650e-01	9.2645	22.628219	0.000342	3.421094	0.579549	-0.006842
1075	5.3700e-01	9.2566	22.612825	0.000154	1.539492	0.260797	-0.003079
1076	5.3750e-01	9.2441	22.585457	0.000274	2.736875	0.463639	-0.005474
1077	5.3800e-01	9.2383	22.552102	0.000334	3.335566	0.565060	-0.006671
1078	5.3850e-01	9.2267	22.526017	0.000261	2.608584	0.441906	-0.005217
1079	5.3900e-01	9.2188	22.503780	0.000222	2.223711	0.376707	-0.004447
1080	5.3950e-01	9.2053	22.474702	0.000291	2.907930	0.492617	-0.005816
1081	5.4000e-01	9.1974	22.445623	0.000291	2.907930	0.492617	-0.005816
1082	5.4050e-01	9.1873	22.411841	0.000338	3.378330	0.572305	-0.006756
1083	5.4100e-01	9.1757	22.385328	0.000265	2.651348	0.449150	-0.005303
1084	5.4150e-01	9.1669	22.366940	0.000184	1.838838	0.311508	-0.003678
1085	5.4200e-01	9.1583	22.339144	0.000278	2.779639	0.470884	-0.005559
1086	5.4250e-01	9.1473	22.301941	0.000372	3.720439	0.630259	-0.007441
1087	5.4300e-01	9.1360	22.285691	0.000163	1.625019	0.275286	-0.003250
1088	5.4350e-01	9.1284	22.260461	0.000252	2.523056	0.427417	-0.005046
1089	5.4400e-01	9.1162	22.229245	0.000312	3.121748	0.528838	-0.006243
1090	5.4450e-01	9.1064	22.207863	0.000214	2.138183	0.362218	-0.004276
1091	5.4500e-01	9.0961	22.178357	0.000295	2.950693	0.499861	-0.005901
1092	5.4550e-01	9.0863	22.140726	0.000376	3.763203	0.637504	-0.007526
1093	5.4600e-01	9.0765	22.114641	0.000261	2.608584	0.441906	-0.005217
1094	5.4650e-01	9.0674	22.080859	0.000338	3.378330	0.572305	-0.006756
1095	5.4700e-01	9.0594	22.051780	0.000291	2.907930	0.492617	-0.005816
1096	5.4750e-01	9.0485	22.027833	0.000239	2.394765	0.405684	-0.004789
1097	5.4800e-01	9.0350	22.013722	0.000141	1.411201	0.239064	-0.002822
1098	5.4850e-01	9.0253	21.971814	0.000419	4.190840	0.709947	-0.008381
1099	5.4900e-01	9.0149	21.952571	0.000192	1.924365	0.325996	-0.003849
1100	5.4950e-01	9.0070	21.925203	0.000274	2.736875	0.463639	-0.005474
1101	5.5000e-01	8.9978	21.882868	0.000423	4.233603	0.717192	-0.008467
1102	5.5050e-01	8.9886	21.861059	0.000218	2.180947	0.369462	-0.004362
1103	5.5100e-01	8.9746	21.830270	0.000308	3.078984	0.521594	-0.006158
1104	5.5150e-01	8.9685	21.802902	0.000274	2.736875	0.463639	-0.005474
1105	5.5200e-01	8.9545	21.774251	0.000287	2.865166	0.485372	-0.005730
1106	5.5250e-01	8.9465	21.744745	0.000295	2.950693	0.499861	-0.005901
1107	5.5300e-01	8.9362	21.717377	0.000274	2.736875	0.463639	-0.005474
1108	5.5350e-01	8.9252	21.681457	0.000359	3.592148	0.608526	-0.007184
1109	5.5400e-01	8.9148	21.676753	0.000047	0.470400	0.079688	-0.000941
1110	5.5450e-01	8.9063	21.627576	0.000492	4.917822	0.833102	-0.009835
1111	5.5500e-01	8.8965	21.604484	0.000231	2.309238	0.391196	-0.004618
1112	5.5550e-01	8.8837	21.575833	0.000287	2.865166	0.485372	-0.005730
1113	5.5600e-01	8.8751	21.539485	0.000363	3.634912	0.615771	-0.007270
1114	5.5650e-01	8.8641	21.509979	0.000295	2.950693	0.499861	-0.005901
1115	5.5700e-01	8.8553	21.480900	0.000291	2.907930	0.492617	-0.005816
1116	5.5750e-01	8.8458	21.453960	0.000269	2.694111	0.456395	-0.005388
1117	5.5800e-01	8.8348	21.427875	0.000261	2.608584	0.441906	-0.005217
1118	5.5850e-01	8.8257	21.396658	0.000312	3.121748	0.528838	-0.006243
1119	5.5900e-01	8.8147	21.379126	0.000175	1.753310	0.297019	-0.003507
1120	5.5950e-01	8.8071	21.335508	0.000436	4.361894	0.738925	-0.008724
1121	5.6000e-01	8.7933	21.308995	0.000265	2.651348	0.449150	-0.005303
1122	5.6050e-01	8.7848	21.281199	0.000278	2.779639	0.470884	-0.005559
1123	5.6100e-01	8.7787	21.254259	0.000269	2.694111	0.456395	-0.005388
1124	5.6150e-01	8.7662	21.229457	0.000248	2.480293	0.420173	-0.004960
1125	5.6200e-01	8.7570	21.187549	0.000419	4.190840	0.709947	-0.008381
1126	5.6250e-01	8.7469	21.163175	0.000244	2.437529	0.412929	-0.004875
1127	5.6300e-01	8.7381	21.127254	0.000359	3.592148	0.608526	-0.007184
1128	5.6350e-01	8.7280	21.097748	0.000295	2.950693	0.499861	-0.005901
1129	5.6400e-01	8.7149	21.072946	0.000248	2.480293	0.420173	-0.004960
1130	5.6450e-01	8.7067	21.036598	0.000363	3.634912	0.615771	-0.007270
1131	5.6500e-01	8.6975	21.025907	0.000107	1.069092	0.181109	-0.002138
1132	5.6550e-01	8.6871	20.981862	0.000440	4.404658	0.746169	-0.008809
1133	5.6600e-01	8.6771	20.946796	0.000351	3.506621	0.594038	-0.007013
1134	5.6650e-01	8.6671	20.929691	0.000171	1.710547	0.289774	-0.003421
1135	5.6700e-01	8.6591	20.886501	0.000432	4.319131	0.731681	-0.008638
1136	5.6750e-01	8.6456	20.859133	0.000274	2.736875	0.463639	-0.005474
1137	5.6800e-01	8.6353	20.829200	0.000299	2.993457	0.507105	-0.005987
1138	5.6850e-01	8.6292	20.805680	0.000235	2.352002	0.398440	-0.004704
1139	5.6900e-01	8.6163	20.772325	0.000334	3.335566	0.565060	-0.006671
1140	5.6950e-01	8.6072	20.750516	0.000218	2.180947	0.369462	-0.004362
1141	5.7000e-01	8.5980	20.717589	0.000329	3.292803	0.557816	-0.006585
1142	5.7050e-01	8.5901	20.680814	0.000368	3.677676	0.623015	-0.007355
1143	5.7100e-01	8.5773	20.654301	0.000265	2.651348	0.449150	-0.005303
1144	5.7150e-01	8.5681	20.614959	0.000393	3.934258	0.666481	-0.007868
1145	5.7200e-01	8.5559	20.576901	0.000381	3.805967	0.644748	-0.007612
1146	5.7250e-01	8.5468	20.559368	0.000175	1.753310	0.297019	-0.003507
1147	5.7300e-01	8.5364	20.518744	0.000406	4.062549	0.688214	-0.008125
1148	5.7350e-01	8.5251	20.500356	0.000184	1.838838	0.311508	-0.003678
1149	5.7400e-01	8.5181	20.457593	0.000428	4.276367	0.724436	-0.008553
1150	5.7450e-01	8.5074	20.434074	0.000235	2.352002	0.398440	-0.004704
1151	5.7500e-01	8.4985	20.398153	0.000359	3.592148	0.608526	-0.007184
1152	5.7550e-01	8.4857	20.377200	0.000210	2.095420	0.354974	-0.004191
1153	5.7600e-01	8.4766	20.348121	0.000291	2.907930	0.492617	-0.005816
1154	5.7650e-01	8.4662	20.316904	0.000312	3.121748	0.528838	-0.006243
1155	5.7700e-01	8.4583	20.280129	0.000368	3.677676	0.623015	-0.007355
1156	5.7750e-01	8.4473	20.258747	0.000214	2.138183	0.362218	-0.004276
1157	5.7800e-01	8.4351	20.227103	0.000316	3.164512	0.536083	-0.006329
1158	5.7850e-01	8.4265	20.176216	0.000509	5.088877	0.862079	-0.010177
1159	5.7900e-01	8.4186	20.165097	0.000111	1.111855	0.188353	-0.002224
1160	5.7950e-01	8.4052	20.136447	0.000287	2.865166	0.485372	-0.005730
1161	5.8000e-01	8.3957	20.102237	0.000342	3.421094	0.579549	-0.006842
1162	5.8050e-01	8.3844	20.074441	0.000278	2.779639	0.470884	-0.005559
1163	5.8100e-01	8.3765	20.046218	0.000282	2.822402	0.478128	-0.005645
1164	5.8150e-01	8.3679	19.986350	0.000599	5.986914	1.014211	-0.011974
1165	5.8200e-01	8.3575	19.975232	0.000111	1.111855	0.188353	-0.002224
1166	5.8250e-01	8.3466	19.946153	0.000291	2.907930	0.492617	-0.005816
1167	5.8300e-01	8.3362	19.904674	0.000415	4.148076	0.702703	-0.008296
1168	5.8350e-01	8.3282	19.891417	0.000133	1.325674	0.224575	-0.002651
1169	5.8400e-01	8.3154	19.854642	0.000368	3.677676	0.623015	-0.007355
1170	5.8450e-01	8.3096	19.814017	0.000406	4.062549	0.688214	-0.008125
1171	5.8500e-01	8.2953	19.788787	0.000252	2.523056	0.427417	-0.005046
1172	5.8550e-01	8.2855	19.758853	0.000299	2.993457	0.507105	-0.005987
1173	5.8600e-01	8.2782	19.729347	0.000295	2.950693	0.499861	-0.005901
1174	5.8650e-01	8.2675	19.677605	0.000517	5.174404	0.876568	-0.010349
1175	5.8700e-01	8.2550	19.662210	0.000154	1.539492	0.260797	-0.003079
1176	5.8750e-01	8.2452	19.619448	0.000428	4.276367	0.724436	-0.008553
1177	5.8800e-01	8.2361	19.601915	0.000175	1.753310	0.297019	-0.003507
1178	5.8850e-01	8.2263	19.563001	0.000389	3.891494	0.659237	-0.007783
1179	5.8900e-01	8.2159	19.527081	0.000359	3.592148	0.608526	-0.007184
1180	5.8950e-01	8.2053	19.509120	0.000180	1.796074	0.304263	-0.003592
1181	5.9000e-01	8.2037	19.479187	0.000299	2.993457	0.507105	-0.005987
1182	5.9050e-01	8.1860	19.441128	0.000381	3.805967	0.644748	-0.007612
1183	5.9100e-01	8.1763	19.413332	0.000278	2.779639	0.470884	-0.005559
1184	5.9150e-01	8.1671	19.373991	0.000393	3.934258	0.666481	-0.007868
1185	5.9200e-01	8.1567	19.333794	0.000402	4.019785	0.680970	-0.008039
1186	5.9250e-01	8.1458	19.308136	0.000257	2.565820	0.434662	-0.005132
1187	5.9300e-01	8.1342	19.285472	0.000227	2.266474	0.383951	-0.004533
1188	5.9350e-01	8.1274	19.249124	0.000363	3.634912	0.615771	-0.007270
1189	5.9400e-01	8.1140	19.204223	0.000449	4.490185	0.760658	-0.008980
1190	5.9450e-01	8.1055	19.192250	0.000120	1.197383	0.202842	-0.002395
1191	5.9500e-01	8.0957	19.146922	0.000453	4.532949	0.767902	-0.009066
1192	5.9550e-01	8.0853	19.117843	0.000291	2.907930	0.492617	-0.005816
1193	5.9600e-01	8.0768	19.086199	0.000316	3.164512	0.536083	-0.006329
1194	5.9650e-01	8.0630	19.060541	0.000257	2.565820	0.434662	-0.005132
1195	5.9700e-01	8.0566	19.018206	0.000423	4.233603	0.717192	-0.008467
1196	5.9750e-01	8.0463	18.983569	0.000346	3.463857	0.586793	-0.006928
1197	5.9800e-01	8.0365	18.971168	0.000124	1.240146	0.210086	-0.002480
1198	5.9850e-01	8.0243	18.927978	0.000432	4.319131	0.731681	-0.008638
1199	5.9900e-01	8.0164	18.891629	0.000363	3.634912	0.615771	-0.007270
1200	5.9950e-01	8.0066	18.871103	0.000205	2.052656	0.347729	-0.004105
1201	6.0000e-01	7.9956	18.823637	0.000475	4.746767	0.804124	-0.009493
1202	6.0050e-01	7.9877	18.799690	0.000239	2.394765	0.405684	-0.004789
1203	6.0100e-01	7.9755	18.755217	0.000445	4.447422	0.753414	-0.008895
1204	6.0150e-01	7.9633	18.744954	0.000103	1.026328	0.173865	-0.002053
1205	6.0200e-01	7.9593	18.704757	0.000402	4.019785	0.680970	-0.008039
1206	6.0250e-01	7.9449	18.664988	0.000398	3.977021	0.673726	-0.007954
1207	6.0300e-01	7.9376	18.629067	0.000359	3.592148	0.608526	-0.007184
1208	6.0350e-01	7.9282	18.587160	0.000419	4.190840	0.709947	-0.008381
1209	6.0400e-01	7.9163	18.571338	0.000158	1.582256	0.268041	-0.003164
1210	6.0450e-01	7.9077	18.547391	0.000239	2.394765	0.405684	-0.004789
1211	6.0500e-01	7.8979	18.486668	0.000607	6.072441	1.028699	-0.012145
1212	6.0550e-01	7.8851	18.474267	0.000124	1.240146	0.210086	-0.002480
1213	6.0600e-01	7.8749	18.449037	0.000252	2.523056	0.427417	-0.005046
1214	6.0650e-01	7.8662	18.409696	0.000393	3.934258	0.666481	-0.007868
1215	6.0700e-01	7.8540	18.372065	0.000376	3.763203	0.637504	-0.007526
1216	6.0750e-01	7.8461	18.351111	0.000210	2.095420	0.354974	-0.004191
1217	6.0800e-01	7.8375	18.305355	0.000458	4.575713	0.775147	-0.009151
1218	6.0850e-01	7.8253	18.275849	0.000295	2.950693	0.499861	-0.005901
1219	6.0900e-01	7.8180	18.246343	0.000295	2.950693	0.499861	-0.005901
1220	6.0950e-01	7.8046	18.204008	0.000423	4.233603	0.717192	-0.008467
1221	6.1000e-01	7.7991	18.161673	0.000423	4.233603	0.717192	-0.008467
1222	6.1050e-01	7.7887	18.151838	0.000098	0.983564	0.166620	-0.001967
1223	6.1100e-01	7.7728	18.114634	0.000372	3.720439	0.630259	-0.007441
1224	6.1150e-01	7.7667	18.071016	0.000436	4.361894	0.738925	-0.008724
1225	6.1200e-01	7.7551	18.050490	0.000205	2.052656	0.347729	-0.004105
1226	6.1250e-01	7.7448	18.015853	0.000346	3.463857	0.586793	-0.006928
1227	6.1300e-01	7.7362	17.974801	0.000411	4.105312	0.695459	-0.008210
1228	6.1350e-01	7.7264	17.951281	0.000235	2.352002	0.398440	-0.004704
1229	6.1400e-01	7.7167	17.923058	0.000282	2.822402	0.478128	-0.005645
1230	6.1450e-01	7.7069	17.870033	0.000530	5.302695	0.898301	-0.010605
1231	6.1500e-01	7.6981	17.845658	0.000244	2.437529	0.412929	-0.004875
1232	6.1550e-01	7.6862	17.806316	0.000393	3.934258	0.666481	-0.007868
1233	6.1600e-01	7.6715	17.785363	0.000210	2.095420	0.354974	-0.004191
1234	6.1650e-01	7.6654	17.760988	0.000244	2.437529	0.412929	-0.004875
1235	6.1700e-01	7.6550	17.716088	0.000449	4.490185	0.760658	-0.008980
1236	6.1750e-01	7.6489	17.677601	0.000385	3.848730	0.651993	-0.007697
1237	6.1800e-01	7.6349	17.645102	0.000325	3.250039	0.550571	-0.006500
1238	6.1850e-01	7.6270	17.614740	0.000304	3.036221	0.514350	-0.006072
1239	6.1900e-01	7.6160	17.592076	0.000227	2.266474	0.383951	-0.004533
1240	6.1950e-01	7.6074	17.547603	0.000445	4.447422	0.753414	-0.008895
1241	6.2000e-01	7.5972	17.512110	0.000355	3.549385	0.601282	-0.007099
1242	6.2050e-01	7.5879	17.471486	0.000406	4.062549	0.688214	-0.008125
1243	6.2100e-01	7.5739	17.461650	0.000098	0.983564	0.166620	-0.001967
1244	6.2150e-01	7.5665	17.421026	0.000406	4.062549	0.688214	-0.008125
1245	6.2200e-01	7.5549	17.375698	0.000453	4.532949	0.767902	-0.009066
1246	6.2250e-01	7.5446	17.351751	0.000239	2.394765	0.405684	-0.004789
1247	6.2300e-01	7.5348	17.310271	0.000415	4.148076	0.702703	-0.008296
1248	6.2350e-01	7.5256	17.273495	0.000368	3.677676	0.623015	-0.007355
1249	6.2400e-01	7.5146	17.242706	0.000308	3.078984	0.521594	-0.006158
1250	6.2450e-01	7.5067	17.211490	0.000312	3.121748	0.528838	-0.006243
1251	6.2500e-01	7.4985	17.187543	0.000239	2.394765	0.405684	-0.004789
1252	6.2550e-01	7.4878	17.137938	0.000496	4.960586	0.840346	-0.009921
1253	6.2600e-01	7.4762	17.108004	0.000299	2.993457	0.507105	-0.005987
1254	6.2650e-01	7.4652	17.081492	0.000265	2.651348	0.449150	-0.005303
1255	6.2700e-01	7.4585	17.037019	0.000445	4.447422	0.753414	-0.008895
1256	6.2750e-01	7.4460	17.007512	0.000295	2.950693	0.499861	-0.005901
1257	6.2800e-01	7.4379	16.961757	0.000458	4.575713	0.775147	-0.009151
1258	6.2850e-01	7.4268	16.928402	0.000334	3.335566	0.565060	-0.006671
1259	6.2900e-01	7.4133	16.907448	0.000210	2.095420	0.354974	-0.004191
1260	6.2950e-01	7.4097	16.876659	0.000308	3.078984	0.521594	-0.006158
1261	6.3000e-01	7.3987	16.832186	0.000445	4.447422	0.753414	-0.008895
1262	6.3050e-01	7.3883	16.803535	0.000287	2.865166	0.485372	-0.005730
1263	6.3100e-01	7.3755	16.777450	0.000261	2.608584	0.441906	-0.005217
1264	6.3150e-01	7.3676	16.722286	0.000552	5.516513	0.934523	-0.011033
1265	6.3200e-01	7.3584	16.698339	0.000239	2.394765	0.405684	-0.004789
1266	6.3250e-01	7.3456	16.680379	0.000180	1.796074	0.304263	-0.003592
1267	6.3300e-01	7.3358	16.638044	0.000423	4.233603	0.717192	-0.008467
1268	6.3350e-01	7.3273	16.591861	0.000462	4.618476	0.782391	-0.009237
1269	6.3400e-01	7.3157	16.570907	0.000210	2.095420	0.354974	-0.004191
1270	6.3450e-01	7.3047	16.524296	0.000466	4.661240	0.789635	-0.009322
1271	6.3500e-01	7.2961	16.491369	0.000329	3.292803	0.557816	-0.006585
1272	6.3550e-01	7.2852	16.464856	0.000265	2.651348	0.449150	-0.005303
1273	6.3600e-01	7.2772	16.417390	0.000475	4.746767	0.804124	-0.009493
1274	6.3650e-01	7.2681	16.385745	0.000316	3.164512	0.536083	-0.006329
1275	6.3700e-01	7.2559	16.370351	0.000154	1.539492	0.260797	-0.003079
1276	6.3750e-01	7.2461	16.313904	0.000564	5.644804	0.956256	-0.011289
1277	6.3800e-01	7.2369	16.293806	0.000201	2.009892	0.340485	-0.004020
1278	6.3850e-01	7.2263	16.246767	0.000470	4.704004	0.796880	-0.009408
1279	6.3900e-01	7.2168	16.211702	0.000351	3.506621	0.594038	-0.007013
1280	6.3950e-01	7.2083	16.188182	0.000235	2.352002	0.398440	-0.004704
1281	6.4000e-01	7.1960	16.150124	0.000381	3.805967	0.644748	-0.007612
1282	6.4050e-01	7.1918	16.112065	0.000381	3.805967	0.644748	-0.007612
1283	6.4100e-01	7.1765	16.078283	0.000338	3.378330	0.572305	-0.006756
1284	6.4150e-01	7.1640	16.041507	0.000368	3.677676	0.623015	-0.007355
1285	6.4200e-01	7.1564	16.013284	0.000282	2.822402	0.478128	-0.005645
1286	6.4250e-01	7.1472	15.970949	0.000423	4.233603	0.717192	-0.008467
1287	6.4300e-01	7.1362	15.944864	0.000261	2.608584	0.441906	-0.005217
1288	6.4350e-01	7.1265	15.905094	0.000398	3.977021	0.673726	-0.007954
1289	6.4400e-01	7.1182	15.878154	0.000269	2.694111	0.456395	-0.005388
1290	6.4450e-01	7.1082	15.837957	0.000402	4.019785	0.680970	-0.008039
1291	6.4500e-01	7.0959	15.793057	0.000449	4.490185	0.760658	-0.008980
1292	6.4550e-01	7.0856	15.760129	0.000329	3.292803	0.557816	-0.006585
1293	6.4600e-01	7.0770	15.716084	0.000440	4.404658	0.746169	-0.008809
1294	6.4650e-01	7.0682	15.689999	0.000261	2.608584	0.441906	-0.005217
1295	6.4700e-01	7.0557	15.662203	0.000278	2.779639	0.470884	-0.005559
1296	6.4750e-01	7.0471	15.619441	0.000428	4.276367	0.724436	-0.008553
1297	6.4800e-01	7.0380	15.582665	0.000368	3.677676	0.623015	-0.007355
1298	6.4850e-01	7.0288	15.548455	0.000342	3.421094	0.579549	-0.006842
1299	6.4900e-01	7.0190	15.519804	0.000287	2.865166	0.485372	-0.005730
1300	6.4950e-01	7.0045	15.485594	0.000342	3.421094	0.579549	-0.006842
1301	6.5000e-01	6.9971	15.445825	0.000398	3.977021	0.673726	-0.007954
1302	6.5050e-01	6.9861	15.411187	0.000346	3.463857	0.586793	-0.006928
1303	6.5100e-01	6.9775	15.374839	0.000363	3.634912	0.615771	-0.007270
1304	6.5150e-01	6.9666	15.335498	0.000393	3.934258	0.666481	-0.007868
1305	6.5200e-01	6.9568	15.297011	0.000385	3.848730	0.651993	-0.007697
1306	6.5250e-01	6.9452	15.284183	0.000128	1.282910	0.217331	-0.002566
1307	6.5300e-01	6.9366	15.237999	0.000462	4.618476	0.782391	-0.009237
1308	6.5350e-01	6.9272	15.197375	0.000406	4.062549	0.688214	-0.008125
1309	6.5400e-01	6.9177	15.175993	0.000214	2.138183	0.362218	-0.004276
1310	6.5450e-01	6.9073	15.128527	0.000475	4.746767	0.804124	-0.009493
1311	6.5500e-01	6.8964	15.088758	0.000398	3.977021	0.673726	-0.007954
1312	6.5550e-01	6.8840	15.057541	0.000312	3.121748	0.528838	-0.006243
1313	6.5600e-01	6.8750	15.025469	0.000321	3.207275	0.543327	-0.006414
1314	6.5650e-01	6.8698	14.983134	0.000423	4.233603	0.717192	-0.008467
1315	6.5700e-01	6.8555	14.942082	0.000411	4.105312	0.695459	-0.008210
1316	6.5750e-01	6.8488	14.919418	0.000227	2.266474	0.383951	-0.004533
1317	6.5800e-01	6.8378	14.885208	0.000342	3.421094	0.579549	-0.006842
1318	6.5850e-01	6.8268	14.833466	0.000517	5.174404	0.876568	-0.010349
1319	6.5900e-01	6.8152	14.816361	0.000171	1.710547	0.289774	-0.003421
1320	6.5950e-01	6.8103	14.761624	0.000547	5.473750	0.927278	-0.010947
1321	6.6000e-01	6.7969	14.741954	0.000197	1.967129	0.333241	-0.003934
1322	6.6050e-01	6.7859	14.686362	0.000556	5.559277	0.941767	-0.011118
1323	6.6100e-01	6.7767	14.649587	0.000368	3.677676	0.623015	-0.007355
1324	6.6150e-01	6.7673	14.637186	0.000124	1.240146	0.210086	-0.002480
1325	6.6200e-01	6.7560	14.592712	0.000445	4.447422	0.753414	-0.008895
1326	6.6250e-01	6.7464	14.551233	0.000415	4.148076	0.702703	-0.008296
1327	6.6300e-01	6.7375	14.523865	0.000274	2.736875	0.463639	-0.005474
1328	6.6350e-01	6.7236	14.484951	0.000389	3.891494	0.659237	-0.007783
1329	6.6400e-01	6.7181	14.445609	0.000393	3.934258	0.666481	-0.007868
1330	6.6450e-01	6.7072	14.409261	0.000363	3.634912	0.615771	-0.007270
1331	6.6500e-01	6.6957	14.389163	0.000201	2.009892	0.340485	-0.004020
1332	6.6550e-01	6.6852	14.329295	0.000599	5.986914	1.014211	-0.011974
1333	6.6600e-01	6.6760	14.299789	0.000295	2.950693	0.499861	-0.005901
1334	6.6650e-01	6.6675	14.270711	0.000291	2.907930	0.492617	-0.005816
1335	6.6700e-01	6.6583	14.218113	0.000526	5.259931	0.891056	-0.010520
1336	6.6750e-01	6.6473	14.196304	0.000218	2.180947	0.369462	-0.004362
1337	6.6800e-01	6.6370	14.156962	0.000393	3.934258	0.666481	-0.007868
1338	6.6850e-01	6.6272	14.127029	0.000299	2.993457	0.507105	-0.005987
1339	6.6900e-01	6.6180	14.085121	0.000419	4.190840	0.709947	-0.008381
1340	6.6950e-01	6.6077	14.058181	0.000269	2.694111	0.456395	-0.005388
1341	6.7000e-01	6.5961	14.013280	0.000449	4.490185	0.760658	-0.008980
1342	6.7050e-01	6.5860	13.970090	0.000432	4.319131	0.731681	-0.008638
1343	6.7100e-01	6.5761	13.934597	0.000355	3.549385	0.601282	-0.007099
1344	6.7150e-01	6.5680	13.897394	0.000372	3.720439	0.630259	-0.007441
1345	6.7200e-01	6.5564	13.875585	0.000218	2.180947	0.369462	-0.004362
1346	6.7250e-01	6.5442	13.827263	0.000483	4.832295	0.818613	-0.009664
1347	6.7300e-01	6.5381	13.790487	0.000368	3.677676	0.623015	-0.007355
1348	6.7350e-01	6.5271	13.754139	0.000363	3.634912	0.615771	-0.007270
1349	6.7400e-01	6.5198	13.713087	0.000411	4.105312	0.695459	-0.008210
1350	6.7450e-01	6.5051	13.686575	0.000265	2.651348	0.449150	-0.005303
1351	6.7500e-01	6.4984	13.644240	0.000423	4.233603	0.717192	-0.008467
1352	6.7550e-01	6.4880	13.602760	0.000415	4.148076	0.702703	-0.008296
1353	6.7600e-01	6.4746	13.571971	0.000308	3.078984	0.521594	-0.006158
1354	6.7650e-01	6.4676	13.545458	0.000265	2.651348	0.449150	-0.005303
1355	6.7700e-01	6.4575	13.489439	0.000560	5.602041	0.949011	-0.011204
1356	6.7750e-01	6.4465	13.470196	0.000192	1.924365	0.325996	-0.003849
1357	6.7800e-01	6.4363	13.420164	0.000500	5.003349	0.847590	-0.010006
1358	6.7850e-01	6.4267	13.385954	0.000342	3.421094	0.579549	-0.006842
1359	6.7900e-01	6.4169	13.344047	0.000419	4.190840	0.709947	-0.008381
1360	6.7950e-01	6.4038	13.321383	0.000227	2.266474	0.383951	-0.004533
1361	6.8000e-01	6.3968	13.281613	0.000398	3.977021	0.673726	-0.007954
1362	6.8050e-01	6.3867	13.238423	0.000432	4.319131	0.731681	-0.008638
1363	6.8100e-01	6.3770	13.208489	0.000299	2.993457	0.507105	-0.005987
1364	6.8150e-01	6.3660	13.164016	0.000445	4.447422	0.753414	-0.008895
1365	6.8200e-01	6.3568	13.131089	0.000329	3.292803	0.557816	-0.006585
1366	6.8250e-01	6.3495	13.090465	0.000406	4.062549	0.688214	-0.008125
1367	6.8300e-01	6.3367	13.037867	0.000526	5.259931	0.891056	-0.010520
1368	6.8350e-01	6.3258	13.029314	0.000086	0.855273	0.144887	-0.001711
1369	6.8400e-01	6.3171	12.970302	0.000590	5.901386	0.999722	-0.011802
1370	6.8450e-01	6.3068	12.933526	0.000368	3.677676	0.623015	-0.007355
1371	6.8500e-01	6.2958	12.910435	0.000231	2.309238	0.391196	-0.004618
1372	6.8550e-01	6.2863	12.855271	0.000552	5.516513	0.934523	-0.011033
1373	6.8600e-01	6.2775	12.833890	0.000214	2.138183	0.362218	-0.004276
1374	6.8650e-01	6.2683	12.786851	0.000470	4.704004	0.796880	-0.009408
1375	6.8700e-01	6.2569	12.753924	0.000329	3.292803	0.557816	-0.006585
1376	6.8750e-01	6.2488	12.709023	0.000449	4.490185	0.760658	-0.008980
1377	6.8800e-01	6.2415	12.681655	0.000274	2.736875	0.463639	-0.005474
1378	6.8850e-01	6.2271	12.647873	0.000338	3.378330	0.572305	-0.006756
1379	6.8900e-01	6.2146	12.599123	0.000488	4.875058	0.825857	-0.009750
1380	6.8950e-01	6.2088	12.569190	0.000299	2.993457	0.507105	-0.005987
1381	6.9000e-01	6.1972	12.533269	0.000359	3.592148	0.608526	-0.007184
1382	6.9050e-01	6.1847	12.496921	0.000363	3.634912	0.615771	-0.007270
1383	6.9100e-01	6.1780	12.459290	0.000376	3.763203	0.637504	-0.007526
1384	6.9150e-01	6.1676	12.413534	0.000458	4.575713	0.775147	-0.009151
1385	6.9200e-01	6.1560	12.372910	0.000406	4.062549	0.688214	-0.008125
1386	6.9250e-01	6.1450	12.338700	0.000342	3.421094	0.579549	-0.006842
1387	6.9300e-01	6.1356	12.310904	0.000278	2.779639	0.470884	-0.005559
1388	6.9350e-01	6.1279	12.251036	0.000599	5.986914	1.014211	-0.011974
1389	6.9400e-01	6.1188	12.227945	0.000231	2.309238	0.391196	-0.004618
1390	6.9450e-01	6.1050	12.200149	0.000278	2.779639	0.470884	-0.005559
1391	6.9500e-01	6.0968	12.154821	0.000453	4.532949	0.767902	-0.009066
1392	6.9550e-01	6.0858	12.119756	0.000351	3.506621	0.594038	-0.007013
1393	6.9600e-01	6.0793	12.068013	0.000517	5.174404	0.876568	-0.010349
1394	6.9650e-01	6.0667	12.035941	0.000321	3.207275	0.543327	-0.006414
1395	6.9700e-01	6.0602	12.005152	0.000308	3.078984	0.521594	-0.006158
1396	6.9750e-01	6.0458	11.949988	0.000552	5.516513	0.934523	-0.011033
1397	6.9800e-01	6.0367	11.929890	0.000201	2.009892	0.340485	-0.004020
1398	6.9850e-01	6.0263	11.881141	0.000488	4.875058	0.825857	-0.009750
1399	6.9900e-01	6.0175	11.848213	0.000329	3.292803	0.557816	-0.006585
1400	6.9950e-01	6.0010	11.789629	0.000586	5.858623	0.992478	-0.011717
1401	7.0000e-01	5.9961	11.770813	0.000188	1.881601	0.318752	-0.003763
1402	7.0050e-01	5.9875	11.732327	0.000385	3.848730	0.651993	-0.007697
1403	7.0100e-01	5.9760	11.686144	0.000462	4.618476	0.782391	-0.009237
1404	7.0150e-01	5.9671	11.658775	0.000274	2.736875	0.463639	-0.005474
1405	7.0200e-01	5.9576	11.609599	0.000492	4.917822	0.833102	-0.009835
1406	7.0250e-01	5.9438	11.577954	0.000316	3.164512	0.536083	-0.006329
1407	7.0300e-01	5.9338	11.544172	0.000338	3.378330	0.572305	-0.006756
1408	7.0350e-01	5.9247	11.498844	0.000453	4.532949	0.767902	-0.009066
1409	7.0400e-01	5.9164	11.452232	0.000466	4.661240	0.789635	-0.009322
1410	7.0450e-01	5.9064	11.426575	0.000257	2.565820	0.434662	-0.005132
1411	7.0500e-01	5.8972	11.373122	0.000535	5.345459	0.905545	-0.010691
1412	7.0550e-01	5.8887	11.339339	0.000338	3.378330	0.572305	-0.006756
1413	7.0600e-01	5.8752	11.294439	0.000449	4.490185	0.760658	-0.008980
1414	7.0650e-01	5.8679	11.270492	0.000239	2.394765	0.405684	-0.004789
1415	7.0700e-01	5.8577	11.225163	0.000453	4.532949	0.767902	-0.009066
1416	7.0750e-01	5.8459	11.190098	0.000351	3.506621	0.594038	-0.007013
1417	7.0800e-01	5.8392	11.146908	0.000432	4.319131	0.731681	-0.008638
1418	7.0850e-01	5.8252	11.102435	0.000445	4.447422	0.753414	-0.008895
1419	7.0900e-01	5.8136	11.078916	0.000235	2.352002	0.398440	-0.004704
1420	7.0950e-01	5.8069	11.027173	0.000517	5.174404	0.876568	-0.010349
1421	7.1000e-01	5.7954	11.001515	0.000257	2.565820	0.434662	-0.005132
1422	7.1050e-01	5.7874	10.957042	0.000445	4.447422	0.753414	-0.008895
1423	7.1100e-01	5.7767	10.908293	0.000488	4.875058	0.825857	-0.009750
1424	7.1150e-01	5.7666	10.878787	0.000295	2.950693	0.499861	-0.005901
1425	7.1200e-01	5.7562	10.842866	0.000359	3.592148	0.608526	-0.007184
1426	7.1250e-01	5.7483	10.797966	0.000449	4.490185	0.760658	-0.008980
1427	7.1300e-01	5.7362	10.765039	0.000329	3.292803	0.557816	-0.006585
1428	7.1350e-01	5.7266	10.710730	0.000543	5.430986	0.920034	-0.010862
1429	7.1400e-01	5.7172	10.681224	0.000295	2.950693	0.499861	-0.005901
1430	7.1450e-01	5.7062	10.644448	0.000368	3.677676	0.623015	-0.007355
1431	7.1500e-01	5.6952	10.609811	0.000346	3.463857	0.586793	-0.006928
1432	7.1550e-01	5.6866	10.563200	0.000466	4.661240	0.789635	-0.009322
1433	7.1600e-01	5.6750	10.523003	0.000402	4.019785	0.680970	-0.008039
1434	7.1650e-01	5.6659	10.493069	0.000299	2.993457	0.507105	-0.005987
1435	7.1700e-01	5.6573	10.432774	0.000603	6.029677	1.021455	-0.012059
1436	7.1750e-01	5.6458	10.395570	0.000372	3.720439	0.630259	-0.007441
1437	7.1800e-01	5.6348	10.371623	0.000239	2.394765	0.405684	-0.004789
1438	7.1850e-01	5.6281	10.330144	0.000415	4.148076	0.702703	-0.008296
1439	7.1900e-01	5.6122	10.289947	0.000402	4.019785	0.680970	-0.008039
1440	7.1950e-01	5.6055	10.244619	0.000453	4.532949	0.767902	-0.009066
1441	7.2000e-01	5.5951	10.209981	0.000346	3.463857	0.586793	-0.006928
1442	7.2050e-01	5.5872	10.167646	0.000423	4.233603	0.717192	-0.008467
1443	7.2100e-01	5.5762	10.128732	0.000389	3.891494	0.659237	-0.007783
1444	7.2150e-01	5.5664	10.097088	0.000316	3.164512	0.536083	-0.006329
1445	7.2200e-01	5.5557	10.053898	0.000432	4.319131	0.731681	-0.008638
1446	7.2250e-01	5.5466	10.007714	0.000462	4.618476	0.782391	-0.009237
1447	7.2300e-01	5.5347	9.964524	0.000432	4.319131	0.731681	-0.008638
1448	7.2350e-01	5.5270	9.933308	0.000312	3.121748	0.528838	-0.006243
1449	7.2400e-01	5.5173	9.884558	0.000488	4.875058	0.825857	-0.009750
1450	7.2450e-01	5.5066	9.848638	0.000359	3.592148	0.608526	-0.007184
1451	7.2500e-01	5.4944	9.806730	0.000419	4.190840	0.709947	-0.008381
1452	7.2550e-01	5.4865	9.751994	0.000547	5.473750	0.927278	-0.010947
1453	7.2600e-01	5.4761	9.722061	0.000299	2.993457	0.507105	-0.005987
1454	7.2650e-01	5.4669	9.685712	0.000363	3.634912	0.615771	-0.007270
1455	7.2700e-01	5.4547	9.637818	0.000479	4.789531	0.811369	-0.009579
1456	7.2750e-01	5.4456	9.609168	0.000287	2.865166	0.485372	-0.005730
1457	7.2800e-01	5.4324	9.562129	0.000470	4.704004	0.796880	-0.009408
1458	7.2850e-01	5.4272	9.524925	0.000372	3.720439	0.630259	-0.007441
1459	7.2900e-01	5.4150	9.488577	0.000363	3.634912	0.615771	-0.007270
1460	7.2950e-01	5.4047	9.438545	0.000500	5.003349	0.847590	-0.010006
1461	7.3000e-01	5.3946	9.406473	0.000321	3.207275	0.543327	-0.006414
1462	7.3050e-01	5.3870	9.359862	0.000466	4.661240	0.789635	-0.009322
1463	7.3100e-01	5.3766	9.327362	0.000325	3.250039	0.550571	-0.006500
1464	7.3150e-01	5.3656	9.272199	0.000552	5.516513	0.934523	-0.011033
1465	7.3200e-01	5.3571	9.250818	0.000214	2.138183	0.362218	-0.004276
1466	7.3250e-01	5.3467	9.208910	0.000419	4.190840	0.709947	-0.008381
1467	7.3300e-01	5.3375	9.153747	0.000552	5.516513	0.934523	-0.011033
1468	7.3350e-01	5.3275	9.109274	0.000445	4.447422	0.753414	-0.008895
1469	7.3400e-01	5.3160	9.074208	0.000351	3.506621	0.594038	-0.007013
1470	7.3450e-01	5.3077	9.053682	0.000205	2.052656	0.347729	-0.004105
1471	7.3500e-01	5.2925	9.012630	0.000411	4.105312	0.695459	-0.008210
1472	7.3550e-01	5.2869	8.966874	0.000458	4.575713	0.775147	-0.009151
1473	7.3600e-01	5.2795	8.916415	0.000505	5.046113	0.854835	-0.010092
1474	7.3650e-01	5.2686	8.874080	0.000423	4.233603	0.717192	-0.008467
1475	7.3700e-01	5.2568	8.839014	0.000351	3.506621	0.594038	-0.007013
1476	7.3750e-01	5.2473	8.791120	0.000479	4.789531	0.811369	-0.009579
1477	7.3800e-01	5.2356	8.769739	0.000214	2.138183	0.362218	-0.004276
1478	7.3850e-01	5.2252	8.728259	0.000415	4.148076	0.702703	-0.008296
1479	7.3900e-01	5.2164	8.673523	0.000547	5.473750	0.927278	-0.010947
1480	7.3950e-01	5.2081	8.635037	0.000385	3.848730	0.651993	-0.007697
1481	7.4000e-01	5.1965	8.586288	0.000488	4.875058	0.825857	-0.009750
1482	7.4050e-01	5.1865	8.551223	0.000351	3.506621	0.594038	-0.007013
1483	7.4100e-01	5.1773	8.506750	0.000445	4.447422	0.753414	-0.008895
1484	7.4150e-01	5.1678	8.464842	0.000419	4.190840	0.709947	-0.008381
1485	7.4200e-01	5.1563	8.426356	0.000385	3.848730	0.651993	-0.007697
1486	7.4250e-01	5.1447	8.373331	0.000530	5.302695	0.898301	-0.010605
1487	7.4300e-01	5.1361	8.351094	0.000222	2.223711	0.376707	-0.004447
1488	7.4350e-01	5.1242	8.310897	0.000402	4.019785	0.680970	-0.008039
1489	7.4400e-01	5.1147	8.254451	0.000564	5.644804	0.956256	-0.011289
1490	7.4450e-01	5.1041	8.233925	0.000205	2.052656	0.347729	-0.004105
1491	7.4500e-01	5.0961	8.185603	0.000483	4.832295	0.818613	-0.009664
1492	7.4550e-01	5.0874	8.138992	0.000466	4.661240	0.789635	-0.009322
1493	7.4600e-01	5.0757	8.098795	0.000402	4.019785	0.680970	-0.008039
1494	7.4650e-01	5.0684	8.053894	0.000449	4.490185	0.760658	-0.008980
1495	7.4700e-01	5.0562	8.014553	0.000393	3.934258	0.666481	-0.007868
1496	7.4750e-01	5.0464	7.971363	0.000432	4.319131	0.731681	-0.008638
1497	7.4800e-01	5.0336	7.929883	0.000415	4.148076	0.702703	-0.008296
1498	7.4850e-01	5.0293	7.881561	0.000483	4.832295	0.818613	-0.009664
1499	7.4900e-01	5.0137	7.833240	0.000483	4.832295	0.818613	-0.009664
1500	7.4950e-01	5.0055	7.815707	0.000175	1.753310	0.297019	-0.003507
1501	7.5000e-01	4.9985	7.766530	0.000492	4.917822	0.833102	-0.009835
1502	7.5050e-01	4.9869	7.734031	0.000325	3.250039	0.550571	-0.006500
1503	7.5100e-01	4.9771	7.669032	0.000650	6.500078	1.101143	-0.013000
1504	7.5150e-01	4.9677	7.641236	0.000278	2.779639	0.470884	-0.005559
1505	7.5200e-01	4.9579	7.591204	0.000500	5.003349	0.847590	-0.010006
1506	7.5250e-01	4.9463	7.554000	0.000372	3.720439	0.630259	-0.007441
1507	7.5300e-01	4.9377	7.515514	0.000385	3.848730	0.651993	-0.007697
1508	7.5350e-01	4.9269	7.468048	0.000475	4.746767	0.804124	-0.009493
1509	7.5400e-01	4.9158	7.434693	0.000334	3.335566	0.565060	-0.006671
1510	7.5450e-01	4.9084	7.387227	0.000475	4.746767	0.804124	-0.009493
1511	7.5500e-01	4.9004	7.350878	0.000363	3.634912	0.615771	-0.007270
1512	7.5550e-01	4.8871	7.304267	0.000466	4.661240	0.789635	-0.009322
1513	7.5600e-01	4.8761	7.270057	0.000342	3.421094	0.579549	-0.006842
1514	7.5650e-01	4.8724	7.213183	0.000569	5.687568	0.963500	-0.011375
1515	7.5700e-01	4.8590	7.163151	0.000500	5.003349	0.847590	-0.010006
1516	7.5750e-01	4.8456	7.134072	0.000291	2.907930	0.492617	-0.005816
1517	7.5800e-01	4.8367	7.096441	0.000376	3.763203	0.637504	-0.007526
1518	7.5850e-01	4.8273	7.051541	0.000449	4.490185	0.760658	-0.008980
1519	7.5900e-01	4.8180	7.013910	0.000376	3.763203	0.637504	-0.007526
1520	7.5950e-01	4.8059	6.964305	0.000496	4.960586	0.840346	-0.009921
1521	7.6000e-01	4.7964	6.918122	0.000462	4.618476	0.782391	-0.009237
1522	7.6050e-01	4.7885	6.871083	0.000470	4.704004	0.796880	-0.009408
1523	7.6100e-01	4.7775	6.830031	0.000411	4.105312	0.695459	-0.008210
1524	7.6150e-01	4.7650	6.803090	0.000269	2.694111	0.456395	-0.005388
1525	7.6200e-01	4.7571	6.741512	0.000616	6.157968	1.043188	-0.012316
1526	7.6250e-01	4.7461	6.715427	0.000261	2.608584	0.441906	-0.005217
1527	7.6300e-01	4.7366	6.656843	0.000586	5.858623	0.992478	-0.011717
1528	7.6350e-01	4.7266	6.631185	0.000257	2.565820	0.434662	-0.005132
1529	7.6400e-01	4.7163	6.580298	0.000509	5.088877	0.862079	-0.010177
1530	7.6450e-01	4.7034	6.540101	0.000402	4.019785	0.680970	-0.008039
1531	7.6500e-01	4.6971	6.494773	0.000453	4.532949	0.767902	-0.009066
1532	7.6550e-01	4.6838	6.456286	0.000385	3.848730	0.651993	-0.007697
1533	7.6600e-01	4.6745	6.394281	0.000620	6.200732	1.050432	-0.012401
1534	7.6650e-01	4.6653	6.370334	0.000239	2.394765	0.405684	-0.004789
1535	7.6700e-01	4.6534	6.319019	0.000513	5.131640	0.869323	-0.010263
1536	7.6750e-01	4.6475	6.281388	0.000376	3.763203	0.637504	-0.007526
1537	7.6800e-01	4.6375	6.239053	0.000423	4.233603	0.717192	-0.008467
1538	7.6850e-01	4.6249	6.186027	0.000530	5.302695	0.898301	-0.010605
1539	7.6900e-01	4.6173	6.146686	0.000393	3.934258	0.666481	-0.007868
1540	7.6950e-01	4.6066	6.098364	0.000483	4.832295	0.818613	-0.009664
1541	7.7000e-01	4.5953	6.049615	0.000488	4.875058	0.825857	-0.009750
1542	7.7050e-01	4.5847	6.022674	0.000269	2.694111	0.456395	-0.005388
1543	7.7100e-01	4.5782	5.981622	0.000411	4.105312	0.695459	-0.008210
1544	7.7150e-01	4.5654	5.928597	0.000530	5.302695	0.898301	-0.010605
1545	7.7200e-01	4.5554	5.898235	0.000304	3.036221	0.514350	-0.006072
1546	7.7250e-01	4.5450	5.852480	0.000458	4.575713	0.775147	-0.009151
1547	7.7300e-01	4.5356	5.794750	0.000577	5.773095	0.977989	-0.011546
1548	7.7350e-01	4.5258	5.750705	0.000440	4.404658	0.746169	-0.008809
1549	7.7400e-01	4.5113	5.722909	0.000278	2.779639	0.470884	-0.005559
1550	7.7450e-01	4.5074	5.657482	0.000654	6.542841	1.108387	-0.013085
1551	7.7500e-01	4.4971	5.624555	0.000329	3.292803	0.557816	-0.006585
1552	7.7550e-01	4.4873	5.568109	0.000564	5.644804	0.956256	-0.011289
1553	7.7600e-01	4.4795	5.533471	0.000346	3.463857	0.586793	-0.006928
1554	7.7650e-01	4.4669	5.486005	0.000475	4.746767	0.804124	-0.009493
1555	7.7700e-01	4.4534	5.444953	0.000411	4.105312	0.695459	-0.008210
1556	7.7750e-01	4.4472	5.406894	0.000381	3.805967	0.644748	-0.007612
1557	7.7800e-01	4.4382	5.348737	0.000582	5.815859	0.985233	-0.011631
1558	7.7850e-01	4.4264	5.325218	0.000235	2.352002	0.398440	-0.004704
1559	7.7900e-01	4.4162	5.262357	0.000629	6.286259	1.064921	-0.012572
1560	7.7950e-01	4.4049	5.223870	0.000385	3.848730	0.651993	-0.007697
1561	7.8000e-01	4.3970	5.180253	0.000436	4.361894	0.738925	-0.008724
1562	7.8050e-01	4.3860	5.133641	0.000466	4.661240	0.789635	-0.009322
1563	7.8100e-01	4.3799	5.091307	0.000423	4.233603	0.717192	-0.008467
1564	7.8150e-01	4.3671	5.039991	0.000513	5.131640	0.869323	-0.010263
1565	7.8200e-01	4.3562	5.004926	0.000351	3.506621	0.594038	-0.007013
1566	7.8250e-01	4.3462	4.962164	0.000428	4.276367	0.724436	-0.008553
1567	7.8300e-01	4.3344	4.923250	0.000389	3.891494	0.659237	-0.007783
1568	7.8350e-01	4.3268	4.875356	0.000479	4.789531	0.811369	-0.009579
1569	7.8400e-01	4.3160	4.819337	0.000560	5.602041	0.949011	-0.011204
1570	7.8450e-01	4.3068	4.785127	0.000342	3.421094	0.579549	-0.006842
1571	7.8500e-01	4.2990	4.738943	0.000462	4.618476	0.782391	-0.009237
1572	7.8550e-01	4.2859	4.688484	0.000505	5.046113	0.854835	-0.010092
1573	7.8600e-01	4.2780	4.648714	0.000398	3.977021	0.673726	-0.007954
1574	7.8650e-01	4.2651	4.603386	0.000453	4.532949	0.767902	-0.009066
1575	7.8700e-01	4.2561	4.571742	0.000316	3.164512	0.536083	-0.006329
1576	7.8750e-01	4.2474	4.509309	0.000624	6.243496	1.057677	-0.012487
1577	7.8800e-01	4.2371	4.472960	0.000363	3.634912	0.615771	-0.007270
1578	7.8850e-01	4.2285	4.422928	0.000500	5.003349	0.847590	-0.010006
1579	7.8900e-01	4.2145	4.381021	0.000419	4.190840	0.709947	-0.008381
1580	7.8950e-01	4.2096	4.320726	0.000603	6.029677	1.021455	-0.012059
1581	7.9000e-01	4.1989	4.279246	0.000415	4.148076	0.702703	-0.008296
1582	7.9050e-01	4.1870	4.245891	0.000334	3.335566	0.565060	-0.006671
1583	7.9100e-01	4.1772	4.209543	0.000363	3.634912	0.615771	-0.007270
1584	7.9150e-01	4.1681	4.157373	0.000522	5.217168	0.883812	-0.010434
1585	7.9200e-01	4.1566	4.110334	0.000470	4.704004	0.796880	-0.009408
1586	7.9250e-01	4.1470	4.049184	0.000612	6.115205	1.035944	-0.012230
1587	7.9300e-01	4.1391	4.018822	0.000304	3.036221	0.514350	-0.006072
1588	7.9350e-01	4.1257	3.967507	0.000513	5.131640	0.869323	-0.010263
1589	7.9400e-01	4.1147	3.929021	0.000385	3.848730	0.651993	-0.007697
1590	7.9450e-01	4.1068	3.883265	0.000458	4.575713	0.775147	-0.009151
1591	7.9500e-01	4.0950	3.833233	0.000500	5.003349	0.847590	-0.010006
1592	7.9550e-01	4.0848	3.796885	0.000363	3.634912	0.615771	-0.007270
1593	7.9600e-01	4.0768	3.739583	0.000573	5.730332	0.970744	-0.011460
1594	7.9650e-01	4.0680	3.698531	0.000411	4.105312	0.695459	-0.008210
1595	7.9700e-01	4.0552	3.657479	0.000411	4.105312	0.695459	-0.008210
1596	7.9750e-01	4.0442	3.618565	0.000389	3.891494	0.659237	-0.007783
1597	7.9800e-01	4.0369	3.549290	0.000693	6.927714	1.173587	-0.013855
1598	7.9850e-01	4.0247	3.513369	0.000359	3.592148	0.608526	-0.007184
1599	7.9900e-01	4.0173	3.468896	0.000445	4.447422	0.753414	-0.008895
1600	7.9950e-01	4.0047	3.435114	0.000338	3.378330	0.572305	-0.006756
1601	8.0000e-01	3.9990	3.364128	0.000710	7.098769	1.202564	-0.014197
1602	8.0050e-01	3.9868	3.335477	0.000287	2.865166	0.485372	-0.005730
1603	8.0100e-01	3.9767	3.283734	0.000517	5.174404	0.876568	-0.010349
1604	8.0150e-01	3.9650	3.238834	0.000449	4.490185	0.760658	-0.008980
1605	8.0200e-01	3.9560	3.202913	0.000359	3.592148	0.608526	-0.007184
1606	8.0250e-01	3.9438	3.158440	0.000445	4.447422	0.753414	-0.008895
1607	8.0300e-01	3.9359	3.107980	0.000505	5.046113	0.854835	-0.010092
1608	8.0350e-01	3.9255	3.048113	0.000599	5.986914	1.014211	-0.011974
1609	8.0400e-01	3.9172	3.012620	0.000355	3.549385	0.601282	-0.007099
1610	8.0450e-01	3.9087	2.958312	0.000543	5.430986	0.920034	-0.010862
1611	8.0500e-01	3.8943	2.910845	0.000475	4.746767	0.804124	-0.009493
1612	8.0550e-01	3.8856	2.874069	0.000368	3.677676	0.623015	-0.007355
1613	8.0600e-01	3.8749	2.815912	0.000582	5.815859	0.985233	-0.011631
1614	8.0650e-01	3.8678	2.778281	0.000376	3.763203	0.637504	-0.007526
1615	8.0700e-01	3.8550	2.741078	0.000372	3.720439	0.630259	-0.007441
1616	8.0750e-01	3.8434	2.691901	0.000492	4.917822	0.833102	-0.009835
1617	8.0800e-01	3.8364	2.635882	0.000560	5.602041	0.949011	-0.011204
1618	8.0850e-01	3.8276	2.590554	0.000453	4.532949	0.767902	-0.009066
1619	8.0900e-01	3.8220	2.548647	0.000419	4.190840	0.709947	-0.008381
1620	8.0950e-01	3.8065	2.498614	0.000500	5.003349	0.847590	-0.010006
1621	8.1000e-01	3.7976	2.447299	0.000513	5.131640	0.869323	-0.010263
1622	8.1050e-01	3.7864	2.413089	0.000342	3.421094	0.579549	-0.006842
1623	8.1100e-01	3.7732	2.344242	0.000688	6.884951	1.166342	-0.013770
1624	8.1150e-01	3.7659	2.311315	0.000329	3.292803	0.557816	-0.006585
1625	8.1200e-01	3.7582	2.260427	0.000509	5.088877	0.862079	-0.010177
1626	8.1250e-01	3.7484	2.217237	0.000432	4.319131	0.731681	-0.008638
1627	8.1300e-01	3.7398	2.173619	0.000436	4.361894	0.738925	-0.008724
1628	8.1350e-01	3.7250	2.114179	0.000594	5.944150	1.006966	-0.011888
1629	8.1400e-01	3.7192	2.079114	0.000351	3.506621	0.594038	-0.007013
1630	8.1450e-01	3.7039	2.042766	0.000363	3.634912	0.615771	-0.007270
1631	8.1500e-01	3.6977	1.985037	0.000577	5.773095	0.977989	-0.011546
1632	8.1550e-01	3.6868	1.931156	0.000539	5.388222	0.912790	-0.010776
1633	8.1600e-01	3.6772	1.880696	0.000505	5.046113	0.854835	-0.010092
1634	8.1650e-01	3.6666	1.844775	0.000359	3.592148	0.608526	-0.007184
1635	8.1700e-01	3.6594	1.778066	0.000667	6.671132	1.130120	-0.013342
1636	8.1750e-01	3.6444	1.751553	0.000265	2.651348	0.449150	-0.005303
1637	8.1800e-01	3.6383	1.691258	0.000603	6.029677	1.021455	-0.012059
1638	8.1850e-01	3.6249	1.643364	0.000479	4.789531	0.811369	-0.009579
1639	8.1900e-01	3.6160	1.597608	0.000458	4.575713	0.775147	-0.009151
1640	8.1950e-01	3.6081	1.557839	0.000398	3.977021	0.673726	-0.007954
1641	8.2000e-01	3.5962	1.503530	0.000543	5.430986	0.920034	-0.010862
1642	8.2050e-01	3.5858	1.460340	0.000432	4.319131	0.731681	-0.008638
1643	8.2100e-01	3.5760	1.388499	0.000718	7.184296	1.217053	-0.014368
1644	8.2150e-01	3.5669	1.359848	0.000287	2.865166	0.485372	-0.005730
1645	8.2200e-01	3.5562	1.305968	0.000539	5.388222	0.912790	-0.010776
1646	8.2250e-01	3.5468	1.263205	0.000428	4.276367	0.724436	-0.008553
1647	8.2300e-01	3.5349	1.228140	0.000351	3.506621	0.594038	-0.007013
1648	8.2350e-01	3.5243	1.163996	0.000641	6.414550	1.086654	-0.012829
1649	8.2400e-01	3.5145	1.119095	0.000449	4.490185	0.760658	-0.008980
1650	8.2450e-01	3.5061	1.069918	0.000492	4.917822	0.833102	-0.009835
1651	8.2500e-01	3.4958	1.013900	0.000560	5.602041	0.949011	-0.011204
1652	8.2550e-01	3.4857	0.968144	0.000458	4.575713	0.775147	-0.009151
1653	8.2600e-01	3.4748	0.932223	0.000359	3.592148	0.608526	-0.007184
1654	8.2650e-01	3.4657	0.885184	0.000470	4.704004	0.796880	-0.009408
1655	8.2700e-01	3.4567	0.830448	0.000547	5.473750	0.927278	-0.010947
1656	8.2750e-01	3.4456	0.782127	0.000483	4.832295	0.818613	-0.009664
1657	8.2800e-01	3.4348	0.731239	0.000509	5.088877	0.862079	-0.010177
1658	8.2850e-01	3.4244	0.686339	0.000449	4.490185	0.760658	-0.008980
1659	8.2900e-01	3.4167	0.644431	0.000419	4.190840	0.709947	-0.008381
1660	8.2950e-01	3.4059	0.583281	0.000612	6.115205	1.035944	-0.012230
1661	8.3000e-01	3.3966	0.543084	0.000402	4.019785	0.680970	-0.008039
1662	8.3050e-01	3.3850	0.503315	0.000398	3.977021	0.673726	-0.007954
1663	8.3100e-01	3.3771	0.440026	0.000633	6.329023	1.072166	-0.012658
1664	8.3150e-01	3.3668	0.383580	0.000564	5.644804	0.956256	-0.011289
1665	8.3200e-01	3.3557	0.346804	0.000368	3.677676	0.623015	-0.007355
1666	8.3250e-01	3.3453	0.291640	0.000552	5.516513	0.934523	-0.011033
1667	8.3300e-01	3.3395	0.247167	0.000445	4.447422	0.753414	-0.008895
1668	8.3350e-01	3.3257	0.206115	0.000411	4.105312	0.695459	-0.008210
1669	8.3400e-01	3.3179	0.135985	0.000701	7.013242	1.188075	-0.014026
1670	8.3450e-01	3.3057	0.098781	0.000372	3.720439	0.630259	-0.007441
1671	8.3500e-01	3.2965	0.053453	0.000453	4.532949	0.767902	-0.009066
1672	8.3550e-01	3.2890	-0.007270	0.000607	6.072441	1.028699	-0.012145
1673	8.3600e-01	3.2795	-0.052170	0.000449	4.490185	0.760658	-0.008980
1674	8.3650e-01	3.2722	-0.099209	0.000470	4.704004	0.796880	-0.009408
1675	8.3700e-01	3.2562	-0.152235	0.000530	5.302695	0.898301	-0.010605
1676	8.3750e-01	3.2434	-0.203122	0.000509	5.088877	0.862079	-0.010177
1677	8.3800e-01	3.2333	-0.243746	0.000406	4.062549	0.688214	-0.008125
1678	8.3850e-01	3.2263	-0.292496	0.000488	4.875058	0.825857	-0.009750
1679	8.3900e-01	3.2166	-0.355784	0.000633	6.329023	1.072166	-0.012658
1680	8.3950e-01	3.2056	-0.399830	0.000440	4.404658	0.746169	-0.008809
1681	8.4000e-01	3.1982	-0.443875	0.000440	4.404658	0.746169	-0.008809
1682	8.4050e-01	3.1851	-0.501604	0.000577	5.773095	0.977989	-0.011546
1683	8.4100e-01	3.1772	-0.546505	0.000449	4.490185	0.760658	-0.008980
1684	8.4150e-01	3.1668	-0.601241	0.000547	5.473750	0.927278	-0.010947
1685	8.4200e-01	3.1577	-0.647425	0.000462	4.618476	0.782391	-0.009237
1686	8.4250e-01	3.1456	-0.702161	0.000547	5.473750	0.927278	-0.010947
1687	8.4300e-01	3.1354	-0.756469	0.000543	5.430986	0.920034	-0.010862
1688	8.4350e-01	3.1235	-0.788113	0.000316	3.164512	0.536083	-0.006329
1689	8.4400e-01	3.1163	-0.843277	0.000552	5.516513	0.934523	-0.011033
1690	8.4450e-01	3.1064	-0.890316	0.000470	4.704004	0.796880	-0.009408
1691	8.4500e-01	3.0945	-0.944197	0.000539	5.388222	0.912790	-0.010776
1692	8.4550e-01	3.0859	-0.998933	0.000547	5.473750	0.927278	-0.010947
1693	8.4600e-01	3.0731	-1.048537	0.000496	4.960586	0.840346	-0.009921
1694	8.4650e-01	3.0659	-1.096004	0.000475	4.746767	0.804124	-0.009493
1695	8.4700e-01	3.0587	-1.150740	0.000547	5.473750	0.927278	-0.010947
1696	8.4750e-01	3.0463	-1.195640	0.000449	4.490185	0.760658	-0.008980
1697	8.4800e-01	3.0402	-1.248666	0.000530	5.302695	0.898301	-0.010605
1698	8.4850e-01	3.0255	-1.305112	0.000564	5.644804	0.956256	-0.011289
1699	8.4900e-01	3.0206	-1.356855	0.000517	5.174404	0.876568	-0.010349
1700	8.4950e-01	3.0062	-1.404321	0.000475	4.746767	0.804124	-0.009493
1701	8.5000e-01	2.9968	-1.459913	0.000556	5.559277	0.941767	-0.011118
1702	8.5050e-01	2.9874	-1.495406	0.000355	3.549385	0.601282	-0.007099
1703	8.5100e-01	2.9750	-1.569385	0.000740	7.398115	1.253275	-0.014796
1704	8.5150e-01	2.9679	-1.604450	0.000351	3.506621	0.594038	-0.007013
1705	8.5200e-01	2.9553	-1.653199	0.000488	4.875058	0.825857	-0.009750
1706	8.5250e-01	2.9449	-1.715205	0.000620	6.200732	1.050432	-0.012401
1707	8.5300e-01	2.9349	-1.764382	0.000492	4.917822	0.833102	-0.009835
1708	8.5350e-01	2.9254	-1.813559	0.000492	4.917822	0.833102	-0.009835
1709	8.5400e-01	2.9160	-1.869578	0.000560	5.602041	0.949011	-0.011204
1710	8.5450e-01	2.9071	-1.907636	0.000381	3.805967	0.644748	-0.007612
1711	8.5500e-01	2.8939	-1.961090	0.000535	5.345459	0.905545	-0.010691
1712	8.5550e-01	2.8850	-2.020102	0.000590	5.901386	0.999722	-0.011802
1713	8.5600e-01	2.8735	-2.083818	0.000637	6.371787	1.079410	-0.012743
1714	8.5650e-01	2.8648	-2.112896	0.000291	2.907930	0.492617	-0.005816
1715	8.5700e-01	2.8551	-2.170626	0.000577	5.773095	0.977989	-0.011546
1716	8.5750e-01	2.8494	-2.222369	0.000517	5.174404	0.876568	-0.010349
1717	8.5800e-01	2.8375	-2.277105	0.000547	5.473750	0.927278	-0.010947
1718	8.5850e-01	2.8252	-2.327564	0.000505	5.046113	0.854835	-0.010092
1719	8.5900e-01	2.8165	-2.371610	0.000440	4.404658	0.746169	-0.008809
1720	8.5950e-01	2.8071	-2.443023	0.000714	7.141533	1.209808	-0.014283
1721	8.6000e-01	2.7957	-2.478944	0.000359	3.592148	0.608526	-0.007184
1722	8.6050e-01	2.7838	-2.522561	0.000436	4.361894	0.738925	-0.008724
1723	8.6100e-01	2.7763	-2.594830	0.000723	7.227060	1.224297	-0.014454
1724	8.6150e-01	2.7658	-2.647428	0.000526	5.259931	0.891056	-0.010520
1725	8.6200e-01	2.7567	-2.688908	0.000415	4.148076	0.702703	-0.008296
1726	8.6250e-01	2.7472	-2.747492	0.000586	5.858623	0.992478	-0.011717
1727	8.6300e-01	2.7362	-2.786834	0.000393	3.934258	0.666481	-0.007868
1728	8.6350e-01	2.7258	-2.856109	0.000693	6.927714	1.173587	-0.013855
1729	8.6400e-01	2.7145	-2.882622	0.000265	2.651348	0.449150	-0.005303
1730	8.6450e-01	2.7048	-2.955318	0.000727	7.269824	1.231541	-0.014539
1731	8.6500e-01	2.6981	-2.993805	0.000385	3.848730	0.651993	-0.007697
1732	8.6550e-01	2.6874	-3.063080	0.000693	6.927714	1.173587	-0.013855
1733	8.6600e-01	2.6756	-3.115250	0.000522	5.217168	0.883812	-0.010434
1734	8.6650e-01	2.6685	-3.160151	0.000449	4.490185	0.760658	-0.008980
1735	8.6700e-01	2.6581	-3.222584	0.000624	6.243496	1.057677	-0.012487
1736	8.6750e-01	2.6442	-3.264919	0.000423	4.233603	0.717192	-0.008467
1737	8.6800e-01	2.6375	-3.325214	0.000603	6.029677	1.021455	-0.012059
1738	8.6850e-01	2.6265	-3.367549	0.000423	4.233603	0.717192	-0.008467
1739	8.6900e-01	2.6175	-3.421002	0.000535	5.345459	0.905545	-0.010691
1740	8.6950e-01	2.6089	-3.494981	0.000740	7.398115	1.253275	-0.014796
1741	8.7000e-01	2.5965	-3.518501	0.000235	2.352002	0.398440	-0.004704
1742	8.7050e-01	2.5867	-3.588631	0.000701	7.013242	1.188075	-0.014026
1743	8.7100e-01	2.5769	-3.640374	0.000517	5.174404	0.876568	-0.010349
1744	8.7150e-01	2.5668	-3.690834	0.000505	5.046113	0.854835	-0.010092
1745	8.7200e-01	2.5565	-3.754550	0.000637	6.371787	1.079410	-0.012743
1746	8.7250e-01	2.5452	-3.788332	0.000338	3.378330	0.572305	-0.006756
1747	8.7300e-01	2.5361	-3.886686	0.000984	9.835644	1.666203	-0.019671
1748	8.7350e-01	2.5240	-3.905929	0.000192	1.924365	0.325996	-0.003849
1749	8.7400e-01	2.5137	-3.969218	0.000633	6.329023	1.072166	-0.012658
1750	8.7450e-01	2.5063	-4.024809	0.000556	5.559277	0.941767	-0.011118
1751	8.7500e-01	2.4991	-4.066289	0.000415	4.148076	0.702703	-0.008296
1752	8.7550e-01	2.4867	-4.120170	0.000539	5.388222	0.912790	-0.010776
1753	8.7600e-01	2.4758	-4.172340	0.000522	5.217168	0.883812	-0.010434
1754	8.7650e-01	2.4643	-4.230069	0.000577	5.773095	0.977989	-0.011546
1755	8.7700e-01	2.4574	-4.286088	0.000560	5.602041	0.949011	-0.011204
1756	8.7750e-01	2.4471	-4.328851	0.000428	4.276367	0.724436	-0.008553
1757	8.7800e-01	2.4359	-4.381876	0.000530	5.302695	0.898301	-0.010605
1758	8.7850e-01	2.4257	-4.432336	0.000505	5.046113	0.854835	-0.010092
1759	8.7900e-01	2.4158	-4.498618	0.000663	6.628369	1.122876	-0.013256
1760	8.7950e-01	2.4057	-4.544374	0.000458	4.575713	0.775147	-0.009151
1761	8.8000e-01	2.3950	-4.603386	0.000590	5.901386	0.999722	-0.011802
1762	8.8050e-01	2.3868	-4.648287	0.000449	4.490185	0.760658	-0.008980
1763	8.8100e-01	2.3774	-4.706016	0.000577	5.773095	0.977989	-0.011546
1764	8.8150e-01	2.3676	-4.788975	0.000830	8.296152	1.405406	-0.016592
1765	8.8200e-01	2.3569	-4.817626	0.000287	2.865166	0.485372	-0.005730
1766	8.8250e-01	2.3444	-4.887757	0.000701	7.013242	1.188075	-0.014026
1767	8.8300e-01	2.3367	-4.946769	0.000590	5.901386	0.999722	-0.011802
1768	8.8350e-01	2.3247	-4.977558	0.000308	3.078984	0.521594	-0.006158
1769	8.8400e-01	2.3184	-5.048116	0.000706	7.056005	1.195320	-0.014112
1770	8.8450e-01	2.3076	-5.095583	0.000475	4.746767	0.804124	-0.009493
1771	8.8500e-01	2.2957	-5.154595	0.000590	5.901386	0.999722	-0.011802
1772	8.8550e-01	2.2864	-5.212324	0.000577	5.773095	0.977989	-0.011546
1773	8.8600e-01	2.2742	-5.254232	0.000419	4.190840	0.709947	-0.008381
1774	8.8650e-01	2.2638	-5.308113	0.000539	5.388222	0.912790	-0.010776
1775	8.8700e-01	2.2580	-5.367125	0.000590	5.901386	0.999722	-0.011802
1776	8.8750e-01	2.2498	-5.426565	0.000594	5.944150	1.006966	-0.011888
1777	8.8800e-01	2.2359	-5.480018	0.000535	5.345459	0.905545	-0.010691
1778	8.8850e-01	2.2253	-5.547583	0.000676	6.756660	1.144609	-0.013513
1779	8.8900e-01	2.2163	-5.606167	0.000586	5.858623	0.992478	-0.011717
1780	8.8950e-01	2.2073	-5.639522	0.000334	3.335566	0.565060	-0.006671
1781	8.9000e-01	2.1936	-5.715639	0.000761	7.611933	1.289496	-0.015223
1782	8.9050e-01	2.1852	-5.752843	0.000372	3.720439	0.630259	-0.007441
1783	8.9100e-01	2.1758	-5.818269	0.000654	6.542841	1.108387	-0.013085
1784	8.9150e-01	2.1671	-5.875144	0.000569	5.687568	0.963500	-0.011375
1785	8.9200e-01	2.1584	-5.920044	0.000449	4.490185	0.760658	-0.008980
1786	8.9250e-01	2.1475	-5.985899	0.000659	6.585605	1.115632	-0.013171
1787	8.9300e-01	2.1379	-6.038924	0.000530	5.302695	0.898301	-0.010605
1788	8.9350e-01	2.1269	-6.102640	0.000637	6.371787	1.079410	-0.012743
1789	8.9400e-01	2.1167	-6.155238	0.000526	5.259931	0.891056	-0.010520
1790	8.9450e-01	2.1046	-6.199284	0.000440	4.404658	0.746169	-0.008809
1791	8.9500e-01	2.0960	-6.260862	0.000616	6.157968	1.043188	-0.012316
1792	8.9550e-01	2.0862	-6.316881	0.000560	5.602041	0.949011	-0.011204
1793	8.9600e-01	2.0749	-6.387439	0.000706	7.056005	1.195320	-0.014112
1794	8.9650e-01	2.0660	-6.428918	0.000415	4.148076	0.702703	-0.008296
1795	8.9700e-01	2.0552	-6.480233	0.000513	5.131640	0.869323	-0.010263
1796	8.9750e-01	2.0483	-6.552502	0.000723	7.227060	1.224297	-0.014454
1797	8.9800e-01	2.0357	-6.602962	0.000505	5.046113	0.854835	-0.010092
1798	8.9850e-01	2.0268	-6.655132	0.000522	5.217168	0.883812	-0.010434
1799	8.9900e-01	2.0167	-6.707730	0.000526	5.259931	0.891056	-0.010520
1800	8.9950e-01	2.0058	-6.754341	0.000466	4.661240	0.789635	-0.009322
1801	9.0000e-01	1.9946	-6.814209	0.000599	5.986914	1.014211	-0.011974
1802	9.0050e-01	1.9850	-6.880918	0.000667	6.671132	1.130120	-0.013342
1803	9.0100e-01	1.9725	-6.937365	0.000564	5.644804	0.956256	-0.011289
1804	9.0150e-01	1.9673	-6.999798	0.000624	6.243496	1.057677	-0.012487
1805	9.0200e-01	1.9565	-7.041705	0.000419	4.190840	0.709947	-0.008381
1806	9.0250e-01	1.9447	-7.116967	0.000753	7.526406	1.275008	-0.015052
1807	9.0300e-01	1.9357	-7.156309	0.000393	3.934258	0.666481	-0.007868
1808	9.0350e-01	1.9240	-7.230288	0.000740	7.398115	1.253275	-0.014796
1809	9.0400e-01	1.9159	-7.280748	0.000505	5.046113	0.854835	-0.010092
1810	9.0450e-01	1.9067	-7.338905	0.000582	5.815859	0.985233	-0.011631
1811	9.0500e-01	1.8935	-7.397062	0.000582	5.815859	0.985233	-0.011631
1812	9.0550e-01	1.8829	-7.438969	0.000419	4.190840	0.709947	-0.008381
1813	9.0600e-01	1.8760	-7.509100	0.000701	7.013242	1.188075	-0.014026
1814	9.0650e-01	1.8661	-7.568540	0.000594	5.944150	1.006966	-0.011888
1815	9.0700e-01	1.8588	-7.627980	0.000594	5.944150	1.006966	-0.011888
1816	9.0750e-01	1.8444	-7.687847	0.000599	5.986914	1.014211	-0.011974
1817	9.0800e-01	1.8352	-7.735314	0.000475	4.746767	0.804124	-0.009493
1818	9.0850e-01	1.8275	-7.802878	0.000676	6.756660	1.144609	-0.013513
1819	9.0900e-01	1.8137	-7.862746	0.000599	5.986914	1.014211	-0.011974
1820	9.0950e-01	1.8052	-7.917482	0.000547	5.473750	0.927278	-0.010947
1821	9.1000e-01	1.7953	-7.973073	0.000556	5.559277	0.941767	-0.011118
1822	9.1050e-01	1.7854	-8.023961	0.000509	5.088877	0.862079	-0.010177
1823	9.1100e-01	1.7780	-8.091098	0.000671	6.713896	1.137365	-0.013427
1824	9.1150e-01	1.7651	-8.143696	0.000526	5.259931	0.891056	-0.010520
1825	9.1200e-01	1.7557	-8.207840	0.000641	6.414550	1.086654	-0.012829
1826	9.1250e-01	1.7466	-8.257016	0.000492	4.917822	0.833102	-0.009835
1827	9.1300e-01	1.7374	-8.325864	0.000688	6.884951	1.166342	-0.013770
1828	9.1350e-01	1.7276	-8.386159	0.000603	6.029677	1.021455	-0.012059
1829	9.1400e-01	1.7158	-8.443461	0.000573	5.730332	0.970744	-0.011460
1830	9.1450e-01	1.7051	-8.488362	0.000449	4.490185	0.760658	-0.008980
1831	9.1500e-01	1.6974	-8.551223	0.000629	6.286259	1.064921	-0.012572
1832	9.1550e-01	1.6867	-8.633754	0.000825	8.253388	1.398162	-0.016506
1833	9.1600e-01	1.6789	-8.675662	0.000419	4.190840	0.709947	-0.008381
1834	9.1650e-01	1.6664	-8.729115	0.000535	5.345459	0.905545	-0.010691
1835	9.1700e-01	1.6535	-8.791120	0.000620	6.200732	1.050432	-0.012401
1836	9.1750e-01	1.6467	-8.847139	0.000560	5.602041	0.949011	-0.011204
1837	9.1800e-01	1.6351	-8.906152	0.000590	5.901386	0.999722	-0.011802
1838	9.1850e-01	1.6262	-8.965164	0.000590	5.901386	0.999722	-0.011802
1839	9.1900e-01	1.6148	-9.023749	0.000586	5.858623	0.992478	-0.011717
1840	9.1950e-01	1.6061	-9.091313	0.000676	6.756660	1.144609	-0.013513
1841	9.2000e-01	1.5959	-9.148188	0.000569	5.687568	0.963500	-0.011375
1842	9.2050e-01	1.5861	-9.207200	0.000590	5.901386	0.999722	-0.011802
1843	9.2100e-01	1.5759	-9.263219	0.000560	5.602041	0.949011	-0.011204
1844	9.2150e-01	1.5626	-9.320520	0.000573	5.730332	0.970744	-0.011460
1845	9.2200e-01	1.5558	-9.376112	0.000556	5.559277	0.941767	-0.011118
1846	9.2250e-01	1.5424	-9.438117	0.000620	6.200732	1.050432	-0.012401
1847	9.2300e-01	1.5359	-9.502689	0.000646	6.457314	1.093899	-0.012914
1848	9.2350e-01	1.5256	-9.574102	0.000714	7.141533	1.209808	-0.014283
1849	9.2400e-01	1.5189	-9.607457	0.000334	3.335566	0.565060	-0.006671
1850	9.2450e-01	1.5059	-9.683574	0.000761	7.611933	1.289496	-0.015223
1851	9.2500e-01	1.4971	-9.746435	0.000629	6.286259	1.064921	-0.012572
1852	9.2550e-01	1.4865	-9.808869	0.000624	6.243496	1.057677	-0.012487
1853	9.2600e-01	1.4738	-9.856763	0.000479	4.789531	0.811369	-0.009579
1854	9.2650e-01	1.4656	-9.927748	0.000710	7.098769	1.202564	-0.014197
1855	9.2700e-01	1.4542	-9.985478	0.000577	5.773095	0.977989	-0.011546
1856	9.2750e-01	1.4433	-10.038076	0.000526	5.259931	0.891056	-0.010520
1857	9.2800e-01	1.4358	-10.111627	0.000736	7.355351	1.246030	-0.014710
1858	9.2850e-01	1.4243	-10.153535	0.000419	4.190840	0.709947	-0.008381
1859	9.2900e-01	1.4144	-10.223237	0.000697	6.970478	1.180831	-0.013941
1860	9.2950e-01	1.4044	-10.286098	0.000629	6.286259	1.064921	-0.012572
1861	9.3000e-01	1.3951	-10.353236	0.000671	6.713896	1.137365	-0.013427
1862	9.3050e-01	1.3837	-10.418662	0.000654	6.542841	1.108387	-0.013085
1863	9.3100e-01	1.3742	-10.468267	0.000496	4.960586	0.840346	-0.009921
1864	9.3150e-01	1.3641	-10.538397	0.000701	7.013242	1.188075	-0.014026
1865	9.3200e-01	1.3550	-10.588857	0.000505	5.046113	0.854835	-0.010092
1866	9.3250e-01	1.3457	-10.653428	0.000646	6.457314	1.093899	-0.012914
1867	9.3300e-01	1.3361	-10.721849	0.000684	6.842187	1.159098	-0.013684
1868	9.3350e-01	1.3258	-10.772308	0.000505	5.046113	0.854835	-0.010092
1869	9.3400e-01	1.3173	-10.838163	0.000659	6.585605	1.115632	-0.013171
1870	9.3450e-01	1.3033	-10.889050	0.000509	5.088877	0.862079	-0.010177
1871	9.3500e-01	1.2950	-10.959181	0.000701	7.013242	1.188075	-0.014026
1872	9.3550e-01	1.2872	-11.018620	0.000594	5.944150	1.006966	-0.011888
1873	9.3600e-01	1.2756	-11.077633	0.000590	5.901386	0.999722	-0.011802
1874	9.3650e-01	1.2647	-11.150757	0.000731	7.312587	1.238786	-0.014625
1875	9.3700e-01	1.2550	-11.200361	0.000496	4.960586	0.840346	-0.009921
1876	9.3750e-01	1.2444	-11.266643	0.000663	6.628369	1.122876	-0.013256
1877	9.3800e-01	1.2368	-11.332497	0.000659	6.585605	1.115632	-0.013171
1878	9.3850e-01	1.2248	-11.381674	0.000492	4.917822	0.833102	-0.009835
1879	9.3900e-01	1.2178	-11.447529	0.000659	6.585605	1.115632	-0.013171
1880	9.3950e-01	1.2056	-11.509534	0.000620	6.200732	1.050432	-0.012401
1881	9.4000e-01	1.1981	-11.571112	0.000616	6.157968	1.043188	-0.012316
1882	9.4050e-01	1.1865	-11.631835	0.000607	6.072441	1.028699	-0.012145
1883	9.4100e-01	1.1749	-11.693413	0.000616	6.157968	1.043188	-0.012316
1884	9.4150e-01	1.1655	-11.761833	0.000684	6.842187	1.159098	-0.013684
1885	9.4200e-01	1.1599	-11.819135	0.000573	5.730332	0.970744	-0.011460
1886	9.4250e-01	1.1464	-11.889266	0.000701	7.013242	1.188075	-0.014026
1887	9.4300e-01	1.1366	-11.945284	0.000560	5.602041	0.949011	-0.011204
1888	9.4350e-01	1.1259	-12.005152	0.000599	5.986914	1.014211	-0.011974
1889	9.4400e-01	1.1169	-12.074855	0.000697	6.970478	1.180831	-0.013941
1890	9.4450e-01	1.1064	-12.128308	0.000535	5.345459	0.905545	-0.010691
1891	9.4500e-01	1.0972	-12.190741	0.000624	6.243496	1.057677	-0.012487
1892	9.4550e-01	1.0863	-12.255740	0.000650	6.500078	1.101143	-0.013000
1893	9.4600e-01	1.0757	-12.325443	0.000697	6.970478	1.180831	-0.013941
1894	9.4650e-01	1.0669	-12.381890	0.000564	5.644804	0.956256	-0.011289
1895	9.4700e-01	1.0561	-12.443895	0.000620	6.200732	1.050432	-0.012401
1896	9.4750e-01	1.0480	-12.513171	0.000693	6.927714	1.173587	-0.013855
1897	9.4800e-01	1.0350	-12.576887	0.000637	6.371787	1.079410	-0.012743
1898	9.4850e-01	1.0247	-12.658136	0.000813	8.125097	1.376429	-0.016250
1899	9.4900e-01	1.0155	-12.701326	0.000432	4.319131	0.731681	-0.008638
1900	9.4950e-01	1.0057	-12.759055	0.000577	5.773095	0.977989	-0.011546
1901	9.5000e-01	0.9988	-12.828758	0.000697	6.970478	1.180831	-0.013941
1902	9.5050e-01	0.9877	-12.898461	0.000697	6.970478	1.180831	-0.013941
1903	9.5100e-01	0.9756	-12.951914	0.000535	5.345459	0.905545	-0.010691
1904	9.5150e-01	0.9674	-13.019907	0.000680	6.799423	1.151854	-0.013598
1905	9.5200e-01	0.9573	-13.076781	0.000569	5.687568	0.963500	-0.011375
1906	9.5250e-01	0.9454	-13.143918	0.000671	6.713896	1.137365	-0.013427
1907	9.5300e-01	0.9357	-13.208489	0.000646	6.457314	1.093899	-0.012914
1908	9.5350e-01	0.9277	-13.284179	0.000757	7.569169	1.282252	-0.015138
1909	9.5400e-01	0.9180	-13.347040	0.000629	6.286259	1.064921	-0.012572
1910	9.5450e-01	0.9055	-13.409901	0.000629	6.286259	1.064921	-0.012572
1911	9.5500e-01	0.8927	-13.459506	0.000496	4.960586	0.840346	-0.009921
1912	9.5550e-01	0.8856	-13.539899	0.000804	8.039570	1.361940	-0.016079
1913	9.5600e-01	0.8765	-13.597201	0.000573	5.730332	0.970744	-0.011460
1914	9.5650e-01	0.8661	-13.661772	0.000646	6.457314	1.093899	-0.012914
1915	9.5700e-01	0.8544	-13.730192	0.000684	6.842187	1.159098	-0.013684
1916	9.5750e-01	0.8443	-13.791343	0.000612	6.115205	1.035944	-0.012230
1917	9.5800e-01	0.8362	-13.842658	0.000513	5.131640	0.869323	-0.010263
1918	9.5850e-01	0.8255	-13.923479	0.000808	8.082334	1.369184	-0.016164
1919	9.5900e-01	0.8160	-13.985057	0.000616	6.157968	1.043188	-0.012316
1920	9.5950e-01	0.8049	-14.046635	0.000616	6.157968	1.043188	-0.012316
1921	9.6000e-01	0.7985	-14.112062	0.000654	6.542841	1.108387	-0.013085
1922	9.6050e-01	0.7860	-14.192883	0.000808	8.082334	1.369184	-0.016164
1923	9.6100e-01	0.7743	-14.260875	0.000680	6.799423	1.151854	-0.013598
1924	9.6150e-01	0.7646	-14.315184	0.000543	5.430986	0.920034	-0.010862
1925	9.6200e-01	0.7557	-14.387452	0.000723	7.227060	1.224297	-0.014454
1926	9.6250e-01	0.7485	-14.447320	0.000599	5.986914	1.014211	-0.011974
1927	9.6300e-01	0.7355	-14.518733	0.000714	7.141533	1.209808	-0.014283
1928	9.6350e-01	0.7259	-14.576463	0.000577	5.773095	0.977989	-0.011546
1929	9.6400e-01	0.7156	-14.647021	0.000706	7.056005	1.195320	-0.014112
1930	9.6450e-01	0.7037	-14.700474	0.000535	5.345459	0.905545	-0.010691
1931	9.6500e-01	0.6959	-14.770605	0.000701	7.013242	1.188075	-0.014026
1932	9.6550e-01	0.6856	-14.845439	0.000748	7.483642	1.267763	-0.014967
1933	9.6600e-01	0.6780	-14.912149	0.000667	6.671132	1.130120	-0.013342
1934	9.6650e-01	0.6640	-14.957477	0.000453	4.532949	0.767902	-0.009066
1935	9.6700e-01	0.6553	-15.039581	0.000821	8.210625	1.390917	-0.016421
1936	9.6750e-01	0.6462	-15.113560	0.000740	7.398115	1.253275	-0.014796
1937	9.6800e-01	0.6364	-15.170862	0.000573	5.730332	0.970744	-0.011460
1938	9.6850e-01	0.6268	-15.235861	0.000650	6.500078	1.101143	-0.013000
1939	9.6900e-01	0.6183	-15.311123	0.000753	7.526406	1.275008	-0.015052
1940	9.6950e-01	0.6079	-15.360727	0.000496	4.960586	0.840346	-0.009921
1941	9.7000e-01	0.5956	-15.425727	0.000650	6.500078	1.101143	-0.013000
1942	9.7050e-01	0.5864	-15.490726	0.000650	6.500078	1.101143	-0.013000
1943	9.7100e-01	0.5769	-15.560856	0.000701	7.013242	1.188075	-0.014026
1944	9.7150e-01	0.5645	-15.632697	0.000718	7.184296	1.217053	-0.014368
1945	9.7200e-01	0.5567	-15.699834	0.000671	6.713896	1.137365	-0.013427
1946	9.7250e-01	0.5441	-15.771248	0.000714	7.141533	1.209808	-0.014283
1947	9.7300e-01	0.5373	-15.834536	0.000633	6.329023	1.072166	-0.012658
1948	9.7350e-01	0.5261	-15.907233	0.000727	7.269824	1.231541	-0.014539
1949	9.7400e-01	0.5160	-15.968811	0.000616	6.157968	1.043188	-0.012316
1950	9.7450e-01	0.5058	-16.042362	0.000736	7.355351	1.246030	-0.014710
1951	9.7500e-01	0.4936	-16.109072	0.000667	6.671132	1.130120	-0.013342
1952	9.7550e-01	0.4842	-16.168512	0.000594	5.944150	1.006966	-0.011888
1953	9.7600e-01	0.4766	-16.234794	0.000663	6.628369	1.122876	-0.013256
1954	9.7650e-01	0.4661	-16.307917	0.000731	7.312587	1.238786	-0.014625
1955	9.7700e-01	0.4544	-16.365219	0.000573	5.730332	0.970744	-0.011460
1956	9.7750e-01	0.4465	-16.441337	0.000761	7.611933	1.289496	-0.015223
1957	9.7800e-01	0.4391	-16.514888	0.000736	7.355351	1.246030	-0.014710
1958	9.7850e-01	0.4260	-16.583308	0.000684	6.842187	1.159098	-0.013684
1959	9.7900e-01	0.4163	-16.645314	0.000620	6.200732	1.050432	-0.012401
1960	9.7950e-01	0.4063	-16.721859	0.000765	7.654697	1.296741	-0.015309
1961	9.8000e-01	0.3952	-16.777450	0.000556	5.559277	0.941767	-0.011118
1962	9.8050e-01	0.3860	-16.858271	0.000808	8.082334	1.369184	-0.016164
1963	9.8100e-01	0.3737	-16.919422	0.000612	6.115205	1.035944	-0.012230
1964	9.8150e-01	0.3652	-16.992118	0.000727	7.269824	1.231541	-0.014539
1965	9.8200e-01	0.3560	-17.059255	0.000671	6.713896	1.137365	-0.013427
1966	9.8250e-01	0.3468	-17.127248	0.000680	6.799423	1.151854	-0.013598
1967	9.8300e-01	0.3393	-17.194812	0.000676	6.756660	1.144609	-0.013513
1968	9.8350e-01	0.3255	-17.266653	0.000718	7.184296	1.217053	-0.014368
1969	9.8400e-01	0.3159	-17.338922	0.000723	7.227060	1.224297	-0.014454
1970	9.8450e-01	0.3043	-17.402211	0.000633	6.329023	1.072166	-0.012658
1971	9.8500e-01	0.2965	-17.474479	0.000723	7.227060	1.224297	-0.014454
1972	9.8550e-01	0.2869	-17.548458	0.000740	7.398115	1.253275	-0.014796
1973	9.8600e-01	0.2743	-17.610464	0.000620	6.200732	1.050432	-0.012401
1974	9.8650e-01	0.2689	-17.680595	0.000701	7.013242	1.188075	-0.014026
1975	9.8700e-01	0.2544	-17.741745	0.000612	6.115205	1.035944	-0.012230
1976	9.8750e-01	0.2445	-17.811020	0.000693	6.927714	1.173587	-0.013855
1977	9.8800e-01	0.2380	-17.886710	0.000757	7.569169	1.282252	-0.015138
1978	9.8850e-01	0.2261	-17.959834	0.000731	7.312587	1.238786	-0.014625
1979	9.8900e-01	0.2168	-18.033813	0.000740	7.398115	1.253275	-0.014796
1980	9.8950e-01	0.2047	-18.088549	0.000547	5.473750	0.927278	-0.010947
1981	9.9000e-01	0.1968	-18.162101	0.000736	7.355351	1.246030	-0.014710
1982	9.9050e-01	0.1856	-18.221113	0.000590	5.901386	0.999722	-0.011802
1983	9.9100e-01	0.1773	-18.302789	0.000817	8.167861	1.383673	-0.016335
1984	9.9150e-01	0.1655	-18.374630	0.000718	7.184296	1.217053	-0.014368
1985	9.9200e-01	0.1542	-18.433643	0.000590	5.901386	0.999722	-0.011802
1986	9.9250e-01	0.1450	-18.516602	0.000830	8.296152	1.405406	-0.016592
1987	9.9300e-01	0.1374	-18.582029	0.000654	6.542841	1.108387	-0.013085
1988	9.9350e-01	0.1254	-18.652587	0.000706	7.056005	1.195320	-0.014112
1989	9.9400e-01	0.1148	-18.726566	0.000740	7.398115	1.253275	-0.014796
1990	9.9450e-01	0.1053	-18.786861	0.000603	6.029677	1.021455	-0.012059
1991	9.9500e-01	0.0961	-18.868110	0.000813	8.125097	1.376429	-0.016250
1992	9.9550e-01	0.0898	-18.925839	0.000577	5.773095	0.977989	-0.011546
1993	9.9600e-01	0.0753	-19.001529	0.000757	7.569169	1.282252	-0.015138
1994	9.9650e-01	0.0628	-19.069949	0.000684	6.842187	1.159098	-0.013684
1995	9.9700e-01	0.0555	-19.135803	0.000659	6.585605	1.115632	-0.013171
1996	9.9750e-01	0.0456	-19.216197	0.000804	8.039570	1.361940	-0.016079
1997	9.9800e-01	0.0340	-19.283334	0.000671	6.713896	1.137365	-0.013427
1998	9.9850e-01	0.0269	-19.358596	0.000753	7.526406	1.275008	-0.015052
1999	9.9900e-01	0.0151	-19.426589	0.000680	6.799423	1.151854	-0.013598
2000	9.9950e-01	0.0077	-19.495009	0.000684	6.842187	1.159098	-0.013684
2001	1.0000e+00	-0.0036	-19.580961	0.000684	6.842187	1.159098	-0.017191

PMax (uC/cm2):	4.84e+01
Pr (uC/cm2):	4.64e+00
-Pr (uC/cm2):	0.00e+00
PLoss (uC/cm2):	0.00e+00
C (Max-Eff) (nF):	4.85e-01
K (Eff):	8.21e+02
Vert. (+/-Pr) Shift (uC/cm2):	2.32e+00
Offset (uC/cm2):	2.42e+01

A (Loop Area - uC/cm2·Volts):	-4.54e-02



Hysteresis Version: 5.48.1 - Radiant Technologies, Inc., 1999 - 9/12/24

