»»»»»»»»»»»»»»»»»»»»»»»»»»»»»»»»»»»» Hysteresis ««««««««««««««««««««««««««««««««««««
»»»  Executed Version:	5.48.1
»»»  Vision Version:	5.48.4 (R)
»»»  Vision Compiled:	9/18/24
»»»  Driver Version:	5.47.0
»»»  Windows Version:	Windows 8 or 8.1
»»»  Processor Information:	x86 (AMD or Intel) - 32 Processors
»»»  Tester Name:	PMF21124-494 (100V)
»»»  Tester S/N:	PMF21124-494
»»»  Internal Amp Type:	100V RevK 270k
»»»  Internal Amp S/N:	iAB2-596/K     
»»»  Execution Count:	1
»»»»»»»»»»»»»»»»»»»»»»»»»»»»»»»»»»»»»»»»»»««««««««««««««««««««««««««««««««««««««««««

Stored:	6/25/2025 - 16:46:30
Configured:	06/25/25 10:44:40 AM
Executed:	06/25/25 04:45:56 PM

»»»»»»»»»»»»»»»»»»»»»»»»»»»»»»»»»»» Sample Info ««««««««««««««««««««««««««««««««««««
Sample Name:	
Lot Name:	
Wafer Name:	
Die Row/Column:	0/0
Capacitor Number:	0
Sample Area (cm2):	1.00e-04
Sample Thickness (microns):	1.50e-01

Amplifier:	Internal

»»»»»»»»»»»»»»»»»»»»»»»»»»»»»»»»»»» Tester Info «««««««««««««««««««««««««««««««««««
Tester Name:	PMF21124-494 (100V)
Tester Serial Number:	PMF21124-494
Return Signal Amp. Level:	1.79 [Index: 2]

»»»»»»»»»»»»»»»»»»»»»»»»»»»»»»»» Hysteresis Info ««««««««««««««««««««««««««««««««««
Task Name:	Hyst-116
Volts:	10.00
Field:	666.67 (kV/cm)
DCBias:	0.00
DCField:	0.00 (kV/cm)
Hysteresis Period (ms):	1.00e+00
Preset:	Enabled
Preset Delay (ms):	1.00e+03
Profile:	Standard Monopolar

»»»»»»»»»»»»»»»»»»»»»»»»»»»»»»»»»»»»»» Data «««««««««««««««««««««««««««««««««««««««
Points:	2001

Valid Data

Point	Time (ms)	Drive Voltage	Measured Polarization (uC/cm2)	Capacitance (uF)	Normalized Capacitance (uF/cm2)	Dielectric Constant	Instantaneous Current (mA)
   1	0.0000e+00	-0.0045	-25.302160	0.000111	1.111775	0.188340	0.002224
   2	5.0000e-04	0.0051	-25.291042	0.000111	1.111775	0.188340	0.002224
   3	1.0000e-03	0.0151	-25.253838	0.000372	3.720170	0.630214	0.007441
   4	1.5000e-03	0.0271	-25.210220	0.000436	4.361578	0.738871	0.008724
   5	2.0000e-03	0.0349	-25.153346	0.000569	5.687156	0.963430	0.011375
   6	2.5000e-03	0.0436	-25.096900	0.000564	5.644395	0.956186	0.011289
   7	3.0000e-03	0.0552	-25.032328	0.000646	6.456846	1.093819	0.012914
   8	3.5000e-03	0.0644	-24.965619	0.000667	6.670649	1.130039	0.013342
   9	4.0000e-03	0.0739	-24.903613	0.000620	6.200283	1.050356	0.012401
  10	4.5000e-03	0.0851	-24.836048	0.000676	6.756170	1.144526	0.013513
  11	5.0000e-03	0.0972	-24.772760	0.000633	6.328564	1.072088	0.012658
  12	5.5000e-03	0.1036	-24.703057	0.000697	6.969973	1.180745	0.013941
  13	6.0000e-03	0.1157	-24.636775	0.000663	6.627888	1.122795	0.013256
  14	6.5000e-03	0.1254	-24.570493	0.000663	6.627888	1.122795	0.013256
  15	7.0000e-03	0.1353	-24.502073	0.000684	6.841691	1.159014	0.013684
  16	7.5000e-03	0.1452	-24.436646	0.000654	6.542367	1.108307	0.013085
  17	8.0000e-03	0.1557	-24.369937	0.000667	6.670649	1.130039	0.013342
  18	8.5000e-03	0.1645	-24.301089	0.000688	6.884452	1.166258	0.013770
  19	9.0000e-03	0.1740	-24.236090	0.000650	6.499607	1.101063	0.013000
  20	9.5000e-03	0.1842	-24.166387	0.000697	6.969973	1.180745	0.013941
  21	1.0000e-02	0.1928	-24.103099	0.000633	6.328564	1.072088	0.012658
  22	1.0500e-02	0.2038	-24.032968	0.000701	7.012733	1.187989	0.014026
  23	1.1000e-02	0.2123	-23.974383	0.000586	5.858198	0.992406	0.011717
  24	1.1500e-02	0.2238	-23.905963	0.000684	6.841691	1.159014	0.013684
  25	1.2000e-02	0.2369	-23.838399	0.000676	6.756170	1.144526	0.013513
  26	1.2500e-02	0.2447	-23.768696	0.000697	6.969973	1.180745	0.013941
  27	1.3000e-02	0.2538	-23.699420	0.000693	6.927212	1.173502	0.013855
  28	1.3500e-02	0.2642	-23.635277	0.000641	6.414086	1.086575	0.012829
  29	1.4000e-02	0.2733	-23.566857	0.000684	6.841691	1.159014	0.013684
  30	1.4500e-02	0.2853	-23.500575	0.000663	6.627888	1.122795	0.013256
  31	1.5000e-02	0.2940	-23.436003	0.000646	6.456846	1.093819	0.012914
  32	1.5500e-02	0.3039	-23.371432	0.000646	6.456846	1.093819	0.012914
  33	1.6000e-02	0.3146	-23.305577	0.000659	6.585128	1.115551	0.013171
  34	1.6500e-02	0.3265	-23.237157	0.000684	6.841691	1.159014	0.013684
  35	1.7000e-02	0.3339	-23.163606	0.000735	7.354818	1.245940	0.014710
  36	1.7500e-02	0.3416	-23.103738	0.000599	5.986480	1.014137	0.011974
  37	1.8000e-02	0.3559	-23.040450	0.000633	6.328564	1.072088	0.012658
  38	1.8500e-02	0.3650	-22.972457	0.000680	6.798931	1.151770	0.013598
  39	1.9000e-02	0.3738	-22.900616	0.000718	7.183776	1.216965	0.014368
  40	1.9500e-02	0.3854	-22.837328	0.000633	6.328564	1.072088	0.012658
  41	2.0000e-02	0.3953	-22.774467	0.000629	6.285804	1.064844	0.012572
  42	2.0500e-02	0.4054	-22.712889	0.000616	6.157522	1.043112	0.012316
  43	2.1000e-02	0.4128	-22.638910	0.000740	7.397579	1.253184	0.014796
  44	2.1500e-02	0.4251	-22.576476	0.000624	6.243043	1.057600	0.012487
  45	2.2000e-02	0.4362	-22.506773	0.000697	6.969973	1.180745	0.013941
  46	2.2500e-02	0.4474	-22.443057	0.000637	6.371325	1.079332	0.012743
  47	2.3000e-02	0.4555	-22.373354	0.000697	6.969973	1.180745	0.013941
  48	2.3500e-02	0.4664	-22.308783	0.000646	6.456846	1.093819	0.012914
  49	2.4000e-02	0.4744	-22.244639	0.000641	6.414086	1.086575	0.012829
  50	2.4500e-02	0.4855	-22.177502	0.000671	6.713409	1.137282	0.013427
  51	2.5000e-02	0.4936	-22.118062	0.000594	5.943719	1.006893	0.011888
  52	2.5500e-02	0.5040	-22.045366	0.000727	7.269297	1.231452	0.014539
  53	2.6000e-02	0.5160	-21.981650	0.000637	6.371325	1.079332	0.012743
  54	2.6500e-02	0.5254	-21.920499	0.000611	6.114762	1.035869	0.012230
  55	2.7000e-02	0.5358	-21.849513	0.000710	7.098255	1.202477	0.014197
  56	2.7500e-02	0.5467	-21.786652	0.000629	6.285804	1.064844	0.012572
  57	2.8000e-02	0.5542	-21.714811	0.000718	7.183776	1.216965	0.014368
  58	2.8500e-02	0.5659	-21.654944	0.000599	5.986480	1.014137	0.011974
  59	2.9000e-02	0.5743	-21.583958	0.000710	7.098255	1.202477	0.014197
  60	2.9500e-02	0.5876	-21.520242	0.000637	6.371325	1.079332	0.012743
  61	3.0000e-02	0.5951	-21.449684	0.000706	7.055494	1.195233	0.014112
  62	3.0500e-02	0.6056	-21.394520	0.000552	5.516114	0.934455	0.011033
  63	3.1000e-02	0.6155	-21.329093	0.000654	6.542367	1.108307	0.013085
  64	3.1500e-02	0.6250	-21.265805	0.000633	6.328564	1.072088	0.012658
  65	3.2000e-02	0.6364	-21.193536	0.000723	7.226536	1.224208	0.014454
  66	3.2500e-02	0.6441	-21.127254	0.000663	6.627888	1.122795	0.013256
  67	3.3000e-02	0.6551	-21.063966	0.000633	6.328564	1.072088	0.012658
  68	3.3500e-02	0.6667	-21.003671	0.000603	6.029240	1.021381	0.012059
  69	3.4000e-02	0.6757	-20.936106	0.000676	6.756170	1.144526	0.013513
  70	3.4500e-02	0.6861	-20.872390	0.000637	6.371325	1.079332	0.012743
  71	3.5000e-02	0.6925	-20.811667	0.000607	6.072001	1.028625	0.012145
  72	3.5500e-02	0.7058	-20.744102	0.000676	6.756170	1.144526	0.013513
  73	3.6000e-02	0.7144	-20.681669	0.000624	6.243043	1.057600	0.012487
  74	3.6500e-02	0.7255	-20.612393	0.000693	6.927212	1.173502	0.013855
  75	3.7000e-02	0.7351	-20.548677	0.000637	6.371325	1.079332	0.012743
  76	3.7500e-02	0.7439	-20.487099	0.000616	6.157522	1.043112	0.012316
  77	3.8000e-02	0.7569	-20.419534	0.000676	6.756170	1.144526	0.013513
  78	3.8500e-02	0.7685	-20.351542	0.000680	6.798931	1.151770	0.013598
  79	3.9000e-02	0.7758	-20.287826	0.000637	6.371325	1.079332	0.012743
  80	3.9500e-02	0.7866	-20.221116	0.000667	6.670649	1.130039	0.013342
  81	4.0000e-02	0.7925	-20.152696	0.000684	6.841691	1.159014	0.013684
  82	4.0500e-02	0.8053	-20.089408	0.000633	6.328564	1.072088	0.012658
  83	4.1000e-02	0.8141	-20.027830	0.000616	6.157522	1.043112	0.012316
  84	4.1500e-02	0.8262	-19.966252	0.000616	6.157522	1.043112	0.012316
  85	4.2000e-02	0.8360	-19.906812	0.000594	5.943719	1.006893	0.011888
  86	4.2500e-02	0.8450	-19.839675	0.000671	6.713409	1.137282	0.013427
  87	4.3000e-02	0.8544	-19.776386	0.000633	6.328564	1.072088	0.012658
  88	4.3500e-02	0.8640	-19.713098	0.000633	6.328564	1.072088	0.012658
  89	4.4000e-02	0.8771	-19.648526	0.000646	6.456846	1.093819	0.012914
  90	4.4500e-02	0.8848	-19.584382	0.000641	6.414086	1.086575	0.012829
  91	4.5000e-02	0.8961	-19.521094	0.000633	6.328564	1.072088	0.012658
  92	4.5500e-02	0.9069	-19.447970	0.000731	7.312057	1.238696	0.014625
  93	4.6000e-02	0.9131	-19.385964	0.000620	6.200283	1.050356	0.012401
  94	4.6500e-02	0.9243	-19.323103	0.000629	6.285804	1.064844	0.012572
  95	4.7000e-02	0.9359	-19.261098	0.000620	6.200283	1.050356	0.012401
  96	4.7500e-02	0.9478	-19.196526	0.000646	6.456846	1.093819	0.012914
  97	4.8000e-02	0.9559	-19.132382	0.000641	6.414086	1.086575	0.012829
  98	4.8500e-02	0.9625	-19.073370	0.000590	5.900959	0.999649	0.011802
  99	4.9000e-02	0.9743	-19.006233	0.000671	6.713409	1.137282	0.013427
 100	4.9500e-02	0.9853	-18.944655	0.000616	6.157522	1.043112	0.012316
 101	5.0000e-02	0.9966	-18.881366	0.000633	6.328564	1.072088	0.012658
 102	5.0500e-02	1.0042	-18.818505	0.000629	6.285804	1.064844	0.012572
 103	5.1000e-02	1.0169	-18.752651	0.000659	6.585128	1.115551	0.013171
 104	5.1500e-02	1.0268	-18.687652	0.000650	6.499607	1.101063	0.013000
 105	5.2000e-02	1.0355	-18.623936	0.000637	6.371325	1.079332	0.012743
 106	5.2500e-02	1.0457	-18.561503	0.000624	6.243043	1.057600	0.012487
 107	5.3000e-02	1.0555	-18.499925	0.000616	6.157522	1.043112	0.012316
 108	5.3500e-02	1.0651	-18.431077	0.000688	6.884452	1.166258	0.013770
 109	5.4000e-02	1.0749	-18.374630	0.000564	5.644395	0.956186	0.011289
 110	5.4500e-02	1.0850	-18.305355	0.000693	6.927212	1.173502	0.013855
 111	5.5000e-02	1.0956	-18.245488	0.000599	5.986480	1.014137	0.011974
 112	5.5500e-02	1.1043	-18.183910	0.000616	6.157522	1.043112	0.012316
 113	5.6000e-02	1.1173	-18.124042	0.000599	5.986480	1.014137	0.011974
 114	5.6500e-02	1.1264	-18.059043	0.000650	6.499607	1.101063	0.013000
 115	5.7000e-02	1.1346	-17.989340	0.000697	6.969973	1.180745	0.013941
 116	5.7500e-02	1.1463	-17.934604	0.000547	5.473353	0.927211	0.010947
 117	5.8000e-02	1.1557	-17.868322	0.000663	6.627888	1.122795	0.013256
 118	5.8500e-02	1.1658	-17.805034	0.000633	6.328564	1.072088	0.012658
 119	5.9000e-02	1.1744	-17.743028	0.000620	6.200283	1.050356	0.012401
 120	5.9500e-02	1.1834	-17.675891	0.000671	6.713409	1.137282	0.013427
 121	6.0000e-02	1.1957	-17.617306	0.000586	5.858198	0.992406	0.011717
 122	6.0500e-02	1.2059	-17.558294	0.000590	5.900959	0.999649	0.011802
 123	6.1000e-02	1.2160	-17.493295	0.000650	6.499607	1.101063	0.013000
 124	6.1500e-02	1.2258	-17.434282	0.000590	5.900959	0.999649	0.011802
 125	6.2000e-02	1.2366	-17.371422	0.000629	6.285804	1.064844	0.012572
 126	6.2500e-02	1.2486	-17.305995	0.000654	6.542367	1.108307	0.013085
 127	6.3000e-02	1.2551	-17.240568	0.000654	6.542367	1.108307	0.013085
 128	6.3500e-02	1.2679	-17.179418	0.000611	6.114762	1.035869	0.012230
 129	6.4000e-02	1.2756	-17.123399	0.000560	5.601635	0.948943	0.011204
 130	6.4500e-02	1.2868	-17.058827	0.000646	6.456846	1.093819	0.012914
 131	6.5000e-02	1.2936	-16.995539	0.000633	6.328564	1.072088	0.012658
 132	6.5500e-02	1.3062	-16.938665	0.000569	5.687156	0.963430	0.011375
 133	6.6000e-02	1.3158	-16.875804	0.000629	6.285804	1.064844	0.012572
 134	6.6500e-02	1.3257	-16.815509	0.000603	6.029240	1.021381	0.012059
 135	6.7000e-02	1.3344	-16.753075	0.000624	6.243043	1.057600	0.012487
 136	6.7500e-02	1.3455	-16.693208	0.000599	5.986480	1.014137	0.011974
 137	6.8000e-02	1.3565	-16.628209	0.000650	6.499607	1.101063	0.013000
 138	6.8500e-02	1.3660	-16.564493	0.000637	6.371325	1.079332	0.012743
 139	6.9000e-02	1.3741	-16.503770	0.000607	6.072001	1.028625	0.012145
 140	6.9500e-02	1.3837	-16.441337	0.000624	6.243043	1.057600	0.012487
 141	7.0000e-02	1.3964	-16.383607	0.000577	5.772677	0.977918	0.011546
 142	7.0500e-02	1.4058	-16.322029	0.000616	6.157522	1.043112	0.012316
 143	7.1000e-02	1.4152	-16.256175	0.000659	6.585128	1.115551	0.013171
 144	7.1500e-02	1.4233	-16.198445	0.000577	5.772677	0.977918	0.011546
 145	7.2000e-02	1.4380	-16.139433	0.000590	5.900959	0.999649	0.011802
 146	7.2500e-02	1.4478	-16.074862	0.000646	6.456846	1.093819	0.012914
 147	7.3000e-02	1.4562	-16.014139	0.000607	6.072001	1.028625	0.012145
 148	7.3500e-02	1.4650	-15.952561	0.000616	6.157522	1.043112	0.012316
 149	7.4000e-02	1.4740	-15.890128	0.000624	6.243043	1.057600	0.012487
 150	7.4500e-02	1.4846	-15.831543	0.000586	5.858198	0.992406	0.011717
 151	7.5000e-02	1.4932	-15.764833	0.000667	6.670649	1.130039	0.013342
 152	7.5500e-02	1.5048	-15.714801	0.000500	5.002987	0.847529	0.010006
 153	7.6000e-02	1.5173	-15.649375	0.000654	6.542367	1.108307	0.013085
 154	7.6500e-02	1.5263	-15.586086	0.000633	6.328564	1.072088	0.012658
 155	7.7000e-02	1.5358	-15.527929	0.000582	5.815438	0.985162	0.011631
 156	7.7500e-02	1.5440	-15.464640	0.000633	6.328564	1.072088	0.012658
 157	7.8000e-02	1.5519	-15.407339	0.000573	5.729916	0.970674	0.011460
 158	7.8500e-02	1.5639	-15.346188	0.000611	6.114762	1.035869	0.012230
 159	7.9000e-02	1.5767	-15.277768	0.000684	6.841691	1.159014	0.013684
 160	7.9500e-02	1.5879	-15.230729	0.000470	4.703663	0.796822	0.009408
 161	8.0000e-02	1.5950	-15.160599	0.000701	7.012733	1.187989	0.014026
 162	8.0500e-02	1.6046	-15.104152	0.000564	5.644395	0.956186	0.011289
 163	8.1000e-02	1.6156	-15.040009	0.000641	6.414086	1.086575	0.012829
 164	8.1500e-02	1.6267	-14.977575	0.000624	6.243043	1.057600	0.012487
 165	8.2000e-02	1.6351	-14.918563	0.000590	5.900959	0.999649	0.011802
 166	8.2500e-02	1.6441	-14.856130	0.000624	6.243043	1.057600	0.012487
 167	8.3000e-02	1.6543	-14.799683	0.000564	5.644395	0.956186	0.011289
 168	8.3500e-02	1.6663	-14.736822	0.000629	6.285804	1.064844	0.012572
 169	8.4000e-02	1.6750	-14.673106	0.000637	6.371325	1.079332	0.012743
 170	8.4500e-02	1.6867	-14.619225	0.000539	5.387832	0.912723	0.010776
 171	8.5000e-02	1.6933	-14.556364	0.000629	6.285804	1.064844	0.012572
 172	8.5500e-02	1.7059	-14.500773	0.000556	5.558874	0.941699	0.011118
 173	8.6000e-02	1.7175	-14.440478	0.000603	6.029240	1.021381	0.012059
 174	8.6500e-02	1.7236	-14.382748	0.000577	5.772677	0.977918	0.011546
 175	8.7000e-02	1.7377	-14.319888	0.000629	6.285804	1.064844	0.012572
 176	8.7500e-02	1.7444	-14.264724	0.000552	5.516114	0.934455	0.011033
 177	8.8000e-02	1.7537	-14.197159	0.000676	6.756170	1.144526	0.013513
 178	8.8500e-02	1.7657	-14.138574	0.000586	5.858198	0.992406	0.011717
 179	8.9000e-02	1.7764	-14.080845	0.000577	5.772677	0.977918	0.011546
 180	8.9500e-02	1.7867	-14.022260	0.000586	5.858198	0.992406	0.011717
 181	9.0000e-02	1.7932	-13.958972	0.000633	6.328564	1.072088	0.012658
 182	9.0500e-02	1.8030	-13.899104	0.000599	5.986480	1.014137	0.011974
 183	9.1000e-02	1.8141	-13.841375	0.000577	5.772677	0.977918	0.011546
 184	9.1500e-02	1.8253	-13.786639	0.000547	5.473353	0.927211	0.010947
 185	9.2000e-02	1.8355	-13.722067	0.000646	6.456846	1.093819	0.012914
 186	9.2500e-02	1.8451	-13.659207	0.000629	6.285804	1.064844	0.012572
 187	9.3000e-02	1.8558	-13.600194	0.000590	5.900959	0.999649	0.011802
 188	9.3500e-02	1.8694	-13.542465	0.000577	5.772677	0.977918	0.011546
 189	9.4000e-02	1.8764	-13.488156	0.000543	5.430592	0.919967	0.010862
 190	9.4500e-02	1.8851	-13.428717	0.000594	5.943719	1.006893	0.011888
 191	9.5000e-02	1.8984	-13.361152	0.000676	6.756170	1.144526	0.013513
 192	9.5500e-02	1.9043	-13.306843	0.000543	5.430592	0.919967	0.010862
 193	9.6000e-02	1.9141	-13.248259	0.000586	5.858198	0.992406	0.011717
 194	9.6500e-02	1.9251	-13.191384	0.000569	5.687156	0.963430	0.011375
 195	9.7000e-02	1.9369	-13.133227	0.000582	5.815438	0.985162	0.011631
 196	9.7500e-02	1.9473	-13.072505	0.000607	6.072001	1.028625	0.012145
 197	9.8000e-02	1.9559	-13.012209	0.000603	6.029240	1.021381	0.012059
 198	9.8500e-02	1.9644	-12.956191	0.000560	5.601635	0.948943	0.011204
 199	9.9000e-02	1.9756	-12.899744	0.000564	5.644395	0.956186	0.011289
 200	9.9500e-02	1.9858	-12.832179	0.000676	6.756170	1.144526	0.013513
 201	1.0000e-01	1.9963	-12.776160	0.000560	5.601635	0.948943	0.011204
 202	1.0050e-01	2.0071	-12.717148	0.000590	5.900959	0.999649	0.011802
 203	1.0100e-01	2.0167	-12.660702	0.000564	5.644395	0.956186	0.011289
 204	1.0150e-01	2.0272	-12.600406	0.000603	6.029240	1.021381	0.012059
 205	1.0200e-01	2.0366	-12.544815	0.000556	5.558874	0.941699	0.011118
 206	1.0250e-01	2.0457	-12.489651	0.000552	5.516114	0.934455	0.011033
 207	1.0300e-01	2.0529	-12.425935	0.000637	6.371325	1.079332	0.012743
 208	1.0350e-01	2.0671	-12.367778	0.000582	5.815438	0.985162	0.011631
 209	1.0400e-01	2.0740	-12.307911	0.000599	5.986480	1.014137	0.011974
 210	1.0450e-01	2.0859	-12.254030	0.000539	5.387832	0.912723	0.010776
 211	1.0500e-01	2.0956	-12.195873	0.000582	5.815438	0.985162	0.011631
 212	1.0550e-01	2.1066	-12.131729	0.000641	6.414086	1.086575	0.012829
 213	1.0600e-01	2.1167	-12.076993	0.000547	5.473353	0.927211	0.010947
 214	1.0650e-01	2.1249	-12.014132	0.000629	6.285804	1.064844	0.012572
 215	1.0700e-01	2.1377	-11.960679	0.000535	5.345071	0.905480	0.010691
 216	1.0750e-01	2.1452	-11.903805	0.000569	5.687156	0.963430	0.011375
 217	1.0800e-01	2.1567	-11.850779	0.000530	5.302311	0.898236	0.010605
 218	1.0850e-01	2.1667	-11.785353	0.000654	6.542367	1.108307	0.013085
 219	1.0900e-01	2.1765	-11.736176	0.000492	4.917466	0.833041	0.009835
 220	1.0950e-01	2.1852	-11.675880	0.000603	6.029240	1.021381	0.012059
 221	1.1000e-01	2.1957	-11.613875	0.000620	6.200283	1.050356	0.012401
 222	1.1050e-01	2.2047	-11.557856	0.000560	5.601635	0.948943	0.011204
 223	1.1100e-01	2.2143	-11.497561	0.000603	6.029240	1.021381	0.012059
 224	1.1150e-01	2.2245	-11.444108	0.000535	5.345071	0.905480	0.010691
 225	1.1200e-01	2.2368	-11.384240	0.000599	5.986480	1.014137	0.011974
 226	1.1250e-01	2.2451	-11.326083	0.000582	5.815438	0.985162	0.011631
 227	1.1300e-01	2.2523	-11.264933	0.000611	6.114762	1.035869	0.012230
 228	1.1350e-01	2.2638	-11.208914	0.000560	5.601635	0.948943	0.011204
 229	1.1400e-01	2.2739	-11.156316	0.000526	5.259550	0.890992	0.010520
 230	1.1450e-01	2.2871	-11.094310	0.000620	6.200283	1.050356	0.012401
 231	1.1500e-01	2.2961	-11.039146	0.000552	5.516114	0.934455	0.011033
 232	1.1550e-01	2.3060	-10.983128	0.000560	5.601635	0.948943	0.011204
 233	1.1600e-01	2.3174	-10.927964	0.000552	5.516114	0.934455	0.011033
 234	1.1650e-01	2.3235	-10.869379	0.000586	5.858198	0.992406	0.011717
 235	1.1700e-01	2.3355	-10.807374	0.000620	6.200283	1.050356	0.012401
 236	1.1750e-01	2.3444	-10.759907	0.000475	4.746423	0.804066	0.009493
 237	1.1800e-01	2.3560	-10.693625	0.000663	6.627888	1.122795	0.013256
 238	1.1850e-01	2.3659	-10.641027	0.000526	5.259550	0.890992	0.010520
 239	1.1900e-01	2.3740	-10.582870	0.000582	5.815438	0.985162	0.011631
 240	1.1950e-01	2.3878	-10.525569	0.000573	5.729916	0.970674	0.011460
 241	1.2000e-01	2.3969	-10.470405	0.000552	5.516114	0.934455	0.011033
 242	1.2050e-01	2.4046	-10.410965	0.000594	5.943719	1.006893	0.011888
 243	1.2100e-01	2.4155	-10.357084	0.000539	5.387832	0.912723	0.010776
 244	1.2150e-01	2.4256	-10.298072	0.000590	5.900959	0.999649	0.011802
 245	1.2200e-01	2.4368	-10.238632	0.000594	5.943719	1.006893	0.011888
 246	1.2250e-01	2.4467	-10.195442	0.000432	4.318818	0.731628	0.008638
 247	1.2300e-01	2.4539	-10.133436	0.000620	6.200283	1.050356	0.012401
 248	1.2350e-01	2.4677	-10.073569	0.000599	5.986480	1.014137	0.011974
 249	1.2400e-01	2.4796	-10.018405	0.000552	5.516114	0.934455	0.011033
 250	1.2450e-01	2.4872	-9.957682	0.000607	6.072001	1.028625	0.012145
 251	1.2500e-01	2.4964	-9.908933	0.000487	4.874705	0.825797	0.009750
 252	1.2550e-01	2.5061	-9.848210	0.000607	6.072001	1.028625	0.012145
 253	1.2600e-01	2.5166	-9.787060	0.000611	6.114762	1.035869	0.012230
 254	1.2650e-01	2.5278	-9.725054	0.000620	6.200283	1.050356	0.012401
 255	1.2700e-01	2.5330	-9.668607	0.000564	5.644395	0.956186	0.011289
 256	1.2750e-01	2.5421	-9.624134	0.000445	4.447099	0.753359	0.008895
 257	1.2800e-01	2.5568	-9.564267	0.000599	5.986480	1.014137	0.011974
 258	1.2850e-01	2.5630	-9.506537	0.000577	5.772677	0.977918	0.011546
 259	1.2900e-01	2.5758	-9.453940	0.000526	5.259550	0.890992	0.010520
 260	1.2950e-01	2.5861	-9.397921	0.000560	5.601635	0.948943	0.011204
 261	1.3000e-01	2.5963	-9.338908	0.000590	5.900959	0.999649	0.011802
 262	1.3050e-01	2.6077	-9.287166	0.000517	5.174029	0.876504	0.010349
 263	1.3100e-01	2.6157	-9.235423	0.000517	5.174029	0.876504	0.010349
 264	1.3150e-01	2.6270	-9.176411	0.000590	5.900959	0.999649	0.011802
 265	1.3200e-01	2.6375	-9.122102	0.000543	5.430592	0.919967	0.010862
 266	1.3250e-01	2.6465	-9.063518	0.000586	5.858198	0.992406	0.011717
 267	1.3300e-01	2.6544	-9.004933	0.000586	5.858198	0.992406	0.011717
 268	1.3350e-01	2.6656	-8.953190	0.000517	5.174029	0.876504	0.010349
 269	1.3400e-01	2.6746	-8.892468	0.000607	6.072001	1.028625	0.012145
 270	1.3450e-01	2.6888	-8.844146	0.000483	4.831944	0.818554	0.009664
 271	1.3500e-01	2.6962	-8.786844	0.000573	5.729916	0.970674	0.011460
 272	1.3550e-01	2.7060	-8.725694	0.000611	6.114762	1.035869	0.012230
 273	1.3600e-01	2.7169	-8.673096	0.000526	5.259550	0.890992	0.010520
 274	1.3650e-01	2.7258	-8.617932	0.000552	5.516114	0.934455	0.011033
 275	1.3700e-01	2.7335	-8.566617	0.000513	5.131268	0.869260	0.010263
 276	1.3750e-01	2.7473	-8.505894	0.000607	6.072001	1.028625	0.012145
 277	1.3800e-01	2.7554	-8.457145	0.000487	4.874705	0.825797	0.009750
 278	1.3850e-01	2.7661	-8.393001	0.000641	6.414086	1.086575	0.012829
 279	1.3900e-01	2.7736	-8.339976	0.000530	5.302311	0.898236	0.010605
 280	1.3950e-01	2.7856	-8.288233	0.000517	5.174029	0.876504	0.010349
 281	1.4000e-01	2.7951	-8.228366	0.000599	5.986480	1.014137	0.011974
 282	1.4050e-01	2.8064	-8.176623	0.000517	5.174029	0.876504	0.010349
 283	1.4100e-01	2.8139	-8.127874	0.000487	4.874705	0.825797	0.009750
 284	1.4150e-01	2.8226	-8.062875	0.000650	6.499607	1.101063	0.013000
 285	1.4200e-01	2.8360	-8.011132	0.000517	5.174029	0.876504	0.010349
 286	1.4250e-01	2.8448	-7.955113	0.000560	5.601635	0.948943	0.011204
 287	1.4300e-01	2.8505	-7.897811	0.000573	5.729916	0.970674	0.011460
 288	1.4350e-01	2.8650	-7.843930	0.000539	5.387832	0.912723	0.010776
 289	1.4400e-01	2.8748	-7.787484	0.000564	5.644395	0.956186	0.011289
 290	1.4450e-01	2.8865	-7.743866	0.000436	4.361578	0.738871	0.008724
 291	1.4500e-01	2.8961	-7.678867	0.000650	6.499607	1.101063	0.013000
 292	1.4550e-01	2.9053	-7.624131	0.000547	5.473353	0.927211	0.010947
 293	1.4600e-01	2.9160	-7.571961	0.000522	5.216790	0.883748	0.010434
 294	1.4650e-01	2.9242	-7.515942	0.000560	5.601635	0.948943	0.011204
 295	1.4700e-01	2.9355	-7.462916	0.000530	5.302311	0.898236	0.010605
 296	1.4750e-01	2.9446	-7.406042	0.000569	5.687156	0.963430	0.011375
 297	1.4800e-01	2.9572	-7.356438	0.000496	4.960226	0.840285	0.009921
 298	1.4850e-01	2.9639	-7.301274	0.000552	5.516114	0.934455	0.011033
 299	1.4900e-01	2.9764	-7.247821	0.000535	5.345071	0.905480	0.010691
 300	1.4950e-01	2.9848	-7.187953	0.000599	5.986480	1.014137	0.011974
 301	1.5000e-01	2.9990	-7.135355	0.000526	5.259550	0.890992	0.010520
 302	1.5050e-01	3.0090	-7.084040	0.000513	5.131268	0.869260	0.010263
 303	1.5100e-01	3.0164	-7.027166	0.000569	5.687156	0.963430	0.011375
 304	1.5150e-01	3.0249	-6.977562	0.000496	4.960226	0.840285	0.009921
 305	1.5200e-01	3.0377	-6.927102	0.000505	5.045747	0.854773	0.010092
 306	1.5250e-01	3.0460	-6.863813	0.000633	6.328564	1.072088	0.012658
 307	1.5300e-01	3.0556	-6.814636	0.000492	4.917466	0.833041	0.009835
 308	1.5350e-01	3.0634	-6.757335	0.000573	5.729916	0.970674	0.011460
 309	1.5400e-01	3.0748	-6.708585	0.000487	4.874705	0.825797	0.009750
 310	1.5450e-01	3.0850	-6.652139	0.000564	5.644395	0.956186	0.011289
 311	1.5500e-01	3.0970	-6.596975	0.000552	5.516114	0.934455	0.011033
 312	1.5550e-01	3.1085	-6.550364	0.000466	4.660902	0.789578	0.009322
 313	1.5600e-01	3.1187	-6.492207	0.000582	5.815438	0.985162	0.011631
 314	1.5650e-01	3.1254	-6.440892	0.000513	5.131268	0.869260	0.010263
 315	1.5700e-01	3.1351	-6.385301	0.000556	5.558874	0.941699	0.011118
 316	1.5750e-01	3.1474	-6.327571	0.000577	5.772677	0.977918	0.011546
 317	1.5800e-01	3.1580	-6.271552	0.000560	5.601635	0.948943	0.011204
 318	1.5850e-01	3.1668	-6.221948	0.000496	4.960226	0.840285	0.009921
 319	1.5900e-01	3.1778	-6.167212	0.000547	5.473353	0.927211	0.010947
 320	1.5950e-01	3.1832	-6.114614	0.000526	5.259550	0.890992	0.010520
 321	1.6000e-01	3.1953	-6.063726	0.000509	5.088508	0.862017	0.010177
 322	1.6050e-01	3.2053	-6.010273	0.000535	5.345071	0.905480	0.010691
 323	1.6100e-01	3.2135	-5.954254	0.000560	5.601635	0.948943	0.011204
 324	1.6150e-01	3.2233	-5.902084	0.000522	5.216790	0.883748	0.010434
 325	1.6200e-01	3.2346	-5.848631	0.000535	5.345071	0.905480	0.010691
 326	1.6250e-01	3.2452	-5.796461	0.000522	5.216790	0.883748	0.010434
 327	1.6300e-01	3.2539	-5.738731	0.000577	5.772677	0.977918	0.011546
 328	1.6350e-01	3.2623	-5.691692	0.000470	4.703663	0.796822	0.009408
 329	1.6400e-01	3.2755	-5.633963	0.000577	5.772677	0.977918	0.011546
 330	1.6450e-01	3.2863	-5.581365	0.000526	5.259550	0.890992	0.010520
 331	1.6500e-01	3.2959	-5.533471	0.000479	4.789184	0.811310	0.009579
 332	1.6550e-01	3.3057	-5.476597	0.000569	5.687156	0.963430	0.011375
 333	1.6600e-01	3.3160	-5.426137	0.000505	5.045747	0.854773	0.010092
 334	1.6650e-01	3.3252	-5.373967	0.000522	5.216790	0.883748	0.010434
 335	1.6700e-01	3.3368	-5.323935	0.000500	5.002987	0.847529	0.010006
 336	1.6750e-01	3.3484	-5.269199	0.000547	5.473353	0.927211	0.010947
 337	1.6800e-01	3.3557	-5.217028	0.000522	5.216790	0.883748	0.010434
 338	1.6850e-01	3.3658	-5.166141	0.000509	5.088508	0.862017	0.010177
 339	1.6900e-01	3.3748	-5.113971	0.000522	5.216790	0.883748	0.010434
 340	1.6950e-01	3.3832	-5.063083	0.000509	5.088508	0.862017	0.010177
 341	1.7000e-01	3.3948	-5.007064	0.000560	5.601635	0.948943	0.011204
 342	1.7050e-01	3.4047	-4.956177	0.000509	5.088508	0.862017	0.010177
 343	1.7100e-01	3.4161	-4.905717	0.000505	5.045747	0.854773	0.010092
 344	1.7150e-01	3.4247	-4.847132	0.000586	5.858198	0.992406	0.011717
 345	1.7200e-01	3.4344	-4.795390	0.000517	5.174029	0.876504	0.010349
 346	1.7250e-01	3.4460	-4.744075	0.000513	5.131268	0.869260	0.010263
 347	1.7300e-01	3.4537	-4.688056	0.000560	5.601635	0.948943	0.011204
 348	1.7350e-01	3.4665	-4.642300	0.000458	4.575381	0.775091	0.009151
 349	1.7400e-01	3.4753	-4.585853	0.000564	5.644395	0.956186	0.011289
 350	1.7450e-01	3.4875	-4.533256	0.000526	5.259550	0.890992	0.010520
 351	1.7500e-01	3.4943	-4.483651	0.000496	4.960226	0.840285	0.009921
 352	1.7550e-01	3.5084	-4.433619	0.000500	5.002987	0.847529	0.010006
 353	1.7600e-01	3.5160	-4.379738	0.000539	5.387832	0.912723	0.010776
 354	1.7650e-01	3.5248	-4.324574	0.000552	5.516114	0.934455	0.011033
 355	1.7700e-01	3.5361	-4.276680	0.000479	4.789184	0.811310	0.009579
 356	1.7750e-01	3.5492	-4.224938	0.000517	5.174029	0.876504	0.010349
 357	1.7800e-01	3.5590	-4.171912	0.000530	5.302311	0.898236	0.010605
 358	1.7850e-01	3.5657	-4.116749	0.000552	5.516114	0.934455	0.011033
 359	1.7900e-01	3.5736	-4.062440	0.000543	5.430592	0.919967	0.010862
 360	1.7950e-01	3.5840	-4.016684	0.000458	4.575381	0.775091	0.009151
 361	1.8000e-01	3.5934	-3.956817	0.000599	5.986480	1.014137	0.011974
 362	1.8050e-01	3.6035	-3.916192	0.000406	4.062254	0.688164	0.008125
 363	1.8100e-01	3.6158	-3.861884	0.000543	5.430592	0.919967	0.010862
 364	1.8150e-01	3.6281	-3.808003	0.000539	5.387832	0.912723	0.010776
 365	1.8200e-01	3.6401	-3.757116	0.000509	5.088508	0.862017	0.010177
 366	1.8250e-01	3.6438	-3.701524	0.000556	5.558874	0.941699	0.011118
 367	1.8300e-01	3.6555	-3.655768	0.000458	4.575381	0.775091	0.009151
 368	1.8350e-01	3.6668	-3.604453	0.000513	5.131268	0.869260	0.010263
 369	1.8400e-01	3.6761	-3.550573	0.000539	5.387832	0.912723	0.010776
 370	1.8450e-01	3.6865	-3.499258	0.000513	5.131268	0.869260	0.010263
 371	1.8500e-01	3.6975	-3.447087	0.000522	5.216790	0.883748	0.010434
 372	1.8550e-01	3.7027	-3.392351	0.000547	5.473353	0.927211	0.010947
 373	1.8600e-01	3.7173	-3.342747	0.000496	4.960226	0.840285	0.009921
 374	1.8650e-01	3.7259	-3.291432	0.000513	5.131268	0.869260	0.010263
 375	1.8700e-01	3.7354	-3.240972	0.000505	5.045747	0.854773	0.010092
 376	1.8750e-01	3.7440	-3.188802	0.000522	5.216790	0.883748	0.010434
 377	1.8800e-01	3.7555	-3.140480	0.000483	4.831944	0.818554	0.009664
 378	1.8850e-01	3.7642	-3.087454	0.000530	5.302311	0.898236	0.010605
 379	1.8900e-01	3.7720	-3.034857	0.000526	5.259550	0.890992	0.010520
 380	1.8950e-01	3.7874	-2.986963	0.000479	4.789184	0.811310	0.009579
 381	1.9000e-01	3.7946	-2.937358	0.000496	4.960226	0.840285	0.009921
 382	1.9050e-01	3.8051	-2.885188	0.000522	5.216790	0.883748	0.010434
 383	1.9100e-01	3.8141	-2.833873	0.000513	5.131268	0.869260	0.010263
 384	1.9150e-01	3.8257	-2.782985	0.000509	5.088508	0.862017	0.010177
 385	1.9200e-01	3.8385	-2.737229	0.000458	4.575381	0.775091	0.009151
 386	1.9250e-01	3.8422	-2.685487	0.000517	5.174029	0.876504	0.010349
 387	1.9300e-01	3.8562	-2.634599	0.000509	5.088508	0.862017	0.010177
 388	1.9350e-01	3.8660	-2.577298	0.000573	5.729916	0.970674	0.011460
 389	1.9400e-01	3.8757	-2.532825	0.000445	4.447099	0.753359	0.008895
 390	1.9450e-01	3.8867	-2.476378	0.000564	5.644395	0.956186	0.011289
 391	1.9500e-01	3.8952	-2.434898	0.000415	4.147775	0.702652	0.008296
 392	1.9550e-01	3.9075	-2.383156	0.000517	5.174029	0.876504	0.010349
 393	1.9600e-01	3.9165	-2.332268	0.000509	5.088508	0.862017	0.010177
 394	1.9650e-01	3.9256	-2.277105	0.000552	5.516114	0.934455	0.011033
 395	1.9700e-01	3.9343	-2.228783	0.000483	4.831944	0.818554	0.009664
 396	1.9750e-01	3.9445	-2.174475	0.000543	5.430592	0.919967	0.010862
 397	1.9800e-01	3.9555	-2.129574	0.000449	4.489860	0.760603	0.008980
 398	1.9850e-01	3.9667	-2.078686	0.000509	5.088508	0.862017	0.010177
 399	1.9900e-01	3.9748	-2.030792	0.000479	4.789184	0.811310	0.009579
 400	1.9950e-01	3.9838	-1.975201	0.000556	5.558874	0.941699	0.011118
 401	2.0000e-01	3.9964	-1.927735	0.000475	4.746423	0.804066	0.009493
 402	2.0050e-01	4.0082	-1.881979	0.000458	4.575381	0.775091	0.009151
 403	2.0100e-01	4.0179	-1.829381	0.000526	5.259550	0.890992	0.010520
 404	2.0150e-01	4.0260	-1.774645	0.000547	5.473353	0.927211	0.010947
 405	2.0200e-01	4.0363	-1.725896	0.000487	4.874705	0.825797	0.009750
 406	2.0250e-01	4.0466	-1.677146	0.000487	4.874705	0.825797	0.009750
 407	2.0300e-01	4.0543	-1.622838	0.000543	5.430592	0.919967	0.010862
 408	2.0350e-01	4.0668	-1.572378	0.000505	5.045747	0.854773	0.010092
 409	2.0400e-01	4.0749	-1.524056	0.000483	4.831944	0.818554	0.009664
 410	2.0450e-01	4.0857	-1.475307	0.000487	4.874705	0.825797	0.009750
 411	2.0500e-01	4.0967	-1.424847	0.000505	5.045747	0.854773	0.010092
 412	2.0550e-01	4.1055	-1.381657	0.000432	4.318818	0.731628	0.008638
 413	2.0600e-01	4.1150	-1.322217	0.000594	5.943719	1.006893	0.011888
 414	2.0650e-01	4.1293	-1.281165	0.000411	4.105015	0.695408	0.008210
 415	2.0700e-01	4.1345	-1.223436	0.000577	5.772677	0.977918	0.011546
 416	2.0750e-01	4.1473	-1.182384	0.000411	4.105015	0.695408	0.008210
 417	2.0800e-01	4.1571	-1.128931	0.000535	5.345071	0.905480	0.010691
 418	2.0850e-01	4.1611	-1.079326	0.000496	4.960226	0.840285	0.009921
 419	2.0900e-01	4.1774	-1.032287	0.000470	4.703663	0.796822	0.009408
 420	2.0950e-01	4.1837	-0.976696	0.000556	5.558874	0.941699	0.011118
 421	2.1000e-01	4.1976	-0.933078	0.000436	4.361578	0.738871	0.008724
 422	2.1050e-01	4.2035	-0.880480	0.000526	5.259550	0.890992	0.010520
 423	2.1100e-01	4.2139	-0.831304	0.000492	4.917466	0.833041	0.009835
 424	2.1150e-01	4.2242	-0.785120	0.000462	4.618142	0.782334	0.009237
 425	2.1200e-01	4.2358	-0.726535	0.000586	5.858198	0.992406	0.011717
 426	2.1250e-01	4.2484	-0.685483	0.000411	4.105015	0.695408	0.008210
 427	2.1300e-01	4.2519	-0.635451	0.000500	5.002987	0.847529	0.010006
 428	2.1350e-01	4.2651	-0.590123	0.000453	4.532620	0.767847	0.009066
 429	2.1400e-01	4.2771	-0.539235	0.000509	5.088508	0.862017	0.010177
 430	2.1450e-01	4.2871	-0.490059	0.000492	4.917466	0.833041	0.009835
 431	2.1500e-01	4.2987	-0.446441	0.000436	4.361578	0.738871	0.008724
 432	2.1550e-01	4.3060	-0.393843	0.000526	5.259550	0.890992	0.010520
 433	2.1600e-01	4.3134	-0.341245	0.000526	5.259550	0.890992	0.010520
 434	2.1650e-01	4.3280	-0.280950	0.000603	6.029240	1.021381	0.012059
 435	2.1700e-01	4.3378	-0.251871	0.000291	2.907719	0.492581	0.005816
 436	2.1750e-01	4.3475	-0.197991	0.000539	5.387832	0.912723	0.010776
 437	2.1800e-01	4.3573	-0.150096	0.000479	4.789184	0.811310	0.009579
 438	2.1850e-01	4.3648	-0.098781	0.000513	5.131268	0.869260	0.010263
 439	2.1900e-01	4.3762	-0.045756	0.000530	5.302311	0.898236	0.010605
 440	2.1950e-01	4.3835	0.005987	0.000517	5.174029	0.876504	0.010349
 441	2.2000e-01	4.3967	0.053026	0.000470	4.703663	0.796822	0.009408
 442	2.2050e-01	4.4055	0.101775	0.000487	4.874705	0.825797	0.009750
 443	2.2100e-01	4.4208	0.147958	0.000462	4.618142	0.782334	0.009237
 444	2.2150e-01	4.4244	0.192859	0.000449	4.489860	0.760603	0.008980
 445	2.2200e-01	4.4360	0.242464	0.000496	4.960226	0.840285	0.009921
 446	2.2250e-01	4.4458	0.293351	0.000509	5.088508	0.862017	0.010177
 447	2.2300e-01	4.4562	0.341673	0.000483	4.831944	0.818554	0.009664
 448	2.2350e-01	4.4648	0.386573	0.000449	4.489860	0.760603	0.008980
 449	2.2400e-01	4.4746	0.439599	0.000530	5.302311	0.898236	0.010605
 450	2.2450e-01	4.4885	0.481934	0.000423	4.233296	0.717140	0.008467
 451	2.2500e-01	4.4952	0.531538	0.000496	4.960226	0.840285	0.009921
 452	2.2550e-01	4.5070	0.585847	0.000543	5.430592	0.919967	0.010862
 453	2.2600e-01	4.5158	0.634168	0.000483	4.831944	0.818554	0.009664
 454	2.2650e-01	4.5258	0.679497	0.000453	4.532620	0.767847	0.009066
 455	2.2700e-01	4.5386	0.721404	0.000419	4.190536	0.709896	0.008381
 456	2.2750e-01	4.5477	0.772291	0.000509	5.088508	0.862017	0.010177
 457	2.2800e-01	4.5557	0.822751	0.000505	5.045747	0.854773	0.010092
 458	2.2850e-01	4.5650	0.869362	0.000466	4.660902	0.789578	0.009322
 459	2.2900e-01	4.5763	0.913835	0.000445	4.447099	0.753359	0.008895
 460	2.2950e-01	4.5856	0.962157	0.000483	4.831944	0.818554	0.009664
 461	2.3000e-01	4.5941	1.007485	0.000453	4.532620	0.767847	0.009066
 462	2.3050e-01	4.6056	1.061366	0.000539	5.387832	0.912723	0.010776
 463	2.3100e-01	4.6155	1.110115	0.000487	4.874705	0.825797	0.009750
 464	2.3150e-01	4.6259	1.160147	0.000500	5.002987	0.847529	0.010006
 465	2.3200e-01	4.6320	1.210607	0.000505	5.045747	0.854773	0.010092
 466	2.3250e-01	4.6442	1.254653	0.000440	4.404339	0.746115	0.008809
 467	2.3300e-01	4.6573	1.305540	0.000509	5.088508	0.862017	0.010177
 468	2.3350e-01	4.6646	1.352151	0.000466	4.660902	0.789578	0.009322
 469	2.3400e-01	4.6771	1.395341	0.000432	4.318818	0.731628	0.008638
 470	2.3450e-01	4.6851	1.444946	0.000496	4.960226	0.840285	0.009921
 471	2.3500e-01	4.6960	1.492412	0.000475	4.746423	0.804066	0.009493
 472	2.3550e-01	4.7064	1.539023	0.000466	4.660902	0.789578	0.009322
 473	2.3600e-01	4.7144	1.586917	0.000479	4.789184	0.811310	0.009579
 474	2.3650e-01	4.7247	1.633956	0.000470	4.703663	0.796822	0.009408
 475	2.3700e-01	4.7364	1.678857	0.000449	4.489860	0.760603	0.008980
 476	2.3750e-01	4.7458	1.725896	0.000470	4.703663	0.796822	0.009408
 477	2.3800e-01	4.7560	1.775928	0.000500	5.002987	0.847529	0.010006
 478	2.3850e-01	4.7675	1.819546	0.000436	4.361578	0.738871	0.008724
 479	2.3900e-01	4.7760	1.867867	0.000483	4.831944	0.818554	0.009664
 480	2.3950e-01	4.7841	1.919182	0.000513	5.131268	0.869260	0.010263
 481	2.4000e-01	4.7943	1.960234	0.000411	4.105015	0.695408	0.008210
 482	2.4050e-01	4.8071	2.009411	0.000492	4.917466	0.833041	0.009835
 483	2.4100e-01	4.8138	2.057305	0.000479	4.789184	0.811310	0.009579
 484	2.4150e-01	4.8245	2.106482	0.000492	4.917466	0.833041	0.009835
 485	2.4200e-01	4.8352	2.155231	0.000487	4.874705	0.825797	0.009750
 486	2.4250e-01	4.8444	2.204408	0.000492	4.917466	0.833041	0.009835
 487	2.4300e-01	4.8584	2.245888	0.000415	4.147775	0.702652	0.008296
 488	2.4350e-01	4.8686	2.291644	0.000458	4.575381	0.775091	0.009151
 489	2.4400e-01	4.8761	2.336972	0.000453	4.532620	0.767847	0.009066
 490	2.4450e-01	4.8846	2.383583	0.000466	4.660902	0.789578	0.009322
 491	2.4500e-01	4.8981	2.430194	0.000466	4.660902	0.789578	0.009322
 492	2.4550e-01	4.9058	2.478944	0.000487	4.874705	0.825797	0.009750
 493	2.4600e-01	4.9155	2.525982	0.000470	4.703663	0.796822	0.009408
 494	2.4650e-01	4.9281	2.570883	0.000449	4.489860	0.760603	0.008980
 495	2.4700e-01	4.9387	2.620915	0.000500	5.002987	0.847529	0.010006
 496	2.4750e-01	4.9457	2.665816	0.000449	4.489860	0.760603	0.008980
 497	2.4800e-01	4.9567	2.712427	0.000466	4.660902	0.789578	0.009322
 498	2.4850e-01	4.9677	2.757328	0.000449	4.489860	0.760603	0.008980
 499	2.4900e-01	4.9768	2.807788	0.000505	5.045747	0.854773	0.010092
 500	2.4950e-01	4.9860	2.847984	0.000402	4.019494	0.680921	0.008039
 501	2.5000e-01	4.9945	2.902293	0.000543	5.430592	0.919967	0.010862
 502	2.5050e-01	5.0079	2.944628	0.000423	4.233296	0.717140	0.008467
 503	2.5100e-01	5.0191	2.991239	0.000466	4.660902	0.789578	0.009322
 504	2.5150e-01	5.0272	3.035284	0.000440	4.404339	0.746115	0.008809
 505	2.5200e-01	5.0354	3.084033	0.000487	4.874705	0.825797	0.009750
 506	2.5250e-01	5.0490	3.131500	0.000475	4.746423	0.804066	0.009493
 507	2.5300e-01	5.0571	3.179822	0.000483	4.831944	0.818554	0.009664
 508	2.5350e-01	5.0635	3.223439	0.000436	4.361578	0.738871	0.008724
 509	2.5400e-01	5.0775	3.266629	0.000432	4.318818	0.731628	0.008638
 510	2.5450e-01	5.0839	3.317517	0.000509	5.088508	0.862017	0.010177
 511	2.5500e-01	5.0964	3.358997	0.000415	4.147775	0.702652	0.008296
 512	2.5550e-01	5.1068	3.404325	0.000453	4.532620	0.767847	0.009066
 513	2.5600e-01	5.1135	3.442383	0.000381	3.805691	0.644701	0.007612
 514	2.5650e-01	5.1263	3.496264	0.000539	5.387832	0.912723	0.010776
 515	2.5700e-01	5.1343	3.545869	0.000496	4.960226	0.840285	0.009921
 516	2.5750e-01	5.1498	3.590769	0.000449	4.489860	0.760603	0.008980
 517	2.5800e-01	5.1550	3.640802	0.000500	5.002987	0.847529	0.010006
 518	2.5850e-01	5.1654	3.684419	0.000436	4.361578	0.738871	0.008724
 519	2.5900e-01	5.1735	3.731458	0.000470	4.703663	0.796822	0.009408
 520	2.5950e-01	5.1849	3.774221	0.000428	4.276057	0.724384	0.008553
 521	2.6000e-01	5.1968	3.820404	0.000462	4.618142	0.782334	0.009237
 522	2.6050e-01	5.2063	3.863167	0.000428	4.276057	0.724384	0.008553
 523	2.6100e-01	5.2136	3.910633	0.000475	4.746423	0.804066	0.009493
 524	2.6150e-01	5.2264	3.955534	0.000449	4.489860	0.760603	0.008980
 525	2.6200e-01	5.2350	4.001717	0.000462	4.618142	0.782334	0.009237
 526	2.6250e-01	5.2441	4.056453	0.000547	5.473353	0.927211	0.010947
 527	2.6300e-01	5.2577	4.097078	0.000406	4.062254	0.688164	0.008125
 528	2.6350e-01	5.2655	4.142406	0.000453	4.532620	0.767847	0.009066
 529	2.6400e-01	5.2740	4.183458	0.000411	4.105015	0.695408	0.008210
 530	2.6450e-01	5.2875	4.233918	0.000505	5.045747	0.854773	0.010092
 531	2.6500e-01	5.2972	4.273687	0.000398	3.976733	0.673677	0.007954
 532	2.6550e-01	5.3061	4.319871	0.000462	4.618142	0.782334	0.009237
 533	2.6600e-01	5.3210	4.367765	0.000479	4.789184	0.811310	0.009579
 534	2.6650e-01	5.3265	4.413520	0.000458	4.575381	0.775091	0.009151
 535	2.6700e-01	5.3320	4.462270	0.000487	4.874705	0.825797	0.009750
 536	2.6750e-01	5.3458	4.502039	0.000398	3.976733	0.673677	0.007954
 537	2.6800e-01	5.3569	4.543946	0.000419	4.190536	0.709896	0.008381
 538	2.6850e-01	5.3677	4.593123	0.000492	4.917466	0.833041	0.009835
 539	2.6900e-01	5.3748	4.636741	0.000436	4.361578	0.738871	0.008724
 540	2.6950e-01	5.3867	4.688056	0.000513	5.131268	0.869260	0.010263
 541	2.7000e-01	5.3973	4.725259	0.000372	3.720170	0.630214	0.007441
 542	2.7050e-01	5.4065	4.774864	0.000496	4.960226	0.840285	0.009921
 543	2.7100e-01	5.4153	4.815916	0.000411	4.105015	0.695408	0.008210
 544	2.7150e-01	5.4248	4.866803	0.000509	5.088508	0.862017	0.010177
 545	2.7200e-01	5.4358	4.907428	0.000406	4.062254	0.688164	0.008125
 546	2.7250e-01	5.4501	4.947197	0.000398	3.976733	0.673677	0.007954
 547	2.7300e-01	5.4578	5.002360	0.000552	5.516114	0.934455	0.011033
 548	2.7350e-01	5.4654	5.048116	0.000458	4.575381	0.775091	0.009151
 549	2.7400e-01	5.4752	5.088741	0.000406	4.062254	0.688164	0.008125
 550	2.7450e-01	5.4904	5.128082	0.000393	3.933972	0.666433	0.007868
 551	2.7500e-01	5.4956	5.178970	0.000509	5.088508	0.862017	0.010177
 552	2.7550e-01	5.5048	5.220877	0.000419	4.190536	0.709896	0.008381
 553	2.7600e-01	5.5154	5.269626	0.000487	4.874705	0.825797	0.009750
 554	2.7650e-01	5.5231	5.316665	0.000470	4.703663	0.796822	0.009408
 555	2.7700e-01	5.5359	5.365414	0.000487	4.874705	0.825797	0.009750
 556	2.7750e-01	5.5463	5.403473	0.000381	3.805691	0.644701	0.007612
 557	2.7800e-01	5.5551	5.446235	0.000428	4.276057	0.724384	0.008553
 558	2.7850e-01	5.5627	5.489853	0.000436	4.361578	0.738871	0.008724
 559	2.7900e-01	5.5774	5.539458	0.000496	4.960226	0.840285	0.009921
 560	2.7950e-01	5.5878	5.583076	0.000436	4.361578	0.738871	0.008724
 561	2.8000e-01	5.5988	5.629259	0.000462	4.618142	0.782334	0.009237
 562	2.8050e-01	5.6068	5.670739	0.000415	4.147775	0.702652	0.008296
 563	2.8100e-01	5.6137	5.720771	0.000500	5.002987	0.847529	0.010006
 564	2.8150e-01	5.6271	5.760968	0.000402	4.019494	0.680921	0.008039
 565	2.8200e-01	5.6378	5.800737	0.000398	3.976733	0.673677	0.007954
 566	2.8250e-01	5.6428	5.850341	0.000496	4.960226	0.840285	0.009921
 567	2.8300e-01	5.6567	5.895670	0.000453	4.532620	0.767847	0.009066
 568	2.8350e-01	5.6677	5.939287	0.000436	4.361578	0.738871	0.008724
 569	2.8400e-01	5.6815	5.982050	0.000428	4.276057	0.724384	0.008553
 570	2.8450e-01	5.6870	6.025668	0.000436	4.361578	0.738871	0.008724
 571	2.8500e-01	5.6959	6.065865	0.000402	4.019494	0.680921	0.008039
 572	2.8550e-01	5.7056	6.109910	0.000440	4.404339	0.746115	0.008809
 573	2.8600e-01	5.7178	6.153955	0.000440	4.404339	0.746115	0.008809
 574	2.8650e-01	5.7253	6.203132	0.000492	4.917466	0.833041	0.009835
 575	2.8700e-01	5.7355	6.243757	0.000406	4.062254	0.688164	0.008125
 576	2.8750e-01	5.7483	6.289513	0.000458	4.575381	0.775091	0.009151
 577	2.8800e-01	5.7581	6.332703	0.000432	4.318818	0.731628	0.008638
 578	2.8850e-01	5.7666	6.378886	0.000462	4.618142	0.782334	0.009237
 579	2.8900e-01	5.7771	6.423359	0.000445	4.447099	0.753359	0.008895
 580	2.8950e-01	5.7814	6.466549	0.000432	4.318818	0.731628	0.008638
 581	2.9000e-01	5.7980	6.513588	0.000470	4.703663	0.796822	0.009408
 582	2.9050e-01	5.8057	6.551647	0.000381	3.805691	0.644701	0.007612
 583	2.9100e-01	5.8157	6.603389	0.000517	5.174029	0.876504	0.010349
 584	2.9150e-01	5.8272	6.644442	0.000411	4.105015	0.695408	0.008210
 585	2.9200e-01	5.8377	6.683783	0.000393	3.933972	0.666433	0.007868
 586	2.9250e-01	5.8450	6.735098	0.000513	5.131268	0.869260	0.010263
 587	2.9300e-01	5.8557	6.772729	0.000376	3.762930	0.637458	0.007526
 588	2.9350e-01	5.8679	6.819340	0.000466	4.660902	0.789578	0.009322
 589	2.9400e-01	5.8752	6.863813	0.000445	4.447099	0.753359	0.008895
 590	2.9450e-01	5.8868	6.904865	0.000411	4.105015	0.695408	0.008210
 591	2.9500e-01	5.8972	6.953187	0.000483	4.831944	0.818554	0.009664
 592	2.9550e-01	5.9052	6.992101	0.000389	3.891212	0.659189	0.007783
 593	2.9600e-01	5.9167	7.037429	0.000453	4.532620	0.767847	0.009066
 594	2.9650e-01	5.9259	7.084896	0.000475	4.746423	0.804066	0.009493
 595	2.9700e-01	5.9375	7.126375	0.000415	4.147775	0.702652	0.008296
 596	2.9750e-01	5.9448	7.175124	0.000487	4.874705	0.825797	0.009750
 597	2.9800e-01	5.9601	7.211473	0.000363	3.634648	0.615726	0.007270
 598	2.9850e-01	5.9641	7.261932	0.000505	5.045747	0.854773	0.010092
 599	2.9900e-01	5.9747	7.294004	0.000321	3.207043	0.543288	0.006414
 600	2.9950e-01	5.9860	7.344036	0.000500	5.002987	0.847529	0.010006
 601	3.0000e-01	5.9967	7.390220	0.000462	4.618142	0.782334	0.009237
 602	3.0050e-01	6.0091	7.430417	0.000402	4.019494	0.680921	0.008039
 603	3.0100e-01	6.0144	7.476600	0.000462	4.618142	0.782334	0.009237
 604	3.0150e-01	6.0236	7.512948	0.000363	3.634648	0.615726	0.007270
 605	3.0200e-01	6.0355	7.562553	0.000496	4.960226	0.840285	0.009921
 606	3.0250e-01	6.0468	7.605316	0.000428	4.276057	0.724384	0.008553
 607	3.0300e-01	6.0556	7.649361	0.000440	4.404339	0.746115	0.008809
 608	3.0350e-01	6.0669	7.695117	0.000458	4.575381	0.775091	0.009151
 609	3.0400e-01	6.0736	7.732320	0.000372	3.720170	0.630214	0.007441
 610	3.0450e-01	6.0873	7.774227	0.000419	4.190536	0.709896	0.008381
 611	3.0500e-01	6.0968	7.816135	0.000419	4.190536	0.709896	0.008381
 612	3.0550e-01	6.1047	7.861035	0.000449	4.489860	0.760603	0.008980
 613	3.0600e-01	6.1151	7.906791	0.000458	4.575381	0.775091	0.009151
 614	3.0650e-01	6.1243	7.952975	0.000462	4.618142	0.782334	0.009237
 615	3.0700e-01	6.1353	7.998303	0.000453	4.532620	0.767847	0.009066
 616	3.0750e-01	6.1453	8.040638	0.000423	4.233296	0.717140	0.008467
 617	3.0800e-01	6.1572	8.083401	0.000428	4.276057	0.724384	0.008553
 618	3.0850e-01	6.1664	8.105209	0.000218	2.180789	0.369436	0.004362
 619	3.0900e-01	6.1758	8.166360	0.000611	6.114762	1.035869	0.012230
 620	3.0950e-01	6.1877	8.206557	0.000402	4.019494	0.680921	0.008039
 621	3.1000e-01	6.2012	8.250174	0.000436	4.361578	0.738871	0.008724
 622	3.1050e-01	6.2054	8.295930	0.000458	4.575381	0.775091	0.009151
 623	3.1100e-01	6.2164	8.336127	0.000402	4.019494	0.680921	0.008039
 624	3.1150e-01	6.2226	8.382311	0.000462	4.618142	0.782334	0.009237
 625	3.1200e-01	6.2366	8.431060	0.000487	4.874705	0.825797	0.009750
 626	3.1250e-01	6.2457	8.467836	0.000368	3.677409	0.622970	0.007355
 627	3.1300e-01	6.2570	8.509315	0.000415	4.147775	0.702652	0.008296
 628	3.1350e-01	6.2668	8.555499	0.000462	4.618142	0.782334	0.009237
 629	3.1400e-01	6.2758	8.598261	0.000428	4.276057	0.724384	0.008553
 630	3.1450e-01	6.2888	8.643162	0.000449	4.489860	0.760603	0.008980
 631	3.1500e-01	6.2979	8.682504	0.000393	3.933972	0.666433	0.007868
 632	3.1550e-01	6.3101	8.726977	0.000445	4.447099	0.753359	0.008895
 633	3.1600e-01	6.3165	8.766746	0.000398	3.976733	0.673677	0.007954
 634	3.1650e-01	6.3269	8.805660	0.000389	3.891212	0.659189	0.007783
 635	3.1700e-01	6.3373	8.852698	0.000470	4.703663	0.796822	0.009408
 636	3.1750e-01	6.3458	8.893750	0.000411	4.105015	0.695408	0.008210
 637	3.1800e-01	6.3550	8.936941	0.000432	4.318818	0.731628	0.008638
 638	3.1850e-01	6.3635	8.978848	0.000419	4.190536	0.709896	0.008381
 639	3.1900e-01	6.3745	9.023321	0.000445	4.447099	0.753359	0.008895
 640	3.1950e-01	6.3849	9.065656	0.000423	4.233296	0.717140	0.008467
 641	3.2000e-01	6.3984	9.102004	0.000363	3.634648	0.615726	0.007270
 642	3.2050e-01	6.4038	9.153747	0.000517	5.174029	0.876504	0.010349
 643	3.2100e-01	6.4154	9.186246	0.000325	3.249803	0.550532	0.006500
 644	3.2150e-01	6.4261	9.236706	0.000505	5.045747	0.854773	0.010092
 645	3.2200e-01	6.4362	9.279896	0.000432	4.318818	0.731628	0.008638
 646	3.2250e-01	6.4478	9.317527	0.000376	3.762930	0.637458	0.007526
 647	3.2300e-01	6.4542	9.362855	0.000453	4.532620	0.767847	0.009066
 648	3.2350e-01	6.4606	9.406473	0.000436	4.361578	0.738871	0.008724
 649	3.2400e-01	6.4764	9.444959	0.000385	3.848451	0.651945	0.007697
 650	3.2450e-01	6.4880	9.492426	0.000475	4.746423	0.804066	0.009493
 651	3.2500e-01	6.4957	9.534333	0.000419	4.190536	0.709896	0.008381
 652	3.2550e-01	6.5063	9.577096	0.000428	4.276057	0.724384	0.008553
 653	3.2600e-01	6.5161	9.616010	0.000389	3.891212	0.659189	0.007783
 654	3.2650e-01	6.5277	9.657917	0.000419	4.190536	0.709896	0.008381
 655	3.2700e-01	6.5356	9.698969	0.000411	4.105015	0.695408	0.008210
 656	3.2750e-01	6.5460	9.743442	0.000445	4.447099	0.753359	0.008895
 657	3.2800e-01	6.5564	9.792619	0.000492	4.917466	0.833041	0.009835
 658	3.2850e-01	6.5662	9.825118	0.000325	3.249803	0.550532	0.006500
 659	3.2900e-01	6.5750	9.870447	0.000453	4.532620	0.767847	0.009066
 660	3.2950e-01	6.5845	9.914492	0.000440	4.404339	0.746115	0.008809
 661	3.3000e-01	6.5942	9.958965	0.000445	4.447099	0.753359	0.008895
 662	3.3050e-01	6.6064	9.993175	0.000342	3.420846	0.579507	0.006842
 663	3.3100e-01	6.6144	10.039359	0.000462	4.618142	0.782334	0.009237
 664	3.3150e-01	6.6293	10.083832	0.000445	4.447099	0.753359	0.008895
 665	3.3200e-01	6.6339	10.122746	0.000389	3.891212	0.659189	0.007783
 666	3.3250e-01	6.6463	10.171495	0.000487	4.874705	0.825797	0.009750
 667	3.3300e-01	6.6541	10.211692	0.000402	4.019494	0.680921	0.008039
 668	3.3350e-01	6.6669	10.248467	0.000368	3.677409	0.622970	0.007355
 669	3.3400e-01	6.6756	10.286954	0.000385	3.848451	0.651945	0.007697
 670	3.3450e-01	6.6885	10.333992	0.000470	4.703663	0.796822	0.009408
 671	3.3500e-01	6.6968	10.375044	0.000411	4.105015	0.695408	0.008210
 672	3.3550e-01	6.7065	10.416524	0.000415	4.147775	0.702652	0.008296
 673	3.3600e-01	6.7166	10.462708	0.000462	4.618142	0.782334	0.009237
 674	3.3650e-01	6.7249	10.501194	0.000385	3.848451	0.651945	0.007697
 675	3.3700e-01	6.7383	10.544812	0.000436	4.361578	0.738871	0.008724
 676	3.3750e-01	6.7465	10.589712	0.000449	4.489860	0.760603	0.008980
 677	3.3800e-01	6.7542	10.632902	0.000432	4.318818	0.731628	0.008638
 678	3.3850e-01	6.7665	10.672672	0.000398	3.976733	0.673677	0.007954
 679	3.3900e-01	6.7761	10.713724	0.000411	4.105015	0.695408	0.008210
 680	3.3950e-01	6.7868	10.756486	0.000428	4.276057	0.724384	0.008553
 681	3.4000e-01	6.7978	10.795828	0.000393	3.933972	0.666433	0.007868
 682	3.4050e-01	6.8079	10.842439	0.000466	4.660902	0.789578	0.009322
 683	3.4100e-01	6.8152	10.880497	0.000381	3.805691	0.644701	0.007612
 684	3.4150e-01	6.8262	10.923688	0.000432	4.318818	0.731628	0.008638
 685	3.4200e-01	6.8362	10.960891	0.000372	3.720170	0.630214	0.007441
 686	3.4250e-01	6.8481	11.007930	0.000470	4.703663	0.796822	0.009408
 687	3.4300e-01	6.8588	11.049409	0.000415	4.147775	0.702652	0.008296
 688	3.4350e-01	6.8655	11.093883	0.000445	4.447099	0.753359	0.008895
 689	3.4400e-01	6.8774	11.133652	0.000398	3.976733	0.673677	0.007954
 690	3.4450e-01	6.8854	11.171710	0.000381	3.805691	0.644701	0.007612
 691	3.4500e-01	6.8973	11.213618	0.000419	4.190536	0.709896	0.008381
 692	3.4550e-01	6.9055	11.256808	0.000432	4.318818	0.731628	0.008638
 693	3.4600e-01	6.9156	11.298715	0.000419	4.190536	0.709896	0.008381
 694	3.4650e-01	6.9260	11.337201	0.000385	3.848451	0.651945	0.007697
 695	3.4700e-01	6.9348	11.377826	0.000406	4.062254	0.688164	0.008125
 696	3.4750e-01	6.9470	11.413746	0.000359	3.591888	0.608482	0.007184
 697	3.4800e-01	6.9571	11.462495	0.000487	4.874705	0.825797	0.009750
 698	3.4850e-01	6.9667	11.497561	0.000351	3.506367	0.593995	0.007013
 699	3.4900e-01	6.9763	11.548448	0.000509	5.088508	0.862017	0.010177
 700	3.4950e-01	6.9873	11.589073	0.000406	4.062254	0.688164	0.008125
 701	3.5000e-01	6.9934	11.631835	0.000428	4.276057	0.724384	0.008553
 702	3.5050e-01	7.0050	11.670749	0.000389	3.891212	0.659189	0.007783
 703	3.5100e-01	7.0160	11.713939	0.000432	4.318818	0.731628	0.008638
 704	3.5150e-01	7.0245	11.753281	0.000393	3.933972	0.666433	0.007868
 705	3.5200e-01	7.0343	11.796898	0.000436	4.361578	0.738871	0.008724
 706	3.5250e-01	7.0453	11.839233	0.000423	4.233296	0.717140	0.008467
 707	3.5300e-01	7.0602	11.877292	0.000381	3.805691	0.644701	0.007612
 708	3.5350e-01	7.0657	11.922193	0.000449	4.489860	0.760603	0.008980
 709	3.5400e-01	7.0752	11.963672	0.000415	4.147775	0.702652	0.008296
 710	3.5450e-01	7.0813	11.999593	0.000359	3.591888	0.608482	0.007184
 711	3.5500e-01	7.0947	12.047914	0.000483	4.831944	0.818554	0.009664
 712	3.5550e-01	7.1075	12.085546	0.000376	3.762930	0.637458	0.007526
 713	3.5600e-01	7.1173	12.126170	0.000406	4.062254	0.688164	0.008125
 714	3.5650e-01	7.1252	12.170643	0.000445	4.447099	0.753359	0.008895
 715	3.5700e-01	7.1388	12.217254	0.000466	4.660902	0.789578	0.009322
 716	3.5750e-01	7.1475	12.259161	0.000419	4.190536	0.709896	0.008381
 717	3.5800e-01	7.1564	12.295082	0.000359	3.591888	0.608482	0.007184
 718	3.5850e-01	7.1677	12.336989	0.000419	4.190536	0.709896	0.008381
 719	3.5900e-01	7.1759	12.381462	0.000445	4.447099	0.753359	0.008895
 720	3.5950e-01	7.1857	12.423797	0.000423	4.233296	0.717140	0.008467
 721	3.6000e-01	7.1960	12.464422	0.000406	4.062254	0.688164	0.008125
 722	3.6050e-01	7.2046	12.505901	0.000415	4.147775	0.702652	0.008296
 723	3.6100e-01	7.2144	12.550374	0.000445	4.447099	0.753359	0.008895
 724	3.6150e-01	7.2229	12.586722	0.000363	3.634648	0.615726	0.007270
 725	3.6200e-01	7.2345	12.629485	0.000428	4.276057	0.724384	0.008553
 726	3.6250e-01	7.2461	12.667971	0.000385	3.848451	0.651945	0.007697
 727	3.6300e-01	7.2559	12.712017	0.000440	4.404339	0.746115	0.008809
 728	3.6350e-01	7.2638	12.750930	0.000389	3.891212	0.659189	0.007783
 729	3.6400e-01	7.2748	12.794121	0.000432	4.318818	0.731628	0.008638
 730	3.6450e-01	7.2876	12.836455	0.000423	4.233296	0.717140	0.008467
 731	3.6500e-01	7.2955	12.877080	0.000406	4.062254	0.688164	0.008125
 732	3.6550e-01	7.3114	12.916421	0.000393	3.933972	0.666433	0.007868
 733	3.6600e-01	7.3181	12.960039	0.000436	4.361578	0.738871	0.008724
 734	3.6650e-01	7.3279	13.002802	0.000428	4.276057	0.724384	0.008553
 735	3.6700e-01	7.3364	13.044709	0.000419	4.190536	0.709896	0.008381
 736	3.6750e-01	7.3451	13.081485	0.000368	3.677409	0.622970	0.007355
 737	3.6800e-01	7.3553	13.129379	0.000479	4.789184	0.811310	0.009579
 738	3.6850e-01	7.3657	13.170003	0.000406	4.062254	0.688164	0.008125
 739	3.6900e-01	7.3755	13.215331	0.000453	4.532620	0.767847	0.009066
 740	3.6950e-01	7.3877	13.250824	0.000355	3.549127	0.601238	0.007099
 741	3.7000e-01	7.3956	13.290166	0.000393	3.933972	0.666433	0.007868
 742	3.7050e-01	7.4048	13.335922	0.000458	4.575381	0.775091	0.009151
 743	3.7100e-01	7.4158	13.378257	0.000423	4.233296	0.717140	0.008467
 744	3.7150e-01	7.4280	13.419309	0.000411	4.105015	0.695408	0.008210
 745	3.7200e-01	7.4353	13.455657	0.000363	3.634648	0.615726	0.007270
 746	3.7250e-01	7.4481	13.496709	0.000411	4.105015	0.695408	0.008210
 747	3.7300e-01	7.4561	13.540327	0.000436	4.361578	0.738871	0.008724
 748	3.7350e-01	7.4695	13.588221	0.000479	4.789184	0.811310	0.009579
 749	3.7400e-01	7.4768	13.622858	0.000346	3.463606	0.586751	0.006928
 750	3.7450e-01	7.4847	13.663055	0.000402	4.019494	0.680921	0.008039
 751	3.7500e-01	7.4966	13.710094	0.000470	4.703663	0.796822	0.009408
 752	3.7550e-01	7.5113	13.752856	0.000428	4.276057	0.724384	0.008553
 753	3.7600e-01	7.5159	13.797329	0.000445	4.447099	0.753359	0.008895
 754	3.7650e-01	7.5232	13.830684	0.000334	3.335324	0.565019	0.006671
 755	3.7700e-01	7.5354	13.874302	0.000436	4.361578	0.738871	0.008724
 756	3.7750e-01	7.5436	13.918347	0.000440	4.404339	0.746115	0.008809
 757	3.7800e-01	7.5555	13.961110	0.000428	4.276057	0.724384	0.008553
 758	3.7850e-01	7.5696	14.003017	0.000419	4.190536	0.709896	0.008381
 759	3.7900e-01	7.5769	14.041504	0.000385	3.848451	0.651945	0.007697
 760	3.7950e-01	7.5873	14.086832	0.000453	4.532620	0.767847	0.009066
 761	3.8000e-01	7.5958	14.126173	0.000393	3.933972	0.666433	0.007868
 762	3.8050e-01	7.6074	14.163377	0.000372	3.720170	0.630214	0.007441
 763	3.8100e-01	7.6178	14.206139	0.000428	4.276057	0.724384	0.008553
 764	3.8150e-01	7.6239	14.244626	0.000385	3.848451	0.651945	0.007697
 765	3.8200e-01	7.6367	14.284822	0.000402	4.019494	0.680921	0.008039
 766	3.8250e-01	7.6465	14.334854	0.000500	5.002987	0.847529	0.010006
 767	3.8300e-01	7.6581	14.372058	0.000372	3.720170	0.630214	0.007441
 768	3.8350e-01	7.6669	14.411827	0.000398	3.976733	0.673677	0.007954
 769	3.8400e-01	7.6736	14.459721	0.000479	4.789184	0.811310	0.009579
 770	3.8450e-01	7.6843	14.495214	0.000355	3.549127	0.601238	0.007099
 771	3.8500e-01	7.6971	14.537121	0.000419	4.190536	0.709896	0.008381
 772	3.8550e-01	7.7063	14.581594	0.000445	4.447099	0.753359	0.008895
 773	3.8600e-01	7.7170	14.625212	0.000436	4.361578	0.738871	0.008724
 774	3.8650e-01	7.7252	14.664981	0.000398	3.976733	0.673677	0.007954
 775	3.8700e-01	7.7386	14.711165	0.000462	4.618142	0.782334	0.009237
 776	3.8750e-01	7.7432	14.751361	0.000402	4.019494	0.680921	0.008039
 777	3.8800e-01	7.7576	14.788565	0.000372	3.720170	0.630214	0.007441
 778	3.8850e-01	7.7679	14.839025	0.000505	5.045747	0.854773	0.010092
 779	3.8900e-01	7.7759	14.877939	0.000389	3.891212	0.659189	0.007783
 780	3.8950e-01	7.7863	14.916852	0.000389	3.891212	0.659189	0.007783
 781	3.9000e-01	7.7960	14.963036	0.000462	4.618142	0.782334	0.009237
 782	3.9050e-01	7.8070	15.005799	0.000428	4.276057	0.724384	0.008553
 783	3.9100e-01	7.8162	15.043857	0.000381	3.805691	0.644701	0.007612
 784	3.9150e-01	7.8223	15.084054	0.000402	4.019494	0.680921	0.008039
 785	3.9200e-01	7.8400	15.127244	0.000432	4.318818	0.731628	0.008638
 786	3.9250e-01	7.8442	15.170434	0.000432	4.318818	0.731628	0.008638
 787	3.9300e-01	7.8583	15.214907	0.000445	4.447099	0.753359	0.008895
 788	3.9350e-01	7.8644	15.254249	0.000393	3.933972	0.666433	0.007868
 789	3.9400e-01	7.8729	15.295728	0.000415	4.147775	0.702652	0.008296
 790	3.9450e-01	7.8851	15.341057	0.000453	4.532620	0.767847	0.009066
 791	3.9500e-01	7.8967	15.382109	0.000411	4.105015	0.695408	0.008210
 792	3.9550e-01	7.9056	15.415036	0.000329	3.292564	0.557775	0.006585
 793	3.9600e-01	7.9181	15.458654	0.000436	4.361578	0.738871	0.008724
 794	3.9650e-01	7.9260	15.507831	0.000492	4.917466	0.833041	0.009835
 795	3.9700e-01	7.9364	15.552731	0.000449	4.489860	0.760603	0.008980
 796	3.9750e-01	7.9462	15.593783	0.000411	4.105015	0.695408	0.008210
 797	3.9800e-01	7.9541	15.635263	0.000415	4.147775	0.702652	0.008296
 798	3.9850e-01	7.9669	15.674177	0.000389	3.891212	0.659189	0.007783
 799	3.9900e-01	7.9773	15.713518	0.000393	3.933972	0.666433	0.007868
 800	3.9950e-01	7.9871	15.764833	0.000513	5.131268	0.869260	0.010263
 801	4.0000e-01	7.9962	15.803747	0.000389	3.891212	0.659189	0.007783
 802	4.0050e-01	8.0072	15.845655	0.000419	4.190536	0.709896	0.008381
 803	4.0100e-01	8.0151	15.891410	0.000458	4.575381	0.775091	0.009151
 804	4.0150e-01	8.0273	15.923055	0.000316	3.164282	0.536044	0.006329
 805	4.0200e-01	8.0359	15.969666	0.000466	4.660902	0.789578	0.009322
 806	4.0250e-01	8.0444	16.015422	0.000458	4.575381	0.775091	0.009151
 807	4.0300e-01	8.0573	16.057329	0.000419	4.190536	0.709896	0.008381
 808	4.0350e-01	8.0652	16.100092	0.000428	4.276057	0.724384	0.008553
 809	4.0400e-01	8.0807	16.141571	0.000415	4.147775	0.702652	0.008296
 810	4.0450e-01	8.0865	16.177919	0.000363	3.634648	0.615726	0.007270
 811	4.0500e-01	8.0963	16.227096	0.000492	4.917466	0.833041	0.009835
 812	4.0550e-01	8.1061	16.270714	0.000436	4.361578	0.738871	0.008724
 813	4.0600e-01	8.1155	16.316898	0.000462	4.618142	0.782334	0.009237
 814	4.0650e-01	8.1262	16.356667	0.000398	3.976733	0.673677	0.007954
 815	4.0700e-01	8.1348	16.397719	0.000411	4.105015	0.695408	0.008210
 816	4.0750e-01	8.1442	16.435777	0.000381	3.805691	0.644701	0.007612
 817	4.0800e-01	8.1549	16.476829	0.000411	4.105015	0.695408	0.008210
 818	4.0850e-01	8.1659	16.523868	0.000470	4.703663	0.796822	0.009408
 819	4.0900e-01	8.1766	16.568769	0.000449	4.489860	0.760603	0.008980
 820	4.0950e-01	8.1879	16.602551	0.000338	3.378085	0.572263	0.006756
 821	4.1000e-01	8.1970	16.647880	0.000453	4.532620	0.767847	0.009066
 822	4.1050e-01	8.2056	16.691070	0.000432	4.318818	0.731628	0.008638
 823	4.1100e-01	8.2169	16.734260	0.000432	4.318818	0.731628	0.008638
 824	4.1150e-01	8.2260	16.779588	0.000453	4.532620	0.767847	0.009066
 825	4.1200e-01	8.2352	16.823206	0.000436	4.361578	0.738871	0.008724
 826	4.1250e-01	8.2462	16.866824	0.000436	4.361578	0.738871	0.008724
 827	4.1300e-01	8.2571	16.910441	0.000436	4.361578	0.738871	0.008724
 828	4.1350e-01	8.2632	16.953204	0.000428	4.276057	0.724384	0.008553
 829	4.1400e-01	8.2764	16.991263	0.000381	3.805691	0.644701	0.007612
 830	4.1450e-01	8.2880	17.042150	0.000509	5.088508	0.862017	0.010177
 831	4.1500e-01	8.2965	17.078071	0.000359	3.591888	0.608482	0.007184
 832	4.1550e-01	8.3047	17.128530	0.000505	5.045747	0.854773	0.010092
 833	4.1600e-01	8.3148	17.165306	0.000368	3.677409	0.622970	0.007355
 834	4.1650e-01	8.3246	17.208069	0.000428	4.276057	0.724384	0.008553
 835	4.1700e-01	8.3350	17.254680	0.000466	4.660902	0.789578	0.009322
 836	4.1750e-01	8.3459	17.296159	0.000415	4.147775	0.702652	0.008296
 837	4.1800e-01	8.3569	17.343198	0.000470	4.703663	0.796822	0.009408
 838	4.1850e-01	8.3698	17.379119	0.000359	3.591888	0.608482	0.007184
 839	4.1900e-01	8.3731	17.430434	0.000513	5.131268	0.869260	0.010263
 840	4.1950e-01	8.3838	17.474479	0.000440	4.404339	0.746115	0.008809
 841	4.2000e-01	8.3981	17.512965	0.000385	3.848451	0.651945	0.007697
 842	4.2050e-01	8.4070	17.555728	0.000428	4.276057	0.724384	0.008553
 843	4.2100e-01	8.4167	17.595070	0.000393	3.933972	0.666433	0.007868
 844	4.2150e-01	8.4253	17.647240	0.000522	5.216790	0.883748	0.010434
 845	4.2200e-01	8.4354	17.691285	0.000440	4.404339	0.746115	0.008809
 846	4.2250e-01	8.4473	17.729772	0.000385	3.848451	0.651945	0.007697
 847	4.2300e-01	8.4583	17.777238	0.000475	4.746423	0.804066	0.009493
 848	4.2350e-01	8.4683	17.812731	0.000355	3.549127	0.601238	0.007099
 849	4.2400e-01	8.4766	17.863191	0.000505	5.045747	0.854773	0.010092
 850	4.2450e-01	8.4863	17.906808	0.000436	4.361578	0.738871	0.008724
 851	4.2500e-01	8.4949	17.947860	0.000411	4.105015	0.695408	0.008210
 852	4.2550e-01	8.5083	17.995327	0.000475	4.746423	0.804066	0.009493
 853	4.2600e-01	8.5138	18.031675	0.000363	3.634648	0.615726	0.007270
 854	4.2650e-01	8.5291	18.081279	0.000496	4.960226	0.840285	0.009921
 855	4.2700e-01	8.5370	18.125753	0.000445	4.447099	0.753359	0.008895
 856	4.2750e-01	8.5446	18.174929	0.000492	4.917466	0.833041	0.009835
 857	4.2800e-01	8.5553	18.220685	0.000458	4.575381	0.775091	0.009151
 858	4.2850e-01	8.5648	18.253185	0.000325	3.249803	0.550532	0.006500
 859	4.2900e-01	8.5757	18.303217	0.000500	5.002987	0.847529	0.010006
 860	4.2950e-01	8.5876	18.351539	0.000483	4.831944	0.818554	0.009664
 861	4.3000e-01	8.5962	18.393446	0.000419	4.190536	0.709896	0.008381
 862	4.3050e-01	8.6060	18.446471	0.000530	5.302311	0.898236	0.010605
 863	4.3100e-01	8.6176	18.477260	0.000308	3.078761	0.521556	0.006158
 864	4.3150e-01	8.6261	18.529431	0.000522	5.216790	0.883748	0.010434
 865	4.3200e-01	8.6371	18.569200	0.000398	3.976733	0.673677	0.007954
 866	4.3250e-01	8.6462	18.612818	0.000436	4.361578	0.738871	0.008724
 867	4.3300e-01	8.6542	18.664133	0.000513	5.131268	0.869260	0.010263
 868	4.3350e-01	8.6670	18.701764	0.000376	3.762930	0.637458	0.007526
 869	4.3400e-01	8.6768	18.750941	0.000492	4.917466	0.833041	0.009835
 870	4.3450e-01	8.6859	18.794131	0.000432	4.318818	0.731628	0.008638
 871	4.3500e-01	8.6945	18.836466	0.000423	4.233296	0.717140	0.008467
 872	4.3550e-01	8.7073	18.878373	0.000419	4.190536	0.709896	0.008381
 873	4.3600e-01	8.7183	18.921563	0.000432	4.318818	0.731628	0.008638
 874	4.3650e-01	8.7262	18.971168	0.000496	4.960226	0.840285	0.009921
 875	4.3700e-01	8.7366	19.016496	0.000453	4.532620	0.767847	0.009066
 876	4.3750e-01	8.7476	19.060541	0.000440	4.404339	0.746115	0.008809
 877	4.3800e-01	8.7561	19.106725	0.000462	4.618142	0.782334	0.009237
 878	4.3850e-01	8.7665	19.151626	0.000449	4.489860	0.760603	0.008980
 879	4.3900e-01	8.7750	19.199092	0.000475	4.746423	0.804066	0.009493
 880	4.3950e-01	8.7854	19.241854	0.000428	4.276057	0.724384	0.008553
 881	4.4000e-01	8.7976	19.285472	0.000436	4.361578	0.738871	0.008724
 882	4.4050e-01	8.8074	19.327380	0.000419	4.190536	0.709896	0.008381
 883	4.4100e-01	8.8193	19.370570	0.000432	4.318818	0.731628	0.008638
 884	4.4150e-01	8.8300	19.421457	0.000509	5.088508	0.862017	0.010177
 885	4.4200e-01	8.8391	19.461654	0.000402	4.019494	0.680921	0.008039
 886	4.4250e-01	8.8446	19.510403	0.000487	4.874705	0.825797	0.009750
 887	4.4300e-01	8.8544	19.558297	0.000479	4.789184	0.811310	0.009579
 888	4.4350e-01	8.8641	19.604908	0.000466	4.660902	0.789578	0.009322
 889	4.4400e-01	8.8763	19.643822	0.000389	3.891212	0.659189	0.007783
 890	4.4450e-01	8.8849	19.694282	0.000505	5.045747	0.854773	0.010092
 891	4.4500e-01	8.8916	19.743031	0.000487	4.874705	0.825797	0.009750
 892	4.4550e-01	8.9063	19.783228	0.000402	4.019494	0.680921	0.008039
 893	4.4600e-01	8.9172	19.828556	0.000453	4.532620	0.767847	0.009066
 894	4.4650e-01	8.9282	19.878161	0.000496	4.960226	0.840285	0.009921
 895	4.4700e-01	8.9368	19.933325	0.000552	5.516114	0.934455	0.011033
 896	4.4750e-01	8.9461	19.961120	0.000278	2.779437	0.470849	0.005559
 897	4.4800e-01	8.9600	20.007731	0.000466	4.660902	0.789578	0.009322
 898	4.4850e-01	8.9673	20.058191	0.000505	5.045747	0.854773	0.010092
 899	4.4900e-01	8.9764	20.111644	0.000535	5.345071	0.905480	0.010691
 900	4.4950e-01	8.9868	20.153979	0.000423	4.233296	0.717140	0.008467
 901	4.5000e-01	8.9966	20.202301	0.000483	4.831944	0.818554	0.009664
 902	4.5050e-01	9.0051	20.253188	0.000509	5.088508	0.862017	0.010177
 903	4.5100e-01	9.0182	20.294668	0.000415	4.147775	0.702652	0.008296
 904	4.5150e-01	9.0265	20.345983	0.000513	5.131268	0.869260	0.010263
 905	4.5200e-01	9.0393	20.390884	0.000449	4.489860	0.760603	0.008980
 906	4.5250e-01	9.0448	20.434501	0.000436	4.361578	0.738871	0.008724
 907	4.5300e-01	9.0564	20.481113	0.000466	4.660902	0.789578	0.009322
 908	4.5350e-01	9.0649	20.527296	0.000462	4.618142	0.782334	0.009237
 909	4.5400e-01	9.0759	20.580749	0.000535	5.345071	0.905480	0.010691
 910	4.5450e-01	9.0857	20.629499	0.000487	4.874705	0.825797	0.009750
 911	4.5500e-01	9.0955	20.672689	0.000432	4.318818	0.731628	0.008638
 912	4.5550e-01	9.1083	20.719727	0.000470	4.703663	0.796822	0.009408
 913	4.5600e-01	9.1180	20.768049	0.000483	4.831944	0.818554	0.009664
 914	4.5650e-01	9.1292	20.813377	0.000453	4.532620	0.767847	0.009066
 915	4.5700e-01	9.1376	20.865975	0.000526	5.259550	0.890992	0.010520
 916	4.5750e-01	9.1467	20.907455	0.000415	4.147775	0.702652	0.008296
 917	4.5800e-01	9.1553	20.959625	0.000522	5.216790	0.883748	0.010434
 918	4.5850e-01	9.1638	21.014361	0.000547	5.473353	0.927211	0.010947
 919	4.5900e-01	9.1766	21.058407	0.000440	4.404339	0.746115	0.008809
 920	4.5950e-01	9.1846	21.099886	0.000415	4.147775	0.702652	0.008296
 921	4.6000e-01	9.1968	21.144359	0.000445	4.447099	0.753359	0.008895
 922	4.6050e-01	9.2078	21.199095	0.000547	5.473353	0.927211	0.010947
 923	4.6100e-01	9.2163	21.243568	0.000445	4.447099	0.753359	0.008895
 924	4.6150e-01	9.2230	21.297022	0.000535	5.345071	0.905480	0.010691
 925	4.6200e-01	9.2365	21.342777	0.000458	4.575381	0.775091	0.009151
 926	4.6250e-01	9.2484	21.387678	0.000449	4.489860	0.760603	0.008980
 927	4.6300e-01	9.2563	21.436427	0.000487	4.874705	0.825797	0.009750
 928	4.6350e-01	9.2645	21.484749	0.000483	4.831944	0.818554	0.009664
 929	4.6400e-01	9.2767	21.536919	0.000522	5.216790	0.883748	0.010434
 930	4.6450e-01	9.2865	21.587379	0.000505	5.045747	0.854773	0.010092
 931	4.6500e-01	9.2950	21.629286	0.000419	4.190536	0.709896	0.008381
 932	4.6550e-01	9.3054	21.688299	0.000590	5.900959	0.999649	0.011802
 933	4.6600e-01	9.3146	21.734482	0.000462	4.618142	0.782334	0.009237
 934	4.6650e-01	9.3250	21.776817	0.000423	4.233296	0.717140	0.008467
 935	4.6700e-01	9.3378	21.832408	0.000556	5.558874	0.941699	0.011118
 936	4.6750e-01	9.3481	21.873888	0.000415	4.147775	0.702652	0.008296
 937	4.6800e-01	9.3555	21.927341	0.000535	5.345071	0.905480	0.010691
 938	4.6850e-01	9.3634	21.976518	0.000492	4.917466	0.833041	0.009835
 939	4.6900e-01	9.3750	22.023557	0.000470	4.703663	0.796822	0.009408
 940	4.6950e-01	9.3860	22.077438	0.000539	5.387832	0.912723	0.010776
 941	4.7000e-01	9.3945	22.120200	0.000428	4.276057	0.724384	0.008553
 942	4.7050e-01	9.4055	22.169377	0.000492	4.917466	0.833041	0.009835
 943	4.7100e-01	9.4171	22.219409	0.000500	5.002987	0.847529	0.010006
 944	4.7150e-01	9.4263	22.275428	0.000560	5.601635	0.948943	0.011204
 945	4.7200e-01	9.4360	22.320756	0.000453	4.532620	0.767847	0.009066
 946	4.7250e-01	9.4446	22.370789	0.000500	5.002987	0.847529	0.010006
 947	4.7300e-01	9.4537	22.421248	0.000505	5.045747	0.854773	0.010092
 948	4.7350e-01	9.4659	22.469142	0.000479	4.789184	0.811310	0.009579
 949	4.7400e-01	9.4739	22.518747	0.000496	4.960226	0.840285	0.009921
 950	4.7450e-01	9.4855	22.567069	0.000483	4.831944	0.818554	0.009664
 951	4.7500e-01	9.4934	22.622232	0.000552	5.516114	0.934455	0.011033
 952	4.7550e-01	9.5056	22.675685	0.000535	5.345071	0.905480	0.010691
 953	4.7600e-01	9.5148	22.719303	0.000436	4.361578	0.738871	0.008724
 954	4.7650e-01	9.5251	22.768480	0.000492	4.917466	0.833041	0.009835
 955	4.7700e-01	9.5352	22.827065	0.000586	5.858198	0.992406	0.011717
 956	4.7750e-01	9.5471	22.871110	0.000440	4.404339	0.746115	0.008809
 957	4.7800e-01	9.5520	22.924991	0.000539	5.387832	0.912723	0.010776
 958	4.7850e-01	9.5642	22.975878	0.000509	5.088508	0.862017	0.010177
 959	4.7900e-01	9.5740	23.031897	0.000560	5.601635	0.948943	0.011204
 960	4.7950e-01	9.5868	23.076798	0.000449	4.489860	0.760603	0.008980
 961	4.8000e-01	9.5953	23.128113	0.000513	5.131268	0.869260	0.010263
 962	4.8050e-01	9.6045	23.179856	0.000517	5.174029	0.876504	0.010349
 963	4.8100e-01	9.6136	23.233309	0.000535	5.345071	0.905480	0.010691
 964	4.8150e-01	9.6228	23.283341	0.000500	5.002987	0.847529	0.010006
 965	4.8200e-01	9.6356	23.338505	0.000552	5.516114	0.934455	0.011033
 966	4.8250e-01	9.6436	23.385543	0.000470	4.703663	0.796822	0.009408
 967	4.8300e-01	9.6555	23.437714	0.000522	5.216790	0.883748	0.010434
 968	4.8350e-01	9.6625	23.492877	0.000552	5.516114	0.934455	0.011033
 969	4.8400e-01	9.6765	23.544192	0.000513	5.131268	0.869260	0.010263
 970	4.8450e-01	9.6844	23.594225	0.000500	5.002987	0.847529	0.010006
 971	4.8500e-01	9.6948	23.648105	0.000539	5.387832	0.912723	0.010776
 972	4.8550e-01	9.7058	23.700703	0.000526	5.259550	0.890992	0.010520
 973	4.8600e-01	9.7131	23.754156	0.000535	5.345071	0.905480	0.010691
 974	4.8650e-01	9.7247	23.808892	0.000547	5.473353	0.927211	0.010947
 975	4.8700e-01	9.7345	23.858497	0.000496	4.960226	0.840285	0.009921
 976	4.8750e-01	9.7443	23.913233	0.000547	5.473353	0.927211	0.010947
 977	4.8800e-01	9.7546	23.960272	0.000470	4.703663	0.796822	0.009408
 978	4.8850e-01	9.7644	24.018001	0.000577	5.772677	0.977918	0.011546
 979	4.8900e-01	9.7754	24.075303	0.000573	5.729916	0.970674	0.011460
 980	4.8950e-01	9.7870	24.125763	0.000505	5.045747	0.854773	0.010092
 981	4.9000e-01	9.7949	24.178788	0.000530	5.302311	0.898236	0.010605
 982	4.9050e-01	9.8035	24.233524	0.000547	5.473353	0.927211	0.010947
 983	4.9100e-01	9.8157	24.282274	0.000487	4.874705	0.825797	0.009750
 984	4.9150e-01	9.8254	24.342141	0.000599	5.986480	1.014137	0.011974
 985	4.9200e-01	9.8383	24.394311	0.000522	5.216790	0.883748	0.010434
 986	4.9250e-01	9.8456	24.447765	0.000535	5.345071	0.905480	0.010691
 987	4.9300e-01	9.8535	24.500790	0.000530	5.302311	0.898236	0.010605
 988	4.9350e-01	9.8639	24.559375	0.000586	5.858198	0.992406	0.011717
 989	4.9400e-01	9.8755	24.615394	0.000560	5.601635	0.948943	0.011204
 990	4.9450e-01	9.8859	24.668419	0.000530	5.302311	0.898236	0.010605
 991	4.9500e-01	9.8950	24.718879	0.000505	5.045747	0.854773	0.010092
 992	4.9550e-01	9.9060	24.772332	0.000535	5.345071	0.905480	0.010691
 993	4.9600e-01	9.9121	24.832200	0.000599	5.986480	1.014137	0.011974
 994	4.9650e-01	9.9255	24.881377	0.000492	4.917466	0.833041	0.009835
 995	4.9700e-01	9.9371	24.939534	0.000582	5.815438	0.985162	0.011631
 996	4.9750e-01	9.9469	24.990849	0.000513	5.131268	0.869260	0.010263
 997	4.9800e-01	9.9556	25.043874	0.000530	5.302311	0.898236	0.010605
 998	4.9850e-01	9.9628	25.102886	0.000590	5.900959	0.999649	0.011802
 999	4.9900e-01	9.9738	25.154629	0.000517	5.174029	0.876504	0.010349
1000	4.9950e-01	9.9897	25.209793	0.000552	5.516114	0.934455	0.011033
1001	5.0000e-01	9.9957	25.266667	0.000569	5.687156	0.963430	0.011375
1002	5.0050e-01	9.9896	25.294035	-0.000274	-2.736676	-0.463606	0.005474
1003	5.0100e-01	9.9725	25.302160	-0.000081	-0.812451	-0.137633	0.001625
1004	5.0150e-01	9.9666	25.301305	0.000009	0.085521	0.014488	-0.000171
1005	5.0200e-01	9.9573	25.296601	0.000047	0.470366	0.079682	-0.000941
1006	5.0250e-01	9.9481	25.293607	0.000030	0.299324	0.050707	-0.000599
1007	5.0300e-01	9.9365	25.287193	0.000064	0.641409	0.108658	-0.001283
1008	5.0350e-01	9.9255	25.284200	0.000030	0.299324	0.050707	-0.000599
1009	5.0400e-01	9.9182	25.275647	0.000086	0.855211	0.144877	-0.001711
1010	5.0450e-01	9.9036	25.273081	0.000026	0.256563	0.043463	-0.000513
1011	5.0500e-01	9.8969	25.258970	0.000141	1.411099	0.239047	-0.002822
1012	5.0550e-01	9.8865	25.249134	0.000098	0.983493	0.166608	-0.001967
1013	5.0600e-01	9.8730	25.241437	0.000077	0.769690	0.130389	-0.001539
1014	5.0650e-01	9.8633	25.223904	0.000175	1.753183	0.296997	-0.003507
1015	5.0700e-01	9.8578	25.217062	0.000068	0.684169	0.115901	-0.001368
1016	5.0750e-01	9.8486	25.204661	0.000124	1.240057	0.210071	-0.002480
1017	5.0800e-01	9.8364	25.191405	0.000133	1.325578	0.224559	-0.002651
1018	5.0850e-01	9.8242	25.184563	0.000068	0.684169	0.115901	-0.001368
1019	5.0900e-01	9.8151	25.177293	0.000073	0.726930	0.123145	-0.001454
1020	5.0950e-01	9.8053	25.161899	0.000154	1.539381	0.260778	-0.003079
1021	5.1000e-01	9.7992	25.144794	0.000171	1.710423	0.289753	-0.003421
1022	5.1050e-01	9.7839	25.135386	0.000094	0.940733	0.159364	-0.001882
1023	5.1100e-01	9.7760	25.121702	0.000137	1.368338	0.231803	-0.002737
1024	5.1150e-01	9.7638	25.105880	0.000158	1.582141	0.268022	-0.003164
1025	5.1200e-01	9.7583	25.092196	0.000137	1.368338	0.231803	-0.002737
1026	5.1250e-01	9.7479	25.073808	0.000184	1.838705	0.311485	-0.003678
1027	5.1300e-01	9.7336	25.063545	0.000103	1.026254	0.173852	-0.002053
1028	5.1350e-01	9.7241	25.046868	0.000167	1.667662	0.282510	-0.003335
1029	5.1400e-01	9.7125	25.034466	0.000124	1.240057	0.210071	-0.002480
1030	5.1450e-01	9.7046	25.016079	0.000184	1.838705	0.311485	-0.003678
1031	5.1500e-01	9.6954	24.999829	0.000162	1.624902	0.275266	-0.003250
1032	5.1550e-01	9.6875	24.983151	0.000167	1.667662	0.282510	-0.003335
1033	5.1600e-01	9.6771	24.964336	0.000188	1.881465	0.318729	-0.003763
1034	5.1650e-01	9.6692	24.946376	0.000180	1.795944	0.304241	-0.003592
1035	5.1700e-01	9.6567	24.930981	0.000154	1.539381	0.260778	-0.003079
1036	5.1750e-01	9.6478	24.912166	0.000188	1.881465	0.318729	-0.003763
1037	5.1800e-01	9.6368	24.898909	0.000133	1.325578	0.224559	-0.002651
1038	5.1850e-01	9.6277	24.877528	0.000214	2.138029	0.362192	-0.004276
1039	5.1900e-01	9.6149	24.863416	0.000141	1.411099	0.239047	-0.002822
1040	5.1950e-01	9.6057	24.844173	0.000192	1.924226	0.325973	-0.003849
1041	5.2000e-01	9.5984	24.819799	0.000244	2.437352	0.412899	-0.004875
1042	5.2050e-01	9.5862	24.807825	0.000120	1.197296	0.202827	-0.002395
1043	5.2100e-01	9.5776	24.786871	0.000210	2.095268	0.354948	-0.004191
1044	5.2150e-01	9.5679	24.764207	0.000227	2.266310	0.383923	-0.004533
1045	5.2200e-01	9.5563	24.742398	0.000218	2.180789	0.369436	-0.004362
1046	5.2250e-01	9.5486	24.727432	0.000150	1.496620	0.253534	-0.002993
1047	5.2300e-01	9.5370	24.709899	0.000175	1.753183	0.296997	-0.003507
1048	5.2350e-01	9.5258	24.687235	0.000227	2.266310	0.383923	-0.004533
1049	5.2400e-01	9.5172	24.668847	0.000184	1.838705	0.311485	-0.003678
1050	5.2450e-01	9.5068	24.644045	0.000248	2.480113	0.420143	-0.004960
1051	5.2500e-01	9.4958	24.624801	0.000192	1.924226	0.325973	-0.003849
1052	5.2550e-01	9.4873	24.605131	0.000197	1.966986	0.333216	-0.003934
1053	5.2600e-01	9.4800	24.586315	0.000188	1.881465	0.318729	-0.003763
1054	5.2650e-01	9.4690	24.564079	0.000222	2.223550	0.376680	-0.004447
1055	5.2700e-01	9.4556	24.545263	0.000188	1.881465	0.318729	-0.003763
1056	5.2750e-01	9.4476	24.520033	0.000252	2.522874	0.427386	-0.005046
1057	5.2800e-01	9.4388	24.502501	0.000175	1.753183	0.296997	-0.003507
1058	5.2850e-01	9.4250	24.476843	0.000257	2.565634	0.434630	-0.005132
1059	5.2900e-01	9.4185	24.458455	0.000184	1.838705	0.311485	-0.003678
1060	5.2950e-01	9.4049	24.438357	0.000201	2.009747	0.340460	-0.004020
1061	5.3000e-01	9.3964	24.411844	0.000265	2.651155	0.449118	-0.005303
1062	5.3050e-01	9.3896	24.389180	0.000227	2.266310	0.383923	-0.004533
1063	5.3100e-01	9.3781	24.370792	0.000184	1.838705	0.311485	-0.003678
1064	5.3150e-01	9.3646	24.354970	0.000158	1.582141	0.268022	-0.003164
1065	5.3200e-01	9.3561	24.325891	0.000291	2.907719	0.492581	-0.005816
1066	5.3250e-01	9.3442	24.298951	0.000269	2.693916	0.456362	-0.005388
1067	5.3300e-01	9.3353	24.280135	0.000188	1.881465	0.318729	-0.003763
1068	5.3350e-01	9.3280	24.252767	0.000274	2.736676	0.463606	-0.005474
1069	5.3400e-01	9.3176	24.232241	0.000205	2.052507	0.347704	-0.004105
1070	5.3450e-01	9.3076	24.208722	0.000235	2.351831	0.398411	-0.004704
1071	5.3500e-01	9.2969	24.184347	0.000244	2.437352	0.412899	-0.004875
1072	5.3550e-01	9.2865	24.160400	0.000239	2.394592	0.405655	-0.004789
1073	5.3600e-01	9.2773	24.145434	0.000150	1.496620	0.253534	-0.002993
1074	5.3650e-01	9.2639	24.115500	0.000299	2.993240	0.507069	-0.005987
1075	5.3700e-01	9.2566	24.096684	0.000188	1.881465	0.318729	-0.003763
1076	5.3750e-01	9.2456	24.070171	0.000265	2.651155	0.449118	-0.005303
1077	5.3800e-01	9.2377	24.044514	0.000257	2.565634	0.434630	-0.005132
1078	5.3850e-01	9.2249	24.023988	0.000205	2.052507	0.347704	-0.004105
1079	5.3900e-01	9.2114	23.992344	0.000316	3.164282	0.536044	-0.006329
1080	5.3950e-01	9.2050	23.980798	0.000115	1.154535	0.195584	-0.002309
1081	5.4000e-01	9.1962	23.951719	0.000291	2.907719	0.492581	-0.005816
1082	5.4050e-01	9.1858	23.921785	0.000299	2.993240	0.507069	-0.005987
1083	5.4100e-01	9.1754	23.899121	0.000227	2.266310	0.383923	-0.004533
1084	5.4150e-01	9.1675	23.872609	0.000265	2.651155	0.449118	-0.005303
1085	5.4200e-01	9.1562	23.854221	0.000184	1.838705	0.311485	-0.003678
1086	5.4250e-01	9.1479	23.825570	0.000286	2.864958	0.485337	-0.005730
1087	5.4300e-01	9.1376	23.792643	0.000329	3.292564	0.557775	-0.006585
1088	5.4350e-01	9.1284	23.770406	0.000222	2.223550	0.376680	-0.004447
1089	5.4400e-01	9.1162	23.750735	0.000197	1.966986	0.333216	-0.003934
1090	5.4450e-01	9.1058	23.725078	0.000257	2.565634	0.434630	-0.005132
1091	5.4500e-01	9.0985	23.699420	0.000257	2.565634	0.434630	-0.005132
1092	5.4550e-01	9.0875	23.672052	0.000274	2.736676	0.463606	-0.005474
1093	5.4600e-01	9.0753	23.644684	0.000274	2.736676	0.463606	-0.005474
1094	5.4650e-01	9.0656	23.616889	0.000278	2.779437	0.470849	-0.005559
1095	5.4700e-01	9.0574	23.596363	0.000205	2.052507	0.347704	-0.004105
1096	5.4750e-01	9.0454	23.570705	0.000257	2.565634	0.434630	-0.005132
1097	5.4800e-01	9.0387	23.546758	0.000239	2.394592	0.405655	-0.004789
1098	5.4850e-01	9.0247	23.516824	0.000299	2.993240	0.507069	-0.005987
1099	5.4900e-01	9.0173	23.487318	0.000295	2.950479	0.499825	-0.005901
1100	5.4950e-01	9.0076	23.463799	0.000235	2.351831	0.398411	-0.004704
1101	5.5000e-01	8.9969	23.440279	0.000235	2.351831	0.398411	-0.004704
1102	5.5050e-01	8.9862	23.412056	0.000282	2.822198	0.478093	-0.005645
1103	5.5100e-01	8.9807	23.385543	0.000265	2.651155	0.449118	-0.005303
1104	5.5150e-01	8.9685	23.357748	0.000278	2.779437	0.470849	-0.005559
1105	5.5200e-01	8.9545	23.331663	0.000261	2.608395	0.441874	-0.005217
1106	5.5250e-01	8.9465	23.310709	0.000210	2.095268	0.354948	-0.004191
1107	5.5300e-01	8.9380	23.277782	0.000329	3.292564	0.557775	-0.006585
1108	5.5350e-01	8.9270	23.257256	0.000205	2.052507	0.347704	-0.004105
1109	5.5400e-01	8.9172	23.227322	0.000299	2.993240	0.507069	-0.005987
1110	5.5450e-01	8.9075	23.199099	0.000282	2.822198	0.478093	-0.005645
1111	5.5500e-01	8.9011	23.169593	0.000295	2.950479	0.499825	-0.005901
1112	5.5550e-01	8.8867	23.136238	0.000334	3.335324	0.565019	-0.006671
1113	5.5600e-01	8.8745	23.116567	0.000197	1.966986	0.333216	-0.003934
1114	5.5650e-01	8.8666	23.087061	0.000295	2.950479	0.499825	-0.005901
1115	5.5700e-01	8.8574	23.059265	0.000278	2.779437	0.470849	-0.005559
1116	5.5750e-01	8.8458	23.031897	0.000274	2.736676	0.463606	-0.005474
1117	5.5800e-01	8.8379	23.007950	0.000239	2.394592	0.405655	-0.004789
1118	5.5850e-01	8.8269	22.979727	0.000282	2.822198	0.478093	-0.005645
1119	5.5900e-01	8.8141	22.951076	0.000286	2.864958	0.485337	-0.005730
1120	5.5950e-01	8.8080	22.925846	0.000252	2.522874	0.427386	-0.005046
1121	5.6000e-01	8.7964	22.898051	0.000278	2.779437	0.470849	-0.005559
1122	5.6050e-01	8.7909	22.871538	0.000265	2.651155	0.449118	-0.005303
1123	5.6100e-01	8.7781	22.844597	0.000269	2.693916	0.456362	-0.005388
1124	5.6150e-01	8.7677	22.810815	0.000338	3.378085	0.572263	-0.006756
1125	5.6200e-01	8.7549	22.790717	0.000201	2.009747	0.340460	-0.004020
1126	5.6250e-01	8.7476	22.752658	0.000381	3.805691	0.644701	-0.007612
1127	5.6300e-01	8.7367	22.727000	0.000257	2.565634	0.434630	-0.005132
1128	5.6350e-01	8.7250	22.704764	0.000222	2.223550	0.376680	-0.004447
1129	5.6400e-01	8.7152	22.672692	0.000321	3.207043	0.543288	-0.006414
1130	5.6450e-01	8.7061	22.644041	0.000286	2.864958	0.485337	-0.005730
1131	5.6500e-01	8.6969	22.618811	0.000252	2.522874	0.427386	-0.005046
1132	5.6550e-01	8.6877	22.589733	0.000291	2.907719	0.492581	-0.005816
1133	5.6600e-01	8.6749	22.561937	0.000278	2.779437	0.470849	-0.005559
1134	5.6650e-01	8.6652	22.532003	0.000299	2.993240	0.507069	-0.005987
1135	5.6700e-01	8.6568	22.501642	0.000304	3.036000	0.514312	-0.006072
1136	5.6750e-01	8.6493	22.474274	0.000274	2.736676	0.463606	-0.005474
1137	5.6800e-01	8.6353	22.445195	0.000291	2.907719	0.492581	-0.005816
1138	5.6850e-01	8.6285	22.421676	0.000235	2.351831	0.398411	-0.004704
1139	5.6900e-01	8.6139	22.390887	0.000308	3.078761	0.521556	-0.006158
1140	5.6950e-01	8.6047	22.358387	0.000325	3.249803	0.550532	-0.006500
1141	5.7000e-01	8.5968	22.325888	0.000325	3.249803	0.550532	-0.006500
1142	5.7050e-01	8.5861	22.302369	0.000235	2.351831	0.398411	-0.004704
1143	5.7100e-01	8.5748	22.271152	0.000312	3.121522	0.528800	-0.006243
1144	5.7150e-01	8.5675	22.244639	0.000265	2.651155	0.449118	-0.005303
1145	5.7200e-01	8.5559	22.215988	0.000286	2.864958	0.485337	-0.005730
1146	5.7250e-01	8.5468	22.189048	0.000269	2.693916	0.456362	-0.005388
1147	5.7300e-01	8.5339	22.160397	0.000286	2.864958	0.485337	-0.005730
1148	5.7350e-01	8.5297	22.124049	0.000363	3.634648	0.615726	-0.007270
1149	5.7400e-01	8.5162	22.099674	0.000244	2.437352	0.412899	-0.004875
1150	5.7450e-01	8.5077	22.065892	0.000338	3.378085	0.572263	-0.006756
1151	5.7500e-01	8.4979	22.040234	0.000257	2.565634	0.434630	-0.005132
1152	5.7550e-01	8.4869	22.011583	0.000286	2.864958	0.485337	-0.005730
1153	5.7600e-01	8.4760	21.981650	0.000299	2.993240	0.507069	-0.005987
1154	5.7650e-01	8.4674	21.952999	0.000286	2.864958	0.485337	-0.005730
1155	5.7700e-01	8.4570	21.918789	0.000342	3.420846	0.579507	-0.006842
1156	5.7750e-01	8.4454	21.891848	0.000269	2.693916	0.456362	-0.005388
1157	5.7800e-01	8.4338	21.865336	0.000265	2.651155	0.449118	-0.005303
1158	5.7850e-01	8.4253	21.834547	0.000308	3.078761	0.521556	-0.006158
1159	5.7900e-01	8.4164	21.805468	0.000291	2.907719	0.492581	-0.005816
1160	5.7950e-01	8.4082	21.774251	0.000312	3.121522	0.528800	-0.006243
1161	5.8000e-01	8.3948	21.746028	0.000282	2.822198	0.478093	-0.005645
1162	5.8050e-01	8.3875	21.707542	0.000385	3.848451	0.651945	-0.007697
1163	5.8100e-01	8.3762	21.689154	0.000184	1.838705	0.311485	-0.003678
1164	5.8150e-01	8.3656	21.652806	0.000363	3.634648	0.615726	-0.007270
1165	5.8200e-01	8.3582	21.619451	0.000334	3.335324	0.565019	-0.006671
1166	5.8250e-01	8.3450	21.594221	0.000252	2.522874	0.427386	-0.005046
1167	5.8300e-01	8.3353	21.562577	0.000316	3.164282	0.536044	-0.006329
1168	5.8350e-01	8.3258	21.533071	0.000295	2.950479	0.499825	-0.005901
1169	5.8400e-01	8.3191	21.503992	0.000291	2.907719	0.492581	-0.005816
1170	5.8450e-01	8.3087	21.471493	0.000325	3.249803	0.550532	-0.006500
1171	5.8500e-01	8.2959	21.445835	0.000257	2.565634	0.434630	-0.005132
1172	5.8550e-01	8.2843	21.411198	0.000346	3.463606	0.586751	-0.006928
1173	5.8600e-01	8.2782	21.378698	0.000325	3.249803	0.550532	-0.006500
1174	5.8650e-01	8.2690	21.350902	0.000278	2.779437	0.470849	-0.005559
1175	5.8700e-01	8.2587	21.318830	0.000321	3.207043	0.543288	-0.006414
1176	5.8750e-01	8.2465	21.290607	0.000282	2.822198	0.478093	-0.005645
1177	5.8800e-01	8.2370	21.256825	0.000338	3.378085	0.572263	-0.006756
1178	5.8850e-01	8.2239	21.230312	0.000265	2.651155	0.449118	-0.005303
1179	5.8900e-01	8.2162	21.198240	0.000321	3.207043	0.543288	-0.006414
1180	5.8950e-01	8.2083	21.168306	0.000299	2.993240	0.507069	-0.005987
1181	5.9000e-01	8.2010	21.137090	0.000312	3.121522	0.528800	-0.006243
1182	5.9050e-01	8.1866	21.103735	0.000334	3.335324	0.565019	-0.006671
1183	5.9100e-01	8.1770	21.072518	0.000312	3.121522	0.528800	-0.006243
1184	5.9150e-01	8.1635	21.039591	0.000329	3.292564	0.557775	-0.006585
1185	5.9200e-01	8.1561	21.007947	0.000316	3.164282	0.536044	-0.006329
1186	5.9250e-01	8.1473	20.984855	0.000231	2.309071	0.391167	-0.004618
1187	5.9300e-01	8.1366	20.954494	0.000304	3.036000	0.514312	-0.006072
1188	5.9350e-01	8.1256	20.920284	0.000342	3.420846	0.579507	-0.006842
1189	5.9400e-01	8.1177	20.884363	0.000359	3.591888	0.608482	-0.007184
1190	5.9450e-01	8.1055	20.854429	0.000299	2.993240	0.507069	-0.005987
1191	5.9500e-01	8.0997	20.832193	0.000222	2.223550	0.376680	-0.004447
1192	5.9550e-01	8.0865	20.788147	0.000440	4.404339	0.746115	-0.008809
1193	5.9600e-01	8.0774	20.765483	0.000227	2.266310	0.383923	-0.004533
1194	5.9650e-01	8.0630	20.733411	0.000321	3.207043	0.543288	-0.006414
1195	5.9700e-01	8.0566	20.702195	0.000312	3.121522	0.528800	-0.006243
1196	5.9750e-01	8.0487	20.669695	0.000325	3.249803	0.550532	-0.006500
1197	5.9800e-01	8.0377	20.638479	0.000312	3.121522	0.528800	-0.006243
1198	5.9850e-01	8.0273	20.611111	0.000274	2.736676	0.463606	-0.005474
1199	5.9900e-01	8.0151	20.574762	0.000363	3.634648	0.615726	-0.007270
1200	5.9950e-01	8.0096	20.547394	0.000274	2.736676	0.463606	-0.005474
1201	6.0000e-01	7.9965	20.510191	0.000372	3.720170	0.630214	-0.007441
1202	6.0050e-01	7.9865	20.477692	0.000325	3.249803	0.550532	-0.006500
1203	6.0100e-01	7.9791	20.452034	0.000257	2.565634	0.434630	-0.005132
1204	6.0150e-01	7.9715	20.411837	0.000402	4.019494	0.680921	-0.008039
1205	6.0200e-01	7.9578	20.388318	0.000235	2.351831	0.398411	-0.004704
1206	6.0250e-01	7.9456	20.360095	0.000282	2.822198	0.478093	-0.005645
1207	6.0300e-01	7.9352	20.317760	0.000423	4.233296	0.717140	-0.008467
1208	6.0350e-01	7.9266	20.293385	0.000244	2.437352	0.412899	-0.004875
1209	6.0400e-01	7.9175	20.257037	0.000363	3.634648	0.615726	-0.007270
1210	6.0450e-01	7.9065	20.224537	0.000325	3.249803	0.550532	-0.006500
1211	6.0500e-01	7.8986	20.190327	0.000342	3.420846	0.579507	-0.006842
1212	6.0550e-01	7.8882	20.162104	0.000282	2.822198	0.478093	-0.005645
1213	6.0600e-01	7.8781	20.133881	0.000282	2.822198	0.478093	-0.005645
1214	6.0650e-01	7.8650	20.095395	0.000385	3.848451	0.651945	-0.007697
1215	6.0700e-01	7.8552	20.065033	0.000304	3.036000	0.514312	-0.006072
1216	6.0750e-01	7.8461	20.031251	0.000338	3.378085	0.572263	-0.006756
1217	6.0800e-01	7.8369	20.000034	0.000312	3.121522	0.528800	-0.006243
1218	6.0850e-01	7.8259	19.972666	0.000274	2.736676	0.463606	-0.005474
1219	6.0900e-01	7.8162	19.932897	0.000398	3.976733	0.673677	-0.007954
1220	6.0950e-01	7.8058	19.899542	0.000334	3.335324	0.565019	-0.006671
1221	6.1000e-01	7.7966	19.873029	0.000265	2.651155	0.449118	-0.005303
1222	6.1050e-01	7.7850	19.834543	0.000385	3.848451	0.651945	-0.007697
1223	6.1100e-01	7.7765	19.808030	0.000265	2.651155	0.449118	-0.005303
1224	6.1150e-01	7.7686	19.773393	0.000346	3.463606	0.586751	-0.006928
1225	6.1200e-01	7.7557	19.741748	0.000316	3.164282	0.536044	-0.006329
1226	6.1250e-01	7.7460	19.711387	0.000304	3.036000	0.514312	-0.006072
1227	6.1300e-01	7.7333	19.676322	0.000351	3.506367	0.593995	-0.007013
1228	6.1350e-01	7.7258	19.644250	0.000321	3.207043	0.543288	-0.006414
1229	6.1400e-01	7.7182	19.603198	0.000411	4.105015	0.695408	-0.008210
1230	6.1450e-01	7.7032	19.579678	0.000235	2.351831	0.398411	-0.004704
1231	6.1500e-01	7.6981	19.545896	0.000338	3.378085	0.572263	-0.006756
1232	6.1550e-01	7.6874	19.508693	0.000372	3.720170	0.630214	-0.007441
1233	6.1600e-01	7.6785	19.484318	0.000244	2.437352	0.412899	-0.004875
1234	6.1650e-01	7.6666	19.441983	0.000423	4.233296	0.717140	-0.008467
1235	6.1700e-01	7.6556	19.415898	0.000261	2.608395	0.441874	-0.005217
1236	6.1750e-01	7.6479	19.380405	0.000355	3.549127	0.601238	-0.007099
1237	6.1800e-01	7.6364	19.347050	0.000334	3.335324	0.565019	-0.006671
1238	6.1850e-01	7.6288	19.315406	0.000316	3.164282	0.536044	-0.006329
1239	6.1900e-01	7.6190	19.280341	0.000351	3.506367	0.593995	-0.007013
1240	6.1950e-01	7.6086	19.248269	0.000321	3.207043	0.543288	-0.006414
1241	6.2000e-01	7.5952	19.215769	0.000325	3.249803	0.550532	-0.006500
1242	6.2050e-01	7.5873	19.185408	0.000304	3.036000	0.514312	-0.006072
1243	6.2100e-01	7.5769	19.141790	0.000436	4.361578	0.738871	-0.008724
1244	6.2150e-01	7.5659	19.116988	0.000248	2.480113	0.420143	-0.004960
1245	6.2200e-01	7.5539	19.086627	0.000304	3.036000	0.514312	-0.006072
1246	6.2250e-01	7.5464	19.050278	0.000363	3.634648	0.615726	-0.007270
1247	6.2300e-01	7.5369	19.017779	0.000325	3.249803	0.550532	-0.006500
1248	6.2350e-01	7.5256	18.981003	0.000368	3.677409	0.622970	-0.007355
1249	6.2400e-01	7.5183	18.949786	0.000312	3.121522	0.528800	-0.006243
1250	6.2450e-01	7.5089	18.916859	0.000329	3.292564	0.557775	-0.006585
1251	6.2500e-01	7.4969	18.881366	0.000355	3.549127	0.601238	-0.007099
1252	6.2550e-01	7.4878	18.850150	0.000312	3.121522	0.528800	-0.006243
1253	6.2600e-01	7.4786	18.815512	0.000346	3.463606	0.586751	-0.006928
1254	6.2650e-01	7.4664	18.781730	0.000338	3.378085	0.572263	-0.006756
1255	6.2700e-01	7.4562	18.750513	0.000312	3.121522	0.528800	-0.006243
1256	6.2750e-01	7.4460	18.721007	0.000295	2.950479	0.499825	-0.005901
1257	6.2800e-01	7.4365	18.679955	0.000411	4.105015	0.695408	-0.008210
1258	6.2850e-01	7.4292	18.647883	0.000321	3.207043	0.543288	-0.006414
1259	6.2900e-01	7.4182	18.611962	0.000359	3.591888	0.608482	-0.007184
1260	6.2950e-01	7.4072	18.579035	0.000329	3.292564	0.557775	-0.006585
1261	6.3000e-01	7.3962	18.544398	0.000346	3.463606	0.586751	-0.006928
1262	6.3050e-01	7.3865	18.511043	0.000334	3.335324	0.565019	-0.006671
1263	6.3100e-01	7.3804	18.474695	0.000363	3.634648	0.615726	-0.007270
1264	6.3150e-01	7.3663	18.433215	0.000415	4.147775	0.702652	-0.008296
1265	6.3200e-01	7.3608	18.405847	0.000274	2.736676	0.463606	-0.005474
1266	6.3250e-01	7.3474	18.373348	0.000325	3.249803	0.550532	-0.006500
1267	6.3300e-01	7.3389	18.339138	0.000342	3.420846	0.579507	-0.006842
1268	6.3350e-01	7.3248	18.306638	0.000325	3.249803	0.550532	-0.006500
1269	6.3400e-01	7.3169	18.272000	0.000346	3.463606	0.586751	-0.006928
1270	6.3450e-01	7.3065	18.233942	0.000381	3.805691	0.644701	-0.007612
1271	6.3500e-01	7.2949	18.204436	0.000295	2.950479	0.499825	-0.005901
1272	6.3550e-01	7.2867	18.165949	0.000385	3.848451	0.651945	-0.007697
1273	6.3600e-01	7.2772	18.135588	0.000304	3.036000	0.514312	-0.006072
1274	6.3650e-01	7.2675	18.095819	0.000398	3.976733	0.673677	-0.007954
1275	6.3700e-01	7.2565	18.065885	0.000299	2.993240	0.507069	-0.005987
1276	6.3750e-01	7.2467	18.032530	0.000334	3.335324	0.565019	-0.006671
1277	6.3800e-01	7.2400	17.994899	0.000376	3.762930	0.637458	-0.007526
1278	6.3850e-01	7.2272	17.967959	0.000269	2.693916	0.456362	-0.005388
1279	6.3900e-01	7.2192	17.929045	0.000389	3.891212	0.659189	-0.007783
1280	6.3950e-01	7.2076	17.893124	0.000359	3.591888	0.608482	-0.007184
1281	6.4000e-01	7.1997	17.858059	0.000351	3.506367	0.593995	-0.007013
1282	6.4050e-01	7.1869	17.825560	0.000325	3.249803	0.550532	-0.006500
1283	6.4100e-01	7.1786	17.788356	0.000372	3.720170	0.630214	-0.007441
1284	6.4150e-01	7.1669	17.756284	0.000321	3.207043	0.543288	-0.006414
1285	6.4200e-01	7.1521	17.725068	0.000312	3.121522	0.528800	-0.006243
1286	6.4250e-01	7.1466	17.685726	0.000393	3.933972	0.666433	-0.007868
1287	6.4300e-01	7.1368	17.649378	0.000363	3.634648	0.615726	-0.007270
1288	6.4350e-01	7.1283	17.617306	0.000321	3.207043	0.543288	-0.006414
1289	6.4400e-01	7.1173	17.580958	0.000363	3.634648	0.615726	-0.007270
1290	6.4450e-01	7.1071	17.550597	0.000304	3.036000	0.514312	-0.006072
1291	6.4500e-01	7.0984	17.508689	0.000419	4.190536	0.709896	-0.008381
1292	6.4550e-01	7.0886	17.479611	0.000291	2.907719	0.492581	-0.005816
1293	6.4600e-01	7.0758	17.442835	0.000368	3.677409	0.622970	-0.007355
1294	6.4650e-01	7.0663	17.402211	0.000406	4.062254	0.688164	-0.008125
1295	6.4700e-01	7.0628	17.363297	0.000389	3.891212	0.659189	-0.007783
1296	6.4750e-01	7.0483	17.337639	0.000257	2.565634	0.434630	-0.005132
1297	6.4800e-01	7.0361	17.296587	0.000411	4.105015	0.695408	-0.008210
1298	6.4850e-01	7.0258	17.261094	0.000355	3.549127	0.601238	-0.007099
1299	6.4900e-01	7.0166	17.227312	0.000338	3.378085	0.572263	-0.006756
1300	6.4950e-01	7.0056	17.195240	0.000321	3.207043	0.543288	-0.006414
1301	6.5000e-01	6.9952	17.156326	0.000389	3.891212	0.659189	-0.007783
1302	6.5050e-01	6.9873	17.119978	0.000363	3.634648	0.615726	-0.007270
1303	6.5100e-01	6.9769	17.085340	0.000346	3.463606	0.586751	-0.006928
1304	6.5150e-01	6.9684	17.050275	0.000351	3.506367	0.593995	-0.007013
1305	6.5200e-01	6.9574	17.014354	0.000359	3.591888	0.608482	-0.007184
1306	6.5250e-01	6.9452	16.980572	0.000338	3.378085	0.572263	-0.006756
1307	6.5300e-01	6.9366	16.947645	0.000329	3.292564	0.557775	-0.006585
1308	6.5350e-01	6.9263	16.908731	0.000389	3.891212	0.659189	-0.007783
1309	6.5400e-01	6.9156	16.874093	0.000346	3.463606	0.586751	-0.006928
1310	6.5450e-01	6.9080	16.835179	0.000389	3.891212	0.659189	-0.007783
1311	6.5500e-01	6.8970	16.801825	0.000334	3.335324	0.565019	-0.006671
1312	6.5550e-01	6.8854	16.759917	0.000419	4.190536	0.709896	-0.008381
1313	6.5600e-01	6.8781	16.726563	0.000334	3.335324	0.565019	-0.006671
1314	6.5650e-01	6.8689	16.688932	0.000376	3.762930	0.637458	-0.007526
1315	6.5700e-01	6.8549	16.654294	0.000346	3.463606	0.586751	-0.006928
1316	6.5750e-01	6.8488	16.623505	0.000308	3.078761	0.521556	-0.006158
1317	6.5800e-01	6.8390	16.585019	0.000385	3.848451	0.651945	-0.007697
1318	6.5850e-01	6.8274	16.554230	0.000308	3.078761	0.521556	-0.006158
1319	6.5900e-01	6.8182	16.508474	0.000458	4.575381	0.775091	-0.009151
1320	6.5950e-01	6.8066	16.478112	0.000304	3.036000	0.514312	-0.006072
1321	6.6000e-01	6.7999	16.443047	0.000351	3.506367	0.593995	-0.007013
1322	6.6050e-01	6.7883	16.401995	0.000411	4.105015	0.695408	-0.008210
1323	6.6100e-01	6.7755	16.370351	0.000316	3.164282	0.536044	-0.006329
1324	6.6150e-01	6.7682	16.331864	0.000385	3.848451	0.651945	-0.007697
1325	6.6200e-01	6.7584	16.292951	0.000389	3.891212	0.659189	-0.007783
1326	6.6250e-01	6.7465	16.259596	0.000334	3.335324	0.565019	-0.006671
1327	6.6300e-01	6.7371	16.224103	0.000355	3.549127	0.601238	-0.007099
1328	6.6350e-01	6.7267	16.186472	0.000376	3.762930	0.637458	-0.007526
1329	6.6400e-01	6.7181	16.150551	0.000359	3.591888	0.608482	-0.007184
1330	6.6450e-01	6.7075	16.112920	0.000376	3.762930	0.637458	-0.007526
1331	6.6500e-01	6.6986	16.076145	0.000368	3.677409	0.622970	-0.007355
1332	6.6550e-01	6.6864	16.039796	0.000363	3.634648	0.615726	-0.007270
1333	6.6600e-01	6.6763	16.002593	0.000372	3.720170	0.630214	-0.007441
1334	6.6650e-01	6.6675	15.961969	0.000406	4.062254	0.688164	-0.008125
1335	6.6700e-01	6.6602	15.933745	0.000282	2.822198	0.478093	-0.005645
1336	6.6750e-01	6.6443	15.899108	0.000346	3.463606	0.586751	-0.006928
1337	6.6800e-01	6.6345	15.861049	0.000381	3.805691	0.644701	-0.007612
1338	6.6850e-01	6.6281	15.818714	0.000423	4.233296	0.717140	-0.008467
1339	6.6900e-01	6.6193	15.784932	0.000338	3.378085	0.572263	-0.006756
1340	6.6950e-01	6.6071	15.752005	0.000329	3.292564	0.557775	-0.006585
1341	6.7000e-01	6.5968	15.713091	0.000389	3.891212	0.659189	-0.007783
1342	6.7050e-01	6.5854	15.678025	0.000351	3.506367	0.593995	-0.007013
1343	6.7100e-01	6.5781	15.639112	0.000389	3.891212	0.659189	-0.007783
1344	6.7150e-01	6.5662	15.607040	0.000321	3.207043	0.543288	-0.006414
1345	6.7200e-01	6.5564	15.565560	0.000415	4.147775	0.702652	-0.008296
1346	6.7250e-01	6.5469	15.532205	0.000334	3.335324	0.565019	-0.006671
1347	6.7300e-01	6.5366	15.492008	0.000402	4.019494	0.680921	-0.008039
1348	6.7350e-01	6.5289	15.454377	0.000376	3.762930	0.637458	-0.007526
1349	6.7400e-01	6.5179	15.421023	0.000334	3.335324	0.565019	-0.006671
1350	6.7450e-01	6.5082	15.379543	0.000415	4.147775	0.702652	-0.008296
1351	6.7500e-01	6.4984	15.346188	0.000334	3.335324	0.565019	-0.006671
1352	6.7550e-01	6.4871	15.308985	0.000372	3.720170	0.630214	-0.007441
1353	6.7600e-01	6.4758	15.267078	0.000419	4.190536	0.709896	-0.008381
1354	6.7650e-01	6.4679	15.230729	0.000363	3.634648	0.615726	-0.007270
1355	6.7700e-01	6.4563	15.199513	0.000312	3.121522	0.528800	-0.006243
1356	6.7750e-01	6.4450	15.148625	0.000509	5.088508	0.862017	-0.010177
1357	6.7800e-01	6.4386	15.121257	0.000274	2.736676	0.463606	-0.005474
1358	6.7850e-01	6.4276	15.075074	0.000462	4.618142	0.782334	-0.009237
1359	6.7900e-01	6.4178	15.044285	0.000308	3.078761	0.521556	-0.006158
1360	6.7950e-01	6.4069	15.006226	0.000381	3.805691	0.644701	-0.007612
1361	6.8000e-01	6.3977	14.967312	0.000389	3.891212	0.659189	-0.007783
1362	6.8050e-01	6.3857	14.931392	0.000359	3.591888	0.608482	-0.007184
1363	6.8100e-01	6.3795	14.892478	0.000389	3.891212	0.659189	-0.007783
1364	6.8150e-01	6.3666	14.859551	0.000329	3.292564	0.557775	-0.006585
1365	6.8200e-01	6.3577	14.817216	0.000423	4.233296	0.717140	-0.008467
1366	6.8250e-01	6.3483	14.782150	0.000351	3.506367	0.593995	-0.007013
1367	6.8300e-01	6.3364	14.747940	0.000342	3.420846	0.579507	-0.006842
1368	6.8350e-01	6.3269	14.708171	0.000398	3.976733	0.673677	-0.007954
1369	6.8400e-01	6.3162	14.667975	0.000402	4.019494	0.680921	-0.008039
1370	6.8450e-01	6.3068	14.627778	0.000402	4.019494	0.680921	-0.008039
1371	6.8500e-01	6.2964	14.594423	0.000334	3.335324	0.565019	-0.006671
1372	6.8550e-01	6.2875	14.552516	0.000419	4.190536	0.709896	-0.008381
1373	6.8600e-01	6.2762	14.522582	0.000299	2.993240	0.507069	-0.005987
1374	6.8650e-01	6.2677	14.484096	0.000385	3.848451	0.651945	-0.007697
1375	6.8700e-01	6.2555	14.447320	0.000368	3.677409	0.622970	-0.007355
1376	6.8750e-01	6.2479	14.404557	0.000428	4.276057	0.724384	-0.008553
1377	6.8800e-01	6.2360	14.364361	0.000402	4.019494	0.680921	-0.008039
1378	6.8850e-01	6.2268	14.334427	0.000299	2.993240	0.507069	-0.005987
1379	6.8900e-01	6.2183	14.291664	0.000428	4.276057	0.724384	-0.008553
1380	6.8950e-01	6.2103	14.254461	0.000372	3.720170	0.630214	-0.007441
1381	6.9000e-01	6.1969	14.219823	0.000346	3.463606	0.586751	-0.006928
1382	6.9050e-01	6.1853	14.177488	0.000423	4.233296	0.717140	-0.008467
1383	6.9100e-01	6.1783	14.141140	0.000363	3.634648	0.615726	-0.007270
1384	6.9150e-01	6.1676	14.099233	0.000419	4.190536	0.709896	-0.008381
1385	6.9200e-01	6.1546	14.062030	0.000372	3.720170	0.630214	-0.007441
1386	6.9250e-01	6.1439	14.022688	0.000393	3.933972	0.666433	-0.007868
1387	6.9300e-01	6.1328	13.986340	0.000363	3.634648	0.615726	-0.007270
1388	6.9350e-01	6.1267	13.949564	0.000368	3.677409	0.622970	-0.007355
1389	6.9400e-01	6.1176	13.908084	0.000415	4.147775	0.702652	-0.008296
1390	6.9450e-01	6.1075	13.869171	0.000389	3.891212	0.659189	-0.007783
1391	6.9500e-01	6.0974	13.834105	0.000351	3.506367	0.593995	-0.007013
1392	6.9550e-01	6.0889	13.793053	0.000411	4.105015	0.695408	-0.008210
1393	6.9600e-01	6.0760	13.755850	0.000372	3.720170	0.630214	-0.007441
1394	6.9650e-01	6.0675	13.719929	0.000359	3.591888	0.608482	-0.007184
1395	6.9700e-01	6.0596	13.675884	0.000440	4.404339	0.746115	-0.008809
1396	6.9750e-01	6.0471	13.641674	0.000342	3.420846	0.579507	-0.006842
1397	6.9800e-01	6.0339	13.604043	0.000376	3.762930	0.637458	-0.007526
1398	6.9850e-01	6.0297	13.566839	0.000372	3.720170	0.630214	-0.007441
1399	6.9900e-01	6.0156	13.524077	0.000428	4.276057	0.724384	-0.008553
1400	6.9950e-01	6.0049	13.484308	0.000398	3.976733	0.673677	-0.007954
1401	7.0000e-01	5.9958	13.447960	0.000363	3.634648	0.615726	-0.007270
1402	7.0050e-01	5.9848	13.403487	0.000445	4.447099	0.753359	-0.008895
1403	7.0100e-01	5.9779	13.371415	0.000321	3.207043	0.543288	-0.006414
1404	7.0150e-01	5.9668	13.326086	0.000453	4.532620	0.767847	-0.009066
1405	7.0200e-01	5.9583	13.292732	0.000334	3.335324	0.565019	-0.006671
1406	7.0250e-01	5.9479	13.261087	0.000316	3.164282	0.536044	-0.006329
1407	7.0300e-01	5.9369	13.217042	0.000440	4.404339	0.746115	-0.008809
1408	7.0350e-01	5.9259	13.179411	0.000376	3.762930	0.637458	-0.007526
1409	7.0400e-01	5.9167	13.139642	0.000398	3.976733	0.673677	-0.007954
1410	7.0450e-01	5.9052	13.098162	0.000415	4.147775	0.702652	-0.008296
1411	7.0500e-01	5.8981	13.058821	0.000393	3.933972	0.666433	-0.007868
1412	7.0550e-01	5.8865	13.020762	0.000381	3.805691	0.644701	-0.007612
1413	7.0600e-01	5.8777	12.978855	0.000419	4.190536	0.709896	-0.008381
1414	7.0650e-01	5.8670	12.941224	0.000376	3.762930	0.637458	-0.007526
1415	7.0700e-01	5.8553	12.900172	0.000411	4.105015	0.695408	-0.008210
1416	7.0750e-01	5.8472	12.860830	0.000393	3.933972	0.666433	-0.007868
1417	7.0800e-01	5.8388	12.821489	0.000393	3.933972	0.666433	-0.007868
1418	7.0850e-01	5.8261	12.783002	0.000385	3.848451	0.651945	-0.007697
1419	7.0900e-01	5.8209	12.745371	0.000376	3.762930	0.637458	-0.007526
1420	7.0950e-01	5.8054	12.703036	0.000423	4.233296	0.717140	-0.008467
1421	7.1000e-01	5.7964	12.661984	0.000411	4.105015	0.695408	-0.008210
1422	7.1050e-01	5.7863	12.626919	0.000351	3.506367	0.593995	-0.007013
1423	7.1100e-01	5.7758	12.586722	0.000402	4.019494	0.680921	-0.008039
1424	7.1150e-01	5.7654	12.552940	0.000338	3.378085	0.572263	-0.006756
1425	7.1200e-01	5.7588	12.508895	0.000440	4.404339	0.746115	-0.008809
1426	7.1250e-01	5.7452	12.466987	0.000419	4.190536	0.709896	-0.008381
1427	7.1300e-01	5.7367	12.430639	0.000363	3.634648	0.615726	-0.007270
1428	7.1350e-01	5.7245	12.394291	0.000363	3.634648	0.615726	-0.007270
1429	7.1400e-01	5.7172	12.347680	0.000466	4.660902	0.789578	-0.009322
1430	7.1450e-01	5.7083	12.301924	0.000458	4.575381	0.775091	-0.009151
1431	7.1500e-01	5.6961	12.275839	0.000261	2.608395	0.441874	-0.005217
1432	7.1550e-01	5.6917	12.229228	0.000466	4.660902	0.789578	-0.009322
1433	7.1600e-01	5.6757	12.187748	0.000415	4.147775	0.702652	-0.008296
1434	7.1650e-01	5.6630	12.147979	0.000398	3.976733	0.673677	-0.007954
1435	7.1700e-01	5.6568	12.109493	0.000385	3.848451	0.651945	-0.007697
1436	7.1750e-01	5.6473	12.066730	0.000428	4.276057	0.724384	-0.008553
1437	7.1800e-01	5.6375	12.026533	0.000402	4.019494	0.680921	-0.008039
1438	7.1850e-01	5.6268	11.988902	0.000376	3.762930	0.637458	-0.007526
1439	7.1900e-01	5.6180	11.949988	0.000389	3.891212	0.659189	-0.007783
1440	7.1950e-01	5.6076	11.908509	0.000415	4.147775	0.702652	-0.008296
1441	7.2000e-01	5.6000	11.866601	0.000419	4.190536	0.709896	-0.008381
1442	7.2050e-01	5.5865	11.829398	0.000372	3.720170	0.630214	-0.007441
1443	7.2100e-01	5.5768	11.789201	0.000402	4.019494	0.680921	-0.008039
1444	7.2150e-01	5.5688	11.743018	0.000462	4.618142	0.782334	-0.009237
1445	7.2200e-01	5.5579	11.703676	0.000393	3.933972	0.666433	-0.007868
1446	7.2250e-01	5.5444	11.650651	0.000530	5.302311	0.898236	-0.010605
1447	7.2300e-01	5.5379	11.621572	0.000291	2.907719	0.492581	-0.005816
1448	7.2350e-01	5.5298	11.584796	0.000368	3.677409	0.622970	-0.007355
1449	7.2400e-01	5.5170	11.538613	0.000462	4.618142	0.782334	-0.009237
1450	7.2450e-01	5.5078	11.495850	0.000428	4.276057	0.724384	-0.008553
1451	7.2500e-01	5.5008	11.459502	0.000363	3.634648	0.615726	-0.007270
1452	7.2550e-01	5.4834	11.427430	0.000321	3.207043	0.543288	-0.006414
1453	7.2600e-01	5.4758	11.376970	0.000505	5.045747	0.854773	-0.010092
1454	7.2650e-01	5.4654	11.342333	0.000346	3.463606	0.586751	-0.006928
1455	7.2700e-01	5.4553	11.299143	0.000432	4.318818	0.731628	-0.008638
1456	7.2750e-01	5.4443	11.263222	0.000359	3.591888	0.608482	-0.007184
1457	7.2800e-01	5.4370	11.223881	0.000393	3.933972	0.666433	-0.007868
1458	7.2850e-01	5.4272	11.179408	0.000445	4.447099	0.753359	-0.008895
1459	7.2900e-01	5.4138	11.137073	0.000423	4.233296	0.717140	-0.008467
1460	7.2950e-01	5.4068	11.093027	0.000440	4.404339	0.746115	-0.008809
1461	7.3000e-01	5.3964	11.056679	0.000363	3.634648	0.615726	-0.007270
1462	7.3050e-01	5.3864	11.016055	0.000406	4.062254	0.688164	-0.008125
1463	7.3100e-01	5.3766	10.972865	0.000432	4.318818	0.731628	-0.008638
1464	7.3150e-01	5.3659	10.928392	0.000445	4.447099	0.753359	-0.008895
1465	7.3200e-01	5.3555	10.890333	0.000381	3.805691	0.644701	-0.007612
1466	7.3250e-01	5.3468	10.846715	0.000436	4.361578	0.738871	-0.008724
1467	7.3300e-01	5.3357	10.809939	0.000368	3.677409	0.622970	-0.007355
1468	7.3350e-01	5.3281	10.762045	0.000479	4.789184	0.811310	-0.009579
1469	7.3400e-01	5.3174	10.726125	0.000359	3.591888	0.608482	-0.007184
1470	7.3450e-01	5.3082	10.682507	0.000436	4.361578	0.738871	-0.008724
1471	7.3500e-01	5.2972	10.641455	0.000411	4.105015	0.695408	-0.008210
1472	7.3550e-01	5.2869	10.594844	0.000466	4.660902	0.789578	-0.009322
1473	7.3600e-01	5.2785	10.556785	0.000381	3.805691	0.644701	-0.007612
1474	7.3650e-01	5.2664	10.518727	0.000381	3.805691	0.644701	-0.007612
1475	7.3700e-01	5.2570	10.475964	0.000428	4.276057	0.724384	-0.008553
1476	7.3750e-01	5.2457	10.429353	0.000466	4.660902	0.789578	-0.009322
1477	7.3800e-01	5.2374	10.388728	0.000406	4.062254	0.688164	-0.008125
1478	7.3850e-01	5.2274	10.349815	0.000389	3.891212	0.659189	-0.007783
1479	7.3900e-01	5.2187	10.307480	0.000423	4.233296	0.717140	-0.008467
1480	7.3950e-01	5.2063	10.260013	0.000475	4.746423	0.804066	-0.009493
1481	7.4000e-01	5.1959	10.225803	0.000342	3.420846	0.579507	-0.006842
1482	7.4050e-01	5.1886	10.178764	0.000470	4.703663	0.796822	-0.009408
1483	7.4100e-01	5.1764	10.141561	0.000372	3.720170	0.630214	-0.007441
1484	7.4150e-01	5.1663	10.101792	0.000398	3.976733	0.673677	-0.007954
1485	7.4200e-01	5.1578	10.060740	0.000411	4.105015	0.695408	-0.008210
1486	7.4250e-01	5.1479	10.017122	0.000436	4.361578	0.738871	-0.008724
1487	7.4300e-01	5.1380	9.973504	0.000436	4.361578	0.738871	-0.008724
1488	7.4350e-01	5.1276	9.933735	0.000398	3.976733	0.673677	-0.007954
1489	7.4400e-01	5.1202	9.890973	0.000428	4.276057	0.724384	-0.008553
1490	7.4450e-01	5.1062	9.846072	0.000449	4.489860	0.760603	-0.008980
1491	7.4500e-01	5.0977	9.809296	0.000368	3.677409	0.622970	-0.007355
1492	7.4550e-01	5.0891	9.760975	0.000483	4.831944	0.818554	-0.009664
1493	7.4600e-01	5.0763	9.719922	0.000411	4.105015	0.695408	-0.008210
1494	7.4650e-01	5.0667	9.686140	0.000338	3.378085	0.572263	-0.006756
1495	7.4700e-01	5.0574	9.638674	0.000475	4.746423	0.804066	-0.009493
1496	7.4750e-01	5.0488	9.590352	0.000483	4.831944	0.818554	-0.009664
1497	7.4800e-01	5.0354	9.550155	0.000402	4.019494	0.680921	-0.008039
1498	7.4850e-01	5.0299	9.506537	0.000436	4.361578	0.738871	-0.008724
1499	7.4900e-01	5.0208	9.466341	0.000402	4.019494	0.680921	-0.008039
1500	7.4950e-01	5.0061	9.424861	0.000415	4.147775	0.702652	-0.008296
1501	7.5000e-01	4.9945	9.387658	0.000372	3.720170	0.630214	-0.007441
1502	7.5050e-01	4.9878	9.342757	0.000449	4.489860	0.760603	-0.008980
1503	7.5100e-01	4.9753	9.299567	0.000432	4.318818	0.731628	-0.008638
1504	7.5150e-01	4.9673	9.258515	0.000411	4.105015	0.695408	-0.008210
1505	7.5200e-01	4.9573	9.214469	0.000440	4.404339	0.746115	-0.008809
1506	7.5250e-01	4.9469	9.169141	0.000453	4.532620	0.767847	-0.009066
1507	7.5300e-01	4.9355	9.125951	0.000432	4.318818	0.731628	-0.008638
1508	7.5350e-01	4.9243	9.085327	0.000406	4.062254	0.688164	-0.008125
1509	7.5400e-01	4.9173	9.043847	0.000415	4.147775	0.702652	-0.008296
1510	7.5450e-01	4.9072	8.999374	0.000445	4.447099	0.753359	-0.008895
1511	7.5500e-01	4.8965	8.954046	0.000453	4.532620	0.767847	-0.009066
1512	7.5550e-01	4.8871	8.906152	0.000479	4.789184	0.811310	-0.009579
1513	7.5600e-01	4.8770	8.868521	0.000376	3.762930	0.637458	-0.007526
1514	7.5650e-01	4.8640	8.829179	0.000393	3.933972	0.666433	-0.007868
1515	7.5700e-01	4.8566	8.788127	0.000411	4.105015	0.695408	-0.008210
1516	7.5750e-01	4.8462	8.743226	0.000449	4.489860	0.760603	-0.008980
1517	7.5800e-01	4.8364	8.697043	0.000462	4.618142	0.782334	-0.009237
1518	7.5850e-01	4.8232	8.653853	0.000432	4.318818	0.731628	-0.008638
1519	7.5900e-01	4.8169	8.612373	0.000415	4.147775	0.702652	-0.008296
1520	7.5950e-01	4.8071	8.565334	0.000470	4.703663	0.796822	-0.009408
1521	7.6000e-01	4.7945	8.523427	0.000419	4.190536	0.709896	-0.008381
1522	7.6050e-01	4.7882	8.478099	0.000453	4.532620	0.767847	-0.009066
1523	7.6100e-01	4.7781	8.440468	0.000376	3.762930	0.637458	-0.007526
1524	7.6150e-01	4.7699	8.394284	0.000462	4.618142	0.782334	-0.009237
1525	7.6200e-01	4.7581	8.350239	0.000440	4.404339	0.746115	-0.008809
1526	7.6250e-01	4.7482	8.307049	0.000432	4.318818	0.731628	-0.008638
1527	7.6300e-01	4.7389	8.255734	0.000513	5.131268	0.869260	-0.010263
1528	7.6350e-01	4.7269	8.218958	0.000368	3.677409	0.622970	-0.007355
1529	7.6400e-01	4.7189	8.179189	0.000398	3.976733	0.673677	-0.007954
1530	7.6450e-01	4.7089	8.134288	0.000449	4.489860	0.760603	-0.008980
1531	7.6500e-01	4.6967	8.088960	0.000453	4.532620	0.767847	-0.009066
1532	7.6550e-01	4.6887	8.043631	0.000453	4.532620	0.767847	-0.009066
1533	7.6600e-01	4.6763	8.001297	0.000423	4.233296	0.717140	-0.008467
1534	7.6650e-01	4.6683	7.961100	0.000402	4.019494	0.680921	-0.008039
1535	7.6700e-01	4.6547	7.914489	0.000466	4.660902	0.789578	-0.009322
1536	7.6750e-01	4.6449	7.873437	0.000411	4.105015	0.695408	-0.008210
1537	7.6800e-01	4.6375	7.831102	0.000423	4.233296	0.717140	-0.008467
1538	7.6850e-01	4.6277	7.776793	0.000543	5.430592	0.919967	-0.010862
1539	7.6900e-01	4.6169	7.740017	0.000368	3.677409	0.622970	-0.007355
1540	7.6950e-01	4.6054	7.694262	0.000458	4.575381	0.775091	-0.009151
1541	7.7000e-01	4.5967	7.648078	0.000462	4.618142	0.782334	-0.009237
1542	7.7050e-01	4.5868	7.606598	0.000415	4.147775	0.702652	-0.008296
1543	7.7100e-01	4.5776	7.560842	0.000458	4.575381	0.775091	-0.009151
1544	7.7150e-01	4.5660	7.521501	0.000393	3.933972	0.666433	-0.007868
1545	7.7200e-01	4.5575	7.472324	0.000492	4.917466	0.833041	-0.009835
1546	7.7250e-01	4.5438	7.426996	0.000453	4.532620	0.767847	-0.009066
1547	7.7300e-01	4.5378	7.382950	0.000440	4.404339	0.746115	-0.008809
1548	7.7350e-01	4.5264	7.339333	0.000436	4.361578	0.738871	-0.008724
1549	7.7400e-01	4.5175	7.296998	0.000423	4.233296	0.717140	-0.008467
1550	7.7450e-01	4.5039	7.249104	0.000479	4.789184	0.811310	-0.009579
1551	7.7500e-01	4.4958	7.208479	0.000406	4.062254	0.688164	-0.008125
1552	7.7550e-01	4.4867	7.159302	0.000492	4.917466	0.833041	-0.009835
1553	7.7600e-01	4.4781	7.111836	0.000475	4.746423	0.804066	-0.009493
1554	7.7650e-01	4.4678	7.070784	0.000411	4.105015	0.695408	-0.008210
1555	7.7700e-01	4.4557	7.025028	0.000458	4.575381	0.775091	-0.009151
1556	7.7750e-01	4.4440	6.983976	0.000411	4.105015	0.695408	-0.008210
1557	7.7800e-01	4.4351	6.940358	0.000436	4.361578	0.738871	-0.008724
1558	7.7850e-01	4.4272	6.891609	0.000487	4.874705	0.825797	-0.009750
1559	7.7900e-01	4.4156	6.846281	0.000453	4.532620	0.767847	-0.009066
1560	7.7950e-01	4.4034	6.803518	0.000428	4.276057	0.724384	-0.008553
1561	7.8000e-01	4.3978	6.756052	0.000475	4.746423	0.804066	-0.009493
1562	7.8050e-01	4.3866	6.712862	0.000432	4.318818	0.731628	-0.008638
1563	7.8100e-01	4.3777	6.667961	0.000449	4.489860	0.760603	-0.008980
1564	7.8150e-01	4.3673	6.624343	0.000436	4.361578	0.738871	-0.008724
1565	7.8200e-01	4.3561	6.576449	0.000479	4.789184	0.811310	-0.009579
1566	7.8250e-01	4.3464	6.526845	0.000496	4.960226	0.840285	-0.009921
1567	7.8300e-01	4.3373	6.482799	0.000440	4.404339	0.746115	-0.008809
1568	7.8350e-01	4.3274	6.435760	0.000470	4.703663	0.796822	-0.009408
1569	7.8400e-01	4.3152	6.394281	0.000415	4.147775	0.702652	-0.008296
1570	7.8450e-01	4.3086	6.345104	0.000492	4.917466	0.833041	-0.009835
1571	7.8500e-01	4.2976	6.298920	0.000462	4.618142	0.782334	-0.009237
1572	7.8550e-01	4.2859	6.254875	0.000440	4.404339	0.746115	-0.008809
1573	7.8600e-01	4.2786	6.213395	0.000415	4.147775	0.702652	-0.008296
1574	7.8650e-01	4.2670	6.169777	0.000436	4.361578	0.738871	-0.008724
1575	7.8700e-01	4.2572	6.122311	0.000475	4.746423	0.804066	-0.009493
1576	7.8750e-01	4.2456	6.074417	0.000479	4.789184	0.811310	-0.009579
1577	7.8800e-01	4.2387	6.029089	0.000453	4.532620	0.767847	-0.009066
1578	7.8850e-01	4.2238	5.988464	0.000406	4.062254	0.688164	-0.008125
1579	7.8900e-01	4.2146	5.940998	0.000475	4.746423	0.804066	-0.009493
1580	7.8950e-01	4.2084	5.888400	0.000526	5.259550	0.890992	-0.010520
1581	7.9000e-01	4.1992	5.849059	0.000393	3.933972	0.666433	-0.007868
1582	7.9050e-01	4.1879	5.799882	0.000492	4.917466	0.833041	-0.009835
1583	7.9100e-01	4.1782	5.754981	0.000449	4.489860	0.760603	-0.008980
1584	7.9150e-01	4.1669	5.710508	0.000445	4.447099	0.753359	-0.008895
1585	7.9200e-01	4.1565	5.660903	0.000496	4.960226	0.840285	-0.009921
1586	7.9250e-01	4.1470	5.611299	0.000496	4.960226	0.840285	-0.009921
1587	7.9300e-01	4.1367	5.571957	0.000393	3.933972	0.666433	-0.007868
1588	7.9350e-01	4.1245	5.527484	0.000445	4.447099	0.753359	-0.008895
1589	7.9400e-01	4.1183	5.480018	0.000475	4.746423	0.804066	-0.009493
1590	7.9450e-01	4.1046	5.432124	0.000479	4.789184	0.811310	-0.009579
1591	7.9500e-01	4.1003	5.387223	0.000449	4.489860	0.760603	-0.008980
1592	7.9550e-01	4.0857	5.342323	0.000449	4.489860	0.760603	-0.008980
1593	7.9600e-01	4.0771	5.292290	0.000500	5.002987	0.847529	-0.010006
1594	7.9650e-01	4.0649	5.246962	0.000453	4.532620	0.767847	-0.009066
1595	7.9700e-01	4.0558	5.198213	0.000487	4.874705	0.825797	-0.009750
1596	7.9750e-01	4.0517	5.150319	0.000479	4.789184	0.811310	-0.009579
1597	7.9800e-01	4.0356	5.109694	0.000406	4.062254	0.688164	-0.008125
1598	7.9850e-01	4.0265	5.064794	0.000449	4.489860	0.760603	-0.008980
1599	7.9900e-01	4.0210	5.007920	0.000569	5.687156	0.963430	-0.011375
1600	7.9950e-01	4.0071	4.968578	0.000393	3.933972	0.666433	-0.007868
1601	8.0000e-01	3.9978	4.919401	0.000492	4.917466	0.833041	-0.009835
1602	8.0050e-01	3.9844	4.878349	0.000411	4.105015	0.695408	-0.008210
1603	8.0100e-01	3.9760	4.826179	0.000522	5.216790	0.883748	-0.010434
1604	8.0150e-01	3.9667	4.782989	0.000432	4.318818	0.731628	-0.008638
1605	8.0200e-01	3.9589	4.732529	0.000505	5.045747	0.854773	-0.010092
1606	8.0250e-01	3.9478	4.686345	0.000462	4.618142	0.782334	-0.009237
1607	8.0300e-01	3.9362	4.645293	0.000411	4.105015	0.695408	-0.008210
1608	8.0350e-01	3.9276	4.596544	0.000487	4.874705	0.825797	-0.009750
1609	8.0400e-01	3.9185	4.544374	0.000522	5.216790	0.883748	-0.010434
1610	8.0450e-01	3.9069	4.508453	0.000359	3.591888	0.608482	-0.007184
1611	8.0500e-01	3.8954	4.449013	0.000594	5.943719	1.006893	-0.011888
1612	8.0550e-01	3.8873	4.407106	0.000419	4.190536	0.709896	-0.008381
1613	8.0600e-01	3.8745	4.360495	0.000466	4.660902	0.789578	-0.009322
1614	8.0650e-01	3.8660	4.306614	0.000539	5.387832	0.912723	-0.010776
1615	8.0700e-01	3.8544	4.261713	0.000449	4.489860	0.760603	-0.008980
1616	8.0750e-01	3.8460	4.210398	0.000513	5.131268	0.869260	-0.010263
1617	8.0800e-01	3.8362	4.165925	0.000445	4.447099	0.753359	-0.008895
1618	8.0850e-01	3.8260	4.114183	0.000517	5.174029	0.876504	-0.010349
1619	8.0900e-01	3.8194	4.069282	0.000449	4.489860	0.760603	-0.008980
1620	8.0950e-01	3.8065	4.025664	0.000436	4.361578	0.738871	-0.008724
1621	8.1000e-01	3.7953	3.979481	0.000462	4.618142	0.782334	-0.009237
1622	8.1050e-01	3.7885	3.935863	0.000436	4.361578	0.738871	-0.008724
1623	8.1100e-01	3.7744	3.882410	0.000535	5.345071	0.905480	-0.010691
1624	8.1150e-01	3.7671	3.832378	0.000500	5.002987	0.847529	-0.010006
1625	8.1200e-01	3.7576	3.788760	0.000436	4.361578	0.738871	-0.008724
1626	8.1250e-01	3.7445	3.737445	0.000513	5.131268	0.869260	-0.010263
1627	8.1300e-01	3.7387	3.688696	0.000487	4.874705	0.825797	-0.009750
1628	8.1350e-01	3.7305	3.648926	0.000398	3.976733	0.673677	-0.007954
1629	8.1400e-01	3.7154	3.593763	0.000552	5.516114	0.934455	-0.011033
1630	8.1450e-01	3.7068	3.546296	0.000475	4.746423	0.804066	-0.009493
1631	8.1500e-01	3.6987	3.495409	0.000509	5.088508	0.862017	-0.010177
1632	8.1550e-01	3.6835	3.456495	0.000389	3.891212	0.659189	-0.007783
1633	8.1600e-01	3.6777	3.403470	0.000530	5.302311	0.898236	-0.010605
1634	8.1650e-01	3.6667	3.355576	0.000479	4.789184	0.811310	-0.009579
1635	8.1700e-01	3.6578	3.307681	0.000479	4.789184	0.811310	-0.009579
1636	8.1750e-01	3.6484	3.253373	0.000543	5.430592	0.919967	-0.010862
1637	8.1800e-01	3.6371	3.210183	0.000432	4.318818	0.731628	-0.008638
1638	8.1850e-01	3.6246	3.160151	0.000500	5.002987	0.847529	-0.010006
1639	8.1900e-01	3.6169	3.110974	0.000492	4.917466	0.833041	-0.009835
1640	8.1950e-01	3.6069	3.066501	0.000445	4.447099	0.753359	-0.008895
1641	8.2000e-01	3.5968	3.009199	0.000573	5.729916	0.970674	-0.011460
1642	8.2050e-01	3.5860	2.967719	0.000415	4.147775	0.702652	-0.008296
1643	8.2100e-01	3.5767	2.922391	0.000453	4.532620	0.767847	-0.009066
1644	8.2150e-01	3.5654	2.873642	0.000487	4.874705	0.825797	-0.009750
1645	8.2200e-01	3.5565	2.816340	0.000573	5.729916	0.970674	-0.011460
1646	8.2250e-01	3.5458	2.767163	0.000492	4.917466	0.833041	-0.009835
1647	8.2300e-01	3.5349	2.730387	0.000368	3.677409	0.622970	-0.007355
1648	8.2350e-01	3.5254	2.672658	0.000577	5.772677	0.977918	-0.011546
1649	8.2400e-01	3.5162	2.620488	0.000522	5.216790	0.883748	-0.010434
1650	8.2450e-01	3.5049	2.572594	0.000479	4.789184	0.811310	-0.009579
1651	8.2500e-01	3.4956	2.519996	0.000526	5.259550	0.890992	-0.010520
1652	8.2550e-01	3.4842	2.473812	0.000462	4.618142	0.782334	-0.009237
1653	8.2600e-01	3.4760	2.431477	0.000423	4.233296	0.717140	-0.008467
1654	8.2650e-01	3.4663	2.376741	0.000547	5.473353	0.927211	-0.010947
1655	8.2700e-01	3.4547	2.329702	0.000470	4.703663	0.796822	-0.009408
1656	8.2750e-01	3.4447	2.275394	0.000543	5.430592	0.919967	-0.010862
1657	8.2800e-01	3.4369	2.233059	0.000423	4.233296	0.717140	-0.008467
1658	8.2850e-01	3.4286	2.171054	0.000620	6.200283	1.050356	-0.012401
1659	8.2900e-01	3.4209	2.128719	0.000423	4.233296	0.717140	-0.008467
1660	8.2950e-01	3.4052	2.079969	0.000487	4.874705	0.825797	-0.009750
1661	8.3000e-01	3.3954	2.026516	0.000535	5.345071	0.905480	-0.010691
1662	8.3050e-01	3.3851	1.976912	0.000496	4.960226	0.840285	-0.009921
1663	8.3100e-01	3.3752	1.931583	0.000453	4.532620	0.767847	-0.009066
1664	8.3150e-01	3.3664	1.883262	0.000483	4.831944	0.818554	-0.009664
1665	8.3200e-01	3.3524	1.837506	0.000458	4.575381	0.775091	-0.009151
1666	8.3250e-01	3.3446	1.778921	0.000586	5.858198	0.992406	-0.011717
1667	8.3300e-01	3.3344	1.733593	0.000453	4.532620	0.767847	-0.009066
1668	8.3350e-01	3.3268	1.680567	0.000530	5.302311	0.898236	-0.010605
1669	8.3400e-01	3.3179	1.633956	0.000466	4.660902	0.789578	-0.009322
1670	8.3450e-01	3.3060	1.580931	0.000530	5.302311	0.898236	-0.010605
1671	8.3500e-01	3.2951	1.535175	0.000458	4.575381	0.775091	-0.009151
1672	8.3550e-01	3.2874	1.486425	0.000487	4.874705	0.825797	-0.009750
1673	8.3600e-01	3.2814	1.426986	0.000594	5.943719	1.006893	-0.011888
1674	8.3650e-01	3.2660	1.387644	0.000393	3.933972	0.666433	-0.007868
1675	8.3700e-01	3.2556	1.332053	0.000556	5.558874	0.941699	-0.011118
1676	8.3750e-01	3.2495	1.279027	0.000530	5.302311	0.898236	-0.010605
1677	8.3800e-01	3.2379	1.233699	0.000453	4.532620	0.767847	-0.009066
1678	8.3850e-01	3.2269	1.177680	0.000560	5.601635	0.948943	-0.011204
1679	8.3900e-01	3.2159	1.131924	0.000458	4.575381	0.775091	-0.009151
1680	8.3950e-01	3.2057	1.079754	0.000522	5.216790	0.883748	-0.010434
1681	8.4000e-01	3.1956	1.032715	0.000470	4.703663	0.796822	-0.009408
1682	8.4050e-01	3.1866	0.977979	0.000547	5.473353	0.927211	-0.010947
1683	8.4100e-01	3.1770	0.928374	0.000496	4.960226	0.840285	-0.009921
1684	8.4150e-01	3.1665	0.877059	0.000513	5.131268	0.869260	-0.010263
1685	8.4200e-01	3.1567	0.826600	0.000505	5.045747	0.854773	-0.010092
1686	8.4250e-01	3.1439	0.771864	0.000547	5.473353	0.927211	-0.010947
1687	8.4300e-01	3.1363	0.720549	0.000513	5.131268	0.869260	-0.010263
1688	8.4350e-01	3.1265	0.675220	0.000453	4.532620	0.767847	-0.009066
1689	8.4400e-01	3.1213	0.622195	0.000530	5.302311	0.898236	-0.010605
1690	8.4450e-01	3.1085	0.568742	0.000535	5.345071	0.905480	-0.010691
1691	8.4500e-01	3.0966	0.517427	0.000513	5.131268	0.869260	-0.010263
1692	8.4550e-01	3.0843	0.466967	0.000505	5.045747	0.854773	-0.010092
1693	8.4600e-01	3.0754	0.413941	0.000530	5.302311	0.898236	-0.010605
1694	8.4650e-01	3.0670	0.367330	0.000466	4.660902	0.789578	-0.009322
1695	8.4700e-01	3.0554	0.309601	0.000577	5.772677	0.977918	-0.011546
1696	8.4750e-01	3.0476	0.255720	0.000539	5.387832	0.912723	-0.010776
1697	8.4800e-01	3.0396	0.210392	0.000453	4.532620	0.767847	-0.009066
1698	8.4850e-01	3.0273	0.151379	0.000590	5.900959	0.999649	-0.011802
1699	8.4900e-01	3.0173	0.109044	0.000423	4.233296	0.717140	-0.008467
1700	8.4950e-01	3.0061	0.053881	0.000552	5.516114	0.934455	-0.011033
1701	8.5000e-01	2.9948	0.004704	0.000492	4.917466	0.833041	-0.009835
1702	8.5050e-01	2.9862	-0.047039	0.000517	5.174029	0.876504	-0.010349
1703	8.5100e-01	2.9784	-0.102202	0.000552	5.516114	0.934455	-0.011033
1704	8.5150e-01	2.9681	-0.151807	0.000496	4.960226	0.840285	-0.009921
1705	8.5200e-01	2.9570	-0.203977	0.000522	5.216790	0.883748	-0.010434
1706	8.5250e-01	2.9471	-0.257858	0.000539	5.387832	0.912723	-0.010776
1707	8.5300e-01	2.9352	-0.309173	0.000513	5.131268	0.869260	-0.010263
1708	8.5350e-01	2.9276	-0.364337	0.000552	5.516114	0.934455	-0.011033
1709	8.5400e-01	2.9170	-0.413086	0.000487	4.874705	0.825797	-0.009750
1710	8.5450e-01	2.9086	-0.464829	0.000517	5.174029	0.876504	-0.010349
1711	8.5500e-01	2.8967	-0.515716	0.000509	5.088508	0.862017	-0.010177
1712	8.5550e-01	2.8847	-0.566603	0.000509	5.088508	0.862017	-0.010177
1713	8.5600e-01	2.8755	-0.616208	0.000496	4.960226	0.840285	-0.009921
1714	8.5650e-01	2.8664	-0.677786	0.000616	6.157522	1.043112	-0.012316
1715	8.5700e-01	2.8589	-0.731667	0.000539	5.387832	0.912723	-0.010776
1716	8.5750e-01	2.8473	-0.782982	0.000513	5.131268	0.869260	-0.010263
1717	8.5800e-01	2.8351	-0.833014	0.000500	5.002987	0.847529	-0.010006
1718	8.5850e-01	2.8243	-0.892882	0.000599	5.986480	1.014137	-0.011974
1719	8.5900e-01	2.8185	-0.940776	0.000479	4.789184	0.811310	-0.009579
1720	8.5950e-01	2.8072	-0.992946	0.000522	5.216790	0.883748	-0.010434
1721	8.6000e-01	2.7969	-1.046399	0.000535	5.345071	0.905480	-0.010691
1722	8.6050e-01	2.7832	-1.096431	0.000500	5.002987	0.847529	-0.010006
1723	8.6100e-01	2.7759	-1.150312	0.000539	5.387832	0.912723	-0.010776
1724	8.6150e-01	2.7687	-1.203765	0.000535	5.345071	0.905480	-0.010691
1725	8.6200e-01	2.7565	-1.256363	0.000526	5.259550	0.890992	-0.010520
1726	8.6250e-01	2.7454	-1.307678	0.000513	5.131268	0.869260	-0.010263
1727	8.6300e-01	2.7376	-1.361986	0.000543	5.430592	0.919967	-0.010862
1728	8.6350e-01	2.7277	-1.417150	0.000552	5.516114	0.934455	-0.011033
1729	8.6400e-01	2.7162	-1.463334	0.000462	4.618142	0.782334	-0.009237
1730	8.6450e-01	2.7069	-1.519780	0.000564	5.644395	0.956186	-0.011289
1731	8.6500e-01	2.6981	-1.574089	0.000543	5.430592	0.919967	-0.010862
1732	8.6550e-01	2.6839	-1.626259	0.000522	5.216790	0.883748	-0.010434
1733	8.6600e-01	2.6765	-1.683988	0.000577	5.772677	0.977918	-0.011546
1734	8.6650e-01	2.6685	-1.734020	0.000500	5.002987	0.847529	-0.010006
1735	8.6700e-01	2.6563	-1.786618	0.000526	5.259550	0.890992	-0.010520
1736	8.6750e-01	2.6494	-1.840072	0.000535	5.345071	0.905480	-0.010691
1737	8.6800e-01	2.6341	-1.901650	0.000616	6.157522	1.043112	-0.012316
1738	8.6850e-01	2.6270	-1.951254	0.000496	4.960226	0.840285	-0.009921
1739	8.6900e-01	2.6160	-2.002997	0.000517	5.174029	0.876504	-0.010349
1740	8.6950e-01	2.6053	-2.056450	0.000535	5.345071	0.905480	-0.010691
1741	8.7000e-01	2.5970	-2.110331	0.000539	5.387832	0.912723	-0.010776
1742	8.7050e-01	2.5863	-2.166350	0.000560	5.601635	0.948943	-0.011204
1743	8.7100e-01	2.5759	-2.215527	0.000492	4.917466	0.833041	-0.009835
1744	8.7150e-01	2.5687	-2.269835	0.000543	5.430592	0.919967	-0.010862
1745	8.7200e-01	2.5586	-2.330130	0.000603	6.029240	1.021381	-0.012059
1746	8.7250e-01	2.5465	-2.381873	0.000517	5.174029	0.876504	-0.010349
1747	8.7300e-01	2.5349	-2.438747	0.000569	5.687156	0.963430	-0.011375
1748	8.7350e-01	2.5242	-2.490062	0.000513	5.131268	0.869260	-0.010263
1749	8.7400e-01	2.5137	-2.550357	0.000603	6.029240	1.021381	-0.012059
1750	8.7450e-01	2.5034	-2.602527	0.000522	5.216790	0.883748	-0.010434
1751	8.7500e-01	2.4982	-2.659402	0.000569	5.687156	0.963430	-0.011375
1752	8.7550e-01	2.4896	-2.708151	0.000487	4.874705	0.825797	-0.009750
1753	8.7600e-01	2.4768	-2.764170	0.000560	5.601635	0.948943	-0.011204
1754	8.7650e-01	2.4677	-2.818906	0.000547	5.473353	0.927211	-0.010947
1755	8.7700e-01	2.4548	-2.876208	0.000573	5.729916	0.970674	-0.011460
1756	8.7750e-01	2.4458	-2.923246	0.000470	4.703663	0.796822	-0.009408
1757	8.7800e-01	2.4376	-2.982686	0.000594	5.943719	1.006893	-0.011888
1758	8.7850e-01	2.4249	-3.032718	0.000500	5.002987	0.847529	-0.010006
1759	8.7900e-01	2.4190	-3.088310	0.000556	5.558874	0.941699	-0.011118
1760	8.7950e-01	2.4063	-3.150315	0.000620	6.200283	1.050356	-0.012401
1761	8.8000e-01	2.3962	-3.198209	0.000479	4.789184	0.811310	-0.009579
1762	8.8050e-01	2.3855	-3.255084	0.000569	5.687156	0.963430	-0.011375
1763	8.8100e-01	2.3763	-3.311530	0.000564	5.644395	0.956186	-0.011289
1764	8.8150e-01	2.3676	-3.366266	0.000547	5.473353	0.927211	-0.010947
1765	8.8200e-01	2.3538	-3.416298	0.000500	5.002987	0.847529	-0.010006
1766	8.8250e-01	2.3462	-3.474883	0.000586	5.858198	0.992406	-0.011717
1767	8.8300e-01	2.3370	-3.527053	0.000522	5.216790	0.883748	-0.010434
1768	8.8350e-01	2.3268	-3.585638	0.000586	5.858198	0.992406	-0.011717
1769	8.8400e-01	2.3169	-3.643367	0.000577	5.772677	0.977918	-0.011546
1770	8.8450e-01	2.3074	-3.697676	0.000543	5.430592	0.919967	-0.010862
1771	8.8500e-01	2.2955	-3.751129	0.000535	5.345071	0.905480	-0.010691
1772	8.8550e-01	2.2859	-3.807575	0.000564	5.644395	0.956186	-0.011289
1773	8.8600e-01	2.2780	-3.865732	0.000582	5.815438	0.985162	-0.011631
1774	8.8650e-01	2.2651	-3.925172	0.000594	5.943719	1.006893	-0.011888
1775	8.8700e-01	2.2541	-3.974777	0.000496	4.960226	0.840285	-0.009921
1776	8.8750e-01	2.2449	-4.031651	0.000569	5.687156	0.963430	-0.011375
1777	8.8800e-01	2.2370	-4.090663	0.000590	5.900959	0.999649	-0.011802
1778	8.8850e-01	2.2271	-4.149248	0.000586	5.858198	0.992406	-0.011717
1779	8.8900e-01	2.2166	-4.202701	0.000535	5.345071	0.905480	-0.010691
1780	8.8950e-01	2.2093	-4.263424	0.000607	6.072001	1.028625	-0.012145
1781	8.9000e-01	2.1951	-4.319443	0.000560	5.601635	0.948943	-0.011204
1782	8.9050e-01	2.1857	-4.377172	0.000577	5.772677	0.977918	-0.011546
1783	8.9100e-01	2.1754	-4.425494	0.000483	4.831944	0.818554	-0.009664
1784	8.9150e-01	2.1652	-4.487927	0.000624	6.243043	1.057600	-0.012487
1785	8.9200e-01	2.1561	-4.542236	0.000543	5.430592	0.919967	-0.010862
1786	8.9250e-01	2.1461	-4.600820	0.000586	5.858198	0.992406	-0.011717
1787	8.9300e-01	2.1346	-4.656839	0.000560	5.601635	0.948943	-0.011204
1788	8.9350e-01	2.1254	-4.704733	0.000479	4.789184	0.811310	-0.009579
1789	8.9400e-01	2.1173	-4.763318	0.000586	5.858198	0.992406	-0.011717
1790	8.9450e-01	2.1080	-4.824468	0.000611	6.114762	1.035869	-0.012230
1791	8.9500e-01	2.0996	-4.873218	0.000487	4.874705	0.825797	-0.009750
1792	8.9550e-01	2.0874	-4.940355	0.000671	6.713409	1.137282	-0.013427
1793	8.9600e-01	2.0753	-4.995946	0.000556	5.558874	0.941699	-0.011118
1794	8.9650e-01	2.0670	-5.057524	0.000616	6.157522	1.043112	-0.012316
1795	8.9700e-01	2.0560	-5.111833	0.000543	5.430592	0.919967	-0.010862
1796	8.9750e-01	2.0441	-5.166141	0.000543	5.430592	0.919967	-0.010862
1797	8.9800e-01	2.0364	-5.226008	0.000599	5.986480	1.014137	-0.011974
1798	8.9850e-01	2.0258	-5.281172	0.000552	5.516114	0.934455	-0.011033
1799	8.9900e-01	2.0169	-5.342323	0.000611	6.114762	1.035869	-0.012230
1800	8.9950e-01	2.0071	-5.400907	0.000586	5.858198	0.992406	-0.011717
1801	9.0000e-01	1.9984	-5.452650	0.000517	5.174029	0.876504	-0.010349
1802	9.0050e-01	1.9862	-5.512945	0.000603	6.029240	1.021381	-0.012059
1803	9.0100e-01	1.9757	-5.565115	0.000522	5.216790	0.883748	-0.010434
1804	9.0150e-01	1.9666	-5.625410	0.000603	6.029240	1.021381	-0.012059
1805	9.0200e-01	1.9537	-5.685278	0.000599	5.986480	1.014137	-0.011974
1806	9.0250e-01	1.9473	-5.743007	0.000577	5.772677	0.977918	-0.011546
1807	9.0300e-01	1.9369	-5.797316	0.000543	5.430592	0.919967	-0.010862
1808	9.0350e-01	1.9254	-5.857183	0.000599	5.986480	1.014137	-0.011974
1809	9.0400e-01	1.9134	-5.923893	0.000667	6.670649	1.130039	-0.013342
1810	9.0450e-01	1.9060	-5.977346	0.000535	5.345071	0.905480	-0.010691
1811	9.0500e-01	1.8991	-6.034648	0.000573	5.729916	0.970674	-0.011460
1812	9.0550e-01	1.8840	-6.096226	0.000616	6.157522	1.043112	-0.012316
1813	9.0600e-01	1.8761	-6.148396	0.000522	5.216790	0.883748	-0.010434
1814	9.0650e-01	1.8661	-6.202705	0.000543	5.430592	0.919967	-0.010862
1815	9.0700e-01	1.8562	-6.263427	0.000607	6.072001	1.028625	-0.012145
1816	9.0750e-01	1.8465	-6.317308	0.000539	5.387832	0.912723	-0.010776
1817	9.0800e-01	1.8362	-6.377603	0.000603	6.029240	1.021381	-0.012059
1818	9.0850e-01	1.8237	-6.441320	0.000637	6.371325	1.079332	-0.012743
1819	9.0900e-01	1.8156	-6.490924	0.000496	4.960226	0.840285	-0.009921
1820	9.0950e-01	1.8039	-6.558916	0.000680	6.798931	1.151770	-0.013598
1821	9.1000e-01	1.7944	-6.617501	0.000586	5.858198	0.992406	-0.011717
1822	9.1050e-01	1.7879	-6.682500	0.000650	6.499607	1.101063	-0.013000
1823	9.1100e-01	1.7739	-6.734243	0.000517	5.174029	0.876504	-0.010349
1824	9.1150e-01	1.7665	-6.790262	0.000560	5.601635	0.948943	-0.011204
1825	9.1200e-01	1.7543	-6.856544	0.000663	6.627888	1.122795	-0.013256
1826	9.1250e-01	1.7422	-6.916411	0.000599	5.986480	1.014137	-0.011974
1827	9.1300e-01	1.7351	-6.972002	0.000556	5.558874	0.941699	-0.011118
1828	9.1350e-01	1.7261	-7.034863	0.000629	6.285804	1.064844	-0.012572
1829	9.1400e-01	1.7152	-7.091310	0.000564	5.644395	0.956186	-0.011289
1830	9.1450e-01	1.7075	-7.152888	0.000616	6.157522	1.043112	-0.012316
1831	9.1500e-01	1.6967	-7.205914	0.000530	5.302311	0.898236	-0.010605
1832	9.1550e-01	1.6869	-7.269202	0.000633	6.328564	1.072088	-0.012658
1833	9.1600e-01	1.6756	-7.329925	0.000607	6.072001	1.028625	-0.012145
1834	9.1650e-01	1.6661	-7.384233	0.000543	5.430592	0.919967	-0.010862
1835	9.1700e-01	1.6581	-7.444956	0.000607	6.072001	1.028625	-0.012145
1836	9.1750e-01	1.6452	-7.506106	0.000611	6.114762	1.035869	-0.012230
1837	9.1800e-01	1.6366	-7.564691	0.000586	5.858198	0.992406	-0.011717
1838	9.1850e-01	1.6248	-7.621565	0.000569	5.687156	0.963430	-0.011375
1839	9.1900e-01	1.6151	-7.687420	0.000659	6.585128	1.115551	-0.013171
1840	9.1950e-01	1.6062	-7.748570	0.000611	6.114762	1.035869	-0.012230
1841	9.2000e-01	1.5982	-7.809293	0.000607	6.072001	1.028625	-0.012145
1842	9.2050e-01	1.5888	-7.868733	0.000594	5.943719	1.006893	-0.011888
1843	9.2100e-01	1.5770	-7.930738	0.000620	6.200283	1.050356	-0.012401
1844	9.2150e-01	1.5637	-7.991034	0.000603	6.029240	1.021381	-0.012059
1845	9.2200e-01	1.5565	-8.053467	0.000624	6.243043	1.057600	-0.012487
1846	9.2250e-01	1.5456	-8.115045	0.000616	6.157522	1.043112	-0.012316
1847	9.2300e-01	1.5341	-8.163794	0.000487	4.874705	0.825797	-0.009750
1848	9.2350e-01	1.5271	-8.226227	0.000624	6.243043	1.057600	-0.012487
1849	9.2400e-01	1.5137	-8.289516	0.000633	6.328564	1.072088	-0.012658
1850	9.2450e-01	1.5034	-8.351094	0.000616	6.157522	1.043112	-0.012316
1851	9.2500e-01	1.4923	-8.406685	0.000556	5.558874	0.941699	-0.011118
1852	9.2550e-01	1.4866	-8.475105	0.000684	6.841691	1.159014	-0.013684
1853	9.2600e-01	1.4766	-8.536683	0.000616	6.157522	1.043112	-0.012316
1854	9.2650e-01	1.4673	-8.593985	0.000573	5.729916	0.970674	-0.011460
1855	9.2700e-01	1.4591	-8.658984	0.000650	6.499607	1.101063	-0.013000
1856	9.2750e-01	1.4445	-8.712010	0.000530	5.302311	0.898236	-0.010605
1857	9.2800e-01	1.4345	-8.776154	0.000641	6.414086	1.086575	-0.012829
1858	9.2850e-01	1.4233	-8.839870	0.000637	6.371325	1.079332	-0.012743
1859	9.2900e-01	1.4178	-8.904013	0.000641	6.414086	1.086575	-0.012829
1860	9.2950e-01	1.4069	-8.968157	0.000641	6.414086	1.086575	-0.012829
1861	9.3000e-01	1.4027	-9.027597	0.000594	5.943719	1.006893	-0.011888
1862	9.3050e-01	1.3864	-9.090886	0.000633	6.328564	1.072088	-0.012658
1863	9.3100e-01	1.3741	-9.149898	0.000590	5.900959	0.999649	-0.011802
1864	9.3150e-01	1.3663	-9.208910	0.000590	5.900959	0.999649	-0.011802
1865	9.3200e-01	1.3554	-9.274337	0.000654	6.542367	1.108307	-0.013085
1866	9.3250e-01	1.3467	-9.330783	0.000564	5.644395	0.956186	-0.011289
1867	9.3300e-01	1.3335	-9.394500	0.000637	6.371325	1.079332	-0.012743
1868	9.3350e-01	1.3272	-9.451801	0.000573	5.729916	0.970674	-0.011460
1869	9.3400e-01	1.3155	-9.515945	0.000641	6.414086	1.086575	-0.012829
1870	9.3450e-01	1.3092	-9.577096	0.000611	6.114762	1.035869	-0.012230
1871	9.3500e-01	1.2959	-9.641667	0.000646	6.456846	1.093819	-0.012914
1872	9.3550e-01	1.2845	-9.703673	0.000620	6.200283	1.050356	-0.012401
1873	9.3600e-01	1.2762	-9.769527	0.000659	6.585128	1.115551	-0.013171
1874	9.3650e-01	1.2653	-9.830677	0.000611	6.114762	1.035869	-0.012230
1875	9.3700e-01	1.2556	-9.896532	0.000659	6.585128	1.115551	-0.013171
1876	9.3750e-01	1.2431	-9.952123	0.000556	5.558874	0.941699	-0.011118
1877	9.3800e-01	1.2370	-10.015839	0.000637	6.371325	1.079332	-0.012743
1878	9.3850e-01	1.2251	-10.075279	0.000594	5.943719	1.006893	-0.011888
1879	9.3900e-01	1.2170	-10.141989	0.000667	6.670649	1.130039	-0.013342
1880	9.3950e-01	1.2051	-10.192021	0.000500	5.002987	0.847529	-0.010006
1881	9.4000e-01	1.1978	-10.266000	0.000740	7.397579	1.253184	-0.014796
1882	9.4050e-01	1.1877	-10.329289	0.000633	6.328564	1.072088	-0.012658
1883	9.4100e-01	1.1783	-10.391294	0.000620	6.200283	1.050356	-0.012401
1884	9.4150e-01	1.1672	-10.460569	0.000693	6.927212	1.173502	-0.013855
1885	9.4200e-01	1.1595	-10.517016	0.000564	5.644395	0.956186	-0.011289
1886	9.4250e-01	1.1465	-10.582015	0.000650	6.499607	1.101063	-0.013000
1887	9.4300e-01	1.1347	-10.636751	0.000547	5.473353	0.927211	-0.010947
1888	9.4350e-01	1.1282	-10.703888	0.000671	6.713409	1.137282	-0.013427
1889	9.4400e-01	1.1133	-10.765466	0.000616	6.157522	1.043112	-0.012316
1890	9.4450e-01	1.1067	-10.834742	0.000693	6.927212	1.173502	-0.013855
1891	9.4500e-01	1.0973	-10.900596	0.000659	6.585128	1.115551	-0.013171
1892	9.4550e-01	1.0855	-10.958325	0.000577	5.772677	0.977918	-0.011546
1893	9.4600e-01	1.0759	-11.030594	0.000723	7.226536	1.224208	-0.014454
1894	9.4650e-01	1.0670	-11.086613	0.000560	5.601635	0.948943	-0.011204
1895	9.4700e-01	1.0551	-11.155888	0.000693	6.927212	1.173502	-0.013855
1896	9.4750e-01	1.0477	-11.220460	0.000646	6.456846	1.093819	-0.012914
1897	9.4800e-01	1.0381	-11.281182	0.000607	6.072001	1.028625	-0.012145
1898	9.4850e-01	1.0272	-11.347037	0.000659	6.585128	1.115551	-0.013171
1899	9.4900e-01	1.0168	-11.401773	0.000547	5.473353	0.927211	-0.010947
1900	9.4950e-01	1.0085	-11.478745	0.000770	7.696903	1.303891	-0.015395
1901	9.5000e-01	0.9956	-11.539468	0.000607	6.072001	1.028625	-0.012145
1902	9.5050e-01	0.9875	-11.609599	0.000701	7.012733	1.187989	-0.014026
1903	9.5100e-01	0.9779	-11.668611	0.000590	5.900959	0.999649	-0.011802
1904	9.5150e-01	0.9660	-11.734465	0.000659	6.585128	1.115551	-0.013171
1905	9.5200e-01	0.9563	-11.797326	0.000629	6.285804	1.064844	-0.012572
1906	9.5250e-01	0.9467	-11.860615	0.000633	6.328564	1.072088	-0.012658
1907	9.5300e-01	0.9347	-11.930745	0.000701	7.012733	1.187989	-0.014026
1908	9.5350e-01	0.9250	-11.991040	0.000603	6.029240	1.021381	-0.012059
1909	9.5400e-01	0.9163	-12.053901	0.000629	6.285804	1.064844	-0.012572
1910	9.5450e-01	0.9074	-12.120183	0.000663	6.627888	1.122795	-0.013256
1911	9.5500e-01	0.8951	-12.183044	0.000629	6.285804	1.064844	-0.012572
1912	9.5550e-01	0.8852	-12.255740	0.000727	7.269297	1.231452	-0.014539
1913	9.5600e-01	0.8778	-12.314325	0.000586	5.858198	0.992406	-0.011717
1914	9.5650e-01	0.8667	-12.381462	0.000671	6.713409	1.137282	-0.013427
1915	9.5700e-01	0.8566	-12.446034	0.000646	6.456846	1.093819	-0.012914
1916	9.5750e-01	0.8472	-12.505046	0.000590	5.900959	0.999649	-0.011802
1917	9.5800e-01	0.8382	-12.578170	0.000731	7.312057	1.238696	-0.014625
1918	9.5850e-01	0.8270	-12.639320	0.000611	6.114762	1.035869	-0.012230
1919	9.5900e-01	0.8160	-12.701754	0.000624	6.243043	1.057600	-0.012487
1920	9.5950e-01	0.8037	-12.772312	0.000706	7.055494	1.195233	-0.014112
1921	9.6000e-01	0.7964	-12.842015	0.000697	6.969973	1.180745	-0.013941
1922	9.6050e-01	0.7879	-12.904020	0.000620	6.200283	1.050356	-0.012401
1923	9.6100e-01	0.7784	-12.969447	0.000654	6.542367	1.108307	-0.013085
1924	9.6150e-01	0.7673	-13.036156	0.000667	6.670649	1.130039	-0.013342
1925	9.6200e-01	0.7565	-13.107142	0.000710	7.098255	1.202477	-0.014197
1926	9.6250e-01	0.7451	-13.167437	0.000603	6.029240	1.021381	-0.012059
1927	9.6300e-01	0.7379	-13.236285	0.000688	6.884452	1.166258	-0.013770
1928	9.6350e-01	0.7249	-13.296580	0.000603	6.029240	1.021381	-0.012059
1929	9.6400e-01	0.7150	-13.366283	0.000697	6.969973	1.180745	-0.013941
1930	9.6450e-01	0.7066	-13.435986	0.000697	6.969973	1.180745	-0.013941
1931	9.6500e-01	0.6973	-13.502268	0.000663	6.627888	1.122795	-0.013256
1932	9.6550e-01	0.6865	-13.563846	0.000616	6.157522	1.043112	-0.012316
1933	9.6600e-01	0.6766	-13.632266	0.000684	6.841691	1.159014	-0.013684
1934	9.6650e-01	0.6673	-13.700686	0.000684	6.841691	1.159014	-0.013684
1935	9.6700e-01	0.6546	-13.764402	0.000637	6.371325	1.079332	-0.012743
1936	9.6750e-01	0.6461	-13.831967	0.000676	6.756170	1.144526	-0.013513
1937	9.6800e-01	0.6351	-13.898677	0.000667	6.670649	1.130039	-0.013342
1938	9.6850e-01	0.6234	-13.964959	0.000663	6.627888	1.122795	-0.013256
1939	9.6900e-01	0.6155	-14.035944	0.000710	7.098255	1.202477	-0.014197
1940	9.6950e-01	0.6081	-14.102654	0.000667	6.670649	1.130039	-0.013342
1941	9.7000e-01	0.5973	-14.168936	0.000663	6.627888	1.122795	-0.013256
1942	9.7050e-01	0.5875	-14.234790	0.000659	6.585128	1.115551	-0.013171
1943	9.7100e-01	0.5757	-14.301927	0.000671	6.713409	1.137282	-0.013427
1944	9.7150e-01	0.5652	-14.369492	0.000676	6.756170	1.144526	-0.013513
1945	9.7200e-01	0.5568	-14.438767	0.000693	6.927212	1.173502	-0.013855
1946	9.7250e-01	0.5441	-14.500773	0.000620	6.200283	1.050356	-0.012401
1947	9.7300e-01	0.5373	-14.570476	0.000697	6.969973	1.180745	-0.013941
1948	9.7350e-01	0.5249	-14.638041	0.000676	6.756170	1.144526	-0.013513
1949	9.7400e-01	0.5134	-14.703040	0.000650	6.499607	1.101063	-0.013000
1950	9.7450e-01	0.5067	-14.773170	0.000701	7.012733	1.187989	-0.014026
1951	9.7500e-01	0.4952	-14.837742	0.000646	6.456846	1.093819	-0.012914
1952	9.7550e-01	0.4874	-14.908728	0.000710	7.098255	1.202477	-0.014197
1953	9.7600e-01	0.4765	-14.980996	0.000723	7.226536	1.224208	-0.014454
1954	9.7650e-01	0.4673	-15.047706	0.000667	6.670649	1.130039	-0.013342
1955	9.7700e-01	0.4576	-15.110567	0.000629	6.285804	1.064844	-0.012572
1956	9.7750e-01	0.4446	-15.177276	0.000667	6.670649	1.130039	-0.013342
1957	9.7800e-01	0.4359	-15.247834	0.000706	7.055494	1.195233	-0.014112
1958	9.7850e-01	0.4273	-15.316682	0.000688	6.884452	1.166258	-0.013770
1959	9.7900e-01	0.4159	-15.386813	0.000701	7.012733	1.187989	-0.014026
1960	9.7950e-01	0.4066	-15.459509	0.000727	7.269297	1.231452	-0.014539
1961	9.8000e-01	0.3965	-15.519804	0.000603	6.029240	1.021381	-0.012059
1962	9.8050e-01	0.3849	-15.596777	0.000770	7.696903	1.303891	-0.015395
1963	9.8100e-01	0.3732	-15.668190	0.000714	7.141015	1.209721	-0.014283
1964	9.8150e-01	0.3650	-15.731906	0.000637	6.371325	1.079332	-0.012743
1965	9.8200e-01	0.3544	-15.804175	0.000723	7.226536	1.224208	-0.014454
1966	9.8250e-01	0.3477	-15.872595	0.000684	6.841691	1.159014	-0.013684
1967	9.8300e-01	0.3387	-15.935028	0.000624	6.243043	1.057600	-0.012487
1968	9.8350e-01	0.3269	-16.005586	0.000706	7.055494	1.195233	-0.014112
1969	9.8400e-01	0.3156	-16.078283	0.000727	7.269297	1.231452	-0.014539
1970	9.8450e-01	0.3011	-16.145847	0.000676	6.756170	1.144526	-0.013513
1971	9.8500e-01	0.2969	-16.212985	0.000671	6.713409	1.137282	-0.013427
1972	9.8550e-01	0.2833	-16.282260	0.000693	6.927212	1.173502	-0.013855
1973	9.8600e-01	0.2731	-16.353673	0.000714	7.141015	1.209721	-0.014283
1974	9.8650e-01	0.2663	-16.423376	0.000697	6.969973	1.180745	-0.013941
1975	9.8700e-01	0.2560	-16.493079	0.000697	6.969973	1.180745	-0.013941
1976	9.8750e-01	0.2459	-16.563210	0.000701	7.012733	1.187989	-0.014026
1977	9.8800e-01	0.2376	-16.633340	0.000701	7.012733	1.187989	-0.014026
1978	9.8850e-01	0.2258	-16.694491	0.000611	6.114762	1.035869	-0.012230
1979	9.8900e-01	0.2157	-16.765904	0.000714	7.141015	1.209721	-0.014283
1980	9.8950e-01	0.2066	-16.840739	0.000748	7.483100	1.267671	-0.014967
1981	9.9000e-01	0.1971	-16.909586	0.000688	6.884452	1.166258	-0.013770
1982	9.9050e-01	0.1884	-16.977151	0.000676	6.756170	1.144526	-0.013513
1983	9.9100e-01	0.1750	-17.049420	0.000723	7.226536	1.224208	-0.014454
1984	9.9150e-01	0.1659	-17.116557	0.000671	6.713409	1.137282	-0.013427
1985	9.9200e-01	0.1553	-17.193957	0.000774	7.739663	1.311134	-0.015480
1986	9.9250e-01	0.1456	-17.265798	0.000718	7.183776	1.216965	-0.014368
1987	9.9300e-01	0.1392	-17.337212	0.000714	7.141015	1.209721	-0.014283
1988	9.9350e-01	0.1246	-17.402638	0.000654	6.542367	1.108307	-0.013085
1989	9.9400e-01	0.1150	-17.471486	0.000688	6.884452	1.166258	-0.013770
1990	9.9450e-01	0.1077	-17.545893	0.000744	7.440339	1.260428	-0.014881
1991	9.9500e-01	0.0972	-17.616023	0.000701	7.012733	1.187989	-0.014026
1992	9.9550e-01	0.0838	-17.690002	0.000740	7.397579	1.253184	-0.014796
1993	9.9600e-01	0.0765	-17.757995	0.000680	6.798931	1.151770	-0.013598
1994	9.9650e-01	0.0665	-17.826842	0.000688	6.884452	1.166258	-0.013770
1995	9.9700e-01	0.0571	-17.900822	0.000740	7.397579	1.253184	-0.014796
1996	9.9750e-01	0.0424	-17.965393	0.000646	6.456846	1.093819	-0.012914
1997	9.9800e-01	0.0375	-18.035524	0.000701	7.012733	1.187989	-0.014026
1998	9.9850e-01	0.0271	-18.110786	0.000753	7.525860	1.274915	-0.015052
1999	9.9900e-01	0.0195	-18.186048	0.000753	7.525860	1.274915	-0.015052
2000	9.9950e-01	0.0061	-18.255751	0.000697	6.969973	1.180745	-0.013941
2001	1.0000e+00	-0.0050	-18.326736	0.000697	6.969973	1.180745	-0.014197

PMax (uC/cm2):	5.06e+01
Pr (uC/cm2):	6.98e+00
-Pr (uC/cm2):	0.00e+00
PLoss (uC/cm2):	0.00e+00
C (Max-Eff) (nF):	5.06e-01
K (Eff):	8.57e+02
Vert. (+/-Pr) Shift (uC/cm2):	3.49e+00
Offset (uC/cm2):	2.53e+01

A (Loop Area - uC/cm2·Volts):	-6.89e-02



Hysteresis Version: 5.48.1 - Radiant Technologies, Inc., 1999 - 9/12/24

