»»»»»»»»»»»»»»»»»»»»»»»»»»»»»»»»»»»» Hysteresis ««««««««««««««««««««««««««««««««««««
»»»  Executed Version:	5.48.1
»»»  Vision Version:	5.48.4 (R)
»»»  Vision Compiled:	9/18/24
»»»  Driver Version:	5.47.0
»»»  Windows Version:	Windows 8 or 8.1
»»»  Processor Information:	x86 (AMD or Intel) - 32 Processors
»»»  Tester Name:	PMF21124-494 (100V)
»»»  Tester S/N:	PMF21124-494
»»»  Internal Amp Type:	100V RevK 270k
»»»  Internal Amp S/N:	iAB2-596/K     
»»»  Execution Count:	1
»»»»»»»»»»»»»»»»»»»»»»»»»»»»»»»»»»»»»»»»»»««««««««««««««««««««««««««««««««««««««««««

Stored:	6/25/2025 - 16:17:23
Configured:	06/25/25 10:44:40 AM
Executed:	06/25/25 04:17:00 PM

»»»»»»»»»»»»»»»»»»»»»»»»»»»»»»»»»»» Sample Info ««««««««««««««««««««««««««««««««««««
Sample Name:	
Lot Name:	
Wafer Name:	
Die Row/Column:	0/0
Capacitor Number:	0
Sample Area (cm2):	1.00e-04
Sample Thickness (microns):	1.50e-01

Amplifier:	Internal

»»»»»»»»»»»»»»»»»»»»»»»»»»»»»»»»»»» Tester Info «««««««««««««««««««««««««««««««««««
Tester Name:	PMF21124-494 (100V)
Tester Serial Number:	PMF21124-494
Return Signal Amp. Level:	1.79 [Index: 2]

»»»»»»»»»»»»»»»»»»»»»»»»»»»»»»»» Hysteresis Info ««««««««««««««««««««««««««««««««««
Task Name:	Hyst-116
Volts:	10.00
Field:	666.67 (kV/cm)
DCBias:	0.00
DCField:	0.00 (kV/cm)
Hysteresis Period (ms):	1.00e+00
Preset:	Enabled
Preset Delay (ms):	1.00e+03
Profile:	Standard Monopolar

»»»»»»»»»»»»»»»»»»»»»»»»»»»»»»»»»»»»»» Data «««««««««««««««««««««««««««««««««««««««
Points:	2001

Valid Data

Point	Time (ms)	Drive Voltage	Measured Polarization (uC/cm2)	Capacitance (uF)	Normalized Capacitance (uF/cm2)	Dielectric Constant	Instantaneous Current (mA)
   1	0.0000e+00	-0.0060	-19.658575	0.000363	3.634260	0.615660	0.007270
   2	5.0000e-04	0.0057	-19.622227	0.000363	3.634260	0.615660	0.007270
   3	1.0000e-03	0.0151	-19.571340	0.000509	5.087964	0.861925	0.010177
   4	1.5000e-03	0.0243	-19.509762	0.000616	6.156864	1.043001	0.012316
   5	2.0000e-03	0.0381	-19.461868	0.000479	4.788672	0.811223	0.009579
   6	2.5000e-03	0.0467	-19.417395	0.000445	4.446624	0.753279	0.008895
   7	3.0000e-03	0.0579	-19.350257	0.000671	6.712693	1.137161	0.013427
   8	3.5000e-03	0.0663	-19.292956	0.000573	5.729304	0.970570	0.011460
   9	4.0000e-03	0.0757	-19.249338	0.000436	4.361112	0.738792	0.008724
  10	4.5000e-03	0.0842	-19.180918	0.000684	6.840961	1.158890	0.013684
  11	5.0000e-03	0.0938	-19.143714	0.000372	3.719772	0.630146	0.007441
  12	5.5000e-03	0.1038	-19.087696	0.000560	5.601036	0.948841	0.011204
  13	6.0000e-03	0.1137	-19.033815	0.000539	5.387256	0.912626	0.010776
  14	6.5000e-03	0.1237	-18.976941	0.000569	5.686548	0.963327	0.011375
  15	7.0000e-03	0.1361	-18.925198	0.000517	5.173476	0.876411	0.010349
  16	7.5000e-03	0.1447	-18.873455	0.000517	5.173476	0.876411	0.010349
  17	8.0000e-03	0.1563	-18.812305	0.000611	6.114108	1.035758	0.012230
  18	8.5000e-03	0.1703	-18.752865	0.000594	5.943084	1.006786	0.011888
  19	9.0000e-03	0.1740	-18.704971	0.000479	4.788672	0.811223	0.009579
  20	9.5000e-03	0.1827	-18.656649	0.000483	4.831428	0.818466	0.009664
  21	1.0000e-02	0.1955	-18.605762	0.000509	5.087964	0.861925	0.010177
  22	1.0500e-02	0.2044	-18.546322	0.000594	5.943084	1.006786	0.011888
  23	1.1000e-02	0.2146	-18.485172	0.000611	6.114108	1.035758	0.012230
  24	1.1500e-02	0.2250	-18.441126	0.000440	4.403868	0.746035	0.008809
  25	1.2000e-02	0.2365	-18.388528	0.000526	5.258988	0.890897	0.010520
  26	1.2500e-02	0.2438	-18.333365	0.000552	5.515524	0.934355	0.011033
  27	1.3000e-02	0.2564	-18.284188	0.000492	4.916940	0.832952	0.009835
  28	1.3500e-02	0.2671	-18.228169	0.000560	5.601036	0.948841	0.011204
  29	1.4000e-02	0.2776	-18.175998	0.000522	5.216232	0.883654	0.010434
  30	1.4500e-02	0.2847	-18.118697	0.000573	5.729304	0.970570	0.011460
  31	1.5000e-02	0.2982	-18.072086	0.000466	4.660404	0.789494	0.009322
  32	1.5500e-02	0.3055	-18.013501	0.000586	5.857572	0.992300	0.011717
  33	1.6000e-02	0.3144	-17.963041	0.000505	5.045208	0.854681	0.010092
  34	1.6500e-02	0.3252	-17.914292	0.000487	4.874184	0.825709	0.009750
  35	1.7000e-02	0.3350	-17.843734	0.000705	7.054741	1.195105	0.014112
  36	1.7500e-02	0.3455	-17.804392	0.000393	3.933552	0.666362	0.007868
  37	1.8000e-02	0.3539	-17.747946	0.000564	5.643792	0.956084	0.011289
  38	1.8500e-02	0.3660	-17.687650	0.000603	6.028596	1.021272	0.012059
  39	1.9000e-02	0.3757	-17.639329	0.000483	4.831428	0.818466	0.009664
  40	1.9500e-02	0.3845	-17.582027	0.000573	5.729304	0.970570	0.011460
  41	2.0000e-02	0.3974	-17.524298	0.000577	5.772060	0.977814	0.011546
  42	2.0500e-02	0.4050	-17.479825	0.000445	4.446624	0.753279	0.008895
  43	2.1000e-02	0.4142	-17.426799	0.000530	5.301744	0.898140	0.010605
  44	2.1500e-02	0.4282	-17.372918	0.000539	5.387256	0.912626	0.010776
  45	2.2000e-02	0.4362	-17.318182	0.000547	5.472768	0.927112	0.010947
  46	2.2500e-02	0.4449	-17.277130	0.000410	4.104576	0.695334	0.008210
  47	2.3000e-02	0.4530	-17.213414	0.000637	6.370645	1.079216	0.012743
  48	2.3500e-02	0.4652	-17.163809	0.000496	4.959696	0.840195	0.009921
  49	2.4000e-02	0.4745	-17.107791	0.000560	5.601036	0.948841	0.011204
  50	2.4500e-02	0.4858	-17.063745	0.000440	4.403868	0.746035	0.008809
  51	2.5000e-02	0.4948	-17.011147	0.000526	5.258988	0.890897	0.010520
  52	2.5500e-02	0.5029	-16.947003	0.000641	6.413401	1.086459	0.012829
  53	2.6000e-02	0.5170	-16.899537	0.000475	4.745916	0.803980	0.009493
  54	2.6500e-02	0.5274	-16.843518	0.000560	5.601036	0.948841	0.011204
  55	2.7000e-02	0.5357	-16.791775	0.000517	5.173476	0.876411	0.010349
  56	2.7500e-02	0.5458	-16.732336	0.000594	5.943084	1.006786	0.011888
  57	2.8000e-02	0.5562	-16.678455	0.000539	5.387256	0.912626	0.010776
  58	2.8500e-02	0.5671	-16.636547	0.000419	4.190088	0.709820	0.008381
  59	2.9000e-02	0.5766	-16.580956	0.000556	5.558280	0.941598	0.011118
  60	2.9500e-02	0.5836	-16.526648	0.000543	5.430012	0.919869	0.010862
  61	3.0000e-02	0.5973	-16.481320	0.000453	4.532136	0.767765	0.009066
  62	3.0500e-02	0.6076	-16.416320	0.000650	6.498913	1.100946	0.013000
  63	3.1000e-02	0.6177	-16.380400	0.000359	3.591504	0.608417	0.007184
  64	3.1500e-02	0.6250	-16.315401	0.000650	6.498913	1.100946	0.013000
  65	3.2000e-02	0.6381	-16.267079	0.000483	4.831428	0.818466	0.009664
  66	3.2500e-02	0.6466	-16.215764	0.000513	5.130720	0.869168	0.010263
  67	3.3000e-02	0.6561	-16.164449	0.000513	5.130720	0.869168	0.010263
  68	3.3500e-02	0.6615	-16.116128	0.000483	4.831428	0.818466	0.009664
  69	3.4000e-02	0.6757	-16.053267	0.000629	6.285133	1.064730	0.012572
  70	3.4500e-02	0.6837	-16.000241	0.000530	5.301744	0.898140	0.010605
  71	3.5000e-02	0.6969	-15.948071	0.000522	5.216232	0.883654	0.010434
  72	3.5500e-02	0.7043	-15.894618	0.000534	5.344500	0.905383	0.010691
  73	3.6000e-02	0.7159	-15.856987	0.000376	3.762528	0.637390	0.007526
  74	3.6500e-02	0.7259	-15.802251	0.000547	5.472768	0.927112	0.010947
  75	3.7000e-02	0.7337	-15.744949	0.000573	5.729304	0.970570	0.011460
  76	3.7500e-02	0.7458	-15.706035	0.000389	3.890796	0.659119	0.007783
  77	3.8000e-02	0.7579	-15.641036	0.000650	6.498913	1.100946	0.013000
  78	3.8500e-02	0.7653	-15.588438	0.000526	5.258988	0.890897	0.010520
  79	3.9000e-02	0.7739	-15.534985	0.000534	5.344500	0.905383	0.010691
  80	3.9500e-02	0.7847	-15.501202	0.000338	3.377724	0.572202	0.006756
  81	4.0000e-02	0.7937	-15.430217	0.000710	7.097497	1.202348	0.014197
  82	4.0500e-02	0.8087	-15.390020	0.000402	4.019064	0.680848	0.008039
  83	4.1000e-02	0.8179	-15.344264	0.000457	4.574892	0.775008	0.009151
  84	4.1500e-02	0.8263	-15.278410	0.000658	6.584425	1.115432	0.013171
  85	4.2000e-02	0.8360	-15.226239	0.000522	5.216232	0.883654	0.010434
  86	4.2500e-02	0.8443	-15.175352	0.000509	5.087964	0.861925	0.010177
  87	4.3000e-02	0.8561	-15.134728	0.000406	4.061820	0.688091	0.008125
  88	4.3500e-02	0.8672	-15.087261	0.000475	4.745916	0.803980	0.009493
  89	4.4000e-02	0.8759	-15.019269	0.000680	6.798205	1.151647	0.013598
  90	4.4500e-02	0.8855	-14.975651	0.000436	4.361112	0.738792	0.008724
  91	4.5000e-02	0.8938	-14.920915	0.000547	5.472768	0.927112	0.010947
  92	4.5500e-02	0.9038	-14.870455	0.000505	5.045208	0.854681	0.010092
  93	4.6000e-02	0.9175	-14.822133	0.000483	4.831428	0.818466	0.009664
  94	4.6500e-02	0.9268	-14.767397	0.000547	5.472768	0.927112	0.010947
  95	4.7000e-02	0.9346	-14.717365	0.000500	5.002452	0.847438	0.010006
  96	4.7500e-02	0.9449	-14.651511	0.000658	6.584425	1.115432	0.013171
  97	4.8000e-02	0.9547	-14.612169	0.000393	3.933552	0.666362	0.007868
  98	4.8500e-02	0.9648	-14.579670	0.000325	3.249456	0.550473	0.006500
  99	4.9000e-02	0.9780	-14.506546	0.000731	7.311277	1.238564	0.014625
 100	4.9500e-02	0.9855	-14.459080	0.000475	4.745916	0.803980	0.009493
 101	5.0000e-02	0.9947	-14.408620	0.000505	5.045208	0.854681	0.010092
 102	5.0500e-02	1.0036	-14.350035	0.000586	5.857572	0.992300	0.011717
 103	5.1000e-02	1.0194	-14.308128	0.000419	4.190088	0.709820	0.008381
 104	5.1500e-02	1.0281	-14.260234	0.000479	4.788672	0.811223	0.009579
 105	5.2000e-02	1.0344	-14.211485	0.000487	4.874184	0.825709	0.009750
 106	5.2500e-02	1.0476	-14.157604	0.000539	5.387256	0.912626	0.010776
 107	5.3000e-02	1.0567	-14.102440	0.000552	5.515524	0.934355	0.011033
 108	5.3500e-02	1.0638	-14.058822	0.000436	4.361112	0.738792	0.008724
 109	5.4000e-02	1.0785	-14.008790	0.000500	5.002452	0.847438	0.010006
 110	5.4500e-02	1.0873	-13.949350	0.000594	5.943084	1.006786	0.011888
 111	5.5000e-02	1.0966	-13.906588	0.000428	4.275600	0.724306	0.008553
 112	5.5500e-02	1.1075	-13.851852	0.000547	5.472768	0.927112	0.010947
 113	5.6000e-02	1.1176	-13.797116	0.000547	5.472768	0.927112	0.010947
 114	5.6500e-02	1.1258	-13.757347	0.000398	3.976308	0.673605	0.007954
 115	5.7000e-02	1.1391	-13.697907	0.000594	5.943084	1.006786	0.011888
 116	5.7500e-02	1.1454	-13.645309	0.000526	5.258988	0.890897	0.010520
 117	5.8000e-02	1.1578	-13.602974	0.000423	4.232844	0.717063	0.008467
 118	5.8500e-02	1.1642	-13.553369	0.000496	4.959696	0.840195	0.009921
 119	5.9000e-02	1.1787	-13.501627	0.000517	5.173476	0.876411	0.010349
 120	5.9500e-02	1.1849	-13.457154	0.000445	4.446624	0.753279	0.008895
 121	6.0000e-02	1.1969	-13.394720	0.000624	6.242376	1.057487	0.012487
 122	6.0500e-02	1.2076	-13.351103	0.000436	4.361112	0.738792	0.008724
 123	6.1000e-02	1.2135	-13.300215	0.000509	5.087964	0.861925	0.010177
 124	6.1500e-02	1.2268	-13.253604	0.000466	4.660404	0.789494	0.009322
 125	6.2000e-02	1.2350	-13.202289	0.000513	5.130720	0.869168	0.010263
 126	6.2500e-02	1.2438	-13.150546	0.000517	5.173476	0.876411	0.010349
 127	6.3000e-02	1.2574	-13.100514	0.000500	5.002452	0.847438	0.010006
 128	6.3500e-02	1.2627	-13.043212	0.000573	5.729304	0.970570	0.011460
 129	6.4000e-02	1.2778	-13.006864	0.000363	3.634260	0.615660	0.007270
 130	6.4500e-02	1.2840	-12.948707	0.000581	5.814816	0.985057	0.011631
 131	6.5000e-02	1.2936	-12.905089	0.000436	4.361112	0.738792	0.008724
 132	6.5500e-02	1.3081	-12.856768	0.000483	4.831428	0.818466	0.009664
 133	6.6000e-02	1.3159	-12.809729	0.000470	4.703160	0.796737	0.009408
 134	6.6500e-02	1.3258	-12.757131	0.000526	5.258988	0.890897	0.010520
 135	6.7000e-02	1.3361	-12.707099	0.000500	5.002452	0.847438	0.010006
 136	6.7500e-02	1.3435	-12.660488	0.000466	4.660404	0.789494	0.009322
 137	6.8000e-02	1.3536	-12.607035	0.000534	5.344500	0.905383	0.010691
 138	6.8500e-02	1.3638	-12.551443	0.000556	5.558280	0.941598	0.011118
 139	6.9000e-02	1.3741	-12.496280	0.000552	5.515524	0.934355	0.011033
 140	6.9500e-02	1.3834	-12.453089	0.000432	4.318356	0.731549	0.008638
 141	7.0000e-02	1.3950	-12.410755	0.000423	4.232844	0.717063	0.008467
 142	7.0500e-02	1.4051	-12.361150	0.000496	4.959696	0.840195	0.009921
 143	7.1000e-02	1.4185	-12.308124	0.000530	5.301744	0.898140	0.010605
 144	7.1500e-02	1.4271	-12.263224	0.000449	4.489380	0.760522	0.008980
 145	7.2000e-02	1.4362	-12.214902	0.000483	4.831428	0.818466	0.009664
 146	7.2500e-02	1.4445	-12.157173	0.000577	5.772060	0.977814	0.011546
 147	7.3000e-02	1.4562	-12.112272	0.000449	4.489380	0.760522	0.008980
 148	7.3500e-02	1.4645	-12.056253	0.000560	5.601036	0.948841	0.011204
 149	7.4000e-02	1.4764	-12.013918	0.000423	4.232844	0.717063	0.008467
 150	7.4500e-02	1.4874	-11.974577	0.000393	3.933552	0.666362	0.007868
 151	7.5000e-02	1.4966	-11.904874	0.000697	6.969229	1.180619	0.013941
 152	7.5500e-02	1.5069	-11.876651	0.000282	2.821896	0.478042	0.005645
 153	7.6000e-02	1.5174	-11.812079	0.000646	6.456157	1.093703	0.012914
 154	7.6500e-02	1.5268	-11.765468	0.000466	4.660404	0.789494	0.009322
 155	7.7000e-02	1.5358	-11.718002	0.000475	4.745916	0.803980	0.009493
 156	7.7500e-02	1.5425	-11.660700	0.000573	5.729304	0.970570	0.011460
 157	7.8000e-02	1.5564	-11.622641	0.000381	3.805284	0.644633	0.007612
 158	7.8500e-02	1.5668	-11.575175	0.000475	4.745916	0.803980	0.009493
 159	7.9000e-02	1.5771	-11.522577	0.000526	5.258988	0.890897	0.010520
 160	7.9500e-02	1.5887	-11.473400	0.000492	4.916940	0.832952	0.009835
 161	8.0000e-02	1.5953	-11.429355	0.000440	4.403868	0.746035	0.008809
 162	8.0500e-02	1.6060	-11.375901	0.000534	5.344500	0.905383	0.010691
 163	8.1000e-02	1.6164	-11.325442	0.000505	5.045208	0.854681	0.010092
 164	8.1500e-02	1.6266	-11.281824	0.000436	4.361112	0.738792	0.008724
 165	8.2000e-02	1.6348	-11.227943	0.000539	5.387256	0.912626	0.010776
 166	8.2500e-02	1.6446	-11.178338	0.000496	4.959696	0.840195	0.009921
 167	8.3000e-02	1.6541	-11.125313	0.000530	5.301744	0.898140	0.010605
 168	8.3500e-02	1.6640	-11.082550	0.000428	4.275600	0.724306	0.008553
 169	8.4000e-02	1.6758	-11.050051	0.000325	3.249456	0.550473	0.006500
 170	8.4500e-02	1.6849	-10.994887	0.000552	5.515524	0.934355	0.011033
 171	8.5000e-02	1.6966	-10.940579	0.000543	5.430012	0.919869	0.010862
 172	8.5500e-02	1.7048	-10.893112	0.000475	4.745916	0.803980	0.009493
 173	8.6000e-02	1.7151	-10.834955	0.000581	5.814816	0.985057	0.011631
 174	8.6500e-02	1.7290	-10.800745	0.000342	3.420480	0.579445	0.006842
 175	8.7000e-02	1.7358	-10.742588	0.000581	5.814816	0.985057	0.011631
 176	8.7500e-02	1.7450	-10.692984	0.000496	4.959696	0.840195	0.009921
 177	8.8000e-02	1.7560	-10.669037	0.000239	2.394336	0.405612	0.004789
 178	8.8500e-02	1.7670	-10.602327	0.000667	6.669937	1.129918	0.013342
 179	8.9000e-02	1.7743	-10.556571	0.000457	4.574892	0.775008	0.009151
 180	8.9500e-02	1.7861	-10.499270	0.000573	5.729304	0.970570	0.011460
 181	9.0000e-02	1.7970	-10.453514	0.000457	4.574892	0.775008	0.009151
 182	9.0500e-02	1.8033	-10.404764	0.000487	4.874184	0.825709	0.009750
 183	9.1000e-02	1.8159	-10.357726	0.000470	4.703160	0.796737	0.009408
 184	9.1500e-02	1.8266	-10.317101	0.000406	4.061820	0.688091	0.008125
 185	9.2000e-02	1.8350	-10.264503	0.000526	5.258988	0.890897	0.010520
 186	9.2500e-02	1.8427	-10.217892	0.000466	4.660404	0.789494	0.009322
 187	9.3000e-02	1.8546	-10.163156	0.000547	5.472768	0.927112	0.010947
 188	9.3500e-02	1.8654	-10.115262	0.000479	4.788672	0.811223	0.009579
 189	9.4000e-02	1.8766	-10.071644	0.000436	4.361112	0.738792	0.008724
 190	9.4500e-02	1.8856	-10.036151	0.000355	3.548748	0.601174	0.007099
 191	9.5000e-02	1.8974	-9.976711	0.000594	5.943084	1.006786	0.011888
 192	9.5500e-02	1.9041	-9.927535	0.000492	4.916940	0.832952	0.009835
 193	9.6000e-02	1.9160	-9.881779	0.000457	4.574892	0.775008	0.009151
 194	9.6500e-02	1.9240	-9.830464	0.000513	5.130720	0.869168	0.010263
 195	9.7000e-02	1.9354	-9.787273	0.000432	4.318356	0.731549	0.008638
 196	9.7500e-02	1.9485	-9.739379	0.000479	4.788672	0.811223	0.009579
 197	9.8000e-02	1.9543	-9.693624	0.000457	4.574892	0.775008	0.009151
 198	9.8500e-02	1.9649	-9.648295	0.000453	4.532136	0.767765	0.009066
 199	9.9000e-02	1.9769	-9.600401	0.000479	4.788672	0.811223	0.009579
 200	9.9500e-02	1.9838	-9.544382	0.000560	5.601036	0.948841	0.011204
 201	1.0000e-01	1.9965	-9.503758	0.000406	4.061820	0.688091	0.008125
 202	1.0050e-01	2.0056	-9.460140	0.000436	4.361112	0.738792	0.008724
 203	1.0100e-01	2.0151	-9.402411	0.000577	5.772060	0.977814	0.011546
 204	1.0150e-01	2.0261	-9.370339	0.000321	3.206700	0.543230	0.006414
 205	1.0200e-01	2.0393	-9.324583	0.000457	4.574892	0.775008	0.009151
 206	1.0250e-01	2.0467	-9.262150	0.000624	6.242376	1.057487	0.012487
 207	1.0300e-01	2.0573	-9.221525	0.000406	4.061820	0.688091	0.008125
 208	1.0350e-01	2.0658	-9.174486	0.000470	4.703160	0.796737	0.009408
 209	1.0400e-01	2.0767	-9.137283	0.000372	3.719772	0.630146	0.007441
 210	1.0450e-01	2.0861	-9.081264	0.000560	5.601036	0.948841	0.011204
 211	1.0500e-01	2.0947	-9.026528	0.000547	5.472768	0.927112	0.010947
 212	1.0550e-01	2.1063	-8.978206	0.000483	4.831428	0.818466	0.009664
 213	1.0600e-01	2.1144	-8.930740	0.000475	4.745916	0.803980	0.009493
 214	1.0650e-01	2.1259	-8.888405	0.000423	4.232844	0.717063	0.008467
 215	1.0700e-01	2.1356	-8.844360	0.000440	4.403868	0.746035	0.008809
 216	1.0750e-01	2.1448	-8.792189	0.000522	5.216232	0.883654	0.010434
 217	1.0800e-01	2.1544	-8.754558	0.000376	3.762528	0.637390	0.007526
 218	1.0850e-01	2.1677	-8.704954	0.000496	4.959696	0.840195	0.009921
 219	1.0900e-01	2.1777	-8.656205	0.000487	4.874184	0.825709	0.009750
 220	1.0950e-01	2.1854	-8.607455	0.000487	4.874184	0.825709	0.009750
 221	1.1000e-01	2.1968	-8.565548	0.000419	4.190088	0.709820	0.008381
 222	1.1050e-01	2.2083	-8.512095	0.000534	5.344500	0.905383	0.010691
 223	1.1100e-01	2.2192	-8.462918	0.000492	4.916940	0.832952	0.009835
 224	1.1150e-01	2.2256	-8.428708	0.000342	3.420480	0.579445	0.006842
 225	1.1200e-01	2.2348	-8.365419	0.000633	6.327889	1.071973	0.012658
 226	1.1250e-01	2.2469	-8.334203	0.000312	3.121188	0.528744	0.006243
 227	1.1300e-01	2.2528	-8.279894	0.000543	5.430012	0.919869	0.010862
 228	1.1350e-01	2.2679	-8.233283	0.000466	4.660404	0.789494	0.009322
 229	1.1400e-01	2.2760	-8.188383	0.000449	4.489380	0.760522	0.008980
 230	1.1450e-01	2.2849	-8.141771	0.000466	4.660404	0.789494	0.009322
 231	1.1500e-01	2.2995	-8.099437	0.000423	4.232844	0.717063	0.008467
 232	1.1550e-01	2.3071	-8.047266	0.000522	5.216232	0.883654	0.010434
 233	1.1600e-01	2.3172	-8.006642	0.000406	4.061820	0.688091	0.008125
 234	1.1650e-01	2.3259	-7.948912	0.000577	5.772060	0.977814	0.011546
 235	1.1700e-01	2.3357	-7.905722	0.000432	4.318356	0.731549	0.008638
 236	1.1750e-01	2.3468	-7.867664	0.000381	3.805284	0.644633	0.007612
 237	1.1800e-01	2.3541	-7.815066	0.000526	5.258988	0.890897	0.010520
 238	1.1850e-01	2.3694	-7.782566	0.000325	3.249456	0.550473	0.006500
 239	1.1900e-01	2.3779	-7.732962	0.000496	4.959696	0.840195	0.009921
 240	1.1950e-01	2.3859	-7.674377	0.000586	5.857572	0.992300	0.011717
 241	1.2000e-01	2.3969	-7.635463	0.000389	3.890796	0.659119	0.007783
 242	1.2050e-01	2.4049	-7.582865	0.000526	5.258988	0.890897	0.010520
 243	1.2100e-01	2.4139	-7.537109	0.000457	4.574892	0.775008	0.009151
 244	1.2150e-01	2.4246	-7.491781	0.000453	4.532136	0.767765	0.009066
 245	1.2200e-01	2.4335	-7.443887	0.000479	4.788672	0.811223	0.009579
 246	1.2250e-01	2.4451	-7.409249	0.000346	3.463236	0.586688	0.006928
 247	1.2300e-01	2.4537	-7.357934	0.000513	5.130720	0.869168	0.010263
 248	1.2350e-01	2.4657	-7.313889	0.000440	4.403868	0.746035	0.008809
 249	1.2400e-01	2.4773	-7.266850	0.000470	4.703160	0.796737	0.009408
 250	1.2450e-01	2.4894	-7.227936	0.000389	3.890796	0.659119	0.007783
 251	1.2500e-01	2.4982	-7.172773	0.000552	5.515524	0.934355	0.011033
 252	1.2550e-01	2.5047	-7.125734	0.000470	4.703160	0.796737	0.009408
 253	1.2600e-01	2.5191	-7.084254	0.000415	4.147332	0.702577	0.008296
 254	1.2650e-01	2.5284	-7.039353	0.000449	4.489380	0.760522	0.008980
 255	1.2700e-01	2.5356	-6.982907	0.000564	5.643792	0.956084	0.011289
 256	1.2750e-01	2.5464	-6.941000	0.000419	4.190088	0.709820	0.008381
 257	1.2800e-01	2.5558	-6.899092	0.000419	4.190088	0.709820	0.008381
 258	1.2850e-01	2.5647	-6.856330	0.000428	4.275600	0.724306	0.008553
 259	1.2900e-01	2.5739	-6.805870	0.000505	5.045208	0.854681	0.010092
 260	1.2950e-01	2.5857	-6.756693	0.000492	4.916940	0.832952	0.009835
 261	1.3000e-01	2.5952	-6.719490	0.000372	3.719772	0.630146	0.007441
 262	1.3050e-01	2.6070	-6.668175	0.000513	5.130720	0.869168	0.010263
 263	1.3100e-01	2.6154	-6.624985	0.000432	4.318356	0.731549	0.008638
 264	1.3150e-01	2.6248	-6.586926	0.000381	3.805284	0.644633	0.007612
 265	1.3200e-01	2.6385	-6.542881	0.000440	4.403868	0.746035	0.008809
 266	1.3250e-01	2.6456	-6.494986	0.000479	4.788672	0.811223	0.009579
 267	1.3300e-01	2.6572	-6.444527	0.000505	5.045208	0.854681	0.010092
 268	1.3350e-01	2.6642	-6.405613	0.000389	3.890796	0.659119	0.007783
 269	1.3400e-01	2.6782	-6.344035	0.000616	6.156864	1.043001	0.012316
 270	1.3450e-01	2.6830	-6.304693	0.000393	3.933552	0.666362	0.007868
 271	1.3500e-01	2.6979	-6.270056	0.000346	3.463236	0.586688	0.006928
 272	1.3550e-01	2.7058	-6.214892	0.000552	5.515524	0.934355	0.011033
 273	1.3600e-01	2.7147	-6.175123	0.000398	3.976308	0.673605	0.007954
 274	1.3650e-01	2.7261	-6.130650	0.000445	4.446624	0.753279	0.008895
 275	1.3700e-01	2.7351	-6.088315	0.000423	4.232844	0.717063	0.008467
 276	1.3750e-01	2.7458	-6.037855	0.000505	5.045208	0.854681	0.010092
 277	1.3800e-01	2.7570	-5.998514	0.000393	3.933552	0.666362	0.007868
 278	1.3850e-01	2.7655	-5.953613	0.000449	4.489380	0.760522	0.008980
 279	1.3900e-01	2.7747	-5.901870	0.000517	5.173476	0.876411	0.010349
 280	1.3950e-01	2.7850	-5.858252	0.000436	4.361112	0.738792	0.008724
 281	1.4000e-01	2.7957	-5.815918	0.000423	4.232844	0.717063	0.008467
 282	1.4050e-01	2.8064	-5.769734	0.000462	4.617648	0.782251	0.009237
 283	1.4100e-01	2.8149	-5.726971	0.000428	4.275600	0.724306	0.008553
 284	1.4150e-01	2.8253	-5.667104	0.000599	5.985840	1.014029	0.011974
 285	1.4200e-01	2.8358	-5.645723	0.000214	2.137800	0.362153	0.004276
 286	1.4250e-01	2.8467	-5.593125	0.000526	5.258988	0.890897	0.010520
 287	1.4300e-01	2.8574	-5.543520	0.000496	4.959696	0.840195	0.009921
 288	1.4350e-01	2.8672	-5.515297	0.000282	2.821896	0.478042	0.005645
 289	1.4400e-01	2.8743	-5.459278	0.000560	5.601036	0.948841	0.011204
 290	1.4450e-01	2.8854	-5.407108	0.000522	5.216232	0.883654	0.010434
 291	1.4500e-01	2.8976	-5.369904	0.000372	3.719772	0.630146	0.007441
 292	1.4550e-01	2.9068	-5.323721	0.000462	4.617648	0.782251	0.009237
 293	1.4600e-01	2.9160	-5.273261	0.000505	5.045208	0.854681	0.010092
 294	1.4650e-01	2.9279	-5.237768	0.000355	3.548748	0.601174	0.007099
 295	1.4700e-01	2.9376	-5.195006	0.000428	4.275600	0.724306	0.008553
 296	1.4750e-01	2.9456	-5.140270	0.000547	5.472768	0.927112	0.010947
 297	1.4800e-01	2.9559	-5.104349	0.000359	3.591504	0.608417	0.007184
 298	1.4850e-01	2.9654	-5.058166	0.000462	4.617648	0.782251	0.009237
 299	1.4900e-01	2.9771	-5.010272	0.000479	4.788672	0.811223	0.009579
 300	1.4950e-01	2.9881	-4.976489	0.000338	3.377724	0.572202	0.006756
 301	1.5000e-01	2.9959	-4.926029	0.000505	5.045208	0.854681	0.010092
 302	1.5050e-01	3.0049	-4.880701	0.000453	4.532136	0.767765	0.009066
 303	1.5100e-01	3.0164	-4.827676	0.000530	5.301744	0.898140	0.010605
 304	1.5150e-01	3.0275	-4.799452	0.000282	2.821896	0.478042	0.005645
 305	1.5200e-01	3.0385	-4.757973	0.000415	4.147332	0.702577	0.008296
 306	1.5250e-01	3.0450	-4.704947	0.000530	5.301744	0.898140	0.010605
 307	1.5300e-01	3.0634	-4.659191	0.000457	4.574892	0.775008	0.009151
 308	1.5350e-01	3.0652	-4.615146	0.000440	4.403868	0.746035	0.008809
 309	1.5400e-01	3.0759	-4.576660	0.000385	3.848040	0.651876	0.007697
 310	1.5450e-01	3.0870	-4.530048	0.000466	4.660404	0.789494	0.009322
 311	1.5500e-01	3.0969	-4.497549	0.000325	3.249456	0.550473	0.006500
 312	1.5550e-01	3.1061	-4.451793	0.000457	4.574892	0.775008	0.009151
 313	1.5600e-01	3.1174	-4.396629	0.000552	5.515524	0.934355	0.011033
 314	1.5650e-01	3.1262	-4.360709	0.000359	3.591504	0.608417	0.007184
 315	1.5700e-01	3.1384	-4.313242	0.000475	4.745916	0.803980	0.009493
 316	1.5750e-01	3.1488	-4.265776	0.000475	4.745916	0.803980	0.009493
 317	1.5800e-01	3.1575	-4.225579	0.000402	4.019064	0.680848	0.008039
 318	1.5850e-01	3.1651	-4.180251	0.000453	4.532136	0.767765	0.009066
 319	1.5900e-01	3.1734	-4.136633	0.000436	4.361112	0.738792	0.008724
 320	1.5950e-01	3.1851	-4.106272	0.000304	3.035676	0.514257	0.006072
 321	1.6000e-01	3.1956	-4.053246	0.000530	5.301744	0.898140	0.010605
 322	1.6050e-01	3.2059	-4.014332	0.000389	3.890796	0.659119	0.007783
 323	1.6100e-01	3.2156	-3.962590	0.000517	5.173476	0.876411	0.010349
 324	1.6150e-01	3.2264	-3.922820	0.000398	3.976308	0.673605	0.007954
 325	1.6200e-01	3.2349	-3.872361	0.000505	5.045208	0.854681	0.010092
 326	1.6250e-01	3.2463	-3.832164	0.000402	4.019064	0.680848	0.008039
 327	1.6300e-01	3.2547	-3.799664	0.000325	3.249456	0.550473	0.006500
 328	1.6350e-01	3.2660	-3.752626	0.000470	4.703160	0.796737	0.009408
 329	1.6400e-01	3.2751	-3.710718	0.000419	4.190088	0.709820	0.008381
 330	1.6450e-01	3.2855	-3.662824	0.000479	4.788672	0.811223	0.009579
 331	1.6500e-01	3.2948	-3.614930	0.000479	4.788672	0.811223	0.009579
 332	1.6550e-01	3.3063	-3.576872	0.000381	3.805284	0.644633	0.007612
 333	1.6600e-01	3.3167	-3.529405	0.000475	4.745916	0.803980	0.009493
 334	1.6650e-01	3.3259	-3.490491	0.000389	3.890796	0.659119	0.007783
 335	1.6700e-01	3.3365	-3.446018	0.000445	4.446624	0.753279	0.008895
 336	1.6750e-01	3.3478	-3.402828	0.000432	4.318356	0.731549	0.008638
 337	1.6800e-01	3.3594	-3.363487	0.000393	3.933552	0.666362	0.007868
 338	1.6850e-01	3.3678	-3.310889	0.000526	5.258988	0.890897	0.010520
 339	1.6900e-01	3.3767	-3.284376	0.000265	2.650872	0.449070	0.005303
 340	1.6950e-01	3.3844	-3.233489	0.000509	5.087964	0.861925	0.010177
 341	1.7000e-01	3.3969	-3.189443	0.000440	4.403868	0.746035	0.008809
 342	1.7050e-01	3.4033	-3.143260	0.000462	4.617648	0.782251	0.009237
 343	1.7100e-01	3.4167	-3.104773	0.000385	3.848040	0.651876	0.007697
 344	1.7150e-01	3.4270	-3.065432	0.000393	3.933552	0.666362	0.007868
 345	1.7200e-01	3.4366	-3.020959	0.000445	4.446624	0.753279	0.008895
 346	1.7250e-01	3.4479	-2.973492	0.000475	4.745916	0.803980	0.009493
 347	1.7300e-01	3.4567	-2.941420	0.000321	3.206700	0.543230	0.006414
 348	1.7350e-01	3.4668	-2.890105	0.000513	5.130720	0.869168	0.010263
 349	1.7400e-01	3.4758	-2.852047	0.000381	3.805284	0.644633	0.007612
 350	1.7450e-01	3.4885	-2.804153	0.000479	4.788672	0.811223	0.009579
 351	1.7500e-01	3.4936	-2.754976	0.000492	4.916940	0.832952	0.009835
 352	1.7550e-01	3.5065	-2.716062	0.000389	3.890796	0.659119	0.007783
 353	1.7600e-01	3.5159	-2.673727	0.000423	4.232844	0.717063	0.008467
 354	1.7650e-01	3.5260	-2.640372	0.000333	3.334968	0.564959	0.006671
 355	1.7700e-01	3.5373	-2.607017	0.000333	3.334968	0.564959	0.006671
 356	1.7750e-01	3.5469	-2.550143	0.000569	5.686548	0.963327	0.011375
 357	1.7800e-01	3.5555	-2.519354	0.000308	3.078432	0.521501	0.006158
 358	1.7850e-01	3.5648	-2.462908	0.000564	5.643792	0.956084	0.011289
 359	1.7900e-01	3.5773	-2.428270	0.000346	3.463236	0.586688	0.006928
 360	1.7950e-01	3.5854	-2.375672	0.000526	5.258988	0.890897	0.010520
 361	1.8000e-01	3.5970	-2.345738	0.000299	2.992920	0.507014	0.005987
 362	1.8050e-01	3.6053	-2.298272	0.000475	4.745916	0.803980	0.009493
 363	1.8100e-01	3.6169	-2.250378	0.000479	4.788672	0.811223	0.009579
 364	1.8150e-01	3.6252	-2.211464	0.000389	3.890796	0.659119	0.007783
 365	1.8200e-01	3.6359	-2.163998	0.000475	4.745916	0.803980	0.009493
 366	1.8250e-01	3.6481	-2.124656	0.000393	3.933552	0.666362	0.007868
 367	1.8300e-01	3.6523	-2.087025	0.000376	3.762528	0.637390	0.007526
 368	1.8350e-01	3.6679	-2.044263	0.000428	4.275600	0.724306	0.008553
 369	1.8400e-01	3.6786	-2.007914	0.000363	3.634260	0.615660	0.007270
 370	1.8450e-01	3.6844	-1.959593	0.000483	4.831428	0.818466	0.009664
 371	1.8500e-01	3.6971	-1.931797	0.000278	2.779140	0.470799	0.005559
 372	1.8550e-01	3.7061	-1.884331	0.000475	4.745916	0.803980	0.009493
 373	1.8600e-01	3.7155	-1.833871	0.000505	5.045208	0.854681	0.010092
 374	1.8650e-01	3.7292	-1.799233	0.000346	3.463236	0.586688	0.006928
 375	1.8700e-01	3.7354	-1.753905	0.000453	4.532136	0.767765	0.009066
 376	1.8750e-01	3.7463	-1.711143	0.000428	4.275600	0.724306	0.008553
 377	1.8800e-01	3.7576	-1.662393	0.000487	4.874184	0.825709	0.009750
 378	1.8850e-01	3.7671	-1.631604	0.000308	3.078432	0.521501	0.006158
 379	1.8900e-01	3.7758	-1.584993	0.000466	4.660404	0.789494	0.009322
 380	1.8950e-01	3.7878	-1.540948	0.000440	4.403868	0.746035	0.008809
 381	1.9000e-01	3.7988	-1.513580	0.000274	2.736384	0.463556	0.005474
 382	1.9050e-01	3.8033	-1.466113	0.000475	4.745916	0.803980	0.009493
 383	1.9100e-01	3.8168	-1.421640	0.000445	4.446624	0.753279	0.008895
 384	1.9150e-01	3.8275	-1.386147	0.000355	3.548748	0.601174	0.007099
 385	1.9200e-01	3.8364	-1.342957	0.000432	4.318356	0.731549	0.008638
 386	1.9250e-01	3.8435	-1.302760	0.000402	4.019064	0.680848	0.008039
 387	1.9300e-01	3.8568	-1.259143	0.000436	4.361112	0.738792	0.008724
 388	1.9350e-01	3.8649	-1.213387	0.000457	4.574892	0.775008	0.009151
 389	1.9400e-01	3.8770	-1.175328	0.000381	3.805284	0.644633	0.007612
 390	1.9450e-01	3.8892	-1.134704	0.000406	4.061820	0.688091	0.008125
 391	1.9500e-01	3.8959	-1.091086	0.000436	4.361112	0.738792	0.008724
 392	1.9550e-01	3.9044	-1.059442	0.000316	3.163944	0.535987	0.006329
 393	1.9600e-01	3.9163	-1.002995	0.000564	5.643792	0.956084	0.011289
 394	1.9650e-01	3.9267	-0.976482	0.000265	2.650872	0.449070	0.005303
 395	1.9700e-01	3.9343	-0.932009	0.000445	4.446624	0.753279	0.008895
 396	1.9750e-01	3.9455	-0.885826	0.000462	4.617648	0.782251	0.009237
 397	1.9800e-01	3.9551	-0.845201	0.000406	4.061820	0.688091	0.008125
 398	1.9850e-01	3.9648	-0.800301	0.000449	4.489380	0.760522	0.008980
 399	1.9900e-01	3.9772	-0.779775	0.000205	2.052288	0.347667	0.004105
 400	1.9950e-01	3.9861	-0.721190	0.000586	5.857572	0.992300	0.011717
 401	2.0000e-01	3.9941	-0.682704	0.000385	3.848040	0.651876	0.007697
 402	2.0050e-01	4.0063	-0.656191	0.000265	2.650872	0.449070	0.005303
 403	2.0100e-01	4.0150	-0.591192	0.000650	6.498913	1.100946	0.013000
 404	2.0150e-01	4.0253	-0.565962	0.000252	2.522604	0.427341	0.005046
 405	2.0200e-01	4.0356	-0.525338	0.000406	4.061820	0.688091	0.008125
 406	2.0250e-01	4.0491	-0.484286	0.000410	4.104576	0.695334	0.008210
 407	2.0300e-01	4.0561	-0.439385	0.000449	4.489380	0.760522	0.008980
 408	2.0350e-01	4.0665	-0.403892	0.000355	3.548748	0.601174	0.007099
 409	2.0400e-01	4.0814	-0.361985	0.000419	4.190088	0.709820	0.008381
 410	2.0450e-01	4.0863	-0.320505	0.000415	4.147332	0.702577	0.008296
 411	2.0500e-01	4.0997	-0.284157	0.000363	3.634260	0.615660	0.007270
 412	2.0550e-01	4.1083	-0.243105	0.000410	4.104576	0.695334	0.008210
 413	2.0600e-01	4.1162	-0.190079	0.000530	5.301744	0.898140	0.010605
 414	2.0650e-01	4.1278	-0.161001	0.000291	2.907408	0.492528	0.005816
 415	2.0700e-01	4.1347	-0.108403	0.000526	5.258988	0.890897	0.010520
 416	2.0750e-01	4.1461	-0.078042	0.000304	3.035676	0.514257	0.006072
 417	2.0800e-01	4.1576	-0.036562	0.000415	4.147332	0.702577	0.008296
 418	2.0850e-01	4.1657	0.006628	0.000432	4.318356	0.731549	0.008638
 419	2.0900e-01	4.1788	0.048108	0.000415	4.147332	0.702577	0.008296
 420	2.0950e-01	4.1866	0.077186	0.000291	2.907408	0.492528	0.005816
 421	2.1000e-01	4.1986	0.119949	0.000428	4.275600	0.724306	0.008553
 422	2.1050e-01	4.2068	0.167415	0.000475	4.745916	0.803980	0.009493
 423	2.1100e-01	4.2159	0.203336	0.000359	3.591504	0.608417	0.007184
 424	2.1150e-01	4.2261	0.234980	0.000316	3.163944	0.535987	0.006329
 425	2.1200e-01	4.2348	0.289288	0.000543	5.430012	0.919869	0.010862
 426	2.1250e-01	4.2471	0.333334	0.000440	4.403868	0.746035	0.008809
 427	2.1300e-01	4.2572	0.361130	0.000278	2.779140	0.470799	0.005559
 428	2.1350e-01	4.2683	0.398761	0.000376	3.762528	0.637390	0.007526
 429	2.1400e-01	4.2746	0.445799	0.000470	4.703160	0.796737	0.009408
 430	2.1450e-01	4.2862	0.483858	0.000381	3.805284	0.644633	0.007612
 431	2.1500e-01	4.2957	0.525765	0.000419	4.190088	0.709820	0.008381
 432	2.1550e-01	4.3048	0.567245	0.000415	4.147332	0.702577	0.008296
 433	2.1600e-01	4.3158	0.601455	0.000342	3.420480	0.579445	0.006842
 434	2.1650e-01	4.3262	0.632244	0.000308	3.078432	0.521501	0.006158
 435	2.1700e-01	4.3375	0.686552	0.000543	5.430012	0.919869	0.010862
 436	2.1750e-01	4.3472	0.715631	0.000291	2.907408	0.492528	0.005816
 437	2.1800e-01	4.3555	0.757111	0.000415	4.147332	0.702577	0.008296
 438	2.1850e-01	4.3661	0.810564	0.000534	5.344500	0.905383	0.010691
 439	2.1900e-01	4.3770	0.839642	0.000291	2.907408	0.492528	0.005816
 440	2.1950e-01	4.3858	0.883688	0.000440	4.403868	0.746035	0.008809
 441	2.2000e-01	4.3982	0.923029	0.000393	3.933552	0.666362	0.007868
 442	2.2050e-01	4.4067	0.953818	0.000308	3.078432	0.521501	0.006158
 443	2.2100e-01	4.4202	0.997008	0.000432	4.318356	0.731549	0.008638
 444	2.2150e-01	4.4267	1.028653	0.000316	3.163944	0.535987	0.006329
 445	2.2200e-01	4.4351	1.082106	0.000534	5.344500	0.905383	0.010691
 446	2.2250e-01	4.4452	1.114605	0.000325	3.249456	0.550473	0.006500
 447	2.2300e-01	4.4550	1.157795	0.000432	4.318356	0.731549	0.008638
 448	2.2350e-01	4.4679	1.196282	0.000385	3.848040	0.651876	0.007697
 449	2.2400e-01	4.4757	1.229209	0.000329	3.292212	0.557716	0.006585
 450	2.2450e-01	4.4865	1.277531	0.000483	4.831428	0.818466	0.009664
 451	2.2500e-01	4.4983	1.302760	0.000252	2.522604	0.427341	0.005046
 452	2.2550e-01	4.5074	1.350654	0.000479	4.788672	0.811223	0.009579
 453	2.2600e-01	4.5175	1.391706	0.000410	4.104576	0.695334	0.008210
 454	2.2650e-01	4.5253	1.426344	0.000346	3.463236	0.586688	0.006928
 455	2.2700e-01	4.5369	1.469962	0.000436	4.361112	0.738792	0.008724
 456	2.2750e-01	4.5459	1.502461	0.000325	3.249456	0.550473	0.006500
 457	2.2800e-01	4.5605	1.549073	0.000466	4.660404	0.789494	0.009322
 458	2.2850e-01	4.5663	1.575585	0.000265	2.650872	0.449070	0.005303
 459	2.2900e-01	4.5747	1.622624	0.000470	4.703160	0.796737	0.009408
 460	2.2950e-01	4.5851	1.660683	0.000381	3.805284	0.644633	0.007612
 461	2.3000e-01	4.5961	1.700452	0.000398	3.976308	0.673605	0.007954
 462	2.3050e-01	4.6057	1.738083	0.000376	3.762528	0.637390	0.007526
 463	2.3100e-01	4.6155	1.782556	0.000445	4.446624	0.753279	0.008895
 464	2.3150e-01	4.6268	1.814200	0.000316	3.163944	0.535987	0.006329
 465	2.3200e-01	4.6365	1.849693	0.000355	3.548748	0.601174	0.007099
 466	2.3250e-01	4.6442	1.904857	0.000552	5.515524	0.934355	0.011033
 467	2.3300e-01	4.6564	1.935646	0.000308	3.078432	0.521501	0.006158
 468	2.3350e-01	4.6649	1.975843	0.000402	4.019064	0.680848	0.008039
 469	2.3400e-01	4.6774	2.006204	0.000304	3.035676	0.514257	0.006072
 470	2.3450e-01	4.6877	2.035710	0.000295	2.950164	0.499771	0.005901
 471	2.3500e-01	4.6988	2.070348	0.000346	3.463236	0.586688	0.006928
 472	2.3550e-01	4.7070	2.123801	0.000534	5.344500	0.905383	0.010691
 473	2.3600e-01	4.7174	2.161860	0.000381	3.805284	0.644633	0.007612
 474	2.3650e-01	4.7266	2.204194	0.000423	4.232844	0.717063	0.008467
 475	2.3700e-01	4.7363	2.231562	0.000274	2.736384	0.463556	0.005474
 476	2.3750e-01	4.7464	2.272187	0.000406	4.061820	0.688091	0.008125
 477	2.3800e-01	4.7568	2.317943	0.000457	4.574892	0.775008	0.009151
 478	2.3850e-01	4.7638	2.348304	0.000304	3.035676	0.514257	0.006072
 479	2.3900e-01	4.7751	2.394060	0.000457	4.574892	0.775008	0.009151
 480	2.3950e-01	4.7876	2.430408	0.000363	3.634260	0.615660	0.007270
 481	2.4000e-01	4.7977	2.469750	0.000393	3.933552	0.666362	0.007868
 482	2.4050e-01	4.8074	2.509519	0.000398	3.976308	0.673605	0.007954
 483	2.4100e-01	4.8172	2.550999	0.000415	4.147332	0.702577	0.008296
 484	2.4150e-01	4.8273	2.578794	0.000278	2.779140	0.470799	0.005559
 485	2.4200e-01	4.8367	2.625833	0.000470	4.703160	0.796737	0.009408
 486	2.4250e-01	4.8438	2.661326	0.000355	3.548748	0.601174	0.007099
 487	2.4300e-01	4.8553	2.690832	0.000295	2.950164	0.499771	0.005901
 488	2.4350e-01	4.8650	2.732312	0.000415	4.147332	0.702577	0.008296
 489	2.4400e-01	4.8743	2.771226	0.000389	3.890796	0.659119	0.007783
 490	2.4450e-01	4.8883	2.811422	0.000402	4.019064	0.680848	0.008039
 491	2.4500e-01	4.8959	2.846915	0.000355	3.548748	0.601174	0.007099
 492	2.4550e-01	4.9060	2.887112	0.000402	4.019064	0.680848	0.008039
 493	2.4600e-01	4.9152	2.919612	0.000325	3.249456	0.550473	0.006500
 494	2.4650e-01	4.9255	2.956815	0.000372	3.719772	0.630146	0.007441
 495	2.4700e-01	4.9344	2.994874	0.000381	3.805284	0.644633	0.007612
 496	2.4750e-01	4.9469	3.031222	0.000363	3.634260	0.615660	0.007270
 497	2.4800e-01	4.9539	3.081254	0.000500	5.002452	0.847438	0.010006
 498	2.4850e-01	4.9646	3.114609	0.000333	3.334968	0.564959	0.006671
 499	2.4900e-01	4.9772	3.147963	0.000333	3.334968	0.564959	0.006671
 500	2.4950e-01	4.9878	3.190726	0.000428	4.275600	0.724306	0.008553
 501	2.5000e-01	4.9963	3.218949	0.000282	2.821896	0.478042	0.005645
 502	2.5050e-01	5.0098	3.252732	0.000338	3.377724	0.572202	0.006756
 503	2.5100e-01	5.0179	3.291218	0.000385	3.848040	0.651876	0.007697
 504	2.5150e-01	5.0272	3.331415	0.000402	4.019064	0.680848	0.008039
 505	2.5200e-01	5.0360	3.369901	0.000385	3.848040	0.651876	0.007697
 506	2.5250e-01	5.0477	3.413091	0.000432	4.318356	0.731549	0.008638
 507	2.5300e-01	5.0556	3.444735	0.000316	3.163944	0.535987	0.006329
 508	2.5350e-01	5.0671	3.476807	0.000321	3.206700	0.543230	0.006414
 509	2.5400e-01	5.0772	3.521708	0.000449	4.489380	0.760522	0.008980
 510	2.5450e-01	5.0848	3.560622	0.000389	3.890796	0.659119	0.007783
 511	2.5500e-01	5.0943	3.597825	0.000372	3.719772	0.630146	0.007441
 512	2.5550e-01	5.1064	3.636312	0.000385	3.848040	0.651876	0.007697
 513	2.5600e-01	5.1157	3.677791	0.000415	4.147332	0.702577	0.008296
 514	2.5650e-01	5.1279	3.706870	0.000291	2.907408	0.492528	0.005816
 515	2.5700e-01	5.1355	3.745356	0.000385	3.848040	0.651876	0.007697
 516	2.5750e-01	5.1453	3.778283	0.000329	3.292212	0.557716	0.006585
 517	2.5800e-01	5.1559	3.817197	0.000389	3.890796	0.659119	0.007783
 518	2.5850e-01	5.1619	3.860387	0.000432	4.318356	0.731549	0.008638
 519	2.5900e-01	5.1758	3.891604	0.000312	3.121188	0.528744	0.006243
 520	2.5950e-01	5.1862	3.918544	0.000269	2.693628	0.456313	0.005388
 521	2.6000e-01	5.1947	3.965583	0.000470	4.703160	0.796737	0.009408
 522	2.6050e-01	5.2042	4.010056	0.000445	4.446624	0.753279	0.008895
 523	2.6100e-01	5.2164	4.029727	0.000197	1.966776	0.333181	0.003934
 524	2.6150e-01	5.2277	4.074627	0.000449	4.489380	0.760522	0.008980
 525	2.6200e-01	5.2357	4.100713	0.000261	2.608116	0.441827	0.005217
 526	2.6250e-01	5.2469	4.143475	0.000428	4.275600	0.724306	0.008553
 527	2.6300e-01	5.2570	4.182817	0.000393	3.933552	0.666362	0.007868
 528	2.6350e-01	5.2668	4.217027	0.000342	3.420480	0.579445	0.006842
 529	2.6400e-01	5.2756	4.258506	0.000415	4.147332	0.702577	0.008296
 530	2.6450e-01	5.2861	4.291433	0.000329	3.292212	0.557716	0.006585
 531	2.6500e-01	5.2985	4.320084	0.000286	2.864652	0.485285	0.005730
 532	2.6550e-01	5.3064	4.376103	0.000560	5.601036	0.948841	0.011204
 533	2.6600e-01	5.3174	4.406037	0.000299	2.992920	0.507014	0.005987
 534	2.6650e-01	5.3247	4.442385	0.000363	3.634260	0.615660	0.007270
 535	2.6700e-01	5.3351	4.474029	0.000316	3.163944	0.535987	0.006329
 536	2.6750e-01	5.3474	4.506529	0.000325	3.249456	0.550473	0.006500
 537	2.6800e-01	5.3564	4.548864	0.000423	4.232844	0.717063	0.008467
 538	2.6850e-01	5.3662	4.587350	0.000385	3.848040	0.651876	0.007697
 539	2.6900e-01	5.3754	4.625836	0.000385	3.848040	0.651876	0.007697
 540	2.6950e-01	5.3857	4.663895	0.000381	3.805284	0.644633	0.007612
 541	2.7000e-01	5.3979	4.692974	0.000291	2.907408	0.492528	0.005816
 542	2.7050e-01	5.4047	4.724190	0.000312	3.121188	0.528744	0.006243
 543	2.7100e-01	5.4169	4.760538	0.000363	3.634260	0.615660	0.007270
 544	2.7150e-01	5.4254	4.801163	0.000406	4.061820	0.688091	0.008125
 545	2.7200e-01	5.4385	4.838794	0.000376	3.762528	0.637390	0.007526
 546	2.7250e-01	5.4474	4.876852	0.000381	3.805284	0.644633	0.007612
 547	2.7300e-01	5.4590	4.903793	0.000269	2.693628	0.456313	0.005388
 548	2.7350e-01	5.4671	4.943134	0.000393	3.933552	0.666362	0.007868
 549	2.7400e-01	5.4736	4.992311	0.000492	4.916940	0.832952	0.009835
 550	2.7450e-01	5.4865	5.021390	0.000291	2.907408	0.492528	0.005816
 551	2.7500e-01	5.4956	5.059876	0.000385	3.848040	0.651876	0.007697
 552	2.7550e-01	5.5072	5.090237	0.000304	3.035676	0.514257	0.006072
 553	2.7600e-01	5.5164	5.126158	0.000359	3.591504	0.608417	0.007184
 554	2.7650e-01	5.5257	5.161223	0.000351	3.505992	0.593931	0.007013
 555	2.7700e-01	5.5362	5.200565	0.000393	3.933552	0.666362	0.007868
 556	2.7750e-01	5.5475	5.240334	0.000398	3.976308	0.673605	0.007954
 557	2.7800e-01	5.5563	5.265991	0.000257	2.565360	0.434584	0.005132
 558	2.7850e-01	5.5670	5.308326	0.000423	4.232844	0.717063	0.008467
 559	2.7900e-01	5.5740	5.345102	0.000368	3.677016	0.622903	0.007355
 560	2.7950e-01	5.5878	5.376319	0.000312	3.121188	0.528744	0.006243
 561	2.8000e-01	5.5948	5.416943	0.000406	4.061820	0.688091	0.008125
 562	2.8050e-01	5.6061	5.445166	0.000282	2.821896	0.478042	0.005645
 563	2.8100e-01	5.6160	5.480659	0.000355	3.548748	0.601174	0.007099
 564	2.8150e-01	5.6274	5.511876	0.000312	3.121188	0.528744	0.006243
 565	2.8200e-01	5.6363	5.552928	0.000410	4.104576	0.695334	0.008210
 566	2.8250e-01	5.6451	5.585000	0.000321	3.206700	0.543230	0.006414
 567	2.8300e-01	5.6555	5.627762	0.000428	4.275600	0.724306	0.008553
 568	2.8350e-01	5.6683	5.659407	0.000316	3.163944	0.535987	0.006329
 569	2.8400e-01	5.6775	5.694044	0.000346	3.463236	0.586688	0.006928
 570	2.8450e-01	5.6860	5.736807	0.000428	4.275600	0.724306	0.008553
 571	2.8500e-01	5.6952	5.767168	0.000304	3.035676	0.514257	0.006072
 572	2.8550e-01	5.7086	5.802661	0.000355	3.548748	0.601174	0.007099
 573	2.8600e-01	5.7190	5.841147	0.000385	3.848040	0.651876	0.007697
 574	2.8650e-01	5.7275	5.866805	0.000257	2.565360	0.434584	0.005132
 575	2.8700e-01	5.7367	5.906574	0.000398	3.976308	0.673605	0.007954
 576	2.8750e-01	5.7465	5.949764	0.000432	4.318356	0.731549	0.008638
 577	2.8800e-01	5.7550	5.976705	0.000269	2.693628	0.456313	0.005388
 578	2.8850e-01	5.7635	6.012198	0.000355	3.548748	0.601174	0.007099
 579	2.8900e-01	5.7770	6.054532	0.000423	4.232844	0.717063	0.008467
 580	2.8950e-01	5.7837	6.083183	0.000286	2.864652	0.485285	0.005730
 581	2.9000e-01	5.7970	6.122952	0.000398	3.976308	0.673605	0.007954
 582	2.9050e-01	5.8041	6.152886	0.000299	2.992920	0.507014	0.005987
 583	2.9100e-01	5.8154	6.188807	0.000359	3.591504	0.608417	0.007184
 584	2.9150e-01	5.8252	6.232852	0.000440	4.403868	0.746035	0.008809
 585	2.9200e-01	5.8398	6.251240	0.000184	1.838508	0.311452	0.003678
 586	2.9250e-01	5.8463	6.291864	0.000406	4.061820	0.688091	0.008125
 587	2.9300e-01	5.8551	6.338903	0.000470	4.703160	0.796737	0.009408
 588	2.9350e-01	5.8644	6.366699	0.000278	2.779140	0.470799	0.005559
 589	2.9400e-01	5.8749	6.398343	0.000316	3.163944	0.535987	0.006329
 590	2.9450e-01	5.8862	6.437257	0.000389	3.890796	0.659119	0.007783
 591	2.9500e-01	5.8978	6.467618	0.000304	3.035676	0.514257	0.006072
 592	2.9550e-01	5.9076	6.499263	0.000316	3.163944	0.535987	0.006329
 593	2.9600e-01	5.9174	6.532190	0.000329	3.292212	0.557716	0.006585
 594	2.9650e-01	5.9271	6.570676	0.000385	3.848040	0.651876	0.007697
 595	2.9700e-01	5.9406	6.610873	0.000402	4.019064	0.680848	0.008039
 596	2.9750e-01	5.9476	6.647649	0.000368	3.677016	0.622903	0.007355
 597	2.9800e-01	5.9552	6.670313	0.000227	2.266068	0.383882	0.004533
 598	2.9850e-01	5.9692	6.717779	0.000475	4.745916	0.803980	0.009493
 599	2.9900e-01	5.9778	6.744720	0.000269	2.693628	0.456313	0.005388
 600	2.9950e-01	5.9854	6.778502	0.000338	3.377724	0.572202	0.006756
 601	3.0000e-01	5.9964	6.823403	0.000449	4.489380	0.760522	0.008980
 602	3.0050e-01	6.0040	6.855902	0.000325	3.249456	0.550473	0.006500
 603	3.0100e-01	6.0157	6.884125	0.000282	2.821896	0.478042	0.005645
 604	3.0150e-01	6.0275	6.915342	0.000312	3.121188	0.528744	0.006243
 605	3.0200e-01	6.0358	6.957249	0.000419	4.190088	0.709820	0.008381
 606	3.0250e-01	6.0471	6.992315	0.000351	3.505992	0.593931	0.007013
 607	3.0300e-01	6.0590	7.021821	0.000295	2.950164	0.499771	0.005901
 608	3.0350e-01	6.0693	7.064156	0.000423	4.232844	0.717063	0.008467
 609	3.0400e-01	6.0773	7.086392	0.000222	2.223312	0.376639	0.004447
 610	3.0450e-01	6.0876	7.120602	0.000342	3.420480	0.579445	0.006842
 611	3.0500e-01	6.0992	7.150964	0.000304	3.035676	0.514257	0.006072
 612	3.0550e-01	6.1084	7.188595	0.000376	3.762528	0.637390	0.007526
 613	3.0600e-01	6.1169	7.224943	0.000363	3.634260	0.615660	0.007270
 614	3.0650e-01	6.1255	7.257442	0.000325	3.249456	0.550473	0.006500
 615	3.0700e-01	6.1389	7.288659	0.000312	3.121188	0.528744	0.006243
 616	3.0750e-01	6.1478	7.335698	0.000470	4.703160	0.796737	0.009408
 617	3.0800e-01	6.1555	7.373329	0.000376	3.762528	0.637390	0.007526
 618	3.0850e-01	6.1673	7.407539	0.000342	3.420480	0.579445	0.006842
 619	3.0900e-01	6.1750	7.437473	0.000299	2.992920	0.507014	0.005987
 620	3.0950e-01	6.1890	7.475104	0.000376	3.762528	0.637390	0.007526
 621	3.1000e-01	6.1969	7.495202	0.000201	2.009532	0.340424	0.004020
 622	3.1050e-01	6.2085	7.537537	0.000423	4.232844	0.717063	0.008467
 623	3.1100e-01	6.2152	7.574313	0.000368	3.677016	0.622903	0.007355
 624	3.1150e-01	6.2256	7.596549	0.000222	2.223312	0.376639	0.004447
 625	3.1200e-01	6.2378	7.635035	0.000385	3.848040	0.651876	0.007697
 626	3.1250e-01	6.2476	7.665397	0.000304	3.035676	0.514257	0.006072
 627	3.1300e-01	6.2555	7.714146	0.000487	4.874184	0.825709	0.009750
 628	3.1350e-01	6.2659	7.745790	0.000316	3.163944	0.535987	0.006329
 629	3.1400e-01	6.2756	7.770165	0.000244	2.437092	0.412855	0.004875
 630	3.1450e-01	6.2872	7.807796	0.000376	3.762528	0.637390	0.007526
 631	3.1500e-01	6.2988	7.844144	0.000363	3.634260	0.615660	0.007270
 632	3.1550e-01	6.3098	7.881775	0.000376	3.762528	0.637390	0.007526
 633	3.1600e-01	6.3147	7.911709	0.000299	2.992920	0.507014	0.005987
 634	3.1650e-01	6.3266	7.939932	0.000282	2.821896	0.478042	0.005645
 635	3.1700e-01	6.3345	7.976280	0.000363	3.634260	0.615660	0.007270
 636	3.1750e-01	6.3461	8.001083	0.000248	2.479848	0.420098	0.004960
 637	3.1800e-01	6.3562	8.037858	0.000368	3.677016	0.622903	0.007355
 638	3.1850e-01	6.3647	8.081049	0.000432	4.318356	0.731549	0.008638
 639	3.1900e-01	6.3736	8.103713	0.000227	2.266068	0.383882	0.004533
 640	3.1950e-01	6.3843	8.146903	0.000432	4.318356	0.731549	0.008638
 641	3.2000e-01	6.3947	8.173416	0.000265	2.650872	0.449070	0.005303
 642	3.2050e-01	6.4087	8.204205	0.000308	3.078432	0.521501	0.006158
 643	3.2100e-01	6.4172	8.244401	0.000402	4.019064	0.680848	0.008039
 644	3.2150e-01	6.4258	8.276473	0.000321	3.206700	0.543230	0.006414
 645	3.2200e-01	6.4359	8.313249	0.000368	3.677016	0.622903	0.007355
 646	3.2250e-01	6.4459	8.337196	0.000239	2.394336	0.405612	0.004789
 647	3.2300e-01	6.4551	8.383807	0.000466	4.660404	0.789494	0.009322
 648	3.2350e-01	6.4667	8.409892	0.000261	2.608116	0.441827	0.005217
 649	3.2400e-01	6.4764	8.440681	0.000308	3.078432	0.521501	0.006158
 650	3.2450e-01	6.4856	8.477885	0.000372	3.719772	0.630146	0.007441
 651	3.2500e-01	6.4957	8.512095	0.000342	3.420480	0.579445	0.006842
 652	3.2550e-01	6.5067	8.556568	0.000445	4.446624	0.753279	0.008895
 653	3.2600e-01	6.5167	8.574528	0.000180	1.795752	0.304209	0.003592
 654	3.2650e-01	6.5277	8.610876	0.000363	3.634260	0.615660	0.007270
 655	3.2700e-01	6.5359	8.638244	0.000274	2.736384	0.463556	0.005474
 656	3.2750e-01	6.5488	8.670744	0.000325	3.249456	0.550473	0.006500
 657	3.2800e-01	6.5558	8.717355	0.000466	4.660404	0.789494	0.009322
 658	3.2850e-01	6.5674	8.740874	0.000235	2.351580	0.398368	0.004704
 659	3.2900e-01	6.5729	8.776795	0.000359	3.591504	0.608417	0.007184
 660	3.2950e-01	6.5863	8.818702	0.000419	4.190088	0.709820	0.008381
 661	3.3000e-01	6.5961	8.840939	0.000222	2.223312	0.376639	0.004447
 662	3.3050e-01	6.6072	8.878570	0.000376	3.762528	0.637390	0.007526
 663	3.3100e-01	6.6180	8.909359	0.000308	3.078432	0.521501	0.006158
 664	3.3150e-01	6.6281	8.941858	0.000325	3.249456	0.550473	0.006500
 665	3.3200e-01	6.6376	8.975213	0.000333	3.334968	0.564959	0.006671
 666	3.3250e-01	6.6446	9.006857	0.000316	3.163944	0.535987	0.006329
 667	3.3300e-01	6.6547	9.045771	0.000389	3.890796	0.659119	0.007783
 668	3.3350e-01	6.6681	9.071856	0.000261	2.608116	0.441827	0.005217
 669	3.3400e-01	6.6797	9.104356	0.000325	3.249456	0.550473	0.006500
 670	3.3450e-01	6.6864	9.138994	0.000346	3.463236	0.586688	0.006928
 671	3.3500e-01	6.6956	9.170210	0.000312	3.121188	0.528744	0.006243
 672	3.3550e-01	6.7053	9.206986	0.000368	3.677016	0.622903	0.007355
 673	3.3600e-01	6.7151	9.236064	0.000291	2.907408	0.492528	0.005816
 674	3.3650e-01	6.7252	9.272840	0.000368	3.677016	0.622903	0.007355
 675	3.3700e-01	6.7371	9.300208	0.000274	2.736384	0.463556	0.005474
 676	3.3750e-01	6.7465	9.335274	0.000351	3.505992	0.593931	0.007013
 677	3.3800e-01	6.7554	9.380174	0.000449	4.489380	0.760522	0.008980
 678	3.3850e-01	6.7657	9.406687	0.000265	2.650872	0.449070	0.005303
 679	3.3900e-01	6.7749	9.437476	0.000308	3.078432	0.521501	0.006158
 680	3.3950e-01	6.7859	9.455864	0.000184	1.838508	0.311452	0.003678
 681	3.4000e-01	6.7975	9.499909	0.000440	4.403868	0.746035	0.008809
 682	3.4050e-01	6.8073	9.525139	0.000252	2.522604	0.427341	0.005046
 683	3.4100e-01	6.8164	9.555073	0.000299	2.992920	0.507014	0.005987
 684	3.4150e-01	6.8243	9.596980	0.000419	4.190088	0.709820	0.008381
 685	3.4200e-01	6.8362	9.638460	0.000415	4.147332	0.702577	0.008296
 686	3.4250e-01	6.8469	9.667966	0.000295	2.950164	0.499771	0.005901
 687	3.4300e-01	6.8561	9.705169	0.000372	3.719772	0.630146	0.007441
 688	3.4350e-01	6.8677	9.722274	0.000171	1.710240	0.289723	0.003421
 689	3.4400e-01	6.8750	9.760761	0.000385	3.848040	0.651876	0.007697
 690	3.4450e-01	6.8867	9.786846	0.000261	2.608116	0.441827	0.005217
 691	3.4500e-01	6.8983	9.827898	0.000410	4.104576	0.695334	0.008210
 692	3.4550e-01	6.9058	9.858687	0.000308	3.078432	0.521501	0.006158
 693	3.4600e-01	6.9147	9.889048	0.000304	3.035676	0.514257	0.006072
 694	3.4650e-01	6.9263	9.915133	0.000261	2.608116	0.441827	0.005217
 695	3.4700e-01	6.9373	9.951482	0.000363	3.634260	0.615660	0.007270
 696	3.4750e-01	6.9470	9.977567	0.000261	2.608116	0.441827	0.005217
 697	3.4800e-01	6.9586	10.020329	0.000428	4.275600	0.724306	0.008553
 698	3.4850e-01	6.9666	10.050691	0.000304	3.035676	0.514257	0.006072
 699	3.4900e-01	6.9739	10.090887	0.000402	4.019064	0.680848	0.008039
 700	3.4950e-01	6.9861	10.120394	0.000295	2.950164	0.499771	0.005901
 701	3.5000e-01	6.9989	10.145623	0.000252	2.522604	0.427341	0.005046
 702	3.5050e-01	7.0084	10.185820	0.000402	4.019064	0.680848	0.008039
 703	3.5100e-01	7.0172	10.217892	0.000321	3.206700	0.543230	0.006414
 704	3.5150e-01	7.0258	10.234997	0.000171	1.710240	0.289723	0.003421
 705	3.5200e-01	7.0355	10.274339	0.000393	3.933552	0.666362	0.007868
 706	3.5250e-01	7.0453	10.317101	0.000428	4.275600	0.724306	0.008553
 707	3.5300e-01	7.0575	10.343614	0.000265	2.650872	0.449070	0.005303
 708	3.5350e-01	7.0657	10.378252	0.000346	3.463236	0.586688	0.006928
 709	3.5400e-01	7.0761	10.405192	0.000269	2.693628	0.456313	0.005388
 710	3.5450e-01	7.0862	10.440257	0.000351	3.505992	0.593931	0.007013
 711	3.5500e-01	7.0961	10.469763	0.000295	2.950164	0.499771	0.005901
 712	3.5550e-01	7.1051	10.502263	0.000325	3.249456	0.550473	0.006500
 713	3.5600e-01	7.1164	10.524072	0.000218	2.180556	0.369396	0.004362
 714	3.5650e-01	7.1252	10.570255	0.000462	4.617648	0.782251	0.009237
 715	3.5700e-01	7.1350	10.603182	0.000329	3.292212	0.557716	0.006585
 716	3.5750e-01	7.1475	10.639958	0.000368	3.677016	0.622903	0.007355
 717	3.5800e-01	7.1567	10.669037	0.000291	2.907408	0.492528	0.005816
 718	3.5850e-01	7.1677	10.692984	0.000239	2.394336	0.405612	0.004789
 719	3.5900e-01	7.1759	10.736602	0.000436	4.361112	0.738792	0.008724
 720	3.5950e-01	7.1875	10.752851	0.000162	1.624728	0.275236	0.003250
 721	3.6000e-01	7.1991	10.789199	0.000363	3.634260	0.615660	0.007270
 722	3.6050e-01	7.2089	10.825975	0.000368	3.677016	0.622903	0.007355
 723	3.6100e-01	7.2153	10.854199	0.000282	2.821896	0.478042	0.005645
 724	3.6150e-01	7.2275	10.886270	0.000321	3.206700	0.543230	0.006414
 725	3.6200e-01	7.2357	10.908079	0.000218	2.180556	0.369396	0.004362
 726	3.6250e-01	7.2467	10.955546	0.000475	4.745916	0.803980	0.009493
 727	3.6300e-01	7.2589	10.978637	0.000231	2.308824	0.391125	0.004618
 728	3.6350e-01	7.2672	11.008571	0.000299	2.992920	0.507014	0.005987
 729	3.6400e-01	7.2754	11.044064	0.000355	3.548748	0.601174	0.007099
 730	3.6450e-01	7.2858	11.074426	0.000304	3.035676	0.514257	0.006072
 731	3.6500e-01	7.2974	11.112484	0.000381	3.805284	0.644633	0.007612
 732	3.6550e-01	7.3035	11.135148	0.000227	2.266068	0.383882	0.004533
 733	3.6600e-01	7.3163	11.180477	0.000453	4.532136	0.767765	0.009066
 734	3.6650e-01	7.3288	11.200575	0.000201	2.009532	0.340424	0.004020
 735	3.6700e-01	7.3395	11.237351	0.000368	3.677016	0.622903	0.007355
 736	3.6750e-01	7.3482	11.269423	0.000321	3.206700	0.543230	0.006414
 737	3.6800e-01	7.3553	11.298929	0.000295	2.950164	0.499771	0.005901
 738	3.6850e-01	7.3676	11.330145	0.000312	3.121188	0.528744	0.006243
 739	3.6900e-01	7.3743	11.363500	0.000333	3.334968	0.564959	0.006671
 740	3.6950e-01	7.3920	11.401559	0.000381	3.805284	0.644633	0.007612
 741	3.7000e-01	7.3962	11.427216	0.000257	2.565360	0.434584	0.005132
 742	3.7050e-01	7.4063	11.450736	0.000235	2.351580	0.398368	0.004704
 743	3.7100e-01	7.4146	11.485801	0.000351	3.505992	0.593931	0.007013
 744	3.7150e-01	7.4263	11.520866	0.000351	3.505992	0.593931	0.007013
 745	3.7200e-01	7.4384	11.552938	0.000321	3.206700	0.543230	0.006414
 746	3.7250e-01	7.4458	11.585865	0.000329	3.292212	0.557716	0.006585
 747	3.7300e-01	7.4561	11.623069	0.000372	3.719772	0.630146	0.007441
 748	3.7350e-01	7.4658	11.643595	0.000205	2.052288	0.347667	0.004105
 749	3.7400e-01	7.4768	11.673956	0.000304	3.035676	0.514257	0.006072
 750	3.7450e-01	7.4872	11.710732	0.000368	3.677016	0.622903	0.007355
 751	3.7500e-01	7.4936	11.747935	0.000372	3.719772	0.630146	0.007441
 752	3.7550e-01	7.5081	11.769744	0.000218	2.180556	0.369396	0.004362
 753	3.7600e-01	7.5195	11.803099	0.000333	3.334968	0.564959	0.006671
 754	3.7650e-01	7.5296	11.833888	0.000308	3.078432	0.521501	0.006158
 755	3.7700e-01	7.5366	11.868953	0.000351	3.505992	0.593931	0.007013
 756	3.7750e-01	7.5494	11.900170	0.000312	3.121188	0.528744	0.006243
 757	3.7800e-01	7.5577	11.934380	0.000342	3.420480	0.579445	0.006842
 758	3.7850e-01	7.5690	11.956616	0.000222	2.223312	0.376639	0.004447
 759	3.7900e-01	7.5757	11.999807	0.000432	4.318356	0.731549	0.008638
 760	3.7950e-01	7.5879	12.020760	0.000210	2.095044	0.354910	0.004191
 761	3.8000e-01	7.5989	12.060529	0.000398	3.976308	0.673605	0.007954
 762	3.8050e-01	7.6031	12.092174	0.000316	3.163944	0.535987	0.006329
 763	3.8100e-01	7.6138	12.120397	0.000282	2.821896	0.478042	0.005645
 764	3.8150e-01	7.6282	12.158028	0.000376	3.762528	0.637390	0.007526
 765	3.8200e-01	7.6363	12.174278	0.000162	1.624728	0.275236	0.003250
 766	3.8250e-01	7.6450	12.216185	0.000419	4.190088	0.709820	0.008381
 767	3.8300e-01	7.6556	12.243125	0.000269	2.693628	0.456313	0.005388
 768	3.8350e-01	7.6657	12.273914	0.000308	3.078432	0.521501	0.006158
 769	3.8400e-01	7.6758	12.298717	0.000248	2.479848	0.420098	0.004960
 770	3.8450e-01	7.6868	12.336775	0.000381	3.805284	0.644633	0.007612
 771	3.8500e-01	7.6971	12.371413	0.000346	3.463236	0.586688	0.006928
 772	3.8550e-01	7.7045	12.400064	0.000286	2.864652	0.485285	0.005730
 773	3.8600e-01	7.7136	12.433846	0.000338	3.377724	0.572202	0.006756
 774	3.8650e-01	7.7240	12.459504	0.000257	2.565360	0.434584	0.005132
 775	3.8700e-01	7.7362	12.495424	0.000359	3.591504	0.608417	0.007184
 776	3.8750e-01	7.7454	12.532200	0.000368	3.677016	0.622903	0.007355
 777	3.8800e-01	7.7560	12.556575	0.000244	2.437092	0.412855	0.004875
 778	3.8850e-01	7.7649	12.588647	0.000321	3.206700	0.543230	0.006414
 779	3.8900e-01	7.7759	12.620719	0.000321	3.206700	0.543230	0.006414
 780	3.8950e-01	7.7832	12.653646	0.000329	3.292212	0.557716	0.006585
 781	3.9000e-01	7.7954	12.676310	0.000227	2.266068	0.383882	0.004533
 782	3.9050e-01	7.8052	12.719072	0.000428	4.275600	0.724306	0.008553
 783	3.9100e-01	7.8162	12.743019	0.000239	2.394336	0.405612	0.004789
 784	3.9150e-01	7.8253	12.775947	0.000329	3.292212	0.557716	0.006585
 785	3.9200e-01	7.8363	12.810157	0.000342	3.420480	0.579445	0.006842
 786	3.9250e-01	7.8467	12.843084	0.000329	3.292212	0.557716	0.006585
 787	3.9300e-01	7.8561	12.863610	0.000205	2.052288	0.347667	0.004105
 788	3.9350e-01	7.8668	12.896964	0.000333	3.334968	0.564959	0.006671
 789	3.9400e-01	7.8760	12.934595	0.000376	3.762528	0.637390	0.007526
 790	3.9450e-01	7.8870	12.961536	0.000269	2.693628	0.456313	0.005388
 791	3.9500e-01	7.8964	12.994035	0.000325	3.249456	0.550473	0.006500
 792	3.9550e-01	7.9062	13.023114	0.000291	2.907408	0.492528	0.005816
 793	3.9600e-01	7.9153	13.063311	0.000402	4.019064	0.680848	0.008039
 794	3.9650e-01	7.9266	13.086830	0.000235	2.351580	0.398368	0.004704
 795	3.9700e-01	7.9352	13.117619	0.000308	3.078432	0.521501	0.006158
 796	3.9750e-01	7.9474	13.164230	0.000466	4.660404	0.789494	0.009322
 797	3.9800e-01	7.9553	13.175776	0.000115	1.154412	0.195563	0.002309
 798	3.9850e-01	7.9657	13.219822	0.000440	4.403868	0.746035	0.008809
 799	3.9900e-01	7.9761	13.236071	0.000162	1.624728	0.275236	0.003250
 800	3.9950e-01	7.9877	13.276696	0.000406	4.061820	0.688091	0.008125
 801	4.0000e-01	7.9956	13.299360	0.000227	2.266068	0.383882	0.004533
 802	4.0050e-01	8.0042	13.332715	0.000333	3.334968	0.564959	0.006671
 803	4.0100e-01	8.0164	13.375477	0.000428	4.275600	0.724306	0.008553
 804	4.0150e-01	8.0270	13.391299	0.000158	1.581972	0.267993	0.003164
 805	4.0200e-01	8.0338	13.425509	0.000342	3.420480	0.579445	0.006842
 806	4.0250e-01	8.0466	13.461002	0.000355	3.548748	0.601174	0.007099
 807	4.0300e-01	8.0560	13.493074	0.000321	3.206700	0.543230	0.006414
 808	4.0350e-01	8.0658	13.526429	0.000333	3.334968	0.564959	0.006671
 809	4.0400e-01	8.0740	13.563632	0.000372	3.719772	0.630146	0.007441
 810	4.0450e-01	8.0850	13.586296	0.000227	2.266068	0.383882	0.004533
 811	4.0500e-01	8.0966	13.610671	0.000244	2.437092	0.412855	0.004875
 812	4.0550e-01	8.1055	13.653861	0.000432	4.318356	0.731549	0.008638
 813	4.0600e-01	8.1134	13.687644	0.000338	3.377724	0.572202	0.006756
 814	4.0650e-01	8.1250	13.705176	0.000175	1.752996	0.296966	0.003507
 815	4.0700e-01	8.1357	13.746228	0.000410	4.104576	0.695334	0.008210
 816	4.0750e-01	8.1470	13.773169	0.000269	2.693628	0.456313	0.005388
 817	4.0800e-01	8.1567	13.805241	0.000321	3.206700	0.543230	0.006414
 818	4.0850e-01	8.1653	13.835174	0.000299	2.992920	0.507014	0.005987
 819	4.0900e-01	8.1766	13.858266	0.000231	2.308824	0.391125	0.004618
 820	4.0950e-01	8.1879	13.896325	0.000381	3.805284	0.644633	0.007612
 821	4.1000e-01	8.1958	13.927541	0.000312	3.121188	0.528744	0.006243
 822	4.1050e-01	8.2074	13.964745	0.000372	3.719772	0.630146	0.007441
 823	4.1100e-01	8.2190	13.991258	0.000265	2.650872	0.449070	0.005303
 824	4.1150e-01	8.2275	14.008790	0.000175	1.752996	0.296966	0.003507
 825	4.1200e-01	8.2373	14.057539	0.000487	4.874184	0.825709	0.009750
 826	4.1250e-01	8.2455	14.092605	0.000351	3.505992	0.593931	0.007013
 827	4.1300e-01	8.2562	14.121256	0.000286	2.864652	0.485285	0.005730
 828	4.1350e-01	8.2690	14.141354	0.000201	2.009532	0.340424	0.004020
 829	4.1400e-01	8.2773	14.173426	0.000321	3.206700	0.543230	0.006414
 830	4.1450e-01	8.2875	14.206781	0.000333	3.334968	0.564959	0.006671
 831	4.1500e-01	8.2959	14.233293	0.000265	2.650872	0.449070	0.005303
 832	4.1550e-01	8.3051	14.264938	0.000316	3.163944	0.535987	0.006329
 833	4.1600e-01	8.3167	14.300858	0.000359	3.591504	0.608417	0.007184
 834	4.1650e-01	8.3276	14.328654	0.000278	2.779140	0.470799	0.005559
 835	4.1700e-01	8.3374	14.360298	0.000316	3.163944	0.535987	0.006329
 836	4.1750e-01	8.3502	14.377403	0.000171	1.710240	0.289723	0.003421
 837	4.1800e-01	8.3588	14.421449	0.000440	4.403868	0.746035	0.008809
 838	4.1850e-01	8.3667	14.459935	0.000385	3.848040	0.651876	0.007697
 839	4.1900e-01	8.3774	14.480888	0.000210	2.095044	0.354910	0.004191
 840	4.1950e-01	8.3862	14.518520	0.000376	3.762528	0.637390	0.007526
 841	4.2000e-01	8.3987	14.548881	0.000304	3.035676	0.514257	0.006072
 842	4.2050e-01	8.4064	14.576249	0.000274	2.736384	0.463556	0.005474
 843	4.2100e-01	8.4174	14.609604	0.000333	3.334968	0.564959	0.006671
 844	4.2150e-01	8.4302	14.638682	0.000291	2.907408	0.492528	0.005816
 845	4.2200e-01	8.4351	14.670754	0.000321	3.206700	0.543230	0.006414
 846	4.2250e-01	8.4430	14.707102	0.000363	3.634260	0.615660	0.007270
 847	4.2300e-01	8.4546	14.732760	0.000257	2.565360	0.434584	0.005132
 848	4.2350e-01	8.4662	14.759273	0.000265	2.650872	0.449070	0.005303
 849	4.2400e-01	8.4787	14.791772	0.000325	3.249456	0.550473	0.006500
 850	4.2450e-01	8.4863	14.832824	0.000410	4.104576	0.695334	0.008210
 851	4.2500e-01	8.4973	14.854205	0.000214	2.137800	0.362153	0.004276
 852	4.2550e-01	8.5059	14.885422	0.000312	3.121188	0.528744	0.006243
 853	4.2600e-01	8.5176	14.916639	0.000312	3.121188	0.528744	0.006243
 854	4.2650e-01	8.5254	14.949993	0.000333	3.334968	0.564959	0.006671
 855	4.2700e-01	8.5364	14.985486	0.000355	3.548748	0.601174	0.007099
 856	4.2750e-01	8.5455	15.009861	0.000244	2.437092	0.412855	0.004875
 857	4.2800e-01	8.5568	15.052196	0.000423	4.232844	0.717063	0.008467
 858	4.2850e-01	8.5687	15.069301	0.000171	1.710240	0.289723	0.003421
 859	4.2900e-01	8.5779	15.106932	0.000376	3.762528	0.637390	0.007526
 860	4.2950e-01	8.5880	15.137721	0.000308	3.078432	0.521501	0.006158
 861	4.3000e-01	8.5989	15.162951	0.000252	2.522604	0.427341	0.005046
 862	4.3050e-01	8.6084	15.195023	0.000321	3.206700	0.543230	0.006414
 863	4.3100e-01	8.6163	15.231371	0.000363	3.634260	0.615660	0.007270
 864	4.3150e-01	8.6246	15.260877	0.000295	2.950164	0.499771	0.005901
 865	4.3200e-01	8.6359	15.295515	0.000346	3.463236	0.586688	0.006928
 866	4.3250e-01	8.6475	15.330580	0.000351	3.505992	0.593931	0.007013
 867	4.3300e-01	8.6563	15.357520	0.000269	2.693628	0.456313	0.005388
 868	4.3350e-01	8.6676	15.381895	0.000244	2.437092	0.412855	0.004875
 869	4.3400e-01	8.6774	15.413112	0.000312	3.121188	0.528744	0.006243
 870	4.3450e-01	8.6884	15.440052	0.000269	2.693628	0.456313	0.005388
 871	4.3500e-01	8.6960	15.482387	0.000423	4.232844	0.717063	0.008467
 872	4.3550e-01	8.7067	15.522156	0.000398	3.976308	0.673605	0.007954
 873	4.3600e-01	8.7183	15.536695	0.000145	1.453704	0.246264	0.002908
 874	4.3650e-01	8.7262	15.576037	0.000393	3.933552	0.666362	0.007868
 875	4.3700e-01	8.7396	15.598701	0.000227	2.266068	0.383882	0.004533
 876	4.3750e-01	8.7469	15.629490	0.000308	3.078432	0.521501	0.006158
 877	4.3800e-01	8.7555	15.671397	0.000419	4.190088	0.709820	0.008381
 878	4.3850e-01	8.7665	15.700048	0.000286	2.864652	0.485285	0.005730
 879	4.3900e-01	8.7770	15.732120	0.000321	3.206700	0.543230	0.006414
 880	4.3950e-01	8.7891	15.754784	0.000227	2.266068	0.383882	0.004533
 881	4.4000e-01	8.7982	15.784290	0.000295	2.950164	0.499771	0.005901
 882	4.4050e-01	8.8074	15.817645	0.000333	3.334968	0.564959	0.006671
 883	4.4100e-01	8.8174	15.842447	0.000248	2.479848	0.420098	0.004960
 884	4.4150e-01	8.8287	15.881789	0.000393	3.933552	0.666362	0.007868
 885	4.4200e-01	8.8370	15.922413	0.000406	4.061820	0.688091	0.008125
 886	4.4250e-01	8.8477	15.946360	0.000239	2.394336	0.405612	0.004789
 887	4.4300e-01	8.8580	15.975011	0.000286	2.864652	0.485285	0.005730
 888	4.4350e-01	8.8684	16.003234	0.000282	2.821896	0.478042	0.005645
 889	4.4400e-01	8.8794	16.034879	0.000316	3.163944	0.535987	0.006329
 890	4.4450e-01	8.8885	16.062247	0.000274	2.736384	0.463556	0.005474
 891	4.4500e-01	8.8977	16.099023	0.000368	3.677016	0.622903	0.007355
 892	4.4550e-01	8.9063	16.132377	0.000333	3.334968	0.564959	0.006671
 893	4.4600e-01	8.9172	16.157607	0.000252	2.522604	0.427341	0.005046
 894	4.4650e-01	8.9252	16.201653	0.000440	4.403868	0.746035	0.008809
 895	4.4700e-01	8.9386	16.216192	0.000145	1.453704	0.246264	0.002908
 896	4.4750e-01	8.9465	16.254251	0.000381	3.805284	0.644633	0.007612
 897	4.4800e-01	8.9563	16.296158	0.000419	4.190088	0.709820	0.008381
 898	4.4850e-01	8.9655	16.315829	0.000197	1.966776	0.333181	0.003934
 899	4.4900e-01	8.9761	16.347900	0.000321	3.206700	0.543230	0.006414
 900	4.4950e-01	8.9880	16.379117	0.000312	3.121188	0.528744	0.006243
 901	4.5000e-01	8.9957	16.419741	0.000406	4.061820	0.688091	0.008125
 902	4.5050e-01	9.0070	16.455234	0.000355	3.548748	0.601174	0.007099
 903	4.5100e-01	9.0173	16.483458	0.000282	2.821896	0.478042	0.005645
 904	4.5150e-01	9.0237	16.513819	0.000304	3.035676	0.514257	0.006072
 905	4.5200e-01	9.0369	16.535200	0.000214	2.137800	0.362153	0.004276
 906	4.5250e-01	9.0454	16.567272	0.000321	3.206700	0.543230	0.006414
 907	4.5300e-01	9.0570	16.607041	0.000398	3.976308	0.673605	0.007954
 908	4.5350e-01	9.0628	16.637403	0.000304	3.035676	0.514257	0.006072
 909	4.5400e-01	9.0765	16.679738	0.000423	4.232844	0.717063	0.008467
 910	4.5450e-01	9.0881	16.702402	0.000227	2.266068	0.383882	0.004533
 911	4.5500e-01	9.0955	16.732763	0.000304	3.035676	0.514257	0.006072
 912	4.5550e-01	9.1095	16.770394	0.000376	3.762528	0.637390	0.007526
 913	4.5600e-01	9.1150	16.783223	0.000128	1.282680	0.217292	0.002566
 914	4.5650e-01	9.1272	16.813157	0.000299	2.992920	0.507014	0.005987
 915	4.5700e-01	9.1370	16.856347	0.000432	4.318356	0.731549	0.008638
 916	4.5750e-01	9.1479	16.898254	0.000419	4.190088	0.709820	0.008381
 917	4.5800e-01	9.1565	16.915787	0.000175	1.752996	0.296966	0.003507
 918	4.5850e-01	9.1675	16.948286	0.000325	3.249456	0.550473	0.006500
 919	4.5900e-01	9.1766	16.990621	0.000423	4.232844	0.717063	0.008467
 920	4.5950e-01	9.1870	17.010292	0.000197	1.966776	0.333181	0.003934
 921	4.6000e-01	9.1974	17.053055	0.000428	4.275600	0.724306	0.008553
 922	4.6050e-01	9.2096	17.071442	0.000184	1.838508	0.311452	0.003678
 923	4.6100e-01	9.2163	17.107363	0.000359	3.591504	0.608417	0.007184
 924	4.6150e-01	9.2230	17.140290	0.000329	3.292212	0.557716	0.006585
 925	4.6200e-01	9.2346	17.170651	0.000304	3.035676	0.514257	0.006072
 926	4.6250e-01	9.2450	17.207427	0.000368	3.677016	0.622903	0.007355
 927	4.6300e-01	9.2554	17.241637	0.000342	3.420480	0.579445	0.006842
 928	4.6350e-01	9.2657	17.269861	0.000282	2.821896	0.478042	0.005645
 929	4.6400e-01	9.2749	17.305781	0.000359	3.591504	0.608417	0.007184
 930	4.6450e-01	9.2871	17.333577	0.000278	2.779140	0.470799	0.005559
 931	4.6500e-01	9.2944	17.372063	0.000385	3.848040	0.651876	0.007697
 932	4.6550e-01	9.3054	17.394727	0.000227	2.266068	0.383882	0.004533
 933	4.6600e-01	9.3167	17.435779	0.000410	4.104576	0.695334	0.008210
 934	4.6650e-01	9.3265	17.466141	0.000304	3.035676	0.514257	0.006072
 935	4.6700e-01	9.3338	17.505482	0.000393	3.933552	0.666362	0.007868
 936	4.6750e-01	9.3457	17.523870	0.000184	1.838508	0.311452	0.003678
 937	4.6800e-01	9.3585	17.556797	0.000329	3.292212	0.557716	0.006585
 938	4.6850e-01	9.3677	17.588441	0.000316	3.163944	0.535987	0.006329
 939	4.6900e-01	9.3774	17.613671	0.000252	2.522604	0.427341	0.005046
 940	4.6950e-01	9.3866	17.644460	0.000308	3.078432	0.521501	0.006158
 941	4.7000e-01	9.3933	17.690644	0.000462	4.617648	0.782251	0.009237
 942	4.7050e-01	9.4055	17.712453	0.000218	2.180556	0.369396	0.004362
 943	4.7100e-01	9.4171	17.753077	0.000406	4.061820	0.688091	0.008125
 944	4.7150e-01	9.4269	17.774031	0.000210	2.095044	0.354910	0.004191
 945	4.7200e-01	9.4366	17.801826	0.000278	2.779140	0.470799	0.005559
 946	4.7250e-01	9.4470	17.848010	0.000462	4.617648	0.782251	0.009237
 947	4.7300e-01	9.4556	17.877088	0.000291	2.907408	0.492528	0.005816
 948	4.7350e-01	9.4666	17.908305	0.000312	3.121188	0.528744	0.006243
 949	4.7400e-01	9.4751	17.943370	0.000351	3.505992	0.593931	0.007013
 950	4.7450e-01	9.4867	17.975015	0.000316	3.163944	0.535987	0.006329
 951	4.7500e-01	9.4934	18.017350	0.000423	4.232844	0.717063	0.008467
 952	4.7550e-01	9.5032	18.041724	0.000244	2.437092	0.412855	0.004875
 953	4.7600e-01	9.5178	18.083631	0.000419	4.190088	0.709820	0.008381
 954	4.7650e-01	9.5270	18.103730	0.000201	2.009532	0.340424	0.004020
 955	4.7700e-01	9.5367	18.126822	0.000231	2.308824	0.391125	0.004618
 956	4.7750e-01	9.5453	18.182840	0.000560	5.601036	0.948841	0.011204
 957	4.7800e-01	9.5563	18.199946	0.000171	1.710240	0.289723	0.003421
 958	4.7850e-01	9.5660	18.219189	0.000192	1.924020	0.325938	0.003849
 959	4.7900e-01	9.5758	18.262806	0.000436	4.361112	0.738792	0.008724
 960	4.7950e-01	9.5853	18.293595	0.000308	3.078432	0.521501	0.006158
 961	4.8000e-01	9.5959	18.321391	0.000278	2.779140	0.470799	0.005559
 962	4.8050e-01	9.6082	18.357739	0.000363	3.634260	0.615660	0.007270
 963	4.8100e-01	9.6155	18.391094	0.000333	3.334968	0.564959	0.006671
 964	4.8150e-01	9.6222	18.430863	0.000398	3.976308	0.673605	0.007954
 965	4.8200e-01	9.6332	18.461225	0.000304	3.035676	0.514257	0.006072
 966	4.8250e-01	9.6451	18.499283	0.000381	3.805284	0.644633	0.007612
 967	4.8300e-01	9.6552	18.521092	0.000218	2.180556	0.369396	0.004362
 968	4.8350e-01	9.6655	18.557440	0.000363	3.634260	0.615660	0.007270
 969	4.8400e-01	9.6786	18.594644	0.000372	3.719772	0.630146	0.007441
 970	4.8450e-01	9.6875	18.621584	0.000269	2.693628	0.456313	0.005388
 971	4.8500e-01	9.6954	18.643821	0.000222	2.223312	0.376639	0.004447
 972	4.8550e-01	9.7046	18.689149	0.000453	4.532136	0.767765	0.009066
 973	4.8600e-01	9.7156	18.721221	0.000321	3.206700	0.543230	0.006414
 974	4.8650e-01	9.7266	18.755431	0.000342	3.420480	0.579445	0.006842
 975	4.8700e-01	9.7339	18.784509	0.000291	2.907408	0.492528	0.005816
 976	4.8750e-01	9.7430	18.833259	0.000487	4.874184	0.825709	0.009750
 977	4.8800e-01	9.7559	18.852074	0.000188	1.881264	0.318695	0.003763
 978	4.8850e-01	9.7659	18.891843	0.000398	3.976308	0.673605	0.007954
 979	4.8900e-01	9.7760	18.921349	0.000295	2.950164	0.499771	0.005901
 980	4.8950e-01	9.7852	18.941875	0.000205	2.052288	0.347667	0.004105
 981	4.9000e-01	9.7974	18.984638	0.000428	4.275600	0.724306	0.008553
 982	4.9050e-01	9.8053	19.010723	0.000261	2.608116	0.441827	0.005217
 983	4.9100e-01	9.8169	19.048782	0.000381	3.805284	0.644633	0.007612
 984	4.9150e-01	9.8273	19.079143	0.000304	3.035676	0.514257	0.006072
 985	4.9200e-01	9.8358	19.112070	0.000329	3.292212	0.557716	0.006585
 986	4.9250e-01	9.8486	19.144142	0.000321	3.206700	0.543230	0.006414
 987	4.9300e-01	9.8569	19.185622	0.000415	4.147332	0.702577	0.008296
 988	4.9350e-01	9.8669	19.224108	0.000385	3.848040	0.651876	0.007697
 989	4.9400e-01	9.8767	19.250621	0.000265	2.650872	0.449070	0.005303
 990	4.9450e-01	9.8865	19.289962	0.000393	3.933552	0.666362	0.007868
 991	4.9500e-01	9.8950	19.329304	0.000393	3.933552	0.666362	0.007868
 992	4.9550e-01	9.9030	19.349402	0.000201	2.009532	0.340424	0.004020
 993	4.9600e-01	9.9149	19.381902	0.000325	3.249456	0.550473	0.006500
 994	4.9650e-01	9.9231	19.429796	0.000479	4.788672	0.811223	0.009579
 995	4.9700e-01	9.9353	19.440059	0.000103	1.026144	0.173834	0.002053
 996	4.9750e-01	9.9445	19.489663	0.000496	4.959696	0.840195	0.009921
 997	4.9800e-01	9.9554	19.510617	0.000210	2.095044	0.354910	0.004191
 998	4.9850e-01	9.9683	19.546537	0.000359	3.591504	0.608417	0.007184
 999	4.9900e-01	9.9762	19.579037	0.000325	3.249456	0.550473	0.006500
1000	4.9950e-01	9.9860	19.620089	0.000410	4.104576	0.695334	0.008210
1001	5.0000e-01	9.9957	19.658575	0.000385	3.848040	0.651876	0.007697
1002	5.0050e-01	9.9854	19.632918	0.000257	2.565360	0.434584	-0.005132
1003	5.0100e-01	9.9756	19.625648	0.000073	0.726852	0.123132	-0.001454
1004	5.0150e-01	9.9670	19.607260	0.000184	1.838508	0.311452	-0.003678
1005	5.0200e-01	9.9573	19.604695	0.000026	0.256536	0.043458	-0.000513
1006	5.0250e-01	9.9484	19.583741	0.000210	2.095044	0.354910	-0.004191
1007	5.0300e-01	9.9384	19.562787	0.000210	2.095044	0.354910	-0.004191
1008	5.0350e-01	9.9274	19.552097	0.000107	1.068900	0.181077	-0.002138
1009	5.0400e-01	9.9152	19.537557	0.000145	1.453704	0.246264	-0.002908
1010	5.0450e-01	9.9036	19.537557	-0.000000	-0.000000	-0.000000	0.000000
1011	5.0500e-01	9.8962	19.514893	0.000227	2.266068	0.383882	-0.004533
1012	5.0550e-01	9.8871	19.488808	0.000261	2.608116	0.441827	-0.005217
1013	5.0600e-01	9.8749	19.487953	0.000009	0.085512	0.014486	-0.000171
1014	5.0650e-01	9.8645	19.457591	0.000304	3.035676	0.514257	-0.006072
1015	5.0700e-01	9.8566	19.445190	0.000124	1.239924	0.210049	-0.002480
1016	5.0750e-01	9.8450	19.433644	0.000115	1.154412	0.195563	-0.002309
1017	5.0800e-01	9.8358	19.402855	0.000308	3.078432	0.521501	-0.006158
1018	5.0850e-01	9.8273	19.392165	0.000107	1.068900	0.181077	-0.002138
1019	5.0900e-01	9.8175	19.392165	-0.000000	-0.000000	-0.000000	0.000000
1020	5.0950e-01	9.8059	19.368218	0.000239	2.394336	0.405612	-0.004789
1021	5.1000e-01	9.7961	19.345981	0.000222	2.223312	0.376639	-0.004447
1022	5.1050e-01	9.7833	19.326738	0.000192	1.924020	0.325938	-0.003849
1023	5.1100e-01	9.7778	19.314337	0.000124	1.239924	0.210049	-0.002480
1024	5.1150e-01	9.7662	19.289107	0.000252	2.522604	0.427341	-0.005046
1025	5.1200e-01	9.7546	19.285686	0.000034	0.342048	0.057945	-0.000684
1026	5.1250e-01	9.7473	19.259601	0.000261	2.608116	0.441827	-0.005217
1027	5.1300e-01	9.7351	19.242068	0.000175	1.752996	0.296966	-0.003507
1028	5.1350e-01	9.7272	19.218121	0.000239	2.394336	0.405612	-0.004789
1029	5.1400e-01	9.7180	19.208714	0.000094	0.940632	0.159347	-0.001882
1030	5.1450e-01	9.7089	19.186049	0.000227	2.266068	0.383882	-0.004533
1031	5.1500e-01	9.6979	19.155688	0.000304	3.035676	0.514257	-0.006072
1032	5.1550e-01	9.6875	19.145853	0.000098	0.983388	0.166590	-0.001967
1033	5.1600e-01	9.6802	19.120623	0.000252	2.522604	0.427341	-0.005046
1034	5.1650e-01	9.6674	19.108222	0.000124	1.239924	0.210049	-0.002480
1035	5.1700e-01	9.6564	19.097531	0.000107	1.068900	0.181077	-0.002138
1036	5.1750e-01	9.6460	19.070591	0.000269	2.693628	0.456313	-0.005388
1037	5.1800e-01	9.6350	19.062038	0.000086	0.855120	0.144861	-0.001711
1038	5.1850e-01	9.6259	19.029539	0.000325	3.249456	0.550473	-0.006500
1039	5.1900e-01	9.6161	19.009013	0.000205	2.052288	0.347667	-0.004105
1040	5.1950e-01	9.6063	18.991908	0.000171	1.710240	0.289723	-0.003421
1041	5.2000e-01	9.5959	18.971809	0.000201	2.009532	0.340424	-0.004020
1042	5.2050e-01	9.5874	18.954276	0.000175	1.752996	0.296966	-0.003507
1043	5.2100e-01	9.5770	18.931612	0.000227	2.266068	0.383882	-0.004533
1044	5.2150e-01	9.5660	18.911942	0.000197	1.966776	0.333181	-0.003934
1045	5.2200e-01	9.5569	18.902961	0.000090	0.897876	0.152104	-0.001796
1046	5.2250e-01	9.5477	18.872172	0.000308	3.078432	0.521501	-0.006158
1047	5.2300e-01	9.5364	18.859771	0.000124	1.239924	0.210049	-0.002480
1048	5.2350e-01	9.5245	18.834114	0.000257	2.565360	0.434584	-0.005132
1049	5.2400e-01	9.5166	18.818292	0.000158	1.581972	0.267993	-0.003164
1050	5.2450e-01	9.5056	18.795200	0.000231	2.308824	0.391125	-0.004618
1051	5.2500e-01	9.4971	18.773819	0.000214	2.137800	0.362153	-0.004276
1052	5.2550e-01	9.4876	18.759707	0.000141	1.410948	0.239021	-0.002822
1053	5.2600e-01	9.4775	18.736188	0.000235	2.351580	0.398368	-0.004704
1054	5.2650e-01	9.4666	18.714806	0.000214	2.137800	0.362153	-0.004276
1055	5.2700e-01	9.4543	18.704543	0.000103	1.026144	0.173834	-0.002053
1056	5.2750e-01	9.4467	18.666485	0.000381	3.805284	0.644633	-0.007612
1057	5.2800e-01	9.4360	18.655794	0.000107	1.068900	0.181077	-0.002138
1058	5.2850e-01	9.4263	18.629281	0.000265	2.650872	0.449070	-0.005303
1059	5.2900e-01	9.4171	18.611321	0.000180	1.795752	0.304209	-0.003592
1060	5.2950e-01	9.4055	18.595071	0.000162	1.624728	0.275236	-0.003250
1061	5.3000e-01	9.3953	18.571124	0.000239	2.394336	0.405612	-0.004789
1062	5.3050e-01	9.3890	18.545894	0.000252	2.522604	0.427341	-0.005046
1063	5.3100e-01	9.3762	18.510829	0.000351	3.505992	0.593931	-0.007013
1064	5.3150e-01	9.3665	18.511684	-0.000009	-0.085512	-0.014486	0.000171
1065	5.3200e-01	9.3549	18.469349	0.000423	4.232844	0.717063	-0.008467
1066	5.3250e-01	9.3475	18.467639	0.000017	0.171024	0.028972	-0.000342
1067	5.3300e-01	9.3365	18.435139	0.000325	3.249456	0.550473	-0.006500
1068	5.3350e-01	9.3268	18.407344	0.000278	2.779140	0.470799	-0.005559
1069	5.3400e-01	9.3170	18.401357	0.000060	0.598584	0.101403	-0.001197
1070	5.3450e-01	9.3066	18.368857	0.000325	3.249456	0.550473	-0.006500
1071	5.3500e-01	9.2957	18.350042	0.000188	1.881264	0.318695	-0.003763
1072	5.3550e-01	9.2877	18.324384	0.000257	2.565360	0.434584	-0.005132
1073	5.3600e-01	9.2731	18.312411	0.000120	1.197168	0.202806	-0.002395
1074	5.3650e-01	9.2651	18.285898	0.000265	2.650872	0.449070	-0.005303
1075	5.3700e-01	9.2560	18.254682	0.000312	3.121188	0.528744	-0.006243
1076	5.3750e-01	9.2468	18.240998	0.000137	1.368192	0.231778	-0.002737
1077	5.3800e-01	9.2349	18.220044	0.000210	2.095044	0.354910	-0.004191
1078	5.3850e-01	9.2261	18.188827	0.000312	3.121188	0.528744	-0.006243
1079	5.3900e-01	9.2151	18.179847	0.000090	0.897876	0.152104	-0.001796
1080	5.3950e-01	9.2059	18.142216	0.000376	3.762528	0.637390	-0.007526
1081	5.4000e-01	9.1968	18.131525	0.000107	1.068900	0.181077	-0.002138
1082	5.4050e-01	9.1882	18.104585	0.000269	2.693628	0.456313	-0.005388
1083	5.4100e-01	9.1772	18.084487	0.000201	2.009532	0.340424	-0.004020
1084	5.4150e-01	9.1658	18.055836	0.000286	2.864652	0.485285	-0.005730
1085	5.4200e-01	9.1559	18.039158	0.000167	1.667484	0.282479	-0.003335
1086	5.4250e-01	9.1446	18.017777	0.000214	2.137800	0.362153	-0.004276
1087	5.4300e-01	9.1376	17.998106	0.000197	1.966776	0.333181	-0.003934
1088	5.4350e-01	9.1278	17.966890	0.000312	3.121188	0.528744	-0.006243
1089	5.4400e-01	9.1180	17.947219	0.000197	1.966776	0.333181	-0.003934
1090	5.4450e-01	9.1083	17.913009	0.000342	3.420480	0.579445	-0.006842
1091	5.4500e-01	9.0973	17.912581	0.000004	0.042756	0.007243	-0.000086
1092	5.4550e-01	9.0857	17.879227	0.000333	3.334968	0.564959	-0.006671
1093	5.4600e-01	9.0753	17.861694	0.000175	1.752996	0.296966	-0.003507
1094	5.4650e-01	9.0643	17.839457	0.000222	2.223312	0.376639	-0.004447
1095	5.4700e-01	9.0536	17.808668	0.000308	3.078432	0.521501	-0.006158
1096	5.4750e-01	9.0472	17.794129	0.000145	1.453704	0.246264	-0.002908
1097	5.4800e-01	9.0424	17.767616	0.000265	2.650872	0.449070	-0.005303
1098	5.4850e-01	9.0277	17.734262	0.000333	3.334968	0.564959	-0.006671
1099	5.4900e-01	9.0131	17.722288	0.000120	1.197168	0.202806	-0.002395
1100	5.4950e-01	9.0051	17.691499	0.000308	3.078432	0.521501	-0.006158
1101	5.5000e-01	8.9951	17.677815	0.000137	1.368192	0.231778	-0.002737
1102	5.5050e-01	8.9856	17.651302	0.000265	2.650872	0.449070	-0.005303
1103	5.5100e-01	8.9764	17.625645	0.000257	2.565360	0.434584	-0.005132
1104	5.5150e-01	8.9661	17.602553	0.000231	2.308824	0.391125	-0.004618
1105	5.5200e-01	8.9569	17.581599	0.000210	2.095044	0.354910	-0.004191
1106	5.5250e-01	8.9459	17.561929	0.000197	1.966776	0.333181	-0.003934
1107	5.5300e-01	8.9398	17.526863	0.000351	3.505992	0.593931	-0.007013
1108	5.5350e-01	8.9288	17.504627	0.000222	2.223312	0.376639	-0.004447
1109	5.5400e-01	8.9172	17.479825	0.000248	2.479848	0.420098	-0.004960
1110	5.5450e-01	8.9026	17.468279	0.000115	1.154412	0.195563	-0.002309
1111	5.5500e-01	8.8959	17.442621	0.000257	2.565360	0.434584	-0.005132
1112	5.5550e-01	8.8873	17.406701	0.000359	3.591504	0.608417	-0.007184
1113	5.5600e-01	8.8788	17.391734	0.000150	1.496460	0.253507	-0.002993
1114	5.5650e-01	8.8654	17.368214	0.000235	2.351580	0.398368	-0.004704
1115	5.5700e-01	8.8562	17.355813	0.000124	1.239924	0.210049	-0.002480
1116	5.5750e-01	8.8452	17.309202	0.000466	4.660404	0.789494	-0.009322
1117	5.5800e-01	8.8379	17.296373	0.000128	1.282680	0.217292	-0.002566
1118	5.5850e-01	8.8281	17.275847	0.000205	2.052288	0.347667	-0.004105
1119	5.5900e-01	8.8159	17.248479	0.000274	2.736384	0.463556	-0.005474
1120	5.5950e-01	8.8049	17.221539	0.000269	2.693628	0.456313	-0.005388
1121	5.6000e-01	8.7988	17.201440	0.000201	2.009532	0.340424	-0.004020
1122	5.6050e-01	8.7891	17.173217	0.000282	2.821896	0.478042	-0.005645
1123	5.6100e-01	8.7756	17.153119	0.000201	2.009532	0.340424	-0.004020
1124	5.6150e-01	8.7671	17.125323	0.000278	2.779140	0.470799	-0.005559
1125	5.6200e-01	8.7567	17.096245	0.000291	2.907408	0.492528	-0.005816
1126	5.6250e-01	8.7463	17.079140	0.000171	1.710240	0.289723	-0.003421
1127	5.6300e-01	8.7384	17.064173	0.000150	1.496460	0.253507	-0.002993
1128	5.6350e-01	8.7256	17.022693	0.000415	4.147332	0.702577	-0.008296
1129	5.6400e-01	8.7158	17.011147	0.000115	1.154412	0.195563	-0.002309
1130	5.6450e-01	8.7054	16.983779	0.000274	2.736384	0.463556	-0.005474
1131	5.6500e-01	8.6978	16.961115	0.000227	2.266068	0.383882	-0.004533
1132	5.6550e-01	8.6853	16.944865	0.000162	1.624728	0.275236	-0.003250
1133	5.6600e-01	8.6737	16.914504	0.000304	3.035676	0.514257	-0.006072
1134	5.6650e-01	8.6664	16.884570	0.000299	2.992920	0.507014	-0.005987
1135	5.6700e-01	8.6530	16.870886	0.000137	1.368192	0.231778	-0.002737
1136	5.6750e-01	8.6481	16.837959	0.000329	3.292212	0.557716	-0.006585
1137	5.6800e-01	8.6378	16.812729	0.000252	2.522604	0.427341	-0.005046
1138	5.6850e-01	8.6279	16.779374	0.000333	3.334968	0.564959	-0.006671
1139	5.6900e-01	8.6163	16.763125	0.000162	1.624728	0.275236	-0.003250
1140	5.6950e-01	8.6069	16.737039	0.000261	2.608116	0.441827	-0.005217
1141	5.7000e-01	8.5977	16.715658	0.000214	2.137800	0.362153	-0.004276
1142	5.7050e-01	8.5852	16.706250	0.000094	0.940632	0.159347	-0.001882
1143	5.7100e-01	8.5764	16.663916	0.000423	4.232844	0.717063	-0.008467
1144	5.7150e-01	8.5645	16.648093	0.000158	1.581972	0.267993	-0.003164
1145	5.7200e-01	8.5577	16.618587	0.000295	2.950164	0.499771	-0.005901
1146	5.7250e-01	8.5443	16.588653	0.000299	2.992920	0.507014	-0.005987
1147	5.7300e-01	8.5364	16.568127	0.000205	2.052288	0.347667	-0.004105
1148	5.7350e-01	8.5242	16.546319	0.000218	2.180556	0.369396	-0.004362
1149	5.7400e-01	8.5193	16.524082	0.000222	2.223312	0.376639	-0.004447
1150	5.7450e-01	8.5071	16.494576	0.000295	2.950164	0.499771	-0.005901
1151	5.7500e-01	8.4949	16.473622	0.000210	2.095044	0.354910	-0.004191
1152	5.7550e-01	8.4863	16.441123	0.000325	3.249456	0.550473	-0.006500
1153	5.7600e-01	8.4747	16.418886	0.000222	2.223312	0.376639	-0.004447
1154	5.7650e-01	8.4650	16.400071	0.000188	1.881264	0.318695	-0.003763
1155	5.7700e-01	8.4589	16.362440	0.000376	3.762528	0.637390	-0.007526
1156	5.7750e-01	8.4454	16.345335	0.000171	1.710240	0.289723	-0.003421
1157	5.7800e-01	8.4335	16.312835	0.000325	3.249456	0.550473	-0.006500
1158	5.7850e-01	8.4286	16.279053	0.000338	3.377724	0.572202	-0.006756
1159	5.7900e-01	8.4149	16.279908	-0.000009	-0.085512	-0.014486	0.000171
1160	5.7950e-01	8.4064	16.238428	0.000415	4.147332	0.702577	-0.008296
1161	5.8000e-01	8.3963	16.212343	0.000261	2.608116	0.441827	-0.005217
1162	5.8050e-01	8.3820	16.198232	0.000141	1.410948	0.239021	-0.002822
1163	5.8100e-01	8.3765	16.166587	0.000316	3.163944	0.535987	-0.006329
1164	5.8150e-01	8.3658	16.144778	0.000218	2.180556	0.369396	-0.004362
1165	5.8200e-01	8.3588	16.111851	0.000329	3.292212	0.557716	-0.006585
1166	5.8250e-01	8.3435	16.101588	0.000103	1.026144	0.173834	-0.002053
1167	5.8300e-01	8.3350	16.057115	0.000445	4.446624	0.753279	-0.008895
1168	5.8350e-01	8.3295	16.032313	0.000248	2.479848	0.420098	-0.004960
1169	5.8400e-01	8.3185	16.017346	0.000150	1.496460	0.253507	-0.002993
1170	5.8450e-01	8.3112	15.989550	0.000278	2.779140	0.470799	-0.005559
1171	5.8500e-01	8.2965	15.963893	0.000257	2.565360	0.434584	-0.005132
1172	5.8550e-01	8.2892	15.936953	0.000269	2.693628	0.456313	-0.005388
1173	5.8600e-01	8.2797	15.912150	0.000248	2.479848	0.420098	-0.004960
1174	5.8650e-01	8.2660	15.887348	0.000248	2.479848	0.420098	-0.004960
1175	5.8700e-01	8.2568	15.868960	0.000184	1.838508	0.311452	-0.003678
1176	5.8750e-01	8.2446	15.853993	0.000150	1.496460	0.253507	-0.002993
1177	5.8800e-01	8.2385	15.791132	0.000629	6.285133	1.064730	-0.012572
1178	5.8850e-01	8.2233	15.796264	-0.000051	-0.513072	-0.086917	0.001026
1179	5.8900e-01	8.2159	15.754784	0.000415	4.147332	0.702577	-0.008296
1180	5.8950e-01	8.2077	15.737252	0.000175	1.752996	0.296966	-0.003507
1181	5.9000e-01	8.1946	15.713732	0.000235	2.351580	0.398368	-0.004704
1182	5.9050e-01	8.1863	15.694489	0.000192	1.924020	0.325938	-0.003849
1183	5.9100e-01	8.1763	15.658996	0.000355	3.548748	0.601174	-0.007099
1184	5.9150e-01	8.1653	15.632056	0.000269	2.693628	0.456313	-0.005388
1185	5.9200e-01	8.1586	15.601694	0.000304	3.035676	0.514257	-0.006072
1186	5.9250e-01	8.1470	15.579458	0.000222	2.223312	0.376639	-0.004447
1187	5.9300e-01	8.1378	15.540116	0.000393	3.933552	0.666362	-0.007868
1188	5.9350e-01	8.1311	15.522584	0.000175	1.752996	0.296966	-0.003507
1189	5.9400e-01	8.1171	15.503341	0.000192	1.924020	0.325938	-0.003849
1190	5.9450e-01	8.1073	15.478111	0.000252	2.522604	0.427341	-0.005046
1191	5.9500e-01	8.0984	15.446039	0.000321	3.206700	0.543230	-0.006414
1192	5.9550e-01	8.0902	15.416960	0.000291	2.907408	0.492528	-0.005816
1193	5.9600e-01	8.0756	15.401566	0.000154	1.539216	0.260750	-0.003079
1194	5.9650e-01	8.0670	15.373770	0.000278	2.779140	0.470799	-0.005559
1195	5.9700e-01	8.0591	15.342126	0.000316	3.163944	0.535987	-0.006329
1196	5.9750e-01	8.0450	15.326304	0.000158	1.581972	0.267993	-0.003164
1197	5.9800e-01	8.0383	15.297225	0.000291	2.907408	0.492528	-0.005816
1198	5.9850e-01	8.0280	15.269002	0.000282	2.821896	0.478042	-0.005645
1199	5.9900e-01	8.0197	15.233937	0.000351	3.505992	0.593931	-0.007013
1200	5.9950e-01	8.0054	15.220253	0.000137	1.368192	0.231778	-0.002737
1201	6.0000e-01	7.9968	15.196306	0.000239	2.394336	0.405612	-0.004789
1202	6.0050e-01	7.9865	15.155254	0.000410	4.104576	0.695334	-0.008210
1203	6.0100e-01	7.9785	15.145846	0.000094	0.940632	0.159347	-0.001882
1204	6.0150e-01	7.9663	15.107787	0.000381	3.805284	0.644633	-0.007612
1205	6.0200e-01	7.9565	15.087261	0.000205	2.052288	0.347667	-0.004105
1206	6.0250e-01	7.9486	15.055189	0.000321	3.206700	0.543230	-0.006414
1207	6.0300e-01	7.9355	15.024400	0.000308	3.078432	0.521501	-0.006158
1208	6.0350e-01	7.9279	15.006012	0.000184	1.838508	0.311452	-0.003678
1209	6.0400e-01	7.9175	14.982921	0.000231	2.308824	0.391125	-0.004618
1210	6.0450e-01	7.9083	14.958118	0.000248	2.479848	0.420098	-0.004960
1211	6.0500e-01	7.8967	14.918349	0.000398	3.976308	0.673605	-0.007954
1212	6.0550e-01	7.8876	14.902099	0.000162	1.624728	0.275236	-0.003250
1213	6.0600e-01	7.8754	14.874304	0.000278	2.779140	0.470799	-0.005559
1214	6.0650e-01	7.8693	14.846936	0.000274	2.736384	0.463556	-0.005474
1215	6.0700e-01	7.8564	14.819140	0.000278	2.779140	0.470799	-0.005559
1216	6.0750e-01	7.8448	14.796904	0.000222	2.223312	0.376639	-0.004447
1217	6.0800e-01	7.8357	14.771674	0.000252	2.522604	0.427341	-0.005046
1218	6.0850e-01	7.8265	14.745161	0.000265	2.650872	0.449070	-0.005303
1219	6.0900e-01	7.8162	14.710951	0.000342	3.420480	0.579445	-0.006842
1220	6.0950e-01	7.8082	14.689142	0.000218	2.180556	0.369396	-0.004362
1221	6.1000e-01	7.7960	14.657925	0.000312	3.121188	0.528744	-0.006243
1222	6.1050e-01	7.7878	14.631840	0.000261	2.608116	0.441827	-0.005217
1223	6.1100e-01	7.7740	14.615163	0.000167	1.667484	0.282479	-0.003335
1224	6.1150e-01	7.7655	14.573683	0.000415	4.147332	0.702577	-0.008296
1225	6.1200e-01	7.7588	14.554868	0.000188	1.881264	0.318695	-0.003763
1226	6.1250e-01	7.7437	14.510822	0.000440	4.403868	0.746035	-0.008809
1227	6.1300e-01	7.7362	14.512960	-0.000021	-0.213780	-0.036215	0.000428
1228	6.1350e-01	7.7289	14.477467	0.000355	3.548748	0.601174	-0.007099
1229	6.1400e-01	7.7130	14.450527	0.000269	2.693628	0.456313	-0.005388
1230	6.1450e-01	7.7075	14.416745	0.000338	3.377724	0.572202	-0.006756
1231	6.1500e-01	7.6971	14.386811	0.000299	2.992920	0.507014	-0.005987
1232	6.1550e-01	7.6865	14.372699	0.000141	1.410948	0.239021	-0.002822
1233	6.1600e-01	7.6788	14.335924	0.000368	3.677016	0.622903	-0.007355
1234	6.1650e-01	7.6672	14.320957	0.000150	1.496460	0.253507	-0.002993
1235	6.1700e-01	7.6556	14.288885	0.000321	3.206700	0.543230	-0.006414
1236	6.1750e-01	7.6465	14.257240	0.000316	3.163944	0.535987	-0.006329
1237	6.1800e-01	7.6355	14.236287	0.000210	2.095044	0.354910	-0.004191
1238	6.1850e-01	7.6263	14.211057	0.000252	2.522604	0.427341	-0.005046
1239	6.1900e-01	7.6160	14.176847	0.000342	3.420480	0.579445	-0.006842
1240	6.1950e-01	7.6062	14.154183	0.000227	2.266068	0.383882	-0.004533
1241	6.2000e-01	7.5949	14.132802	0.000214	2.137800	0.362153	-0.004276
1242	6.2050e-01	7.5861	14.099447	0.000333	3.334968	0.564959	-0.006671
1243	6.2100e-01	7.5729	14.070368	0.000291	2.907408	0.492528	-0.005816
1244	6.2150e-01	7.5677	14.040007	0.000304	3.035676	0.514257	-0.006072
1245	6.2200e-01	7.5555	14.010073	0.000299	2.992920	0.507014	-0.005987
1246	6.2250e-01	7.5458	13.983988	0.000261	2.608116	0.441827	-0.005217
1247	6.2300e-01	7.5342	13.952344	0.000316	3.163944	0.535987	-0.006329
1248	6.2350e-01	7.5266	13.934383	0.000180	1.795752	0.304209	-0.003592
1249	6.2400e-01	7.5159	13.909581	0.000248	2.479848	0.420098	-0.004960
1250	6.2450e-01	7.5061	13.886917	0.000227	2.266068	0.383882	-0.004533
1251	6.2500e-01	7.4971	13.841161	0.000457	4.574892	0.775008	-0.009151
1252	6.2550e-01	7.4854	13.822346	0.000188	1.881264	0.318695	-0.003763
1253	6.2600e-01	7.4792	13.798826	0.000235	2.351580	0.398368	-0.004704
1254	6.2650e-01	7.4670	13.768037	0.000308	3.078432	0.521501	-0.006158
1255	6.2700e-01	7.4561	13.740669	0.000274	2.736384	0.463556	-0.005474
1256	6.2750e-01	7.4448	13.712873	0.000278	2.779140	0.470799	-0.005559
1257	6.2800e-01	7.4384	13.684650	0.000282	2.821896	0.478042	-0.005645
1258	6.2850e-01	7.4268	13.653006	0.000316	3.163944	0.535987	-0.006329
1259	6.2900e-01	7.4142	13.628631	0.000244	2.437092	0.412855	-0.004875
1260	6.2950e-01	7.4069	13.605967	0.000227	2.266068	0.383882	-0.004533
1261	6.3000e-01	7.3969	13.578599	0.000274	2.736384	0.463556	-0.005474
1262	6.3050e-01	7.3856	13.545244	0.000333	3.334968	0.564959	-0.006671
1263	6.3100e-01	7.3755	13.527712	0.000175	1.752996	0.296966	-0.003507
1264	6.3150e-01	7.3669	13.486232	0.000415	4.147332	0.702577	-0.008296
1265	6.3200e-01	7.3547	13.472548	0.000137	1.368192	0.231778	-0.002737
1266	6.3250e-01	7.3450	13.432779	0.000398	3.976308	0.673605	-0.007954
1267	6.3300e-01	7.3370	13.413108	0.000197	1.966776	0.333181	-0.003934
1268	6.3350e-01	7.3273	13.372056	0.000410	4.104576	0.695334	-0.008210
1269	6.3400e-01	7.3169	13.356234	0.000158	1.581972	0.267993	-0.003164
1270	6.3450e-01	7.3053	13.325873	0.000304	3.035676	0.514257	-0.006072
1271	6.3500e-01	7.2958	13.299360	0.000265	2.650872	0.449070	-0.005303
1272	6.3550e-01	7.2849	13.274130	0.000252	2.522604	0.427341	-0.005046
1273	6.3600e-01	7.2772	13.234788	0.000393	3.933552	0.666362	-0.007868
1274	6.3650e-01	7.2656	13.213407	0.000214	2.137800	0.362153	-0.004276
1275	6.3700e-01	7.2554	13.188177	0.000252	2.522604	0.427341	-0.005046
1276	6.3750e-01	7.2443	13.162520	0.000257	2.565360	0.434584	-0.005132
1277	6.3800e-01	7.2339	13.127454	0.000351	3.505992	0.593931	-0.007013
1278	6.3850e-01	7.2278	13.095383	0.000321	3.206700	0.543230	-0.006414
1279	6.3900e-01	7.2150	13.070580	0.000248	2.479848	0.420098	-0.004960
1280	6.3950e-01	7.2049	13.041929	0.000286	2.864652	0.485285	-0.005730
1281	6.4000e-01	7.1945	13.015417	0.000265	2.650872	0.449070	-0.005303
1282	6.4050e-01	7.1875	12.989332	0.000261	2.608116	0.441827	-0.005217
1283	6.4100e-01	7.1765	12.962819	0.000265	2.650872	0.449070	-0.005303
1284	6.4150e-01	7.1667	12.931174	0.000316	3.163944	0.535987	-0.006329
1285	6.4200e-01	7.1552	12.900385	0.000308	3.078432	0.521501	-0.006158
1286	6.4250e-01	7.1463	12.883708	0.000167	1.667484	0.282479	-0.003335
1287	6.4300e-01	7.1368	12.843939	0.000398	3.976308	0.673605	-0.007954
1288	6.4350e-01	7.1268	12.826406	0.000175	1.752996	0.296966	-0.003507
1289	6.4400e-01	7.1161	12.794762	0.000316	3.163944	0.535987	-0.006329
1290	6.4450e-01	7.1069	12.759697	0.000351	3.505992	0.593931	-0.007013
1291	6.4500e-01	7.0966	12.726342	0.000333	3.334968	0.564959	-0.006671
1292	6.4550e-01	7.0837	12.712230	0.000141	1.410948	0.239021	-0.002822
1293	6.4600e-01	7.0758	12.677593	0.000346	3.463236	0.586688	-0.006928
1294	6.4650e-01	7.0642	12.649369	0.000282	2.821896	0.478042	-0.005645
1295	6.4700e-01	7.0581	12.616015	0.000333	3.334968	0.564959	-0.006671
1296	6.4750e-01	7.0459	12.588647	0.000274	2.736384	0.463556	-0.005474
1297	6.4800e-01	7.0380	12.565127	0.000235	2.351580	0.398368	-0.004704
1298	6.4850e-01	7.0264	12.539470	0.000257	2.565360	0.434584	-0.005132
1299	6.4900e-01	7.0160	12.502266	0.000372	3.719772	0.630146	-0.007441
1300	6.4950e-01	7.0065	12.478319	0.000239	2.394336	0.405612	-0.004789
1301	6.5000e-01	6.9948	12.450524	0.000278	2.779140	0.470799	-0.005559
1302	6.5050e-01	6.9855	12.422728	0.000278	2.779140	0.470799	-0.005559
1303	6.5100e-01	6.9757	12.388946	0.000338	3.377724	0.572202	-0.006756
1304	6.5150e-01	6.9653	12.365854	0.000231	2.308824	0.391125	-0.004618
1305	6.5200e-01	6.9562	12.339341	0.000265	2.650872	0.449070	-0.005303
1306	6.5250e-01	6.9458	12.312828	0.000265	2.650872	0.449070	-0.005303
1307	6.5300e-01	6.9354	12.282467	0.000304	3.035676	0.514257	-0.006072
1308	6.5350e-01	6.9281	12.246546	0.000359	3.591504	0.608417	-0.007184
1309	6.5400e-01	6.9159	12.227303	0.000192	1.924020	0.325938	-0.003849
1310	6.5450e-01	6.9049	12.193093	0.000342	3.420480	0.579445	-0.006842
1311	6.5500e-01	6.8976	12.162304	0.000308	3.078432	0.521501	-0.006158
1312	6.5550e-01	6.8866	12.136647	0.000257	2.565360	0.434584	-0.005132
1313	6.5600e-01	6.8787	12.109279	0.000274	2.736384	0.463556	-0.005474
1314	6.5650e-01	6.8665	12.080628	0.000286	2.864652	0.485285	-0.005730
1315	6.5700e-01	6.8561	12.055398	0.000252	2.522604	0.427341	-0.005046
1316	6.5750e-01	6.8469	12.019905	0.000355	3.548748	0.601174	-0.007099
1317	6.5800e-01	6.8353	11.995103	0.000248	2.479848	0.420098	-0.004960
1318	6.5850e-01	6.8256	11.961748	0.000333	3.334968	0.564959	-0.006671
1319	6.5900e-01	6.8134	11.935235	0.000265	2.650872	0.449070	-0.005303
1320	6.5950e-01	6.8054	11.901880	0.000333	3.334968	0.564959	-0.006671
1321	6.6000e-01	6.7963	11.864249	0.000376	3.762528	0.637390	-0.007526
1322	6.6050e-01	6.7859	11.847144	0.000171	1.710240	0.289723	-0.003421
1323	6.6100e-01	6.7767	11.817211	0.000299	2.992920	0.507014	-0.005987
1324	6.6150e-01	6.7670	11.789415	0.000278	2.779140	0.470799	-0.005559
1325	6.6200e-01	6.7560	11.756915	0.000325	3.249456	0.550473	-0.006500
1326	6.6250e-01	6.7462	11.729120	0.000278	2.779140	0.470799	-0.005559
1327	6.6300e-01	6.7352	11.701324	0.000278	2.779140	0.470799	-0.005559
1328	6.6350e-01	6.7274	11.661127	0.000402	4.019064	0.680848	-0.008039
1329	6.6400e-01	6.7175	11.628628	0.000325	3.249456	0.550473	-0.006500
1330	6.6450e-01	6.7068	11.605536	0.000231	2.308824	0.391125	-0.004618
1331	6.6500e-01	6.6946	11.575602	0.000299	2.992920	0.507014	-0.005987
1332	6.6550e-01	6.6858	11.550372	0.000252	2.522604	0.427341	-0.005046
1333	6.6600e-01	6.6766	11.511886	0.000385	3.848040	0.651876	-0.007697
1334	6.6650e-01	6.6638	11.499057	0.000128	1.282680	0.217292	-0.002566
1335	6.6700e-01	6.6550	11.463137	0.000359	3.591504	0.608417	-0.007184
1336	6.6750e-01	6.6473	11.431493	0.000316	3.163944	0.535987	-0.006329
1337	6.6800e-01	6.6382	11.401559	0.000299	2.992920	0.507014	-0.005987
1338	6.6850e-01	6.6248	11.384881	0.000167	1.667484	0.282479	-0.003335
1339	6.6900e-01	6.6133	11.352382	0.000325	3.249456	0.550473	-0.006500
1340	6.6950e-01	6.6052	11.312185	0.000402	4.019064	0.680848	-0.008039
1341	6.7000e-01	6.5948	11.298929	0.000133	1.325436	0.224535	-0.002651
1342	6.7050e-01	6.5857	11.259160	0.000398	3.976308	0.673605	-0.007954
1343	6.7100e-01	6.5771	11.233502	0.000257	2.565360	0.434584	-0.005132
1344	6.7150e-01	6.5686	11.196299	0.000372	3.719772	0.630146	-0.007441
1345	6.7200e-01	6.5576	11.171069	0.000252	2.522604	0.427341	-0.005046
1346	6.7250e-01	6.5427	11.137714	0.000333	3.334968	0.564959	-0.006671
1347	6.7300e-01	6.5381	11.113767	0.000239	2.394336	0.405612	-0.004789
1348	6.7350e-01	6.5240	11.070149	0.000436	4.361112	0.738792	-0.008724
1349	6.7400e-01	6.5164	11.056038	0.000141	1.410948	0.239021	-0.002822
1350	6.7450e-01	6.5088	11.015841	0.000402	4.019064	0.680848	-0.008039
1351	6.7500e-01	6.4954	10.979493	0.000363	3.634260	0.615660	-0.007270
1352	6.7550e-01	6.4874	10.950414	0.000291	2.907408	0.492528	-0.005816
1353	6.7600e-01	6.4780	10.920908	0.000295	2.950164	0.499771	-0.005901
1354	6.7650e-01	6.4636	10.908079	0.000128	1.282680	0.217292	-0.002566
1355	6.7700e-01	6.4551	10.860185	0.000479	4.788672	0.811223	-0.009579
1356	6.7750e-01	6.4485	10.829824	0.000304	3.035676	0.514257	-0.006072
1357	6.7800e-01	6.4374	10.804166	0.000257	2.565360	0.434584	-0.005132
1358	6.7850e-01	6.4249	10.776798	0.000274	2.736384	0.463556	-0.005474
1359	6.7900e-01	6.4172	10.746437	0.000304	3.035676	0.514257	-0.006072
1360	6.7950e-01	6.4081	10.718214	0.000282	2.821896	0.478042	-0.005645
1361	6.8000e-01	6.3983	10.689135	0.000291	2.907408	0.492528	-0.005816
1362	6.8050e-01	6.3873	10.659201	0.000299	2.992920	0.507014	-0.005987
1363	6.8100e-01	6.3739	10.624564	0.000346	3.463236	0.586688	-0.006928
1364	6.8150e-01	6.3647	10.608314	0.000162	1.624728	0.275236	-0.003250
1365	6.8200e-01	6.3550	10.567262	0.000410	4.104576	0.695334	-0.008210
1366	6.8250e-01	6.3443	10.546736	0.000205	2.052288	0.347667	-0.004105
1367	6.8300e-01	6.3354	10.502263	0.000445	4.446624	0.753279	-0.008895
1368	6.8350e-01	6.3263	10.476178	0.000261	2.608116	0.441827	-0.005217
1369	6.8400e-01	6.3184	10.452231	0.000239	2.394336	0.405612	-0.004789
1370	6.8450e-01	6.3049	10.417593	0.000346	3.463236	0.586688	-0.006928
1371	6.8500e-01	6.2946	10.379534	0.000381	3.805284	0.644633	-0.007612
1372	6.8550e-01	6.2872	10.362857	0.000167	1.667484	0.282479	-0.003335
1373	6.8600e-01	6.2753	10.329930	0.000329	3.292212	0.557716	-0.006585
1374	6.8650e-01	6.2679	10.297430	0.000325	3.249456	0.550473	-0.006500
1375	6.8700e-01	6.2562	10.272201	0.000252	2.522604	0.427341	-0.005046
1376	6.8750e-01	6.2451	10.244405	0.000278	2.779140	0.470799	-0.005559
1377	6.8800e-01	6.2347	10.215326	0.000291	2.907408	0.492528	-0.005816
1378	6.8850e-01	6.2268	10.181972	0.000333	3.334968	0.564959	-0.006671
1379	6.8900e-01	6.2152	10.150327	0.000316	3.163944	0.535987	-0.006329
1380	6.8950e-01	6.2076	10.120394	0.000299	2.992920	0.507014	-0.005987
1381	6.9000e-01	6.1981	10.080197	0.000402	4.019064	0.680848	-0.008039
1382	6.9050e-01	6.1859	10.050263	0.000299	2.992920	0.507014	-0.005987
1383	6.9100e-01	6.1755	10.023750	0.000265	2.650872	0.449070	-0.005303
1384	6.9150e-01	6.1673	9.997665	0.000261	2.608116	0.441827	-0.005217
1385	6.9200e-01	6.1559	9.960034	0.000376	3.762528	0.637390	-0.007526
1386	6.9250e-01	6.1441	9.940791	0.000192	1.924020	0.325938	-0.003849
1387	6.9300e-01	6.1349	9.898456	0.000423	4.232844	0.717063	-0.008467
1388	6.9350e-01	6.1277	9.869378	0.000291	2.907408	0.492528	-0.005816
1389	6.9400e-01	6.1169	9.833029	0.000363	3.634260	0.615660	-0.007270
1390	6.9450e-01	6.1069	9.794543	0.000385	3.848040	0.651876	-0.007697
1391	6.9500e-01	6.0982	9.773162	0.000214	2.137800	0.362153	-0.004276
1392	6.9550e-01	6.0846	9.744511	0.000286	2.864652	0.485285	-0.005730
1393	6.9600e-01	6.0751	9.713722	0.000308	3.078432	0.521501	-0.006158
1394	6.9650e-01	6.0660	9.679512	0.000342	3.420480	0.579445	-0.006842
1395	6.9700e-01	6.0590	9.654282	0.000252	2.522604	0.427341	-0.005046
1396	6.9750e-01	6.0486	9.621355	0.000329	3.292212	0.557716	-0.006585
1397	6.9800e-01	6.0376	9.593559	0.000278	2.779140	0.470799	-0.005559
1398	6.9850e-01	6.0278	9.562343	0.000312	3.121188	0.528744	-0.006243
1399	6.9900e-01	6.0168	9.517442	0.000449	4.489380	0.760522	-0.008980
1400	6.9950e-01	6.0074	9.502903	0.000145	1.453704	0.246264	-0.002908
1401	7.0000e-01	5.9970	9.460995	0.000419	4.190088	0.709820	-0.008381
1402	7.0050e-01	5.9854	9.437048	0.000239	2.394336	0.405612	-0.004789
1403	7.0100e-01	5.9756	9.409253	0.000278	2.779140	0.470799	-0.005559
1404	7.0150e-01	5.9683	9.354944	0.000543	5.430012	0.919869	-0.010862
1405	7.0200e-01	5.9552	9.351951	0.000030	0.299292	0.050701	-0.000599
1406	7.0250e-01	5.9482	9.300208	0.000517	5.173476	0.876411	-0.010349
1407	7.0300e-01	5.9375	9.275406	0.000248	2.479848	0.420098	-0.004960
1408	7.0350e-01	5.9265	9.256163	0.000192	1.924020	0.325938	-0.003849
1409	7.0400e-01	5.9161	9.222380	0.000338	3.377724	0.572202	-0.006756
1410	7.0450e-01	5.9082	9.188598	0.000338	3.377724	0.572202	-0.006756
1411	7.0500e-01	5.8972	9.151822	0.000368	3.677016	0.622903	-0.007355
1412	7.0550e-01	5.8890	9.120606	0.000312	3.121188	0.528744	-0.006243
1413	7.0600e-01	5.8746	9.103073	0.000175	1.752996	0.296966	-0.003507
1414	7.0650e-01	5.8649	9.060738	0.000423	4.232844	0.717063	-0.008467
1415	7.0700e-01	5.8557	9.029521	0.000312	3.121188	0.528744	-0.006243
1416	7.0750e-01	5.8444	8.997022	0.000325	3.249456	0.550473	-0.006500
1417	7.0800e-01	5.8357	8.962384	0.000346	3.463236	0.586688	-0.006928
1418	7.0850e-01	5.8279	8.928602	0.000338	3.377724	0.572202	-0.006756
1419	7.0900e-01	5.8182	8.897813	0.000308	3.078432	0.521501	-0.006158
1420	7.0950e-01	5.8040	8.873438	0.000244	2.437092	0.412855	-0.004875
1421	7.1000e-01	5.7953	8.840511	0.000329	3.292212	0.557716	-0.006585
1422	7.1050e-01	5.7874	8.807584	0.000329	3.292212	0.557716	-0.006585
1423	7.1100e-01	5.7776	8.769953	0.000376	3.762528	0.637390	-0.007526
1424	7.1150e-01	5.7655	8.734460	0.000355	3.548748	0.601174	-0.007099
1425	7.1200e-01	5.7581	8.714362	0.000201	2.009532	0.340424	-0.004020
1426	7.1250e-01	5.7452	8.670316	0.000440	4.403868	0.746035	-0.008809
1427	7.1300e-01	5.7343	8.653211	0.000171	1.710240	0.289723	-0.003421
1428	7.1350e-01	5.7251	8.621995	0.000312	3.121188	0.528744	-0.006243
1429	7.1400e-01	5.7153	8.578804	0.000432	4.318356	0.731549	-0.008638
1430	7.1450e-01	5.7037	8.563838	0.000150	1.496460	0.253507	-0.002993
1431	7.1500e-01	5.6989	8.524924	0.000389	3.890796	0.659119	-0.007783
1432	7.1550e-01	5.6883	8.484727	0.000402	4.019064	0.680848	-0.008039
1433	7.1600e-01	5.6783	8.438971	0.000457	4.574892	0.775008	-0.009151
1434	7.1650e-01	5.6671	8.419728	0.000192	1.924020	0.325938	-0.003849
1435	7.1700e-01	5.6580	8.393215	0.000265	2.650872	0.449070	-0.005303
1436	7.1750e-01	5.6439	8.350880	0.000423	4.232844	0.717063	-0.008467
1437	7.1800e-01	5.6384	8.327361	0.000235	2.351580	0.398368	-0.004704
1438	7.1850e-01	5.6253	8.289730	0.000376	3.762528	0.637390	-0.007526
1439	7.1900e-01	5.6165	8.261079	0.000286	2.864652	0.485285	-0.005730
1440	7.1950e-01	5.6071	8.231573	0.000295	2.950164	0.499771	-0.005901
1441	7.2000e-01	5.5958	8.195652	0.000359	3.591504	0.608417	-0.007184
1442	7.2050e-01	5.5821	8.173416	0.000222	2.223312	0.376639	-0.004447
1443	7.2100e-01	5.5789	8.129798	0.000436	4.361112	0.738792	-0.008724
1444	7.2150e-01	5.5676	8.106706	0.000231	2.308824	0.391125	-0.004618
1445	7.2200e-01	5.5573	8.065654	0.000410	4.104576	0.695334	-0.008210
1446	7.2250e-01	5.5469	8.033582	0.000321	3.206700	0.543230	-0.006414
1447	7.2300e-01	5.5365	8.010063	0.000235	2.351580	0.398368	-0.004704
1448	7.2350e-01	5.5257	7.968156	0.000419	4.190088	0.709820	-0.008381
1449	7.2400e-01	5.5164	7.942070	0.000261	2.608116	0.441827	-0.005217
1450	7.2450e-01	5.5031	7.912137	0.000299	2.992920	0.507014	-0.005987
1451	7.2500e-01	5.4956	7.874506	0.000376	3.762528	0.637390	-0.007526
1452	7.2550e-01	5.4846	7.845855	0.000286	2.864652	0.485285	-0.005730
1453	7.2600e-01	5.4776	7.799244	0.000466	4.660404	0.789494	-0.009322
1454	7.2650e-01	5.4645	7.777862	0.000214	2.137800	0.362153	-0.004276
1455	7.2700e-01	5.4572	7.743652	0.000342	3.420480	0.579445	-0.006842
1456	7.2750e-01	5.4448	7.709442	0.000342	3.420480	0.579445	-0.006842
1457	7.2800e-01	5.4376	7.670528	0.000389	3.890796	0.659119	-0.007783
1458	7.2850e-01	5.4288	7.646581	0.000239	2.394336	0.405612	-0.004789
1459	7.2900e-01	5.4169	7.614082	0.000325	3.249456	0.550473	-0.006500
1460	7.2950e-01	5.4041	7.583293	0.000308	3.078432	0.521501	-0.006158
1461	7.3000e-01	5.3949	7.545234	0.000381	3.805284	0.644633	-0.007612
1462	7.3050e-01	5.3860	7.510597	0.000346	3.463236	0.586688	-0.006928
1463	7.3100e-01	5.3761	7.475959	0.000346	3.463236	0.586688	-0.006928
1464	7.3150e-01	5.3627	7.455433	0.000205	2.052288	0.347667	-0.004105
1465	7.3200e-01	5.3552	7.414808	0.000406	4.061820	0.688091	-0.008125
1466	7.3250e-01	5.3458	7.378888	0.000359	3.591504	0.608417	-0.007184
1467	7.3300e-01	5.3354	7.354086	0.000248	2.479848	0.420098	-0.004960
1468	7.3350e-01	5.3278	7.310896	0.000432	4.318356	0.731549	-0.008638
1469	7.3400e-01	5.3168	7.277541	0.000333	3.334968	0.564959	-0.006671
1470	7.3450e-01	5.3104	7.243331	0.000342	3.420480	0.579445	-0.006842
1471	7.3500e-01	5.2979	7.213397	0.000299	2.992920	0.507014	-0.005987
1472	7.3550e-01	5.2840	7.183036	0.000304	3.035676	0.514257	-0.006072
1473	7.3600e-01	5.2771	7.146260	0.000368	3.677016	0.622903	-0.007355
1474	7.3650e-01	5.2658	7.118892	0.000274	2.736384	0.463556	-0.005474
1475	7.3700e-01	5.2551	7.082971	0.000359	3.591504	0.608417	-0.007184
1476	7.3750e-01	5.2490	7.047051	0.000359	3.591504	0.608417	-0.007184
1477	7.3800e-01	5.2359	7.015406	0.000316	3.163944	0.535987	-0.006329
1478	7.3850e-01	5.2242	6.986756	0.000286	2.864652	0.485285	-0.005730
1479	7.3900e-01	5.2155	6.953401	0.000333	3.334968	0.564959	-0.006671
1480	7.3950e-01	5.2052	6.915342	0.000381	3.805284	0.644633	-0.007612
1481	7.4000e-01	5.1968	6.881132	0.000342	3.420480	0.579445	-0.006842
1482	7.4050e-01	5.1843	6.855475	0.000257	2.565360	0.434584	-0.005132
1483	7.4100e-01	5.1761	6.812284	0.000432	4.318356	0.731549	-0.008638
1484	7.4150e-01	5.1636	6.786199	0.000261	2.608116	0.441827	-0.005217
1485	7.4200e-01	5.1578	6.751134	0.000351	3.505992	0.593931	-0.007013
1486	7.4250e-01	5.1480	6.709227	0.000419	4.190088	0.709820	-0.008381
1487	7.4300e-01	5.1373	6.680576	0.000286	2.864652	0.485285	-0.005730
1488	7.4350e-01	5.1263	6.642517	0.000381	3.805284	0.644633	-0.007612
1489	7.4400e-01	5.1172	6.621136	0.000214	2.137800	0.362153	-0.004276
1490	7.4450e-01	5.1068	6.576663	0.000445	4.446624	0.753279	-0.008895
1491	7.4500e-01	5.0971	6.554426	0.000222	2.223312	0.376639	-0.004447
1492	7.4550e-01	5.0887	6.509098	0.000453	4.532136	0.767765	-0.009066
1493	7.4600e-01	5.0772	6.474888	0.000342	3.420480	0.579445	-0.006842
1494	7.4650e-01	5.0665	6.443671	0.000312	3.121188	0.528744	-0.006243
1495	7.4700e-01	5.0565	6.403902	0.000398	3.976308	0.673605	-0.007954
1496	7.4750e-01	5.0464	6.365416	0.000385	3.848040	0.651876	-0.007697
1497	7.4800e-01	5.0366	6.333772	0.000316	3.163944	0.535987	-0.006329
1498	7.4850e-01	5.0272	6.307687	0.000261	2.608116	0.441827	-0.005217
1499	7.4900e-01	5.0195	6.271338	0.000363	3.634260	0.615660	-0.007270
1500	7.4950e-01	5.0061	6.248674	0.000227	2.266068	0.383882	-0.004533
1501	7.5000e-01	4.9976	6.209760	0.000389	3.890796	0.659119	-0.007783
1502	7.5050e-01	4.9884	6.170847	0.000389	3.890796	0.659119	-0.007783
1503	7.5100e-01	4.9774	6.137064	0.000338	3.377724	0.572202	-0.006756
1504	7.5150e-01	4.9673	6.117393	0.000197	1.966776	0.333181	-0.003934
1505	7.5200e-01	4.9568	6.081473	0.000359	3.591504	0.608417	-0.007184
1506	7.5250e-01	4.9469	6.035717	0.000457	4.574892	0.775008	-0.009151
1507	7.5300e-01	4.9372	6.004928	0.000308	3.078432	0.521501	-0.006158
1508	7.5350e-01	4.9255	5.968152	0.000368	3.677016	0.622903	-0.007355
1509	7.5400e-01	4.9164	5.936508	0.000316	3.163944	0.535987	-0.006329
1510	7.5450e-01	4.9045	5.895456	0.000410	4.104576	0.695334	-0.008210
1511	7.5500e-01	4.8969	5.868515	0.000269	2.693628	0.456313	-0.005388
1512	7.5550e-01	4.8871	5.831740	0.000368	3.677016	0.622903	-0.007355
1513	7.5600e-01	4.8792	5.792826	0.000389	3.890796	0.659119	-0.007783
1514	7.5650e-01	4.8663	5.765885	0.000269	2.693628	0.456313	-0.005388
1515	7.5700e-01	4.8560	5.732958	0.000329	3.292212	0.557716	-0.006585
1516	7.5750e-01	4.8486	5.684209	0.000487	4.874184	0.825709	-0.009750
1517	7.5800e-01	4.8347	5.650427	0.000338	3.377724	0.572202	-0.006756
1518	7.5850e-01	4.8267	5.628190	0.000222	2.223312	0.376639	-0.004447
1519	7.5900e-01	4.8170	5.590559	0.000376	3.762528	0.637390	-0.007526
1520	7.5950e-01	4.8083	5.553356	0.000372	3.719772	0.630146	-0.007441
1521	7.6000e-01	4.7968	5.525988	0.000274	2.736384	0.463556	-0.005474
1522	7.6050e-01	4.7852	5.489639	0.000363	3.634260	0.615660	-0.007270
1523	7.6100e-01	4.7789	5.446877	0.000428	4.275600	0.724306	-0.008553
1524	7.6150e-01	4.7670	5.404542	0.000423	4.232844	0.717063	-0.008467
1525	7.6200e-01	4.7559	5.376746	0.000278	2.779140	0.470799	-0.005559
1526	7.6250e-01	4.7449	5.347240	0.000295	2.950164	0.499771	-0.005901
1527	7.6300e-01	4.7375	5.310037	0.000372	3.719772	0.630146	-0.007441
1528	7.6350e-01	4.7275	5.271978	0.000381	3.805284	0.644633	-0.007612
1529	7.6400e-01	4.7162	5.238196	0.000338	3.377724	0.572202	-0.006756
1530	7.6450e-01	4.7058	5.208690	0.000295	2.950164	0.499771	-0.005901
1531	7.6500e-01	4.6988	5.165500	0.000432	4.318356	0.731549	-0.008638
1532	7.6550e-01	4.6860	5.127868	0.000376	3.762528	0.637390	-0.007526
1533	7.6600e-01	4.6761	5.096652	0.000312	3.121188	0.528744	-0.006243
1534	7.6650e-01	4.6661	5.060731	0.000359	3.591504	0.608417	-0.007184
1535	7.6700e-01	4.6585	5.020962	0.000398	3.976308	0.673605	-0.007954
1536	7.6750e-01	4.6468	4.992739	0.000282	2.821896	0.478042	-0.005645
1537	7.6800e-01	4.6368	4.959384	0.000333	3.334968	0.564959	-0.006671
1538	7.6850e-01	4.6277	4.922608	0.000368	3.677016	0.622903	-0.007355
1539	7.6900e-01	4.6173	4.878135	0.000445	4.446624	0.753279	-0.008895
1540	7.6950e-01	4.6060	4.852905	0.000252	2.522604	0.427341	-0.005046
1541	7.7000e-01	4.5956	4.817840	0.000351	3.505992	0.593931	-0.007013
1542	7.7050e-01	4.5874	4.784058	0.000338	3.377724	0.572202	-0.006756
1543	7.7100e-01	4.5776	4.754979	0.000291	2.907408	0.492528	-0.005816
1544	7.7150e-01	4.5671	4.712644	0.000423	4.232844	0.717063	-0.008467
1545	7.7200e-01	4.5564	4.668171	0.000445	4.446624	0.753279	-0.008895
1546	7.7250e-01	4.5457	4.642514	0.000257	2.565360	0.434584	-0.005132
1547	7.7300e-01	4.5355	4.610442	0.000321	3.206700	0.543230	-0.006414
1548	7.7350e-01	4.5270	4.565114	0.000453	4.532136	0.767765	-0.009066
1549	7.7400e-01	4.5169	4.533469	0.000316	3.163944	0.535987	-0.006329
1550	7.7450e-01	4.5087	4.496266	0.000372	3.719772	0.630146	-0.007441
1551	7.7500e-01	4.4965	4.459063	0.000372	3.719772	0.630146	-0.007441
1552	7.7550e-01	4.4882	4.417155	0.000419	4.190088	0.709820	-0.008381
1553	7.7600e-01	4.4775	4.393636	0.000235	2.351580	0.398368	-0.004704
1554	7.7650e-01	4.4656	4.365413	0.000282	2.821896	0.478042	-0.005645
1555	7.7700e-01	4.4562	4.320084	0.000453	4.532136	0.767765	-0.009066
1556	7.7750e-01	4.4467	4.286302	0.000338	3.377724	0.572202	-0.006756
1557	7.7800e-01	4.4360	4.248671	0.000376	3.762528	0.637390	-0.007526
1558	7.7850e-01	4.4245	4.217454	0.000312	3.121188	0.528744	-0.006243
1559	7.7900e-01	4.4196	4.174692	0.000428	4.275600	0.724306	-0.008553
1560	7.7950e-01	4.4049	4.137916	0.000368	3.677016	0.622903	-0.007355
1561	7.8000e-01	4.3954	4.110548	0.000274	2.736384	0.463556	-0.005474
1562	7.8050e-01	4.3875	4.070779	0.000398	3.976308	0.673605	-0.007954
1563	7.8100e-01	4.3771	4.049825	0.000210	2.095044	0.354910	-0.004191
1564	7.8150e-01	4.3671	3.989102	0.000607	6.071352	1.028515	-0.012145
1565	7.8200e-01	4.3567	3.963872	0.000252	2.522604	0.427341	-0.005046
1566	7.8250e-01	4.3463	3.927952	0.000359	3.591504	0.608417	-0.007184
1567	7.8300e-01	4.3396	3.884334	0.000436	4.361112	0.738792	-0.008724
1568	7.8350e-01	4.3286	3.839006	0.000453	4.532136	0.767765	-0.009066
1569	7.8400e-01	4.3170	3.816342	0.000227	2.266068	0.383882	-0.004533
1570	7.8450e-01	4.3039	3.779566	0.000368	3.677016	0.622903	-0.007355
1571	7.8500e-01	4.2975	3.742363	0.000372	3.719772	0.630146	-0.007441
1572	7.8550e-01	4.2877	3.707725	0.000346	3.463236	0.586688	-0.006928
1573	7.8600e-01	4.2764	3.672660	0.000351	3.505992	0.593931	-0.007013
1574	7.8650e-01	4.2692	3.632891	0.000398	3.976308	0.673605	-0.007954
1575	7.8700e-01	4.2578	3.583714	0.000492	4.916940	0.832952	-0.009835
1576	7.8750e-01	4.2456	3.553352	0.000304	3.035676	0.514257	-0.006072
1577	7.8800e-01	4.2342	3.524274	0.000291	2.907408	0.492528	-0.005816
1578	7.8850e-01	4.2261	3.491347	0.000329	3.292212	0.557716	-0.006585
1579	7.8900e-01	4.2165	3.456281	0.000351	3.505992	0.593931	-0.007013
1580	7.8950e-01	4.2055	3.412236	0.000440	4.403868	0.746035	-0.008809
1581	7.9000e-01	4.1956	3.380592	0.000316	3.163944	0.535987	-0.006329
1582	7.9050e-01	4.1866	3.345099	0.000355	3.548748	0.601174	-0.007099
1583	7.9100e-01	4.1766	3.305330	0.000398	3.976308	0.673605	-0.007954
1584	7.9150e-01	4.1666	3.267699	0.000376	3.762528	0.637390	-0.007526
1585	7.9200e-01	4.1559	3.242041	0.000257	2.565360	0.434584	-0.005132
1586	7.9250e-01	4.1455	3.186022	0.000560	5.601036	0.948841	-0.011204
1587	7.9300e-01	4.1370	3.165924	0.000201	2.009532	0.340424	-0.004020
1588	7.9350e-01	4.1272	3.121878	0.000440	4.403868	0.746035	-0.008809
1589	7.9400e-01	4.1162	3.085103	0.000368	3.677016	0.622903	-0.007355
1590	7.9450e-01	4.1089	3.042768	0.000423	4.232844	0.717063	-0.008467
1591	7.9500e-01	4.0967	3.016683	0.000261	2.608116	0.441827	-0.005217
1592	7.9550e-01	4.0871	2.968361	0.000483	4.831428	0.818466	-0.009664
1593	7.9600e-01	4.0765	2.935861	0.000325	3.249456	0.550473	-0.006500
1594	7.9650e-01	4.0665	2.893954	0.000419	4.190088	0.709820	-0.008381
1595	7.9700e-01	4.0552	2.851192	0.000428	4.275600	0.724306	-0.008553
1596	7.9750e-01	4.0497	2.815699	0.000355	3.548748	0.601174	-0.007099
1597	7.9800e-01	4.0369	2.778068	0.000376	3.762528	0.637390	-0.007526
1598	7.9850e-01	4.0259	2.749417	0.000286	2.864652	0.485285	-0.005730
1599	7.9900e-01	4.0164	2.707509	0.000419	4.190088	0.709820	-0.008381
1600	7.9950e-01	4.0046	2.666030	0.000415	4.147332	0.702577	-0.008296
1601	8.0000e-01	3.9966	2.637379	0.000286	2.864652	0.485285	-0.005730
1602	8.0050e-01	3.9850	2.597182	0.000402	4.019064	0.680848	-0.008039
1603	8.0100e-01	3.9749	2.547150	0.000500	5.002452	0.847438	-0.010006
1604	8.0150e-01	3.9673	2.515078	0.000321	3.206700	0.543230	-0.006414
1605	8.0200e-01	3.9554	2.485144	0.000299	2.992920	0.507014	-0.005987
1606	8.0250e-01	3.9462	2.455638	0.000295	2.950164	0.499771	-0.005901
1607	8.0300e-01	3.9383	2.409027	0.000466	4.660404	0.789494	-0.009322
1608	8.0350e-01	3.9270	2.374389	0.000346	3.463236	0.586688	-0.006928
1609	8.0400e-01	3.9142	2.330344	0.000440	4.403868	0.746035	-0.008809
1610	8.0450e-01	3.9041	2.297844	0.000325	3.249456	0.550473	-0.006500
1611	8.0500e-01	3.8968	2.257648	0.000402	4.019064	0.680848	-0.008039
1612	8.0550e-01	3.8864	2.223438	0.000342	3.420480	0.579445	-0.006842
1613	8.0600e-01	3.8795	2.183241	0.000402	4.019064	0.680848	-0.008039
1614	8.0650e-01	3.8666	2.143044	0.000402	4.019064	0.680848	-0.008039
1615	8.0700e-01	3.8544	2.104130	0.000389	3.890796	0.659119	-0.007783
1616	8.0750e-01	3.8477	2.070775	0.000333	3.334968	0.564959	-0.006671
1617	8.0800e-01	3.8391	2.026302	0.000445	4.446624	0.753279	-0.008895
1618	8.0850e-01	3.8281	1.992948	0.000333	3.334968	0.564959	-0.006671
1619	8.0900e-01	3.8167	1.952751	0.000402	4.019064	0.680848	-0.008039
1620	8.0950e-01	3.8057	1.916403	0.000363	3.634260	0.615660	-0.007270
1621	8.1000e-01	3.7952	1.877916	0.000385	3.848040	0.651876	-0.007697
1622	8.1050e-01	3.7842	1.836864	0.000410	4.104576	0.695334	-0.008210
1623	8.1100e-01	3.7756	1.797095	0.000398	3.976308	0.673605	-0.007954
1624	8.1150e-01	3.7627	1.763740	0.000333	3.334968	0.564959	-0.006671
1625	8.1200e-01	3.7561	1.727392	0.000363	3.634260	0.615660	-0.007270
1626	8.1250e-01	3.7477	1.690189	0.000372	3.719772	0.630146	-0.007441
1627	8.1300e-01	3.7378	1.648282	0.000419	4.190088	0.709820	-0.008381
1628	8.1350e-01	3.7265	1.617493	0.000308	3.078432	0.521501	-0.006158
1629	8.1400e-01	3.7170	1.574302	0.000432	4.318356	0.731549	-0.008638
1630	8.1450e-01	3.7048	1.528974	0.000453	4.532136	0.767765	-0.009066
1631	8.1500e-01	3.6946	1.496475	0.000325	3.249456	0.550473	-0.006500
1632	8.1550e-01	3.6859	1.462692	0.000338	3.377724	0.572202	-0.006756
1633	8.1600e-01	3.6783	1.404535	0.000581	5.814816	0.985057	-0.011631
1634	8.1650e-01	3.6688	1.370753	0.000338	3.377724	0.572202	-0.006756
1635	8.1700e-01	3.6566	1.339964	0.000308	3.078432	0.521501	-0.006158
1636	8.1750e-01	3.6440	1.303188	0.000368	3.677016	0.622903	-0.007355
1637	8.1800e-01	3.6349	1.265129	0.000381	3.805284	0.644633	-0.007612
1638	8.1850e-01	3.6273	1.238189	0.000269	2.693628	0.456313	-0.005388
1639	8.1900e-01	3.6178	1.177039	0.000611	6.114108	1.035758	-0.012230
1640	8.1950e-01	3.6053	1.141118	0.000359	3.591504	0.608417	-0.007184
1641	8.2000e-01	3.5968	1.112467	0.000286	2.864652	0.485285	-0.005730
1642	8.2050e-01	3.5883	1.062863	0.000496	4.959696	0.840195	-0.009921
1643	8.2100e-01	3.5730	1.032074	0.000308	3.078432	0.521501	-0.006158
1644	8.2150e-01	3.5657	0.983324	0.000487	4.874184	0.825709	-0.009750
1645	8.2200e-01	3.5526	0.957667	0.000257	2.565360	0.434584	-0.005132
1646	8.2250e-01	3.5426	0.919181	0.000385	3.848040	0.651876	-0.007697
1647	8.2300e-01	3.5373	0.876418	0.000428	4.275600	0.724306	-0.008553
1648	8.2350e-01	3.5272	0.831945	0.000445	4.446624	0.753279	-0.008895
1649	8.2400e-01	3.5175	0.783623	0.000483	4.831428	0.818466	-0.009664
1650	8.2450e-01	3.5063	0.759249	0.000244	2.437092	0.412855	-0.004875
1651	8.2500e-01	3.4955	0.710499	0.000487	4.874184	0.825709	-0.009750
1652	8.2550e-01	3.4875	0.669447	0.000410	4.104576	0.695334	-0.008210
1653	8.2600e-01	3.4772	0.631389	0.000381	3.805284	0.644633	-0.007612
1654	8.2650e-01	3.4690	0.597179	0.000342	3.420480	0.579445	-0.006842
1655	8.2700e-01	3.4552	0.551423	0.000457	4.574892	0.775008	-0.009151
1656	8.2750e-01	3.4470	0.515502	0.000359	3.591504	0.608417	-0.007184
1657	8.2800e-01	3.4359	0.481720	0.000338	3.377724	0.572202	-0.006756
1658	8.2850e-01	3.4267	0.434681	0.000470	4.703160	0.796737	-0.009408
1659	8.2900e-01	3.4167	0.394912	0.000398	3.976308	0.673605	-0.007954
1660	8.2950e-01	3.4042	0.350439	0.000445	4.446624	0.753279	-0.008895
1661	8.3000e-01	3.3949	0.314518	0.000359	3.591504	0.608417	-0.007184
1662	8.3050e-01	3.3878	0.282019	0.000325	3.249456	0.550473	-0.006500
1663	8.3100e-01	3.3778	0.237546	0.000445	4.446624	0.753279	-0.008895
1664	8.3150e-01	3.3674	0.196066	0.000415	4.147332	0.702577	-0.008296
1665	8.3200e-01	3.3585	0.155014	0.000410	4.104576	0.695334	-0.008210
1666	8.3250e-01	3.3463	0.116100	0.000389	3.890796	0.659119	-0.007783
1667	8.3300e-01	3.3366	0.081035	0.000351	3.505992	0.593931	-0.007013
1668	8.3350e-01	3.3270	0.035707	0.000453	4.532136	0.767765	-0.009066
1669	8.3400e-01	3.3157	0.000641	0.000351	3.505992	0.593931	-0.007013
1670	8.3450e-01	3.3060	-0.043832	0.000445	4.446624	0.753279	-0.008895
1671	8.3500e-01	3.2981	-0.096002	0.000522	5.216232	0.883654	-0.010434
1672	8.3550e-01	3.2849	-0.116528	0.000205	2.052288	0.347667	-0.004105
1673	8.3600e-01	3.2777	-0.169553	0.000530	5.301744	0.898140	-0.010605
1674	8.3650e-01	3.2675	-0.205474	0.000359	3.591504	0.608417	-0.007184
1675	8.3700e-01	3.2556	-0.244388	0.000389	3.890796	0.659119	-0.007783
1676	8.3750e-01	3.2462	-0.289716	0.000453	4.532136	0.767765	-0.009066
1677	8.3800e-01	3.2368	-0.323071	0.000333	3.334968	0.564959	-0.006671
1678	8.3850e-01	3.2272	-0.370110	0.000470	4.703160	0.796737	-0.009408
1679	8.3900e-01	3.2187	-0.409451	0.000393	3.933552	0.666362	-0.007868
1680	8.3950e-01	3.2049	-0.452641	0.000432	4.318356	0.731549	-0.008638
1681	8.4000e-01	3.1948	-0.486851	0.000342	3.420480	0.579445	-0.006842
1682	8.4050e-01	3.1857	-0.530042	0.000432	4.318356	0.731549	-0.008638
1683	8.4100e-01	3.1757	-0.564252	0.000342	3.420480	0.579445	-0.006842
1684	8.4150e-01	3.1671	-0.612573	0.000483	4.831428	0.818466	-0.009664
1685	8.4200e-01	3.1552	-0.653198	0.000406	4.061820	0.688091	-0.008125
1686	8.4250e-01	3.1480	-0.692539	0.000393	3.933552	0.666362	-0.007868
1687	8.4300e-01	3.1366	-0.734019	0.000415	4.147332	0.702577	-0.008296
1688	8.4350e-01	3.1262	-0.766518	0.000325	3.249456	0.550473	-0.006500
1689	8.4400e-01	3.1165	-0.812702	0.000462	4.617648	0.782251	-0.009237
1690	8.4450e-01	3.1068	-0.857175	0.000445	4.446624	0.753279	-0.008895
1691	8.4500e-01	3.0977	-0.899510	0.000423	4.232844	0.717063	-0.008467
1692	8.4550e-01	3.0856	-0.940562	0.000410	4.104576	0.695334	-0.008210
1693	8.4600e-01	3.0786	-0.977765	0.000372	3.719772	0.630146	-0.007441
1694	8.4650e-01	3.0675	-1.027370	0.000496	4.959696	0.840195	-0.009921
1695	8.4700e-01	3.0563	-1.065428	0.000381	3.805284	0.644633	-0.007612
1696	8.4750e-01	3.0449	-1.103059	0.000376	3.762528	0.637390	-0.007526
1697	8.4800e-01	3.0377	-1.150953	0.000479	4.788672	0.811223	-0.009579
1698	8.4850e-01	3.0258	-1.184736	0.000338	3.377724	0.572202	-0.006756
1699	8.4900e-01	3.0151	-1.228781	0.000440	4.403868	0.746035	-0.008809
1700	8.4950e-01	3.0066	-1.264702	0.000359	3.591504	0.608417	-0.007184
1701	8.5000e-01	2.9944	-1.293780	0.000291	2.907408	0.492528	-0.005816
1702	8.5050e-01	2.9871	-1.348089	0.000543	5.430012	0.919869	-0.010862
1703	8.5100e-01	2.9770	-1.398548	0.000505	5.045208	0.854681	-0.010092
1704	8.5150e-01	2.9688	-1.436607	0.000381	3.805284	0.644633	-0.007612
1705	8.5200e-01	2.9561	-1.491771	0.000552	5.515524	0.934355	-0.011033
1706	8.5250e-01	2.9445	-1.516573	0.000248	2.479848	0.420098	-0.004960
1707	8.5300e-01	2.9366	-1.556770	0.000402	4.019064	0.680848	-0.008039
1708	8.5350e-01	2.9245	-1.605091	0.000483	4.831428	0.818466	-0.009664
1709	8.5400e-01	2.9206	-1.646143	0.000410	4.104576	0.695334	-0.008210
1710	8.5450e-01	2.9035	-1.680781	0.000346	3.463236	0.586688	-0.006928
1711	8.5500e-01	2.8937	-1.724827	0.000440	4.403868	0.746035	-0.008809
1712	8.5550e-01	2.8865	-1.775286	0.000505	5.045208	0.854681	-0.010092
1713	8.5600e-01	2.8806	-1.805220	0.000299	2.992920	0.507014	-0.005987
1714	8.5650e-01	2.8662	-1.860384	0.000552	5.515524	0.934355	-0.011033
1715	8.5700e-01	2.8577	-1.901436	0.000410	4.104576	0.695334	-0.008210
1716	8.5750e-01	2.8519	-1.942915	0.000415	4.147332	0.702577	-0.008296
1717	8.5800e-01	2.8358	-1.988671	0.000457	4.574892	0.775008	-0.009151
1718	8.5850e-01	2.8268	-2.028868	0.000402	4.019064	0.680848	-0.008039
1719	8.5900e-01	2.8168	-2.071203	0.000423	4.232844	0.717063	-0.008467
1720	8.5950e-01	2.8055	-2.115248	0.000440	4.403868	0.746035	-0.008809
1721	8.6000e-01	2.7943	-2.147320	0.000321	3.206700	0.543230	-0.006414
1722	8.6050e-01	2.7853	-2.184951	0.000376	3.762528	0.637390	-0.007526
1723	8.6100e-01	2.7773	-2.241398	0.000564	5.643792	0.956084	-0.011289
1724	8.6150e-01	2.7670	-2.279457	0.000381	3.805284	0.644633	-0.007612
1725	8.6200e-01	2.7561	-2.317515	0.000381	3.805284	0.644633	-0.007612
1726	8.6250e-01	2.7482	-2.359422	0.000419	4.190088	0.709820	-0.008381
1727	8.6300e-01	2.7394	-2.409882	0.000505	5.045208	0.854681	-0.010092
1728	8.6350e-01	2.7265	-2.447086	0.000372	3.719772	0.630146	-0.007441
1729	8.6400e-01	2.7148	-2.491131	0.000440	4.403868	0.746035	-0.008809
1730	8.6450e-01	2.7048	-2.526196	0.000351	3.505992	0.593931	-0.007013
1731	8.6500e-01	2.6994	-2.571097	0.000449	4.489380	0.760522	-0.008980
1732	8.6550e-01	2.6871	-2.624978	0.000539	5.387256	0.912626	-0.010776
1733	8.6600e-01	2.6773	-2.665175	0.000402	4.019064	0.680848	-0.008039
1734	8.6650e-01	2.6665	-2.704516	0.000393	3.933552	0.666362	-0.007868
1735	8.6700e-01	2.6566	-2.741719	0.000372	3.719772	0.630146	-0.007441
1736	8.6750e-01	2.6465	-2.796455	0.000547	5.472768	0.927112	-0.010947
1737	8.6800e-01	2.6350	-2.828100	0.000316	3.163944	0.535987	-0.006329
1738	8.6850e-01	2.6268	-2.881553	0.000534	5.344500	0.905383	-0.010691
1739	8.6900e-01	2.6154	-2.925171	0.000436	4.361112	0.738792	-0.008724
1740	8.6950e-01	2.6089	-2.969216	0.000440	4.403868	0.746035	-0.008809
1741	8.7000e-01	2.5952	-3.013261	0.000440	4.403868	0.746035	-0.008809
1742	8.7050e-01	2.5844	-3.051748	0.000385	3.848040	0.651876	-0.007697
1743	8.7100e-01	2.5757	-3.104346	0.000526	5.258988	0.890897	-0.010520
1744	8.7150e-01	2.5668	-3.136418	0.000321	3.206700	0.543230	-0.006414
1745	8.7200e-01	2.5549	-3.187305	0.000509	5.087964	0.861925	-0.010177
1746	8.7250e-01	2.5452	-3.229640	0.000423	4.232844	0.717063	-0.008467
1747	8.7300e-01	2.5346	-3.266416	0.000368	3.677016	0.622903	-0.007355
1748	8.7350e-01	2.5261	-3.319869	0.000534	5.344500	0.905383	-0.010691
1749	8.7400e-01	2.5150	-3.359638	0.000398	3.976308	0.673605	-0.007954
1750	8.7450e-01	2.5061	-3.395558	0.000359	3.591504	0.608417	-0.007184
1751	8.7500e-01	2.4960	-3.443453	0.000479	4.788672	0.811223	-0.009579
1752	8.7550e-01	2.4866	-3.478945	0.000355	3.548748	0.601174	-0.007099
1753	8.7600e-01	2.4764	-3.524274	0.000453	4.532136	0.767765	-0.009066
1754	8.7650e-01	2.4680	-3.578582	0.000543	5.430012	0.919869	-0.010862
1755	8.7700e-01	2.4554	-3.617496	0.000389	3.890796	0.659119	-0.007783
1756	8.7750e-01	2.4475	-3.676508	0.000590	5.900328	0.999543	-0.011802
1757	8.7800e-01	2.4350	-3.705159	0.000286	2.864652	0.485285	-0.005730
1758	8.7850e-01	2.4266	-3.750487	0.000453	4.532136	0.767765	-0.009066
1759	8.7900e-01	2.4159	-3.796243	0.000457	4.574892	0.775008	-0.009151
1760	8.7950e-01	2.4097	-3.838151	0.000419	4.190088	0.709820	-0.008381
1761	8.8000e-01	2.3999	-3.882624	0.000445	4.446624	0.753279	-0.008895
1762	8.8050e-01	2.3834	-3.936504	0.000539	5.387256	0.912626	-0.010776
1763	8.8100e-01	2.3755	-3.972425	0.000359	3.591504	0.608417	-0.007184
1764	8.8150e-01	2.3651	-4.017326	0.000449	4.489380	0.760522	-0.008980
1765	8.8200e-01	2.3572	-4.058378	0.000410	4.104576	0.695334	-0.008210
1766	8.8250e-01	2.3450	-4.104134	0.000457	4.574892	0.775008	-0.009151
1767	8.8300e-01	2.3354	-4.155876	0.000517	5.173476	0.876411	-0.010349
1768	8.8350e-01	2.3266	-4.188376	0.000325	3.249456	0.550473	-0.006500
1769	8.8400e-01	2.3183	-4.241829	0.000534	5.344500	0.905383	-0.010691
1770	8.8450e-01	2.3023	-4.282453	0.000406	4.061820	0.688091	-0.008125
1771	8.8500e-01	2.2952	-4.328637	0.000462	4.617648	0.782251	-0.009237
1772	8.8550e-01	2.2849	-4.376531	0.000479	4.788672	0.811223	-0.009579
1773	8.8600e-01	2.2776	-4.420576	0.000440	4.403868	0.746035	-0.008809
1774	8.8650e-01	2.2635	-4.478733	0.000581	5.814816	0.985057	-0.011631
1775	8.8700e-01	2.2569	-4.513799	0.000351	3.505992	0.593931	-0.007013
1776	8.8750e-01	2.2470	-4.563403	0.000496	4.959696	0.840195	-0.009921
1777	8.8800e-01	2.2346	-4.602745	0.000393	3.933552	0.666362	-0.007868
1778	8.8850e-01	2.2266	-4.644224	0.000415	4.147332	0.702577	-0.008296
1779	8.8900e-01	2.2180	-4.691691	0.000475	4.745916	0.803980	-0.009493
1780	8.8950e-01	2.2052	-4.741295	0.000496	4.959696	0.840195	-0.009921
1781	8.9000e-01	2.1950	-4.785341	0.000440	4.403868	0.746035	-0.008809
1782	8.9050e-01	2.1840	-4.830241	0.000449	4.489380	0.760522	-0.008980
1783	8.9100e-01	2.1756	-4.873004	0.000428	4.275600	0.724306	-0.008553
1784	8.9150e-01	2.1635	-4.923464	0.000505	5.045208	0.854681	-0.010092
1785	8.9200e-01	2.1564	-4.958101	0.000346	3.463236	0.586688	-0.006928
1786	8.9250e-01	2.1481	-5.003857	0.000457	4.574892	0.775008	-0.009151
1787	8.9300e-01	2.1361	-5.052179	0.000483	4.831428	0.818466	-0.009664
1788	8.9350e-01	2.1285	-5.100928	0.000487	4.874184	0.825709	-0.009750
1789	8.9400e-01	2.1167	-5.150533	0.000496	4.959696	0.840195	-0.009921
1790	8.9450e-01	2.1060	-5.183460	0.000329	3.292212	0.557716	-0.006585
1791	8.9500e-01	2.0938	-5.234347	0.000509	5.087964	0.861925	-0.010177
1792	8.9550e-01	2.0848	-5.286945	0.000526	5.258988	0.890897	-0.010520
1793	8.9600e-01	2.0798	-5.335267	0.000483	4.831428	0.818466	-0.009664
1794	8.9650e-01	2.0672	-5.381878	0.000466	4.660404	0.789494	-0.009322
1795	8.9700e-01	2.0563	-5.425923	0.000440	4.403868	0.746035	-0.008809
1796	8.9750e-01	2.0474	-5.469969	0.000440	4.403868	0.746035	-0.008809
1797	8.9800e-01	2.0390	-5.518290	0.000483	4.831428	0.818466	-0.009664
1798	8.9850e-01	2.0244	-5.559770	0.000415	4.147332	0.702577	-0.008296
1799	8.9900e-01	2.0163	-5.602533	0.000428	4.275600	0.724306	-0.008553
1800	8.9950e-01	2.0057	-5.655558	0.000530	5.301744	0.898140	-0.010605
1801	9.0000e-01	1.9960	-5.701742	0.000462	4.617648	0.782251	-0.009237
1802	9.0050e-01	1.9871	-5.745787	0.000440	4.403868	0.746035	-0.008809
1803	9.0100e-01	1.9757	-5.794109	0.000483	4.831428	0.818466	-0.009664
1804	9.0150e-01	1.9669	-5.842003	0.000479	4.788672	0.811223	-0.009579
1805	9.0200e-01	1.9560	-5.889469	0.000475	4.745916	0.803980	-0.009493
1806	9.0250e-01	1.9458	-5.933514	0.000440	4.403868	0.746035	-0.008809
1807	9.0300e-01	1.9357	-5.976277	0.000428	4.275600	0.724306	-0.008553
1808	9.0350e-01	1.9258	-6.021605	0.000453	4.532136	0.767765	-0.009066
1809	9.0400e-01	1.9157	-6.077197	0.000556	5.558280	0.941598	-0.011118
1810	9.0450e-01	1.9055	-6.119104	0.000419	4.190088	0.709820	-0.008381
1811	9.0500e-01	1.8959	-6.161866	0.000428	4.275600	0.724306	-0.008553
1812	9.0550e-01	1.8821	-6.219168	0.000573	5.729304	0.970570	-0.011460
1813	9.0600e-01	1.8761	-6.251668	0.000325	3.249456	0.550473	-0.006500
1814	9.0650e-01	1.8665	-6.308969	0.000573	5.729304	0.970570	-0.011460
1815	9.0700e-01	1.8564	-6.357291	0.000483	4.831428	0.818466	-0.009664
1816	9.0750e-01	1.8477	-6.395350	0.000381	3.805284	0.644633	-0.007612
1817	9.0800e-01	1.8356	-6.449658	0.000543	5.430012	0.919869	-0.010862
1818	9.0850e-01	1.8248	-6.491993	0.000423	4.232844	0.717063	-0.008467
1819	9.0900e-01	1.8162	-6.548867	0.000569	5.686548	0.963327	-0.011375
1820	9.0950e-01	1.8091	-6.590775	0.000419	4.190088	0.709820	-0.008381
1821	9.1000e-01	1.7965	-6.637813	0.000470	4.703160	0.796737	-0.009408
1822	9.1050e-01	1.7842	-6.679293	0.000415	4.147332	0.702577	-0.008296
1823	9.1100e-01	1.7762	-6.734029	0.000547	5.472768	0.927112	-0.010947
1824	9.1150e-01	1.7641	-6.782351	0.000483	4.831428	0.818466	-0.009664
1825	9.1200e-01	1.7562	-6.819126	0.000368	3.677016	0.622903	-0.007355
1826	9.1250e-01	1.7448	-6.878566	0.000594	5.943084	1.006786	-0.011888
1827	9.1300e-01	1.7338	-6.923895	0.000453	4.532136	0.767765	-0.009066
1828	9.1350e-01	1.7242	-6.955539	0.000316	3.163944	0.535987	-0.006329
1829	9.1400e-01	1.7160	-7.014551	0.000590	5.900328	0.999543	-0.011802
1830	9.1450e-01	1.7047	-7.065866	0.000513	5.130720	0.869168	-0.010263
1831	9.1500e-01	1.6985	-7.119319	0.000534	5.344500	0.905383	-0.010691
1832	9.1550e-01	1.6882	-7.161227	0.000419	4.190088	0.709820	-0.008381
1833	9.1600e-01	1.6756	-7.211259	0.000500	5.002452	0.847438	-0.010006
1834	9.1650e-01	1.6672	-7.254877	0.000436	4.361112	0.738792	-0.008724
1835	9.1700e-01	1.6519	-7.296356	0.000415	4.147332	0.702577	-0.008296
1836	9.1750e-01	1.6485	-7.358362	0.000620	6.199620	1.050244	-0.012401
1837	9.1800e-01	1.6339	-7.396421	0.000381	3.805284	0.644633	-0.007612
1838	9.1850e-01	1.6251	-7.449874	0.000534	5.344500	0.905383	-0.010691
1839	9.1900e-01	1.6187	-7.508886	0.000590	5.900328	0.999543	-0.011802
1840	9.1950e-01	1.6082	-7.553359	0.000445	4.446624	0.753279	-0.008895
1841	9.2000e-01	1.5971	-7.595266	0.000419	4.190088	0.709820	-0.008381
1842	9.2050e-01	1.5848	-7.644871	0.000496	4.959696	0.840195	-0.009921
1843	9.2100e-01	1.5768	-7.699179	0.000543	5.430012	0.919869	-0.010862
1844	9.2150e-01	1.5622	-7.728258	0.000291	2.907408	0.492528	-0.005816
1845	9.2200e-01	1.5565	-7.793257	0.000650	6.498913	1.100946	-0.013000
1846	9.2250e-01	1.5451	-7.841151	0.000479	4.788672	0.811223	-0.009579
1847	9.2300e-01	1.5334	-7.882203	0.000410	4.104576	0.695334	-0.008210
1848	9.2350e-01	1.5244	-7.942498	0.000603	6.028596	1.021272	-0.012059
1849	9.2400e-01	1.5157	-7.985261	0.000428	4.275600	0.724306	-0.008553
1850	9.2450e-01	1.5054	-8.031016	0.000457	4.574892	0.775008	-0.009151
1851	9.2500e-01	1.4931	-8.081476	0.000505	5.045208	0.854681	-0.010092
1852	9.2550e-01	1.4854	-8.128087	0.000466	4.660404	0.789494	-0.009322
1853	9.2600e-01	1.4774	-8.183251	0.000552	5.515524	0.934355	-0.011033
1854	9.2650e-01	1.4655	-8.227296	0.000440	4.403868	0.746035	-0.008809
1855	9.2700e-01	1.4575	-8.286736	0.000594	5.943084	1.006786	-0.011888
1856	9.2750e-01	1.4457	-8.332492	0.000457	4.574892	0.775008	-0.009151
1857	9.2800e-01	1.4349	-8.392360	0.000599	5.985840	1.014029	-0.011974
1858	9.2850e-01	1.4254	-8.429991	0.000376	3.762528	0.637390	-0.007526
1859	9.2900e-01	1.4151	-8.478740	0.000487	4.874184	0.825709	-0.009750
1860	9.2950e-01	1.4057	-8.531338	0.000526	5.258988	0.890897	-0.010520
1861	9.3000e-01	1.3965	-8.589495	0.000581	5.814816	0.985057	-0.011631
1862	9.3050e-01	1.3831	-8.635251	0.000457	4.574892	0.775008	-0.009151
1863	9.3100e-01	1.3746	-8.678014	0.000428	4.275600	0.724306	-0.008553
1864	9.3150e-01	1.3670	-8.729329	0.000513	5.130720	0.869168	-0.010263
1865	9.3200e-01	1.3515	-8.780216	0.000509	5.087964	0.861925	-0.010177
1866	9.3250e-01	1.3434	-8.834524	0.000543	5.430012	0.919869	-0.010862
1867	9.3300e-01	1.3364	-8.873438	0.000389	3.890796	0.659119	-0.007783
1868	9.3350e-01	1.3263	-8.929030	0.000556	5.558280	0.941598	-0.011118
1869	9.3400e-01	1.3161	-8.981627	0.000526	5.258988	0.890897	-0.010520
1870	9.3450e-01	1.3065	-9.032087	0.000505	5.045208	0.854681	-0.010092
1871	9.3500e-01	1.2971	-9.076560	0.000445	4.446624	0.753279	-0.008895
1872	9.3550e-01	1.2849	-9.116757	0.000402	4.019064	0.680848	-0.008039
1873	9.3600e-01	1.2788	-9.186460	0.000697	6.969229	1.180619	-0.013941
1874	9.3650e-01	1.2650	-9.231788	0.000453	4.532136	0.767765	-0.009066
1875	9.3700e-01	1.2530	-9.282676	0.000509	5.087964	0.861925	-0.010177
1876	9.3750e-01	1.2473	-9.328432	0.000457	4.574892	0.775008	-0.009151
1877	9.3800e-01	1.2394	-9.377608	0.000492	4.916940	0.832952	-0.009835
1878	9.3850e-01	1.2257	-9.435765	0.000581	5.814816	0.985057	-0.011631
1879	9.3900e-01	1.2141	-9.477673	0.000419	4.190088	0.709820	-0.008381
1880	9.3950e-01	1.2070	-9.529843	0.000522	5.216232	0.883654	-0.010434
1881	9.4000e-01	1.1954	-9.584151	0.000543	5.430012	0.919869	-0.010862
1882	9.4050e-01	1.1871	-9.632473	0.000483	4.831428	0.818466	-0.009664
1883	9.4100e-01	1.1758	-9.675236	0.000428	4.275600	0.724306	-0.008553
1884	9.4150e-01	1.1652	-9.738524	0.000633	6.327889	1.071973	-0.012658
1885	9.4200e-01	1.1549	-9.784708	0.000462	4.617648	0.782251	-0.009237
1886	9.4250e-01	1.1457	-9.832602	0.000479	4.788672	0.811223	-0.009579
1887	9.4300e-01	1.1361	-9.879641	0.000470	4.703160	0.796737	-0.009408
1888	9.4350e-01	1.1285	-9.945922	0.000663	6.627181	1.122675	-0.013256
1889	9.4400e-01	1.1142	-9.985692	0.000398	3.976308	0.673605	-0.007954
1890	9.4450e-01	1.1063	-10.039145	0.000534	5.344500	0.905383	-0.010691
1891	9.4500e-01	1.0966	-10.087894	0.000487	4.874184	0.825709	-0.009750
1892	9.4550e-01	1.0859	-10.144768	0.000569	5.686548	0.963327	-0.011375
1893	9.4600e-01	1.0751	-10.190952	0.000462	4.617648	0.782251	-0.009237
1894	9.4650e-01	1.0645	-10.244833	0.000539	5.387256	0.912626	-0.010776
1895	9.4700e-01	1.0561	-10.303417	0.000586	5.857572	0.992300	-0.011717
1896	9.4750e-01	1.0496	-10.351311	0.000479	4.788672	0.811223	-0.009579
1897	9.4800e-01	1.0345	-10.406047	0.000547	5.472768	0.927112	-0.010947
1898	9.4850e-01	1.0233	-10.456079	0.000500	5.002452	0.847438	-0.010006
1899	9.4900e-01	1.0152	-10.509105	0.000530	5.301744	0.898140	-0.010605
1900	9.4950e-01	1.0059	-10.559137	0.000500	5.002452	0.847438	-0.010006
1901	9.5000e-01	0.9967	-10.607031	0.000479	4.788672	0.811223	-0.009579
1902	9.5050e-01	0.9854	-10.672458	0.000654	6.541669	1.108189	-0.013085
1903	9.5100e-01	0.9755	-10.713510	0.000410	4.104576	0.695334	-0.008210
1904	9.5150e-01	0.9647	-10.769101	0.000556	5.558280	0.941598	-0.011118
1905	9.5200e-01	0.9538	-10.813147	0.000440	4.403868	0.746035	-0.008809
1906	9.5250e-01	0.9460	-10.875152	0.000620	6.199620	1.050244	-0.012401
1907	9.5300e-01	0.9354	-10.920908	0.000457	4.574892	0.775008	-0.009151
1908	9.5350e-01	0.9268	-10.976072	0.000552	5.515524	0.934355	-0.011033
1909	9.5400e-01	0.9178	-11.032518	0.000564	5.643792	0.956084	-0.011289
1910	9.5450e-01	0.9046	-11.080412	0.000479	4.788672	0.811223	-0.009579
1911	9.5500e-01	0.8978	-11.138569	0.000581	5.814816	0.985057	-0.011631
1912	9.5550e-01	0.8839	-11.190312	0.000517	5.173476	0.876411	-0.010349
1913	9.5600e-01	0.8759	-11.234785	0.000445	4.446624	0.753279	-0.008895
1914	9.5650e-01	0.8646	-11.282679	0.000479	4.788672	0.811223	-0.009579
1915	9.5700e-01	0.8565	-11.345540	0.000629	6.285133	1.064730	-0.012572
1916	9.5750e-01	0.8472	-11.395572	0.000500	5.002452	0.847438	-0.010006
1917	9.5800e-01	0.8350	-11.460144	0.000646	6.456157	1.093703	-0.012914
1918	9.5850e-01	0.8284	-11.508038	0.000479	4.788672	0.811223	-0.009579
1919	9.5900e-01	0.8139	-11.552511	0.000445	4.446624	0.753279	-0.008895
1920	9.5950e-01	0.8076	-11.614089	0.000616	6.156864	1.043001	-0.012316
1921	9.6000e-01	0.7963	-11.671390	0.000573	5.729304	0.970570	-0.011460
1922	9.6050e-01	0.7852	-11.711587	0.000402	4.019064	0.680848	-0.008039
1923	9.6100e-01	0.7762	-11.776159	0.000646	6.456157	1.093703	-0.012914
1924	9.6150e-01	0.7655	-11.829612	0.000534	5.344500	0.905383	-0.010691
1925	9.6200e-01	0.7563	-11.880072	0.000505	5.045208	0.854681	-0.010092
1926	9.6250e-01	0.7452	-11.936090	0.000560	5.601036	0.948841	-0.011204
1927	9.6300e-01	0.7351	-11.983557	0.000475	4.745916	0.803980	-0.009493
1928	9.6350e-01	0.7259	-12.042569	0.000590	5.900328	0.999543	-0.011802
1929	9.6400e-01	0.7170	-12.107996	0.000654	6.541669	1.108189	-0.013085
1930	9.6450e-01	0.7037	-12.146482	0.000385	3.848040	0.651876	-0.007697
1931	9.6500e-01	0.6960	-12.200791	0.000543	5.430012	0.919869	-0.010862
1932	9.6550e-01	0.6895	-12.257665	0.000569	5.686548	0.963327	-0.011375
1933	9.6600e-01	0.6767	-12.308980	0.000513	5.130720	0.869168	-0.010263
1934	9.6650e-01	0.6653	-12.373124	0.000641	6.413401	1.086459	-0.012829
1935	9.6700e-01	0.6533	-12.412465	0.000393	3.933552	0.666362	-0.007868
1936	9.6750e-01	0.6442	-12.468484	0.000560	5.601036	0.948841	-0.011204
1937	9.6800e-01	0.6361	-12.530917	0.000624	6.242376	1.057487	-0.012487
1938	9.6850e-01	0.6264	-12.576673	0.000457	4.574892	0.775008	-0.009151
1939	9.6900e-01	0.6143	-12.636541	0.000599	5.985840	1.014029	-0.011974
1940	9.6950e-01	0.6055	-12.695125	0.000586	5.857572	0.992300	-0.011717
1941	9.7000e-01	0.5986	-12.742592	0.000475	4.745916	0.803980	-0.009493
1942	9.7050e-01	0.5862	-12.806736	0.000641	6.413401	1.086459	-0.012829
1943	9.7100e-01	0.5766	-12.865320	0.000586	5.857572	0.992300	-0.011717
1944	9.7150e-01	0.5685	-12.913642	0.000483	4.831428	0.818466	-0.009664
1945	9.7200e-01	0.5556	-12.967095	0.000534	5.344500	0.905383	-0.010691
1946	9.7250e-01	0.5454	-13.013706	0.000466	4.660404	0.789494	-0.009322
1947	9.7300e-01	0.5378	-13.076567	0.000629	6.285133	1.064730	-0.012572
1948	9.7350e-01	0.5255	-13.134296	0.000577	5.772060	0.977814	-0.011546
1949	9.7400e-01	0.5173	-13.195875	0.000616	6.156864	1.043001	-0.012316
1950	9.7450e-01	0.5061	-13.230940	0.000351	3.505992	0.593931	-0.007013
1951	9.7500e-01	0.4970	-13.293373	0.000624	6.242376	1.057487	-0.012487
1952	9.7550e-01	0.4864	-13.349392	0.000560	5.601036	0.948841	-0.011204
1953	9.7600e-01	0.4765	-13.403273	0.000539	5.387256	0.912626	-0.010776
1954	9.7650e-01	0.4686	-13.462713	0.000594	5.943084	1.006786	-0.011888
1955	9.7700e-01	0.4558	-13.520442	0.000577	5.772060	0.977814	-0.011546
1956	9.7750e-01	0.4472	-13.570902	0.000505	5.045208	0.854681	-0.010092
1957	9.7800e-01	0.4361	-13.631625	0.000607	6.071352	1.028515	-0.012145
1958	9.7850e-01	0.4266	-13.670539	0.000389	3.890796	0.659119	-0.007783
1959	9.7900e-01	0.4180	-13.736393	0.000658	6.584425	1.115432	-0.013171
1960	9.7950e-01	0.4067	-13.799254	0.000629	6.285133	1.064730	-0.012572
1961	9.8000e-01	0.3951	-13.844154	0.000449	4.489380	0.760522	-0.008980
1962	9.8050e-01	0.3857	-13.918134	0.000740	7.396789	1.253050	-0.014796
1963	9.8100e-01	0.3754	-13.954054	0.000359	3.591504	0.608417	-0.007184
1964	9.8150e-01	0.3665	-14.023757	0.000697	6.969229	1.180619	-0.013941
1965	9.8200e-01	0.3561	-14.075927	0.000522	5.216232	0.883654	-0.010434
1966	9.8250e-01	0.3458	-14.138361	0.000624	6.242376	1.057487	-0.012487
1967	9.8300e-01	0.3355	-14.198656	0.000603	6.028596	1.021272	-0.012059
1968	9.8350e-01	0.3261	-14.242701	0.000440	4.403868	0.746035	-0.008809
1969	9.8400e-01	0.3175	-14.302141	0.000594	5.943084	1.006786	-0.011888
1970	9.8450e-01	0.3046	-14.366285	0.000641	6.413401	1.086459	-0.012829
1971	9.8500e-01	0.2940	-14.413324	0.000470	4.703160	0.796737	-0.009408
1972	9.8550e-01	0.2853	-14.471053	0.000577	5.772060	0.977814	-0.011546
1973	9.8600e-01	0.2768	-14.527927	0.000569	5.686548	0.963327	-0.011375
1974	9.8650e-01	0.2662	-14.595920	0.000680	6.798205	1.151647	-0.013598
1975	9.8700e-01	0.2557	-14.636544	0.000406	4.061820	0.688091	-0.008125
1976	9.8750e-01	0.2448	-14.702398	0.000658	6.584425	1.115432	-0.013171
1977	9.8800e-01	0.2364	-14.766970	0.000646	6.456157	1.093703	-0.012914
1978	9.8850e-01	0.2288	-14.818285	0.000513	5.130720	0.869168	-0.010263
1979	9.8900e-01	0.2154	-14.869172	0.000509	5.087964	0.861925	-0.010177
1980	9.8950e-01	0.2089	-14.932033	0.000629	6.285133	1.064730	-0.012572
1981	9.9000e-01	0.1961	-14.982065	0.000500	5.002452	0.847438	-0.010006
1982	9.9050e-01	0.1855	-15.042360	0.000603	6.028596	1.021272	-0.012059
1983	9.9100e-01	0.1781	-15.110353	0.000680	6.798205	1.151647	-0.013598
1984	9.9150e-01	0.1651	-15.162523	0.000522	5.216232	0.883654	-0.010434
1985	9.9200e-01	0.1553	-15.211272	0.000487	4.874184	0.825709	-0.009750
1986	9.9250e-01	0.1469	-15.275844	0.000646	6.456157	1.093703	-0.012914
1987	9.9300e-01	0.1324	-15.340415	0.000646	6.456157	1.093703	-0.012914
1988	9.9350e-01	0.1265	-15.396007	0.000556	5.558280	0.941598	-0.011118
1989	9.9400e-01	0.1160	-15.451598	0.000556	5.558280	0.941598	-0.011118
1990	9.9450e-01	0.1049	-15.499920	0.000483	4.831428	0.818466	-0.009664
1991	9.9500e-01	0.0938	-15.559359	0.000594	5.943084	1.006786	-0.011888
1992	9.9550e-01	0.0857	-15.631628	0.000723	7.225765	1.224078	-0.014454
1993	9.9600e-01	0.0725	-15.673535	0.000419	4.190088	0.709820	-0.008381
1994	9.9650e-01	0.0655	-15.738107	0.000646	6.456157	1.093703	-0.012914
1995	9.9700e-01	0.0573	-15.792843	0.000547	5.472768	0.927112	-0.010947
1996	9.9750e-01	0.0439	-15.851855	0.000590	5.900328	0.999543	-0.011802
1997	9.9800e-01	0.0352	-15.904025	0.000522	5.216232	0.883654	-0.010434
1998	9.9850e-01	0.0275	-15.975011	0.000710	7.097497	1.202348	-0.014197
1999	9.9900e-01	0.0140	-16.034023	0.000590	5.900328	0.999543	-0.011802
2000	9.9950e-01	0.0062	-16.090898	0.000569	5.686548	0.963327	-0.011375
2001	1.0000e+00	-0.0056	-16.146061	0.000569	5.686548	0.963327	-0.011033

PMax (uC/cm2):	3.93e+01
Pr (uC/cm2):	3.51e+00
-Pr (uC/cm2):	0.00e+00
PLoss (uC/cm2):	0.00e+00
C (Max-Eff) (nF):	3.93e-01
K (Eff):	6.66e+02
Vert. (+/-Pr) Shift (uC/cm2):	1.76e+00
Offset (uC/cm2):	1.97e+01

A (Loop Area - uC/cm2·Volts):	-3.60e-02



Hysteresis Version: 5.48.1 - Radiant Technologies, Inc., 1999 - 9/12/24

