»»»»»»»»»»»»»»»»»»»»»»»»»»»»»»»»»»»» Hysteresis ««««««««««««««««««««««««««««««««««««
»»»  Executed Version:	5.48.1
»»»  Vision Version:	5.48.4 (R)
»»»  Vision Compiled:	9/18/24
»»»  Driver Version:	5.47.0
»»»  Windows Version:	Windows 8 or 8.1
»»»  Processor Information:	x86 (AMD or Intel) - 32 Processors
»»»  Tester Name:	PMF21124-494 (100V)
»»»  Tester S/N:	PMF21124-494
»»»  Internal Amp Type:	100V RevK 270k
»»»  Internal Amp S/N:	iAB2-596/K     
»»»  Execution Count:	1
»»»»»»»»»»»»»»»»»»»»»»»»»»»»»»»»»»»»»»»»»»««««««««««««««««««««««««««««««««««««««««««

Stored:	6/25/2025 - 16:21:31
Configured:	06/25/25 10:44:40 AM
Executed:	06/25/25 04:21:06 PM

»»»»»»»»»»»»»»»»»»»»»»»»»»»»»»»»»»» Sample Info ««««««««««««««««««««««««««««««««««««
Sample Name:	
Lot Name:	
Wafer Name:	
Die Row/Column:	0/0
Capacitor Number:	0
Sample Area (cm2):	1.00e-04
Sample Thickness (microns):	1.50e-01

Amplifier:	Internal

»»»»»»»»»»»»»»»»»»»»»»»»»»»»»»»»»»» Tester Info «««««««««««««««««««««««««««««««««««
Tester Name:	PMF21124-494 (100V)
Tester Serial Number:	PMF21124-494
Return Signal Amp. Level:	1.79 [Index: 2]

»»»»»»»»»»»»»»»»»»»»»»»»»»»»»»»» Hysteresis Info ««««««««««««««««««««««««««««««««««
Task Name:	Hyst-116
Volts:	10.00
Field:	666.67 (kV/cm)
DCBias:	0.00
DCField:	0.00 (kV/cm)
Hysteresis Period (ms):	1.00e+00
Preset:	Enabled
Preset Delay (ms):	1.00e+03
Profile:	Standard Monopolar

»»»»»»»»»»»»»»»»»»»»»»»»»»»»»»»»»»»»»» Data «««««««««««««««««««««««««««««««««««««««
Points:	2001

Valid Data

Point	Time (ms)	Drive Voltage	Measured Polarization (uC/cm2)	Capacitance (uF)	Normalized Capacitance (uF/cm2)	Dielectric Constant	Instantaneous Current (mA)
   1	0.0000e+00	-0.0061	-23.064611	0.000308	3.078644	0.521536	0.006158
   2	5.0000e-04	0.0047	-23.033822	0.000308	3.078644	0.521536	0.006158
   3	1.0000e-03	0.0157	-22.964974	0.000688	6.884189	1.166213	0.013770
   4	1.5000e-03	0.0262	-22.901685	0.000633	6.328323	1.072047	0.012658
   5	2.0000e-03	0.0341	-22.841390	0.000603	6.029010	1.021342	0.012059
   6	2.5000e-03	0.0442	-22.772970	0.000684	6.841430	1.158970	0.013684
   7	3.0000e-03	0.0578	-22.711392	0.000616	6.157287	1.043073	0.012316
   8	3.5000e-03	0.0646	-22.651952	0.000594	5.943493	1.006855	0.011888
   9	4.0000e-03	0.0762	-22.572414	0.000795	7.953163	1.347302	0.015908
  10	4.5000e-03	0.0836	-22.516395	0.000560	5.601421	0.948906	0.011204
  11	5.0000e-03	0.0967	-22.462087	0.000543	5.430385	0.919932	0.010862
  12	5.5000e-03	0.1051	-22.388963	0.000731	7.311779	1.238649	0.014625
  13	6.0000e-03	0.1177	-22.324391	0.000646	6.456600	1.093778	0.012914
  14	6.5000e-03	0.1281	-22.253833	0.000706	7.055225	1.195187	0.014112
  15	7.0000e-03	0.1340	-22.194821	0.000590	5.900734	0.999611	0.011802
  16	7.5000e-03	0.1450	-22.129822	0.000650	6.499359	1.101021	0.013000
  17	8.0000e-03	0.1543	-22.055843	0.000740	7.397296	1.253136	0.014796
  18	8.5000e-03	0.1654	-22.004955	0.000509	5.088314	0.861984	0.010177
  19	9.0000e-03	0.1768	-21.927983	0.000770	7.696609	1.303841	0.015395
  20	9.5000e-03	0.1836	-21.859563	0.000684	6.841430	1.158970	0.013684
  21	1.0000e-02	0.1944	-21.796702	0.000629	6.285564	1.064803	0.012572
  22	1.0500e-02	0.2032	-21.730847	0.000658	6.584877	1.115508	0.013171
  23	1.1000e-02	0.2158	-21.673973	0.000569	5.686939	0.963394	0.011375
  24	1.1500e-02	0.2234	-21.606836	0.000671	6.713153	1.137239	0.013427
  25	1.2000e-02	0.2361	-21.546541	0.000603	6.029010	1.021342	0.012059
  26	1.2500e-02	0.2456	-21.475127	0.000714	7.140743	1.209675	0.014283
  27	1.3000e-02	0.2534	-21.416115	0.000590	5.900734	0.999611	0.011802
  28	1.3500e-02	0.2604	-21.343419	0.000727	7.269020	1.231405	0.014539
  29	1.4000e-02	0.2759	-21.279703	0.000637	6.371082	1.079290	0.012743
  30	1.4500e-02	0.2859	-21.215559	0.000641	6.413841	1.086534	0.012829
  31	1.5000e-02	0.2955	-21.163389	0.000522	5.216591	0.883714	0.010434
  32	1.5500e-02	0.3078	-21.098817	0.000646	6.456600	1.093778	0.012914
  33	1.6000e-02	0.3162	-21.022700	0.000761	7.611091	1.289354	0.015223
  34	1.6500e-02	0.3258	-20.955135	0.000676	6.755912	1.144483	0.013513
  35	1.7000e-02	0.3346	-20.887143	0.000680	6.798671	1.151726	0.013598
  36	1.7500e-02	0.3455	-20.831124	0.000560	5.601421	0.948906	0.011204
  37	1.8000e-02	0.3545	-20.763131	0.000680	6.798671	1.151726	0.013598
  38	1.8500e-02	0.3663	-20.706685	0.000564	5.644180	0.956150	0.011289
  39	1.9000e-02	0.3735	-20.641258	0.000654	6.542118	1.108265	0.013085
  40	1.9500e-02	0.3870	-20.572411	0.000688	6.884189	1.166213	0.013770
  41	2.0000e-02	0.3967	-20.498859	0.000735	7.354538	1.245892	0.014710
  42	2.0500e-02	0.4069	-20.440702	0.000582	5.815216	0.985124	0.011631
  43	2.1000e-02	0.4176	-20.383400	0.000573	5.729698	0.970637	0.011460
  44	2.1500e-02	0.4259	-20.315408	0.000680	6.798671	1.151726	0.013598
  45	2.2000e-02	0.4355	-20.249126	0.000663	6.627636	1.122752	0.013256
  46	2.2500e-02	0.4441	-20.188831	0.000603	6.029010	1.021342	0.012059
  47	2.3000e-02	0.4561	-20.129818	0.000590	5.900734	0.999611	0.011802
  48	2.3500e-02	0.4659	-20.061826	0.000680	6.798671	1.151726	0.013598
  49	2.4000e-02	0.4763	-19.997682	0.000641	6.413841	1.086534	0.012829
  50	2.4500e-02	0.4889	-19.940380	0.000573	5.729698	0.970637	0.011460
  51	2.5000e-02	0.4971	-19.865974	0.000744	7.440055	1.260380	0.014881
  52	2.5500e-02	0.5059	-19.803113	0.000629	6.285564	1.064803	0.012572
  53	2.6000e-02	0.5138	-19.753080	0.000500	5.002796	0.847497	0.010006
  54	2.6500e-02	0.5254	-19.678674	0.000744	7.440055	1.260380	0.014881
  55	2.7000e-02	0.5342	-19.616240	0.000624	6.242805	1.057560	0.012487
  56	2.7500e-02	0.5472	-19.549531	0.000667	6.670394	1.129995	0.013342
  57	2.8000e-02	0.5582	-19.492657	0.000569	5.686939	0.963394	0.011375
  58	2.8500e-02	0.5640	-19.420388	0.000723	7.226261	1.224162	0.014454
  59	2.9000e-02	0.5766	-19.356244	0.000641	6.413841	1.086534	0.012829
  60	2.9500e-02	0.5836	-19.295094	0.000611	6.114528	1.035829	0.012230
  61	3.0000e-02	0.5934	-19.232233	0.000629	6.285564	1.064803	0.012572
  62	3.0500e-02	0.6064	-19.174076	0.000582	5.815216	0.985124	0.011631
  63	3.1000e-02	0.6181	-19.113353	0.000607	6.071769	1.028586	0.012145
  64	3.1500e-02	0.6259	-19.041084	0.000723	7.226261	1.224162	0.014454
  65	3.2000e-02	0.6368	-18.979506	0.000616	6.157287	1.043073	0.012316
  66	3.2500e-02	0.6478	-18.917501	0.000620	6.200046	1.050316	0.012401
  67	3.3000e-02	0.6561	-18.855923	0.000616	6.157287	1.043073	0.012316
  68	3.3500e-02	0.6660	-18.792634	0.000633	6.328323	1.072047	0.012658
  69	3.4000e-02	0.6734	-18.728490	0.000641	6.413841	1.086534	0.012829
  70	3.4500e-02	0.6854	-18.668195	0.000603	6.029010	1.021342	0.012059
  71	3.5000e-02	0.6944	-18.607472	0.000607	6.071769	1.028586	0.012145
  72	3.5500e-02	0.7053	-18.547605	0.000599	5.986251	1.014098	0.011974
  73	3.6000e-02	0.7153	-18.485599	0.000620	6.200046	1.050316	0.012401
  74	3.6500e-02	0.7251	-18.413331	0.000723	7.226261	1.224162	0.014454
  75	3.7000e-02	0.7341	-18.355173	0.000582	5.815216	0.985124	0.011631
  76	3.7500e-02	0.7435	-18.286326	0.000688	6.884189	1.166213	0.013770
  77	3.8000e-02	0.7575	-18.232017	0.000543	5.430385	0.919932	0.010862
  78	3.8500e-02	0.7642	-18.166591	0.000654	6.542118	1.108265	0.013085
  79	3.9000e-02	0.7734	-18.101164	0.000654	6.542118	1.108265	0.013085
  80	3.9500e-02	0.7858	-18.040869	0.000603	6.029010	1.021342	0.012059
  81	4.0000e-02	0.7959	-17.983139	0.000577	5.772457	0.977881	0.011546
  82	4.0500e-02	0.8067	-17.918568	0.000646	6.456600	1.093778	0.012914
  83	4.1000e-02	0.8130	-17.856562	0.000620	6.200046	1.050316	0.012401
  84	4.1500e-02	0.8244	-17.797550	0.000590	5.900734	0.999611	0.011802
  85	4.2000e-02	0.8347	-17.730841	0.000667	6.670394	1.129995	0.013342
  86	4.2500e-02	0.8447	-17.668407	0.000624	6.242805	1.057560	0.012487
  87	4.3000e-02	0.8537	-17.610250	0.000582	5.815216	0.985124	0.011631
  88	4.3500e-02	0.8608	-17.536699	0.000735	7.354538	1.245892	0.014710
  89	4.4000e-02	0.8757	-17.479397	0.000573	5.729698	0.970637	0.011460
  90	4.4500e-02	0.8847	-17.424233	0.000552	5.515903	0.934419	0.011033
  91	4.5000e-02	0.8981	-17.368642	0.000556	5.558662	0.941663	0.011118
  92	4.5500e-02	0.9046	-17.295946	0.000727	7.269020	1.231405	0.014539
  93	4.6000e-02	0.9167	-17.248907	0.000470	4.703483	0.796792	0.009408
  94	4.6500e-02	0.9248	-17.183053	0.000658	6.584877	1.115508	0.013171
  95	4.7000e-02	0.9372	-17.107791	0.000753	7.525573	1.274867	0.015052
  96	4.7500e-02	0.9531	-17.047495	0.000603	6.029010	1.021342	0.012059
  97	4.8000e-02	0.9564	-16.988911	0.000586	5.857975	0.992368	0.011717
  98	4.8500e-02	0.9681	-16.934175	0.000547	5.473144	0.927176	0.010947
  99	4.9000e-02	0.9772	-16.873880	0.000603	6.029010	1.021342	0.012059
 100	4.9500e-02	0.9855	-16.802466	0.000714	7.140743	1.209675	0.014283
 101	5.0000e-02	0.9933	-16.743454	0.000590	5.900734	0.999611	0.011802
 102	5.0500e-02	1.0048	-16.685297	0.000582	5.815216	0.985124	0.011631
 103	5.1000e-02	1.0164	-16.629705	0.000556	5.558662	0.941663	0.011118
 104	5.1500e-02	1.0269	-16.572404	0.000573	5.729698	0.970637	0.011460
 105	5.2000e-02	1.0339	-16.501846	0.000706	7.055225	1.195187	0.014112
 106	5.2500e-02	1.0445	-16.444544	0.000573	5.729698	0.970637	0.011460
 107	5.3000e-02	1.0549	-16.382110	0.000624	6.242805	1.057560	0.012487
 108	5.3500e-02	1.0645	-16.333789	0.000483	4.831760	0.818522	0.009664
 109	5.4000e-02	1.0754	-16.261520	0.000723	7.226261	1.224162	0.014454
 110	5.4500e-02	1.0861	-16.205501	0.000560	5.601421	0.948906	0.011204
 111	5.5000e-02	1.0968	-16.143496	0.000620	6.200046	1.050316	0.012401
 112	5.5500e-02	1.1067	-16.078924	0.000646	6.456600	1.093778	0.012914
 113	5.6000e-02	1.1163	-16.018629	0.000603	6.029010	1.021342	0.012059
 114	5.6500e-02	1.1304	-15.958761	0.000599	5.986251	1.014098	0.011974
 115	5.7000e-02	1.1362	-15.901460	0.000573	5.729698	0.970637	0.011460
 116	5.7500e-02	1.1497	-15.836033	0.000654	6.542118	1.108265	0.013085
 117	5.8000e-02	1.1568	-15.773600	0.000624	6.242805	1.057560	0.012487
 118	5.8500e-02	1.1658	-15.721002	0.000526	5.259349	0.890958	0.010520
 119	5.9000e-02	1.1754	-15.663700	0.000573	5.729698	0.970637	0.011460
 120	5.9500e-02	1.1856	-15.597846	0.000658	6.584877	1.115508	0.013171
 121	6.0000e-02	1.1954	-15.539689	0.000582	5.815216	0.985124	0.011631
 122	6.0500e-02	1.2059	-15.483670	0.000560	5.601421	0.948906	0.011204
 123	6.1000e-02	1.2157	-15.425513	0.000582	5.815216	0.985124	0.011631
 124	6.1500e-02	1.2278	-15.366073	0.000594	5.943493	1.006855	0.011888
 125	6.2000e-02	1.2366	-15.299363	0.000667	6.670394	1.129995	0.013342
 126	6.2500e-02	1.2442	-15.239496	0.000599	5.986251	1.014098	0.011974
 127	6.3000e-02	1.2561	-15.178773	0.000607	6.071769	1.028586	0.012145
 128	6.3500e-02	1.2685	-15.118905	0.000599	5.986251	1.014098	0.011974
 129	6.4000e-02	1.2745	-15.059893	0.000590	5.900734	0.999611	0.011802
 130	6.4500e-02	1.2839	-14.997460	0.000624	6.242805	1.057560	0.012487
 131	6.5000e-02	1.2939	-14.941013	0.000564	5.644180	0.956150	0.011289
 132	6.5500e-02	1.3066	-14.890981	0.000500	5.002796	0.847497	0.010006
 133	6.6000e-02	1.3141	-14.825982	0.000650	6.499359	1.101021	0.013000
 134	6.6500e-02	1.3248	-14.766115	0.000599	5.986251	1.014098	0.011974
 135	6.7000e-02	1.3338	-14.698550	0.000676	6.755912	1.144483	0.013513
 136	6.7500e-02	1.3463	-14.648945	0.000496	4.960037	0.840253	0.009921
 137	6.8000e-02	1.3577	-14.593782	0.000552	5.515903	0.934419	0.011033
 138	6.8500e-02	1.3660	-14.528355	0.000654	6.542118	1.108265	0.013085
 139	6.9000e-02	1.3741	-14.483027	0.000453	4.532448	0.767817	0.009066
 140	6.9500e-02	1.3832	-14.413324	0.000697	6.969707	1.180700	0.013941
 141	7.0000e-02	1.3942	-14.349608	0.000637	6.371082	1.079290	0.012743
 142	7.0500e-02	1.4065	-14.295727	0.000539	5.387626	0.912689	0.010776
 143	7.1000e-02	1.4154	-14.241846	0.000539	5.387626	0.912689	0.010776
 144	7.1500e-02	1.4288	-14.173426	0.000684	6.841430	1.158970	0.013684
 145	7.2000e-02	1.4368	-14.114414	0.000590	5.900734	0.999611	0.011802
 146	7.2500e-02	1.4452	-14.061816	0.000526	5.259349	0.890958	0.010520
 147	7.3000e-02	1.4541	-14.011356	0.000505	5.045555	0.854740	0.010092
 148	7.3500e-02	1.4670	-13.935666	0.000757	7.568332	1.282110	0.015138
 149	7.4000e-02	1.4731	-13.877937	0.000577	5.772457	0.977881	0.011546
 150	7.4500e-02	1.4820	-13.826622	0.000513	5.131073	0.869227	0.010263
 151	7.5000e-02	1.4960	-13.763333	0.000633	6.328323	1.072047	0.012658
 152	7.5500e-02	1.5045	-13.715439	0.000479	4.789001	0.811279	0.009579
 153	7.6000e-02	1.5179	-13.654716	0.000607	6.071769	1.028586	0.012145
 154	7.6500e-02	1.5231	-13.593566	0.000611	6.114528	1.035829	0.012230
 155	7.7000e-02	1.5366	-13.535837	0.000577	5.772457	0.977881	0.011546
 156	7.7500e-02	1.5431	-13.476397	0.000594	5.943493	1.006855	0.011888
 157	7.8000e-02	1.5552	-13.419523	0.000569	5.686939	0.963394	0.011375
 158	7.8500e-02	1.5640	-13.351103	0.000684	6.841430	1.158970	0.013684
 159	7.9000e-02	1.5756	-13.306202	0.000449	4.489689	0.760574	0.008980
 160	7.9500e-02	1.5878	-13.243769	0.000624	6.242805	1.057560	0.012487
 161	8.0000e-02	1.5941	-13.181763	0.000620	6.200046	1.050316	0.012401
 162	8.0500e-02	1.6049	-13.128310	0.000534	5.344867	0.905445	0.010691
 163	8.1000e-02	1.6140	-13.068015	0.000603	6.029010	1.021342	0.012059
 164	8.1500e-02	1.6245	-13.006864	0.000611	6.114528	1.035829	0.012230
 165	8.2000e-02	1.6353	-12.949562	0.000573	5.729698	0.970637	0.011460
 166	8.2500e-02	1.6434	-12.900385	0.000492	4.917278	0.833009	0.009835
 167	8.3000e-02	1.6516	-12.836669	0.000637	6.371082	1.079290	0.012743
 168	8.3500e-02	1.6632	-12.771243	0.000654	6.542118	1.108265	0.013085
 169	8.4000e-02	1.6748	-12.722493	0.000487	4.874519	0.825766	0.009750
 170	8.4500e-02	1.6854	-12.668185	0.000543	5.430385	0.919932	0.010862
 171	8.5000e-02	1.6971	-12.607890	0.000603	6.029010	1.021342	0.012059
 172	8.5500e-02	1.7047	-12.552726	0.000552	5.515903	0.934419	0.011033
 173	8.6000e-02	1.7162	-12.491576	0.000611	6.114528	1.035829	0.012230
 174	8.6500e-02	1.7253	-12.437695	0.000539	5.387626	0.912689	0.010776
 175	8.7000e-02	1.7365	-12.380821	0.000569	5.686939	0.963394	0.011375
 176	8.7500e-02	1.7467	-12.321381	0.000594	5.943493	1.006855	0.011888
 177	8.8000e-02	1.7551	-12.261941	0.000594	5.943493	1.006855	0.011888
 178	8.8500e-02	1.7661	-12.207633	0.000543	5.430385	0.919932	0.010862
 179	8.9000e-02	1.7738	-12.149475	0.000582	5.815216	0.985124	0.011631
 180	8.9500e-02	1.7865	-12.089180	0.000603	6.029010	1.021342	0.012059
 181	9.0000e-02	1.7951	-12.031451	0.000577	5.772457	0.977881	0.011546
 182	9.0500e-02	1.8044	-11.969018	0.000624	6.242805	1.057560	0.012487
 183	9.1000e-02	1.8152	-11.924545	0.000445	4.446930	0.753330	0.008895
 184	9.1500e-02	1.8264	-11.864677	0.000599	5.986251	1.014098	0.011974
 185	9.2000e-02	1.8365	-11.797112	0.000676	6.755912	1.144483	0.013513
 186	9.2500e-02	1.8436	-11.744942	0.000522	5.216591	0.883714	0.010434
 187	9.3000e-02	1.8565	-11.696193	0.000487	4.874519	0.825766	0.009750
 188	9.3500e-02	1.8668	-11.640174	0.000560	5.601421	0.948906	0.011204
 189	9.4000e-02	1.8745	-11.580734	0.000594	5.943493	1.006855	0.011888
 190	9.4500e-02	1.8847	-11.521294	0.000594	5.943493	1.006855	0.011888
 191	9.5000e-02	1.8934	-11.460144	0.000611	6.114528	1.035829	0.012230
 192	9.5500e-02	1.9035	-11.414815	0.000453	4.532448	0.767817	0.009066
 193	9.6000e-02	1.9180	-11.352810	0.000620	6.200046	1.050316	0.012401
 194	9.6500e-02	1.9269	-11.304060	0.000487	4.874519	0.825766	0.009750
 195	9.7000e-02	1.9353	-11.240344	0.000637	6.371082	1.079290	0.012743
 196	9.7500e-02	1.9466	-11.185608	0.000547	5.473144	0.927176	0.010947
 197	9.8000e-02	1.9566	-11.129162	0.000564	5.644180	0.956150	0.011289
 198	9.8500e-02	1.9643	-11.076564	0.000526	5.259349	0.890958	0.010520
 199	9.9000e-02	1.9788	-11.029525	0.000470	4.703483	0.796792	0.009408
 200	9.9500e-02	1.9859	-10.971368	0.000582	5.815216	0.985124	0.011631
 201	1.0000e-01	1.9968	-10.911500	0.000599	5.986251	1.014098	0.011974
 202	1.0050e-01	2.0078	-10.850350	0.000611	6.114528	1.035829	0.012230
 203	1.0100e-01	2.0137	-10.790482	0.000599	5.986251	1.014098	0.011974
 204	1.0150e-01	2.0239	-10.738740	0.000517	5.173832	0.876471	0.010349
 205	1.0200e-01	2.0355	-10.688280	0.000505	5.045555	0.854740	0.010092
 206	1.0250e-01	2.0467	-10.624564	0.000637	6.371082	1.079290	0.012743
 207	1.0300e-01	2.0549	-10.568117	0.000564	5.644180	0.956150	0.011289
 208	1.0350e-01	2.0646	-10.516802	0.000513	5.131073	0.869227	0.010263
 209	1.0400e-01	2.0758	-10.456079	0.000607	6.071769	1.028586	0.012145
 210	1.0450e-01	2.0871	-10.396639	0.000594	5.943493	1.006855	0.011888
 211	1.0500e-01	2.0993	-10.349601	0.000470	4.703483	0.796792	0.009408
 212	1.0550e-01	2.1111	-10.296575	0.000530	5.302108	0.898201	0.010605
 213	1.0600e-01	2.1144	-10.243977	0.000526	5.259349	0.890958	0.010520
 214	1.0650e-01	2.1275	-10.188386	0.000556	5.558662	0.941663	0.011118
 215	1.0700e-01	2.1352	-10.125953	0.000624	6.242805	1.057560	0.012487
 216	1.0750e-01	2.1466	-10.070789	0.000552	5.515903	0.934419	0.011033
 217	1.0800e-01	2.1592	-10.016481	0.000543	5.430385	0.919932	0.010862
 218	1.0850e-01	2.1649	-9.963027	0.000534	5.344867	0.905445	0.010691
 219	1.0900e-01	2.1762	-9.907436	0.000556	5.558662	0.941663	0.011118
 220	1.0950e-01	2.1869	-9.842865	0.000646	6.456600	1.093778	0.012914
 221	1.1000e-01	2.1970	-9.798392	0.000445	4.446930	0.753330	0.008895
 222	1.1050e-01	2.2046	-9.734676	0.000637	6.371082	1.079290	0.012743
 223	1.1100e-01	2.2162	-9.689775	0.000449	4.489689	0.760574	0.008980
 224	1.1150e-01	2.2256	-9.629907	0.000599	5.986251	1.014098	0.011974
 225	1.1200e-01	2.2336	-9.584579	0.000453	4.532448	0.767817	0.009066
 226	1.1250e-01	2.2476	-9.530271	0.000543	5.430385	0.919932	0.010862
 227	1.1300e-01	2.2557	-9.466982	0.000633	6.328323	1.072047	0.012658
 228	1.1350e-01	2.2641	-9.416522	0.000505	5.045555	0.854740	0.010092
 229	1.1400e-01	2.2757	-9.354089	0.000624	6.242805	1.057560	0.012487
 230	1.1450e-01	2.2852	-9.301919	0.000522	5.216591	0.883714	0.010434
 231	1.1500e-01	2.2955	-9.257446	0.000445	4.446930	0.753330	0.008895
 232	1.1550e-01	2.3053	-9.198006	0.000594	5.943493	1.006855	0.011888
 233	1.1600e-01	2.3170	-9.135573	0.000624	6.242805	1.057560	0.012487
 234	1.1650e-01	2.3273	-9.091955	0.000436	4.361412	0.738843	0.008724
 235	1.1700e-01	2.3358	-9.034653	0.000573	5.729698	0.970637	0.011460
 236	1.1750e-01	2.3454	-8.979489	0.000552	5.515903	0.934419	0.011033
 237	1.1800e-01	2.3566	-8.926464	0.000530	5.302108	0.898201	0.010605
 238	1.1850e-01	2.3663	-8.872583	0.000539	5.387626	0.912689	0.010776
 239	1.1900e-01	2.3769	-8.801170	0.000714	7.140743	1.209675	0.014283
 240	1.1950e-01	2.3863	-8.766104	0.000351	3.506233	0.593972	0.007013
 241	1.2000e-01	2.3970	-8.707520	0.000586	5.857975	0.992368	0.011717
 242	1.2050e-01	2.4048	-8.647652	0.000599	5.986251	1.014098	0.011974
 243	1.2100e-01	2.4164	-8.601896	0.000458	4.575206	0.775061	0.009151
 244	1.2150e-01	2.4249	-8.543739	0.000582	5.815216	0.985124	0.011631
 245	1.2200e-01	2.4373	-8.494135	0.000496	4.960037	0.840253	0.009921
 246	1.2250e-01	2.4469	-8.434267	0.000599	5.986251	1.014098	0.011974
 247	1.2300e-01	2.4553	-8.381669	0.000526	5.259349	0.890958	0.010520
 248	1.2350e-01	2.4652	-8.329499	0.000522	5.216591	0.883714	0.010434
 249	1.2400e-01	2.4738	-8.275618	0.000539	5.387626	0.912689	0.010776
 250	1.2450e-01	2.4872	-8.226014	0.000496	4.960037	0.840253	0.009921
 251	1.2500e-01	2.4988	-8.175981	0.000500	5.002796	0.847497	0.010006
 252	1.2550e-01	2.5037	-8.113121	0.000629	6.285564	1.064803	0.012572
 253	1.2600e-01	2.5153	-8.067365	0.000458	4.575206	0.775061	0.009151
 254	1.2650e-01	2.5287	-7.993813	0.000735	7.354538	1.245892	0.014710
 255	1.2700e-01	2.5333	-7.962169	0.000316	3.164161	0.536023	0.006329
 256	1.2750e-01	2.5467	-7.909571	0.000526	5.259349	0.890958	0.010520
 257	1.2800e-01	2.5549	-7.844144	0.000654	6.542118	1.108265	0.013085
 258	1.2850e-01	2.5677	-7.801382	0.000428	4.275894	0.724356	0.008553
 259	1.2900e-01	2.5769	-7.741942	0.000594	5.943493	1.006855	0.011888
 260	1.2950e-01	2.5844	-7.685495	0.000564	5.644180	0.956150	0.011289
 261	1.3000e-01	2.5977	-7.638884	0.000466	4.660724	0.789548	0.009322
 262	1.3050e-01	2.6057	-7.585003	0.000539	5.387626	0.912689	0.010776
 263	1.3100e-01	2.6141	-7.530695	0.000543	5.430385	0.919932	0.010862
 264	1.3150e-01	2.6245	-7.482373	0.000483	4.831760	0.818522	0.009664
 265	1.3200e-01	2.6357	-7.422506	0.000599	5.986251	1.014098	0.011974
 266	1.3250e-01	2.6465	-7.373756	0.000487	4.874519	0.825766	0.009750
 267	1.3300e-01	2.6550	-7.322869	0.000509	5.088314	0.861984	0.010177
 268	1.3350e-01	2.6652	-7.272409	0.000505	5.045555	0.854740	0.010092
 269	1.3400e-01	2.6767	-7.207410	0.000650	6.499359	1.101021	0.013000
 270	1.3450e-01	2.6865	-7.162510	0.000449	4.489689	0.760574	0.008980
 271	1.3500e-01	2.6978	-7.099221	0.000633	6.328323	1.072047	0.012658
 272	1.3550e-01	2.7048	-7.051327	0.000479	4.789001	0.811279	0.009579
 273	1.3600e-01	2.7145	-7.004288	0.000470	4.703483	0.796792	0.009408
 274	1.3650e-01	2.7235	-6.939289	0.000650	6.499359	1.101021	0.013000
 275	1.3700e-01	2.7405	-6.886691	0.000526	5.259349	0.890958	0.010520
 276	1.3750e-01	2.7443	-6.843073	0.000436	4.361412	0.738843	0.008724
 277	1.3800e-01	2.7573	-6.790903	0.000522	5.216591	0.883714	0.010434
 278	1.3850e-01	2.7682	-6.742582	0.000483	4.831760	0.818522	0.009664
 279	1.3900e-01	2.7759	-6.680576	0.000620	6.200046	1.050316	0.012401
 280	1.3950e-01	2.7864	-6.637813	0.000428	4.275894	0.724356	0.008553
 281	1.4000e-01	2.7967	-6.579229	0.000586	5.857975	0.992368	0.011717
 282	1.4050e-01	2.8058	-6.522782	0.000564	5.644180	0.956150	0.011289
 283	1.4100e-01	2.8149	-6.474888	0.000479	4.789001	0.811279	0.009579
 284	1.4150e-01	2.8281	-6.430415	0.000445	4.446930	0.753330	0.008895
 285	1.4200e-01	2.8333	-6.363278	0.000671	6.713153	1.137239	0.013427
 286	1.4250e-01	2.8456	-6.322653	0.000406	4.062099	0.688138	0.008125
 287	1.4300e-01	2.8532	-6.272621	0.000500	5.002796	0.847497	0.010006
 288	1.4350e-01	2.8711	-6.214892	0.000577	5.772457	0.977881	0.011546
 289	1.4400e-01	2.8754	-6.165715	0.000492	4.917278	0.833009	0.009835
 290	1.4450e-01	2.8857	-6.120387	0.000453	4.532448	0.767817	0.009066
 291	1.4500e-01	2.8970	-6.057526	0.000629	6.285564	1.064803	0.012572
 292	1.4550e-01	2.9047	-6.017329	0.000402	4.019340	0.680895	0.008039
 293	1.4600e-01	2.9169	-5.967297	0.000500	5.002796	0.847497	0.010006
 294	1.4650e-01	2.9252	-5.901015	0.000663	6.627636	1.122752	0.013256
 295	1.4700e-01	2.9382	-5.850983	0.000500	5.002796	0.847497	0.010006
 296	1.4750e-01	2.9456	-5.798385	0.000526	5.259349	0.890958	0.010520
 297	1.4800e-01	2.9562	-5.755195	0.000432	4.318653	0.731600	0.008638
 298	1.4850e-01	2.9652	-5.696182	0.000590	5.900734	0.999611	0.011802
 299	1.4900e-01	2.9771	-5.651282	0.000449	4.489689	0.760574	0.008980
 300	1.4950e-01	2.9864	-5.596973	0.000543	5.430385	0.919932	0.010862
 301	1.5000e-01	2.9950	-5.545231	0.000517	5.173832	0.876471	0.010349
 302	1.5050e-01	3.0070	-5.496909	0.000483	4.831760	0.818522	0.009664
 303	1.5100e-01	3.0166	-5.441318	0.000556	5.558662	0.941663	0.011118
 304	1.5150e-01	3.0284	-5.389148	0.000522	5.216591	0.883714	0.010434
 305	1.5200e-01	3.0372	-5.342536	0.000466	4.660724	0.789548	0.009322
 306	1.5250e-01	3.0467	-5.296353	0.000462	4.617965	0.782305	0.009237
 307	1.5300e-01	3.0569	-5.239479	0.000569	5.686939	0.963394	0.011375
 308	1.5350e-01	3.0685	-5.185170	0.000543	5.430385	0.919932	0.010862
 309	1.5400e-01	3.0775	-5.138559	0.000466	4.660724	0.789548	0.009322
 310	1.5450e-01	3.0842	-5.091093	0.000475	4.746242	0.804035	0.009493
 311	1.5500e-01	3.0951	-5.034219	0.000569	5.686939	0.963394	0.011375
 312	1.5550e-01	3.1046	-4.984186	0.000500	5.002796	0.847497	0.010006
 313	1.5600e-01	3.1171	-4.929450	0.000547	5.473144	0.927176	0.010947
 314	1.5650e-01	3.1268	-4.883694	0.000458	4.575206	0.775061	0.009151
 315	1.5700e-01	3.1351	-4.835373	0.000483	4.831760	0.818522	0.009664
 316	1.5750e-01	3.1471	-4.777216	0.000582	5.815216	0.985124	0.011631
 317	1.5800e-01	3.1564	-4.733170	0.000440	4.404171	0.746087	0.008809
 318	1.5850e-01	3.1671	-4.685704	0.000475	4.746242	0.804035	0.009493
 319	1.5900e-01	3.1747	-4.626692	0.000590	5.900734	0.999611	0.011802
 320	1.5950e-01	3.1901	-4.575804	0.000509	5.088314	0.861984	0.010177
 321	1.6000e-01	3.1964	-4.530048	0.000458	4.575206	0.775061	0.009151
 322	1.6050e-01	3.2092	-4.481727	0.000483	4.831760	0.818522	0.009664
 323	1.6100e-01	3.2184	-4.426991	0.000547	5.473144	0.927176	0.010947
 324	1.6150e-01	3.2240	-4.382945	0.000440	4.404171	0.746087	0.008809
 325	1.6200e-01	3.2382	-4.331630	0.000513	5.131073	0.869227	0.010263
 326	1.6250e-01	3.2453	-4.274328	0.000573	5.729698	0.970637	0.011460
 327	1.6300e-01	3.2547	-4.222158	0.000522	5.216591	0.883714	0.010434
 328	1.6350e-01	3.2666	-4.181534	0.000406	4.062099	0.688138	0.008125
 329	1.6400e-01	3.2787	-4.124232	0.000573	5.729698	0.970637	0.011460
 330	1.6450e-01	3.2861	-4.074627	0.000496	4.960037	0.840253	0.009921
 331	1.6500e-01	3.2965	-4.032293	0.000423	4.233135	0.717112	0.008467
 332	1.6550e-01	3.3057	-3.970287	0.000620	6.200046	1.050316	0.012401
 333	1.6600e-01	3.3176	-3.928380	0.000419	4.190376	0.709869	0.008381
 334	1.6650e-01	3.3237	-3.874499	0.000539	5.387626	0.912689	0.010776
 335	1.6700e-01	3.3330	-3.812493	0.000620	6.200046	1.050316	0.012401
 336	1.6750e-01	3.3444	-3.778283	0.000342	3.420715	0.579485	0.006842
 337	1.6800e-01	3.3566	-3.725685	0.000526	5.259349	0.890958	0.010520
 338	1.6850e-01	3.3675	-3.668383	0.000573	5.729698	0.970637	0.011460
 339	1.6900e-01	3.3759	-3.627331	0.000410	4.104858	0.695382	0.008210
 340	1.6950e-01	3.3842	-3.567036	0.000603	6.029010	1.021342	0.012059
 341	1.7000e-01	3.3981	-3.514866	0.000522	5.216591	0.883714	0.010434
 342	1.7050e-01	3.4053	-3.463979	0.000509	5.088314	0.861984	0.010177
 343	1.7100e-01	3.4149	-3.425920	0.000381	3.805546	0.644677	0.007612
 344	1.7150e-01	3.4277	-3.382730	0.000432	4.318653	0.731600	0.008638
 345	1.7200e-01	3.4357	-3.327994	0.000547	5.473144	0.927176	0.010947
 346	1.7250e-01	3.4464	-3.280955	0.000470	4.703483	0.796792	0.009408
 347	1.7300e-01	3.4552	-3.238620	0.000423	4.233135	0.717112	0.008467
 348	1.7350e-01	3.4645	-3.166779	0.000718	7.183502	1.216918	0.014368
 349	1.7400e-01	3.4735	-3.131286	0.000355	3.548992	0.601216	0.007099
 350	1.7450e-01	3.4863	-3.088096	0.000432	4.318653	0.731600	0.008638
 351	1.7500e-01	3.4958	-3.030794	0.000573	5.729698	0.970637	0.011460
 352	1.7550e-01	3.5065	-2.986749	0.000440	4.404171	0.746087	0.008809
 353	1.7600e-01	3.5165	-2.926454	0.000603	6.029010	1.021342	0.012059
 354	1.7650e-01	3.5277	-2.878560	0.000479	4.789001	0.811279	0.009579
 355	1.7700e-01	3.5358	-2.826817	0.000517	5.173832	0.876471	0.010349
 356	1.7750e-01	3.5455	-2.780633	0.000462	4.617965	0.782305	0.009237
 357	1.7800e-01	3.5556	-2.743430	0.000372	3.720028	0.630190	0.007441
 358	1.7850e-01	3.5657	-2.692115	0.000513	5.131073	0.869227	0.010263
 359	1.7900e-01	3.5773	-2.639945	0.000522	5.216591	0.883714	0.010434
 360	1.7950e-01	3.5852	-2.588202	0.000517	5.173832	0.876471	0.010349
 361	1.8000e-01	3.5980	-2.537742	0.000505	5.045555	0.854740	0.010092
 362	1.8050e-01	3.6043	-2.497973	0.000398	3.976581	0.673651	0.007954
 363	1.8100e-01	3.6160	-2.433829	0.000641	6.413841	1.086534	0.012829
 364	1.8150e-01	3.6234	-2.386790	0.000470	4.703483	0.796792	0.009408
 365	1.8200e-01	3.6345	-2.335903	0.000509	5.088314	0.861984	0.010177
 366	1.8250e-01	3.6420	-2.292713	0.000432	4.318653	0.731600	0.008638
 367	1.8300e-01	3.6555	-2.249523	0.000432	4.318653	0.731600	0.008638
 368	1.8350e-01	3.6627	-2.194359	0.000552	5.515903	0.934419	0.011033
 369	1.8400e-01	3.6781	-2.155873	0.000385	3.848305	0.651920	0.007697
 370	1.8450e-01	3.6844	-2.098999	0.000569	5.686939	0.963394	0.011375
 371	1.8500e-01	3.6969	-2.059230	0.000398	3.976581	0.673651	0.007954
 372	1.8550e-01	3.7051	-2.007059	0.000522	5.216591	0.883714	0.010434
 373	1.8600e-01	3.7148	-1.962586	0.000445	4.446930	0.753330	0.008895
 374	1.8650e-01	3.7244	-1.914692	0.000479	4.789001	0.811279	0.009579
 375	1.8700e-01	3.7354	-1.870647	0.000440	4.404171	0.746087	0.008809
 376	1.8750e-01	3.7482	-1.812490	0.000582	5.815216	0.985124	0.011631
 377	1.8800e-01	3.7567	-1.765023	0.000475	4.746242	0.804035	0.009493
 378	1.8850e-01	3.7659	-1.711998	0.000530	5.302108	0.898201	0.010605
 379	1.8900e-01	3.7766	-1.669235	0.000428	4.275894	0.724356	0.008553
 380	1.8950e-01	3.7921	-1.621341	0.000479	4.789001	0.811279	0.009579
 381	1.9000e-01	3.7959	-1.575585	0.000458	4.575206	0.775061	0.009151
 382	1.9050e-01	3.8077	-1.531112	0.000445	4.446930	0.753330	0.008895
 383	1.9100e-01	3.8162	-1.483646	0.000475	4.746242	0.804035	0.009493
 384	1.9150e-01	3.8254	-1.428910	0.000547	5.473144	0.927176	0.010947
 385	1.9200e-01	3.8394	-1.377595	0.000513	5.131073	0.869227	0.010263
 386	1.9250e-01	3.8440	-1.333122	0.000445	4.446930	0.753330	0.008895
 387	1.9300e-01	3.8589	-1.286511	0.000466	4.660724	0.789548	0.009322
 388	1.9350e-01	3.8670	-1.228781	0.000577	5.772457	0.977881	0.011546
 389	1.9400e-01	3.8757	-1.197565	0.000312	3.121403	0.528780	0.006243
 390	1.9450e-01	3.8843	-1.134276	0.000633	6.328323	1.072047	0.012658
 391	1.9500e-01	3.8954	-1.087665	0.000466	4.660724	0.789548	0.009322
 392	1.9550e-01	3.9044	-1.040198	0.000475	4.746242	0.804035	0.009493
 393	1.9600e-01	3.9172	-0.999574	0.000406	4.062099	0.688138	0.008125
 394	1.9650e-01	3.9240	-0.952535	0.000470	4.703483	0.796792	0.009408
 395	1.9700e-01	3.9362	-0.902931	0.000496	4.960037	0.840253	0.009921
 396	1.9750e-01	3.9450	-0.860596	0.000423	4.233135	0.717112	0.008467
 397	1.9800e-01	3.9577	-0.807143	0.000534	5.344867	0.905445	0.010691
 398	1.9850e-01	3.9655	-0.761814	0.000453	4.532448	0.767817	0.009066
 399	1.9900e-01	3.9758	-0.713493	0.000483	4.831760	0.818522	0.009664
 400	1.9950e-01	3.9851	-0.663888	0.000496	4.960037	0.840253	0.009921
 401	2.0000e-01	3.9966	-0.618560	0.000453	4.532448	0.767817	0.009066
 402	2.0050e-01	4.0070	-0.575797	0.000428	4.275894	0.724356	0.008553
 403	2.0100e-01	4.0144	-0.521917	0.000539	5.387626	0.912689	0.010776
 404	2.0150e-01	4.0244	-0.478299	0.000436	4.361412	0.738843	0.008724
 405	2.0200e-01	4.0369	-0.429122	0.000492	4.917278	0.833009	0.009835
 406	2.0250e-01	4.0469	-0.395767	0.000334	3.335197	0.564998	0.006671
 407	2.0300e-01	4.0555	-0.329058	0.000667	6.670394	1.129995	0.013342
 408	2.0350e-01	4.0674	-0.296986	0.000321	3.206920	0.543267	0.006414
 409	2.0400e-01	4.0729	-0.242677	0.000543	5.430385	0.919932	0.010862
 410	2.0450e-01	4.0878	-0.200770	0.000419	4.190376	0.709869	0.008381
 411	2.0500e-01	4.0973	-0.146889	0.000539	5.387626	0.912689	0.010776
 412	2.0550e-01	4.1058	-0.098995	0.000479	4.789001	0.811279	0.009579
 413	2.0600e-01	4.1150	-0.062219	0.000368	3.677269	0.622946	0.007355
 414	2.0650e-01	4.1278	-0.004918	0.000573	5.729698	0.970637	0.011460
 415	2.0700e-01	4.1352	0.039555	0.000445	4.446930	0.753330	0.008895
 416	2.0750e-01	4.1455	0.092581	0.000530	5.302108	0.898201	0.010605
 417	2.0800e-01	4.1534	0.137054	0.000445	4.446930	0.753330	0.008895
 418	2.0850e-01	4.1669	0.171692	0.000346	3.463474	0.586728	0.006928
 419	2.0900e-01	4.1779	0.226855	0.000552	5.515903	0.934419	0.011033
 420	2.0950e-01	4.1852	0.272611	0.000458	4.575206	0.775061	0.009151
 421	2.1000e-01	4.1951	0.315374	0.000428	4.275894	0.724356	0.008553
 422	2.1050e-01	4.2078	0.363695	0.000483	4.831760	0.818522	0.009664
 423	2.1100e-01	4.2175	0.407313	0.000436	4.361412	0.738843	0.008724
 424	2.1150e-01	4.2249	0.456062	0.000487	4.874519	0.825766	0.009750
 425	2.1200e-01	4.2392	0.500963	0.000449	4.489689	0.760574	0.008980
 426	2.1250e-01	4.2462	0.541587	0.000406	4.062099	0.688138	0.008125
 427	2.1300e-01	4.2566	0.594613	0.000530	5.302108	0.898201	0.010605
 428	2.1350e-01	4.2683	0.640369	0.000458	4.575206	0.775061	0.009151
 429	2.1400e-01	4.2766	0.687408	0.000470	4.703483	0.796792	0.009408
 430	2.1450e-01	4.2868	0.734874	0.000475	4.746242	0.804035	0.009493
 431	2.1500e-01	4.2972	0.776781	0.000419	4.190376	0.709869	0.008381
 432	2.1550e-01	4.3042	0.822537	0.000458	4.575206	0.775061	0.009151
 433	2.1600e-01	4.3152	0.865727	0.000432	4.318653	0.731600	0.008638
 434	2.1650e-01	4.3225	0.922174	0.000564	5.644180	0.956150	0.011289
 435	2.1700e-01	4.3379	0.968785	0.000466	4.660724	0.789548	0.009322
 436	2.1750e-01	4.3457	1.012403	0.000436	4.361412	0.738843	0.008724
 437	2.1800e-01	4.3532	1.053882	0.000415	4.147617	0.702625	0.008296
 438	2.1850e-01	4.3675	1.100921	0.000470	4.703483	0.796792	0.009408
 439	2.1900e-01	4.3753	1.147960	0.000470	4.703483	0.796792	0.009408
 440	2.1950e-01	4.3842	1.197137	0.000492	4.917278	0.833009	0.009835
 441	2.2000e-01	4.3974	1.239472	0.000423	4.233135	0.717112	0.008467
 442	2.2050e-01	4.4064	1.280952	0.000415	4.147617	0.702625	0.008296
 443	2.2100e-01	4.4162	1.322004	0.000410	4.104858	0.695382	0.008210
 444	2.2150e-01	4.4240	1.373319	0.000513	5.131073	0.869227	0.010263
 445	2.2200e-01	4.4385	1.422068	0.000487	4.874519	0.825766	0.009750
 446	2.2250e-01	4.4466	1.466969	0.000449	4.489689	0.760574	0.008980
 447	2.2300e-01	4.4559	1.515718	0.000487	4.874519	0.825766	0.009750
 448	2.2350e-01	4.4661	1.555915	0.000402	4.019340	0.680895	0.008039
 449	2.2400e-01	4.4763	1.599960	0.000440	4.404171	0.746087	0.008809
 450	2.2450e-01	4.4852	1.646571	0.000466	4.660724	0.789548	0.009322
 451	2.2500e-01	4.4946	1.699597	0.000530	5.302108	0.898201	0.010605
 452	2.2550e-01	4.5078	1.735945	0.000363	3.634510	0.615703	0.007270
 453	2.2600e-01	4.5167	1.783839	0.000479	4.789001	0.811279	0.009579
 454	2.2650e-01	4.5265	1.833016	0.000492	4.917278	0.833009	0.009835
 455	2.2700e-01	4.5374	1.861239	0.000282	2.822090	0.478075	0.005645
 456	2.2750e-01	4.5477	1.924100	0.000629	6.285564	1.064803	0.012572
 457	2.2800e-01	4.5593	1.960876	0.000368	3.677269	0.622946	0.007355
 458	2.2850e-01	4.5662	2.016039	0.000552	5.515903	0.934419	0.011033
 459	2.2900e-01	4.5764	2.051105	0.000351	3.506233	0.593972	0.007013
 460	2.2950e-01	4.5880	2.096005	0.000449	4.489689	0.760574	0.008980
 461	2.3000e-01	4.5961	2.143899	0.000479	4.789001	0.811279	0.009579
 462	2.3050e-01	4.6088	2.191366	0.000475	4.746242	0.804035	0.009493
 463	2.3100e-01	4.6149	2.239260	0.000479	4.789001	0.811279	0.009579
 464	2.3150e-01	4.6246	2.282022	0.000428	4.275894	0.724356	0.008553
 465	2.3200e-01	4.6352	2.313667	0.000316	3.164161	0.536023	0.006329
 466	2.3250e-01	4.6448	2.369685	0.000560	5.601421	0.948906	0.011204
 467	2.3300e-01	4.6571	2.417152	0.000475	4.746242	0.804035	0.009493
 468	2.3350e-01	4.6661	2.453928	0.000368	3.677269	0.622946	0.007355
 469	2.3400e-01	4.6780	2.494980	0.000410	4.104858	0.695382	0.008210
 470	2.3450e-01	4.6844	2.542874	0.000479	4.789001	0.811279	0.009579
 471	2.3500e-01	4.6973	2.583498	0.000406	4.062099	0.688138	0.008125
 472	2.3550e-01	4.7058	2.634813	0.000513	5.131073	0.869227	0.010263
 473	2.3600e-01	4.7169	2.675438	0.000406	4.062099	0.688138	0.008125
 474	2.3650e-01	4.7266	2.722904	0.000475	4.746242	0.804035	0.009493
 475	2.3700e-01	4.7353	2.780206	0.000573	5.729698	0.970637	0.011460
 476	2.3750e-01	4.7470	2.805863	0.000257	2.565536	0.434614	0.005132
 477	2.3800e-01	4.7584	2.861882	0.000560	5.601421	0.948906	0.011204
 478	2.3850e-01	4.7687	2.895237	0.000334	3.335197	0.564998	0.006671
 479	2.3900e-01	4.7758	2.943986	0.000487	4.874519	0.825766	0.009750
 480	2.3950e-01	4.7858	2.991453	0.000475	4.746242	0.804035	0.009493
 481	2.4000e-01	4.7951	3.030367	0.000389	3.891063	0.659164	0.007783
 482	2.4050e-01	4.8108	3.077833	0.000475	4.746242	0.804035	0.009493
 483	2.4100e-01	4.8187	3.118457	0.000406	4.062099	0.688138	0.008125
 484	2.4150e-01	4.8254	3.163786	0.000453	4.532448	0.767817	0.009066
 485	2.4200e-01	4.8367	3.206976	0.000432	4.318653	0.731600	0.008638
 486	2.4250e-01	4.8444	3.253587	0.000466	4.660724	0.789548	0.009322
 487	2.4300e-01	4.8593	3.295067	0.000415	4.147617	0.702625	0.008296
 488	2.4350e-01	4.8663	3.332270	0.000372	3.720028	0.630190	0.007441
 489	2.4400e-01	4.8798	3.387861	0.000556	5.558662	0.941663	0.011118
 490	2.4450e-01	4.8859	3.429341	0.000415	4.147617	0.702625	0.008296
 491	2.4500e-01	4.8981	3.476807	0.000475	4.746242	0.804035	0.009493
 492	2.4550e-01	4.9080	3.516576	0.000398	3.976581	0.673651	0.007954
 493	2.4600e-01	4.9158	3.560194	0.000436	4.361412	0.738843	0.008724
 494	2.4650e-01	4.9274	3.596970	0.000368	3.677269	0.622946	0.007355
 495	2.4700e-01	4.9374	3.636739	0.000398	3.976581	0.673651	0.007954
 496	2.4750e-01	4.9463	3.687627	0.000509	5.088314	0.861984	0.010177
 497	2.4800e-01	4.9557	3.735521	0.000479	4.789001	0.811279	0.009579
 498	2.4850e-01	4.9649	3.772296	0.000368	3.677269	0.622946	0.007355
 499	2.4900e-01	4.9771	3.824039	0.000517	5.173832	0.876471	0.010349
 500	2.4950e-01	4.9872	3.864663	0.000406	4.062099	0.688138	0.008125
 501	2.5000e-01	4.9984	3.915123	0.000505	5.045555	0.854740	0.010092
 502	2.5050e-01	5.0073	3.946767	0.000316	3.164161	0.536023	0.006329
 503	2.5100e-01	5.0165	3.992523	0.000458	4.575206	0.775061	0.009151
 504	2.5150e-01	5.0290	4.043838	0.000513	5.131073	0.869227	0.010263
 505	2.5200e-01	5.0372	4.075483	0.000316	3.164161	0.536023	0.006329
 506	2.5250e-01	5.0494	4.122094	0.000466	4.660724	0.789548	0.009322
 507	2.5300e-01	5.0549	4.169133	0.000470	4.703483	0.796792	0.009408
 508	2.5350e-01	5.0653	4.207191	0.000381	3.805546	0.644677	0.007612
 509	2.5400e-01	5.0732	4.251237	0.000440	4.404171	0.746087	0.008809
 510	2.5450e-01	5.0861	4.300841	0.000496	4.960037	0.840253	0.009921
 511	2.5500e-01	5.0943	4.347880	0.000470	4.703483	0.796792	0.009408
 512	2.5550e-01	5.1080	4.384656	0.000368	3.677269	0.622946	0.007355
 513	2.5600e-01	5.1154	4.426563	0.000419	4.190376	0.709869	0.008381
 514	2.5650e-01	5.1266	4.462056	0.000355	3.548992	0.601216	0.007099
 515	2.5700e-01	5.1369	4.515937	0.000539	5.387626	0.912689	0.010776
 516	2.5750e-01	5.1462	4.553140	0.000372	3.720028	0.630190	0.007441
 517	2.5800e-01	5.1569	4.595475	0.000423	4.233135	0.717112	0.008467
 518	2.5850e-01	5.1654	4.642086	0.000466	4.660724	0.789548	0.009322
 519	2.5900e-01	5.1746	4.690408	0.000483	4.831760	0.818522	0.009664
 520	2.5950e-01	5.1874	4.722052	0.000316	3.164161	0.536023	0.006329
 521	2.6000e-01	5.1953	4.768236	0.000462	4.617965	0.782305	0.009237
 522	2.6050e-01	5.2076	4.810143	0.000419	4.190376	0.709869	0.008381
 523	2.6100e-01	5.2142	4.854616	0.000445	4.446930	0.753330	0.008895
 524	2.6150e-01	5.2274	4.889254	0.000346	3.463474	0.586728	0.006928
 525	2.6200e-01	5.2344	4.939286	0.000500	5.002796	0.847497	0.010006
 526	2.6250e-01	5.2481	4.983759	0.000445	4.446930	0.753330	0.008895
 527	2.6300e-01	5.2551	5.019252	0.000355	3.548992	0.601216	0.007099
 528	2.6350e-01	5.2646	5.065008	0.000458	4.575206	0.775061	0.009151
 529	2.6400e-01	5.2759	5.102639	0.000376	3.762787	0.637433	0.007526
 530	2.6450e-01	5.2870	5.142408	0.000398	3.976581	0.673651	0.007954
 531	2.6500e-01	5.2967	5.198427	0.000560	5.601421	0.948906	0.011204
 532	2.6550e-01	5.3073	5.237768	0.000393	3.933822	0.666408	0.007868
 533	2.6600e-01	5.3174	5.281814	0.000440	4.404171	0.746087	0.008809
 534	2.6650e-01	5.3262	5.315168	0.000334	3.335197	0.564998	0.006671
 535	2.6700e-01	5.3369	5.357076	0.000419	4.190376	0.709869	0.008381
 536	2.6750e-01	5.3485	5.407535	0.000505	5.045555	0.854740	0.010092
 537	2.6800e-01	5.3564	5.444739	0.000372	3.720028	0.630190	0.007441
 538	2.6850e-01	5.3653	5.488357	0.000436	4.361412	0.738843	0.008724
 539	2.6900e-01	5.3723	5.536251	0.000479	4.789001	0.811279	0.009579
 540	2.6950e-01	5.3854	5.576020	0.000398	3.976581	0.673651	0.007954
 541	2.7000e-01	5.3949	5.614078	0.000381	3.805546	0.644677	0.007612
 542	2.7050e-01	5.4092	5.654703	0.000406	4.062099	0.688138	0.008125
 543	2.7100e-01	5.4163	5.694472	0.000398	3.976581	0.673651	0.007954
 544	2.7150e-01	5.4254	5.741083	0.000466	4.660724	0.789548	0.009322
 545	2.7200e-01	5.4367	5.774010	0.000329	3.292438	0.557754	0.006585
 546	2.7250e-01	5.4468	5.817200	0.000432	4.318653	0.731600	0.008638
 547	2.7300e-01	5.4541	5.865522	0.000483	4.831760	0.818522	0.009664
 548	2.7350e-01	5.4657	5.910423	0.000449	4.489689	0.760574	0.008980
 549	2.7400e-01	5.4791	5.945060	0.000346	3.463474	0.586728	0.006928
 550	2.7450e-01	5.4858	5.988251	0.000432	4.318653	0.731600	0.008638
 551	2.7500e-01	5.4964	6.035717	0.000475	4.746242	0.804035	0.009493
 552	2.7550e-01	5.5060	6.070782	0.000351	3.506233	0.593972	0.007013
 553	2.7600e-01	5.5167	6.113545	0.000428	4.275894	0.724356	0.008553
 554	2.7650e-01	5.5261	6.161439	0.000479	4.789001	0.811279	0.009579
 555	2.7700e-01	5.5372	6.201208	0.000398	3.976581	0.673651	0.007954
 556	2.7750e-01	5.5469	6.235418	0.000342	3.420715	0.579485	0.006842
 557	2.7800e-01	5.5554	6.281601	0.000462	4.617965	0.782305	0.009237
 558	2.7850e-01	5.5643	6.329496	0.000479	4.789001	0.811279	0.009579
 559	2.7900e-01	5.5751	6.361567	0.000321	3.206920	0.543267	0.006414
 560	2.7950e-01	5.5861	6.392784	0.000312	3.121403	0.528780	0.006243
 561	2.8000e-01	5.5984	6.447948	0.000552	5.515903	0.934419	0.011033
 562	2.8050e-01	5.6091	6.480020	0.000321	3.206920	0.543267	0.006414
 563	2.8100e-01	5.6165	6.536466	0.000564	5.644180	0.956150	0.011289
 564	2.8150e-01	5.6271	6.572814	0.000363	3.634510	0.615703	0.007270
 565	2.8200e-01	5.6396	6.610018	0.000372	3.720028	0.630190	0.007441
 566	2.8250e-01	5.6454	6.654063	0.000440	4.404171	0.746087	0.008809
 567	2.8300e-01	5.6567	6.698964	0.000449	4.489689	0.760574	0.008980
 568	2.8350e-01	5.6656	6.731036	0.000321	3.206920	0.543267	0.006414
 569	2.8400e-01	5.6801	6.776364	0.000453	4.532448	0.767817	0.009066
 570	2.8450e-01	5.6860	6.822120	0.000458	4.575206	0.775061	0.009151
 571	2.8500e-01	5.6937	6.856330	0.000342	3.420715	0.579485	0.006842
 572	2.8550e-01	5.7047	6.896099	0.000398	3.976581	0.673651	0.007954
 573	2.8600e-01	5.7159	6.944848	0.000487	4.874519	0.825766	0.009750
 574	2.8650e-01	5.7259	6.981624	0.000368	3.677269	0.622946	0.007355
 575	2.8700e-01	5.7359	7.029946	0.000483	4.831760	0.818522	0.009664
 576	2.8750e-01	5.7489	7.072281	0.000423	4.233135	0.717112	0.008467
 577	2.8800e-01	5.7547	7.105635	0.000334	3.335197	0.564998	0.006671
 578	2.8850e-01	5.7639	7.146687	0.000410	4.104858	0.695382	0.008210
 579	2.8900e-01	5.7764	7.193299	0.000466	4.660724	0.789548	0.009322
 580	2.8950e-01	5.7867	7.215535	0.000222	2.223465	0.376665	0.004447
 581	2.9000e-01	5.7944	7.271982	0.000564	5.644180	0.956150	0.011289
 582	2.9050e-01	5.8060	7.304481	0.000325	3.249679	0.550511	0.006500
 583	2.9100e-01	5.8167	7.354513	0.000500	5.002796	0.847497	0.010006
 584	2.9150e-01	5.8252	7.384019	0.000295	2.950367	0.499806	0.005901
 585	2.9200e-01	5.8363	7.426782	0.000428	4.275894	0.724356	0.008553
 586	2.9250e-01	5.8459	7.465696	0.000389	3.891063	0.659164	0.007783
 587	2.9300e-01	5.8563	7.514873	0.000492	4.917278	0.833009	0.009835
 588	2.9350e-01	5.8658	7.553359	0.000385	3.848305	0.651920	0.007697
 589	2.9400e-01	5.8780	7.590990	0.000376	3.762787	0.637433	0.007526
 590	2.9450e-01	5.8856	7.636746	0.000458	4.575206	0.775061	0.009151
 591	2.9500e-01	5.8966	7.667963	0.000312	3.121403	0.528780	0.006243
 592	2.9550e-01	5.9064	7.714574	0.000466	4.660724	0.789548	0.009322
 593	2.9600e-01	5.9143	7.748784	0.000342	3.420715	0.579485	0.006842
 594	2.9650e-01	5.9265	7.789408	0.000406	4.062099	0.688138	0.008125
 595	2.9700e-01	5.9402	7.835164	0.000458	4.575206	0.775061	0.009151
 596	2.9750e-01	5.9497	7.870657	0.000355	3.548992	0.601216	0.007099
 597	2.9800e-01	5.9558	7.916841	0.000462	4.617965	0.782305	0.009237
 598	2.9850e-01	5.9662	7.959603	0.000428	4.275894	0.724356	0.008553
 599	2.9900e-01	5.9741	7.992103	0.000325	3.249679	0.550511	0.006500
 600	2.9950e-01	5.9866	8.039141	0.000470	4.703483	0.796792	0.009408
 601	3.0000e-01	5.9955	8.074634	0.000355	3.548992	0.601216	0.007099
 602	3.0050e-01	6.0052	8.122528	0.000479	4.789001	0.811279	0.009579
 603	3.0100e-01	6.0164	8.149469	0.000269	2.693813	0.456344	0.005388
 604	3.0150e-01	6.0260	8.187100	0.000376	3.762787	0.637433	0.007526
 605	3.0200e-01	6.0361	8.243119	0.000560	5.601421	0.948906	0.011204
 606	3.0250e-01	6.0474	8.274763	0.000316	3.164161	0.536023	0.006329
 607	3.0300e-01	6.0559	8.316243	0.000415	4.147617	0.702625	0.008296
 608	3.0350e-01	6.0657	8.361143	0.000449	4.489689	0.760574	0.008980
 609	3.0400e-01	6.0757	8.392787	0.000316	3.164161	0.536023	0.006329
 610	3.0450e-01	6.0870	8.441537	0.000487	4.874519	0.825766	0.009750
 611	3.0500e-01	6.0962	8.475319	0.000338	3.377956	0.572241	0.006756
 612	3.0550e-01	6.1066	8.510384	0.000351	3.506233	0.593972	0.007013
 613	3.0600e-01	6.1163	8.554002	0.000436	4.361412	0.738843	0.008724
 614	3.0650e-01	6.1261	8.588640	0.000346	3.463474	0.586728	0.006928
 615	3.0700e-01	6.1336	8.634823	0.000462	4.617965	0.782305	0.009237
 616	3.0750e-01	6.1456	8.677158	0.000423	4.233135	0.717112	0.008467
 617	3.0800e-01	6.1555	8.711368	0.000342	3.420715	0.579485	0.006842
 618	3.0850e-01	6.1655	8.749855	0.000385	3.848305	0.651920	0.007697
 619	3.0900e-01	6.1752	8.790051	0.000402	4.019340	0.680895	0.008039
 620	3.0950e-01	6.1902	8.841366	0.000513	5.131073	0.869227	0.010263
 621	3.1000e-01	6.1969	8.865741	0.000244	2.437260	0.412883	0.004875
 622	3.1050e-01	6.2079	8.912352	0.000466	4.660724	0.789548	0.009322
 623	3.1100e-01	6.2161	8.953832	0.000415	4.147617	0.702625	0.008296
 624	3.1150e-01	6.2271	8.993601	0.000398	3.976581	0.673651	0.007954
 625	3.1200e-01	6.2360	9.028666	0.000351	3.506233	0.593972	0.007013
 626	3.1250e-01	6.2457	9.063732	0.000351	3.506233	0.593972	0.007013
 627	3.1300e-01	6.2604	9.101790	0.000381	3.805546	0.644677	0.007612
 628	3.1350e-01	6.2653	9.150112	0.000483	4.831760	0.818522	0.009664
 629	3.1400e-01	6.2762	9.183894	0.000338	3.377956	0.572241	0.006756
 630	3.1450e-01	6.2851	9.226229	0.000423	4.233135	0.717112	0.008467
 631	3.1500e-01	6.2961	9.274551	0.000483	4.831760	0.818522	0.009664
 632	3.1550e-01	6.3074	9.306623	0.000321	3.206920	0.543267	0.006414
 633	3.1600e-01	6.3162	9.342971	0.000363	3.634510	0.615703	0.007270
 634	3.1650e-01	6.3260	9.386161	0.000432	4.318653	0.731600	0.008638
 635	3.1700e-01	6.3379	9.419516	0.000334	3.335197	0.564998	0.006671
 636	3.1750e-01	6.3452	9.452871	0.000334	3.335197	0.564998	0.006671
 637	3.1800e-01	6.3550	9.495205	0.000423	4.233135	0.717112	0.008467
 638	3.1850e-01	6.3696	9.530271	0.000351	3.506233	0.593972	0.007013
 639	3.1900e-01	6.3785	9.582869	0.000526	5.259349	0.890958	0.010520
 640	3.1950e-01	6.3904	9.620500	0.000376	3.762787	0.637433	0.007526
 641	3.2000e-01	6.3965	9.649151	0.000286	2.864849	0.485319	0.005730
 642	3.2050e-01	6.4066	9.695334	0.000462	4.617965	0.782305	0.009237
 643	3.2100e-01	6.4160	9.733393	0.000381	3.805546	0.644677	0.007612
 644	3.2150e-01	6.4240	9.774872	0.000415	4.147617	0.702625	0.008296
 645	3.2200e-01	6.4331	9.812931	0.000381	3.805546	0.644677	0.007612
 646	3.2250e-01	6.4473	9.852700	0.000398	3.976581	0.673651	0.007954
 647	3.2300e-01	6.4551	9.891614	0.000389	3.891063	0.659164	0.007783
 648	3.2350e-01	6.4674	9.924541	0.000329	3.292438	0.557754	0.006585
 649	3.2400e-01	6.4758	9.960889	0.000363	3.634510	0.615703	0.007270
 650	3.2450e-01	6.4868	10.001941	0.000410	4.104858	0.695382	0.008210
 651	3.2500e-01	6.4987	10.042566	0.000406	4.062099	0.688138	0.008125
 652	3.2550e-01	6.5063	10.081907	0.000393	3.933822	0.666408	0.007868
 653	3.2600e-01	6.5161	10.111413	0.000295	2.950367	0.499806	0.005901
 654	3.2650e-01	6.5240	10.155459	0.000440	4.404171	0.746087	0.008809
 655	3.2700e-01	6.5344	10.196511	0.000410	4.104858	0.695382	0.008210
 656	3.2750e-01	6.5466	10.230721	0.000342	3.420715	0.579485	0.006842
 657	3.2800e-01	6.5549	10.279043	0.000483	4.831760	0.818522	0.009664
 658	3.2850e-01	6.5643	10.310259	0.000312	3.121403	0.528780	0.006243
 659	3.2900e-01	6.5765	10.349601	0.000393	3.933822	0.666408	0.007868
 660	3.2950e-01	6.5863	10.388942	0.000393	3.933822	0.666408	0.007868
 661	3.3000e-01	6.5955	10.427429	0.000385	3.848305	0.651920	0.007697
 662	3.3050e-01	6.6052	10.466770	0.000393	3.933822	0.666408	0.007868
 663	3.3100e-01	6.6138	10.509960	0.000432	4.318653	0.731600	0.008638
 664	3.3150e-01	6.6273	10.549302	0.000393	3.933822	0.666408	0.007868
 665	3.3200e-01	6.6370	10.579663	0.000304	3.035885	0.514293	0.006072
 666	3.3250e-01	6.6479	10.619005	0.000393	3.933822	0.666408	0.007868
 667	3.3300e-01	6.6565	10.658346	0.000393	3.933822	0.666408	0.007868
 668	3.3350e-01	6.6693	10.700681	0.000423	4.233135	0.717112	0.008467
 669	3.3400e-01	6.6769	10.730187	0.000295	2.950367	0.499806	0.005901
 670	3.3450e-01	6.6840	10.778509	0.000483	4.831760	0.818522	0.009664
 671	3.3500e-01	6.6968	10.814002	0.000355	3.548992	0.601216	0.007099
 672	3.3550e-01	6.7059	10.847784	0.000338	3.377956	0.572241	0.006756
 673	3.3600e-01	6.7169	10.883277	0.000355	3.548992	0.601216	0.007099
 674	3.3650e-01	6.7267	10.926467	0.000432	4.318653	0.731600	0.008638
 675	3.3700e-01	6.7349	10.956401	0.000299	2.993126	0.507049	0.005987
 676	3.3750e-01	6.7480	11.008999	0.000526	5.259349	0.890958	0.010520
 677	3.3800e-01	6.7548	11.035512	0.000265	2.651054	0.449101	0.005303
 678	3.3850e-01	6.7648	11.076136	0.000406	4.062099	0.688138	0.008125
 679	3.3900e-01	6.7737	11.116333	0.000402	4.019340	0.680895	0.008039
 680	3.3950e-01	6.7861	11.158240	0.000419	4.190376	0.709869	0.008381
 681	3.4000e-01	6.7975	11.193305	0.000351	3.506233	0.593972	0.007013
 682	3.4050e-01	6.8069	11.221529	0.000282	2.822090	0.478075	0.005645
 683	3.4100e-01	6.8164	11.262153	0.000406	4.062099	0.688138	0.008125
 684	3.4150e-01	6.8269	11.310902	0.000487	4.874519	0.825766	0.009750
 685	3.4200e-01	6.8365	11.343829	0.000329	3.292438	0.557754	0.006585
 686	3.4250e-01	6.8481	11.373763	0.000299	2.993126	0.507049	0.005987
 687	3.4300e-01	6.8555	11.419519	0.000458	4.575206	0.775061	0.009151
 688	3.4350e-01	6.8637	11.455440	0.000359	3.591751	0.608459	0.007184
 689	3.4400e-01	6.8750	11.496064	0.000406	4.062099	0.688138	0.008125
 690	3.4450e-01	6.8851	11.528136	0.000321	3.206920	0.543267	0.006414
 691	3.4500e-01	6.8994	11.564484	0.000363	3.634510	0.615703	0.007270
 692	3.4550e-01	6.9067	11.607674	0.000432	4.318653	0.731600	0.008638
 693	3.4600e-01	6.9183	11.649582	0.000419	4.190376	0.709869	0.008381
 694	3.4650e-01	6.9250	11.691916	0.000423	4.233135	0.717112	0.008467
 695	3.4700e-01	6.9370	11.723988	0.000321	3.206920	0.543267	0.006414
 696	3.4750e-01	6.9437	11.765040	0.000410	4.104858	0.695382	0.008210
 697	3.4800e-01	6.9568	11.800106	0.000351	3.506233	0.593972	0.007013
 698	3.4850e-01	6.9647	11.834316	0.000342	3.420715	0.579485	0.006842
 699	3.4900e-01	6.9769	11.872374	0.000381	3.805546	0.644677	0.007612
 700	3.4950e-01	6.9849	11.907012	0.000346	3.463474	0.586728	0.006928
 701	3.5000e-01	6.9983	11.945071	0.000381	3.805546	0.644677	0.007612
 702	3.5050e-01	7.0068	11.977143	0.000321	3.206920	0.543267	0.006414
 703	3.5100e-01	7.0169	12.019050	0.000419	4.190376	0.709869	0.008381
 704	3.5150e-01	7.0303	12.057108	0.000381	3.805546	0.644677	0.007612
 705	3.5200e-01	7.0358	12.089608	0.000325	3.249679	0.550511	0.006500
 706	3.5250e-01	7.0447	12.131515	0.000419	4.190376	0.709869	0.008381
 707	3.5300e-01	7.0575	12.167436	0.000359	3.591751	0.608459	0.007184
 708	3.5350e-01	7.0630	12.203784	0.000363	3.634510	0.615703	0.007270
 709	3.5400e-01	7.0760	12.243125	0.000393	3.933822	0.666408	0.007868
 710	3.5450e-01	7.0850	12.281184	0.000381	3.805546	0.644677	0.007612
 711	3.5500e-01	7.0953	12.319243	0.000381	3.805546	0.644677	0.007612
 712	3.5550e-01	7.1082	12.347466	0.000282	2.822090	0.478075	0.005645
 713	3.5600e-01	7.1205	12.393650	0.000462	4.617965	0.782305	0.009237
 714	3.5650e-01	7.1271	12.424866	0.000312	3.121403	0.528780	0.006243
 715	3.5700e-01	7.1368	12.468056	0.000432	4.318653	0.731600	0.008638
 716	3.5750e-01	7.1432	12.497135	0.000291	2.907608	0.492562	0.005816
 717	3.5800e-01	7.1561	12.548450	0.000513	5.131073	0.869227	0.010263
 718	3.5850e-01	7.1683	12.579239	0.000308	3.078644	0.521536	0.006158
 719	3.5900e-01	7.1756	12.607035	0.000278	2.779331	0.470831	0.005559
 720	3.5950e-01	7.1851	12.649797	0.000428	4.275894	0.724356	0.008553
 721	3.6000e-01	7.1954	12.686145	0.000363	3.634510	0.615703	0.007270
 722	3.6050e-01	7.2058	12.717789	0.000316	3.164161	0.536023	0.006329
 723	3.6100e-01	7.2168	12.769105	0.000513	5.131073	0.869227	0.010263
 724	3.6150e-01	7.2272	12.799466	0.000304	3.035885	0.514293	0.006072
 725	3.6200e-01	7.2348	12.837525	0.000381	3.805546	0.644677	0.007612
 726	3.6250e-01	7.2479	12.881998	0.000445	4.446930	0.753330	0.008895
 727	3.6300e-01	7.2586	12.907655	0.000257	2.565536	0.434614	0.005132
 728	3.6350e-01	7.2638	12.958115	0.000505	5.045555	0.854740	0.010092
 729	3.6400e-01	7.2766	12.993608	0.000355	3.548992	0.601216	0.007099
 730	3.6450e-01	7.2864	13.020976	0.000274	2.736572	0.463588	0.005474
 731	3.6500e-01	7.2955	13.057752	0.000368	3.677269	0.622946	0.007355
 732	3.6550e-01	7.3053	13.100942	0.000432	4.318653	0.731600	0.008638
 733	3.6600e-01	7.3154	13.132586	0.000316	3.164161	0.536023	0.006329
 734	3.6650e-01	7.3273	13.165941	0.000334	3.335197	0.564998	0.006671
 735	3.6700e-01	7.3352	13.212552	0.000466	4.660724	0.789548	0.009322
 736	3.6750e-01	7.3468	13.238637	0.000261	2.608295	0.441857	0.005217
 737	3.6800e-01	7.3578	13.283965	0.000453	4.532448	0.767817	0.009066
 738	3.6850e-01	7.3657	13.318175	0.000342	3.420715	0.579485	0.006842
 739	3.6900e-01	7.3749	13.359655	0.000415	4.147617	0.702625	0.008296
 740	3.6950e-01	7.3883	13.390444	0.000308	3.078644	0.521536	0.006158
 741	3.7000e-01	7.3959	13.426792	0.000363	3.634510	0.615703	0.007270
 742	3.7050e-01	7.4042	13.466989	0.000402	4.019340	0.680895	0.008039
 743	3.7100e-01	7.4182	13.491364	0.000244	2.437260	0.412883	0.004875
 744	3.7150e-01	7.4283	13.539685	0.000483	4.831760	0.818522	0.009664
 745	3.7200e-01	7.4341	13.581593	0.000419	4.190376	0.709869	0.008381
 746	3.7250e-01	7.4432	13.607250	0.000257	2.565536	0.434614	0.005132
 747	3.7300e-01	7.4554	13.647447	0.000402	4.019340	0.680895	0.008039
 748	3.7350e-01	7.4649	13.685505	0.000381	3.805546	0.644677	0.007612
 749	3.7400e-01	7.4738	13.723564	0.000381	3.805546	0.644677	0.007612
 750	3.7450e-01	7.4854	13.760340	0.000368	3.677269	0.622946	0.007355
 751	3.7500e-01	7.4957	13.800537	0.000402	4.019340	0.680895	0.008039
 752	3.7550e-01	7.5073	13.829188	0.000286	2.864849	0.485319	0.005730
 753	3.7600e-01	7.5171	13.868957	0.000398	3.976581	0.673651	0.007954
 754	3.7650e-01	7.5269	13.910436	0.000415	4.147617	0.702625	0.008296
 755	3.7700e-01	7.5354	13.944646	0.000342	3.420715	0.579485	0.006842
 756	3.7750e-01	7.5458	13.983133	0.000385	3.848305	0.651920	0.007697
 757	3.7800e-01	7.5574	14.016060	0.000329	3.292438	0.557754	0.006585
 758	3.7850e-01	7.5684	14.060105	0.000440	4.404171	0.746087	0.008809
 759	3.7900e-01	7.5766	14.082769	0.000227	2.266224	0.383909	0.004533
 760	3.7950e-01	7.5854	14.128098	0.000453	4.532448	0.767817	0.009066
 761	3.8000e-01	7.5995	14.147768	0.000197	1.966911	0.333204	0.003934
 762	3.8050e-01	7.6093	14.185827	0.000381	3.805546	0.644677	0.007612
 763	3.8100e-01	7.6154	14.236714	0.000509	5.088314	0.861984	0.010177
 764	3.8150e-01	7.6263	14.262800	0.000261	2.608295	0.441857	0.005217
 765	3.8200e-01	7.6355	14.310694	0.000479	4.789001	0.811279	0.009579
 766	3.8250e-01	7.6471	14.346614	0.000359	3.591751	0.608459	0.007184
 767	3.8300e-01	7.6558	14.380824	0.000342	3.420715	0.579485	0.006842
 768	3.8350e-01	7.6636	14.420593	0.000398	3.976581	0.673651	0.007954
 769	3.8400e-01	7.6758	14.441975	0.000214	2.137947	0.362178	0.004276
 770	3.8450e-01	7.6862	14.486448	0.000445	4.446930	0.753330	0.008895
 771	3.8500e-01	7.6962	14.510822	0.000244	2.437260	0.412883	0.004875
 772	3.8550e-01	7.7045	14.559999	0.000492	4.917278	0.833009	0.009835
 773	3.8600e-01	7.7155	14.598485	0.000385	3.848305	0.651920	0.007697
 774	3.8650e-01	7.7283	14.625853	0.000274	2.736572	0.463588	0.005474
 775	3.8700e-01	7.7368	14.669044	0.000432	4.318653	0.731600	0.008638
 776	3.8750e-01	7.7429	14.703254	0.000342	3.420715	0.579485	0.006842
 777	3.8800e-01	7.7570	14.737464	0.000342	3.420715	0.579485	0.006842
 778	3.8850e-01	7.7655	14.772957	0.000355	3.548992	0.601216	0.007099
 779	3.8900e-01	7.7753	14.808449	0.000355	3.548992	0.601216	0.007099
 780	3.8950e-01	7.7844	14.849501	0.000410	4.104858	0.695382	0.008210
 781	3.9000e-01	7.7954	14.886277	0.000368	3.677269	0.622946	0.007355
 782	3.9050e-01	7.8058	14.925619	0.000393	3.933822	0.666408	0.007868
 783	3.9100e-01	7.8140	14.952559	0.000269	2.693813	0.456344	0.005388
 784	3.9150e-01	7.8271	14.990190	0.000376	3.762787	0.637433	0.007526
 785	3.9200e-01	7.8352	15.041078	0.000509	5.088314	0.861984	0.010177
 786	3.9250e-01	7.8436	15.070156	0.000291	2.907608	0.492562	0.005816
 787	3.9300e-01	7.8568	15.104366	0.000342	3.420715	0.579485	0.006842
 788	3.9350e-01	7.8662	15.140714	0.000363	3.634510	0.615703	0.007270
 789	3.9400e-01	7.8754	15.177062	0.000363	3.634510	0.615703	0.007270
 790	3.9450e-01	7.8836	15.221963	0.000449	4.489689	0.760574	0.008980
 791	3.9500e-01	7.8952	15.254463	0.000325	3.249679	0.550511	0.006500
 792	3.9550e-01	7.9031	15.294232	0.000398	3.976581	0.673651	0.007954
 793	3.9600e-01	7.9153	15.317324	0.000231	2.308983	0.391152	0.004618
 794	3.9650e-01	7.9256	15.360514	0.000432	4.318653	0.731600	0.008638
 795	3.9700e-01	7.9364	15.382323	0.000218	2.180706	0.369422	0.004362
 796	3.9750e-01	7.9462	15.423802	0.000415	4.147617	0.702625	0.008296
 797	3.9800e-01	7.9535	15.467420	0.000436	4.361412	0.738843	0.008724
 798	3.9850e-01	7.9651	15.497781	0.000304	3.035885	0.514293	0.006072
 799	3.9900e-01	7.9770	15.537123	0.000393	3.933822	0.666408	0.007868
 800	3.9950e-01	7.9883	15.574326	0.000372	3.720028	0.630190	0.007441
 801	4.0000e-01	7.9970	15.601694	0.000274	2.736572	0.463588	0.005474
 802	4.0050e-01	8.0045	15.647450	0.000458	4.575206	0.775061	0.009151
 803	4.0100e-01	8.0145	15.676101	0.000286	2.864849	0.485319	0.005730
 804	4.0150e-01	8.0261	15.723995	0.000479	4.789001	0.811279	0.009579
 805	4.0200e-01	8.0359	15.755212	0.000312	3.121403	0.528780	0.006243
 806	4.0250e-01	8.0475	15.786428	0.000312	3.121403	0.528780	0.006243
 807	4.0300e-01	8.0545	15.821066	0.000346	3.463474	0.586728	0.006928
 808	4.0350e-01	8.0658	15.862546	0.000415	4.147617	0.702625	0.008296
 809	4.0400e-01	8.0762	15.899749	0.000372	3.720028	0.630190	0.007441
 810	4.0450e-01	8.0824	15.935670	0.000359	3.591751	0.608459	0.007184
 811	4.0500e-01	8.0963	15.966031	0.000304	3.035885	0.514293	0.006072
 812	4.0550e-01	8.1050	16.007938	0.000419	4.190376	0.709869	0.008381
 813	4.0600e-01	8.1152	16.043859	0.000359	3.591751	0.608459	0.007184
 814	4.0650e-01	8.1268	16.087049	0.000432	4.318653	0.731600	0.008638
 815	4.0700e-01	8.1360	16.116128	0.000291	2.907608	0.492562	0.005816
 816	4.0750e-01	8.1482	16.147344	0.000312	3.121403	0.528780	0.006243
 817	4.0800e-01	8.1555	16.188396	0.000410	4.104858	0.695382	0.008210
 818	4.0850e-01	8.1671	16.222179	0.000338	3.377956	0.572241	0.006756
 819	4.0900e-01	8.1757	16.258527	0.000363	3.634510	0.615703	0.007270
 820	4.0950e-01	8.1879	16.300862	0.000423	4.233135	0.717112	0.008467
 821	4.1000e-01	8.1964	16.335072	0.000342	3.420715	0.579485	0.006842
 822	4.1050e-01	8.2043	16.380828	0.000458	4.575206	0.775061	0.009151
 823	4.1100e-01	8.2166	16.398788	0.000180	1.795875	0.304230	0.003592
 824	4.1150e-01	8.2245	16.438985	0.000402	4.019340	0.680895	0.008039
 825	4.1200e-01	8.2376	16.479181	0.000402	4.019340	0.680895	0.008039
 826	4.1250e-01	8.2471	16.516812	0.000376	3.762787	0.637433	0.007526
 827	4.1300e-01	8.2544	16.549312	0.000325	3.249679	0.550511	0.006500
 828	4.1350e-01	8.2648	16.597206	0.000479	4.789001	0.811279	0.009579
 829	4.1400e-01	8.2758	16.630988	0.000338	3.377956	0.572241	0.006756
 830	4.1450e-01	8.2840	16.663060	0.000321	3.206920	0.543267	0.006414
 831	4.1500e-01	8.2941	16.694705	0.000316	3.164161	0.536023	0.006329
 832	4.1550e-01	8.3044	16.731908	0.000372	3.720028	0.630190	0.007441
 833	4.1600e-01	8.3179	16.768256	0.000363	3.634510	0.615703	0.007270
 834	4.1650e-01	8.3264	16.796907	0.000286	2.864849	0.485319	0.005730
 835	4.1700e-01	8.3350	16.837104	0.000402	4.019340	0.680895	0.008039
 836	4.1750e-01	8.3459	16.878583	0.000415	4.147617	0.702625	0.008296
 837	4.1800e-01	8.3545	16.904241	0.000257	2.565536	0.434614	0.005132
 838	4.1850e-01	8.3667	16.945721	0.000415	4.147617	0.702625	0.008296
 839	4.1900e-01	8.3752	16.986773	0.000410	4.104858	0.695382	0.008210
 840	4.1950e-01	8.3856	17.016279	0.000295	2.950367	0.499806	0.005901
 841	4.2000e-01	8.3966	17.042364	0.000261	2.608295	0.441857	0.005217
 842	4.2050e-01	8.4064	17.085126	0.000428	4.275894	0.724356	0.008553
 843	4.2100e-01	8.4155	17.126606	0.000415	4.147617	0.702625	0.008296
 844	4.2150e-01	8.4271	17.168086	0.000415	4.147617	0.702625	0.008296
 845	4.2200e-01	8.4363	17.202723	0.000346	3.463474	0.586728	0.006928
 846	4.2250e-01	8.4479	17.236078	0.000334	3.335197	0.564998	0.006671
 847	4.2300e-01	8.4552	17.284827	0.000487	4.874519	0.825766	0.009750
 848	4.2350e-01	8.4674	17.297656	0.000128	1.282768	0.217307	0.002566
 849	4.2400e-01	8.4760	17.339991	0.000423	4.233135	0.717112	0.008467
 850	4.2450e-01	8.4854	17.382754	0.000428	4.275894	0.724356	0.008553
 851	4.2500e-01	8.4973	17.415681	0.000329	3.292438	0.557754	0.006585
 852	4.2550e-01	8.5040	17.443476	0.000278	2.779331	0.470831	0.005559
 853	4.2600e-01	8.5168	17.486667	0.000432	4.318653	0.731600	0.008638
 854	4.2650e-01	8.5260	17.531140	0.000445	4.446930	0.753330	0.008895
 855	4.2700e-01	8.5367	17.555087	0.000239	2.394501	0.405639	0.004789
 856	4.2750e-01	8.5474	17.592718	0.000376	3.762787	0.637433	0.007526
 857	4.2800e-01	8.5553	17.638474	0.000458	4.575206	0.775061	0.009151
 858	4.2850e-01	8.5675	17.668835	0.000304	3.035885	0.514293	0.006072
 859	4.2900e-01	8.5745	17.703473	0.000346	3.463474	0.586728	0.006928
 860	4.2950e-01	8.5846	17.744525	0.000410	4.104858	0.695382	0.008210
 861	4.3000e-01	8.5956	17.783438	0.000389	3.891063	0.659164	0.007783
 862	4.3050e-01	8.6047	17.814228	0.000308	3.078644	0.521536	0.006158
 863	4.3100e-01	8.6157	17.850148	0.000359	3.591751	0.608459	0.007184
 864	4.3150e-01	8.6264	17.889490	0.000393	3.933822	0.666408	0.007868
 865	4.3200e-01	8.6377	17.919423	0.000299	2.993126	0.507049	0.005987
 866	4.3250e-01	8.6462	17.958765	0.000393	3.933822	0.666408	0.007868
 867	4.3300e-01	8.6574	17.995541	0.000368	3.677269	0.622946	0.007355
 868	4.3350e-01	8.6646	18.031461	0.000359	3.591751	0.608459	0.007184
 869	4.3400e-01	8.6768	18.071658	0.000402	4.019340	0.680895	0.008039
 870	4.3450e-01	8.6850	18.107578	0.000359	3.591751	0.608459	0.007184
 871	4.3500e-01	8.6951	18.140933	0.000334	3.335197	0.564998	0.006671
 872	4.3550e-01	8.7061	18.178137	0.000372	3.720028	0.630190	0.007441
 873	4.3600e-01	8.7158	18.216195	0.000381	3.805546	0.644677	0.007612
 874	4.3650e-01	8.7244	18.257247	0.000410	4.104858	0.695382	0.008210
 875	4.3700e-01	8.7390	18.280339	0.000231	2.308983	0.391152	0.004618
 876	4.3750e-01	8.7463	18.326523	0.000462	4.617965	0.782305	0.009237
 877	4.3800e-01	8.7549	18.367147	0.000406	4.062099	0.688138	0.008125
 878	4.3850e-01	8.7671	18.397936	0.000308	3.078644	0.521536	0.006158
 879	4.3900e-01	8.7744	18.433001	0.000351	3.506233	0.593972	0.007013
 880	4.3950e-01	8.7872	18.475336	0.000423	4.233135	0.717112	0.008467
 881	4.4000e-01	8.7970	18.506125	0.000308	3.078644	0.521536	0.006158
 882	4.4050e-01	8.8049	18.540335	0.000342	3.420715	0.579485	0.006842
 883	4.4100e-01	8.8171	18.579249	0.000389	3.891063	0.659164	0.007783
 884	4.4150e-01	8.8264	18.623722	0.000445	4.446930	0.753330	0.008895
 885	4.4200e-01	8.8388	18.645103	0.000214	2.137947	0.362178	0.004276
 886	4.4250e-01	8.8455	18.689576	0.000445	4.446930	0.753330	0.008895
 887	4.4300e-01	8.8556	18.723786	0.000342	3.420715	0.579485	0.006842
 888	4.4350e-01	8.8660	18.766121	0.000423	4.233135	0.717112	0.008467
 889	4.4400e-01	8.8757	18.813588	0.000475	4.746242	0.804035	0.009493
 890	4.4450e-01	8.8849	18.825989	0.000124	1.240009	0.210063	0.002480
 891	4.4500e-01	8.8953	18.868751	0.000428	4.275894	0.724356	0.008553
 892	4.4550e-01	8.9038	18.906810	0.000381	3.805546	0.644677	0.007612
 893	4.4600e-01	8.9172	18.953421	0.000466	4.660724	0.789548	0.009322
 894	4.4650e-01	8.9249	18.985493	0.000321	3.206920	0.543267	0.006414
 895	4.4700e-01	8.9380	19.020986	0.000355	3.548992	0.601216	0.007099
 896	4.4750e-01	8.9465	19.053058	0.000321	3.206920	0.543267	0.006414
 897	4.4800e-01	8.9551	19.095820	0.000428	4.275894	0.724356	0.008553
 898	4.4850e-01	8.9685	19.125754	0.000299	2.993126	0.507049	0.005987
 899	4.4900e-01	8.9758	19.168944	0.000432	4.318653	0.731600	0.008638
 900	4.4950e-01	8.9880	19.199306	0.000304	3.035885	0.514293	0.006072
 901	4.5000e-01	8.9960	19.235226	0.000359	3.591751	0.608459	0.007184
 902	4.5050e-01	9.0082	19.271574	0.000363	3.634510	0.615703	0.007270
 903	4.5100e-01	9.0157	19.311771	0.000402	4.019340	0.680895	0.008039
 904	4.5150e-01	9.0259	19.348119	0.000363	3.634510	0.615703	0.007270
 905	4.5200e-01	9.0363	19.389171	0.000410	4.104858	0.695382	0.008210
 906	4.5250e-01	9.0448	19.434500	0.000453	4.532448	0.767817	0.009066
 907	4.5300e-01	9.0552	19.468710	0.000342	3.420715	0.579485	0.006842
 908	4.5350e-01	9.0656	19.502492	0.000338	3.377956	0.572241	0.006756
 909	4.5400e-01	9.0790	19.534136	0.000316	3.164161	0.536023	0.006329
 910	4.5450e-01	9.0851	19.572195	0.000381	3.805546	0.644677	0.007612
 911	4.5500e-01	9.0955	19.605550	0.000334	3.335197	0.564998	0.006671
 912	4.5550e-01	9.1077	19.641043	0.000355	3.548992	0.601216	0.007099
 913	4.5600e-01	9.1180	19.687226	0.000462	4.617965	0.782305	0.009237
 914	4.5650e-01	9.1272	19.718443	0.000312	3.121403	0.528780	0.006243
 915	4.5700e-01	9.1339	19.759067	0.000406	4.062099	0.688138	0.008125
 916	4.5750e-01	9.1467	19.794988	0.000359	3.591751	0.608459	0.007184
 917	4.5800e-01	9.1595	19.821928	0.000269	2.693813	0.456344	0.005388
 918	4.5850e-01	9.1638	19.876664	0.000547	5.473144	0.927176	0.010947
 919	4.5900e-01	9.1779	19.901039	0.000244	2.437260	0.412883	0.004875
 920	4.5950e-01	9.1864	19.946367	0.000453	4.532448	0.767817	0.009066
 921	4.6000e-01	9.1962	19.976301	0.000299	2.993126	0.507049	0.005987
 922	4.6050e-01	9.2047	20.014360	0.000381	3.805546	0.644677	0.007612
 923	4.6100e-01	9.2188	20.051563	0.000372	3.720028	0.630190	0.007441
 924	4.6150e-01	9.2291	20.093043	0.000415	4.147617	0.702625	0.008296
 925	4.6200e-01	9.2371	20.137516	0.000445	4.446930	0.753330	0.008895
 926	4.6250e-01	9.2487	20.177285	0.000398	3.976581	0.673651	0.007954
 927	4.6300e-01	9.2548	20.199094	0.000218	2.180706	0.369422	0.004362
 928	4.6350e-01	9.2664	20.242711	0.000436	4.361412	0.738843	0.008724
 929	4.6400e-01	9.2773	20.276494	0.000338	3.377956	0.572241	0.006756
 930	4.6450e-01	9.2859	20.308566	0.000321	3.206920	0.543267	0.006414
 931	4.6500e-01	9.2963	20.354749	0.000462	4.617965	0.782305	0.009237
 932	4.6550e-01	9.3088	20.396657	0.000419	4.190376	0.709869	0.008381
 933	4.6600e-01	9.3158	20.433005	0.000363	3.634510	0.615703	0.007270
 934	4.6650e-01	9.3298	20.467642	0.000346	3.463474	0.586728	0.006928
 935	4.6700e-01	9.3359	20.511688	0.000440	4.404171	0.746087	0.008809
 936	4.6750e-01	9.3469	20.536062	0.000244	2.437260	0.412883	0.004875
 937	4.6800e-01	9.3579	20.568990	0.000329	3.292438	0.557754	0.006585
 938	4.6850e-01	9.3661	20.614318	0.000453	4.532448	0.767817	0.009066
 939	4.6900e-01	9.3756	20.647673	0.000334	3.335197	0.564998	0.006671
 940	4.6950e-01	9.3878	20.687014	0.000393	3.933822	0.666408	0.007868
 941	4.7000e-01	9.4000	20.738757	0.000517	5.173832	0.876471	0.010349
 942	4.7050e-01	9.4086	20.764842	0.000261	2.608295	0.441857	0.005217
 943	4.7100e-01	9.4183	20.809315	0.000445	4.446930	0.753330	0.008895
 944	4.7150e-01	9.4263	20.846946	0.000376	3.762787	0.637433	0.007526
 945	4.7200e-01	9.4379	20.879018	0.000321	3.206920	0.543267	0.006414
 946	4.7250e-01	9.4446	20.918787	0.000398	3.976581	0.673651	0.007954
 947	4.7300e-01	9.4556	20.950431	0.000316	3.164161	0.536023	0.006329
 948	4.7350e-01	9.4638	20.999608	0.000492	4.917278	0.833009	0.009835
 949	4.7400e-01	9.4751	21.038950	0.000393	3.933822	0.666408	0.007868
 950	4.7450e-01	9.4836	21.066745	0.000278	2.779331	0.470831	0.005559
 951	4.7500e-01	9.4986	21.106514	0.000398	3.976581	0.673651	0.007954
 952	4.7550e-01	9.5062	21.145428	0.000389	3.891063	0.659164	0.007783
 953	4.7600e-01	9.5160	21.183059	0.000376	3.762787	0.637433	0.007526
 954	4.7650e-01	9.5251	21.218552	0.000355	3.548992	0.601216	0.007099
 955	4.7700e-01	9.5361	21.271150	0.000526	5.259349	0.890958	0.010520
 956	4.7750e-01	9.5483	21.291249	0.000201	2.009670	0.340447	0.004020
 957	4.7800e-01	9.5544	21.346412	0.000552	5.515903	0.934419	0.011033
 958	4.7850e-01	9.5654	21.376774	0.000304	3.035885	0.514293	0.006072
 959	4.7900e-01	9.5755	21.419536	0.000428	4.275894	0.724356	0.008553
 960	4.7950e-01	9.5850	21.456740	0.000372	3.720028	0.630190	0.007441
 961	4.8000e-01	9.5978	21.498219	0.000415	4.147617	0.702625	0.008296
 962	4.8050e-01	9.6063	21.522594	0.000244	2.437260	0.412883	0.004875
 963	4.8100e-01	9.6149	21.572198	0.000496	4.960037	0.840253	0.009921
 964	4.8150e-01	9.6265	21.609402	0.000372	3.720028	0.630190	0.007441
 965	4.8200e-01	9.6368	21.650454	0.000410	4.104858	0.695382	0.008210
 966	4.8250e-01	9.6448	21.692361	0.000419	4.190376	0.709869	0.008381
 967	4.8300e-01	9.6564	21.727426	0.000351	3.506233	0.593972	0.007013
 968	4.8350e-01	9.6655	21.758215	0.000308	3.078644	0.521536	0.006158
 969	4.8400e-01	9.6771	21.799267	0.000410	4.104858	0.695382	0.008210
 970	4.8450e-01	9.6857	21.845879	0.000466	4.660724	0.789548	0.009322
 971	4.8500e-01	9.6960	21.884792	0.000389	3.891063	0.659164	0.007783
 972	4.8550e-01	9.7052	21.918575	0.000338	3.377956	0.572241	0.006756
 973	4.8600e-01	9.7162	21.956206	0.000376	3.762787	0.637433	0.007526
 974	4.8650e-01	9.7260	21.993409	0.000372	3.720028	0.630190	0.007441
 975	4.8700e-01	9.7333	22.035744	0.000423	4.233135	0.717112	0.008467
 976	4.8750e-01	9.7467	22.073803	0.000381	3.805546	0.644677	0.007612
 977	4.8800e-01	9.7571	22.113144	0.000393	3.933822	0.666408	0.007868
 978	4.8850e-01	9.7659	22.151631	0.000385	3.848305	0.651920	0.007697
 979	4.8900e-01	9.7772	22.192255	0.000406	4.062099	0.688138	0.008125
 980	4.8950e-01	9.7858	22.227748	0.000355	3.548992	0.601216	0.007099
 981	4.9000e-01	9.7980	22.265379	0.000376	3.762787	0.637433	0.007526
 982	4.9050e-01	9.8074	22.302155	0.000368	3.677269	0.622946	0.007355
 983	4.9100e-01	9.8151	22.351332	0.000492	4.917278	0.833009	0.009835
 984	4.9150e-01	9.8285	22.379127	0.000278	2.779331	0.470831	0.005559
 985	4.9200e-01	9.8352	22.435574	0.000564	5.644180	0.956150	0.011289
 986	4.9250e-01	9.8468	22.469356	0.000338	3.377956	0.572241	0.006756
 987	4.9300e-01	9.8547	22.506560	0.000372	3.720028	0.630190	0.007441
 988	4.9350e-01	9.8633	22.545046	0.000385	3.848305	0.651920	0.007697
 989	4.9400e-01	9.8764	22.585670	0.000406	4.062099	0.688138	0.008125
 990	4.9450e-01	9.8859	22.624584	0.000389	3.891063	0.659164	0.007783
 991	4.9500e-01	9.8938	22.674616	0.000500	5.002796	0.847497	0.010006
 992	4.9550e-01	9.9078	22.703267	0.000286	2.864849	0.485319	0.005730
 993	4.9600e-01	9.9152	22.743892	0.000406	4.062099	0.688138	0.008125
 994	4.9650e-01	9.9255	22.786654	0.000428	4.275894	0.724356	0.008553
 995	4.9700e-01	9.9377	22.812312	0.000257	2.565536	0.434614	0.005132
 996	4.9750e-01	9.9451	22.864054	0.000517	5.173832	0.876471	0.010349
 997	4.9800e-01	9.9561	22.901258	0.000372	3.720028	0.630190	0.007441
 998	4.9850e-01	9.9670	22.946586	0.000453	4.532448	0.767817	0.009066
 999	4.9900e-01	9.9762	22.986355	0.000398	3.976581	0.673651	0.007954
1000	4.9950e-01	9.9872	23.013723	0.000274	2.736572	0.463588	0.005474
1001	5.0000e-01	9.9963	23.064611	0.000509	5.088314	0.861984	0.010177
1002	5.0050e-01	9.9860	23.060762	0.000038	0.384830	0.065192	-0.000770
1003	5.0100e-01	9.9731	23.046223	0.000145	1.453804	0.246281	-0.002908
1004	5.0150e-01	9.9670	23.025697	0.000205	2.052429	0.347691	-0.004105
1005	5.0200e-01	9.9567	23.005171	0.000205	2.052429	0.347691	-0.004105
1006	5.0250e-01	9.9451	22.992770	0.000124	1.240009	0.210063	-0.002480
1007	5.0300e-01	9.9384	22.970961	0.000218	2.180706	0.369422	-0.004362
1008	5.0350e-01	9.9237	22.955994	0.000150	1.496563	0.253525	-0.002993
1009	5.0400e-01	9.9139	22.934185	0.000218	2.180706	0.369422	-0.004362
1010	5.0450e-01	9.9048	22.924350	0.000098	0.983456	0.166602	-0.001967
1011	5.0500e-01	9.8969	22.898692	0.000257	2.565536	0.434614	-0.005132
1012	5.0550e-01	9.8853	22.890140	0.000086	0.855179	0.144871	-0.001711
1013	5.0600e-01	9.8767	22.864482	0.000257	2.565536	0.434614	-0.005132
1014	5.0650e-01	9.8645	22.847805	0.000167	1.667599	0.282499	-0.003335
1015	5.0700e-01	9.8578	22.833693	0.000141	1.411045	0.239037	-0.002822
1016	5.0750e-01	9.8462	22.810174	0.000235	2.351742	0.398396	-0.004704
1017	5.0800e-01	9.8358	22.792213	0.000180	1.795875	0.304230	-0.003592
1018	5.0850e-01	9.8279	22.770832	0.000214	2.137947	0.362178	-0.004276
1019	5.0900e-01	9.8187	22.752444	0.000184	1.838634	0.311473	-0.003678
1020	5.0950e-01	9.8053	22.725504	0.000269	2.693813	0.456344	-0.005388
1021	5.1000e-01	9.7931	22.715241	0.000103	1.026215	0.173845	-0.002053
1022	5.1050e-01	9.7827	22.689583	0.000257	2.565536	0.434614	-0.005132
1023	5.1100e-01	9.7754	22.674189	0.000154	1.539322	0.260768	-0.003079
1024	5.1150e-01	9.7672	22.651952	0.000222	2.223465	0.376665	-0.004447
1025	5.1200e-01	9.7559	22.624157	0.000278	2.779331	0.470831	-0.005559
1026	5.1250e-01	9.7461	22.603631	0.000205	2.052429	0.347691	-0.004105
1027	5.1300e-01	9.7351	22.580539	0.000231	2.308983	0.391152	-0.004618
1028	5.1350e-01	9.7247	22.559158	0.000214	2.137947	0.362178	-0.004276
1029	5.1400e-01	9.7147	22.545474	0.000137	1.368286	0.231794	-0.002737
1030	5.1450e-01	9.7040	22.527086	0.000184	1.838634	0.311473	-0.003678
1031	5.1500e-01	9.6924	22.501001	0.000261	2.608295	0.441857	-0.005217
1032	5.1550e-01	9.6875	22.471494	0.000295	2.950367	0.499806	-0.005901
1033	5.1600e-01	9.6765	22.447975	0.000235	2.351742	0.398396	-0.004704
1034	5.1650e-01	9.6649	22.426594	0.000214	2.137947	0.362178	-0.004276
1035	5.1700e-01	9.6564	22.412910	0.000137	1.368286	0.231794	-0.002737
1036	5.1750e-01	9.6463	22.386825	0.000261	2.608295	0.441857	-0.005217
1037	5.1800e-01	9.6356	22.358601	0.000282	2.822090	0.478075	-0.005645
1038	5.1850e-01	9.6248	22.335510	0.000231	2.308983	0.391152	-0.004618
1039	5.1900e-01	9.6130	22.321398	0.000141	1.411045	0.239037	-0.002822
1040	5.1950e-01	9.6057	22.288043	0.000334	3.335197	0.564998	-0.006671
1041	5.2000e-01	9.5953	22.261530	0.000265	2.651054	0.449101	-0.005303
1042	5.2050e-01	9.5850	22.238011	0.000235	2.351742	0.398396	-0.004704
1043	5.2100e-01	9.5740	22.220478	0.000175	1.753116	0.296986	-0.003507
1044	5.2150e-01	9.5667	22.199952	0.000205	2.052429	0.347691	-0.004105
1045	5.2200e-01	9.5569	22.173867	0.000261	2.608295	0.441857	-0.005217
1046	5.2250e-01	9.5465	22.152914	0.000210	2.095188	0.354934	-0.004191
1047	5.2300e-01	9.5361	22.128967	0.000239	2.394501	0.405639	-0.004789
1048	5.2350e-01	9.5242	22.099888	0.000291	2.907608	0.492562	-0.005816
1049	5.2400e-01	9.5169	22.078079	0.000218	2.180706	0.369422	-0.004362
1050	5.2450e-01	9.5050	22.052422	0.000257	2.565536	0.434614	-0.005132
1051	5.2500e-01	9.4971	22.030613	0.000218	2.180706	0.369422	-0.004362
1052	5.2550e-01	9.4855	21.997686	0.000329	3.292438	0.557754	-0.006585
1053	5.2600e-01	9.4760	21.983146	0.000145	1.453804	0.246281	-0.002908
1054	5.2650e-01	9.4672	21.957061	0.000261	2.608295	0.441857	-0.005217
1055	5.2700e-01	9.4537	21.930121	0.000269	2.693813	0.456344	-0.005388
1056	5.2750e-01	9.4464	21.902325	0.000278	2.779331	0.470831	-0.005559
1057	5.2800e-01	9.4354	21.879661	0.000227	2.266224	0.383909	-0.004533
1058	5.2850e-01	9.4241	21.851010	0.000286	2.864849	0.485319	-0.005730
1059	5.2900e-01	9.4147	21.825780	0.000252	2.522777	0.427370	-0.005046
1060	5.2950e-01	9.4055	21.806109	0.000197	1.966911	0.333204	-0.003934
1061	5.3000e-01	9.3951	21.776176	0.000299	2.993126	0.507049	-0.005987
1062	5.3050e-01	9.3866	21.748380	0.000278	2.779331	0.470831	-0.005559
1063	5.3100e-01	9.3750	21.725288	0.000231	2.308983	0.391152	-0.004618
1064	5.3150e-01	9.3655	21.709466	0.000158	1.582081	0.268012	-0.003164
1065	5.3200e-01	9.3555	21.674828	0.000346	3.463474	0.586728	-0.006928
1066	5.3250e-01	9.3463	21.641901	0.000329	3.292438	0.557754	-0.006585
1067	5.3300e-01	9.3353	21.632066	0.000098	0.983456	0.166602	-0.001967
1068	5.3350e-01	9.3286	21.588021	0.000440	4.404171	0.746087	-0.008809
1069	5.3400e-01	9.3164	21.577330	0.000107	1.068973	0.181089	-0.002138
1070	5.3450e-01	9.3054	21.543548	0.000338	3.377956	0.572241	-0.006756
1071	5.3500e-01	9.2969	21.522166	0.000214	2.137947	0.362178	-0.004276
1072	5.3550e-01	9.2834	21.488811	0.000334	3.335197	0.564998	-0.006671
1073	5.3600e-01	9.2743	21.470424	0.000184	1.838634	0.311473	-0.003678
1074	5.3650e-01	9.2657	21.431510	0.000389	3.891063	0.659164	-0.007783
1075	5.3700e-01	9.2578	21.413122	0.000184	1.838634	0.311473	-0.003678
1076	5.3750e-01	9.2474	21.390885	0.000222	2.223465	0.376665	-0.004447
1077	5.3800e-01	9.2346	21.361379	0.000295	2.950367	0.499806	-0.005901
1078	5.3850e-01	9.2255	21.338287	0.000231	2.308983	0.391152	-0.004618
1079	5.3900e-01	9.2157	21.311347	0.000269	2.693813	0.456344	-0.005388
1080	5.3950e-01	9.2065	21.283979	0.000274	2.736572	0.463588	-0.005474
1081	5.4000e-01	9.1956	21.257039	0.000269	2.693813	0.456344	-0.005388
1082	5.4050e-01	9.1876	21.230953	0.000261	2.608295	0.441857	-0.005217
1083	5.4100e-01	9.1760	21.199309	0.000316	3.164161	0.536023	-0.006329
1084	5.4150e-01	9.1663	21.177928	0.000214	2.137947	0.362178	-0.004276
1085	5.4200e-01	9.1583	21.149277	0.000286	2.864849	0.485319	-0.005730
1086	5.4250e-01	9.1469	21.121909	0.000274	2.736572	0.463588	-0.005474
1087	5.4300e-01	9.1357	21.098390	0.000235	2.351742	0.398396	-0.004704
1088	5.4350e-01	9.1241	21.071449	0.000269	2.693813	0.456344	-0.005388
1089	5.4400e-01	9.1174	21.042371	0.000291	2.907608	0.492562	-0.005816
1090	5.4450e-01	9.1055	21.008161	0.000342	3.420715	0.579485	-0.006842
1091	5.4500e-01	9.0973	20.987207	0.000210	2.095188	0.354934	-0.004191
1092	5.4550e-01	9.0839	20.969247	0.000180	1.795875	0.304230	-0.003592
1093	5.4600e-01	9.0753	20.934609	0.000346	3.463474	0.586728	-0.006928
1094	5.4650e-01	9.0668	20.910662	0.000239	2.394501	0.405639	-0.004789
1095	5.4700e-01	9.0570	20.873031	0.000376	3.762787	0.637433	-0.007526
1096	5.4750e-01	9.0460	20.853360	0.000197	1.966911	0.333204	-0.003934
1097	5.4800e-01	9.0387	20.819150	0.000342	3.420715	0.579485	-0.006842
1098	5.4850e-01	9.0253	20.793920	0.000252	2.522777	0.427370	-0.005046
1099	5.4900e-01	9.0192	20.769973	0.000239	2.394501	0.405639	-0.004789
1100	5.4950e-01	9.0079	20.741323	0.000286	2.864849	0.485319	-0.005730
1101	5.5000e-01	8.9966	20.723790	0.000175	1.753116	0.296986	-0.003507
1102	5.5050e-01	8.9862	20.683593	0.000402	4.019340	0.680895	-0.008039
1103	5.5100e-01	8.9764	20.654942	0.000286	2.864849	0.485319	-0.005730
1104	5.5150e-01	8.9661	20.639120	0.000158	1.582081	0.268012	-0.003164
1105	5.5200e-01	8.9566	20.596785	0.000423	4.233135	0.717112	-0.008467
1106	5.5250e-01	8.9429	20.577970	0.000188	1.881393	0.318717	-0.003763
1107	5.5300e-01	8.9357	20.550174	0.000278	2.779331	0.470831	-0.005559
1108	5.5350e-01	8.9282	20.515536	0.000346	3.463474	0.586728	-0.006928
1109	5.5400e-01	8.9172	20.492872	0.000227	2.266224	0.383909	-0.004533
1110	5.5450e-01	8.9069	20.461228	0.000316	3.164161	0.536023	-0.006329
1111	5.5500e-01	8.8971	20.425307	0.000359	3.591751	0.608459	-0.007184
1112	5.5550e-01	8.8855	20.402643	0.000227	2.266224	0.383909	-0.004533
1113	5.5600e-01	8.8760	20.379552	0.000231	2.308983	0.391152	-0.004618
1114	5.5650e-01	8.8666	20.349190	0.000304	3.035885	0.514293	-0.006072
1115	5.5700e-01	8.8580	20.316691	0.000325	3.249679	0.550511	-0.006500
1116	5.5750e-01	8.8464	20.296165	0.000205	2.052429	0.347691	-0.004105
1117	5.5800e-01	8.8348	20.266658	0.000295	2.950367	0.499806	-0.005901
1118	5.5850e-01	8.8269	20.252547	0.000141	1.411045	0.239037	-0.002822
1119	5.5900e-01	8.8147	20.212350	0.000402	4.019340	0.680895	-0.008039
1120	5.5950e-01	8.8055	20.179423	0.000329	3.292438	0.557754	-0.006585
1121	5.6000e-01	8.7970	20.152910	0.000265	2.651054	0.449101	-0.005303
1122	5.6050e-01	8.7885	20.122549	0.000304	3.035885	0.514293	-0.006072
1123	5.6100e-01	8.7762	20.095608	0.000269	2.693813	0.456344	-0.005388
1124	5.6150e-01	8.7683	20.062681	0.000329	3.292438	0.557754	-0.006585
1125	5.6200e-01	8.7598	20.037024	0.000257	2.565536	0.434614	-0.005132
1126	5.6250e-01	8.7469	20.010511	0.000265	2.651054	0.449101	-0.005303
1127	5.6300e-01	8.7372	19.974163	0.000363	3.634510	0.615703	-0.007270
1128	5.6350e-01	8.7262	19.952782	0.000214	2.137947	0.362178	-0.004276
1129	5.6400e-01	8.7170	19.922420	0.000304	3.035885	0.514293	-0.006072
1130	5.6450e-01	8.7091	19.897618	0.000248	2.480018	0.420127	-0.004960
1131	5.6500e-01	8.6951	19.868967	0.000286	2.864849	0.485319	-0.005730
1132	5.6550e-01	8.6877	19.839033	0.000299	2.993126	0.507049	-0.005987
1133	5.6600e-01	8.6761	19.815941	0.000231	2.308983	0.391152	-0.004618
1134	5.6650e-01	8.6639	19.779166	0.000368	3.677269	0.622946	-0.007355
1135	5.6700e-01	8.6569	19.752653	0.000265	2.651054	0.449101	-0.005303
1136	5.6750e-01	8.6462	19.727423	0.000252	2.522777	0.427370	-0.005046
1137	5.6800e-01	8.6365	19.690647	0.000368	3.677269	0.622946	-0.007355
1138	5.6850e-01	8.6261	19.668411	0.000222	2.223465	0.376665	-0.004447
1139	5.6900e-01	8.6182	19.628214	0.000402	4.019340	0.680895	-0.008039
1140	5.6950e-01	8.6078	19.600418	0.000278	2.779331	0.470831	-0.005559
1141	5.7000e-01	8.5962	19.572623	0.000278	2.779331	0.470831	-0.005559
1142	5.7050e-01	8.5867	19.546965	0.000257	2.565536	0.434614	-0.005132
1143	5.7100e-01	8.5770	19.523446	0.000235	2.351742	0.398396	-0.004704
1144	5.7150e-01	8.5681	19.482394	0.000410	4.104858	0.695382	-0.008210
1145	5.7200e-01	8.5590	19.450322	0.000321	3.206920	0.543267	-0.006414
1146	5.7250e-01	8.5474	19.435783	0.000145	1.453804	0.246281	-0.002908
1147	5.7300e-01	8.5388	19.394731	0.000410	4.104858	0.695382	-0.008210
1148	5.7350e-01	8.5272	19.367790	0.000269	2.693813	0.456344	-0.005388
1149	5.7400e-01	8.5175	19.335718	0.000321	3.206920	0.543267	-0.006414
1150	5.7450e-01	8.5068	19.307923	0.000278	2.779331	0.470831	-0.005559
1151	5.7500e-01	8.4993	19.277134	0.000308	3.078644	0.521536	-0.006158
1152	5.7550e-01	8.4875	19.241641	0.000355	3.548992	0.601216	-0.007099
1153	5.7600e-01	8.4772	19.222398	0.000192	1.924152	0.325960	-0.003849
1154	5.7650e-01	8.4674	19.190753	0.000316	3.164161	0.536023	-0.006329
1155	5.7700e-01	8.4572	19.163813	0.000269	2.693813	0.456344	-0.005388
1156	5.7750e-01	8.4470	19.132596	0.000312	3.121403	0.528780	-0.006243
1157	5.7800e-01	8.4375	19.104801	0.000278	2.779331	0.470831	-0.005559
1158	5.7850e-01	8.4277	19.073156	0.000316	3.164161	0.536023	-0.006329
1159	5.7900e-01	8.4174	19.043223	0.000299	2.993126	0.507049	-0.005987
1160	5.7950e-01	8.4088	19.008585	0.000346	3.463474	0.586728	-0.006928
1161	5.8000e-01	8.3949	18.988487	0.000201	2.009670	0.340447	-0.004020
1162	5.8050e-01	8.3875	18.947434	0.000410	4.104858	0.695382	-0.008210
1163	5.8100e-01	8.3780	18.914935	0.000325	3.249679	0.550511	-0.006500
1164	5.8150e-01	8.3681	18.889705	0.000252	2.522777	0.427370	-0.005046
1165	5.8200e-01	8.3575	18.862337	0.000274	2.736572	0.463588	-0.005474
1166	5.8250e-01	8.3499	18.836680	0.000257	2.565536	0.434614	-0.005132
1167	5.8300e-01	8.3362	18.805891	0.000308	3.078644	0.521536	-0.006158
1168	5.8350e-01	8.3289	18.772963	0.000329	3.292438	0.557754	-0.006585
1169	5.8400e-01	8.3179	18.746451	0.000265	2.651054	0.449101	-0.005303
1170	5.8450e-01	8.3063	18.725497	0.000210	2.095188	0.354934	-0.004191
1171	5.8500e-01	8.2959	18.679313	0.000462	4.617965	0.782305	-0.009237
1172	5.8550e-01	8.2855	18.656222	0.000231	2.308983	0.391152	-0.004618
1173	5.8600e-01	8.2777	18.619018	0.000372	3.720028	0.630190	-0.007441
1174	5.8650e-01	8.2657	18.587374	0.000316	3.164161	0.536023	-0.006329
1175	5.8700e-01	8.2571	18.554447	0.000329	3.292438	0.557754	-0.006585
1176	5.8750e-01	8.2477	18.530927	0.000235	2.351742	0.398396	-0.004704
1177	5.8800e-01	8.2373	18.499711	0.000312	3.121403	0.528780	-0.006243
1178	5.8850e-01	8.2269	18.471060	0.000286	2.864849	0.485319	-0.005730
1179	5.8900e-01	8.2193	18.437278	0.000338	3.377956	0.572241	-0.006756
1180	5.8950e-01	8.2092	18.408627	0.000286	2.864849	0.485319	-0.005730
1181	5.9000e-01	8.1970	18.374417	0.000342	3.420715	0.579485	-0.006842
1182	5.9050e-01	8.1860	18.344910	0.000295	2.950367	0.499806	-0.005901
1183	5.9100e-01	8.1763	18.309418	0.000355	3.548992	0.601216	-0.007099
1184	5.9150e-01	8.1677	18.288036	0.000214	2.137947	0.362178	-0.004276
1185	5.9200e-01	8.1573	18.256820	0.000312	3.121403	0.528780	-0.006243
1186	5.9250e-01	8.1458	18.227741	0.000291	2.907608	0.492562	-0.005816
1187	5.9300e-01	8.1354	18.193959	0.000338	3.377956	0.572241	-0.006756
1188	5.9350e-01	8.1241	18.171722	0.000222	2.223465	0.376665	-0.004447
1189	5.9400e-01	8.1177	18.131953	0.000398	3.976581	0.673651	-0.007954
1190	5.9450e-01	8.1079	18.100736	0.000312	3.121403	0.528780	-0.006243
1191	5.9500e-01	8.0969	18.062250	0.000385	3.848305	0.651920	-0.007697
1192	5.9550e-01	8.0875	18.043007	0.000192	1.924152	0.325960	-0.003849
1193	5.9600e-01	8.0786	18.007514	0.000355	3.548992	0.601216	-0.007099
1194	5.9650e-01	8.0658	17.966890	0.000406	4.062099	0.688138	-0.008125
1195	5.9700e-01	8.0554	17.951923	0.000150	1.496563	0.253525	-0.002993
1196	5.9750e-01	8.0475	17.911726	0.000402	4.019340	0.680895	-0.008039
1197	5.9800e-01	8.0353	17.891628	0.000201	2.009670	0.340447	-0.004020
1198	5.9850e-01	8.0258	17.864260	0.000274	2.736572	0.463588	-0.005474
1199	5.9900e-01	8.0191	17.822780	0.000415	4.147617	0.702625	-0.008296
1200	5.9950e-01	8.0042	17.798833	0.000239	2.394501	0.405639	-0.004789
1201	6.0000e-01	7.9962	17.759491	0.000393	3.933822	0.666408	-0.007868
1202	6.0050e-01	7.9883	17.734689	0.000248	2.480018	0.420127	-0.004960
1203	6.0100e-01	7.9785	17.689361	0.000453	4.532448	0.767817	-0.009066
1204	6.0150e-01	7.9675	17.669263	0.000201	2.009670	0.340447	-0.004020
1205	6.0200e-01	7.9550	17.643177	0.000261	2.608295	0.441857	-0.005217
1206	6.0250e-01	7.9453	17.604691	0.000385	3.848305	0.651920	-0.007697
1207	6.0300e-01	7.9346	17.576895	0.000278	2.779331	0.470831	-0.005559
1208	6.0350e-01	7.9266	17.542258	0.000346	3.463474	0.586728	-0.006928
1209	6.0400e-01	7.9175	17.516173	0.000261	2.608295	0.441857	-0.005217
1210	6.0450e-01	7.9059	17.478969	0.000372	3.720028	0.630190	-0.007441
1211	6.0500e-01	7.8949	17.452457	0.000265	2.651054	0.449101	-0.005303
1212	6.0550e-01	7.8845	17.419102	0.000334	3.335197	0.564998	-0.006671
1213	6.0600e-01	7.8778	17.383181	0.000359	3.591751	0.608459	-0.007184
1214	6.0650e-01	7.8656	17.357951	0.000252	2.522777	0.427370	-0.005046
1215	6.0700e-01	7.8571	17.318182	0.000398	3.976581	0.673651	-0.007954
1216	6.0750e-01	7.8433	17.292952	0.000252	2.522777	0.427370	-0.005046
1217	6.0800e-01	7.8366	17.270716	0.000222	2.223465	0.376665	-0.004447
1218	6.0850e-01	7.8250	17.231802	0.000389	3.891063	0.659164	-0.007783
1219	6.0900e-01	7.8128	17.203579	0.000282	2.822090	0.478075	-0.005645
1220	6.0950e-01	7.8076	17.164237	0.000393	3.933822	0.666408	-0.007868
1221	6.1000e-01	7.7969	17.137724	0.000265	2.651054	0.449101	-0.005303
1222	6.1050e-01	7.7856	17.110784	0.000269	2.693813	0.456344	-0.005388
1223	6.1100e-01	7.7765	17.071015	0.000398	3.976581	0.673651	-0.007954
1224	6.1150e-01	7.7673	17.033384	0.000376	3.762787	0.637433	-0.007526
1225	6.1200e-01	7.7570	17.009864	0.000235	2.351742	0.398396	-0.004704
1226	6.1250e-01	7.7472	16.978648	0.000312	3.121403	0.528780	-0.006243
1227	6.1300e-01	7.7371	16.952135	0.000265	2.651054	0.449101	-0.005303
1228	6.1350e-01	7.7240	16.919208	0.000329	3.292438	0.557754	-0.006585
1229	6.1400e-01	7.7136	16.887136	0.000321	3.206920	0.543267	-0.006414
1230	6.1450e-01	7.7069	16.849077	0.000381	3.805546	0.644677	-0.007612
1231	6.1500e-01	7.6968	16.814012	0.000351	3.506233	0.593972	-0.007013
1232	6.1550e-01	7.6855	16.790493	0.000235	2.351742	0.398396	-0.004704
1233	6.1600e-01	7.6764	16.756710	0.000338	3.377956	0.572241	-0.006756
1234	6.1650e-01	7.6649	16.723355	0.000334	3.335197	0.564998	-0.006671
1235	6.1700e-01	7.6563	16.696415	0.000269	2.693813	0.456344	-0.005388
1236	6.1750e-01	7.6447	16.656646	0.000398	3.976581	0.673651	-0.007954
1237	6.1800e-01	7.6373	16.624146	0.000325	3.249679	0.550511	-0.006500
1238	6.1850e-01	7.6283	16.595068	0.000291	2.907608	0.492562	-0.005816
1239	6.1900e-01	7.6172	16.559575	0.000355	3.548992	0.601216	-0.007099
1240	6.1950e-01	7.6105	16.525365	0.000342	3.420715	0.579485	-0.006842
1241	6.2000e-01	7.5952	16.503984	0.000214	2.137947	0.362178	-0.004276
1242	6.2050e-01	7.5861	16.477471	0.000265	2.651054	0.449101	-0.005303
1243	6.2100e-01	7.5769	16.434708	0.000428	4.275894	0.724356	-0.008553
1244	6.2150e-01	7.5684	16.401781	0.000329	3.292438	0.557754	-0.006585
1245	6.2200e-01	7.5568	16.366716	0.000351	3.506233	0.593972	-0.007013
1246	6.2250e-01	7.5464	16.340203	0.000265	2.651054	0.449101	-0.005303
1247	6.2300e-01	7.5372	16.309842	0.000304	3.035885	0.514293	-0.006072
1248	6.2350e-01	7.5275	16.265369	0.000445	4.446930	0.753330	-0.008895
1249	6.2400e-01	7.5189	16.242705	0.000227	2.266224	0.383909	-0.004533
1250	6.2450e-01	7.5055	16.211916	0.000308	3.078644	0.521536	-0.006158
1251	6.2500e-01	7.4976	16.174712	0.000372	3.720028	0.630190	-0.007441
1252	6.2550e-01	7.4854	16.149055	0.000257	2.565536	0.434614	-0.005132
1253	6.2600e-01	7.4768	16.113134	0.000359	3.591751	0.608459	-0.007184
1254	6.2650e-01	7.4641	16.080207	0.000329	3.292438	0.557754	-0.006585
1255	6.2700e-01	7.4573	16.046425	0.000338	3.377956	0.572241	-0.006756
1256	6.2750e-01	7.4496	16.015636	0.000308	3.078644	0.521536	-0.006158
1257	6.2800e-01	7.4377	15.978005	0.000376	3.762787	0.637433	-0.007526
1258	6.2850e-01	7.4246	15.942939	0.000351	3.506233	0.593972	-0.007013
1259	6.2900e-01	7.4179	15.918992	0.000239	2.394501	0.405639	-0.004789
1260	6.2950e-01	7.4042	15.887348	0.000316	3.164161	0.536023	-0.006329
1261	6.3000e-01	7.3969	15.853138	0.000342	3.420715	0.579485	-0.006842
1262	6.3050e-01	7.3860	15.820638	0.000325	3.249679	0.550511	-0.006500
1263	6.3100e-01	7.3779	15.785146	0.000355	3.548992	0.601216	-0.007099
1264	6.3150e-01	7.3663	15.753929	0.000312	3.121403	0.528780	-0.006243
1265	6.3200e-01	7.3572	15.724850	0.000291	2.907608	0.492562	-0.005816
1266	6.3250e-01	7.3486	15.686364	0.000385	3.848305	0.651920	-0.007697
1267	6.3300e-01	7.3380	15.648733	0.000376	3.762787	0.637433	-0.007526
1268	6.3350e-01	7.3248	15.619227	0.000295	2.950367	0.499806	-0.005901
1269	6.3400e-01	7.3169	15.589293	0.000299	2.993126	0.507049	-0.005987
1270	6.3450e-01	7.3050	15.560642	0.000286	2.864849	0.485319	-0.005730
1271	6.3500e-01	7.2992	15.523867	0.000368	3.677269	0.622946	-0.007355
1272	6.3550e-01	7.2858	15.483670	0.000402	4.019340	0.680895	-0.008039
1273	6.3600e-01	7.2787	15.453308	0.000304	3.035885	0.514293	-0.006072
1274	6.3650e-01	7.2668	15.420809	0.000325	3.249679	0.550511	-0.006500
1275	6.3700e-01	7.2546	15.393013	0.000278	2.779331	0.470831	-0.005559
1276	6.3750e-01	7.2443	15.361797	0.000312	3.121403	0.528780	-0.006243
1277	6.3800e-01	7.2369	15.319462	0.000423	4.233135	0.717112	-0.008467
1278	6.3850e-01	7.2278	15.294659	0.000248	2.480018	0.420127	-0.004960
1279	6.3900e-01	7.2177	15.255318	0.000393	3.933822	0.666408	-0.007868
1280	6.3950e-01	7.2050	15.220680	0.000346	3.463474	0.586728	-0.006928
1281	6.4000e-01	7.1930	15.189891	0.000308	3.078644	0.521536	-0.006158
1282	6.4050e-01	7.1863	15.160813	0.000291	2.907608	0.492562	-0.005816
1283	6.4100e-01	7.1762	15.131734	0.000291	2.907608	0.492562	-0.005816
1284	6.4150e-01	7.1655	15.088972	0.000428	4.275894	0.724356	-0.008553
1285	6.4200e-01	7.1588	15.054762	0.000342	3.420715	0.579485	-0.006842
1286	6.4250e-01	7.1466	15.031242	0.000235	2.351742	0.398396	-0.004704
1287	6.4300e-01	7.1384	14.989335	0.000419	4.190376	0.709869	-0.008381
1288	6.4350e-01	7.1265	14.953842	0.000355	3.548992	0.601216	-0.007099
1289	6.4400e-01	7.1204	14.922625	0.000312	3.121403	0.528780	-0.006243
1290	6.4450e-01	7.1057	14.896113	0.000265	2.651054	0.449101	-0.005303
1291	6.4500e-01	7.0984	14.855916	0.000402	4.019340	0.680895	-0.008039
1292	6.4550e-01	7.0850	14.826410	0.000295	2.950367	0.499806	-0.005901
1293	6.4600e-01	7.0752	14.795193	0.000312	3.121403	0.528780	-0.006243
1294	6.4650e-01	7.0642	14.759700	0.000355	3.548992	0.601216	-0.007099
1295	6.4700e-01	7.0551	14.723352	0.000363	3.634510	0.615703	-0.007270
1296	6.4750e-01	7.0477	14.692563	0.000308	3.078644	0.521536	-0.006158
1297	6.4800e-01	7.0375	14.662202	0.000304	3.035885	0.514293	-0.006072
1298	6.4850e-01	7.0267	14.616446	0.000458	4.575206	0.775061	-0.009151
1299	6.4900e-01	7.0184	14.583946	0.000325	3.249679	0.550511	-0.006500
1300	6.4950e-01	7.0056	14.551447	0.000325	3.249679	0.550511	-0.006500
1301	6.5000e-01	6.9952	14.529210	0.000222	2.223465	0.376665	-0.004447
1302	6.5050e-01	6.9882	14.481316	0.000479	4.789001	0.811279	-0.009579
1303	6.5100e-01	6.9781	14.450955	0.000304	3.035885	0.514293	-0.006072
1304	6.5150e-01	6.9684	14.413751	0.000372	3.720028	0.630190	-0.007441
1305	6.5200e-01	6.9568	14.381679	0.000321	3.206920	0.543267	-0.006414
1306	6.5250e-01	6.9495	14.354311	0.000274	2.736572	0.463588	-0.005474
1307	6.5300e-01	6.9385	14.316680	0.000376	3.762787	0.637433	-0.007526
1308	6.5350e-01	6.9276	14.273063	0.000436	4.361412	0.738843	-0.008724
1309	6.5400e-01	6.9125	14.252964	0.000201	2.009670	0.340447	-0.004020
1310	6.5450e-01	6.9067	14.212767	0.000402	4.019340	0.680895	-0.008039
1311	6.5500e-01	6.8958	14.180268	0.000325	3.249679	0.550511	-0.006500
1312	6.5550e-01	6.8839	14.143920	0.000363	3.634510	0.615703	-0.007270
1313	6.5600e-01	6.8781	14.107999	0.000359	3.591751	0.608459	-0.007184
1314	6.5650e-01	6.8678	14.077210	0.000308	3.078644	0.521536	-0.006158
1315	6.5700e-01	6.8570	14.033165	0.000440	4.404171	0.746087	-0.008809
1316	6.5750e-01	6.8457	14.007507	0.000257	2.565536	0.434614	-0.005132
1317	6.5800e-01	6.8338	13.978001	0.000295	2.950367	0.499806	-0.005901
1318	6.5850e-01	6.8259	13.936522	0.000415	4.147617	0.702625	-0.008296
1319	6.5900e-01	6.8158	13.905305	0.000312	3.121403	0.528780	-0.006243
1320	6.5950e-01	6.8066	13.871522	0.000338	3.377956	0.572241	-0.006756
1321	6.6000e-01	6.7972	13.838595	0.000329	3.292438	0.557754	-0.006585
1322	6.6050e-01	6.7841	13.805241	0.000334	3.335197	0.564998	-0.006671
1323	6.6100e-01	6.7773	13.769748	0.000355	3.548992	0.601216	-0.007099
1324	6.6150e-01	6.7667	13.732117	0.000376	3.762787	0.637433	-0.007526
1325	6.6200e-01	6.7606	13.700045	0.000321	3.206920	0.543267	-0.006414
1326	6.6250e-01	6.7450	13.675670	0.000244	2.437260	0.412883	-0.004875
1327	6.6300e-01	6.7371	13.637611	0.000381	3.805546	0.644677	-0.007612
1328	6.6350e-01	6.7203	13.597415	0.000402	4.019340	0.680895	-0.008039
1329	6.6400e-01	6.7178	13.559356	0.000381	3.805546	0.644677	-0.007612
1330	6.6450e-01	6.7041	13.524291	0.000351	3.506233	0.593972	-0.007013
1331	6.6500e-01	6.6953	13.494357	0.000299	2.993126	0.507049	-0.005987
1332	6.6550e-01	6.6864	13.453305	0.000410	4.104858	0.695382	-0.008210
1333	6.6600e-01	6.6760	13.425509	0.000278	2.779331	0.470831	-0.005559
1334	6.6650e-01	6.6663	13.384885	0.000406	4.062099	0.688138	-0.008125
1335	6.6700e-01	6.6559	13.353668	0.000312	3.121403	0.528780	-0.006243
1336	6.6750e-01	6.6461	13.322024	0.000316	3.164161	0.536023	-0.006329
1337	6.6800e-01	6.6370	13.271992	0.000500	5.002796	0.847497	-0.010006
1338	6.6850e-01	6.6284	13.247617	0.000244	2.437260	0.412883	-0.004875
1339	6.6900e-01	6.6162	13.209131	0.000385	3.848305	0.651920	-0.007697
1340	6.6950e-01	6.6064	13.170217	0.000389	3.891063	0.659164	-0.007783
1341	6.7000e-01	6.5948	13.144987	0.000252	2.522777	0.427370	-0.005046
1342	6.7050e-01	6.5863	13.115481	0.000295	2.950367	0.499806	-0.005901
1343	6.7100e-01	6.5771	13.071008	0.000445	4.446930	0.753330	-0.008895
1344	6.7150e-01	6.5656	13.029528	0.000415	4.147617	0.702625	-0.008296
1345	6.7200e-01	6.5549	13.002588	0.000269	2.693813	0.456344	-0.005388
1346	6.7250e-01	6.5451	12.974792	0.000278	2.779331	0.470831	-0.005559
1347	6.7300e-01	6.5375	12.931174	0.000436	4.361412	0.738843	-0.008724
1348	6.7350e-01	6.5247	12.904234	0.000269	2.693813	0.456344	-0.005388
1349	6.7400e-01	6.5186	12.858906	0.000453	4.532448	0.767817	-0.009066
1350	6.7450e-01	6.5089	12.822130	0.000368	3.677269	0.622946	-0.007355
1351	6.7500e-01	6.4981	12.792196	0.000299	2.993126	0.507049	-0.005987
1352	6.7550e-01	6.4874	12.755848	0.000363	3.634510	0.615703	-0.007270
1353	6.7600e-01	6.4764	12.715651	0.000402	4.019340	0.680895	-0.008039
1354	6.7650e-01	6.4661	12.686145	0.000295	2.950367	0.499806	-0.005901
1355	6.7700e-01	6.4569	12.652790	0.000334	3.335197	0.564998	-0.006671
1356	6.7750e-01	6.4459	12.618580	0.000342	3.420715	0.579485	-0.006842
1357	6.7800e-01	6.4340	12.581805	0.000368	3.677269	0.622946	-0.007355
1358	6.7850e-01	6.4282	12.544174	0.000376	3.762787	0.637433	-0.007526
1359	6.7900e-01	6.4163	12.506543	0.000376	3.762787	0.637433	-0.007526
1360	6.7950e-01	6.4056	12.468056	0.000385	3.848305	0.651920	-0.007697
1361	6.8000e-01	6.3965	12.438123	0.000299	2.993126	0.507049	-0.005987
1362	6.8050e-01	6.3885	12.397498	0.000406	4.062099	0.688138	-0.008125
1363	6.8100e-01	6.3763	12.367137	0.000304	3.035885	0.514293	-0.006072
1364	6.8150e-01	6.3672	12.330361	0.000368	3.677269	0.622946	-0.007355
1365	6.8200e-01	6.3580	12.290592	0.000398	3.976581	0.673651	-0.007954
1366	6.8250e-01	6.3474	12.260230	0.000304	3.035885	0.514293	-0.006072
1367	6.8300e-01	6.3379	12.225165	0.000351	3.506233	0.593972	-0.007013
1368	6.8350e-01	6.3269	12.189245	0.000359	3.591751	0.608459	-0.007184
1369	6.8400e-01	6.3202	12.151614	0.000376	3.762787	0.637433	-0.007526
1370	6.8450e-01	6.3062	12.117404	0.000342	3.420715	0.579485	-0.006842
1371	6.8500e-01	6.2964	12.079773	0.000376	3.762787	0.637433	-0.007526
1372	6.8550e-01	6.2878	12.046418	0.000334	3.335197	0.564998	-0.006671
1373	6.8600e-01	6.2769	12.007504	0.000389	3.891063	0.659164	-0.007783
1374	6.8650e-01	6.2646	11.970728	0.000368	3.677269	0.622946	-0.007355
1375	6.8700e-01	6.2573	11.936090	0.000346	3.463474	0.586728	-0.006928
1376	6.8750e-01	6.2485	11.901453	0.000346	3.463474	0.586728	-0.006928
1377	6.8800e-01	6.2390	11.855697	0.000458	4.575206	0.775061	-0.009151
1378	6.8850e-01	6.2250	11.829184	0.000265	2.651054	0.449101	-0.005303
1379	6.8900e-01	6.2177	11.795402	0.000338	3.377956	0.572241	-0.006756
1380	6.8950e-01	6.2061	11.763330	0.000321	3.206920	0.543267	-0.006414
1381	6.9000e-01	6.1971	11.715863	0.000475	4.746242	0.804035	-0.009493
1382	6.9050e-01	6.1870	11.682936	0.000329	3.292438	0.557754	-0.006585
1383	6.9100e-01	6.1739	11.651292	0.000316	3.164161	0.536023	-0.006329
1384	6.9150e-01	6.1665	11.612378	0.000389	3.891063	0.659164	-0.007783
1385	6.9200e-01	6.1591	11.575175	0.000372	3.720028	0.630190	-0.007441
1386	6.9250e-01	6.1508	11.534978	0.000402	4.019340	0.680895	-0.008039
1387	6.9300e-01	6.1354	11.505044	0.000299	2.993126	0.507049	-0.005987
1388	6.9350e-01	6.1310	11.475966	0.000291	2.907608	0.492562	-0.005816
1389	6.9400e-01	6.1182	11.434058	0.000419	4.190376	0.709869	-0.008381
1390	6.9450e-01	6.1087	11.381888	0.000522	5.216591	0.883714	-0.010434
1391	6.9500e-01	6.0992	11.354948	0.000269	2.693813	0.456344	-0.005388
1392	6.9550e-01	6.0883	11.329290	0.000257	2.565536	0.434614	-0.005132
1393	6.9600e-01	6.0773	11.280113	0.000492	4.917278	0.833009	-0.009835
1394	6.9650e-01	6.0645	11.246759	0.000334	3.335197	0.564998	-0.006671
1395	6.9700e-01	6.0562	11.223239	0.000235	2.351742	0.398396	-0.004704
1396	6.9750e-01	6.0474	11.162944	0.000603	6.029010	1.021342	-0.012059
1397	6.9800e-01	6.0382	11.138142	0.000248	2.480018	0.420127	-0.004960
1398	6.9850e-01	6.0263	11.101366	0.000368	3.677269	0.622946	-0.007355
1399	6.9900e-01	6.0184	11.058603	0.000428	4.275894	0.724356	-0.008553
1400	6.9950e-01	6.0077	11.026959	0.000316	3.164161	0.536023	-0.006329
1401	7.0000e-01	5.9975	10.985052	0.000419	4.190376	0.709869	-0.008381
1402	7.0050e-01	5.9828	10.955546	0.000295	2.950367	0.499806	-0.005901
1403	7.0100e-01	5.9741	10.917487	0.000381	3.805546	0.644677	-0.007612
1404	7.0150e-01	5.9682	10.873442	0.000440	4.404171	0.746087	-0.008809
1405	7.0200e-01	5.9576	10.849067	0.000244	2.437260	0.412883	-0.004875
1406	7.0250e-01	5.9451	10.808015	0.000410	4.104858	0.695382	-0.008210
1407	7.0300e-01	5.9351	10.772522	0.000355	3.548992	0.601216	-0.007099
1408	7.0350e-01	5.9279	10.736174	0.000363	3.634510	0.615703	-0.007270
1409	7.0400e-01	5.9186	10.697688	0.000385	3.848305	0.651920	-0.007697
1410	7.0450e-01	5.9125	10.654498	0.000432	4.318653	0.731600	-0.008638
1411	7.0500e-01	5.8955	10.613018	0.000415	4.147617	0.702625	-0.008296
1412	7.0550e-01	5.8881	10.586505	0.000265	2.651054	0.449101	-0.005303
1413	7.0600e-01	5.8759	10.550585	0.000359	3.591751	0.608459	-0.007184
1414	7.0650e-01	5.8667	10.515092	0.000355	3.548992	0.601216	-0.007099
1415	7.0700e-01	5.8582	10.476605	0.000385	3.848305	0.651920	-0.007697
1416	7.0750e-01	5.8466	10.437692	0.000389	3.891063	0.659164	-0.007783
1417	7.0800e-01	5.8371	10.397922	0.000398	3.976581	0.673651	-0.007954
1418	7.0850e-01	5.8243	10.351739	0.000462	4.617965	0.782305	-0.009237
1419	7.0900e-01	5.8179	10.321377	0.000304	3.035885	0.514293	-0.006072
1420	7.0950e-01	5.8046	10.279898	0.000415	4.147617	0.702625	-0.008296
1421	7.1000e-01	5.7959	10.234142	0.000458	4.575206	0.775061	-0.009151
1422	7.1050e-01	5.7892	10.202925	0.000312	3.121403	0.528780	-0.006243
1423	7.1100e-01	5.7770	10.169143	0.000338	3.377956	0.572241	-0.006756
1424	7.1150e-01	5.7635	10.138354	0.000308	3.078644	0.521536	-0.006158
1425	7.1200e-01	5.7550	10.093026	0.000453	4.532448	0.767817	-0.009066
1426	7.1250e-01	5.7455	10.066513	0.000265	2.651054	0.449101	-0.005303
1427	7.1300e-01	5.7336	10.022467	0.000440	4.404171	0.746087	-0.008809
1428	7.1350e-01	5.7291	9.982698	0.000398	3.976581	0.673651	-0.007954
1429	7.1400e-01	5.7178	9.947205	0.000355	3.548992	0.601216	-0.007099
1430	7.1450e-01	5.7080	9.906581	0.000406	4.062099	0.688138	-0.008125
1431	7.1500e-01	5.6983	9.874081	0.000325	3.249679	0.550511	-0.006500
1432	7.1550e-01	5.6862	9.830891	0.000432	4.318653	0.731600	-0.008638
1433	7.1600e-01	5.6793	9.792405	0.000385	3.848305	0.651920	-0.007697
1434	7.1650e-01	5.6622	9.757767	0.000346	3.463474	0.586728	-0.006928
1435	7.1700e-01	5.6549	9.710301	0.000475	4.746242	0.804035	-0.009493
1436	7.1750e-01	5.6464	9.683361	0.000269	2.693813	0.456344	-0.005388
1437	7.1800e-01	5.6348	9.644874	0.000385	3.848305	0.651920	-0.007697
1438	7.1850e-01	5.6229	9.608526	0.000363	3.634510	0.615703	-0.007270
1439	7.1900e-01	5.6171	9.570895	0.000376	3.762787	0.637433	-0.007526
1440	7.1950e-01	5.6079	9.529843	0.000410	4.104858	0.695382	-0.008210
1441	7.2000e-01	5.5963	9.488363	0.000415	4.147617	0.702625	-0.008296
1442	7.2050e-01	5.5862	9.456719	0.000316	3.164161	0.536023	-0.006329
1443	7.2100e-01	5.5771	9.413957	0.000428	4.275894	0.724356	-0.008553
1444	7.2150e-01	5.5658	9.369484	0.000445	4.446930	0.753330	-0.008895
1445	7.2200e-01	5.5615	9.334846	0.000346	3.463474	0.586728	-0.006928
1446	7.2250e-01	5.5481	9.295504	0.000393	3.933822	0.666408	-0.007868
1447	7.2300e-01	5.5366	9.265998	0.000295	2.950367	0.499806	-0.005901
1448	7.2350e-01	5.5273	9.221098	0.000449	4.489689	0.760574	-0.008980
1449	7.2400e-01	5.5162	9.187315	0.000338	3.377956	0.572241	-0.006756
1450	7.2450e-01	5.5072	9.138994	0.000483	4.831760	0.818522	-0.009664
1451	7.2500e-01	5.4980	9.110770	0.000282	2.822090	0.478075	-0.005645
1452	7.2550e-01	5.4855	9.069718	0.000410	4.104858	0.695382	-0.008210
1453	7.2600e-01	5.4749	9.034653	0.000351	3.506233	0.593972	-0.007013
1454	7.2650e-01	5.4664	8.995739	0.000389	3.891063	0.659164	-0.007783
1455	7.2700e-01	5.4567	8.958536	0.000372	3.720028	0.630190	-0.007441
1456	7.2750e-01	5.4434	8.914918	0.000436	4.361412	0.738843	-0.008724
1457	7.2800e-01	5.4358	8.877715	0.000372	3.720028	0.630190	-0.007441
1458	7.2850e-01	5.4266	8.836662	0.000410	4.104858	0.695382	-0.008210
1459	7.2900e-01	5.4156	8.794755	0.000419	4.190376	0.709869	-0.008381
1460	7.2950e-01	5.4080	8.755414	0.000393	3.933822	0.666408	-0.007868
1461	7.3000e-01	5.3973	8.725480	0.000299	2.993126	0.507049	-0.005987
1462	7.3050e-01	5.3873	8.678869	0.000466	4.660724	0.789548	-0.009322
1463	7.3100e-01	5.3769	8.642948	0.000359	3.591751	0.608459	-0.007184
1464	7.3150e-01	5.3653	8.606172	0.000368	3.677269	0.622946	-0.007355
1465	7.3200e-01	5.3574	8.570252	0.000359	3.591751	0.608459	-0.007184
1466	7.3250e-01	5.3442	8.525779	0.000445	4.446930	0.753330	-0.008895
1467	7.3300e-01	5.3375	8.491569	0.000342	3.420715	0.579485	-0.006842
1468	7.3350e-01	5.3278	8.443675	0.000479	4.789001	0.811279	-0.009579
1469	7.3400e-01	5.3168	8.406899	0.000368	3.677269	0.622946	-0.007355
1470	7.3450e-01	5.3076	8.376110	0.000308	3.078644	0.521536	-0.006158
1471	7.3500e-01	5.2979	8.336341	0.000398	3.976581	0.673651	-0.007954
1472	7.3550e-01	5.2866	8.291440	0.000449	4.489689	0.760574	-0.008980
1473	7.3600e-01	5.2783	8.248678	0.000428	4.275894	0.724356	-0.008553
1474	7.3650e-01	5.2689	8.210619	0.000381	3.805546	0.644677	-0.007612
1475	7.3700e-01	5.2542	8.175126	0.000355	3.548992	0.601216	-0.007099
1476	7.3750e-01	5.2515	8.133219	0.000419	4.190376	0.709869	-0.008381
1477	7.3800e-01	5.2384	8.093877	0.000393	3.933822	0.666408	-0.007868
1478	7.3850e-01	5.2283	8.056246	0.000376	3.762787	0.637433	-0.007526
1479	7.3900e-01	5.2188	8.016477	0.000398	3.976581	0.673651	-0.007954
1480	7.3950e-01	5.2100	7.974570	0.000419	4.190376	0.709869	-0.008381
1481	7.4000e-01	5.1984	7.939505	0.000351	3.506233	0.593972	-0.007013
1482	7.4050e-01	5.1843	7.899736	0.000398	3.976581	0.673651	-0.007954
1483	7.4100e-01	5.1740	7.863815	0.000359	3.591751	0.608459	-0.007184
1484	7.4150e-01	5.1660	7.830033	0.000338	3.377956	0.572241	-0.006756
1485	7.4200e-01	5.1587	7.779145	0.000509	5.088314	0.861984	-0.010177
1486	7.4250e-01	5.1495	7.736810	0.000423	4.233135	0.717112	-0.008467
1487	7.4300e-01	5.1346	7.699179	0.000376	3.762787	0.637433	-0.007526
1488	7.4350e-01	5.1263	7.662403	0.000368	3.677269	0.622946	-0.007355
1489	7.4400e-01	5.1181	7.622634	0.000398	3.976581	0.673651	-0.007954
1490	7.4450e-01	5.1088	7.579017	0.000436	4.361412	0.738843	-0.008724
1491	7.4500e-01	5.0958	7.534116	0.000449	4.489689	0.760574	-0.008980
1492	7.4550e-01	5.0851	7.496485	0.000376	3.762787	0.637433	-0.007526
1493	7.4600e-01	5.0766	7.454578	0.000419	4.190376	0.709869	-0.008381
1494	7.4650e-01	5.0656	7.416091	0.000385	3.848305	0.651920	-0.007697
1495	7.4700e-01	5.0565	7.374184	0.000419	4.190376	0.709869	-0.008381
1496	7.4750e-01	5.0439	7.340829	0.000334	3.335197	0.564998	-0.006671
1497	7.4800e-01	5.0342	7.295929	0.000449	4.489689	0.760574	-0.008980
1498	7.4850e-01	5.0275	7.263857	0.000321	3.206920	0.543267	-0.006414
1499	7.4900e-01	5.0171	7.217673	0.000462	4.617965	0.782305	-0.009237
1500	7.4950e-01	5.0079	7.174911	0.000428	4.275894	0.724356	-0.008553
1501	7.5000e-01	4.9957	7.139418	0.000355	3.548992	0.601216	-0.007099
1502	7.5050e-01	4.9872	7.106918	0.000325	3.249679	0.550511	-0.006500
1503	7.5100e-01	4.9762	7.063728	0.000432	4.318653	0.731600	-0.008638
1504	7.5150e-01	4.9664	7.021821	0.000419	4.190376	0.709869	-0.008381
1505	7.5200e-01	4.9561	6.982907	0.000389	3.891063	0.659164	-0.007783
1506	7.5250e-01	4.9451	6.951263	0.000316	3.164161	0.536023	-0.006329
1507	7.5300e-01	4.9371	6.896954	0.000543	5.430385	0.919932	-0.010862
1508	7.5350e-01	4.9243	6.867876	0.000291	2.907608	0.492562	-0.005816
1509	7.5400e-01	4.9177	6.813567	0.000543	5.430385	0.919932	-0.010862
1510	7.5450e-01	4.9069	6.773371	0.000402	4.019340	0.680895	-0.008039
1511	7.5500e-01	4.8965	6.740016	0.000334	3.335197	0.564998	-0.006671
1512	7.5550e-01	4.8865	6.698108	0.000419	4.190376	0.709869	-0.008381
1513	7.5600e-01	4.8743	6.658339	0.000398	3.976581	0.673651	-0.007954
1514	7.5650e-01	4.8666	6.616432	0.000419	4.190376	0.709869	-0.008381
1515	7.5700e-01	4.8572	6.569821	0.000466	4.660724	0.789548	-0.009322
1516	7.5750e-01	4.8492	6.530052	0.000398	3.976581	0.673651	-0.007954
1517	7.5800e-01	4.8367	6.491993	0.000381	3.805546	0.644677	-0.007612
1518	7.5850e-01	4.8267	6.460349	0.000316	3.164161	0.536023	-0.006329
1519	7.5900e-01	4.8175	6.404758	0.000556	5.558662	0.941663	-0.011118
1520	7.5950e-01	4.8083	6.367982	0.000368	3.677269	0.622946	-0.007355
1521	7.6000e-01	4.7968	6.328640	0.000393	3.933822	0.666408	-0.007868
1522	7.6050e-01	4.7861	6.280746	0.000479	4.789001	0.811279	-0.009579
1523	7.6100e-01	4.7757	6.251668	0.000291	2.907608	0.492562	-0.005816
1524	7.6150e-01	4.7675	6.204629	0.000470	4.703483	0.796792	-0.009408
1525	7.6200e-01	4.7562	6.168708	0.000359	3.591751	0.608459	-0.007184
1526	7.6250e-01	4.7452	6.121670	0.000470	4.703483	0.796792	-0.009408
1527	7.6300e-01	4.7375	6.086177	0.000355	3.548992	0.601216	-0.007099
1528	7.6350e-01	4.7267	6.039566	0.000466	4.660724	0.789548	-0.009322
1529	7.6400e-01	4.7198	5.989961	0.000496	4.960037	0.840253	-0.009921
1530	7.6450e-01	4.7086	5.942495	0.000475	4.746242	0.804035	-0.009493
1531	7.6500e-01	4.6970	5.909995	0.000325	3.249679	0.550511	-0.006500
1532	7.6550e-01	4.6875	5.871509	0.000385	3.848305	0.651920	-0.007697
1533	7.6600e-01	4.6793	5.838582	0.000329	3.292438	0.557754	-0.006585
1534	7.6650e-01	4.6683	5.785129	0.000534	5.344867	0.905445	-0.010691
1535	7.6700e-01	4.6576	5.745787	0.000393	3.933822	0.666408	-0.007868
1536	7.6750e-01	4.6451	5.705163	0.000406	4.062099	0.688138	-0.008125
1537	7.6800e-01	4.6381	5.656841	0.000483	4.831760	0.818522	-0.009664
1538	7.6850e-01	4.6259	5.627335	0.000295	2.950367	0.499806	-0.005901
1539	7.6900e-01	4.6164	5.583289	0.000440	4.404171	0.746087	-0.008809
1540	7.6950e-01	4.6045	5.546086	0.000372	3.720028	0.630190	-0.007441
1541	7.7000e-01	4.5987	5.503751	0.000423	4.233135	0.717112	-0.008467
1542	7.7050e-01	4.5877	5.458423	0.000453	4.532448	0.767817	-0.009066
1543	7.7100e-01	4.5787	5.413522	0.000449	4.489689	0.760574	-0.008980
1544	7.7150e-01	4.5654	5.378885	0.000346	3.463474	0.586728	-0.006928
1545	7.7200e-01	4.5575	5.326287	0.000526	5.259349	0.890958	-0.010520
1546	7.7250e-01	4.5477	5.283096	0.000432	4.318653	0.731600	-0.008638
1547	7.7300e-01	4.5404	5.251025	0.000321	3.206920	0.543267	-0.006414
1548	7.7350e-01	4.5251	5.199282	0.000517	5.173832	0.876471	-0.010349
1549	7.7400e-01	4.5193	5.162079	0.000372	3.720028	0.630190	-0.007441
1550	7.7450e-01	4.5087	5.121454	0.000406	4.062099	0.688138	-0.008125
1551	7.7500e-01	4.4977	5.076981	0.000445	4.446930	0.753330	-0.008895
1552	7.7550e-01	4.4858	5.034646	0.000423	4.233135	0.717112	-0.008467
1553	7.7600e-01	4.4775	4.985897	0.000487	4.874519	0.825766	-0.009750
1554	7.7650e-01	4.4672	4.952970	0.000329	3.292438	0.557754	-0.006585
1555	7.7700e-01	4.4550	4.910207	0.000428	4.275894	0.724356	-0.008553
1556	7.7750e-01	4.4489	4.867872	0.000423	4.233135	0.717112	-0.008467
1557	7.7800e-01	4.4379	4.817413	0.000505	5.045555	0.854740	-0.010092
1558	7.7850e-01	4.4269	4.773367	0.000440	4.404171	0.746087	-0.008809
1559	7.7900e-01	4.4177	4.737874	0.000355	3.548992	0.601216	-0.007099
1560	7.7950e-01	4.4055	4.702809	0.000351	3.506233	0.593972	-0.007013
1561	7.8000e-01	4.3976	4.642086	0.000607	6.071769	1.028586	-0.012145
1562	7.8050e-01	4.3872	4.604455	0.000376	3.762787	0.637433	-0.007526
1563	7.8100e-01	4.3781	4.563403	0.000410	4.104858	0.695382	-0.008210
1564	7.8150e-01	4.3668	4.526627	0.000368	3.677269	0.622946	-0.007355
1565	7.8200e-01	4.3579	4.478306	0.000483	4.831760	0.818522	-0.009664
1566	7.8250e-01	4.3460	4.446234	0.000321	3.206920	0.543267	-0.006414
1567	7.8300e-01	4.3365	4.392781	0.000534	5.344867	0.905445	-0.010691
1568	7.8350e-01	4.3271	4.353011	0.000398	3.976581	0.673651	-0.007954
1569	7.8400e-01	4.3176	4.312815	0.000402	4.019340	0.680895	-0.008039
1570	7.8450e-01	4.3060	4.276039	0.000368	3.677269	0.622946	-0.007355
1571	7.8500e-01	4.2957	4.221303	0.000547	5.473144	0.927176	-0.010947
1572	7.8550e-01	4.2899	4.175119	0.000462	4.617965	0.782305	-0.009237
1573	7.8600e-01	4.2776	4.141765	0.000334	3.335197	0.564998	-0.006671
1574	7.8650e-01	4.2676	4.099857	0.000419	4.190376	0.709869	-0.008381
1575	7.8700e-01	4.2578	4.047687	0.000522	5.216591	0.883714	-0.010434
1576	7.8750e-01	4.2462	4.014332	0.000334	3.335197	0.564998	-0.006671
1577	7.8800e-01	4.2374	3.967721	0.000466	4.660724	0.789548	-0.009322
1578	7.8850e-01	4.2279	3.926669	0.000410	4.104858	0.695382	-0.008210
1579	7.8900e-01	4.2168	3.876637	0.000500	5.002796	0.847497	-0.010006
1580	7.8950e-01	4.2084	3.835585	0.000410	4.104858	0.695382	-0.008210
1581	7.9000e-01	4.1968	3.790684	0.000449	4.489689	0.760574	-0.008980
1582	7.9050e-01	4.1870	3.749205	0.000415	4.147617	0.702625	-0.008296
1583	7.9100e-01	4.1780	3.706870	0.000423	4.233135	0.717112	-0.008467
1584	7.9150e-01	4.1675	3.660259	0.000466	4.660724	0.789548	-0.009322
1585	7.9200e-01	4.1576	3.618351	0.000419	4.190376	0.709869	-0.008381
1586	7.9250e-01	4.1443	3.576444	0.000419	4.190376	0.709869	-0.008381
1587	7.9300e-01	4.1382	3.531971	0.000445	4.446930	0.753330	-0.008895
1588	7.9350e-01	4.1281	3.482366	0.000496	4.960037	0.840253	-0.009921
1589	7.9400e-01	4.1139	3.451150	0.000312	3.121403	0.528780	-0.006243
1590	7.9450e-01	4.1077	3.398979	0.000522	5.216591	0.883714	-0.010434
1591	7.9500e-01	4.1010	3.347664	0.000513	5.131073	0.869227	-0.010263
1592	7.9550e-01	4.0866	3.304474	0.000432	4.318653	0.731600	-0.008638
1593	7.9600e-01	4.0750	3.260857	0.000436	4.361412	0.738843	-0.008724
1594	7.9650e-01	4.0659	3.221943	0.000389	3.891063	0.659164	-0.007783
1595	7.9700e-01	4.0573	3.180035	0.000419	4.190376	0.709869	-0.008381
1596	7.9750e-01	4.0454	3.124016	0.000560	5.601421	0.948906	-0.011204
1597	7.9800e-01	4.0361	3.087668	0.000363	3.634510	0.615703	-0.007270
1598	7.9850e-01	4.0259	3.047472	0.000402	4.019340	0.680895	-0.008039
1599	7.9900e-01	4.0167	2.991880	0.000556	5.558662	0.941663	-0.011118
1600	7.9950e-01	4.0045	2.959808	0.000321	3.206920	0.543267	-0.006414
1601	8.0000e-01	3.9967	2.915335	0.000445	4.446930	0.753330	-0.008895
1602	8.0050e-01	3.9854	2.862310	0.000530	5.302108	0.898201	-0.010605
1603	8.0100e-01	3.9737	2.830666	0.000316	3.164161	0.536023	-0.006329
1604	8.0150e-01	3.9662	2.780633	0.000500	5.002796	0.847497	-0.010006
1605	8.0200e-01	3.9545	2.741292	0.000393	3.933822	0.666408	-0.007868
1606	8.0250e-01	3.9465	2.684418	0.000569	5.686939	0.963394	-0.011375
1607	8.0300e-01	3.9362	2.651918	0.000325	3.249679	0.550511	-0.006500
1608	8.0350e-01	3.9268	2.605307	0.000466	4.660724	0.789548	-0.009322
1609	8.0400e-01	3.9157	2.555702	0.000496	4.960037	0.840253	-0.009921
1610	8.0450e-01	3.9056	2.512940	0.000428	4.275894	0.724356	-0.008553
1611	8.0500e-01	3.8965	2.462480	0.000505	5.045555	0.854740	-0.010092
1612	8.0550e-01	3.8849	2.423139	0.000393	3.933822	0.666408	-0.007868
1613	8.0600e-01	3.8763	2.371396	0.000517	5.173832	0.876471	-0.010349
1614	8.0650e-01	3.8672	2.330772	0.000406	4.062099	0.688138	-0.008125
1615	8.0700e-01	3.8560	2.291858	0.000389	3.891063	0.659164	-0.007783
1616	8.0750e-01	3.8466	2.240115	0.000517	5.173832	0.876471	-0.010349
1617	8.0800e-01	3.8368	2.198208	0.000419	4.190376	0.709869	-0.008381
1618	8.0850e-01	3.8300	2.144755	0.000534	5.344867	0.905445	-0.010691
1619	8.0900e-01	3.8177	2.102420	0.000423	4.233135	0.717112	-0.008467
1620	8.0950e-01	3.8031	2.057091	0.000453	4.532448	0.767817	-0.009066
1621	8.1000e-01	3.7976	2.021598	0.000355	3.548992	0.601216	-0.007099
1622	8.1050e-01	3.7881	1.971566	0.000500	5.002796	0.847497	-0.010006
1623	8.1100e-01	3.7769	1.922817	0.000487	4.874519	0.825766	-0.009750
1624	8.1150e-01	3.7671	1.885186	0.000376	3.762787	0.637433	-0.007526
1625	8.1200e-01	3.7561	1.841996	0.000432	4.318653	0.731600	-0.008638
1626	8.1250e-01	3.7466	1.788115	0.000539	5.387626	0.912689	-0.010776
1627	8.1300e-01	3.7357	1.751767	0.000363	3.634510	0.615703	-0.007270
1628	8.1350e-01	3.7263	1.697459	0.000543	5.430385	0.919932	-0.010862
1629	8.1400e-01	3.7204	1.664959	0.000325	3.249679	0.550511	-0.006500
1630	8.1450e-01	3.7088	1.611506	0.000534	5.344867	0.905445	-0.010691
1631	8.1500e-01	3.6972	1.562329	0.000492	4.917278	0.833009	-0.009835
1632	8.1550e-01	3.6890	1.522560	0.000398	3.976581	0.673651	-0.007954
1633	8.1600e-01	3.6748	1.472100	0.000505	5.045555	0.854740	-0.010092
1634	8.1650e-01	3.6670	1.419930	0.000522	5.216591	0.883714	-0.010434
1635	8.1700e-01	3.6554	1.388285	0.000316	3.164161	0.536023	-0.006329
1636	8.1750e-01	3.6462	1.338253	0.000500	5.002796	0.847497	-0.010006
1637	8.1800e-01	3.6395	1.284373	0.000539	5.387626	0.912689	-0.010776
1638	8.1850e-01	3.6255	1.244603	0.000398	3.976581	0.673651	-0.007954
1639	8.1900e-01	3.6177	1.200130	0.000445	4.446930	0.753330	-0.008895
1640	8.1950e-01	3.6075	1.139408	0.000607	6.071769	1.028586	-0.012145
1641	8.2000e-01	3.5971	1.098356	0.000410	4.104858	0.695382	-0.008210
1642	8.2050e-01	3.5876	1.061152	0.000372	3.720028	0.630190	-0.007441
1643	8.2100e-01	3.5773	1.008554	0.000526	5.259349	0.890958	-0.010520
1644	8.2150e-01	3.5681	0.962798	0.000458	4.575206	0.775061	-0.009151
1645	8.2200e-01	3.5537	0.919608	0.000432	4.318653	0.731600	-0.008638
1646	8.2250e-01	3.5458	0.870859	0.000487	4.874519	0.825766	-0.009750
1647	8.2300e-01	3.5373	0.828096	0.000428	4.275894	0.724356	-0.008553
1648	8.2350e-01	3.5260	0.780630	0.000475	4.746242	0.804035	-0.009493
1649	8.2400e-01	3.5146	0.735302	0.000453	4.532448	0.767817	-0.009066
1650	8.2450e-01	3.5053	0.682276	0.000530	5.302108	0.898201	-0.010605
1651	8.2500e-01	3.4976	0.642507	0.000398	3.976581	0.673651	-0.007954
1652	8.2550e-01	3.4857	0.589054	0.000534	5.344867	0.905445	-0.010691
1653	8.2600e-01	3.4766	0.546291	0.000428	4.275894	0.724356	-0.008553
1654	8.2650e-01	3.4674	0.501818	0.000445	4.446930	0.753330	-0.008895
1655	8.2700e-01	3.4556	0.444516	0.000573	5.729698	0.970637	-0.011460
1656	8.2750e-01	3.4479	0.405603	0.000389	3.891063	0.659164	-0.007783
1657	8.2800e-01	3.4393	0.352577	0.000530	5.302108	0.898201	-0.010605
1658	8.2850e-01	3.4264	0.312808	0.000398	3.976581	0.673651	-0.007954
1659	8.2900e-01	3.4171	0.266624	0.000462	4.617965	0.782305	-0.009237
1660	8.2950e-01	3.4052	0.220441	0.000462	4.617965	0.782305	-0.009237
1661	8.3000e-01	3.3963	0.169126	0.000513	5.131073	0.869227	-0.010263
1662	8.3050e-01	3.3883	0.122942	0.000462	4.617965	0.782305	-0.009237
1663	8.3100e-01	3.3789	0.072482	0.000505	5.045555	0.854740	-0.010092
1664	8.3150e-01	3.3655	0.031858	0.000406	4.062099	0.688138	-0.008125
1665	8.3200e-01	3.3549	-0.012187	0.000440	4.404171	0.746087	-0.008809
1666	8.3250e-01	3.3441	-0.070772	0.000586	5.857975	0.992368	-0.011717
1667	8.3300e-01	3.3374	-0.110114	0.000393	3.933822	0.666408	-0.007868
1668	8.3350e-01	3.3255	-0.161856	0.000517	5.173832	0.876471	-0.010349
1669	8.3400e-01	3.3150	-0.206329	0.000445	4.446930	0.753330	-0.008895
1670	8.3450e-01	3.3029	-0.250802	0.000445	4.446930	0.753330	-0.008895
1671	8.3500e-01	3.2930	-0.308104	0.000573	5.729698	0.970637	-0.011460
1672	8.3550e-01	3.2843	-0.352149	0.000440	4.404171	0.746087	-0.008809
1673	8.3600e-01	3.2748	-0.397050	0.000449	4.489689	0.760574	-0.008980
1674	8.3650e-01	3.2635	-0.441951	0.000449	4.489689	0.760574	-0.008980
1675	8.3700e-01	3.2556	-0.488990	0.000470	4.703483	0.796792	-0.009408
1676	8.3750e-01	3.2462	-0.542443	0.000534	5.344867	0.905445	-0.010691
1677	8.3800e-01	3.2382	-0.593758	0.000513	5.131073	0.869227	-0.010263
1678	8.3850e-01	3.2256	-0.639941	0.000462	4.617965	0.782305	-0.009237
1679	8.3900e-01	3.2169	-0.692539	0.000526	5.259349	0.890958	-0.010520
1680	8.3950e-01	3.2062	-0.729743	0.000372	3.720028	0.630190	-0.007441
1681	8.4000e-01	3.1931	-0.781058	0.000513	5.131073	0.869227	-0.010263
1682	8.4050e-01	3.1836	-0.824248	0.000432	4.318653	0.731600	-0.008638
1683	8.4100e-01	3.1744	-0.882405	0.000582	5.815216	0.985124	-0.011631
1684	8.4150e-01	3.1648	-0.927305	0.000449	4.489689	0.760574	-0.008980
1685	8.4200e-01	3.1557	-0.979903	0.000526	5.259349	0.890958	-0.010520
1686	8.4250e-01	3.1471	-1.022238	0.000423	4.233135	0.717112	-0.008467
1687	8.4300e-01	3.1366	-1.076119	0.000539	5.387626	0.912689	-0.010776
1688	8.4350e-01	3.1268	-1.125724	0.000496	4.960037	0.840253	-0.009921
1689	8.4400e-01	3.1152	-1.171052	0.000453	4.532448	0.767817	-0.009066
1690	8.4450e-01	3.1056	-1.213814	0.000428	4.275894	0.724356	-0.008553
1691	8.4500e-01	3.0957	-1.265557	0.000517	5.173832	0.876471	-0.010349
1692	8.4550e-01	3.0844	-1.321576	0.000560	5.601421	0.948906	-0.011204
1693	8.4600e-01	3.0774	-1.375884	0.000543	5.430385	0.919932	-0.010862
1694	8.4650e-01	3.0640	-1.405818	0.000299	2.993126	0.507049	-0.005987
1695	8.4700e-01	3.0557	-1.463975	0.000582	5.815216	0.985124	-0.011631
1696	8.4750e-01	3.0470	-1.507165	0.000432	4.318653	0.731600	-0.008638
1697	8.4800e-01	3.0371	-1.566178	0.000590	5.900734	0.999611	-0.011802
1698	8.4850e-01	3.0261	-1.613216	0.000470	4.703483	0.796792	-0.009408
1699	8.4900e-01	3.0170	-1.661966	0.000487	4.874519	0.825766	-0.009750
1700	8.4950e-01	3.0075	-1.713708	0.000517	5.173832	0.876471	-0.010349
1701	8.5000e-01	2.9990	-1.752622	0.000389	3.891063	0.659164	-0.007783
1702	8.5050e-01	2.9886	-1.811634	0.000590	5.900734	0.999611	-0.011802
1703	8.5100e-01	2.9755	-1.853114	0.000415	4.147617	0.702625	-0.008296
1704	8.5150e-01	2.9657	-1.904002	0.000509	5.088314	0.861984	-0.010177
1705	8.5200e-01	2.9578	-1.948047	0.000440	4.404171	0.746087	-0.008809
1706	8.5250e-01	2.9457	-2.000217	0.000522	5.216591	0.883714	-0.010434
1707	8.5300e-01	2.9369	-2.056664	0.000564	5.644180	0.956150	-0.011289
1708	8.5350e-01	2.9260	-2.101564	0.000449	4.489689	0.760574	-0.008980
1709	8.5400e-01	2.9173	-2.146037	0.000445	4.446930	0.753330	-0.008895
1710	8.5450e-01	2.9066	-2.197352	0.000513	5.131073	0.869227	-0.010263
1711	8.5500e-01	2.8986	-2.251233	0.000539	5.387626	0.912689	-0.010776
1712	8.5550e-01	2.8873	-2.300838	0.000496	4.960037	0.840253	-0.009921
1713	8.5600e-01	2.8766	-2.354719	0.000539	5.387626	0.912689	-0.010776
1714	8.5650e-01	2.8648	-2.399192	0.000445	4.446930	0.753330	-0.008895
1715	8.5700e-01	2.8540	-2.446658	0.000475	4.746242	0.804035	-0.009493
1716	8.5750e-01	2.8462	-2.494980	0.000483	4.831760	0.818522	-0.009664
1717	8.5800e-01	2.8369	-2.556558	0.000616	6.157287	1.043073	-0.012316
1718	8.5850e-01	2.8275	-2.593333	0.000368	3.677269	0.622946	-0.007355
1719	8.5900e-01	2.8159	-2.653629	0.000603	6.029010	1.021342	-0.012059
1720	8.5950e-01	2.8050	-2.700240	0.000466	4.660724	0.789548	-0.009322
1721	8.6000e-01	2.7982	-2.754976	0.000547	5.473144	0.927176	-0.010947
1722	8.6050e-01	2.7866	-2.803297	0.000483	4.831760	0.818522	-0.009664
1723	8.6100e-01	2.7778	-2.852902	0.000496	4.960037	0.840253	-0.009921
1724	8.6150e-01	2.7682	-2.903789	0.000509	5.088314	0.861984	-0.010177
1725	8.6200e-01	2.7548	-2.953394	0.000496	4.960037	0.840253	-0.009921
1726	8.6250e-01	2.7477	-3.000005	0.000466	4.660724	0.789548	-0.009322
1727	8.6300e-01	2.7344	-3.055596	0.000556	5.558662	0.941663	-0.011118
1728	8.6350e-01	2.7284	-3.103063	0.000475	4.746242	0.804035	-0.009493
1729	8.6400e-01	2.7170	-3.158226	0.000552	5.515903	0.934419	-0.011033
1730	8.6450e-01	2.7066	-3.210397	0.000522	5.216591	0.883714	-0.010434
1731	8.6500e-01	2.6950	-3.248455	0.000381	3.805546	0.644677	-0.007612
1732	8.6550e-01	2.6883	-3.305330	0.000569	5.686939	0.963394	-0.011375
1733	8.6600e-01	2.6752	-3.361348	0.000560	5.601421	0.948906	-0.011204
1734	8.6650e-01	2.6668	-3.408815	0.000475	4.746242	0.804035	-0.009493
1735	8.6700e-01	2.6572	-3.454143	0.000453	4.532448	0.767817	-0.009066
1736	8.6750e-01	2.6480	-3.508024	0.000539	5.387626	0.912689	-0.010776
1737	8.6800e-01	2.6367	-3.570457	0.000624	6.242805	1.057560	-0.012487
1738	8.6850e-01	2.6248	-3.611937	0.000415	4.147617	0.702625	-0.008296
1739	8.6900e-01	2.6152	-3.661969	0.000500	5.002796	0.847497	-0.010006
1740	8.6950e-01	2.6051	-3.714995	0.000530	5.302108	0.898201	-0.010605
1741	8.7000e-01	2.5970	-3.763316	0.000483	4.831760	0.818522	-0.009664
1742	8.7050e-01	2.5839	-3.819763	0.000564	5.644180	0.956150	-0.011289
1743	8.7100e-01	2.5763	-3.864663	0.000449	4.489689	0.760574	-0.008980
1744	8.7150e-01	2.5681	-3.919827	0.000552	5.515903	0.934419	-0.011033
1745	8.7200e-01	2.5578	-3.984398	0.000646	6.456600	1.093778	-0.012914
1746	8.7250e-01	2.5458	-4.026733	0.000423	4.233135	0.717112	-0.008467
1747	8.7300e-01	2.5357	-4.088311	0.000616	6.157287	1.043073	-0.012316
1748	8.7350e-01	2.5287	-4.129791	0.000415	4.147617	0.702625	-0.008296
1749	8.7400e-01	2.5177	-4.189659	0.000599	5.986251	1.014098	-0.011974
1750	8.7450e-01	2.5077	-4.231994	0.000423	4.233135	0.717112	-0.008467
1751	8.7500e-01	2.4954	-4.276039	0.000440	4.404171	0.746087	-0.008809
1752	8.7550e-01	2.4847	-4.336334	0.000603	6.029010	1.021342	-0.012059
1753	8.7600e-01	2.4768	-4.380380	0.000440	4.404171	0.746087	-0.008809
1754	8.7650e-01	2.4658	-4.436398	0.000560	5.601421	0.948906	-0.011204
1755	8.7700e-01	2.4573	-4.496694	0.000603	6.029010	1.021342	-0.012059
1756	8.7750e-01	2.4439	-4.547581	0.000509	5.088314	0.861984	-0.010177
1757	8.7800e-01	2.4332	-4.607021	0.000594	5.943493	1.006855	-0.011888
1758	8.7850e-01	2.4229	-4.654060	0.000470	4.703483	0.796792	-0.009408
1759	8.7900e-01	2.4197	-4.704092	0.000500	5.002796	0.847497	-0.010006
1760	8.7950e-01	2.4078	-4.747710	0.000436	4.361412	0.738843	-0.008724
1761	8.8000e-01	2.3970	-4.810998	0.000633	6.328323	1.072047	-0.012658
1762	8.8050e-01	2.3863	-4.854616	0.000436	4.361412	0.738843	-0.008724
1763	8.8100e-01	2.3750	-4.910207	0.000556	5.558662	0.941663	-0.011118
1764	8.8150e-01	2.3669	-4.974351	0.000641	6.413841	1.086534	-0.012829
1765	8.8200e-01	2.3550	-5.009844	0.000355	3.548992	0.601216	-0.007099
1766	8.8250e-01	2.3477	-5.061159	0.000513	5.131073	0.869227	-0.010263
1767	8.8300e-01	2.3367	-5.125303	0.000641	6.413841	1.086534	-0.012829
1768	8.8350e-01	2.3245	-5.177473	0.000522	5.216591	0.883714	-0.010434
1769	8.8400e-01	2.3163	-5.232637	0.000552	5.515903	0.934419	-0.011033
1770	8.8450e-01	2.3073	-5.277537	0.000449	4.489689	0.760574	-0.008980
1771	8.8500e-01	2.2922	-5.329280	0.000517	5.173832	0.876471	-0.010349
1772	8.8550e-01	2.2865	-5.395134	0.000658	6.584877	1.115508	-0.013171
1773	8.8600e-01	2.2781	-5.440890	0.000458	4.575206	0.775061	-0.009151
1774	8.8650e-01	2.2639	-5.495626	0.000547	5.473144	0.927176	-0.010947
1775	8.8700e-01	2.2565	-5.554211	0.000586	5.857975	0.992368	-0.011717
1776	8.8750e-01	2.2455	-5.598684	0.000445	4.446930	0.753330	-0.008895
1777	8.8800e-01	2.2366	-5.651709	0.000530	5.302108	0.898201	-0.010605
1778	8.8850e-01	2.2280	-5.707728	0.000560	5.601421	0.948906	-0.011204
1779	8.8900e-01	2.2150	-5.764175	0.000564	5.644180	0.956150	-0.011289
1780	8.8950e-01	2.2061	-5.820194	0.000560	5.601421	0.948906	-0.011204
1781	8.9000e-01	2.1955	-5.871081	0.000509	5.088314	0.861984	-0.010177
1782	8.9050e-01	2.1864	-5.926672	0.000556	5.558662	0.941663	-0.011118
1783	8.9100e-01	2.1754	-5.984402	0.000577	5.772457	0.977881	-0.011546
1784	8.9150e-01	2.1655	-6.022888	0.000385	3.848305	0.651920	-0.007697
1785	8.9200e-01	2.1545	-6.077197	0.000543	5.430385	0.919932	-0.010862
1786	8.9250e-01	2.1451	-6.131933	0.000547	5.473144	0.927176	-0.010947
1787	8.9300e-01	2.1359	-6.193511	0.000616	6.157287	1.043073	-0.012316
1788	8.9350e-01	2.1251	-6.250812	0.000573	5.729698	0.970637	-0.011460
1789	8.9400e-01	2.1193	-6.301272	0.000505	5.045555	0.854740	-0.010092
1790	8.9450e-01	2.1075	-6.354298	0.000530	5.302108	0.898201	-0.010605
1791	8.9500e-01	2.0932	-6.404330	0.000500	5.002796	0.847497	-0.010006
1792	8.9550e-01	2.0868	-6.461204	0.000569	5.686939	0.963394	-0.011375
1793	8.9600e-01	2.0770	-6.514230	0.000530	5.302108	0.898201	-0.010605
1794	8.9650e-01	2.0648	-6.583505	0.000693	6.926948	1.173457	-0.013855
1795	8.9700e-01	2.0590	-6.640379	0.000569	5.686939	0.963394	-0.011375
1796	8.9750e-01	2.0453	-6.672879	0.000325	3.249679	0.550511	-0.006500
1797	8.9800e-01	2.0361	-6.737878	0.000650	6.499359	1.101021	-0.013000
1798	8.9850e-01	2.0273	-6.798600	0.000607	6.071769	1.028586	-0.012145
1799	8.9900e-01	2.0174	-6.848633	0.000500	5.002796	0.847497	-0.010006
1800	8.9950e-01	2.0076	-6.895244	0.000466	4.660724	0.789548	-0.009322
1801	9.0000e-01	1.9981	-6.958532	0.000633	6.328323	1.072047	-0.012658
1802	9.0050e-01	1.9862	-7.013268	0.000547	5.473144	0.927176	-0.010947
1803	9.0100e-01	1.9759	-7.066294	0.000530	5.302108	0.898201	-0.010605
1804	9.0150e-01	1.9666	-7.119319	0.000530	5.302108	0.898201	-0.010605
1805	9.0200e-01	1.9532	-7.167641	0.000483	4.831760	0.818522	-0.009664
1806	9.0250e-01	1.9452	-7.225798	0.000582	5.815216	0.985124	-0.011631
1807	9.0300e-01	1.9357	-7.286093	0.000603	6.029010	1.021342	-0.012059
1808	9.0350e-01	1.9270	-7.341685	0.000556	5.558662	0.941663	-0.011118
1809	9.0400e-01	1.9147	-7.397276	0.000556	5.558662	0.941663	-0.011118
1810	9.0450e-01	1.9046	-7.451157	0.000539	5.387626	0.912689	-0.010776
1811	9.0500e-01	1.8967	-7.513162	0.000620	6.200046	1.050316	-0.012401
1812	9.0550e-01	1.8855	-7.557635	0.000445	4.446930	0.753330	-0.008895
1813	9.0600e-01	1.8768	-7.623490	0.000658	6.584877	1.115508	-0.013171
1814	9.0650e-01	1.8663	-7.667963	0.000445	4.446930	0.753330	-0.008895
1815	9.0700e-01	1.8555	-7.724837	0.000569	5.686939	0.963394	-0.011375
1816	9.0750e-01	1.8481	-7.791546	0.000667	6.670394	1.129995	-0.013342
1817	9.0800e-01	1.8378	-7.830460	0.000389	3.891063	0.659164	-0.007783
1818	9.0850e-01	1.8280	-7.901018	0.000706	7.055225	1.195187	-0.014112
1819	9.0900e-01	1.8159	-7.956610	0.000556	5.558662	0.941663	-0.011118
1820	9.0950e-01	1.8054	-8.012629	0.000560	5.601421	0.948906	-0.011204
1821	9.1000e-01	1.7964	-8.067792	0.000552	5.515903	0.934419	-0.011033
1822	9.1050e-01	1.7854	-8.123811	0.000560	5.601421	0.948906	-0.011204
1823	9.1100e-01	1.7765	-8.181113	0.000573	5.729698	0.970637	-0.011460
1824	9.1150e-01	1.7687	-8.240553	0.000594	5.943493	1.006855	-0.011888
1825	9.1200e-01	1.7581	-8.300848	0.000603	6.029010	1.021342	-0.012059
1826	9.1250e-01	1.7482	-8.344038	0.000432	4.318653	0.731600	-0.008638
1827	9.1300e-01	1.7355	-8.395781	0.000517	5.173832	0.876471	-0.010349
1828	9.1350e-01	1.7266	-8.456931	0.000611	6.114528	1.035829	-0.012230
1829	9.1400e-01	1.7171	-8.516799	0.000599	5.986251	1.014098	-0.011974
1830	9.1450e-01	1.7061	-8.569824	0.000530	5.302108	0.898201	-0.010605
1831	9.1500e-01	1.6959	-8.623705	0.000539	5.387626	0.912689	-0.010776
1832	9.1550e-01	1.6891	-8.686566	0.000629	6.285564	1.064803	-0.012572
1833	9.1600e-01	1.6737	-8.746434	0.000599	5.986251	1.014098	-0.011974
1834	9.1650e-01	1.6685	-8.803735	0.000573	5.729698	0.970637	-0.011460
1835	9.1700e-01	1.6585	-8.863175	0.000594	5.943493	1.006855	-0.011888
1836	9.1750e-01	1.6445	-8.917484	0.000543	5.430385	0.919932	-0.010862
1837	9.1800e-01	1.6373	-8.970509	0.000530	5.302108	0.898201	-0.010605
1838	9.1850e-01	1.6277	-9.035081	0.000646	6.456600	1.093778	-0.012914
1839	9.1900e-01	1.6151	-9.083402	0.000483	4.831760	0.818522	-0.009664
1840	9.1950e-01	1.6052	-9.147546	0.000641	6.413841	1.086534	-0.012829
1841	9.2000e-01	1.5955	-9.205275	0.000577	5.772457	0.977881	-0.011546
1842	9.2050e-01	1.5862	-9.267281	0.000620	6.200046	1.050316	-0.012401
1843	9.2100e-01	1.5773	-9.326721	0.000594	5.943493	1.006855	-0.011888
1844	9.2150e-01	1.5628	-9.370766	0.000440	4.404171	0.746087	-0.008809
1845	9.2200e-01	1.5566	-9.441325	0.000706	7.055225	1.195187	-0.014112
1846	9.2250e-01	1.5479	-9.497344	0.000560	5.601421	0.948906	-0.011204
1847	9.2300e-01	1.5360	-9.550369	0.000530	5.302108	0.898201	-0.010605
1848	9.2350e-01	1.5256	-9.611519	0.000611	6.114528	1.035829	-0.012230
1849	9.2400e-01	1.5154	-9.675663	0.000641	6.413841	1.086534	-0.012829
1850	9.2450e-01	1.5081	-9.726123	0.000505	5.045555	0.854740	-0.010092
1851	9.2500e-01	1.4945	-9.785135	0.000590	5.900734	0.999611	-0.011802
1852	9.2550e-01	1.4860	-9.845858	0.000607	6.071769	1.028586	-0.012145
1853	9.2600e-01	1.4783	-9.896746	0.000509	5.088314	0.861984	-0.010177
1854	9.2650e-01	1.4667	-9.955330	0.000586	5.857975	0.992368	-0.011717
1855	9.2700e-01	1.4529	-10.015198	0.000599	5.986251	1.014098	-0.011974
1856	9.2750e-01	1.4456	-10.079342	0.000641	6.413841	1.086534	-0.012829
1857	9.2800e-01	1.4349	-10.139209	0.000599	5.986251	1.014098	-0.011974
1858	9.2850e-01	1.4272	-10.193090	0.000539	5.387626	0.912689	-0.010776
1859	9.2900e-01	1.4175	-10.253813	0.000607	6.071769	1.028586	-0.012145
1860	9.2950e-01	1.4050	-10.305128	0.000513	5.131073	0.869227	-0.010263
1861	9.3000e-01	1.3965	-10.370982	0.000658	6.584877	1.115508	-0.013171
1862	9.3050e-01	1.3884	-10.432988	0.000620	6.200046	1.050316	-0.012401
1863	9.3100e-01	1.3757	-10.489862	0.000569	5.686939	0.963394	-0.011375
1864	9.3150e-01	1.3654	-10.553578	0.000637	6.371082	1.079290	-0.012743
1865	9.3200e-01	1.3555	-10.603182	0.000496	4.960037	0.840253	-0.009921
1866	9.3250e-01	1.3476	-10.663478	0.000603	6.029010	1.021342	-0.012059
1867	9.3300e-01	1.3364	-10.731042	0.000676	6.755912	1.144483	-0.013513
1868	9.3350e-01	1.3248	-10.780647	0.000496	4.960037	0.840253	-0.009921
1869	9.3400e-01	1.3160	-10.844363	0.000637	6.371082	1.079290	-0.012743
1870	9.3450e-01	1.3049	-10.900810	0.000564	5.644180	0.956150	-0.011289
1871	9.3500e-01	1.2946	-10.960677	0.000599	5.986251	1.014098	-0.011974
1872	9.3550e-01	1.2825	-11.018407	0.000577	5.772457	0.977881	-0.011546
1873	9.3600e-01	1.2739	-11.086399	0.000680	6.798671	1.151726	-0.013598
1874	9.3650e-01	1.2668	-11.147122	0.000607	6.071769	1.028586	-0.012145
1875	9.3700e-01	1.2527	-11.204424	0.000573	5.729698	0.970637	-0.011460
1876	9.3750e-01	1.2455	-11.256166	0.000517	5.173832	0.876471	-0.010349
1877	9.3800e-01	1.2357	-11.316034	0.000599	5.986251	1.014098	-0.011974
1878	9.3850e-01	1.2260	-11.387875	0.000718	7.183502	1.216918	-0.014368
1879	9.3900e-01	1.2188	-11.440473	0.000526	5.259349	0.890958	-0.010520
1880	9.3950e-01	1.2041	-11.498630	0.000582	5.815216	0.985124	-0.011631
1881	9.4000e-01	1.1954	-11.567050	0.000684	6.841430	1.158970	-0.013684
1882	9.4050e-01	1.1886	-11.615799	0.000487	4.874519	0.825766	-0.009750
1883	9.4100e-01	1.1780	-11.684647	0.000688	6.884189	1.166213	-0.013770
1884	9.4150e-01	1.1662	-11.741093	0.000564	5.644180	0.956150	-0.011289
1885	9.4200e-01	1.1580	-11.793264	0.000522	5.216591	0.883714	-0.010434
1886	9.4250e-01	1.1470	-11.864677	0.000714	7.140743	1.209675	-0.014283
1887	9.4300e-01	1.1395	-11.925400	0.000607	6.071769	1.028586	-0.012145
1888	9.4350e-01	1.1259	-11.982702	0.000573	5.729698	0.970637	-0.011460
1889	9.4400e-01	1.1169	-12.039576	0.000569	5.686939	0.963394	-0.011375
1890	9.4450e-01	1.1068	-12.097305	0.000577	5.772457	0.977881	-0.011546
1891	9.4500e-01	1.0976	-12.166581	0.000693	6.926948	1.173457	-0.013855
1892	9.4550e-01	1.0859	-12.228586	0.000620	6.200046	1.050316	-0.012401
1893	9.4600e-01	1.0753	-12.288881	0.000603	6.029010	1.021342	-0.012059
1894	9.4650e-01	1.0691	-12.341907	0.000530	5.302108	0.898201	-0.010605
1895	9.4700e-01	1.0571	-12.410755	0.000688	6.884189	1.166213	-0.013770
1896	9.4750e-01	1.0492	-12.469767	0.000590	5.900734	0.999611	-0.011802
1897	9.4800e-01	1.0341	-12.521937	0.000522	5.216591	0.883714	-0.010434
1898	9.4850e-01	1.0258	-12.595061	0.000731	7.311779	1.238649	-0.014625
1899	9.4900e-01	1.0178	-12.658777	0.000637	6.371082	1.079290	-0.012743
1900	9.4950e-01	1.0091	-12.714796	0.000560	5.601421	0.948906	-0.011204
1901	9.5000e-01	0.9973	-12.781506	0.000667	6.670394	1.129995	-0.013342
1902	9.5050e-01	0.9884	-12.843511	0.000620	6.200046	1.050316	-0.012401
1903	9.5100e-01	0.9744	-12.901668	0.000582	5.815216	0.985124	-0.011631
1904	9.5150e-01	0.9686	-12.966667	0.000650	6.499359	1.101021	-0.013000
1905	9.5200e-01	0.9543	-13.024824	0.000582	5.815216	0.985124	-0.011631
1906	9.5250e-01	0.9473	-13.086830	0.000620	6.200046	1.050316	-0.012401
1907	9.5300e-01	0.9356	-13.156533	0.000697	6.969707	1.180700	-0.013941
1908	9.5350e-01	0.9256	-13.212980	0.000564	5.644180	0.956150	-0.011289
1909	9.5400e-01	0.9160	-13.271992	0.000590	5.900734	0.999611	-0.011802
1910	9.5450e-01	0.9076	-13.334425	0.000624	6.242805	1.057560	-0.012487
1911	9.5500e-01	0.8955	-13.400279	0.000658	6.584877	1.115508	-0.013171
1912	9.5550e-01	0.8852	-13.469127	0.000688	6.884189	1.166213	-0.013770
1913	9.5600e-01	0.8784	-13.521297	0.000522	5.216591	0.883714	-0.010434
1914	9.5650e-01	0.8662	-13.577744	0.000564	5.644180	0.956150	-0.011289
1915	9.5700e-01	0.8553	-13.649585	0.000718	7.183502	1.216918	-0.014368
1916	9.5750e-01	0.8465	-13.709880	0.000603	6.029010	1.021342	-0.012059
1917	9.5800e-01	0.8327	-13.766327	0.000564	5.644180	0.956150	-0.011289
1918	9.5850e-01	0.8268	-13.838168	0.000718	7.183502	1.216918	-0.014368
1919	9.5900e-01	0.8140	-13.900173	0.000620	6.200046	1.050316	-0.012401
1920	9.5950e-01	0.8073	-13.965172	0.000650	6.499359	1.101021	-0.013000
1921	9.6000e-01	0.7976	-14.034875	0.000697	6.969707	1.180700	-0.013941
1922	9.6050e-01	0.7858	-14.089184	0.000543	5.430385	0.919932	-0.010862
1923	9.6100e-01	0.7752	-14.151189	0.000620	6.200046	1.050316	-0.012401
1924	9.6150e-01	0.7665	-14.222175	0.000710	7.097984	1.202431	-0.014197
1925	9.6200e-01	0.7561	-14.281615	0.000594	5.943493	1.006855	-0.011888
1926	9.6250e-01	0.7471	-14.341055	0.000594	5.943493	1.006855	-0.011888
1927	9.6300e-01	0.7364	-14.408192	0.000671	6.713153	1.137239	-0.013427
1928	9.6350e-01	0.7268	-14.475329	0.000671	6.713153	1.137239	-0.013427
1929	9.6400e-01	0.7121	-14.536480	0.000611	6.114528	1.035829	-0.012230
1930	9.6450e-01	0.7071	-14.598485	0.000620	6.200046	1.050316	-0.012401
1931	9.6500e-01	0.6971	-14.659636	0.000611	6.114528	1.035829	-0.012230
1932	9.6550e-01	0.6847	-14.724635	0.000650	6.499359	1.101021	-0.013000
1933	9.6600e-01	0.6767	-14.784930	0.000603	6.029010	1.021342	-0.012059
1934	9.6650e-01	0.6670	-14.863613	0.000787	7.867645	1.332815	-0.015737
1935	9.6700e-01	0.6567	-14.924336	0.000607	6.071769	1.028586	-0.012145
1936	9.6750e-01	0.6465	-14.988907	0.000646	6.456600	1.093778	-0.012914
1937	9.6800e-01	0.6347	-15.055189	0.000663	6.627636	1.122752	-0.013256
1938	9.6850e-01	0.6236	-15.111636	0.000564	5.644180	0.956150	-0.011289
1939	9.6900e-01	0.6152	-15.180056	0.000684	6.841430	1.158970	-0.013684
1940	9.6950e-01	0.6054	-15.242917	0.000629	6.285564	1.064803	-0.012572
1941	9.7000e-01	0.5967	-15.312192	0.000693	6.926948	1.173457	-0.013855
1942	9.7050e-01	0.5873	-15.373342	0.000611	6.114528	1.035829	-0.012230
1943	9.7100e-01	0.5772	-15.443045	0.000697	6.969707	1.180700	-0.013941
1944	9.7150e-01	0.5657	-15.499920	0.000569	5.686939	0.963394	-0.011375
1945	9.7200e-01	0.5566	-15.571761	0.000718	7.183502	1.216918	-0.014368
1946	9.7250e-01	0.5447	-15.629918	0.000582	5.815216	0.985124	-0.011631
1947	9.7300e-01	0.5359	-15.696627	0.000667	6.670394	1.129995	-0.013342
1948	9.7350e-01	0.5246	-15.754784	0.000582	5.815216	0.985124	-0.011631
1949	9.7400e-01	0.5178	-15.830046	0.000753	7.525573	1.274867	-0.015052
1950	9.7450e-01	0.5070	-15.884355	0.000543	5.430385	0.919932	-0.010862
1951	9.7500e-01	0.4961	-15.954485	0.000701	7.012466	1.187944	-0.014026
1952	9.7550e-01	0.4860	-16.030175	0.000757	7.568332	1.282110	-0.015138
1953	9.7600e-01	0.4787	-16.091325	0.000611	6.114528	1.035829	-0.012230
1954	9.7650e-01	0.4668	-16.159745	0.000684	6.841430	1.158970	-0.013684
1955	9.7700e-01	0.4578	-16.225600	0.000658	6.584877	1.115508	-0.013171
1956	9.7750e-01	0.4453	-16.287178	0.000616	6.157287	1.043073	-0.012316
1957	9.7800e-01	0.4369	-16.358163	0.000710	7.097984	1.202431	-0.014197
1958	9.7850e-01	0.4287	-16.421024	0.000629	6.285564	1.064803	-0.012572
1959	9.7900e-01	0.4164	-16.488589	0.000676	6.755912	1.144483	-0.013513
1960	9.7950e-01	0.4062	-16.556154	0.000676	6.755912	1.144483	-0.013513
1961	9.8000e-01	0.3963	-16.621153	0.000650	6.499359	1.101021	-0.013000
1962	9.8050e-01	0.3860	-16.681021	0.000599	5.986251	1.014098	-0.011974
1963	9.8100e-01	0.3760	-16.748585	0.000676	6.755912	1.144483	-0.013513
1964	9.8150e-01	0.3671	-16.815722	0.000671	6.713153	1.137239	-0.013427
1965	9.8200e-01	0.3558	-16.878156	0.000624	6.242805	1.057560	-0.012487
1966	9.8250e-01	0.3458	-16.943582	0.000654	6.542118	1.108265	-0.013085
1967	9.8300e-01	0.3357	-17.013285	0.000697	6.969707	1.180700	-0.013941
1968	9.8350e-01	0.3253	-17.083844	0.000706	7.055225	1.195187	-0.014112
1969	9.8400e-01	0.3149	-17.141573	0.000577	5.772457	0.977881	-0.011546
1970	9.8450e-01	0.3052	-17.206572	0.000650	6.499359	1.101021	-0.013000
1971	9.8500e-01	0.2961	-17.284400	0.000778	7.782127	1.318328	-0.015566
1972	9.8550e-01	0.2861	-17.343840	0.000594	5.943493	1.006855	-0.011888
1973	9.8600e-01	0.2750	-17.410977	0.000671	6.713153	1.137239	-0.013427
1974	9.8650e-01	0.2656	-17.490943	0.000800	7.995922	1.354546	-0.015993
1975	9.8700e-01	0.2555	-17.553376	0.000624	6.242805	1.057560	-0.012487
1976	9.8750e-01	0.2445	-17.611533	0.000582	5.815216	0.985124	-0.011631
1977	9.8800e-01	0.2376	-17.693637	0.000821	8.209716	1.390764	-0.016421
1978	9.8850e-01	0.2270	-17.756498	0.000629	6.285564	1.064803	-0.012572
1979	9.8900e-01	0.2147	-17.818076	0.000616	6.157287	1.043073	-0.012316
1980	9.8950e-01	0.2053	-17.886496	0.000684	6.841430	1.158970	-0.013684
1981	9.9000e-01	0.1971	-17.954061	0.000676	6.755912	1.144483	-0.013513
1982	9.9050e-01	0.1868	-18.013929	0.000599	5.986251	1.014098	-0.011974
1983	9.9100e-01	0.1765	-18.087052	0.000731	7.311779	1.238649	-0.014625
1984	9.9150e-01	0.1671	-18.164025	0.000770	7.696609	1.303841	-0.015395
1985	9.9200e-01	0.1553	-18.226031	0.000620	6.200046	1.050316	-0.012401
1986	9.9250e-01	0.1447	-18.290602	0.000646	6.456600	1.093778	-0.012914
1987	9.9300e-01	0.1337	-18.374417	0.000838	8.380752	1.419738	-0.016763
1988	9.9350e-01	0.1243	-18.430436	0.000560	5.601421	0.948906	-0.011204
1989	9.9400e-01	0.1154	-18.494152	0.000637	6.371082	1.079290	-0.012743
1990	9.9450e-01	0.1049	-18.568558	0.000744	7.440055	1.260380	-0.014881
1991	9.9500e-01	0.0961	-18.632702	0.000641	6.413841	1.086534	-0.012829
1992	9.9550e-01	0.0863	-18.713951	0.000812	8.124198	1.376276	-0.016250
1993	9.9600e-01	0.0720	-18.765266	0.000513	5.131073	0.869227	-0.010263
1994	9.9650e-01	0.0648	-18.845232	0.000800	7.995922	1.354546	-0.015993
1995	9.9700e-01	0.0531	-18.910231	0.000650	6.499359	1.101021	-0.013000
1996	9.9750e-01	0.0443	-18.993618	0.000834	8.337993	1.412494	-0.016677
1997	9.9800e-01	0.0360	-19.044505	0.000509	5.088314	0.861984	-0.010177
1998	9.9850e-01	0.0251	-19.123616	0.000791	7.910404	1.340059	-0.015822
1999	9.9900e-01	0.0160	-19.183484	0.000599	5.986251	1.014098	-0.011974
2000	9.9950e-01	0.0048	-19.248055	0.000646	6.456600	1.093778	-0.012914
2001	1.0000e+00	-0.0029	-19.320751	0.000646	6.456600	1.093778	-0.014539

PMax (uC/cm2):	4.61e+01
Pr (uC/cm2):	3.74e+00
-Pr (uC/cm2):	0.00e+00
PLoss (uC/cm2):	0.00e+00
C (Max-Eff) (nF):	4.61e-01
K (Eff):	7.82e+02
Vert. (+/-Pr) Shift (uC/cm2):	1.87e+00
Offset (uC/cm2):	2.31e+01

A (Loop Area - uC/cm2·Volts):	-3.81e-02



Hysteresis Version: 5.48.1 - Radiant Technologies, Inc., 1999 - 9/12/24

