»»»»»»»»»»»»»»»»»»»»»»»»»»»»»»»»»»»» Hysteresis ««««««««««««««««««««««««««««««««««««
»»»  Executed Version:	5.48.1
»»»  Vision Version:	5.48.4 (R)
»»»  Vision Compiled:	9/18/24
»»»  Driver Version:	5.47.0
»»»  Windows Version:	Windows 8 or 8.1
»»»  Processor Information:	x86 (AMD or Intel) - 32 Processors
»»»  Tester Name:	PMF21124-494 (100V)
»»»  Tester S/N:	PMF21124-494
»»»  Internal Amp Type:	100V RevK 270k
»»»  Internal Amp S/N:	iAB2-596/K     
»»»  Execution Count:	1
»»»»»»»»»»»»»»»»»»»»»»»»»»»»»»»»»»»»»»»»»»««««««««««««««««««««««««««««««««««««««««««

Stored:	6/25/2025 - 17:42:3
Configured:	06/25/25 10:44:40 AM
Executed:	06/25/25 05:41:41 PM

»»»»»»»»»»»»»»»»»»»»»»»»»»»»»»»»»»» Sample Info ««««««««««««««««««««««««««««««««««««
Sample Name:	
Lot Name:	
Wafer Name:	
Die Row/Column:	0/0
Capacitor Number:	0
Sample Area (cm2):	1.00e-04
Sample Thickness (microns):	1.50e-01

Amplifier:	Internal

»»»»»»»»»»»»»»»»»»»»»»»»»»»»»»»»»»» Tester Info «««««««««««««««««««««««««««««««««««
Tester Name:	PMF21124-494 (100V)
Tester Serial Number:	PMF21124-494
Return Signal Amp. Level:	1.79 [Index: 2]

»»»»»»»»»»»»»»»»»»»»»»»»»»»»»»»» Hysteresis Info ««««««««««««««««««««««««««««««««««
Task Name:	Hyst-116
Volts:	10.00
Field:	666.67 (kV/cm)
DCBias:	0.00
DCField:	0.00 (kV/cm)
Hysteresis Period (ms):	1.00e+00
Preset:	Enabled
Preset Delay (ms):	1.00e+03
Profile:	Standard Monopolar

»»»»»»»»»»»»»»»»»»»»»»»»»»»»»»»»»»»»»» Data «««««««««««««««««««««««««««««««««««««««
Points:	2001

Valid Data

Point	Time (ms)	Drive Voltage	Measured Polarization (uC/cm2)	Capacitance (uF)	Normalized Capacitance (uF/cm2)	Dielectric Constant	Instantaneous Current (mA)
   1	0.0000e+00	-0.0057	-25.093265	0.000500	5.003464	0.847610	0.010006
   2	5.0000e-04	0.0064	-25.043233	0.000500	5.003464	0.847610	0.010006
   3	1.0000e-03	0.0153	-25.000043	0.000432	4.319229	0.731697	0.008638
   4	1.5000e-03	0.0250	-24.937182	0.000629	6.286403	1.064946	0.012572
   5	2.0000e-03	0.0352	-24.891426	0.000458	4.575817	0.775164	0.009151
   6	2.5000e-03	0.0439	-24.845670	0.000458	4.575817	0.775164	0.009151
   7	3.0000e-03	0.0552	-24.825999	0.000197	1.967174	0.333248	0.003934
   8	3.5000e-03	0.0656	-24.745606	0.000804	8.039754	1.361971	0.016079
   9	4.0000e-03	0.0738	-24.696856	0.000488	4.875170	0.825876	0.009750
  10	4.5000e-03	0.0877	-24.650245	0.000466	4.661347	0.789653	0.009322
  11	5.0000e-03	0.0970	-24.598930	0.000513	5.131758	0.869343	0.010263
  12	5.5000e-03	0.1086	-24.545905	0.000530	5.302816	0.898321	0.010605
  13	6.0000e-03	0.1131	-24.498011	0.000479	4.789641	0.811387	0.009579
  14	6.5000e-03	0.1248	-24.435150	0.000629	6.286403	1.064946	0.012572
  15	7.0000e-03	0.1355	-24.397946	0.000372	3.720524	0.630274	0.007441
  16	7.5000e-03	0.1455	-24.333375	0.000646	6.457462	1.093924	0.012914
  17	8.0000e-03	0.1579	-24.284198	0.000492	4.917935	0.833121	0.009835
  18	8.5000e-03	0.1688	-24.220909	0.000633	6.329168	1.072190	0.012658
  19	9.0000e-03	0.1748	-24.179430	0.000415	4.148171	0.702719	0.008296
  20	9.5000e-03	0.1854	-24.140516	0.000389	3.891583	0.659252	0.007783
  21	1.0000e-02	0.1981	-24.060122	0.000804	8.039754	1.361971	0.016079
  22	1.0500e-02	0.2045	-24.026767	0.000334	3.335643	0.565073	0.006671
  23	1.1000e-02	0.2152	-23.973742	0.000530	5.302816	0.898321	0.010605
  24	1.1500e-02	0.2240	-23.915585	0.000582	5.815992	0.985256	0.011631
  25	1.2000e-02	0.2354	-23.860421	0.000552	5.516640	0.934544	0.011033
  26	1.2500e-02	0.2464	-23.809534	0.000509	5.088993	0.862099	0.010177
  27	1.3000e-02	0.2538	-23.763350	0.000462	4.618582	0.782409	0.009237
  28	1.3500e-02	0.2647	-23.702628	0.000607	6.072580	1.028723	0.012145
  29	1.4000e-02	0.2739	-23.647036	0.000556	5.559404	0.941789	0.011118
  30	1.4500e-02	0.2848	-23.605129	0.000419	4.190936	0.709964	0.008381
  31	1.5000e-02	0.2974	-23.545689	0.000594	5.944286	1.006989	0.011888
  32	1.5500e-02	0.3050	-23.508058	0.000376	3.763289	0.637518	0.007526
  33	1.6000e-02	0.3165	-23.429803	0.000783	7.825931	1.325749	0.015651
  34	1.6500e-02	0.3251	-23.382764	0.000470	4.704111	0.796898	0.009408
  35	1.7000e-02	0.3362	-23.330594	0.000522	5.217287	0.883832	0.010434
  36	1.7500e-02	0.3428	-23.272009	0.000586	5.858757	0.992500	0.011717
  37	1.8000e-02	0.3570	-23.227108	0.000449	4.490288	0.760675	0.008980
  38	1.8500e-02	0.3649	-23.167241	0.000599	5.987051	1.014234	0.011974
  39	1.9000e-02	0.3764	-23.119774	0.000475	4.746876	0.804143	0.009493
  40	1.9500e-02	0.3851	-23.061190	0.000586	5.858757	0.992500	0.011717
  41	2.0000e-02	0.3937	-23.007309	0.000539	5.388346	0.912810	0.010776
  42	2.0500e-02	0.4041	-22.953000	0.000543	5.431110	0.920055	0.010862
  43	2.1000e-02	0.4163	-22.901685	0.000513	5.131758	0.869343	0.010263
  44	2.1500e-02	0.4257	-22.846094	0.000556	5.559404	0.941789	0.011118
  45	2.2000e-02	0.4363	-22.796917	0.000492	4.917935	0.833121	0.009835
  46	2.2500e-02	0.4449	-22.738760	0.000582	5.815992	0.985256	0.011631
  47	2.3000e-02	0.4546	-22.687445	0.000513	5.131758	0.869343	0.010263
  48	2.3500e-02	0.4639	-22.636985	0.000505	5.046228	0.854854	0.010092
  49	2.4000e-02	0.4751	-22.580539	0.000564	5.644934	0.956278	0.011289
  50	2.4500e-02	0.4864	-22.527086	0.000535	5.345581	0.905566	0.010691
  51	2.5000e-02	0.4953	-22.472350	0.000547	5.473875	0.927300	0.010947
  52	2.5500e-02	0.5090	-22.433436	0.000389	3.891583	0.659252	0.007783
  53	2.6000e-02	0.5163	-22.370147	0.000633	6.329168	1.072190	0.012658
  54	2.6500e-02	0.5264	-22.309852	0.000603	6.029815	1.021478	0.012059
  55	2.7000e-02	0.5362	-22.258537	0.000513	5.131758	0.869343	0.010263
  56	2.7500e-02	0.5448	-22.192683	0.000659	6.585756	1.115657	0.013171
  57	2.8000e-02	0.5568	-22.155052	0.000376	3.763289	0.637518	0.007526
  58	2.8500e-02	0.5637	-22.083638	0.000714	7.141696	1.209836	0.014283
  59	2.9000e-02	0.5775	-22.046862	0.000368	3.677760	0.623029	0.007355
  60	2.9500e-02	0.5877	-21.986567	0.000603	6.029815	1.021478	0.012059
  61	3.0000e-02	0.5964	-21.927555	0.000590	5.901521	0.999745	0.011802
  62	3.0500e-02	0.6062	-21.884792	0.000428	4.276465	0.724453	0.008553
  63	3.1000e-02	0.6155	-21.830484	0.000543	5.431110	0.920055	0.010862
  64	3.1500e-02	0.6262	-21.769334	0.000612	6.115345	1.035967	0.012230
  65	3.2000e-02	0.6373	-21.715025	0.000543	5.431110	0.920055	0.010862
  66	3.2500e-02	0.6443	-21.656441	0.000586	5.858757	0.992500	0.011717
  67	3.3000e-02	0.6566	-21.596145	0.000603	6.029815	1.021478	0.012059
  68	3.3500e-02	0.6685	-21.536706	0.000594	5.944286	1.006989	0.011888
  69	3.4000e-02	0.6758	-21.500785	0.000359	3.592230	0.608540	0.007184
  70	3.4500e-02	0.6843	-21.439635	0.000612	6.115345	1.035967	0.012230
  71	3.5000e-02	0.6966	-21.393023	0.000466	4.661347	0.789653	0.009322
  72	3.5500e-02	0.7077	-21.332301	0.000607	6.072580	1.028723	0.012145
  73	3.6000e-02	0.7158	-21.268157	0.000641	6.414697	1.086679	0.012829
  74	3.6500e-02	0.7258	-21.220690	0.000475	4.746876	0.804143	0.009493
  75	3.7000e-02	0.7358	-21.179638	0.000411	4.105406	0.695475	0.008210
  76	3.7500e-02	0.7493	-21.111646	0.000680	6.799579	1.151880	0.013598
  77	3.8000e-02	0.7571	-21.062041	0.000496	4.960699	0.840365	0.009921
  78	3.8500e-02	0.7677	-21.011154	0.000509	5.088993	0.862099	0.010177
  79	3.9000e-02	0.7751	-20.943162	0.000680	6.799579	1.151880	0.013598
  80	3.9500e-02	0.7863	-20.887143	0.000560	5.602169	0.949033	0.011204
  81	4.0000e-02	0.7954	-20.845235	0.000419	4.190936	0.709964	0.008381
  82	4.0500e-02	0.8035	-20.791355	0.000539	5.388346	0.912810	0.010776
  83	4.1000e-02	0.8194	-20.736619	0.000547	5.473875	0.927300	0.010947
  84	4.1500e-02	0.8272	-20.687442	0.000492	4.917935	0.833121	0.009835
  85	4.2000e-02	0.8352	-20.626291	0.000612	6.115345	1.035967	0.012230
  86	4.2500e-02	0.8467	-20.583101	0.000432	4.319229	0.731697	0.008638
  87	4.3000e-02	0.8554	-20.514253	0.000689	6.885108	1.166369	0.013770
  88	4.3500e-02	0.8659	-20.458662	0.000556	5.559404	0.941789	0.011118
  89	4.4000e-02	0.8779	-20.399222	0.000594	5.944286	1.006989	0.011888
  90	4.4500e-02	0.8881	-20.354322	0.000449	4.490288	0.760675	0.008980
  91	4.5000e-02	0.8975	-20.312414	0.000419	4.190936	0.709964	0.008381
  92	4.5500e-02	0.9061	-20.241429	0.000710	7.098932	1.202592	0.014197
  93	4.6000e-02	0.9181	-20.192252	0.000492	4.917935	0.833121	0.009835
  94	4.6500e-02	0.9269	-20.129818	0.000624	6.243639	1.057701	0.012487
  95	4.7000e-02	0.9354	-20.071234	0.000586	5.858757	0.992500	0.011717
  96	4.7500e-02	0.9462	-20.033175	0.000381	3.806054	0.644763	0.007612
  97	4.8000e-02	0.9578	-19.962617	0.000706	7.056167	1.195347	0.014112
  98	4.8500e-02	0.9644	-19.910447	0.000522	5.217287	0.883832	0.010434
  99	4.9000e-02	0.9753	-19.867684	0.000428	4.276465	0.724453	0.008553
 100	4.9500e-02	0.9876	-19.806961	0.000607	6.072580	1.028723	0.012145
 101	5.0000e-02	0.9949	-19.747521	0.000594	5.944286	1.006989	0.011888
 102	5.0500e-02	1.0044	-19.695351	0.000522	5.217287	0.883832	0.010434
 103	5.1000e-02	1.0126	-19.635484	0.000599	5.987051	1.014234	0.011974
 104	5.1500e-02	1.0268	-19.588872	0.000466	4.661347	0.789653	0.009322
 105	5.2000e-02	1.0383	-19.540551	0.000483	4.832405	0.818632	0.009664
 106	5.2500e-02	1.0443	-19.494367	0.000462	4.618582	0.782409	0.009237
 107	5.3000e-02	1.0546	-19.425947	0.000684	6.842344	1.159124	0.013684
 108	5.3500e-02	1.0689	-19.365224	0.000607	6.072580	1.028723	0.012145
 109	5.4000e-02	1.0768	-19.312626	0.000526	5.260052	0.891077	0.010520
 110	5.4500e-02	1.0867	-19.254469	0.000582	5.815992	0.985256	0.011631
 111	5.5000e-02	1.0971	-19.199306	0.000552	5.516640	0.934544	0.011033
 112	5.5500e-02	1.1060	-19.151839	0.000475	4.746876	0.804143	0.009493
 113	5.6000e-02	1.1177	-19.100524	0.000513	5.131758	0.869343	0.010263
 114	5.6500e-02	1.1264	-19.022697	0.000778	7.783166	1.318504	0.015566
 115	5.7000e-02	1.1344	-18.979506	0.000432	4.319229	0.731697	0.008638
 116	5.7500e-02	1.1469	-18.937599	0.000419	4.190936	0.709964	0.008381
 117	5.8000e-02	1.1565	-18.867041	0.000706	7.056167	1.195347	0.014112
 118	5.8500e-02	1.1632	-18.810167	0.000569	5.687698	0.963522	0.011375
 119	5.9000e-02	1.1774	-18.770398	0.000398	3.977112	0.673741	0.007954
 120	5.9500e-02	1.1874	-18.705826	0.000646	6.457462	1.093924	0.012914
 121	6.0000e-02	1.1959	-18.644248	0.000616	6.158109	1.043212	0.012316
 122	6.0500e-02	1.2053	-18.596782	0.000475	4.746876	0.804143	0.009493
 123	6.1000e-02	1.2151	-18.548888	0.000479	4.789641	0.811387	0.009579
 124	6.1500e-02	1.2283	-18.484744	0.000641	6.414697	1.086679	0.012829
 125	6.2000e-02	1.2405	-18.441554	0.000432	4.319229	0.731697	0.008638
 126	6.2500e-02	1.2444	-18.375272	0.000663	6.628520	1.122902	0.013256
 127	6.3000e-02	1.2565	-18.333792	0.000415	4.148171	0.702719	0.008296
 128	6.3500e-02	1.2665	-18.267938	0.000659	6.585756	1.115657	0.013171
 129	6.4000e-02	1.2747	-18.216623	0.000513	5.131758	0.869343	0.010263
 130	6.4500e-02	1.2836	-18.164025	0.000526	5.260052	0.891077	0.010520
 131	6.5000e-02	1.2955	-18.106296	0.000577	5.773228	0.978011	0.011546
 132	6.5500e-02	1.3029	-18.045573	0.000607	6.072580	1.028723	0.012145
 133	6.6000e-02	1.3155	-18.001527	0.000440	4.404759	0.746186	0.008809
 134	6.6500e-02	1.3251	-17.939094	0.000624	6.243639	1.057701	0.012487
 135	6.7000e-02	1.3367	-17.889062	0.000500	5.003464	0.847610	0.010006
 136	6.7500e-02	1.3451	-17.833043	0.000560	5.602169	0.949033	0.011204
 137	6.8000e-02	1.3568	-17.770610	0.000624	6.243639	1.057701	0.012487
 138	6.8500e-02	1.3647	-17.721860	0.000488	4.875170	0.825876	0.009750
 139	6.9000e-02	1.3780	-17.678243	0.000436	4.361994	0.738942	0.008724
 140	6.9500e-02	1.3855	-17.619658	0.000586	5.858757	0.992500	0.011717
 141	7.0000e-02	1.3971	-17.573047	0.000466	4.661347	0.789653	0.009322
 142	7.0500e-02	1.4032	-17.510614	0.000624	6.243639	1.057701	0.012487
 143	7.1000e-02	1.4124	-17.442621	0.000680	6.799579	1.151880	0.013598
 144	7.1500e-02	1.4265	-17.400286	0.000423	4.233700	0.717208	0.008467
 145	7.2000e-02	1.4350	-17.339991	0.000603	6.029815	1.021478	0.012059
 146	7.2500e-02	1.4463	-17.290814	0.000492	4.917935	0.833121	0.009835
 147	7.3000e-02	1.4548	-17.217690	0.000731	7.312755	1.238814	0.014625
 148	7.3500e-02	1.4662	-17.156540	0.000612	6.115345	1.035967	0.012230
 149	7.4000e-02	1.4734	-17.110356	0.000462	4.618582	0.782409	0.009237
 150	7.4500e-02	1.4807	-17.060324	0.000500	5.003464	0.847610	0.010006
 151	7.5000e-02	1.4932	-17.008581	0.000517	5.174522	0.876588	0.010349
 152	7.5500e-02	1.5058	-16.953845	0.000547	5.473875	0.927300	0.010947
 153	7.6000e-02	1.5166	-16.898254	0.000556	5.559404	0.941789	0.011118
 154	7.6500e-02	1.5259	-16.841808	0.000564	5.644934	0.956278	0.011289
 155	7.7000e-02	1.5363	-16.784506	0.000573	5.730463	0.970767	0.011460
 156	7.7500e-02	1.5456	-16.737895	0.000466	4.661347	0.789653	0.009322
 157	7.8000e-02	1.5536	-16.676744	0.000612	6.115345	1.035967	0.012230
 158	7.8500e-02	1.5652	-16.622436	0.000543	5.431110	0.920055	0.010862
 159	7.9000e-02	1.5763	-16.568555	0.000539	5.388346	0.912810	0.010776
 160	7.9500e-02	1.5858	-16.510826	0.000577	5.773228	0.978011	0.011546
 161	8.0000e-02	1.5983	-16.453952	0.000569	5.687698	0.963522	0.011375
 162	8.0500e-02	1.6064	-16.401354	0.000526	5.260052	0.891077	0.010520
 163	8.1000e-02	1.6160	-16.343624	0.000577	5.773228	0.978011	0.011546
 164	8.1500e-02	1.6273	-16.287178	0.000564	5.644934	0.956278	0.011289
 165	8.2000e-02	1.6367	-16.232442	0.000547	5.473875	0.927300	0.010947
 166	8.2500e-02	1.6463	-16.185830	0.000466	4.661347	0.789653	0.009322
 167	8.3000e-02	1.6577	-16.128529	0.000573	5.730463	0.970767	0.011460
 168	8.3500e-02	1.6653	-16.065668	0.000629	6.286403	1.064946	0.012572
 169	8.4000e-02	1.6773	-16.012642	0.000530	5.302816	0.898321	0.010605
 170	8.4500e-02	1.6864	-15.955768	0.000569	5.687698	0.963522	0.011375
 171	8.5000e-02	1.6971	-15.910867	0.000449	4.490288	0.760675	0.008980
 172	8.5500e-02	1.7047	-15.847151	0.000637	6.371933	1.079435	0.012743
 173	8.6000e-02	1.7149	-15.791988	0.000552	5.516640	0.934544	0.011033
 174	8.6500e-02	1.7245	-15.736396	0.000556	5.559404	0.941789	0.011118
 175	8.7000e-02	1.7358	-15.671397	0.000650	6.500227	1.101168	0.013000
 176	8.7500e-02	1.7439	-15.623076	0.000483	4.832405	0.818632	0.009664
 177	8.8000e-02	1.7548	-15.551662	0.000714	7.141696	1.209836	0.014283
 178	8.8500e-02	1.7645	-15.509755	0.000419	4.190936	0.709964	0.008381
 179	8.9000e-02	1.7755	-15.460150	0.000496	4.960699	0.840365	0.009921
 180	8.9500e-02	1.7849	-15.404559	0.000556	5.559404	0.941789	0.011118
 181	9.0000e-02	1.7963	-15.349823	0.000547	5.473875	0.927300	0.010947
 182	9.0500e-02	1.8051	-15.284396	0.000654	6.542991	1.108413	0.013085
 183	9.1000e-02	1.8153	-15.235647	0.000488	4.875170	0.825876	0.009750
 184	9.1500e-02	1.8253	-15.183049	0.000526	5.260052	0.891077	0.010520
 185	9.2000e-02	1.8372	-15.129168	0.000539	5.388346	0.912810	0.010776
 186	9.2500e-02	1.8440	-15.068018	0.000612	6.115345	1.035967	0.012230
 187	9.3000e-02	1.8558	-15.023545	0.000445	4.447523	0.753431	0.008895
 188	9.3500e-02	1.8658	-14.967526	0.000560	5.602169	0.949033	0.011204
 189	9.4000e-02	1.8745	-14.902527	0.000650	6.500227	1.101168	0.013000
 190	9.4500e-02	1.8870	-14.858482	0.000440	4.404759	0.746186	0.008809
 191	9.5000e-02	1.8977	-14.800752	0.000577	5.773228	0.978011	0.011546
 192	9.5500e-02	1.9070	-14.745161	0.000556	5.559404	0.941789	0.011118
 193	9.6000e-02	1.9144	-14.683583	0.000616	6.158109	1.043212	0.012316
 194	9.6500e-02	1.9250	-14.620294	0.000633	6.329168	1.072190	0.012658
 195	9.7000e-02	1.9336	-14.567696	0.000526	5.260052	0.891077	0.010520
 196	9.7500e-02	1.9462	-14.517664	0.000500	5.003464	0.847610	0.010006
 197	9.8000e-02	1.9543	-14.457797	0.000599	5.987051	1.014234	0.011974
 198	9.8500e-02	1.9656	-14.409475	0.000483	4.832405	0.818632	0.009664
 199	9.9000e-02	1.9751	-14.344476	0.000650	6.500227	1.101168	0.013000
 200	9.9500e-02	1.9849	-14.302569	0.000419	4.190936	0.709964	0.008381
 201	1.0000e-01	1.9955	-14.234149	0.000684	6.842344	1.159124	0.013684
 202	1.0050e-01	2.0056	-14.182406	0.000517	5.174522	0.876588	0.010349
 203	1.0100e-01	2.0181	-14.133229	0.000492	4.917935	0.833121	0.009835
 204	1.0150e-01	2.0248	-14.078921	0.000543	5.431110	0.920055	0.010862
 205	1.0200e-01	2.0364	-14.023329	0.000556	5.559404	0.941789	0.011118
 206	1.0250e-01	2.0459	-13.968593	0.000547	5.473875	0.927300	0.010947
 207	1.0300e-01	2.0544	-13.910436	0.000582	5.815992	0.985256	0.011631
 208	1.0350e-01	2.0661	-13.849714	0.000607	6.072580	1.028723	0.012145
 209	1.0400e-01	2.0770	-13.800537	0.000492	4.917935	0.833121	0.009835
 210	1.0450e-01	2.0868	-13.756491	0.000440	4.404759	0.746186	0.008809
 211	1.0500e-01	2.0960	-13.684650	0.000718	7.184461	1.217081	0.014368
 212	1.0550e-01	2.1045	-13.620079	0.000646	6.457462	1.093924	0.012914
 213	1.0600e-01	2.1149	-13.576461	0.000436	4.361994	0.738942	0.008724
 214	1.0650e-01	2.1235	-13.522580	0.000539	5.388346	0.912810	0.010776
 215	1.0700e-01	2.1376	-13.477680	0.000449	4.490288	0.760675	0.008980
 216	1.0750e-01	2.1448	-13.412253	0.000654	6.542991	1.108413	0.013085
 217	1.0800e-01	2.1589	-13.355806	0.000564	5.644934	0.956278	0.011289
 218	1.0850e-01	2.1655	-13.305347	0.000505	5.046228	0.854854	0.010092
 219	1.0900e-01	2.1756	-13.244624	0.000607	6.072580	1.028723	0.012145
 220	1.0950e-01	2.1851	-13.195019	0.000496	4.960699	0.840365	0.009921
 221	1.1000e-01	2.1957	-13.134724	0.000603	6.029815	1.021478	0.012059
 222	1.1050e-01	2.2058	-13.077422	0.000573	5.730463	0.970767	0.011460
 223	1.1100e-01	2.2172	-13.030811	0.000466	4.661347	0.789653	0.009322
 224	1.1150e-01	2.2258	-12.968378	0.000624	6.243639	1.057701	0.012487
 225	1.1200e-01	2.2361	-12.924760	0.000436	4.361994	0.738942	0.008724
 226	1.1250e-01	2.2422	-12.845222	0.000795	7.954225	1.347482	0.015908
 227	1.1300e-01	2.2569	-12.801604	0.000436	4.361994	0.738942	0.008724
 228	1.1350e-01	2.2708	-12.751572	0.000500	5.003464	0.847610	0.010006
 229	1.1400e-01	2.2763	-12.690421	0.000612	6.115345	1.035967	0.012230
 230	1.1450e-01	2.2865	-12.628843	0.000616	6.158109	1.043212	0.012316
 231	1.1500e-01	2.2955	-12.581377	0.000475	4.746876	0.804143	0.009493
 232	1.1550e-01	2.3050	-12.529207	0.000522	5.217287	0.883832	0.010434
 233	1.1600e-01	2.3185	-12.473188	0.000560	5.602169	0.949033	0.011204
 234	1.1650e-01	2.3282	-12.424439	0.000488	4.875170	0.825876	0.009750
 235	1.1700e-01	2.3370	-12.370985	0.000535	5.345581	0.905566	0.010691
 236	1.1750e-01	2.3439	-12.297006	0.000740	7.398284	1.253303	0.014796
 237	1.1800e-01	2.3578	-12.260230	0.000368	3.677760	0.623029	0.007355
 238	1.1850e-01	2.3665	-12.196514	0.000637	6.371933	1.079435	0.012743
 239	1.1900e-01	2.3747	-12.152896	0.000436	4.361994	0.738942	0.008724
 240	1.1950e-01	2.3874	-12.080628	0.000723	7.227226	1.224325	0.014454
 241	1.2000e-01	2.3940	-12.035300	0.000453	4.533053	0.767920	0.009066
 242	1.2050e-01	2.4081	-11.977570	0.000577	5.773228	0.978011	0.011546
 243	1.2100e-01	2.4167	-11.921551	0.000560	5.602169	0.949033	0.011204
 244	1.2150e-01	2.4244	-11.864249	0.000573	5.730463	0.970767	0.011460
 245	1.2200e-01	2.4344	-11.801389	0.000629	6.286403	1.064946	0.012572
 246	1.2250e-01	2.4461	-11.747935	0.000535	5.345581	0.905566	0.010691
 247	1.2300e-01	2.4571	-11.697048	0.000509	5.088993	0.862099	0.010177
 248	1.2350e-01	2.4664	-11.650437	0.000466	4.661347	0.789653	0.009322
 249	1.2400e-01	2.4753	-11.593563	0.000569	5.687698	0.963522	0.011375
 250	1.2450e-01	2.4892	-11.536261	0.000573	5.730463	0.970767	0.011460
 251	1.2500e-01	2.4969	-11.486229	0.000500	5.003464	0.847610	0.010006
 252	1.2550e-01	2.5061	-11.433203	0.000530	5.302816	0.898321	0.010605
 253	1.2600e-01	2.5171	-11.380178	0.000530	5.302816	0.898321	0.010605
 254	1.2650e-01	2.5330	-11.321593	0.000586	5.858757	0.992500	0.011717
 255	1.2700e-01	2.5360	-11.267712	0.000539	5.388346	0.912810	0.010776
 256	1.2750e-01	2.5443	-11.215114	0.000526	5.260052	0.891077	0.010520
 257	1.2800e-01	2.5552	-11.144984	0.000701	7.013402	1.188103	0.014026
 258	1.2850e-01	2.5653	-11.082123	0.000629	6.286403	1.064946	0.012572
 259	1.2900e-01	2.5769	-11.044919	0.000372	3.720524	0.630274	0.007441
 260	1.2950e-01	2.5861	-10.984624	0.000603	6.029815	1.021478	0.012059
 261	1.3000e-01	2.5963	-10.929888	0.000547	5.473875	0.927300	0.010947
 262	1.3050e-01	2.6047	-10.872159	0.000577	5.773228	0.978011	0.011546
 263	1.3100e-01	2.6166	-10.822982	0.000492	4.917935	0.833121	0.009835
 264	1.3150e-01	2.6260	-10.770384	0.000526	5.260052	0.891077	0.010520
 265	1.3200e-01	2.6373	-10.713510	0.000569	5.687698	0.963522	0.011375
 266	1.3250e-01	2.6474	-10.665188	0.000483	4.832405	0.818632	0.009664
 267	1.3300e-01	2.6563	-10.607459	0.000577	5.773228	0.978011	0.011546
 268	1.3350e-01	2.6645	-10.545025	0.000624	6.243639	1.057701	0.012487
 269	1.3400e-01	2.6746	-10.493283	0.000517	5.174522	0.876588	0.010349
 270	1.3450e-01	2.6881	-10.435553	0.000577	5.773228	0.978011	0.011546
 271	1.3500e-01	2.6965	-10.397067	0.000385	3.848818	0.652007	0.007697
 272	1.3550e-01	2.7061	-10.329502	0.000676	6.756814	1.144635	0.013513
 273	1.3600e-01	2.7150	-10.280325	0.000492	4.917935	0.833121	0.009835
 274	1.3650e-01	2.7248	-10.220030	0.000603	6.029815	1.021478	0.012059
 275	1.3700e-01	2.7386	-10.162301	0.000577	5.773228	0.978011	0.011546
 276	1.3750e-01	2.7441	-10.111841	0.000505	5.046228	0.854854	0.010092
 277	1.3800e-01	2.7536	-10.071217	0.000406	4.062642	0.688230	0.008125
 278	1.3850e-01	2.7661	-10.005362	0.000659	6.585756	1.115657	0.013171
 279	1.3900e-01	2.7772	-9.956613	0.000488	4.875170	0.825876	0.009750
 280	1.3950e-01	2.7875	-9.898028	0.000586	5.858757	0.992500	0.011717
 281	1.4000e-01	2.7966	-9.839871	0.000582	5.815992	0.985256	0.011631
 282	1.4050e-01	2.8049	-9.786418	0.000535	5.345581	0.905566	0.010691
 283	1.4100e-01	2.8160	-9.733820	0.000526	5.260052	0.891077	0.010520
 284	1.4150e-01	2.8251	-9.679512	0.000543	5.431110	0.920055	0.010862
 285	1.4200e-01	2.8368	-9.616651	0.000629	6.286403	1.064946	0.012572
 286	1.4250e-01	2.8461	-9.570040	0.000466	4.661347	0.789653	0.009322
 287	1.4300e-01	2.8595	-9.507179	0.000629	6.286403	1.064946	0.012572
 288	1.4350e-01	2.8646	-9.466982	0.000402	4.019877	0.680986	0.008039
 289	1.4400e-01	2.8773	-9.412246	0.000547	5.473875	0.927300	0.010947
 290	1.4450e-01	2.8857	-9.348102	0.000641	6.414697	1.086679	0.012829
 291	1.4500e-01	2.8931	-9.292939	0.000552	5.516640	0.934544	0.011033
 292	1.4550e-01	2.9077	-9.236492	0.000564	5.644934	0.956278	0.011289
 293	1.4600e-01	2.9156	-9.189453	0.000470	4.704111	0.796898	0.009408
 294	1.4650e-01	2.9251	-9.136000	0.000535	5.345581	0.905566	0.010691
 295	1.4700e-01	2.9358	-9.081264	0.000547	5.473875	0.927300	0.010947
 296	1.4750e-01	2.9468	-9.023107	0.000582	5.815992	0.985256	0.011631
 297	1.4800e-01	2.9578	-8.965805	0.000573	5.730463	0.970767	0.011460
 298	1.4850e-01	2.9630	-8.910214	0.000556	5.559404	0.941789	0.011118
 299	1.4900e-01	2.9758	-8.844787	0.000654	6.542991	1.108413	0.013085
 300	1.4950e-01	2.9858	-8.810150	0.000346	3.463937	0.586807	0.006928
 301	1.5000e-01	2.9945	-8.759690	0.000505	5.046228	0.854854	0.010092
 302	1.5050e-01	3.0061	-8.683573	0.000761	7.612107	1.289526	0.015223
 303	1.5100e-01	3.0145	-8.649363	0.000342	3.421172	0.579562	0.006842
 304	1.5150e-01	3.0276	-8.597192	0.000522	5.217287	0.883832	0.010434
 305	1.5200e-01	3.0386	-8.527062	0.000701	7.013402	1.188103	0.014026
 306	1.5250e-01	3.0487	-8.483444	0.000436	4.361994	0.738942	0.008724
 307	1.5300e-01	3.0564	-8.425287	0.000582	5.815992	0.985256	0.011631
 308	1.5350e-01	3.0661	-8.382952	0.000423	4.233700	0.717208	0.008467
 309	1.5400e-01	3.0771	-8.314104	0.000689	6.885108	1.166369	0.013770
 310	1.5450e-01	3.0875	-8.264072	0.000500	5.003464	0.847610	0.010006
 311	1.5500e-01	3.0948	-8.209336	0.000547	5.473875	0.927300	0.010947
 312	1.5550e-01	3.1027	-8.155883	0.000535	5.345581	0.905566	0.010691
 313	1.5600e-01	3.1174	-8.102002	0.000539	5.388346	0.912810	0.010776
 314	1.5650e-01	3.1261	-8.039569	0.000624	6.243639	1.057701	0.012487
 315	1.5700e-01	3.1360	-7.993385	0.000462	4.618582	0.782409	0.009237
 316	1.5750e-01	3.1448	-7.946347	0.000470	4.704111	0.796898	0.009408
 317	1.5800e-01	3.1607	-7.884769	0.000616	6.158109	1.043212	0.012316
 318	1.5850e-01	3.1659	-7.834309	0.000505	5.046228	0.854854	0.010092
 319	1.5900e-01	3.1750	-7.782566	0.000517	5.174522	0.876588	0.010349
 320	1.5950e-01	3.1851	-7.725692	0.000569	5.687698	0.963522	0.011375
 321	1.6000e-01	3.1961	-7.661548	0.000641	6.414697	1.086679	0.012829
 322	1.6050e-01	3.2074	-7.622634	0.000389	3.891583	0.659252	0.007783
 323	1.6100e-01	3.2190	-7.569609	0.000530	5.302816	0.898321	0.010605
 324	1.6150e-01	3.2254	-7.508886	0.000607	6.072580	1.028723	0.012145
 325	1.6200e-01	3.2350	-7.472110	0.000368	3.677760	0.623029	0.007355
 326	1.6250e-01	3.2445	-7.405828	0.000663	6.628520	1.122902	0.013256
 327	1.6300e-01	3.2556	-7.348099	0.000577	5.773228	0.978011	0.011546
 328	1.6350e-01	3.2654	-7.300633	0.000475	4.746876	0.804143	0.009493
 329	1.6400e-01	3.2741	-7.236916	0.000637	6.371933	1.079435	0.012743
 330	1.6450e-01	3.2843	-7.181753	0.000552	5.516640	0.934544	0.011033
 331	1.6500e-01	3.2965	-7.135569	0.000462	4.618582	0.782409	0.009237
 332	1.6550e-01	3.3041	-7.075702	0.000599	5.987051	1.014234	0.011974
 333	1.6600e-01	3.3167	-7.021393	0.000543	5.431110	0.920055	0.010862
 334	1.6650e-01	3.3257	-6.976493	0.000449	4.490288	0.760675	0.008980
 335	1.6700e-01	3.3380	-6.926033	0.000505	5.046228	0.854854	0.010092
 336	1.6750e-01	3.3466	-6.855902	0.000701	7.013402	1.188103	0.014026
 337	1.6800e-01	3.3524	-6.804587	0.000513	5.131758	0.869343	0.010263
 338	1.6850e-01	3.3643	-6.754983	0.000496	4.960699	0.840365	0.009921
 339	1.6900e-01	3.3761	-6.701957	0.000530	5.302816	0.898321	0.010605
 340	1.6950e-01	3.3863	-6.652353	0.000496	4.960699	0.840365	0.009921
 341	1.7000e-01	3.3960	-6.598044	0.000543	5.431110	0.920055	0.010862
 342	1.7050e-01	3.4064	-6.546729	0.000513	5.131758	0.869343	0.010263
 343	1.7100e-01	3.4171	-6.493704	0.000530	5.302816	0.898321	0.010605
 344	1.7150e-01	3.4250	-6.441961	0.000517	5.174522	0.876588	0.010349
 345	1.7200e-01	3.4357	-6.387653	0.000543	5.431110	0.920055	0.010862
 346	1.7250e-01	3.4486	-6.332061	0.000556	5.559404	0.941789	0.011118
 347	1.7300e-01	3.4547	-6.283312	0.000488	4.875170	0.825876	0.009750
 348	1.7350e-01	3.4633	-6.212326	0.000710	7.098932	1.202592	0.014197
 349	1.7400e-01	3.4747	-6.171702	0.000406	4.062642	0.688230	0.008125
 350	1.7450e-01	3.4876	-6.119104	0.000526	5.260052	0.891077	0.010520
 351	1.7500e-01	3.4950	-6.068644	0.000505	5.046228	0.854854	0.010092
 352	1.7550e-01	3.5091	-6.005783	0.000629	6.286403	1.064946	0.012572
 353	1.7600e-01	3.5144	-5.952330	0.000535	5.345581	0.905566	0.010691
 354	1.7650e-01	3.5242	-5.907857	0.000445	4.447523	0.753431	0.008895
 355	1.7700e-01	3.5361	-5.849700	0.000582	5.815992	0.985256	0.011631
 356	1.7750e-01	3.5464	-5.792398	0.000573	5.730463	0.970767	0.011460
 357	1.7800e-01	3.5565	-5.750491	0.000419	4.190936	0.709964	0.008381
 358	1.7850e-01	3.5669	-5.688913	0.000616	6.158109	1.043212	0.012316
 359	1.7900e-01	3.5750	-5.636743	0.000522	5.217287	0.883832	0.010434
 360	1.7950e-01	3.5895	-5.595691	0.000411	4.105406	0.695475	0.008210
 361	1.8000e-01	3.5974	-5.539672	0.000560	5.602169	0.949033	0.011204
 362	1.8050e-01	3.6042	-5.487074	0.000526	5.260052	0.891077	0.010520
 363	1.8100e-01	3.6160	-5.430627	0.000564	5.644934	0.956278	0.011289
 364	1.8150e-01	3.6272	-5.386154	0.000445	4.447523	0.753431	0.008895
 365	1.8200e-01	3.6357	-5.322866	0.000633	6.329168	1.072190	0.012658
 366	1.8250e-01	3.6462	-5.268985	0.000539	5.388346	0.912810	0.010776
 367	1.8300e-01	3.6552	-5.212966	0.000560	5.602169	0.949033	0.011204
 368	1.8350e-01	3.6685	-5.168065	0.000449	4.490288	0.760675	0.008980
 369	1.8400e-01	3.6768	-5.106487	0.000616	6.158109	1.043212	0.012316
 370	1.8450e-01	3.6847	-5.059876	0.000466	4.661347	0.789653	0.009322
 371	1.8500e-01	3.6963	-5.011554	0.000483	4.832405	0.818632	0.009664
 372	1.8550e-01	3.7073	-4.964943	0.000466	4.661347	0.789653	0.009322
 373	1.8600e-01	3.7184	-4.911490	0.000535	5.345581	0.905566	0.010691
 374	1.8650e-01	3.7253	-4.857609	0.000539	5.388346	0.912810	0.010776
 375	1.8700e-01	3.7375	-4.794748	0.000629	6.286403	1.064946	0.012572
 376	1.8750e-01	3.7485	-4.747710	0.000470	4.704111	0.796898	0.009408
 377	1.8800e-01	3.7579	-4.696822	0.000509	5.088993	0.862099	0.010177
 378	1.8850e-01	3.7675	-4.653204	0.000436	4.361994	0.738942	0.008724
 379	1.8900e-01	3.7762	-4.596758	0.000564	5.644934	0.956278	0.011289
 380	1.8950e-01	3.7863	-4.539456	0.000573	5.730463	0.970767	0.011460
 381	1.9000e-01	3.7952	-4.490279	0.000492	4.917935	0.833121	0.009835
 382	1.9050e-01	3.8068	-4.444523	0.000458	4.575817	0.775164	0.009151
 383	1.9100e-01	3.8147	-4.370972	0.000736	7.355519	1.246059	0.014710
 384	1.9150e-01	3.8269	-4.322650	0.000483	4.832405	0.818632	0.009664
 385	1.9200e-01	3.8342	-4.283736	0.000389	3.891583	0.659252	0.007783
 386	1.9250e-01	3.8449	-4.225152	0.000586	5.858757	0.992500	0.011717
 387	1.9300e-01	3.8546	-4.165284	0.000599	5.987051	1.014234	0.011974
 388	1.9350e-01	3.8647	-4.122521	0.000428	4.276465	0.724453	0.008553
 389	1.9400e-01	3.8756	-4.065647	0.000569	5.687698	0.963522	0.011375
 390	1.9450e-01	3.8867	-4.020747	0.000449	4.490288	0.760675	0.008980
 391	1.9500e-01	3.8977	-3.966011	0.000547	5.473875	0.927300	0.010947
 392	1.9550e-01	3.9070	-3.906571	0.000594	5.944286	1.006989	0.011888
 393	1.9600e-01	3.9151	-3.861242	0.000453	4.533053	0.767920	0.009066
 394	1.9650e-01	3.9264	-3.813776	0.000475	4.746876	0.804143	0.009493
 395	1.9700e-01	3.9362	-3.762033	0.000517	5.174522	0.876588	0.010349
 396	1.9750e-01	3.9465	-3.700883	0.000612	6.115345	1.035967	0.012230
 397	1.9800e-01	3.9558	-3.661541	0.000393	3.934348	0.666497	0.007868
 398	1.9850e-01	3.9694	-3.599536	0.000620	6.200874	1.050456	0.012401
 399	1.9900e-01	3.9749	-3.550786	0.000488	4.875170	0.825876	0.009750
 400	1.9950e-01	3.9825	-3.496478	0.000543	5.431110	0.920055	0.010862
 401	2.0000e-01	3.9954	-3.452433	0.000440	4.404759	0.746186	0.008809
 402	2.0050e-01	4.0070	-3.403256	0.000492	4.917935	0.833121	0.009835
 403	2.0100e-01	4.0173	-3.346809	0.000564	5.644934	0.956278	0.011289
 404	2.0150e-01	4.0256	-3.285231	0.000616	6.158109	1.043212	0.012316
 405	2.0200e-01	4.0387	-3.231350	0.000539	5.388346	0.912810	0.010776
 406	2.0250e-01	4.0466	-3.186877	0.000445	4.447523	0.753431	0.008895
 407	2.0300e-01	4.0540	-3.128293	0.000586	5.858757	0.992500	0.011717
 408	2.0350e-01	4.0680	-3.085103	0.000432	4.319229	0.731697	0.008638
 409	2.0400e-01	4.0771	-3.033360	0.000517	5.174522	0.876588	0.010349
 410	2.0450e-01	4.0857	-2.988459	0.000449	4.490288	0.760675	0.008980
 411	2.0500e-01	4.0970	-2.937999	0.000505	5.046228	0.854854	0.010092
 412	2.0550e-01	4.1066	-2.878987	0.000590	5.901521	0.999745	0.011802
 413	2.0600e-01	4.1171	-2.835797	0.000432	4.319229	0.731697	0.008638
 414	2.0650e-01	4.1277	-2.771653	0.000641	6.414697	1.086679	0.012829
 415	2.0700e-01	4.1354	-2.721193	0.000505	5.046228	0.854854	0.010092
 416	2.0750e-01	4.1446	-2.677576	0.000436	4.361994	0.738942	0.008724
 417	2.0800e-01	4.1555	-2.632675	0.000449	4.490288	0.760675	0.008980
 418	2.0850e-01	4.1669	-2.568104	0.000646	6.457462	1.093924	0.012914
 419	2.0900e-01	4.1766	-2.527479	0.000406	4.062642	0.688230	0.008125
 420	2.0950e-01	4.1861	-2.462480	0.000650	6.500227	1.101168	0.013000
 421	2.1000e-01	4.1974	-2.414158	0.000483	4.832405	0.818632	0.009664
 422	2.1050e-01	4.2058	-2.361133	0.000530	5.302816	0.898321	0.010605
 423	2.1100e-01	4.2168	-2.319653	0.000415	4.148171	0.702719	0.008296
 424	2.1150e-01	4.2270	-2.264062	0.000556	5.559404	0.941789	0.011118
 425	2.1200e-01	4.2352	-2.221299	0.000428	4.276465	0.724453	0.008553
 426	2.1250e-01	4.2468	-2.165708	0.000556	5.559404	0.941789	0.011118
 427	2.1300e-01	4.2582	-2.130643	0.000351	3.506701	0.594051	0.007013
 428	2.1350e-01	4.2643	-2.065644	0.000650	6.500227	1.101168	0.013000
 429	2.1400e-01	4.2764	-2.001928	0.000637	6.371933	1.079435	0.012743
 430	2.1450e-01	4.2880	-1.960448	0.000415	4.148171	0.702719	0.008296
 431	2.1500e-01	4.2963	-1.903574	0.000569	5.687698	0.963522	0.011375
 432	2.1550e-01	4.3091	-1.869792	0.000338	3.378407	0.572318	0.006756
 433	2.1600e-01	4.3173	-1.810779	0.000590	5.901521	0.999745	0.011802
 434	2.1650e-01	4.3265	-1.753477	0.000573	5.730463	0.970767	0.011460
 435	2.1700e-01	4.3341	-1.711570	0.000419	4.190936	0.709964	0.008381
 436	2.1750e-01	4.3460	-1.658117	0.000535	5.345581	0.905566	0.010691
 437	2.1800e-01	4.3552	-1.611078	0.000470	4.704111	0.796898	0.009408
 438	2.1850e-01	4.3665	-1.562329	0.000488	4.875170	0.825876	0.009750
 439	2.1900e-01	4.3767	-1.505455	0.000569	5.687698	0.963522	0.011375
 440	2.1950e-01	4.3880	-1.453284	0.000522	5.217287	0.883832	0.010434
 441	2.2000e-01	4.3964	-1.398121	0.000552	5.516640	0.934544	0.011033
 442	2.2050e-01	4.4067	-1.366477	0.000316	3.164584	0.536095	0.006329
 443	2.2100e-01	4.4196	-1.297629	0.000689	6.885108	1.166369	0.013770
 444	2.2150e-01	4.4278	-1.257004	0.000406	4.062642	0.688230	0.008125
 445	2.2200e-01	4.4333	-1.185591	0.000714	7.141696	1.209836	0.014283
 446	2.2250e-01	4.4476	-1.144539	0.000411	4.105406	0.695475	0.008210
 447	2.2300e-01	4.4580	-1.114605	0.000299	2.993525	0.507117	0.005987
 448	2.2350e-01	4.4667	-1.046185	0.000684	6.842344	1.159124	0.013684
 449	2.2400e-01	4.4736	-0.999574	0.000466	4.661347	0.789653	0.009322
 450	2.2450e-01	4.4897	-0.958522	0.000411	4.105406	0.695475	0.008210
 451	2.2500e-01	4.4977	-0.900365	0.000582	5.815992	0.985256	0.011631
 452	2.2550e-01	4.5068	-0.840497	0.000599	5.987051	1.014234	0.011974
 453	2.2600e-01	4.5166	-0.802866	0.000376	3.763289	0.637518	0.007526
 454	2.2650e-01	4.5297	-0.762242	0.000406	4.062642	0.688230	0.008125
 455	2.2700e-01	4.5370	-0.706651	0.000556	5.559404	0.941789	0.011118
 456	2.2750e-01	4.5471	-0.651487	0.000552	5.516640	0.934544	0.011033
 457	2.2800e-01	4.5541	-0.601455	0.000500	5.003464	0.847610	0.010006
 458	2.2850e-01	4.5660	-0.552706	0.000488	4.875170	0.825876	0.009750
 459	2.2900e-01	4.5791	-0.501818	0.000509	5.088993	0.862099	0.010177
 460	2.2950e-01	4.5862	-0.441095	0.000607	6.072580	1.028723	0.012145
 461	2.3000e-01	4.5981	-0.409451	0.000316	3.164584	0.536095	0.006329
 462	2.3050e-01	4.6063	-0.355998	0.000535	5.345581	0.905566	0.010691
 463	2.3100e-01	4.6158	-0.308959	0.000470	4.704111	0.796898	0.009408
 464	2.3150e-01	4.6251	-0.239256	0.000697	6.970638	1.180858	0.013941
 465	2.3200e-01	4.6375	-0.191790	0.000475	4.746876	0.804143	0.009493
 466	2.3250e-01	4.6460	-0.155869	0.000359	3.592230	0.608540	0.007184
 467	2.3300e-01	4.6558	-0.088305	0.000676	6.756814	1.144635	0.013513
 468	2.3350e-01	4.6643	-0.050246	0.000381	3.806054	0.644763	0.007612
 469	2.3400e-01	4.6796	-0.002352	0.000479	4.789641	0.811387	0.009579
 470	2.3450e-01	4.6866	0.053239	0.000556	5.559404	0.941789	0.011118
 471	2.3500e-01	4.6952	0.098995	0.000458	4.575817	0.775164	0.009151
 472	2.3550e-01	4.7043	0.143896	0.000449	4.490288	0.760675	0.008980
 473	2.3600e-01	4.7150	0.207612	0.000637	6.371933	1.079435	0.012743
 474	2.3650e-01	4.7296	0.256361	0.000488	4.875170	0.825876	0.009750
 475	2.3700e-01	4.7351	0.300834	0.000445	4.447523	0.753431	0.008895
 476	2.3750e-01	4.7458	0.341459	0.000406	4.062642	0.688230	0.008125
 477	2.3800e-01	4.7546	0.418431	0.000770	7.697637	1.304015	0.015395
 478	2.3850e-01	4.7675	0.442806	0.000244	2.437585	0.412938	0.004875
 479	2.3900e-01	4.7754	0.490700	0.000479	4.789641	0.811387	0.009579
 480	2.3950e-01	4.7881	0.547574	0.000569	5.687698	0.963522	0.011375
 481	2.4000e-01	4.7968	0.586916	0.000393	3.934348	0.666497	0.007868
 482	2.4050e-01	4.8071	0.645928	0.000590	5.901521	0.999745	0.011802
 483	2.4100e-01	4.8183	0.689546	0.000436	4.361994	0.738942	0.008724
 484	2.4150e-01	4.8267	0.735729	0.000462	4.618582	0.782409	0.009237
 485	2.4200e-01	4.8395	0.781913	0.000462	4.618582	0.782409	0.009237
 486	2.4250e-01	4.8425	0.854609	0.000727	7.269990	1.231570	0.014539
 487	2.4300e-01	4.8599	0.884115	0.000295	2.950761	0.499872	0.005901
 488	2.4350e-01	4.8679	0.931582	0.000475	4.746876	0.804143	0.009493
 489	2.4400e-01	4.8773	0.981614	0.000500	5.003464	0.847610	0.010006
 490	2.4450e-01	4.8877	1.029935	0.000483	4.832405	0.818632	0.009664
 491	2.4500e-01	4.8975	1.068422	0.000385	3.848818	0.652007	0.007697
 492	2.4550e-01	4.9078	1.120592	0.000522	5.217287	0.883832	0.010434
 493	2.4600e-01	4.9182	1.174473	0.000539	5.388346	0.912810	0.010776
 494	2.4650e-01	4.9249	1.225360	0.000509	5.088993	0.862099	0.010177
 495	2.4700e-01	4.9365	1.268978	0.000436	4.361994	0.738942	0.008724
 496	2.4750e-01	4.9466	1.328846	0.000599	5.987051	1.014234	0.011974
 497	2.4800e-01	4.9582	1.368615	0.000398	3.977112	0.673741	0.007954
 498	2.4850e-01	4.9667	1.417792	0.000492	4.917935	0.833121	0.009835
 499	2.4900e-01	4.9774	1.470390	0.000526	5.260052	0.891077	0.010520
 500	2.4950e-01	4.9857	1.519566	0.000492	4.917935	0.833121	0.009835
 501	2.5000e-01	4.9966	1.561474	0.000419	4.190936	0.709964	0.008381
 502	2.5050e-01	5.0079	1.618775	0.000573	5.730463	0.970767	0.011460
 503	2.5100e-01	5.0166	1.669663	0.000509	5.088993	0.862099	0.010177
 504	2.5150e-01	5.0250	1.712425	0.000428	4.276465	0.724453	0.008553
 505	2.5200e-01	5.0348	1.762030	0.000496	4.960699	0.840365	0.009921
 506	2.5250e-01	5.0470	1.815055	0.000530	5.302816	0.898321	0.010605
 507	2.5300e-01	5.0586	1.864232	0.000492	4.917935	0.833121	0.009835
 508	2.5350e-01	5.0681	1.898442	0.000342	3.421172	0.579562	0.006842
 509	2.5400e-01	5.0757	1.957027	0.000586	5.858757	0.992500	0.011717
 510	2.5450e-01	5.0854	2.007914	0.000509	5.088993	0.862099	0.010177
 511	2.5500e-01	5.0977	2.051532	0.000436	4.361994	0.738942	0.008724
 512	2.5550e-01	5.1068	2.096861	0.000453	4.533053	0.767920	0.009066
 513	2.5600e-01	5.1138	2.146893	0.000500	5.003464	0.847610	0.010006
 514	2.5650e-01	5.1312	2.213602	0.000667	6.671285	1.130146	0.013342
 515	2.5700e-01	5.1373	2.240543	0.000269	2.694173	0.456405	0.005388
 516	2.5750e-01	5.1484	2.300838	0.000603	6.029815	1.021478	0.012059
 517	2.5800e-01	5.1546	2.355146	0.000543	5.431110	0.920055	0.010862
 518	2.5850e-01	5.1620	2.391067	0.000359	3.592230	0.608540	0.007184
 519	2.5900e-01	5.1770	2.441527	0.000505	5.046228	0.854854	0.010092
 520	2.5950e-01	5.1868	2.481296	0.000398	3.977112	0.673741	0.007954
 521	2.6000e-01	5.1984	2.533894	0.000526	5.260052	0.891077	0.010520
 522	2.6050e-01	5.2071	2.568531	0.000346	3.463937	0.586807	0.006928
 523	2.6100e-01	5.2167	2.620701	0.000522	5.217287	0.883832	0.010434
 524	2.6150e-01	5.2271	2.682280	0.000616	6.158109	1.043212	0.012316
 525	2.6200e-01	5.2371	2.716490	0.000342	3.421172	0.579562	0.006842
 526	2.6250e-01	5.2463	2.776785	0.000603	6.029815	1.021478	0.012059
 527	2.6300e-01	5.2573	2.827672	0.000509	5.088993	0.862099	0.010177
 528	2.6350e-01	5.2670	2.862310	0.000346	3.463937	0.586807	0.006928
 529	2.6400e-01	5.2740	2.914052	0.000517	5.174522	0.876588	0.010349
 530	2.6450e-01	5.2848	2.976058	0.000620	6.200874	1.050456	0.012401
 531	2.6500e-01	5.2972	3.011979	0.000359	3.592230	0.608540	0.007184
 532	2.6550e-01	5.3067	3.046616	0.000346	3.463937	0.586807	0.006928
 533	2.6600e-01	5.3171	3.115892	0.000693	6.927873	1.173613	0.013855
 534	2.6650e-01	5.3271	3.145825	0.000299	2.993525	0.507117	0.005987
 535	2.6700e-01	5.3381	3.194575	0.000488	4.875170	0.825876	0.009750
 536	2.6750e-01	5.3455	3.245462	0.000509	5.088993	0.862099	0.010177
 537	2.6800e-01	5.3561	3.293784	0.000483	4.832405	0.818632	0.009664
 538	2.6850e-01	5.3687	3.333980	0.000402	4.019877	0.680986	0.008039
 539	2.6900e-01	5.3763	3.384868	0.000509	5.088993	0.862099	0.010177
 540	2.6950e-01	5.3870	3.429341	0.000445	4.447523	0.753431	0.008895
 541	2.7000e-01	5.3946	3.489636	0.000603	6.029815	1.021478	0.012059
 542	2.7050e-01	5.4092	3.538385	0.000488	4.875170	0.825876	0.009750
 543	2.7100e-01	5.4132	3.578154	0.000398	3.977112	0.673741	0.007954
 544	2.7150e-01	5.4272	3.630325	0.000522	5.217287	0.883832	0.010434
 545	2.7200e-01	5.4358	3.678219	0.000479	4.789641	0.811387	0.009579
 546	2.7250e-01	5.4443	3.730817	0.000526	5.260052	0.891077	0.010520
 547	2.7300e-01	5.4547	3.762889	0.000321	3.207349	0.543340	0.006414
 548	2.7350e-01	5.4651	3.810783	0.000479	4.789641	0.811387	0.009579
 549	2.7400e-01	5.4752	3.853545	0.000428	4.276465	0.724453	0.008553
 550	2.7450e-01	5.4877	3.904433	0.000509	5.088993	0.862099	0.010177
 551	2.7500e-01	5.4933	3.957458	0.000530	5.302816	0.898321	0.010605
 552	2.7550e-01	5.5045	4.001504	0.000440	4.404759	0.746186	0.008809
 553	2.7600e-01	5.5173	4.048970	0.000475	4.746876	0.804143	0.009493
 554	2.7650e-01	5.5286	4.094298	0.000453	4.533053	0.767920	0.009066
 555	2.7700e-01	5.5371	4.135778	0.000415	4.148171	0.702719	0.008296
 556	2.7750e-01	5.5463	4.186238	0.000505	5.046228	0.854854	0.010092
 557	2.7800e-01	5.5582	4.244395	0.000582	5.815992	0.985256	0.011631
 558	2.7850e-01	5.5673	4.288868	0.000445	4.447523	0.753431	0.008895
 559	2.7900e-01	5.5771	4.337189	0.000483	4.832405	0.818632	0.009664
 560	2.7950e-01	5.5859	4.378241	0.000411	4.105406	0.695475	0.008210
 561	2.8000e-01	5.5969	4.424853	0.000466	4.661347	0.789653	0.009322
 562	2.8050e-01	5.6067	4.468898	0.000440	4.404759	0.746186	0.008809
 563	2.8100e-01	5.6155	4.508239	0.000393	3.934348	0.666497	0.007868
 564	2.8150e-01	5.6253	4.562548	0.000543	5.431110	0.920055	0.010862
 565	2.8200e-01	5.6384	4.612580	0.000500	5.003464	0.847610	0.010006
 566	2.8250e-01	5.6445	4.657053	0.000445	4.447523	0.753431	0.008895
 567	2.8300e-01	5.6549	4.701526	0.000445	4.447523	0.753431	0.008895
 568	2.8350e-01	5.6668	4.754552	0.000530	5.302816	0.898321	0.010605
 569	2.8400e-01	5.6799	4.801590	0.000470	4.704111	0.796898	0.009408
 570	2.8450e-01	5.6833	4.851195	0.000496	4.960699	0.840365	0.009921
 571	2.8500e-01	5.6940	4.899517	0.000483	4.832405	0.818632	0.009664
 572	2.8550e-01	5.7068	4.941424	0.000419	4.190936	0.709964	0.008381
 573	2.8600e-01	5.7175	4.988890	0.000475	4.746876	0.804143	0.009493
 574	2.8650e-01	5.7235	5.034646	0.000458	4.575817	0.775164	0.009151
 575	2.8700e-01	5.7373	5.077409	0.000428	4.276465	0.724453	0.008553
 576	2.8750e-01	5.7458	5.120599	0.000432	4.319229	0.731697	0.008638
 577	2.8800e-01	5.7550	5.177045	0.000564	5.644934	0.956278	0.011289
 578	2.8850e-01	5.7666	5.216387	0.000393	3.934348	0.666497	0.007868
 579	2.8900e-01	5.7758	5.271551	0.000552	5.516640	0.934544	0.011033
 580	2.8950e-01	5.7870	5.322438	0.000509	5.088993	0.862099	0.010177
 581	2.9000e-01	5.7941	5.364773	0.000423	4.233700	0.717208	0.008467
 582	2.9050e-01	5.8051	5.405397	0.000406	4.062642	0.688230	0.008125
 583	2.9100e-01	5.8142	5.458850	0.000535	5.345581	0.905566	0.010691
 584	2.9150e-01	5.8258	5.490067	0.000312	3.121819	0.528851	0.006243
 585	2.9200e-01	5.8383	5.537106	0.000470	4.704111	0.796898	0.009408
 586	2.9250e-01	5.8466	5.585855	0.000488	4.875170	0.825876	0.009750
 587	2.9300e-01	5.8551	5.643585	0.000577	5.773228	0.978011	0.011546
 588	2.9350e-01	5.8664	5.680360	0.000368	3.677760	0.623029	0.007355
 589	2.9400e-01	5.8801	5.729537	0.000492	4.917935	0.833121	0.009835
 590	2.9450e-01	5.8868	5.770589	0.000411	4.105406	0.695475	0.008210
 591	2.9500e-01	5.8939	5.825753	0.000552	5.516640	0.934544	0.011033
 592	2.9550e-01	5.9067	5.872364	0.000466	4.661347	0.789653	0.009322
 593	2.9600e-01	5.9204	5.909140	0.000368	3.677760	0.623029	0.007355
 594	2.9650e-01	5.9268	5.951902	0.000428	4.276465	0.724453	0.008553
 595	2.9700e-01	5.9363	6.000652	0.000488	4.875170	0.825876	0.009750
 596	2.9750e-01	5.9460	6.049401	0.000488	4.875170	0.825876	0.009750
 597	2.9800e-01	5.9570	6.105847	0.000564	5.644934	0.956278	0.011289
 598	2.9850e-01	5.9657	6.140913	0.000351	3.506701	0.594051	0.007013
 599	2.9900e-01	5.9729	6.183248	0.000423	4.233700	0.717208	0.008467
 600	2.9950e-01	5.9845	6.237556	0.000543	5.431110	0.920055	0.010862
 601	3.0000e-01	5.9979	6.282029	0.000445	4.447523	0.753431	0.008895
 602	3.0050e-01	6.0123	6.325647	0.000436	4.361994	0.738942	0.008724
 603	3.0100e-01	6.0162	6.360285	0.000346	3.463937	0.586807	0.006928
 604	3.0150e-01	6.0269	6.419297	0.000590	5.901521	0.999745	0.011802
 605	3.0200e-01	6.0361	6.469329	0.000500	5.003464	0.847610	0.010006
 606	3.0250e-01	6.0443	6.515512	0.000462	4.618582	0.782409	0.009237
 607	3.0300e-01	6.0568	6.561696	0.000462	4.618582	0.782409	0.009237
 608	3.0350e-01	6.0681	6.600182	0.000385	3.848818	0.652007	0.007697
 609	3.0400e-01	6.0776	6.643800	0.000436	4.361994	0.738942	0.008724
 610	3.0450e-01	6.0883	6.685280	0.000415	4.148171	0.702719	0.008296
 611	3.0500e-01	6.0950	6.732746	0.000475	4.746876	0.804143	0.009493
 612	3.0550e-01	6.1060	6.774226	0.000415	4.148171	0.702719	0.008296
 613	3.0600e-01	6.1191	6.827679	0.000535	5.345581	0.905566	0.010691
 614	3.0650e-01	6.1261	6.867876	0.000402	4.019877	0.680986	0.008039
 615	3.0700e-01	6.1359	6.921329	0.000535	5.345581	0.905566	0.010691
 616	3.0750e-01	6.1462	6.969223	0.000479	4.789641	0.811387	0.009579
 617	3.0800e-01	6.1594	7.020966	0.000517	5.174522	0.876588	0.010349
 618	3.0850e-01	6.1676	7.060735	0.000398	3.977112	0.673741	0.007954
 619	3.0900e-01	6.1756	7.098366	0.000376	3.763289	0.637518	0.007526
 620	3.0950e-01	6.1859	7.178332	0.000800	7.996989	1.354727	0.015993
 621	3.1000e-01	6.1969	7.190305	0.000120	1.197410	0.202847	0.002395
 622	3.1050e-01	6.2050	7.237772	0.000475	4.746876	0.804143	0.009493
 623	3.1100e-01	6.2155	7.292080	0.000543	5.431110	0.920055	0.010862
 624	3.1150e-01	6.2262	7.327145	0.000351	3.506701	0.594051	0.007013
 625	3.1200e-01	6.2360	7.360500	0.000334	3.335643	0.565073	0.006671
 626	3.1250e-01	6.2451	7.415664	0.000552	5.516640	0.934544	0.011033
 627	3.1300e-01	6.2564	7.469544	0.000539	5.388346	0.912810	0.010776
 628	3.1350e-01	6.2665	7.502899	0.000334	3.335643	0.565073	0.006671
 629	3.1400e-01	6.2762	7.562339	0.000594	5.944286	1.006989	0.011888
 630	3.1450e-01	6.2866	7.607240	0.000449	4.490288	0.760675	0.008980
 631	3.1500e-01	6.2952	7.645298	0.000381	3.806054	0.644763	0.007612
 632	3.1550e-01	6.3098	7.679508	0.000342	3.421172	0.579562	0.006842
 633	3.1600e-01	6.3156	7.744935	0.000654	6.542991	1.108413	0.013085
 634	3.1650e-01	6.3249	7.795823	0.000509	5.088993	0.862099	0.010177
 635	3.1700e-01	6.3382	7.830888	0.000351	3.506701	0.594051	0.007013
 636	3.1750e-01	6.3452	7.871940	0.000411	4.105406	0.695475	0.008210
 637	3.1800e-01	6.3589	7.910854	0.000389	3.891583	0.659252	0.007783
 638	3.1850e-01	6.3654	7.959175	0.000483	4.832405	0.818632	0.009664
 639	3.1900e-01	6.3806	8.007497	0.000483	4.832405	0.818632	0.009664
 640	3.1950e-01	6.3876	8.048121	0.000406	4.062642	0.688230	0.008125
 641	3.2000e-01	6.3947	8.101575	0.000535	5.345581	0.905566	0.010691
 642	3.2050e-01	6.4063	8.137495	0.000359	3.592230	0.608540	0.007184
 643	3.2100e-01	6.4154	8.184106	0.000466	4.661347	0.789653	0.009322
 644	3.2150e-01	6.4264	8.229007	0.000449	4.490288	0.760675	0.008980
 645	3.2200e-01	6.4374	8.280750	0.000517	5.174522	0.876588	0.010349
 646	3.2250e-01	6.4471	8.321802	0.000411	4.105406	0.695475	0.008210
 647	3.2300e-01	6.4563	8.363709	0.000419	4.190936	0.709964	0.008381
 648	3.2350e-01	6.4688	8.409037	0.000453	4.533053	0.767920	0.009066
 649	3.2400e-01	6.4764	8.449662	0.000406	4.062642	0.688230	0.008125
 650	3.2450e-01	6.4862	8.487293	0.000376	3.763289	0.637518	0.007526
 651	3.2500e-01	6.4951	8.549298	0.000620	6.200874	1.050456	0.012401
 652	3.2550e-01	6.5039	8.597192	0.000479	4.789641	0.811387	0.009579
 653	3.2600e-01	6.5143	8.642521	0.000453	4.533053	0.767920	0.009066
 654	3.2650e-01	6.5277	8.687421	0.000449	4.490288	0.760675	0.008980
 655	3.2700e-01	6.5344	8.735315	0.000479	4.789641	0.811387	0.009579
 656	3.2750e-01	6.5469	8.777650	0.000423	4.233700	0.717208	0.008467
 657	3.2800e-01	6.5549	8.817847	0.000402	4.019877	0.680986	0.008039
 658	3.2850e-01	6.5692	8.863603	0.000458	4.575817	0.775164	0.009151
 659	3.2900e-01	6.5779	8.905938	0.000423	4.233700	0.717208	0.008467
 660	3.2950e-01	6.5863	8.949128	0.000432	4.319229	0.731697	0.008638
 661	3.3000e-01	6.5955	9.000871	0.000517	5.174522	0.876588	0.010349
 662	3.3050e-01	6.6055	9.044916	0.000440	4.404759	0.746186	0.008809
 663	3.3100e-01	6.6150	9.093665	0.000488	4.875170	0.825876	0.009750
 664	3.3150e-01	6.6272	9.130441	0.000368	3.677760	0.623029	0.007355
 665	3.3200e-01	6.6376	9.174486	0.000440	4.404759	0.746186	0.008809
 666	3.3250e-01	6.6446	9.215538	0.000411	4.105406	0.695475	0.008210
 667	3.3300e-01	6.6560	9.268136	0.000526	5.260052	0.891077	0.010520
 668	3.3350e-01	6.6663	9.302774	0.000346	3.463937	0.586807	0.006928
 669	3.3400e-01	6.6779	9.354089	0.000513	5.131758	0.869343	0.010263
 670	3.3450e-01	6.6870	9.398990	0.000449	4.490288	0.760675	0.008980
 671	3.3500e-01	6.6977	9.448594	0.000496	4.960699	0.840365	0.009921
 672	3.3550e-01	6.7056	9.495633	0.000470	4.704111	0.796898	0.009408
 673	3.3600e-01	6.7160	9.536257	0.000406	4.062642	0.688230	0.008125
 674	3.3650e-01	6.7249	9.578592	0.000423	4.233700	0.717208	0.008467
 675	3.3700e-01	6.7361	9.616651	0.000381	3.806054	0.644763	0.007612
 676	3.3750e-01	6.7474	9.673953	0.000573	5.730463	0.970767	0.011460
 677	3.3800e-01	6.7566	9.713294	0.000393	3.934348	0.666497	0.007868
 678	3.3850e-01	6.7651	9.760761	0.000475	4.746876	0.804143	0.009493
 679	3.3900e-01	6.7737	9.796254	0.000355	3.549466	0.601296	0.007099
 680	3.3950e-01	6.7883	9.842865	0.000466	4.661347	0.789653	0.009322
 681	3.4000e-01	6.7966	9.886910	0.000440	4.404759	0.746186	0.008809
 682	3.4050e-01	6.8097	9.936087	0.000492	4.917935	0.833121	0.009835
 683	3.4100e-01	6.8165	9.979277	0.000432	4.319229	0.731697	0.008638
 684	3.4150e-01	6.8298	10.017763	0.000385	3.848818	0.652007	0.007697
 685	3.4200e-01	6.8384	10.063947	0.000462	4.618582	0.782409	0.009237
 686	3.4250e-01	6.8457	10.118683	0.000547	5.473875	0.927300	0.010947
 687	3.4300e-01	6.8555	10.164011	0.000453	4.533053	0.767920	0.009066
 688	3.4350e-01	6.8665	10.199504	0.000355	3.549466	0.601296	0.007099
 689	3.4400e-01	6.8771	10.242694	0.000432	4.319229	0.731697	0.008638
 690	3.4450e-01	6.8854	10.295292	0.000526	5.260052	0.891077	0.010520
 691	3.4500e-01	6.8967	10.331640	0.000363	3.634995	0.615785	0.007270
 692	3.4550e-01	6.9075	10.373548	0.000419	4.190936	0.709964	0.008381
 693	3.4600e-01	6.9174	10.426146	0.000526	5.260052	0.891077	0.010520
 694	3.4650e-01	6.9278	10.466770	0.000406	4.062642	0.688230	0.008125
 695	3.4700e-01	6.9385	10.509533	0.000428	4.276465	0.724453	0.008553
 696	3.4750e-01	6.9458	10.552295	0.000428	4.276465	0.724453	0.008553
 697	3.4800e-01	6.9568	10.597196	0.000449	4.490288	0.760675	0.008980
 698	3.4850e-01	6.9693	10.645945	0.000488	4.875170	0.825876	0.009750
 699	3.4900e-01	6.9769	10.697688	0.000517	5.174522	0.876588	0.010349
 700	3.4950e-01	6.9849	10.725056	0.000274	2.736937	0.463650	0.005474
 701	3.5000e-01	6.9940	10.788344	0.000633	6.329168	1.072190	0.012658
 702	3.5050e-01	7.0074	10.828969	0.000406	4.062642	0.688230	0.008125
 703	3.5100e-01	7.0160	10.858902	0.000299	2.993525	0.507117	0.005987
 704	3.5150e-01	7.0270	10.914066	0.000552	5.516640	0.934544	0.011033
 705	3.5200e-01	7.0361	10.959394	0.000453	4.533053	0.767920	0.009066
 706	3.5250e-01	7.0471	11.001729	0.000423	4.233700	0.717208	0.008467
 707	3.5300e-01	7.0557	11.040216	0.000385	3.848818	0.652007	0.007697
 708	3.5350e-01	7.0667	11.079985	0.000398	3.977112	0.673741	0.007954
 709	3.5400e-01	7.0766	11.129589	0.000496	4.960699	0.840365	0.009921
 710	3.5450e-01	7.0874	11.174062	0.000445	4.447523	0.753431	0.008895
 711	3.5500e-01	7.0961	11.230509	0.000564	5.644934	0.956278	0.011289
 712	3.5550e-01	7.1072	11.272416	0.000419	4.190936	0.709964	0.008381
 713	3.5600e-01	7.1155	11.304060	0.000316	3.164584	0.536095	0.006329
 714	3.5650e-01	7.1265	11.343829	0.000398	3.977112	0.673741	0.007954
 715	3.5700e-01	7.1359	11.399848	0.000560	5.602169	0.949033	0.011204
 716	3.5750e-01	7.1478	11.438335	0.000385	3.848818	0.652007	0.007697
 717	3.5800e-01	7.1548	11.479387	0.000411	4.105406	0.695475	0.008210
 718	3.5850e-01	7.1649	11.527708	0.000483	4.832405	0.818632	0.009664
 719	3.5900e-01	7.1790	11.578596	0.000509	5.088993	0.862099	0.010177
 720	3.5950e-01	7.1866	11.609385	0.000308	3.079055	0.521606	0.006158
 721	3.6000e-01	7.1991	11.661555	0.000522	5.217287	0.883832	0.010434
 722	3.6050e-01	7.2076	11.707311	0.000458	4.575817	0.775164	0.009151
 723	3.6100e-01	7.2150	11.750501	0.000432	4.319229	0.731697	0.008638
 724	3.6150e-01	7.2272	11.790698	0.000402	4.019877	0.680986	0.008039
 725	3.6200e-01	7.2371	11.840730	0.000500	5.003464	0.847610	0.010006
 726	3.6250e-01	7.2467	11.875795	0.000351	3.506701	0.594051	0.007013
 727	3.6300e-01	7.2559	11.932669	0.000569	5.687698	0.963522	0.011375
 728	3.6350e-01	7.2647	11.971583	0.000389	3.891583	0.659252	0.007783
 729	3.6400e-01	7.2778	12.019905	0.000483	4.832405	0.818632	0.009664
 730	3.6450e-01	7.2864	12.055826	0.000359	3.592230	0.608540	0.007184
 731	3.6500e-01	7.2974	12.106285	0.000505	5.046228	0.854854	0.010092
 732	3.6550e-01	7.3083	12.142206	0.000359	3.592230	0.608540	0.007184
 733	3.6600e-01	7.3157	12.197370	0.000552	5.516640	0.934544	0.011033
 734	3.6650e-01	7.3242	12.248257	0.000509	5.088993	0.862099	0.010177
 735	3.6700e-01	7.3364	12.280329	0.000321	3.207349	0.543340	0.006414
 736	3.6750e-01	7.3468	12.335065	0.000547	5.473875	0.927300	0.010947
 737	3.6800e-01	7.3590	12.376972	0.000419	4.190936	0.709964	0.008381
 738	3.6850e-01	7.3663	12.406478	0.000295	2.950761	0.499872	0.005901
 739	3.6900e-01	7.3761	12.466346	0.000599	5.987051	1.014234	0.011974
 740	3.6950e-01	7.3859	12.497562	0.000312	3.121819	0.528851	0.006243
 741	3.7000e-01	7.3962	12.535621	0.000381	3.806054	0.644763	0.007612
 742	3.7050e-01	7.4066	12.581377	0.000458	4.575817	0.775164	0.009151
 743	3.7100e-01	7.4170	12.636968	0.000556	5.559404	0.941789	0.011118
 744	3.7150e-01	7.4243	12.679731	0.000428	4.276465	0.724453	0.008553
 745	3.7200e-01	7.4390	12.728052	0.000483	4.832405	0.818632	0.009664
 746	3.7250e-01	7.4451	12.773808	0.000458	4.575817	0.775164	0.009151
 747	3.7300e-01	7.4579	12.802887	0.000291	2.907996	0.492628	0.005816
 748	3.7350e-01	7.4661	12.856340	0.000535	5.345581	0.905566	0.010691
 749	3.7400e-01	7.4768	12.895254	0.000389	3.891583	0.659252	0.007783
 750	3.7450e-01	7.4872	12.926043	0.000308	3.079055	0.521606	0.006158
 751	3.7500e-01	7.4945	12.994463	0.000684	6.842344	1.159124	0.013684
 752	3.7550e-01	7.5061	13.030384	0.000359	3.592230	0.608540	0.007184
 753	3.7600e-01	7.5177	13.072291	0.000419	4.190936	0.709964	0.008381
 754	3.7650e-01	7.5275	13.114198	0.000419	4.190936	0.709964	0.008381
 755	3.7700e-01	7.5372	13.159954	0.000458	4.575817	0.775164	0.009151
 756	3.7750e-01	7.5458	13.218111	0.000582	5.815992	0.985256	0.011631
 757	3.7800e-01	7.5568	13.247617	0.000295	2.950761	0.499872	0.005901
 758	3.7850e-01	7.5702	13.283110	0.000355	3.549466	0.601296	0.007099
 759	3.7900e-01	7.5751	13.342122	0.000590	5.901521	0.999745	0.011802
 760	3.7950e-01	7.5842	13.390872	0.000488	4.875170	0.825876	0.009750
 761	3.8000e-01	7.5961	13.435345	0.000445	4.447523	0.753431	0.008895
 762	3.8050e-01	7.6051	13.480245	0.000449	4.490288	0.760675	0.008980
 763	3.8100e-01	7.6166	13.525574	0.000453	4.533053	0.767920	0.009066
 764	3.8150e-01	7.6263	13.576033	0.000505	5.046228	0.854854	0.010092
 765	3.8200e-01	7.6355	13.617941	0.000419	4.190936	0.709964	0.008381
 766	3.8250e-01	7.6465	13.650013	0.000321	3.207349	0.543340	0.006414
 767	3.8300e-01	7.6569	13.699189	0.000492	4.917935	0.833121	0.009835
 768	3.8350e-01	7.6666	13.740669	0.000415	4.148171	0.702719	0.008296
 769	3.8400e-01	7.6727	13.789418	0.000488	4.875170	0.825876	0.009750
 770	3.8450e-01	7.6849	13.830470	0.000411	4.105406	0.695475	0.008210
 771	3.8500e-01	7.6959	13.876226	0.000458	4.575817	0.775164	0.009151
 772	3.8550e-01	7.7057	13.906160	0.000299	2.993525	0.507117	0.005987
 773	3.8600e-01	7.7173	13.967738	0.000616	6.158109	1.043212	0.012316
 774	3.8650e-01	7.7264	14.012639	0.000449	4.490288	0.760675	0.008980
 775	3.8700e-01	7.7362	14.062671	0.000500	5.003464	0.847610	0.010006
 776	3.8750e-01	7.7449	14.094315	0.000316	3.164584	0.536095	0.006329
 777	3.8800e-01	7.7557	14.143920	0.000496	4.960699	0.840365	0.009921
 778	3.8850e-01	7.7643	14.192669	0.000488	4.875170	0.825876	0.009750
 779	3.8900e-01	7.7765	14.231583	0.000389	3.891583	0.659252	0.007783
 780	3.8950e-01	7.7850	14.279049	0.000475	4.746876	0.804143	0.009493
 781	3.9000e-01	7.7960	14.323522	0.000445	4.447523	0.753431	0.008895
 782	3.9050e-01	7.8082	14.364574	0.000411	4.105406	0.695475	0.008210
 783	3.9100e-01	7.8174	14.400067	0.000355	3.549466	0.601296	0.007099
 784	3.9150e-01	7.8259	14.456086	0.000560	5.602169	0.949033	0.011204
 785	3.9200e-01	7.8365	14.504408	0.000483	4.832405	0.818632	0.009664
 786	3.9250e-01	7.8473	14.541611	0.000372	3.720524	0.630274	0.007441
 787	3.9300e-01	7.8571	14.595064	0.000535	5.345581	0.905566	0.010691
 788	3.9350e-01	7.8668	14.651083	0.000560	5.602169	0.949033	0.011204
 789	3.9400e-01	7.8787	14.660919	0.000098	0.983587	0.166624	0.001967
 790	3.9450e-01	7.8864	14.732760	0.000718	7.184461	1.217081	0.014368
 791	3.9500e-01	7.8979	14.781937	0.000492	4.917935	0.833121	0.009835
 792	3.9550e-01	7.9071	14.819995	0.000381	3.806054	0.644763	0.007612
 793	3.9600e-01	7.9150	14.863185	0.000432	4.319229	0.731697	0.008638
 794	3.9650e-01	7.9279	14.903810	0.000406	4.062642	0.688230	0.008125
 795	3.9700e-01	7.9358	14.945290	0.000415	4.148171	0.702719	0.008296
 796	3.9750e-01	7.9462	14.979500	0.000342	3.421172	0.579562	0.006842
 797	3.9800e-01	7.9517	15.049202	0.000697	6.970638	1.180858	0.013941
 798	3.9850e-01	7.9657	15.085123	0.000359	3.592230	0.608540	0.007184
 799	3.9900e-01	7.9768	15.140714	0.000556	5.559404	0.941789	0.011118
 800	3.9950e-01	7.9846	15.172786	0.000321	3.207349	0.543340	0.006414
 801	4.0000e-01	7.9974	15.226239	0.000535	5.345581	0.905566	0.010691
 802	4.0050e-01	8.0054	15.267291	0.000411	4.105406	0.695475	0.008210
 803	4.0100e-01	8.0151	15.315613	0.000483	4.832405	0.818632	0.009664
 804	4.0150e-01	8.0273	15.357948	0.000423	4.233700	0.717208	0.008467
 805	4.0200e-01	8.0359	15.404131	0.000462	4.618582	0.782409	0.009237
 806	4.0250e-01	8.0450	15.444756	0.000406	4.062642	0.688230	0.008125
 807	4.0300e-01	8.0554	15.499492	0.000547	5.473875	0.927300	0.010947
 808	4.0350e-01	8.0652	15.542254	0.000428	4.276465	0.724453	0.008553
 809	4.0400e-01	8.0750	15.587583	0.000453	4.533053	0.767920	0.009066
 810	4.0450e-01	8.0878	15.626924	0.000393	3.934348	0.666497	0.007868
 811	4.0500e-01	8.0988	15.660279	0.000334	3.335643	0.565073	0.006671
 812	4.0550e-01	8.1073	15.719719	0.000594	5.944286	1.006989	0.011888
 813	4.0600e-01	8.1158	15.760343	0.000406	4.062642	0.688230	0.008125
 814	4.0650e-01	8.1268	15.809948	0.000496	4.960699	0.840365	0.009921
 815	4.0700e-01	8.1378	15.851855	0.000419	4.190936	0.709964	0.008381
 816	4.0750e-01	8.1470	15.894618	0.000428	4.276465	0.724453	0.008553
 817	4.0800e-01	8.1598	15.951919	0.000573	5.730463	0.970767	0.011460
 818	4.0850e-01	8.1659	15.997675	0.000458	4.575817	0.775164	0.009151
 819	4.0900e-01	8.1769	16.032741	0.000351	3.506701	0.594051	0.007013
 820	4.0950e-01	8.1876	16.080207	0.000475	4.746876	0.804143	0.009493
 821	4.1000e-01	8.1970	16.128529	0.000483	4.832405	0.818632	0.009664
 822	4.1050e-01	8.2068	16.169581	0.000411	4.105406	0.695475	0.008210
 823	4.1100e-01	8.2159	16.222606	0.000530	5.302816	0.898321	0.010605
 824	4.1150e-01	8.2260	16.259810	0.000372	3.720524	0.630274	0.007441
 825	4.1200e-01	8.2379	16.303000	0.000432	4.319229	0.731697	0.008638
 826	4.1250e-01	8.2458	16.352604	0.000496	4.960699	0.840365	0.009921
 827	4.1300e-01	8.2568	16.401354	0.000488	4.875170	0.825876	0.009750
 828	4.1350e-01	8.2687	16.434708	0.000334	3.335643	0.565073	0.006671
 829	4.1400e-01	8.2764	16.496286	0.000616	6.158109	1.043212	0.012316
 830	4.1450e-01	8.2849	16.536911	0.000406	4.062642	0.688230	0.008125
 831	4.1500e-01	8.2990	16.580529	0.000436	4.361994	0.738942	0.008724
 832	4.1550e-01	8.3063	16.621581	0.000411	4.105406	0.695475	0.008210
 833	4.1600e-01	8.3173	16.690428	0.000689	6.885108	1.166369	0.013770
 834	4.1650e-01	8.3267	16.717796	0.000274	2.736937	0.463650	0.005474
 835	4.1700e-01	8.3356	16.779374	0.000616	6.158109	1.043212	0.012316
 836	4.1750e-01	8.3472	16.808025	0.000287	2.865231	0.485383	0.005730
 837	4.1800e-01	8.3575	16.855492	0.000475	4.746876	0.804143	0.009493
 838	4.1850e-01	8.3667	16.911083	0.000556	5.559404	0.941789	0.011118
 839	4.1900e-01	8.3777	16.950852	0.000398	3.977112	0.673741	0.007954
 840	4.1950e-01	8.3862	16.998746	0.000479	4.789641	0.811387	0.009579
 841	4.2000e-01	8.3966	17.040653	0.000419	4.190936	0.709964	0.008381
 842	4.2050e-01	8.4082	17.081278	0.000406	4.062642	0.688230	0.008125
 843	4.2100e-01	8.4161	17.140290	0.000590	5.901521	0.999745	0.011802
 844	4.2150e-01	8.4271	17.174072	0.000338	3.378407	0.572318	0.006756
 845	4.2200e-01	8.4381	17.218973	0.000449	4.490288	0.760675	0.008980
 846	4.2250e-01	8.4473	17.274137	0.000552	5.516640	0.934544	0.011033
 847	4.2300e-01	8.4570	17.311768	0.000376	3.763289	0.637518	0.007526
 848	4.2350e-01	8.4662	17.363510	0.000517	5.174522	0.876588	0.010349
 849	4.2400e-01	8.4778	17.407128	0.000436	4.361994	0.738942	0.008724
 850	4.2450e-01	8.4900	17.454167	0.000470	4.704111	0.796898	0.009408
 851	4.2500e-01	8.4979	17.493936	0.000398	3.977112	0.673741	0.007954
 852	4.2550e-01	8.5071	17.552093	0.000582	5.815992	0.985256	0.011631
 853	4.2600e-01	8.5193	17.588014	0.000359	3.592230	0.608540	0.007184
 854	4.2650e-01	8.5254	17.651730	0.000637	6.371933	1.079435	0.012743
 855	4.2700e-01	8.5327	17.690216	0.000385	3.848818	0.652007	0.007697
 856	4.2750e-01	8.5480	17.730413	0.000402	4.019877	0.680986	0.008039
 857	4.2800e-01	8.5522	17.783438	0.000530	5.302816	0.898321	0.010605
 858	4.2850e-01	8.5663	17.830477	0.000470	4.704111	0.796898	0.009408
 859	4.2900e-01	8.5754	17.875806	0.000453	4.533053	0.767920	0.009066
 860	4.2950e-01	8.5864	17.915147	0.000393	3.934348	0.666497	0.007868
 861	4.3000e-01	8.5986	17.976725	0.000616	6.158109	1.043212	0.012316
 862	4.3050e-01	8.6078	18.011363	0.000346	3.463937	0.586807	0.006928
 863	4.3100e-01	8.6194	18.058402	0.000470	4.704111	0.796898	0.009408
 864	4.3150e-01	8.6261	18.109289	0.000509	5.088993	0.862099	0.010177
 865	4.3200e-01	8.6346	18.166591	0.000573	5.730463	0.970767	0.011460
 866	4.3250e-01	8.6475	18.193531	0.000269	2.694173	0.456405	0.005388
 867	4.3300e-01	8.6578	18.258958	0.000654	6.542991	1.108413	0.013085
 868	4.3350e-01	8.6682	18.291885	0.000329	3.292878	0.557829	0.006585
 869	4.3400e-01	8.6774	18.350042	0.000582	5.815992	0.985256	0.011631
 870	4.3450e-01	8.6877	18.397508	0.000475	4.746876	0.804143	0.009493
 871	4.3500e-01	8.6981	18.438133	0.000406	4.062642	0.688230	0.008125
 872	4.3550e-01	8.7070	18.490731	0.000526	5.260052	0.891077	0.010520
 873	4.3600e-01	8.7167	18.535631	0.000449	4.490288	0.760675	0.008980
 874	4.3650e-01	8.7259	18.583953	0.000483	4.832405	0.818632	0.009664
 875	4.3700e-01	8.7360	18.631419	0.000475	4.746876	0.804143	0.009493
 876	4.3750e-01	8.7457	18.679741	0.000483	4.832405	0.818632	0.009664
 877	4.3800e-01	8.7561	18.733194	0.000535	5.345581	0.905566	0.010691
 878	4.3850e-01	8.7640	18.775957	0.000428	4.276465	0.724453	0.008553
 879	4.3900e-01	8.7787	18.821713	0.000458	4.575817	0.775164	0.009151
 880	4.3950e-01	8.7897	18.866186	0.000445	4.447523	0.753431	0.008895
 881	4.4000e-01	8.7958	18.904244	0.000381	3.806054	0.644763	0.007612
 882	4.4050e-01	8.8068	18.961546	0.000573	5.730463	0.970767	0.011460
 883	4.4100e-01	8.8165	19.003026	0.000415	4.148171	0.702719	0.008296
 884	4.4150e-01	8.8275	19.031677	0.000287	2.865231	0.485383	0.005730
 885	4.4200e-01	8.8391	19.107794	0.000761	7.612107	1.289526	0.015223
 886	4.4250e-01	8.8452	19.157398	0.000496	4.960699	0.840365	0.009921
 887	4.4300e-01	8.8568	19.195885	0.000385	3.848818	0.652007	0.007697
 888	4.4350e-01	8.8661	19.233943	0.000381	3.806054	0.644763	0.007612
 889	4.4400e-01	8.8788	19.289107	0.000552	5.516640	0.934544	0.011033
 890	4.4450e-01	8.8867	19.341705	0.000526	5.260052	0.891077	0.010520
 891	4.4500e-01	8.8953	19.391310	0.000496	4.960699	0.840365	0.009921
 892	4.4550e-01	8.9050	19.445190	0.000539	5.388346	0.912810	0.010776
 893	4.4600e-01	8.9166	19.494795	0.000496	4.960699	0.840365	0.009921
 894	4.4650e-01	8.9264	19.537985	0.000432	4.319229	0.731697	0.008638
 895	4.4700e-01	8.9352	19.582886	0.000449	4.490288	0.760675	0.008980
 896	4.4750e-01	8.9447	19.630780	0.000479	4.789641	0.811387	0.009579
 897	4.4800e-01	8.9526	19.686799	0.000560	5.602169	0.949033	0.011204
 898	4.4850e-01	8.9661	19.719298	0.000325	3.250113	0.550584	0.006500
 899	4.4900e-01	8.9795	19.779593	0.000603	6.029815	1.021478	0.012059
 900	4.4950e-01	8.9862	19.821928	0.000423	4.233700	0.717208	0.008467
 901	4.5000e-01	8.9978	19.869822	0.000479	4.789641	0.811387	0.009579
 902	4.5050e-01	9.0063	19.922420	0.000526	5.260052	0.891077	0.010520
 903	4.5100e-01	9.0131	19.977584	0.000552	5.516640	0.934544	0.011033
 904	4.5150e-01	9.0289	20.017781	0.000402	4.019877	0.680986	0.008039
 905	4.5200e-01	9.0369	20.065675	0.000479	4.789641	0.811387	0.009579
 906	4.5250e-01	9.0448	20.113996	0.000483	4.832405	0.818632	0.009664
 907	4.5300e-01	9.0546	20.155476	0.000415	4.148171	0.702719	0.008296
 908	4.5350e-01	9.0656	20.209784	0.000543	5.431110	0.920055	0.010862
 909	4.5400e-01	9.0762	20.268797	0.000590	5.901521	0.999745	0.011802
 910	4.5450e-01	9.0869	20.300868	0.000321	3.207349	0.543340	0.006414
 911	4.5500e-01	9.0939	20.370144	0.000693	6.927873	1.173613	0.013855
 912	4.5550e-01	9.1052	20.410768	0.000406	4.062642	0.688230	0.008125
 913	4.5600e-01	9.1168	20.446261	0.000355	3.549466	0.601296	0.007099
 914	4.5650e-01	9.1261	20.515109	0.000689	6.885108	1.166369	0.013770
 915	4.5700e-01	9.1345	20.560865	0.000458	4.575817	0.775164	0.009151
 916	4.5750e-01	9.1479	20.599351	0.000385	3.848818	0.652007	0.007697
 917	4.5800e-01	9.1553	20.667343	0.000680	6.799579	1.151880	0.013598
 918	4.5850e-01	9.1663	20.708395	0.000411	4.105406	0.695475	0.008210
 919	4.5900e-01	9.1785	20.752013	0.000436	4.361994	0.738942	0.008724
 920	4.5950e-01	9.1852	20.810170	0.000582	5.815992	0.985256	0.011631
 921	4.6000e-01	9.1980	20.853360	0.000432	4.319229	0.731697	0.008638
 922	4.6050e-01	9.2072	20.906386	0.000530	5.302816	0.898321	0.010605
 923	4.6100e-01	9.2169	20.947010	0.000406	4.062642	0.688230	0.008125
 924	4.6150e-01	9.2261	21.012009	0.000650	6.500227	1.101168	0.013000
 925	4.6200e-01	9.2389	21.053489	0.000415	4.148171	0.702719	0.008296
 926	4.6250e-01	9.2450	21.103521	0.000500	5.003464	0.847610	0.010006
 927	4.6300e-01	9.2560	21.154409	0.000509	5.088993	0.862099	0.010177
 928	4.6350e-01	9.2651	21.201875	0.000475	4.746876	0.804143	0.009493
 929	4.6400e-01	9.2767	21.257039	0.000552	5.516640	0.934544	0.011033
 930	4.6450e-01	9.2889	21.305788	0.000488	4.875170	0.825876	0.009750
 931	4.6500e-01	9.2963	21.352399	0.000466	4.661347	0.789653	0.009322
 932	4.6550e-01	9.3048	21.394734	0.000423	4.233700	0.717208	0.008467
 933	4.6600e-01	9.3170	21.459733	0.000650	6.500227	1.101168	0.013000
 934	4.6650e-01	9.3256	21.510193	0.000505	5.046228	0.854854	0.010092
 935	4.6700e-01	9.3359	21.557659	0.000475	4.746876	0.804143	0.009493
 936	4.6750e-01	9.3463	21.606836	0.000492	4.917935	0.833121	0.009835
 937	4.6800e-01	9.3567	21.659006	0.000522	5.217287	0.883832	0.010434
 938	4.6850e-01	9.3665	21.703052	0.000440	4.404759	0.746186	0.008809
 939	4.6900e-01	9.3799	21.758643	0.000556	5.559404	0.941789	0.011118
 940	4.6950e-01	9.3878	21.792425	0.000338	3.378407	0.572318	0.006756
 941	4.7000e-01	9.3958	21.851010	0.000586	5.858757	0.992500	0.011717
 942	4.7050e-01	9.4061	21.904463	0.000535	5.345581	0.905566	0.010691
 943	4.7100e-01	9.4159	21.955778	0.000513	5.131758	0.869343	0.010263
 944	4.7150e-01	9.4250	22.011797	0.000560	5.602169	0.949033	0.011204
 945	4.7200e-01	9.4360	22.067816	0.000560	5.602169	0.949033	0.011204
 946	4.7250e-01	9.4458	22.115283	0.000475	4.746876	0.804143	0.009493
 947	4.7300e-01	9.4586	22.166170	0.000509	5.088993	0.862099	0.010177
 948	4.7350e-01	9.4656	22.212781	0.000466	4.661347	0.789653	0.009322
 949	4.7400e-01	9.4753	22.274359	0.000616	6.158109	1.043212	0.012316
 950	4.7450e-01	9.4852	22.316266	0.000419	4.190936	0.709964	0.008381
 951	4.7500e-01	9.4946	22.373568	0.000573	5.730463	0.970767	0.011460
 952	4.7550e-01	9.5044	22.418896	0.000453	4.533053	0.767920	0.009066
 953	4.7600e-01	9.5166	22.477909	0.000590	5.901521	0.999745	0.011802
 954	4.7650e-01	9.5245	22.539914	0.000620	6.200874	1.050456	0.012401
 955	4.7700e-01	9.5349	22.578401	0.000385	3.848818	0.652007	0.007697
 956	4.7750e-01	9.5447	22.639979	0.000616	6.158109	1.043212	0.012316
 957	4.7800e-01	9.5552	22.693004	0.000530	5.302816	0.898321	0.010605
 958	4.7850e-01	9.5660	22.730208	0.000372	3.720524	0.630274	0.007441
 959	4.7900e-01	9.5758	22.796062	0.000659	6.585756	1.115657	0.013171
 960	4.7950e-01	9.5850	22.840963	0.000449	4.490288	0.760675	0.008980
 961	4.8000e-01	9.5947	22.898264	0.000573	5.730463	0.970767	0.011460
 962	4.8050e-01	9.6039	22.945731	0.000475	4.746876	0.804143	0.009493
 963	4.8100e-01	9.6143	22.992342	0.000466	4.661347	0.789653	0.009322
 964	4.8150e-01	9.6277	23.048361	0.000560	5.602169	0.949033	0.011204
 965	4.8200e-01	9.6371	23.093262	0.000449	4.490288	0.760675	0.008980
 966	4.8250e-01	9.6466	23.153557	0.000603	6.029815	1.021478	0.012059
 967	4.8300e-01	9.6570	23.212997	0.000594	5.944286	1.006989	0.011888
 968	4.8350e-01	9.6655	23.258753	0.000458	4.575817	0.775164	0.009151
 969	4.8400e-01	9.6753	23.312633	0.000539	5.388346	0.912810	0.010776
 970	4.8450e-01	9.6851	23.369935	0.000573	5.730463	0.970767	0.011460
 971	4.8500e-01	9.6948	23.426382	0.000564	5.644934	0.956278	0.011289
 972	4.8550e-01	9.7064	23.470427	0.000440	4.404759	0.746186	0.008809
 973	4.8600e-01	9.7162	23.541413	0.000710	7.098932	1.202592	0.014197
 974	4.8650e-01	9.7235	23.584175	0.000428	4.276465	0.724453	0.008553
 975	4.8700e-01	9.7363	23.635490	0.000513	5.131758	0.869343	0.010263
 976	4.8750e-01	9.7449	23.678681	0.000432	4.319229	0.731697	0.008638
 977	4.8800e-01	9.7565	23.751804	0.000731	7.312755	1.238814	0.014625
 978	4.8850e-01	9.7668	23.793712	0.000419	4.190936	0.709964	0.008381
 979	4.8900e-01	9.7766	23.848875	0.000552	5.516640	0.934544	0.011033
 980	4.8950e-01	9.7845	23.914730	0.000659	6.585756	1.115657	0.013171
 981	4.9000e-01	9.7937	23.956637	0.000419	4.190936	0.709964	0.008381
 982	4.9050e-01	9.8047	24.008380	0.000517	5.174522	0.876588	0.010349
 983	4.9100e-01	9.8163	24.056274	0.000479	4.789641	0.811387	0.009579
 984	4.9150e-01	9.8260	24.116141	0.000599	5.987051	1.014234	0.011974
 985	4.9200e-01	9.8355	24.169167	0.000530	5.302816	0.898321	0.010605
 986	4.9250e-01	9.8450	24.229890	0.000607	6.072580	1.028723	0.012145
 987	4.9300e-01	9.8584	24.283770	0.000539	5.388346	0.912810	0.010776
 988	4.9350e-01	9.8633	24.339362	0.000556	5.559404	0.941789	0.011118
 989	4.9400e-01	9.8755	24.385973	0.000466	4.661347	0.789653	0.009322
 990	4.9450e-01	9.8877	24.441564	0.000556	5.559404	0.941789	0.011118
 991	4.9500e-01	9.8962	24.501004	0.000594	5.944286	1.006989	0.011888
 992	4.9550e-01	9.9042	24.562154	0.000612	6.115345	1.035967	0.012230
 993	4.9600e-01	9.9152	24.613897	0.000517	5.174522	0.876588	0.010349
 994	4.9650e-01	9.9225	24.675903	0.000620	6.200874	1.050456	0.012401
 995	4.9700e-01	9.9359	24.723797	0.000479	4.789641	0.811387	0.009579
 996	4.9750e-01	9.9438	24.777677	0.000539	5.388346	0.912810	0.010776
 997	4.9800e-01	9.9548	24.832414	0.000547	5.473875	0.927300	0.010947
 998	4.9850e-01	9.9664	24.886722	0.000543	5.431110	0.920055	0.010862
 999	4.9900e-01	9.9756	24.945734	0.000590	5.901521	0.999745	0.011802
1000	4.9950e-01	9.9835	24.988069	0.000423	4.233700	0.717208	0.008467
1001	5.0000e-01	9.9951	25.054351	0.000663	6.628520	1.122902	0.013256
1002	5.0050e-01	9.9850	25.051358	0.000030	0.299353	0.050712	-0.000599
1003	5.0100e-01	9.9756	25.055206	-0.000038	-0.384882	-0.065201	0.000770
1004	5.0150e-01	9.9658	25.065897	-0.000107	-1.069116	-0.181113	0.002138
1005	5.0200e-01	9.9573	25.072739	-0.000068	-0.684234	-0.115912	0.001368
1006	5.0250e-01	9.9469	25.079153	-0.000064	-0.641470	-0.108668	0.001283
1007	5.0300e-01	9.9362	25.077015	0.000021	0.213823	0.036223	-0.000428
1008	5.0350e-01	9.9286	25.085568	-0.000086	-0.855293	-0.144891	0.001711
1009	5.0400e-01	9.9146	25.085995	-0.000004	-0.042765	-0.007245	0.000086
1010	5.0450e-01	9.9060	25.081291	0.000047	0.470411	0.079690	-0.000941
1011	5.0500e-01	9.8975	25.087278	-0.000060	-0.598705	-0.101423	0.001197
1012	5.0550e-01	9.8834	25.093265	-0.000060	-0.598705	-0.101423	0.001197
1013	5.0600e-01	9.8755	25.080009	0.000133	1.325704	0.224580	-0.002651
1014	5.0650e-01	9.8663	25.077870	0.000021	0.213823	0.036223	-0.000428
1015	5.0700e-01	9.8547	25.080864	-0.000030	-0.299353	-0.050712	0.000599
1016	5.0750e-01	9.8474	25.072311	0.000086	0.855293	0.144891	-0.001711
1017	5.0800e-01	9.8364	25.073167	-0.000009	-0.085529	-0.014489	0.000171
1018	5.0850e-01	9.8260	25.068890	0.000043	0.427646	0.072445	-0.000855
1019	5.0900e-01	9.8157	25.071456	-0.000026	-0.256588	-0.043467	0.000513
1020	5.0950e-01	9.8059	25.070173	0.000013	0.128294	0.021734	-0.000257
1021	5.1000e-01	9.7992	25.053496	0.000167	1.667821	0.282537	-0.003335
1022	5.1050e-01	9.7845	25.064614	-0.000111	-1.111881	-0.188358	0.002224
1023	5.1100e-01	9.7778	25.039384	0.000252	2.523114	0.427427	-0.005046
1024	5.1150e-01	9.7644	25.045799	-0.000064	-0.641470	-0.108668	0.001283
1025	5.1200e-01	9.7559	25.043660	0.000021	0.213823	0.036223	-0.000428
1026	5.1250e-01	9.7455	25.027838	0.000158	1.582292	0.268048	-0.003164
1027	5.1300e-01	9.7369	25.018858	0.000090	0.898058	0.152135	-0.001796
1028	5.1350e-01	9.7253	25.012444	0.000064	0.641470	0.108668	-0.001283
1029	5.1400e-01	9.7180	25.006885	0.000056	0.555940	0.094179	-0.001112
1030	5.1450e-01	9.7034	25.010306	-0.000034	-0.342117	-0.057956	0.000684
1031	5.1500e-01	9.6979	24.983365	0.000269	2.694173	0.456405	-0.005388
1032	5.1550e-01	9.6875	24.968398	0.000150	1.496763	0.253558	-0.002993
1033	5.1600e-01	9.6777	24.969254	-0.000009	-0.085529	-0.014489	0.000171
1034	5.1650e-01	9.6655	24.951293	0.000180	1.796115	0.304270	-0.003592
1035	5.1700e-01	9.6558	24.953004	-0.000017	-0.171059	-0.028978	0.000342
1036	5.1750e-01	9.6466	24.935471	0.000175	1.753351	0.297026	-0.003507
1037	5.1800e-01	9.6375	24.930767	0.000047	0.470411	0.079690	-0.000941
1038	5.1850e-01	9.6265	24.917939	0.000128	1.282939	0.217336	-0.002566
1039	5.1900e-01	9.6176	24.921360	-0.000034	-0.342117	-0.057956	0.000684
1040	5.1950e-01	9.6060	24.900834	0.000205	2.052703	0.347737	-0.004105
1041	5.2000e-01	9.5941	24.884584	0.000163	1.625057	0.275292	-0.003250
1042	5.2050e-01	9.5868	24.872183	0.000124	1.240175	0.210091	-0.002480
1043	5.2100e-01	9.5758	24.863630	0.000086	0.855293	0.144891	-0.001711
1044	5.2150e-01	9.5660	24.843532	0.000201	2.009938	0.340493	-0.004020
1045	5.2200e-01	9.5551	24.843959	-0.000004	-0.042765	-0.007245	0.000086
1046	5.2250e-01	9.5465	24.824289	0.000197	1.967174	0.333248	-0.003934
1047	5.2300e-01	9.5392	24.807184	0.000171	1.710586	0.289781	-0.003421
1048	5.2350e-01	9.5251	24.803335	0.000038	0.384882	0.065201	-0.000770
1049	5.2400e-01	9.5172	24.790079	0.000133	1.325704	0.224580	-0.002651
1050	5.2450e-01	9.5068	24.778533	0.000115	1.154646	0.195602	-0.002309
1051	5.2500e-01	9.4989	24.753730	0.000248	2.480350	0.420183	-0.004960
1052	5.2550e-01	9.4879	24.750309	0.000034	0.342117	0.057956	-0.000684
1053	5.2600e-01	9.4763	24.727645	0.000227	2.266526	0.383960	-0.004533
1054	5.2650e-01	9.4666	24.719093	0.000086	0.855293	0.144891	-0.001711
1055	5.2700e-01	9.4543	24.703698	0.000154	1.539527	0.260803	-0.003079
1056	5.2750e-01	9.4470	24.689587	0.000141	1.411233	0.239069	-0.002822
1057	5.2800e-01	9.4385	24.661363	0.000282	2.822467	0.478139	-0.005645
1058	5.2850e-01	9.4278	24.655804	0.000056	0.555940	0.094179	-0.001112
1059	5.2900e-01	9.4165	24.641693	0.000141	1.411233	0.239069	-0.002822
1060	5.2950e-01	9.4086	24.604489	0.000372	3.720524	0.630274	-0.007441
1061	5.3000e-01	9.3954	24.598502	0.000060	0.598705	0.101423	-0.001197
1062	5.3050e-01	9.3854	24.608338	-0.000098	-0.983587	-0.166624	0.001967
1063	5.3100e-01	9.3765	24.586101	0.000222	2.223762	0.376715	-0.004447
1064	5.3150e-01	9.3652	24.557023	0.000291	2.907996	0.492628	-0.005816
1065	5.3200e-01	9.3573	24.549326	0.000077	0.769764	0.130401	-0.001539
1066	5.3250e-01	9.3469	24.523668	0.000257	2.565879	0.434672	-0.005132
1067	5.3300e-01	9.3378	24.512977	0.000107	1.069116	0.181113	-0.002138
1068	5.3350e-01	9.3277	24.498438	0.000145	1.453998	0.246314	-0.002908
1069	5.3400e-01	9.3164	24.478767	0.000197	1.967174	0.333248	-0.003934
1070	5.3450e-01	9.3069	24.464228	0.000145	1.453998	0.246314	-0.002908
1071	5.3500e-01	9.2957	24.450972	0.000133	1.325704	0.224580	-0.002651
1072	5.3550e-01	9.2865	24.439426	0.000115	1.154646	0.195602	-0.002309
1073	5.3600e-01	9.2764	24.403505	0.000359	3.592230	0.608540	-0.007184
1074	5.3650e-01	9.2654	24.389394	0.000141	1.411233	0.239069	-0.002822
1075	5.3700e-01	9.2554	24.375710	0.000137	1.368469	0.231825	-0.002737
1076	5.3750e-01	9.2432	24.357322	0.000184	1.838880	0.311515	-0.003678
1077	5.3800e-01	9.2346	24.340217	0.000171	1.710586	0.289781	-0.003421
1078	5.3850e-01	9.2279	24.319691	0.000205	2.052703	0.347737	-0.004105
1079	5.3900e-01	9.2154	24.309428	0.000103	1.026352	0.173869	-0.002053
1080	5.3950e-01	9.2065	24.288047	0.000214	2.138232	0.362226	-0.004276
1081	5.4000e-01	9.1962	24.265382	0.000227	2.266526	0.383960	-0.004533
1082	5.4050e-01	9.1864	24.246995	0.000184	1.838880	0.311515	-0.003678
1083	5.4100e-01	9.1742	24.235449	0.000115	1.154646	0.195602	-0.002309
1084	5.4150e-01	9.1656	24.213640	0.000218	2.180997	0.369471	-0.004362
1085	5.4200e-01	9.1583	24.199100	0.000145	1.453998	0.246314	-0.002908
1086	5.4250e-01	9.1467	24.170022	0.000291	2.907996	0.492628	-0.005816
1087	5.4300e-01	9.1351	24.157621	0.000124	1.240175	0.210091	-0.002480
1088	5.4350e-01	9.1232	24.146075	0.000115	1.154646	0.195602	-0.002309
1089	5.4400e-01	9.1162	24.124266	0.000218	2.180997	0.369471	-0.004362
1090	5.4450e-01	9.1071	24.090056	0.000342	3.421172	0.579562	-0.006842
1091	5.4500e-01	9.0948	24.070813	0.000192	1.924409	0.326004	-0.003849
1092	5.4550e-01	9.0881	24.054136	0.000167	1.667821	0.282537	-0.003335
1093	5.4600e-01	9.0747	24.048149	0.000060	0.598705	0.101423	-0.001197
1094	5.4650e-01	9.0656	24.011373	0.000368	3.677760	0.623029	-0.007355
1095	5.4700e-01	9.0558	23.996406	0.000150	1.496763	0.253558	-0.002993
1096	5.4750e-01	9.0479	23.970321	0.000261	2.608644	0.441916	-0.005217
1097	5.4800e-01	9.0378	23.953216	0.000171	1.710586	0.289781	-0.003421
1098	5.4850e-01	9.0265	23.939532	0.000137	1.368469	0.231825	-0.002737
1099	5.4900e-01	9.0155	23.922427	0.000171	1.710586	0.289781	-0.003421
1100	5.4950e-01	9.0083	23.900190	0.000222	2.223762	0.376715	-0.004447
1101	5.5000e-01	8.9990	23.874105	0.000261	2.608644	0.441916	-0.005217
1102	5.5050e-01	8.9877	23.843744	0.000304	3.036290	0.514361	-0.006072
1103	5.5100e-01	8.9771	23.830487	0.000133	1.325704	0.224580	-0.002651
1104	5.5150e-01	8.9674	23.815521	0.000150	1.496763	0.253558	-0.002993
1105	5.5200e-01	8.9557	23.790718	0.000248	2.480350	0.420183	-0.004960
1106	5.5250e-01	8.9453	23.764206	0.000265	2.651408	0.449161	-0.005303
1107	5.5300e-01	8.9371	23.753515	0.000107	1.069116	0.181113	-0.002138
1108	5.5350e-01	8.9276	23.725292	0.000282	2.822467	0.478139	-0.005645
1109	5.5400e-01	8.9124	23.708614	0.000167	1.667821	0.282537	-0.003335
1110	5.5450e-01	8.9047	23.688516	0.000201	2.009938	0.340493	-0.004020
1111	5.5500e-01	8.8965	23.659865	0.000287	2.865231	0.485383	-0.005730
1112	5.5550e-01	8.8892	23.626510	0.000334	3.335643	0.565073	-0.006671
1113	5.5600e-01	8.8766	23.618813	0.000077	0.769764	0.130401	-0.001539
1114	5.5650e-01	8.8647	23.598715	0.000201	2.009938	0.340493	-0.004020
1115	5.5700e-01	8.8562	23.575195	0.000235	2.352056	0.398449	-0.004704
1116	5.5750e-01	8.8458	23.550821	0.000244	2.437585	0.412938	-0.004875
1117	5.5800e-01	8.8373	23.532433	0.000184	1.838880	0.311515	-0.003678
1118	5.5850e-01	8.8269	23.498223	0.000342	3.421172	0.579562	-0.006842
1119	5.5900e-01	8.8144	23.492236	0.000060	0.598705	0.101423	-0.001197
1120	5.5950e-01	8.8068	23.469999	0.000222	2.223762	0.376715	-0.004447
1121	5.6000e-01	8.7994	23.441348	0.000287	2.865231	0.485383	-0.005730
1122	5.6050e-01	8.7872	23.416974	0.000244	2.437585	0.412938	-0.004875
1123	5.6100e-01	8.7775	23.390461	0.000265	2.651408	0.449161	-0.005303
1124	5.6150e-01	8.7665	23.372928	0.000175	1.753351	0.297026	-0.003507
1125	5.6200e-01	8.7585	23.353258	0.000197	1.967174	0.333248	-0.003934
1126	5.6250e-01	8.7463	23.325890	0.000274	2.736937	0.463650	-0.005474
1127	5.6300e-01	8.7347	23.311350	0.000145	1.453998	0.246314	-0.002908
1128	5.6350e-01	8.7283	23.276713	0.000346	3.463937	0.586807	-0.006928
1129	5.6400e-01	8.7201	23.255331	0.000214	2.138232	0.362226	-0.004276
1130	5.6450e-01	8.7073	23.232240	0.000231	2.309291	0.391204	-0.004618
1131	5.6500e-01	8.6978	23.213852	0.000184	1.838880	0.311515	-0.003678
1132	5.6550e-01	8.6884	23.189050	0.000248	2.480350	0.420183	-0.004960
1133	5.6600e-01	8.6783	23.165103	0.000239	2.394820	0.405694	-0.004789
1134	5.6650e-01	8.6639	23.138590	0.000265	2.651408	0.449161	-0.005303
1135	5.6700e-01	8.6584	23.116781	0.000218	2.180997	0.369471	-0.004362
1136	5.6750e-01	8.6462	23.093262	0.000235	2.352056	0.398449	-0.004704
1137	5.6800e-01	8.6380	23.063755	0.000295	2.950761	0.499872	-0.005901
1138	5.6850e-01	8.6273	23.039381	0.000244	2.437585	0.412938	-0.004875
1139	5.6900e-01	8.6163	23.027407	0.000120	1.197410	0.202847	-0.002395
1140	5.6950e-01	8.6078	23.003460	0.000239	2.394820	0.405694	-0.004789
1141	5.7000e-01	8.5962	22.965829	0.000376	3.763289	0.637518	-0.007526
1142	5.7050e-01	8.5870	22.942737	0.000231	2.309291	0.391204	-0.004618
1143	5.7100e-01	8.5773	22.923494	0.000192	1.924409	0.326004	-0.003849
1144	5.7150e-01	8.5657	22.890567	0.000329	3.292878	0.557829	-0.006585
1145	5.7200e-01	8.5565	22.863199	0.000274	2.736937	0.463650	-0.005474
1146	5.7250e-01	8.5458	22.857212	0.000060	0.598705	0.101423	-0.001197
1147	5.7300e-01	8.5345	22.848660	0.000086	0.855293	0.144891	-0.001711
1148	5.7350e-01	8.5263	22.798200	0.000505	5.046228	0.854854	-0.010092
1149	5.7400e-01	8.5193	22.779385	0.000188	1.881645	0.318759	-0.003763
1150	5.7450e-01	8.5052	22.757576	0.000218	2.180997	0.369471	-0.004362
1151	5.7500e-01	8.4967	22.726787	0.000308	3.079055	0.521606	-0.006158
1152	5.7550e-01	8.4869	22.697281	0.000295	2.950761	0.499872	-0.005901
1153	5.7600e-01	8.4772	22.672478	0.000248	2.480350	0.420183	-0.004960
1154	5.7650e-01	8.4656	22.648104	0.000244	2.437585	0.412938	-0.004875
1155	5.7700e-01	8.4558	22.642117	0.000060	0.598705	0.101423	-0.001197
1156	5.7750e-01	8.4485	22.596361	0.000458	4.575817	0.775164	-0.009151
1157	5.7800e-01	8.4369	22.568993	0.000274	2.736937	0.463650	-0.005474
1158	5.7850e-01	8.4271	22.548467	0.000205	2.052703	0.347737	-0.004105
1159	5.7900e-01	8.4186	22.523665	0.000248	2.480350	0.420183	-0.004960
1160	5.7950e-01	8.4064	22.491593	0.000321	3.207349	0.543340	-0.006414
1161	5.8000e-01	8.3960	22.477481	0.000141	1.411233	0.239069	-0.002822
1162	5.8050e-01	8.3868	22.445837	0.000316	3.164584	0.536095	-0.006329
1163	5.8100e-01	8.3752	22.427021	0.000188	1.881645	0.318759	-0.003763
1164	5.8150e-01	8.3655	22.404785	0.000222	2.223762	0.376715	-0.004447
1165	5.8200e-01	8.3551	22.378700	0.000261	2.608644	0.441916	-0.005217
1166	5.8250e-01	8.3453	22.338075	0.000406	4.062642	0.688230	-0.008125
1167	5.8300e-01	8.3362	22.333371	0.000047	0.470411	0.079690	-0.000941
1168	5.8350e-01	8.3240	22.304293	0.000291	2.907996	0.492628	-0.005816
1169	5.8400e-01	8.3154	22.274359	0.000299	2.993525	0.507117	-0.005987
1170	5.8450e-01	8.3044	22.242715	0.000316	3.164584	0.536095	-0.006329
1171	5.8500e-01	8.2977	22.202518	0.000402	4.019877	0.680986	-0.008039
1172	5.8550e-01	8.2867	22.195676	0.000068	0.684234	0.115912	-0.001368
1173	5.8600e-01	8.2745	22.164459	0.000312	3.121819	0.528851	-0.006243
1174	5.8650e-01	8.2672	22.144361	0.000201	2.009938	0.340493	-0.004020
1175	5.8700e-01	8.2587	22.119131	0.000252	2.523114	0.427427	-0.005046
1176	5.8750e-01	8.2477	22.072520	0.000466	4.661347	0.789653	-0.009322
1177	5.8800e-01	8.2367	22.055415	0.000171	1.710586	0.289781	-0.003421
1178	5.8850e-01	8.2263	22.030185	0.000252	2.523114	0.427427	-0.005046
1179	5.8900e-01	8.2172	22.007521	0.000227	2.266526	0.383960	-0.004533
1180	5.8950e-01	8.2062	21.991271	0.000163	1.625057	0.275292	-0.003250
1181	5.9000e-01	8.1982	21.950647	0.000406	4.062642	0.688230	-0.008125
1182	5.9050e-01	8.1827	21.932259	0.000184	1.838880	0.311515	-0.003678
1183	5.9100e-01	8.1769	21.908740	0.000235	2.352056	0.398449	-0.004704
1184	5.9150e-01	8.1659	21.881371	0.000274	2.736937	0.463650	-0.005474
1185	5.9200e-01	8.1567	21.851438	0.000299	2.993525	0.507117	-0.005987
1186	5.9250e-01	8.1473	21.821504	0.000299	2.993525	0.507117	-0.005987
1187	5.9300e-01	8.1354	21.805254	0.000163	1.625057	0.275292	-0.003250
1188	5.9350e-01	8.1250	21.766768	0.000385	3.848818	0.652007	-0.007697
1189	5.9400e-01	8.1183	21.737262	0.000295	2.950761	0.499872	-0.005901
1190	5.9450e-01	8.1067	21.717591	0.000197	1.967174	0.333248	-0.003934
1191	5.9500e-01	8.0988	21.690223	0.000274	2.736937	0.463650	-0.005474
1192	5.9550e-01	8.0853	21.656868	0.000334	3.335643	0.565073	-0.006671
1193	5.9600e-01	8.0771	21.632494	0.000244	2.437585	0.412938	-0.004875
1194	5.9650e-01	8.0655	21.615389	0.000171	1.710586	0.289781	-0.003421
1195	5.9700e-01	8.0579	21.579468	0.000359	3.592230	0.608540	-0.007184
1196	5.9750e-01	8.0463	21.560653	0.000188	1.881645	0.318759	-0.003763
1197	5.9800e-01	8.0377	21.524304	0.000363	3.634995	0.615785	-0.007270
1198	5.9850e-01	8.0255	21.498647	0.000257	2.565879	0.434672	-0.005132
1199	5.9900e-01	8.0173	21.471279	0.000274	2.736937	0.463650	-0.005474
1200	5.9950e-01	8.0069	21.452891	0.000184	1.838880	0.311515	-0.003678
1201	6.0000e-01	7.9950	21.411411	0.000415	4.148171	0.702719	-0.008296
1202	6.0050e-01	7.9886	21.390030	0.000214	2.138232	0.362226	-0.004276
1203	6.0100e-01	7.9761	21.359669	0.000304	3.036290	0.514361	-0.006072
1204	6.0150e-01	7.9657	21.334439	0.000252	2.523114	0.427427	-0.005046
1205	6.0200e-01	7.9553	21.309209	0.000252	2.523114	0.427427	-0.005046
1206	6.0250e-01	7.9468	21.277992	0.000312	3.121819	0.528851	-0.006243
1207	6.0300e-01	7.9370	21.241216	0.000368	3.677760	0.623029	-0.007355
1208	6.0350e-01	7.9266	21.233947	0.000073	0.726999	0.123157	-0.001454
1209	6.0400e-01	7.9163	21.196743	0.000372	3.720524	0.630274	-0.007441
1210	6.0450e-01	7.9071	21.170658	0.000261	2.608644	0.441916	-0.005217
1211	6.0500e-01	7.9004	21.129606	0.000411	4.105406	0.695475	-0.008210
1212	6.0550e-01	7.8870	21.115922	0.000137	1.368469	0.231825	-0.002737
1213	6.0600e-01	7.8754	21.082140	0.000338	3.378407	0.572318	-0.006756
1214	6.0650e-01	7.8674	21.048785	0.000334	3.335643	0.565073	-0.006671
1215	6.0700e-01	7.8555	21.028259	0.000205	2.052703	0.347737	-0.004105
1216	6.0750e-01	7.8461	20.997042	0.000312	3.121819	0.528851	-0.006243
1217	6.0800e-01	7.8360	20.969674	0.000274	2.736937	0.463650	-0.005474
1218	6.0850e-01	7.8250	20.951714	0.000180	1.796115	0.304270	-0.003592
1219	6.0900e-01	7.8137	20.916221	0.000355	3.549466	0.601296	-0.007099
1220	6.0950e-01	7.8073	20.880301	0.000359	3.592230	0.608540	-0.007184
1221	6.1000e-01	7.7966	20.852505	0.000278	2.779702	0.470894	-0.005559
1222	6.1050e-01	7.7890	20.827703	0.000248	2.480350	0.420183	-0.004960
1223	6.1100e-01	7.7765	20.793493	0.000342	3.421172	0.579562	-0.006842
1224	6.1150e-01	7.7686	20.771684	0.000218	2.180997	0.369471	-0.004362
1225	6.1200e-01	7.7557	20.728921	0.000428	4.276465	0.724453	-0.008553
1226	6.1250e-01	7.7478	20.713099	0.000158	1.582292	0.268048	-0.003164
1227	6.1300e-01	7.7374	20.685731	0.000274	2.736937	0.463650	-0.005474
1228	6.1350e-01	7.7249	20.664350	0.000214	2.138232	0.362226	-0.004276
1229	6.1400e-01	7.7130	20.635699	0.000287	2.865231	0.485383	-0.005730
1230	6.1450e-01	7.7052	20.605765	0.000299	2.993525	0.507117	-0.005987
1231	6.1500e-01	7.6984	20.571555	0.000342	3.421172	0.579562	-0.006842
1232	6.1550e-01	7.6868	20.545898	0.000257	2.565879	0.434672	-0.005132
1233	6.1600e-01	7.6758	20.507839	0.000381	3.806054	0.644763	-0.007612
1234	6.1650e-01	7.6678	20.481754	0.000261	2.608644	0.441916	-0.005217
1235	6.1700e-01	7.6556	20.468925	0.000128	1.282939	0.217336	-0.002566
1236	6.1750e-01	7.6477	20.435998	0.000329	3.292878	0.557829	-0.006585
1237	6.1800e-01	7.6355	20.410341	0.000257	2.565879	0.434672	-0.005132
1238	6.1850e-01	7.6271	20.374848	0.000355	3.549466	0.601296	-0.007099
1239	6.1900e-01	7.6166	20.338927	0.000359	3.592230	0.608540	-0.007184
1240	6.1950e-01	7.6038	20.312842	0.000261	2.608644	0.441916	-0.005217
1241	6.2000e-01	7.5970	20.276066	0.000368	3.677760	0.623029	-0.007355
1242	6.2050e-01	7.5873	20.250409	0.000257	2.565879	0.434672	-0.005132
1243	6.2100e-01	7.5790	20.225606	0.000248	2.480350	0.420183	-0.004960
1244	6.2150e-01	7.5642	20.190114	0.000355	3.549466	0.601296	-0.007099
1245	6.2200e-01	7.5562	20.178995	0.000111	1.111881	0.188358	-0.002224
1246	6.2250e-01	7.5508	20.129391	0.000496	4.960699	0.840365	-0.009921
1247	6.2300e-01	7.5354	20.105016	0.000244	2.437585	0.412938	-0.004875
1248	6.2350e-01	7.5275	20.075082	0.000299	2.993525	0.507117	-0.005987
1249	6.2400e-01	7.5171	20.053701	0.000214	2.138232	0.362226	-0.004276
1250	6.2450e-01	7.5058	20.016498	0.000372	3.720524	0.630274	-0.007441
1251	6.2500e-01	7.4994	19.987419	0.000291	2.907996	0.492628	-0.005816
1252	6.2550e-01	7.4854	19.957913	0.000295	2.950761	0.499872	-0.005901
1253	6.2600e-01	7.4762	19.932683	0.000252	2.523114	0.427427	-0.005046
1254	6.2650e-01	7.4661	19.891203	0.000415	4.148171	0.702719	-0.008296
1255	6.2700e-01	7.4579	19.880513	0.000107	1.069116	0.181113	-0.002138
1256	6.2750e-01	7.4469	19.839033	0.000415	4.148171	0.702719	-0.008296
1257	6.2800e-01	7.4390	19.807817	0.000312	3.121819	0.528851	-0.006243
1258	6.2850e-01	7.4263	19.780449	0.000274	2.736937	0.463650	-0.005474
1259	6.2900e-01	7.4164	19.744100	0.000363	3.634995	0.615785	-0.007270
1260	6.2950e-01	7.4057	19.724857	0.000192	1.924409	0.326004	-0.003849
1261	6.3000e-01	7.3981	19.685088	0.000398	3.977112	0.673741	-0.007954
1262	6.3050e-01	7.3877	19.658148	0.000269	2.694173	0.456405	-0.005388
1263	6.3100e-01	7.3755	19.617523	0.000406	4.062642	0.688230	-0.008125
1264	6.3150e-01	7.3663	19.600418	0.000171	1.710586	0.289781	-0.003421
1265	6.3200e-01	7.3596	19.578609	0.000218	2.180997	0.369471	-0.004362
1266	6.3250e-01	7.3456	19.527722	0.000509	5.088993	0.862099	-0.010177
1267	6.3300e-01	7.3349	19.510617	0.000171	1.710586	0.289781	-0.003421
1268	6.3350e-01	7.3267	19.480683	0.000299	2.993525	0.507117	-0.005987
1269	6.3400e-01	7.3169	19.453315	0.000274	2.736937	0.463650	-0.005474
1270	6.3450e-01	7.3036	19.425092	0.000282	2.822467	0.478139	-0.005645
1271	6.3500e-01	7.2977	19.390027	0.000351	3.506701	0.594051	-0.007013
1272	6.3550e-01	7.2864	19.360093	0.000299	2.993525	0.507117	-0.005987
1273	6.3600e-01	7.2763	19.317758	0.000423	4.233700	0.717208	-0.008467
1274	6.3650e-01	7.2656	19.302363	0.000154	1.539527	0.260803	-0.003079
1275	6.3700e-01	7.2562	19.275423	0.000269	2.694173	0.456405	-0.005388
1276	6.3750e-01	7.2473	19.229240	0.000462	4.618582	0.782409	-0.009237
1277	6.3800e-01	7.2391	19.204865	0.000244	2.437585	0.412938	-0.004875
1278	6.3850e-01	7.2278	19.176642	0.000282	2.822467	0.478139	-0.005645
1279	6.3900e-01	7.2156	19.141149	0.000355	3.549466	0.601296	-0.007099
1280	6.3950e-01	7.2046	19.127037	0.000141	1.411233	0.239069	-0.002822
1281	6.4000e-01	7.1991	19.091544	0.000355	3.549466	0.601296	-0.007099
1282	6.4050e-01	7.1863	19.050492	0.000411	4.105406	0.695475	-0.008210
1283	6.4100e-01	7.1759	19.020986	0.000295	2.950761	0.499872	-0.005901
1284	6.4150e-01	7.1692	19.000032	0.000210	2.095468	0.354982	-0.004191
1285	6.4200e-01	7.1552	18.970526	0.000295	2.950761	0.499872	-0.005901
1286	6.4250e-01	7.1460	18.925626	0.000449	4.490288	0.760675	-0.008980
1287	6.4300e-01	7.1359	18.897830	0.000278	2.779702	0.470894	-0.005559
1288	6.4350e-01	7.1252	18.865330	0.000325	3.250113	0.550584	-0.006500
1289	6.4400e-01	7.1179	18.846943	0.000184	1.838880	0.311515	-0.003678
1290	6.4450e-01	7.1069	18.810594	0.000363	3.634995	0.615785	-0.007270
1291	6.4500e-01	7.0953	18.775957	0.000346	3.463937	0.586807	-0.006928
1292	6.4550e-01	7.0856	18.745595	0.000304	3.036290	0.514361	-0.006072
1293	6.4600e-01	7.0770	18.721221	0.000244	2.437585	0.412938	-0.004875
1294	6.4650e-01	7.0679	18.666912	0.000543	5.431110	0.920055	-0.010862
1295	6.4700e-01	7.0569	18.648097	0.000188	1.881645	0.318759	-0.003763
1296	6.4750e-01	7.0454	18.619874	0.000282	2.822467	0.478139	-0.005645
1297	6.4800e-01	7.0377	18.574118	0.000458	4.575817	0.775164	-0.009151
1298	6.4850e-01	7.0276	18.550598	0.000235	2.352056	0.398449	-0.004704
1299	6.4900e-01	7.0178	18.524941	0.000257	2.565879	0.434672	-0.005132
1300	6.4950e-01	7.0044	18.500138	0.000248	2.480350	0.420183	-0.004960
1301	6.5000e-01	6.9958	18.456093	0.000440	4.404759	0.746186	-0.008809
1302	6.5050e-01	6.9873	18.424021	0.000321	3.207349	0.543340	-0.006414
1303	6.5100e-01	6.9763	18.397508	0.000265	2.651408	0.449161	-0.005303
1304	6.5150e-01	6.9659	18.362443	0.000351	3.506701	0.594051	-0.007013
1305	6.5200e-01	6.9556	18.347904	0.000145	1.453998	0.246314	-0.002908
1306	6.5250e-01	6.9437	18.302148	0.000458	4.575817	0.775164	-0.009151
1307	6.5300e-01	6.9360	18.271359	0.000308	3.079055	0.521606	-0.006158
1308	6.5350e-01	6.9257	18.241425	0.000299	2.993525	0.507117	-0.005987
1309	6.5400e-01	6.9144	18.217906	0.000235	2.352056	0.398449	-0.004704
1310	6.5450e-01	6.9080	18.172150	0.000458	4.575817	0.775164	-0.009151
1311	6.5500e-01	6.8964	18.146920	0.000252	2.523114	0.427427	-0.005046
1312	6.5550e-01	6.8906	18.105440	0.000415	4.148171	0.702719	-0.008296
1313	6.5600e-01	6.8771	18.064816	0.000406	4.062642	0.688230	-0.008125
1314	6.5650e-01	6.8671	18.046000	0.000188	1.881645	0.318759	-0.003763
1315	6.5700e-01	6.8549	18.019915	0.000261	2.608644	0.441916	-0.005217
1316	6.5750e-01	6.8463	17.982712	0.000372	3.720524	0.630274	-0.007441
1317	6.5800e-01	6.8359	17.954916	0.000278	2.779702	0.470894	-0.005559
1318	6.5850e-01	6.8274	17.923272	0.000316	3.164584	0.536095	-0.006329
1319	6.5900e-01	6.8164	17.871102	0.000522	5.217287	0.883832	-0.010434
1320	6.5950e-01	6.8066	17.848010	0.000231	2.309291	0.391204	-0.004618
1321	6.6000e-01	6.7963	17.811662	0.000363	3.634995	0.615785	-0.007270
1322	6.6050e-01	6.7868	17.779590	0.000321	3.207349	0.543340	-0.006414
1323	6.6100e-01	6.7773	17.748373	0.000312	3.121819	0.528851	-0.006243
1324	6.6150e-01	6.7670	17.728702	0.000197	1.967174	0.333248	-0.003934
1325	6.6200e-01	6.7566	17.695775	0.000329	3.292878	0.557829	-0.006585
1326	6.6250e-01	6.7450	17.654723	0.000411	4.105406	0.695475	-0.008210
1327	6.6300e-01	6.7358	17.623507	0.000312	3.121819	0.528851	-0.006243
1328	6.6350e-01	6.7264	17.602125	0.000214	2.138232	0.362226	-0.004276
1329	6.6400e-01	6.7169	17.561501	0.000406	4.062642	0.688230	-0.008125
1330	6.6450e-01	6.7053	17.519166	0.000423	4.233700	0.717208	-0.008467
1331	6.6500e-01	6.6956	17.503344	0.000158	1.582292	0.268048	-0.003164
1332	6.6550e-01	6.6858	17.462720	0.000406	4.062642	0.688230	-0.008125
1333	6.6600e-01	6.6763	17.430220	0.000325	3.250113	0.550584	-0.006500
1334	6.6650e-01	6.6672	17.406273	0.000239	2.394820	0.405694	-0.004789
1335	6.6700e-01	6.6568	17.360089	0.000462	4.618582	0.782409	-0.009237
1336	6.6750e-01	6.6458	17.332294	0.000278	2.779702	0.470894	-0.005559
1337	6.6800e-01	6.6391	17.306636	0.000257	2.565879	0.434672	-0.005132
1338	6.6850e-01	6.6290	17.258315	0.000483	4.832405	0.818632	-0.009664
1339	6.6900e-01	6.6144	17.245486	0.000128	1.282939	0.217336	-0.002566
1340	6.6950e-01	6.6046	17.195026	0.000505	5.046228	0.854854	-0.010092
1341	6.7000e-01	6.5961	17.162954	0.000321	3.207349	0.543340	-0.006414
1342	6.7050e-01	6.5845	17.138580	0.000244	2.437585	0.412938	-0.004875
1343	6.7100e-01	6.5747	17.100521	0.000381	3.806054	0.644763	-0.007612
1344	6.7150e-01	6.5674	17.073153	0.000274	2.736937	0.463650	-0.005474
1345	6.7200e-01	6.5564	17.038515	0.000346	3.463937	0.586807	-0.006928
1346	6.7250e-01	6.5479	17.005160	0.000334	3.335643	0.565073	-0.006671
1347	6.7300e-01	6.5369	16.966247	0.000389	3.891583	0.659252	-0.007783
1348	6.7350e-01	6.5265	16.934602	0.000316	3.164584	0.536095	-0.006329
1349	6.7400e-01	6.5155	16.905951	0.000287	2.865231	0.485383	-0.005730
1350	6.7450e-01	6.5076	16.866182	0.000398	3.977112	0.673741	-0.007954
1351	6.7500e-01	6.4960	16.828979	0.000372	3.720524	0.630274	-0.007441
1352	6.7550e-01	6.4868	16.806742	0.000222	2.223762	0.376715	-0.004447
1353	6.7600e-01	6.4771	16.781085	0.000257	2.565879	0.434672	-0.005132
1354	6.7650e-01	6.4679	16.734474	0.000466	4.661347	0.789653	-0.009322
1355	6.7700e-01	6.4542	16.708389	0.000261	2.608644	0.441916	-0.005217
1356	6.7750e-01	6.4447	16.672896	0.000355	3.549466	0.601296	-0.007099
1357	6.7800e-01	6.4343	16.630988	0.000419	4.190936	0.709964	-0.008381
1358	6.7850e-01	6.4282	16.613456	0.000175	1.753351	0.297026	-0.003507
1359	6.7900e-01	6.4178	16.565989	0.000475	4.746876	0.804143	-0.009493
1360	6.7950e-01	6.4078	16.528786	0.000372	3.720524	0.630274	-0.007441
1361	6.8000e-01	6.3965	16.509115	0.000197	1.967174	0.333248	-0.003934
1362	6.8050e-01	6.3879	16.467208	0.000419	4.190936	0.709964	-0.008381
1363	6.8100e-01	6.3751	16.438129	0.000291	2.907996	0.492628	-0.005816
1364	6.8150e-01	6.3678	16.393229	0.000449	4.490288	0.760675	-0.008980
1365	6.8200e-01	6.3562	16.372703	0.000205	2.052703	0.347737	-0.004105
1366	6.8250e-01	6.3477	16.330368	0.000423	4.233700	0.717208	-0.008467
1367	6.8300e-01	6.3367	16.289743	0.000406	4.062642	0.688230	-0.008125
1368	6.8350e-01	6.3287	16.255106	0.000346	3.463937	0.586807	-0.006928
1369	6.8400e-01	6.3144	16.231586	0.000235	2.352056	0.398449	-0.004704
1370	6.8450e-01	6.3049	16.202080	0.000295	2.950761	0.499872	-0.005901
1371	6.8500e-01	6.2946	16.176850	0.000252	2.523114	0.427427	-0.005046
1372	6.8550e-01	6.2885	16.134515	0.000423	4.233700	0.717208	-0.008467
1373	6.8600e-01	6.2762	16.096884	0.000376	3.763289	0.637518	-0.007526
1374	6.8650e-01	6.2660	16.069089	0.000278	2.779702	0.470894	-0.005559
1375	6.8700e-01	6.2547	16.027181	0.000419	4.190936	0.709964	-0.008381
1376	6.8750e-01	6.2473	15.989123	0.000381	3.806054	0.644763	-0.007612
1377	6.8800e-01	6.2366	15.956196	0.000329	3.292878	0.557829	-0.006585
1378	6.8850e-01	6.2274	15.924979	0.000312	3.121819	0.528851	-0.006243
1379	6.8900e-01	6.2177	15.885210	0.000398	3.977112	0.673741	-0.007954
1380	6.8950e-01	6.2079	15.861691	0.000235	2.352056	0.398449	-0.004704
1381	6.9000e-01	6.1987	15.820638	0.000411	4.105406	0.695475	-0.008210
1382	6.9050e-01	6.1884	15.772317	0.000483	4.832405	0.818632	-0.009664
1383	6.9100e-01	6.1774	15.750508	0.000218	2.180997	0.369471	-0.004362
1384	6.9150e-01	6.1670	15.716726	0.000338	3.378407	0.572318	-0.006756
1385	6.9200e-01	6.1574	15.685509	0.000312	3.121819	0.528851	-0.006243
1386	6.9250e-01	6.1456	15.650871	0.000346	3.463937	0.586807	-0.006928
1387	6.9300e-01	6.1359	15.616234	0.000346	3.463937	0.586807	-0.006928
1388	6.9350e-01	6.1310	15.579885	0.000363	3.634995	0.615785	-0.007270
1389	6.9400e-01	6.1176	15.538406	0.000415	4.148171	0.702719	-0.008296
1390	6.9450e-01	6.1072	15.515314	0.000231	2.309291	0.391204	-0.004618
1391	6.9500e-01	6.0959	15.486236	0.000291	2.907996	0.492628	-0.005816
1392	6.9550e-01	6.0889	15.432355	0.000539	5.388346	0.912810	-0.010776
1393	6.9600e-01	6.0794	15.411401	0.000210	2.095468	0.354982	-0.004191
1394	6.9650e-01	6.0672	15.364362	0.000470	4.704111	0.796898	-0.009408
1395	6.9700e-01	6.0583	15.331435	0.000329	3.292878	0.557829	-0.006585
1396	6.9750e-01	6.0461	15.302357	0.000291	2.907996	0.492628	-0.005816
1397	6.9800e-01	6.0376	15.270712	0.000316	3.164584	0.536095	-0.006329
1398	6.9850e-01	6.0269	15.235219	0.000355	3.549466	0.601296	-0.007099
1399	6.9900e-01	6.0168	15.203575	0.000316	3.164584	0.536095	-0.006329
1400	6.9950e-01	6.0065	15.156109	0.000475	4.746876	0.804143	-0.009493
1401	7.0000e-01	5.9975	15.130451	0.000257	2.565879	0.434672	-0.005132
1402	7.0050e-01	5.9857	15.094531	0.000359	3.592230	0.608540	-0.007184
1403	7.0100e-01	5.9772	15.059465	0.000351	3.506701	0.594051	-0.007013
1404	7.0150e-01	5.9663	15.023117	0.000363	3.634995	0.615785	-0.007270
1405	7.0200e-01	5.9552	14.988907	0.000342	3.421172	0.579562	-0.006842
1406	7.0250e-01	5.9454	14.943151	0.000458	4.575817	0.775164	-0.009151
1407	7.0300e-01	5.9375	14.909797	0.000334	3.335643	0.565073	-0.006671
1408	7.0350e-01	5.9265	14.886277	0.000235	2.352056	0.398449	-0.004704
1409	7.0400e-01	5.9167	14.837100	0.000492	4.917935	0.833121	-0.009835
1410	7.0450e-01	5.9070	14.808877	0.000282	2.822467	0.478139	-0.005645
1411	7.0500e-01	5.8963	14.812298	-0.000034	-0.342117	-0.057956	0.000684
1412	7.0550e-01	5.8875	14.747299	0.000650	6.500227	1.101168	-0.013000
1413	7.0600e-01	5.8771	14.703681	0.000436	4.361994	0.738942	-0.008724
1414	7.0650e-01	5.8670	14.665195	0.000385	3.848818	0.652007	-0.007697
1415	7.0700e-01	5.8560	14.614308	0.000509	5.088993	0.862099	-0.010177
1416	7.0750e-01	5.8466	14.598913	0.000154	1.539527	0.260803	-0.003079
1417	7.0800e-01	5.8362	14.552302	0.000466	4.661347	0.789653	-0.009322
1418	7.0850e-01	5.8282	14.523223	0.000291	2.907996	0.492628	-0.005816
1419	7.0900e-01	5.8142	14.494572	0.000287	2.865231	0.485383	-0.005730
1420	7.0950e-01	5.8044	14.447106	0.000475	4.746876	0.804143	-0.009493
1421	7.1000e-01	5.7973	14.415462	0.000316	3.164584	0.536095	-0.006329
1422	7.1050e-01	5.7863	14.376976	0.000385	3.848818	0.652007	-0.007697
1423	7.1100e-01	5.7772	14.347042	0.000299	2.993525	0.507117	-0.005987
1424	7.1150e-01	5.7648	14.312404	0.000346	3.463937	0.586807	-0.006928
1425	7.1200e-01	5.7574	14.267931	0.000445	4.447523	0.753431	-0.008895
1426	7.1250e-01	5.7455	14.245695	0.000222	2.223762	0.376715	-0.004447
1427	7.1300e-01	5.7370	14.193952	0.000517	5.174522	0.876588	-0.010349
1428	7.1350e-01	5.7251	14.169577	0.000244	2.437585	0.412938	-0.004875
1429	7.1400e-01	5.7211	14.120400	0.000492	4.917935	0.833121	-0.009835
1430	7.1450e-01	5.7034	14.097736	0.000227	2.266526	0.383960	-0.004533
1431	7.1500e-01	5.6982	14.064381	0.000334	3.335643	0.565073	-0.006671
1432	7.1550e-01	5.6848	14.020764	0.000436	4.361994	0.738942	-0.008724
1433	7.1600e-01	5.6757	13.991258	0.000295	2.950761	0.499872	-0.005901
1434	7.1650e-01	5.6653	13.957475	0.000338	3.378407	0.572318	-0.006756
1435	7.1700e-01	5.6549	13.914285	0.000432	4.319229	0.731697	-0.008638
1436	7.1750e-01	5.6476	13.874943	0.000393	3.934348	0.666497	-0.007868
1437	7.1800e-01	5.6357	13.846293	0.000287	2.865231	0.485383	-0.005730
1438	7.1850e-01	5.6250	13.801392	0.000449	4.490288	0.760675	-0.008980
1439	7.1900e-01	5.6152	13.763761	0.000376	3.763289	0.637518	-0.007526
1440	7.1950e-01	5.6088	13.732544	0.000312	3.121819	0.528851	-0.006243
1441	7.2000e-01	5.5951	13.700472	0.000321	3.207349	0.543340	-0.006414
1442	7.2050e-01	5.5856	13.658565	0.000419	4.190936	0.709964	-0.008381
1443	7.2100e-01	5.5771	13.631197	0.000274	2.736937	0.463650	-0.005474
1444	7.2150e-01	5.5664	13.590145	0.000411	4.105406	0.695475	-0.008210
1445	7.2200e-01	5.5579	13.545244	0.000449	4.490288	0.760675	-0.008980
1446	7.2250e-01	5.5453	13.514455	0.000308	3.079055	0.521606	-0.006158
1447	7.2300e-01	5.5347	13.473831	0.000406	4.062642	0.688230	-0.008125
1448	7.2350e-01	5.5261	13.439621	0.000342	3.421172	0.579562	-0.006842
1449	7.2400e-01	5.5170	13.399852	0.000398	3.977112	0.673741	-0.007954
1450	7.2450e-01	5.5084	13.360083	0.000398	3.977112	0.673741	-0.007954
1451	7.2500e-01	5.4993	13.334853	0.000252	2.523114	0.427427	-0.005046
1452	7.2550e-01	5.4861	13.291235	0.000436	4.361994	0.738942	-0.008724
1453	7.2600e-01	5.4761	13.246762	0.000445	4.447523	0.753431	-0.008895
1454	7.2650e-01	5.4633	13.223243	0.000235	2.352056	0.398449	-0.004704
1455	7.2700e-01	5.4553	13.186039	0.000372	3.720524	0.630274	-0.007441
1456	7.2750e-01	5.4465	13.143704	0.000423	4.233700	0.717208	-0.008467
1457	7.2800e-01	5.4370	13.100514	0.000432	4.319229	0.731697	-0.008638
1458	7.2850e-01	5.4239	13.076995	0.000235	2.352056	0.398449	-0.004704
1459	7.2900e-01	5.4193	13.022686	0.000543	5.431110	0.920055	-0.010862
1460	7.2950e-01	5.4074	13.000022	0.000227	2.266526	0.383960	-0.004533
1461	7.3000e-01	5.3938	12.957260	0.000428	4.276465	0.724453	-0.008553
1462	7.3050e-01	5.3854	12.913642	0.000436	4.361994	0.738942	-0.008724
1463	7.3100e-01	5.3761	12.875583	0.000381	3.806054	0.644763	-0.007612
1464	7.3150e-01	5.3674	12.850353	0.000252	2.523114	0.427427	-0.005046
1465	7.3200e-01	5.3558	12.813578	0.000368	3.677760	0.623029	-0.007355
1466	7.3250e-01	5.3479	12.769105	0.000445	4.447523	0.753431	-0.008895
1467	7.3300e-01	5.3365	12.733184	0.000359	3.592230	0.608540	-0.007184
1468	7.3350e-01	5.3271	12.696836	0.000363	3.634995	0.615785	-0.007270
1469	7.3400e-01	5.3156	12.660488	0.000363	3.634995	0.615785	-0.007270
1470	7.3450e-01	5.3088	12.620291	0.000402	4.019877	0.680986	-0.008039
1471	7.3500e-01	5.2985	12.574535	0.000458	4.575817	0.775164	-0.009151
1472	7.3550e-01	5.2856	12.542891	0.000316	3.164584	0.536095	-0.006329
1473	7.3600e-01	5.2762	12.512102	0.000308	3.079055	0.521606	-0.006158
1474	7.3650e-01	5.2673	12.473615	0.000385	3.848818	0.652007	-0.007697
1475	7.3700e-01	5.2551	12.431708	0.000419	4.190936	0.709964	-0.008381
1476	7.3750e-01	5.2466	12.391939	0.000398	3.977112	0.673741	-0.007954
1477	7.3800e-01	5.2383	12.359440	0.000325	3.250113	0.550584	-0.006500
1478	7.3850e-01	5.2271	12.311973	0.000475	4.746876	0.804143	-0.009493
1479	7.3900e-01	5.2173	12.280329	0.000316	3.164584	0.536095	-0.006329
1480	7.3950e-01	5.2078	12.244836	0.000355	3.549466	0.601296	-0.007099
1481	7.4000e-01	5.1941	12.213192	0.000316	3.164584	0.536095	-0.006329
1482	7.4050e-01	5.1868	12.169146	0.000440	4.404759	0.746186	-0.008809
1483	7.4100e-01	5.1770	12.128522	0.000406	4.062642	0.688230	-0.008125
1484	7.4150e-01	5.1657	12.085332	0.000432	4.319229	0.731697	-0.008638
1485	7.4200e-01	5.1587	12.048984	0.000363	3.634995	0.615785	-0.007270
1486	7.4250e-01	5.1465	12.016484	0.000325	3.250113	0.550584	-0.006500
1487	7.4300e-01	5.1355	11.973722	0.000428	4.276465	0.724453	-0.008553
1488	7.4350e-01	5.1257	11.940367	0.000334	3.335643	0.565073	-0.006671
1489	7.4400e-01	5.1157	11.907440	0.000329	3.292878	0.557829	-0.006585
1490	7.4450e-01	5.1053	11.851421	0.000560	5.602169	0.949033	-0.011204
1491	7.4500e-01	5.0925	11.818494	0.000329	3.292878	0.557829	-0.006585
1492	7.4550e-01	5.0846	11.792408	0.000261	2.608644	0.441916	-0.005217
1493	7.4600e-01	5.0758	11.743231	0.000492	4.917935	0.833121	-0.009835
1494	7.4650e-01	5.0665	11.703890	0.000393	3.934348	0.666497	-0.007868
1495	7.4700e-01	5.0543	11.672673	0.000312	3.121819	0.528851	-0.006243
1496	7.4750e-01	5.0452	11.622214	0.000505	5.046228	0.854854	-0.010092
1497	7.4800e-01	5.0319	11.600832	0.000214	2.138232	0.362226	-0.004276
1498	7.4850e-01	5.0250	11.554649	0.000462	4.618582	0.782409	-0.009237
1499	7.4900e-01	5.0146	11.523860	0.000308	3.079055	0.521606	-0.006158
1500	7.4950e-01	5.0064	11.469124	0.000547	5.473875	0.927300	-0.010947
1501	7.5000e-01	4.9966	11.437907	0.000312	3.121819	0.528851	-0.006243
1502	7.5050e-01	4.9878	11.398566	0.000393	3.934348	0.666497	-0.007868
1503	7.5100e-01	4.9747	11.351954	0.000466	4.661347	0.789653	-0.009322
1504	7.5150e-01	4.9683	11.317317	0.000346	3.463937	0.586807	-0.006928
1505	7.5200e-01	4.9561	11.283107	0.000342	3.421172	0.579562	-0.006842
1506	7.5250e-01	4.9469	11.233075	0.000500	5.003464	0.847610	-0.010006
1507	7.5300e-01	4.9359	11.203568	0.000295	2.950761	0.499872	-0.005901
1508	7.5350e-01	4.9292	11.164227	0.000393	3.934348	0.666497	-0.007868
1509	7.5400e-01	4.9152	11.132155	0.000321	3.207349	0.543340	-0.006414
1510	7.5450e-01	4.9066	11.068439	0.000637	6.371933	1.079435	-0.012743
1511	7.5500e-01	4.8975	11.052617	0.000158	1.582292	0.268048	-0.003164
1512	7.5550e-01	4.8880	11.000446	0.000522	5.217287	0.883832	-0.010434
1513	7.5600e-01	4.8775	10.972223	0.000282	2.822467	0.478139	-0.005645
1514	7.5650e-01	4.8657	10.929461	0.000428	4.276465	0.724453	-0.008553
1515	7.5700e-01	4.8554	10.883277	0.000462	4.618582	0.782409	-0.009237
1516	7.5750e-01	4.8463	10.854626	0.000287	2.865231	0.485383	-0.005730
1517	7.5800e-01	4.8358	10.808015	0.000466	4.661347	0.789653	-0.009322
1518	7.5850e-01	4.8260	10.764397	0.000436	4.361994	0.738942	-0.008724
1519	7.5900e-01	4.8157	10.735746	0.000287	2.865231	0.485383	-0.005730
1520	7.5950e-01	4.8056	10.690846	0.000449	4.490288	0.760675	-0.008980
1521	7.6000e-01	4.7969	10.652359	0.000385	3.848818	0.652007	-0.007697
1522	7.6050e-01	4.7856	10.615584	0.000368	3.677760	0.623029	-0.007355
1523	7.6100e-01	4.7766	10.553578	0.000620	6.200874	1.050456	-0.012401
1524	7.6150e-01	4.7664	10.536901	0.000167	1.667821	0.282537	-0.003335
1525	7.6200e-01	4.7569	10.492428	0.000445	4.447523	0.753431	-0.008895
1526	7.6250e-01	4.7449	10.463777	0.000287	2.865231	0.485383	-0.005730
1527	7.6300e-01	4.7351	10.420159	0.000436	4.361994	0.738942	-0.008724
1528	7.6350e-01	4.7296	10.376969	0.000432	4.319229	0.731697	-0.008638
1529	7.6400e-01	4.7162	10.329075	0.000479	4.789641	0.811387	-0.009579
1530	7.6450e-01	4.7058	10.289306	0.000398	3.977112	0.673741	-0.007954
1531	7.6500e-01	4.6976	10.255096	0.000342	3.421172	0.579562	-0.006842
1532	7.6550e-01	4.6857	10.213188	0.000419	4.190936	0.709964	-0.008381
1533	7.6600e-01	4.6777	10.182399	0.000308	3.079055	0.521606	-0.006158
1534	7.6650e-01	4.6669	10.143058	0.000393	3.934348	0.666497	-0.007868
1535	7.6700e-01	4.6558	10.095591	0.000475	4.746876	0.804143	-0.009493
1536	7.6750e-01	4.6497	10.045132	0.000505	5.046228	0.854854	-0.010092
1537	7.6800e-01	4.6381	10.016481	0.000287	2.865231	0.485383	-0.005730
1538	7.6850e-01	4.6277	9.972863	0.000436	4.361994	0.738942	-0.008724
1539	7.6900e-01	4.6173	9.935659	0.000372	3.720524	0.630274	-0.007441
1540	7.6950e-01	4.6069	9.895035	0.000406	4.062642	0.688230	-0.008125
1541	7.7000e-01	4.5975	9.833029	0.000620	6.200874	1.050456	-0.012401
1542	7.7050e-01	4.5874	9.809082	0.000239	2.394820	0.405694	-0.004789
1543	7.7100e-01	4.5770	9.775728	0.000334	3.335643	0.565073	-0.006671
1544	7.7150e-01	4.5667	9.722274	0.000535	5.345581	0.905566	-0.010691
1545	7.7200e-01	4.5580	9.683361	0.000389	3.891583	0.659252	-0.007783
1546	7.7250e-01	4.5459	9.643591	0.000398	3.977112	0.673741	-0.007954
1547	7.7300e-01	4.5351	9.615796	0.000278	2.779702	0.470894	-0.005559
1548	7.7350e-01	4.5279	9.567902	0.000479	4.789641	0.811387	-0.009579
1549	7.7400e-01	4.5168	9.534975	0.000329	3.292878	0.557829	-0.006585
1550	7.7450e-01	4.5074	9.489219	0.000458	4.575817	0.775164	-0.009151
1551	7.7500e-01	4.4946	9.443035	0.000462	4.618582	0.782409	-0.009237
1552	7.7550e-01	4.4897	9.400700	0.000423	4.233700	0.717208	-0.008467
1553	7.7600e-01	4.4778	9.371622	0.000291	2.907996	0.492628	-0.005816
1554	7.7650e-01	4.4678	9.313465	0.000582	5.815992	0.985256	-0.011631
1555	7.7700e-01	4.4568	9.285241	0.000282	2.822467	0.478139	-0.005645
1556	7.7750e-01	4.4455	9.240341	0.000449	4.490288	0.760675	-0.008980
1557	7.7800e-01	4.4363	9.191164	0.000492	4.917935	0.833121	-0.009835
1558	7.7850e-01	4.4250	9.167217	0.000239	2.394820	0.405694	-0.004789
1559	7.7900e-01	4.4170	9.118895	0.000483	4.832405	0.818632	-0.009664
1560	7.7950e-01	4.4098	9.076560	0.000423	4.233700	0.717208	-0.008467
1561	7.8000e-01	4.3970	9.045344	0.000312	3.121819	0.528851	-0.006243
1562	7.8050e-01	4.3863	8.994456	0.000509	5.088993	0.862099	-0.010177
1563	7.8100e-01	4.3768	8.953832	0.000406	4.062642	0.688230	-0.008125
1564	7.8150e-01	4.3648	8.907648	0.000462	4.618582	0.782409	-0.009237
1565	7.8200e-01	4.3573	8.873011	0.000346	3.463937	0.586807	-0.006928
1566	7.8250e-01	4.3475	8.837090	0.000359	3.592230	0.608540	-0.007184
1567	7.8300e-01	4.3365	8.781499	0.000556	5.559404	0.941789	-0.011118
1568	7.8350e-01	4.3262	8.745151	0.000363	3.634995	0.615785	-0.007270
1569	7.8400e-01	4.3146	8.712224	0.000329	3.292878	0.557829	-0.006585
1570	7.8450e-01	4.3076	8.664330	0.000479	4.789641	0.811387	-0.009579
1571	7.8500e-01	4.2963	8.620712	0.000436	4.361994	0.738942	-0.008724
1572	7.8550e-01	4.2870	8.577522	0.000432	4.319229	0.731697	-0.008638
1573	7.8600e-01	4.2789	8.528345	0.000492	4.917935	0.833121	-0.009835
1574	7.8650e-01	4.2664	8.485582	0.000428	4.276465	0.724453	-0.008553
1575	7.8700e-01	4.2569	8.458642	0.000269	2.694173	0.456405	-0.005388
1576	7.8750e-01	4.2471	8.403478	0.000552	5.516640	0.934544	-0.011033
1577	7.8800e-01	4.2355	8.366702	0.000368	3.677760	0.623029	-0.007355
1578	7.8850e-01	4.2291	8.333348	0.000334	3.335643	0.565073	-0.006671
1579	7.8900e-01	4.2178	8.284598	0.000488	4.875170	0.825876	-0.009750
1580	7.8950e-01	4.2051	8.245257	0.000393	3.934348	0.666497	-0.007868
1581	7.9000e-01	4.1971	8.198218	0.000470	4.704111	0.796898	-0.009408
1582	7.9050e-01	4.1901	8.158021	0.000402	4.019877	0.680986	-0.008039
1583	7.9100e-01	4.1760	8.110555	0.000475	4.746876	0.804143	-0.009493
1584	7.9150e-01	4.1660	8.074207	0.000363	3.634995	0.615785	-0.007270
1585	7.9200e-01	4.1576	8.033582	0.000406	4.062642	0.688230	-0.008125
1586	7.9250e-01	4.1467	7.993813	0.000398	3.977112	0.673741	-0.007954
1587	7.9300e-01	4.1383	7.936939	0.000569	5.687698	0.963522	-0.011375
1588	7.9350e-01	4.1272	7.896742	0.000402	4.019877	0.680986	-0.008039
1589	7.9400e-01	4.1159	7.870229	0.000265	2.651408	0.449161	-0.005303
1590	7.9450e-01	4.1064	7.822335	0.000479	4.789641	0.811387	-0.009579
1591	7.9500e-01	4.0958	7.782994	0.000393	3.934348	0.666497	-0.007868
1592	7.9550e-01	4.0889	7.727403	0.000556	5.559404	0.941789	-0.011118
1593	7.9600e-01	4.0735	7.688489	0.000389	3.891583	0.659252	-0.007783
1594	7.9650e-01	4.0671	7.646581	0.000419	4.190936	0.709964	-0.008381
1595	7.9700e-01	4.0564	7.608095	0.000385	3.848818	0.652007	-0.007697
1596	7.9750e-01	4.0466	7.564905	0.000432	4.319229	0.731697	-0.008638
1597	7.9800e-01	4.0387	7.509314	0.000556	5.559404	0.941789	-0.011118
1598	7.9850e-01	4.0253	7.469117	0.000402	4.019877	0.680986	-0.008039
1599	7.9900e-01	4.0187	7.431486	0.000376	3.763289	0.637518	-0.007526
1600	7.9950e-01	4.0064	7.400269	0.000312	3.121819	0.528851	-0.006243
1601	8.0000e-01	3.9977	7.361355	0.000389	3.891583	0.659252	-0.007783
1602	8.0050e-01	3.9875	7.310468	0.000509	5.088993	0.862099	-0.010177
1603	8.0100e-01	3.9758	7.256587	0.000539	5.388346	0.912810	-0.010776
1604	8.0150e-01	3.9670	7.214680	0.000419	4.190936	0.709964	-0.008381
1605	8.0200e-01	3.9532	7.180042	0.000346	3.463937	0.586807	-0.006928
1606	8.0250e-01	3.9456	7.135997	0.000440	4.404759	0.746186	-0.008809
1607	8.0300e-01	3.9374	7.091524	0.000445	4.447523	0.753431	-0.008895
1608	8.0350e-01	3.9284	7.033367	0.000582	5.815992	0.985256	-0.011631
1609	8.0400e-01	3.9197	7.006854	0.000265	2.651408	0.449161	-0.005303
1610	8.0450e-01	3.9084	6.962381	0.000445	4.447523	0.753431	-0.008895
1611	8.0500e-01	3.8962	6.920046	0.000423	4.233700	0.717208	-0.008467
1612	8.0550e-01	3.8850	6.888829	0.000312	3.121819	0.528851	-0.006243
1613	8.0600e-01	3.8737	6.836231	0.000526	5.260052	0.891077	-0.010520
1614	8.0650e-01	3.8660	6.791758	0.000445	4.447523	0.753431	-0.008895
1615	8.0700e-01	3.8559	6.738733	0.000530	5.302816	0.898321	-0.010605
1616	8.0750e-01	3.8458	6.701529	0.000372	3.720524	0.630274	-0.007441
1617	8.0800e-01	3.8354	6.666037	0.000355	3.549466	0.601296	-0.007099
1618	8.0850e-01	3.8255	6.608735	0.000573	5.730463	0.970767	-0.011460
1619	8.0900e-01	3.8148	6.570249	0.000385	3.848818	0.652007	-0.007697
1620	8.0950e-01	3.8055	6.531335	0.000389	3.891583	0.659252	-0.007783
1621	8.1000e-01	3.7927	6.491138	0.000402	4.019877	0.680986	-0.008039
1622	8.1050e-01	3.7872	6.442389	0.000488	4.875170	0.825876	-0.009750
1623	8.1100e-01	3.7726	6.406040	0.000363	3.634995	0.615785	-0.007270
1624	8.1150e-01	3.7659	6.351304	0.000547	5.473875	0.927300	-0.010947
1625	8.1200e-01	3.7585	6.312390	0.000389	3.891583	0.659252	-0.007783
1626	8.1250e-01	3.7460	6.267917	0.000445	4.447523	0.753431	-0.008895
1627	8.1300e-01	3.7370	6.226865	0.000411	4.105406	0.695475	-0.008210
1628	8.1350e-01	3.7271	6.187952	0.000389	3.891583	0.659252	-0.007783
1629	8.1400e-01	3.7149	6.135781	0.000522	5.217287	0.883832	-0.010434
1630	8.1450e-01	3.7072	6.096012	0.000398	3.977112	0.673741	-0.007954
1631	8.1500e-01	3.6975	6.042559	0.000535	5.345581	0.905566	-0.010691
1632	8.1550e-01	3.6872	5.989533	0.000530	5.302816	0.898321	-0.010605
1633	8.1600e-01	3.6777	5.948909	0.000406	4.062642	0.688230	-0.008125
1634	8.1650e-01	3.6670	5.902725	0.000462	4.618582	0.782409	-0.009237
1635	8.1700e-01	3.6557	5.867660	0.000351	3.506701	0.594051	-0.007013
1636	8.1750e-01	3.6472	5.836016	0.000316	3.164584	0.536095	-0.006329
1637	8.1800e-01	3.6371	5.771017	0.000650	6.500227	1.101168	-0.013000
1638	8.1850e-01	3.6261	5.735952	0.000351	3.506701	0.594051	-0.007013
1639	8.1900e-01	3.6169	5.687202	0.000488	4.875170	0.825876	-0.009750
1640	8.1950e-01	3.6066	5.644012	0.000432	4.319229	0.731697	-0.008638
1641	8.2000e-01	3.5973	5.598684	0.000453	4.533053	0.767920	-0.009066
1642	8.2050e-01	3.5867	5.558060	0.000406	4.062642	0.688230	-0.008125
1643	8.2100e-01	3.5793	5.511021	0.000470	4.704111	0.796898	-0.009408
1644	8.2150e-01	3.5635	5.467831	0.000432	4.319229	0.731697	-0.008638
1645	8.2200e-01	3.5571	5.420364	0.000475	4.746876	0.804143	-0.009493
1646	8.2250e-01	3.5510	5.388292	0.000321	3.207349	0.543340	-0.006414
1647	8.2300e-01	3.5371	5.328852	0.000594	5.944286	1.006989	-0.011888
1648	8.2350e-01	3.5251	5.271978	0.000569	5.687698	0.963522	-0.011375
1649	8.2400e-01	3.5157	5.249314	0.000227	2.266526	0.383960	-0.004533
1650	8.2450e-01	3.5066	5.183460	0.000659	6.585756	1.115657	-0.013171
1651	8.2500e-01	3.4972	5.147112	0.000363	3.634995	0.615785	-0.007270
1652	8.2550e-01	3.4888	5.104349	0.000428	4.276465	0.724453	-0.008553
1653	8.2600e-01	3.4763	5.064152	0.000402	4.019877	0.680986	-0.008039
1654	8.2650e-01	3.4656	5.012837	0.000513	5.131758	0.869343	-0.010263
1655	8.2700e-01	3.4552	4.973496	0.000393	3.934348	0.666497	-0.007868
1656	8.2750e-01	3.4461	4.905931	0.000676	6.756814	1.144635	-0.013513
1657	8.2800e-01	3.4381	4.876425	0.000295	2.950761	0.499872	-0.005901
1658	8.2850e-01	3.4265	4.833235	0.000432	4.319229	0.731697	-0.008638
1659	8.2900e-01	3.4167	4.793038	0.000402	4.019877	0.680986	-0.008039
1660	8.2950e-01	3.4081	4.733598	0.000594	5.944286	1.006989	-0.011888
1661	8.3000e-01	3.3984	4.699816	0.000338	3.378407	0.572318	-0.006756
1662	8.3050e-01	3.3868	4.649356	0.000505	5.046228	0.854854	-0.010092
1663	8.3100e-01	3.3768	4.606166	0.000432	4.319229	0.731697	-0.008638
1664	8.3150e-01	3.3685	4.549719	0.000564	5.644934	0.956278	-0.011289
1665	8.3200e-01	3.3563	4.517220	0.000325	3.250113	0.550584	-0.006500
1666	8.3250e-01	3.3475	4.467615	0.000496	4.960699	0.840365	-0.009921
1667	8.3300e-01	3.3395	4.421432	0.000462	4.618582	0.782409	-0.009237
1668	8.3350e-01	3.3255	4.384656	0.000368	3.677760	0.623029	-0.007355
1669	8.3400e-01	3.3179	4.321795	0.000629	6.286403	1.064946	-0.012572
1670	8.3450e-01	3.3045	4.285019	0.000368	3.677760	0.623029	-0.007355
1671	8.3500e-01	3.2938	4.242257	0.000428	4.276465	0.724453	-0.008553
1672	8.3550e-01	3.2858	4.192224	0.000500	5.003464	0.847610	-0.010006
1673	8.3600e-01	3.2773	4.148179	0.000440	4.404759	0.746186	-0.008809
1674	8.3650e-01	3.2675	4.093443	0.000547	5.473875	0.927300	-0.010947
1675	8.3700e-01	3.2553	4.050253	0.000432	4.319229	0.731697	-0.008638
1676	8.3750e-01	3.2465	4.007490	0.000428	4.276465	0.724453	-0.008553
1677	8.3800e-01	3.2376	3.957458	0.000500	5.003464	0.847610	-0.010006
1678	8.3850e-01	3.2300	3.908281	0.000492	4.917935	0.833121	-0.009835
1679	8.3900e-01	3.2160	3.858249	0.000500	5.003464	0.847610	-0.010006
1680	8.3950e-01	3.2053	3.814204	0.000440	4.404759	0.746186	-0.008809
1681	8.4000e-01	3.1982	3.766310	0.000479	4.789641	0.811387	-0.009579
1682	8.4050e-01	3.1863	3.729534	0.000368	3.677760	0.623029	-0.007355
1683	8.4100e-01	3.1759	3.679502	0.000500	5.003464	0.847610	-0.010006
1684	8.4150e-01	3.1660	3.622628	0.000569	5.687698	0.963522	-0.011375
1685	8.4200e-01	3.1561	3.579865	0.000428	4.276465	0.724453	-0.008553
1686	8.4250e-01	3.1482	3.543517	0.000363	3.634995	0.615785	-0.007270
1687	8.4300e-01	3.1366	3.487498	0.000560	5.602169	0.949033	-0.011204
1688	8.4350e-01	3.1253	3.454143	0.000334	3.335643	0.565073	-0.006671
1689	8.4400e-01	3.1169	3.392993	0.000612	6.115345	1.035967	-0.012230
1690	8.4450e-01	3.1070	3.352368	0.000406	4.062642	0.688230	-0.008125
1691	8.4500e-01	3.0978	3.299770	0.000526	5.260052	0.891077	-0.010520
1692	8.4550e-01	3.0859	3.265133	0.000346	3.463937	0.586807	-0.006928
1693	8.4600e-01	3.0764	3.216384	0.000488	4.875170	0.825876	-0.009750
1694	8.4650e-01	3.0671	3.159509	0.000569	5.687698	0.963522	-0.011375
1695	8.4700e-01	3.0551	3.122734	0.000368	3.677760	0.623029	-0.007355
1696	8.4750e-01	3.0469	3.052603	0.000701	7.013402	1.188103	-0.014026
1697	8.4800e-01	3.0356	3.008130	0.000445	4.447523	0.753431	-0.008895
1698	8.4850e-01	3.0237	2.979051	0.000291	2.907996	0.492628	-0.005816
1699	8.4900e-01	3.0162	2.921750	0.000573	5.730463	0.970767	-0.011460
1700	8.4950e-01	3.0054	2.873856	0.000479	4.789641	0.811387	-0.009579
1701	8.5000e-01	2.9976	2.817837	0.000560	5.602169	0.949033	-0.011204
1702	8.5050e-01	2.9871	2.774219	0.000436	4.361994	0.738942	-0.008724
1703	8.5100e-01	2.9733	2.731029	0.000432	4.319229	0.731697	-0.008638
1704	8.5150e-01	2.9681	2.689549	0.000415	4.148171	0.702719	-0.008296
1705	8.5200e-01	2.9590	2.644221	0.000453	4.533053	0.767920	-0.009066
1706	8.5250e-01	2.9463	2.580505	0.000637	6.371933	1.079435	-0.012743
1707	8.5300e-01	2.9358	2.548860	0.000316	3.164584	0.536095	-0.006329
1708	8.5350e-01	2.9261	2.494980	0.000539	5.388346	0.912810	-0.010776
1709	8.5400e-01	2.9156	2.442382	0.000526	5.260052	0.891077	-0.010520
1710	8.5450e-01	2.9071	2.400902	0.000415	4.148171	0.702719	-0.008296
1711	8.5500e-01	2.8964	2.356429	0.000445	4.447523	0.753431	-0.008895
1712	8.5550e-01	2.8874	2.292713	0.000637	6.371933	1.079435	-0.012743
1713	8.5600e-01	2.8754	2.257220	0.000355	3.549466	0.601296	-0.007099
1714	8.5650e-01	2.8670	2.217023	0.000402	4.019877	0.680986	-0.008039
1715	8.5700e-01	2.8558	2.157156	0.000599	5.987051	1.014234	-0.011974
1716	8.5750e-01	2.8452	2.112255	0.000449	4.490288	0.760675	-0.008980
1717	8.5800e-01	2.8378	2.067354	0.000449	4.490288	0.760675	-0.008980
1718	8.5850e-01	2.8264	2.013474	0.000539	5.388346	0.912810	-0.010776
1719	8.5900e-01	2.8149	1.962586	0.000509	5.088993	0.862099	-0.010177
1720	8.5950e-01	2.8064	1.915975	0.000466	4.661347	0.789653	-0.009322
1721	8.6000e-01	2.7972	1.866371	0.000496	4.960699	0.840365	-0.009921
1722	8.6050e-01	2.7863	1.805648	0.000607	6.072580	1.028723	-0.012145
1723	8.6100e-01	2.7748	1.760319	0.000453	4.533053	0.767920	-0.009066
1724	8.6150e-01	2.7673	1.721406	0.000389	3.891583	0.659252	-0.007783
1725	8.6200e-01	2.7542	1.672229	0.000492	4.917935	0.833121	-0.009835
1726	8.6250e-01	2.7444	1.629038	0.000432	4.319229	0.731697	-0.008638
1727	8.6300e-01	2.7368	1.572164	0.000569	5.687698	0.963522	-0.011375
1728	8.6350e-01	2.7271	1.517428	0.000547	5.473875	0.927300	-0.010947
1729	8.6400e-01	2.7167	1.465258	0.000522	5.217287	0.883832	-0.010434
1730	8.6450e-01	2.7078	1.430620	0.000346	3.463937	0.586807	-0.006928
1731	8.6500e-01	2.6961	1.372891	0.000577	5.773228	0.978011	-0.011546
1732	8.6550e-01	2.6849	1.327990	0.000449	4.490288	0.760675	-0.008980
1733	8.6600e-01	2.6764	1.269406	0.000586	5.858757	0.992500	-0.011717
1734	8.6650e-01	2.6648	1.219373	0.000500	5.003464	0.847610	-0.010006
1735	8.6700e-01	2.6557	1.170197	0.000492	4.917935	0.833121	-0.009835
1736	8.6750e-01	2.6466	1.125296	0.000449	4.490288	0.760675	-0.008980
1737	8.6800e-01	2.6361	1.076547	0.000488	4.875170	0.825876	-0.009750
1738	8.6850e-01	2.6245	1.032929	0.000436	4.361994	0.738942	-0.008724
1739	8.6900e-01	2.6144	0.985890	0.000470	4.704111	0.796898	-0.009408
1740	8.6950e-01	2.6036	0.931154	0.000547	5.473875	0.927300	-0.010947
1741	8.7000e-01	2.5986	0.875990	0.000552	5.516640	0.934544	-0.011033
1742	8.7050e-01	2.5864	0.833228	0.000428	4.276465	0.724453	-0.008553
1743	8.7100e-01	2.5751	0.781913	0.000513	5.131758	0.869343	-0.010263
1744	8.7150e-01	2.5677	0.732736	0.000492	4.917935	0.833121	-0.009835
1745	8.7200e-01	2.5555	0.678855	0.000539	5.388346	0.912810	-0.010776
1746	8.7250e-01	2.5468	0.629678	0.000492	4.917935	0.833121	-0.009835
1747	8.7300e-01	2.5357	0.576653	0.000530	5.302816	0.898321	-0.010605
1748	8.7350e-01	2.5259	0.526621	0.000500	5.003464	0.847610	-0.010006
1749	8.7400e-01	2.5153	0.478299	0.000483	4.832405	0.818632	-0.009664
1750	8.7450e-01	2.5055	0.415866	0.000624	6.243639	1.057701	-0.012487
1751	8.7500e-01	2.4969	0.370537	0.000453	4.533053	0.767920	-0.009066
1752	8.7550e-01	2.4863	0.338038	0.000325	3.250113	0.550584	-0.006500
1753	8.7600e-01	2.4735	0.288861	0.000492	4.917935	0.833121	-0.009835
1754	8.7650e-01	2.4683	0.218303	0.000706	7.056167	1.195347	-0.014112
1755	8.7700e-01	2.4561	0.172119	0.000462	4.618582	0.782409	-0.009237
1756	8.7750e-01	2.4467	0.127646	0.000445	4.447523	0.753431	-0.008895
1757	8.7800e-01	2.4358	0.083173	0.000445	4.447523	0.753431	-0.008895
1758	8.7850e-01	2.4283	0.025016	0.000582	5.815992	0.985256	-0.011631
1759	8.7900e-01	2.4150	-0.022450	0.000475	4.746876	0.804143	-0.009493
1760	8.7950e-01	2.4067	-0.076759	0.000543	5.431110	0.920055	-0.010862
1761	8.8000e-01	2.3947	-0.119521	0.000428	4.276465	0.724453	-0.008553
1762	8.8050e-01	2.3819	-0.174685	0.000552	5.516640	0.934544	-0.011033
1763	8.8100e-01	2.3735	-0.241394	0.000667	6.671285	1.130146	-0.013342
1764	8.8150e-01	2.3651	-0.266197	0.000248	2.480350	0.420183	-0.004960
1765	8.8200e-01	2.3564	-0.329913	0.000637	6.371933	1.079435	-0.012743
1766	8.8250e-01	2.3461	-0.399188	0.000693	6.927873	1.173613	-0.013855
1767	8.8300e-01	2.3355	-0.447510	0.000483	4.832405	0.818632	-0.009664
1768	8.8350e-01	2.3264	-0.482575	0.000351	3.506701	0.594051	-0.007013
1769	8.8400e-01	2.3169	-0.534318	0.000517	5.174522	0.876588	-0.010349
1770	8.8450e-01	2.3065	-0.575370	0.000411	4.105406	0.695475	-0.008210
1771	8.8500e-01	2.2950	-0.639941	0.000646	6.457462	1.093924	-0.012914
1772	8.8550e-01	2.2870	-0.704940	0.000650	6.500227	1.101168	-0.013000
1773	8.8600e-01	2.2768	-0.748558	0.000436	4.361994	0.738942	-0.008724
1774	8.8650e-01	2.2670	-0.791321	0.000428	4.276465	0.724453	-0.008553
1775	8.8700e-01	2.2577	-0.844774	0.000535	5.345581	0.905566	-0.010691
1776	8.8750e-01	2.2445	-0.896944	0.000522	5.217287	0.883832	-0.010434
1777	8.8800e-01	2.2369	-0.944838	0.000479	4.789641	0.811387	-0.009579
1778	8.8850e-01	2.2264	-1.011975	0.000671	6.714050	1.137391	-0.013427
1779	8.8900e-01	2.2133	-1.041054	0.000291	2.907996	0.492628	-0.005816
1780	8.8950e-01	2.2062	-1.103487	0.000624	6.243639	1.057701	-0.012487
1781	8.9000e-01	2.1960	-1.148388	0.000449	4.490288	0.760675	-0.008980
1782	8.9050e-01	2.1861	-1.213814	0.000654	6.542991	1.108413	-0.013085
1783	8.9100e-01	2.1748	-1.260425	0.000466	4.661347	0.789653	-0.009322
1784	8.9150e-01	2.1655	-1.307892	0.000475	4.746876	0.804143	-0.009493
1785	8.9200e-01	2.1573	-1.368187	0.000603	6.029815	1.021478	-0.012059
1786	8.9250e-01	2.1448	-1.405818	0.000376	3.763289	0.637518	-0.007526
1787	8.9300e-01	2.1350	-1.465686	0.000599	5.987051	1.014234	-0.011974
1788	8.9350e-01	2.1252	-1.530685	0.000650	6.500227	1.101168	-0.013000
1789	8.9400e-01	2.1146	-1.564039	0.000334	3.335643	0.565073	-0.006671
1790	8.9450e-01	2.1085	-1.626473	0.000624	6.243639	1.057701	-0.012487
1791	8.9500e-01	2.0953	-1.682919	0.000564	5.644934	0.956278	-0.011289
1792	8.9550e-01	2.0871	-1.724827	0.000419	4.190936	0.709964	-0.008381
1793	8.9600e-01	2.0781	-1.785122	0.000603	6.029815	1.021478	-0.012059
1794	8.9650e-01	2.0636	-1.846272	0.000612	6.115345	1.035967	-0.012230
1795	8.9700e-01	2.0547	-1.883476	0.000372	3.720524	0.630274	-0.007441
1796	8.9750e-01	2.0444	-1.939922	0.000564	5.644934	0.956278	-0.011289
1797	8.9800e-01	2.0365	-2.004066	0.000641	6.414697	1.086679	-0.012829
1798	8.9850e-01	2.0267	-2.053243	0.000492	4.917935	0.833121	-0.009835
1799	8.9900e-01	2.0158	-2.093012	0.000398	3.977112	0.673741	-0.007954
1800	8.9950e-01	2.0078	-2.159721	0.000667	6.671285	1.130146	-0.013342
1801	9.0000e-01	1.9995	-2.207615	0.000479	4.789641	0.811387	-0.009579
1802	9.0050e-01	1.9861	-2.271332	0.000637	6.371933	1.079435	-0.012743
1803	9.0100e-01	1.9749	-2.304686	0.000334	3.335643	0.565073	-0.006671
1804	9.0150e-01	1.9643	-2.367120	0.000624	6.243639	1.057701	-0.012487
1805	9.0200e-01	1.9562	-2.427415	0.000603	6.029815	1.021478	-0.012059
1806	9.0250e-01	1.9473	-2.487282	0.000599	5.987051	1.014234	-0.011974
1807	9.0300e-01	1.9342	-2.526624	0.000393	3.934348	0.666497	-0.007868
1808	9.0350e-01	1.9267	-2.581788	0.000552	5.516640	0.934544	-0.011033
1809	9.0400e-01	1.9136	-2.645076	0.000633	6.329168	1.072190	-0.012658
1810	9.0450e-01	1.9040	-2.685701	0.000406	4.062642	0.688230	-0.008125
1811	9.0500e-01	1.8950	-2.739581	0.000539	5.388346	0.912810	-0.010776
1812	9.0550e-01	1.8872	-2.793462	0.000539	5.388346	0.912810	-0.010776
1813	9.0600e-01	1.8746	-2.856323	0.000629	6.286403	1.064946	-0.012572
1814	9.0650e-01	1.8642	-2.907210	0.000509	5.088993	0.862099	-0.010177
1815	9.0700e-01	1.8565	-2.953822	0.000466	4.661347	0.789653	-0.009322
1816	9.0750e-01	1.8445	-3.016255	0.000624	6.243639	1.057701	-0.012487
1817	9.0800e-01	1.8359	-3.069708	0.000535	5.345581	0.905566	-0.010691
1818	9.0850e-01	1.8282	-3.126582	0.000569	5.687698	0.963522	-0.011375
1819	9.0900e-01	1.8155	-3.172338	0.000458	4.575817	0.775164	-0.009151
1820	9.0950e-01	1.8085	-3.239475	0.000671	6.714050	1.137391	-0.013427
1821	9.1000e-01	1.7953	-3.280527	0.000411	4.105406	0.695475	-0.008210
1822	9.1050e-01	1.7859	-3.339540	0.000590	5.901521	0.999745	-0.011802
1823	9.1100e-01	1.7776	-3.393420	0.000539	5.388346	0.912810	-0.010776
1824	9.1150e-01	1.7664	-3.450722	0.000573	5.730463	0.970767	-0.011460
1825	9.1200e-01	1.7563	-3.515721	0.000650	6.500227	1.101168	-0.013000
1826	9.1250e-01	1.7468	-3.563188	0.000475	4.746876	0.804143	-0.009493
1827	9.1300e-01	1.7343	-3.613647	0.000505	5.046228	0.854854	-0.010092
1828	9.1350e-01	1.7249	-3.671377	0.000577	5.773228	0.978011	-0.011546
1829	9.1400e-01	1.7149	-3.732100	0.000607	6.072580	1.028723	-0.012145
1830	9.1450e-01	1.7072	-3.774007	0.000419	4.190936	0.709964	-0.008381
1831	9.1500e-01	1.6943	-3.835157	0.000612	6.115345	1.035967	-0.012230
1832	9.1550e-01	1.6841	-3.894597	0.000594	5.944286	1.006989	-0.011888
1833	9.1600e-01	1.6766	-3.939498	0.000449	4.490288	0.760675	-0.008980
1834	9.1650e-01	1.6657	-4.000648	0.000612	6.115345	1.035967	-0.012230
1835	9.1700e-01	1.6563	-4.054101	0.000535	5.345581	0.905566	-0.010691
1836	9.1750e-01	1.6457	-4.122521	0.000684	6.842344	1.159124	-0.013684
1837	9.1800e-01	1.6370	-4.158870	0.000363	3.634995	0.615785	-0.007270
1838	9.1850e-01	1.6291	-4.240974	0.000821	8.210812	1.390949	-0.016421
1839	9.1900e-01	1.6153	-4.278177	0.000372	3.720524	0.630274	-0.007441
1840	9.1950e-01	1.6055	-4.332485	0.000543	5.431110	0.920055	-0.010862
1841	9.2000e-01	1.5948	-4.397057	0.000646	6.457462	1.093924	-0.012914
1842	9.2050e-01	1.5861	-4.439819	0.000428	4.276465	0.724453	-0.008553
1843	9.2100e-01	1.5756	-4.502253	0.000624	6.243639	1.057701	-0.012487
1844	9.2150e-01	1.5628	-4.553568	0.000513	5.131758	0.869343	-0.010263
1845	9.2200e-01	1.5562	-4.619850	0.000663	6.628520	1.122902	-0.013256
1846	9.2250e-01	1.5471	-4.661757	0.000419	4.190936	0.709964	-0.008381
1847	9.2300e-01	1.5370	-4.727611	0.000659	6.585756	1.115657	-0.013171
1848	9.2350e-01	1.5256	-4.777216	0.000496	4.960699	0.840365	-0.009921
1849	9.2400e-01	1.5143	-4.847346	0.000701	7.013402	1.188103	-0.014026
1850	9.2450e-01	1.5034	-4.884550	0.000372	3.720524	0.630274	-0.007441
1851	9.2500e-01	1.4966	-4.962377	0.000778	7.783166	1.318504	-0.015566
1852	9.2550e-01	1.4854	-4.997870	0.000355	3.549466	0.601296	-0.007099
1853	9.2600e-01	1.4752	-5.057738	0.000599	5.987051	1.014234	-0.011974
1854	9.2650e-01	1.4673	-5.119744	0.000620	6.200874	1.050456	-0.012401
1855	9.2700e-01	1.4539	-5.168493	0.000488	4.875170	0.825876	-0.009750
1856	9.2750e-01	1.4436	-5.241189	0.000727	7.269990	1.231570	-0.014539
1857	9.2800e-01	1.4357	-5.292077	0.000509	5.088993	0.862099	-0.010177
1858	9.2850e-01	1.4258	-5.342109	0.000500	5.003464	0.847610	-0.010006
1859	9.2900e-01	1.4154	-5.405825	0.000637	6.371933	1.079435	-0.012743
1860	9.2950e-01	1.4046	-5.462699	0.000569	5.687698	0.963522	-0.011375
1861	9.3000e-01	1.3943	-5.526843	0.000641	6.414697	1.086679	-0.012829
1862	9.3050e-01	1.3892	-5.568750	0.000419	4.190936	0.709964	-0.008381
1863	9.3100e-01	1.3727	-5.627762	0.000590	5.901521	0.999745	-0.011802
1864	9.3150e-01	1.3648	-5.694900	0.000671	6.714050	1.137391	-0.013427
1865	9.3200e-01	1.3553	-5.751774	0.000569	5.687698	0.963522	-0.011375
1866	9.3250e-01	1.3466	-5.803089	0.000513	5.131758	0.869343	-0.010263
1867	9.3300e-01	1.3368	-5.861673	0.000586	5.858757	0.992500	-0.011717
1868	9.3350e-01	1.3257	-5.911706	0.000500	5.003464	0.847610	-0.010006
1869	9.3400e-01	1.3143	-5.979698	0.000680	6.799579	1.151880	-0.013598
1870	9.3450e-01	1.3072	-6.036572	0.000569	5.687698	0.963522	-0.011375
1871	9.3500e-01	1.2929	-6.081900	0.000453	4.533053	0.767920	-0.009066
1872	9.3550e-01	1.2851	-6.156307	0.000744	7.441049	1.260548	-0.014881
1873	9.3600e-01	1.2753	-6.228576	0.000723	7.227226	1.224325	-0.014454
1874	9.3650e-01	1.2659	-6.265352	0.000368	3.677760	0.623029	-0.007355
1875	9.3700e-01	1.2513	-6.326502	0.000612	6.115345	1.035967	-0.012230
1876	9.3750e-01	1.2469	-6.382521	0.000560	5.602169	0.949033	-0.011204
1877	9.3800e-01	1.2386	-6.435974	0.000535	5.345581	0.905566	-0.010691
1878	9.3850e-01	1.2250	-6.498835	0.000629	6.286403	1.064946	-0.012572
1879	9.3900e-01	1.2158	-6.557420	0.000586	5.858757	0.992500	-0.011717
1880	9.3950e-01	1.2070	-6.616860	0.000594	5.944286	1.006989	-0.011888
1881	9.4000e-01	1.1966	-6.664326	0.000475	4.746876	0.804143	-0.009493
1882	9.4050e-01	1.1878	-6.721200	0.000569	5.687698	0.963522	-0.011375
1883	9.4100e-01	1.1782	-6.787482	0.000663	6.628520	1.122902	-0.013256
1884	9.4150e-01	1.1661	-6.856757	0.000693	6.927873	1.173613	-0.013855
1885	9.4200e-01	1.1539	-6.913632	0.000569	5.687698	0.963522	-0.011375
1886	9.4250e-01	1.1469	-6.961953	0.000483	4.832405	0.818632	-0.009664
1887	9.4300e-01	1.1351	-7.029518	0.000676	6.756814	1.144635	-0.013513
1888	9.4350e-01	1.1261	-7.089813	0.000603	6.029815	1.021478	-0.012059
1889	9.4400e-01	1.1162	-7.141984	0.000522	5.217287	0.883832	-0.010434
1890	9.4450e-01	1.1075	-7.205272	0.000633	6.329168	1.072190	-0.012658
1891	9.4500e-01	1.0962	-7.256587	0.000513	5.131758	0.869343	-0.010263
1892	9.4550e-01	1.0857	-7.312606	0.000560	5.602169	0.949033	-0.011204
1893	9.4600e-01	1.0773	-7.390434	0.000778	7.783166	1.318504	-0.015566
1894	9.4650e-01	1.0648	-7.430631	0.000402	4.019877	0.680986	-0.008039
1895	9.4700e-01	1.0553	-7.495202	0.000646	6.457462	1.093924	-0.012914
1896	9.4750e-01	1.0463	-7.555070	0.000599	5.987051	1.014234	-0.011974
1897	9.4800e-01	1.0382	-7.608095	0.000530	5.302816	0.898321	-0.010605
1898	9.4850e-01	1.0284	-7.693620	0.000855	8.552930	1.448906	-0.017105
1899	9.4900e-01	1.0175	-7.746646	0.000530	5.302816	0.898321	-0.010605
1900	9.4950e-01	1.0092	-7.800526	0.000539	5.388346	0.912810	-0.010776
1901	9.5000e-01	0.9953	-7.855262	0.000547	5.473875	0.927300	-0.010947
1902	9.5050e-01	0.9857	-7.911281	0.000560	5.602169	0.949033	-0.011204
1903	9.5100e-01	0.9750	-7.989109	0.000778	7.783166	1.318504	-0.015566
1904	9.5150e-01	0.9658	-8.033155	0.000440	4.404759	0.746186	-0.008809
1905	9.5200e-01	0.9557	-8.091739	0.000586	5.858757	0.992500	-0.011717
1906	9.5250e-01	0.9479	-8.166574	0.000748	7.483813	1.267792	-0.014967
1907	9.5300e-01	0.9393	-8.229007	0.000624	6.243639	1.057701	-0.012487
1908	9.5350e-01	0.9278	-8.274763	0.000458	4.575817	0.775164	-0.009151
1909	9.5400e-01	0.9160	-8.336341	0.000616	6.158109	1.043212	-0.012316
1910	9.5450e-01	0.9035	-8.400057	0.000637	6.371933	1.079435	-0.012743
1911	9.5500e-01	0.8955	-8.455221	0.000552	5.516640	0.934544	-0.011033
1912	9.5550e-01	0.8840	-8.514661	0.000594	5.944286	1.006989	-0.011888
1913	9.5600e-01	0.8755	-8.577949	0.000633	6.329168	1.072190	-0.012658
1914	9.5650e-01	0.8670	-8.646797	0.000689	6.885108	1.166369	-0.013770
1915	9.5700e-01	0.8579	-8.698540	0.000517	5.174522	0.876588	-0.010349
1916	9.5750e-01	0.8462	-8.768242	0.000697	6.970638	1.180858	-0.013941
1917	9.5800e-01	0.8365	-8.834952	0.000667	6.671285	1.130146	-0.013342
1918	9.5850e-01	0.8257	-8.883274	0.000483	4.832405	0.818632	-0.009664
1919	9.5900e-01	0.8169	-8.955970	0.000727	7.269990	1.231570	-0.014539
1920	9.5950e-01	0.8067	-9.008568	0.000526	5.260052	0.891077	-0.010520
1921	9.6000e-01	0.7971	-9.077416	0.000689	6.885108	1.166369	-0.013770
1922	9.6050e-01	0.7858	-9.134717	0.000573	5.730463	0.970767	-0.011460
1923	9.6100e-01	0.7762	-9.200144	0.000654	6.542991	1.108413	-0.013085
1924	9.6150e-01	0.7645	-9.255735	0.000556	5.559404	0.941789	-0.011118
1925	9.6200e-01	0.7551	-9.325438	0.000697	6.970638	1.180858	-0.013941
1926	9.6250e-01	0.7454	-9.384450	0.000590	5.901521	0.999745	-0.011802
1927	9.6300e-01	0.7372	-9.446456	0.000620	6.200874	1.050456	-0.012401
1928	9.6350e-01	0.7248	-9.509317	0.000629	6.286403	1.064946	-0.012572
1929	9.6400e-01	0.7153	-9.563625	0.000543	5.431110	0.920055	-0.010862
1930	9.6450e-01	0.7037	-9.616651	0.000530	5.302816	0.898321	-0.010605
1931	9.6500e-01	0.6965	-9.698755	0.000821	8.210812	1.390949	-0.016421
1932	9.6550e-01	0.6871	-9.758623	0.000599	5.987051	1.014234	-0.011974
1933	9.6600e-01	0.6743	-9.822339	0.000637	6.371933	1.079435	-0.012743
1934	9.6650e-01	0.6673	-9.881351	0.000590	5.901521	0.999745	-0.011802
1935	9.6700e-01	0.6544	-9.939080	0.000577	5.773228	0.978011	-0.011546
1936	9.6750e-01	0.6449	-10.008783	0.000697	6.970638	1.180858	-0.013941
1937	9.6800e-01	0.6346	-10.067796	0.000590	5.901521	0.999745	-0.011802
1938	9.6850e-01	0.6275	-10.129801	0.000620	6.200874	1.050456	-0.012401
1939	9.6900e-01	0.6171	-10.197794	0.000680	6.799579	1.151880	-0.013598
1940	9.6950e-01	0.6068	-10.258089	0.000603	6.029815	1.021478	-0.012059
1941	9.7000e-01	0.5962	-10.329075	0.000710	7.098932	1.202592	-0.014197
1942	9.7050e-01	0.5876	-10.386376	0.000573	5.730463	0.970767	-0.011460
1943	9.7100e-01	0.5754	-10.457790	0.000714	7.141696	1.209836	-0.014283
1944	9.7150e-01	0.5643	-10.512526	0.000547	5.473875	0.927300	-0.010947
1945	9.7200e-01	0.5541	-10.564696	0.000522	5.217287	0.883832	-0.010434
1946	9.7250e-01	0.5457	-10.632689	0.000680	6.799579	1.151880	-0.013598
1947	9.7300e-01	0.5373	-10.702392	0.000697	6.970638	1.180858	-0.013941
1948	9.7350e-01	0.5254	-10.764397	0.000620	6.200874	1.050456	-0.012401
1949	9.7400e-01	0.5166	-10.828969	0.000646	6.457462	1.093924	-0.012914
1950	9.7450e-01	0.5029	-10.896961	0.000680	6.799579	1.151880	-0.013598
1951	9.7500e-01	0.4979	-10.960677	0.000637	6.371933	1.079435	-0.012743
1952	9.7550e-01	0.4855	-11.015413	0.000547	5.473875	0.927300	-0.010947
1953	9.7600e-01	0.4780	-11.079129	0.000637	6.371933	1.079435	-0.012743
1954	9.7650e-01	0.4655	-11.155247	0.000761	7.612107	1.289526	-0.015223
1955	9.7700e-01	0.4559	-11.209128	0.000539	5.388346	0.912810	-0.010776
1956	9.7750e-01	0.4447	-11.277975	0.000689	6.885108	1.166369	-0.013770
1957	9.7800e-01	0.4373	-11.343829	0.000659	6.585756	1.115657	-0.013171
1958	9.7850e-01	0.4264	-11.402842	0.000590	5.901521	0.999745	-0.011802
1959	9.7900e-01	0.4175	-11.476821	0.000740	7.398284	1.253303	-0.014796
1960	9.7950e-01	0.4044	-11.523432	0.000466	4.661347	0.789653	-0.009322
1961	9.8000e-01	0.3944	-11.596128	0.000727	7.269990	1.231570	-0.014539
1962	9.8050e-01	0.3864	-11.663266	0.000671	6.714050	1.137391	-0.013427
1963	9.8100e-01	0.3747	-11.726554	0.000633	6.329168	1.072190	-0.012658
1964	9.8150e-01	0.3686	-11.782145	0.000556	5.559404	0.941789	-0.011118
1965	9.8200e-01	0.3559	-11.853986	0.000718	7.184461	1.217081	-0.014368
1966	9.8250e-01	0.3453	-11.929676	0.000757	7.569343	1.282281	-0.015138
1967	9.8300e-01	0.3368	-11.987833	0.000582	5.815992	0.985256	-0.011631
1968	9.8350e-01	0.3253	-12.051549	0.000637	6.371933	1.079435	-0.012743
1969	9.8400e-01	0.3165	-12.119969	0.000684	6.842344	1.159124	-0.013684
1970	9.8450e-01	0.3036	-12.175133	0.000552	5.516640	0.934544	-0.011033
1971	9.8500e-01	0.2960	-12.249967	0.000748	7.483813	1.267792	-0.014967
1972	9.8550e-01	0.2884	-12.314539	0.000646	6.457462	1.093924	-0.012914
1973	9.8600e-01	0.2755	-12.378683	0.000641	6.414697	1.086679	-0.012829
1974	9.8650e-01	0.2649	-12.454800	0.000761	7.612107	1.289526	-0.015223
1975	9.8700e-01	0.2550	-12.506970	0.000522	5.217287	0.883832	-0.010434
1976	9.8750e-01	0.2506	-12.574963	0.000680	6.799579	1.151880	-0.013598
1977	9.8800e-01	0.2347	-12.635258	0.000603	6.029815	1.021478	-0.012059
1978	9.8850e-01	0.2255	-12.706244	0.000710	7.098932	1.202592	-0.014197
1979	9.8900e-01	0.2170	-12.780650	0.000744	7.441049	1.260548	-0.014881
1980	9.8950e-01	0.2062	-12.829400	0.000488	4.875170	0.825876	-0.009750
1981	9.9000e-01	0.1956	-12.903379	0.000740	7.398284	1.253303	-0.014796
1982	9.9050e-01	0.1859	-12.969661	0.000663	6.628520	1.122902	-0.013256
1983	9.9100e-01	0.1757	-13.035943	0.000663	6.628520	1.122902	-0.013256
1984	9.9150e-01	0.1666	-13.116764	0.000808	8.082519	1.369216	-0.016164
1985	9.9200e-01	0.1561	-13.180480	0.000637	6.371933	1.079435	-0.012743
1986	9.9250e-01	0.1456	-13.247617	0.000671	6.714050	1.137391	-0.013427
1987	9.9300e-01	0.1365	-13.310478	0.000629	6.286403	1.064946	-0.012572
1988	9.9350e-01	0.1256	-13.381464	0.000710	7.098932	1.202592	-0.014197
1989	9.9400e-01	0.1163	-13.445608	0.000641	6.414697	1.086679	-0.012829
1990	9.9450e-01	0.1064	-13.495212	0.000496	4.960699	0.840365	-0.009921
1991	9.9500e-01	0.0951	-13.573040	0.000778	7.783166	1.318504	-0.015566
1992	9.9550e-01	0.0854	-13.650868	0.000778	7.783166	1.318504	-0.015566
1993	9.9600e-01	0.0750	-13.706459	0.000556	5.559404	0.941789	-0.011118
1994	9.9650e-01	0.0646	-13.785142	0.000787	7.868695	1.332993	-0.015737
1995	9.9700e-01	0.0552	-13.836030	0.000509	5.088993	0.862099	-0.010177
1996	9.9750e-01	0.0442	-13.910436	0.000744	7.441049	1.260548	-0.014881
1997	9.9800e-01	0.0352	-13.983988	0.000736	7.355519	1.246059	-0.014710
1998	9.9850e-01	0.0273	-14.055829	0.000718	7.184461	1.217081	-0.014368
1999	9.9900e-01	0.0146	-14.113986	0.000582	5.815992	0.985256	-0.011631
2000	9.9950e-01	0.0043	-14.194380	0.000804	8.039754	1.361971	-0.016079
2001	1.0000e+00	-0.0031	-14.256813	0.000804	8.039754	1.361971	-0.012487

PMax (uC/cm2):	5.01e+01
Pr (uC/cm2):	1.08e+01
-Pr (uC/cm2):	0.00e+00
PLoss (uC/cm2):	0.00e+00
C (Max-Eff) (nF):	5.02e-01
K (Eff):	8.50e+02
Vert. (+/-Pr) Shift (uC/cm2):	5.42e+00
Offset (uC/cm2):	2.51e+01

A (Loop Area - uC/cm2·Volts):	-1.07e-01



Hysteresis Version: 5.48.1 - Radiant Technologies, Inc., 1999 - 9/12/24

