»»»»»»»»»»»»»»»»»»»»»»»»»»»»»»»»»»»» Hysteresis ««««««««««««««««««««««««««««««««««««
»»»  Executed Version:	5.48.1
»»»  Vision Version:	5.48.4 (R)
»»»  Vision Compiled:	9/18/24
»»»  Driver Version:	5.47.0
»»»  Windows Version:	Windows 8 or 8.1
»»»  Processor Information:	x86 (AMD or Intel) - 32 Processors
»»»  Tester Name:	PMF21124-494 (100V)
»»»  Tester S/N:	PMF21124-494
»»»  Internal Amp Type:	100V RevK 270k
»»»  Internal Amp S/N:	iAB2-596/K     
»»»  Execution Count:	1
»»»»»»»»»»»»»»»»»»»»»»»»»»»»»»»»»»»»»»»»»»««««««««««««««««««««««««««««««««««««««««««

Stored:	6/25/2025 - 17:49:26
Configured:	06/25/25 10:44:40 AM
Executed:	06/25/25 05:49:01 PM

»»»»»»»»»»»»»»»»»»»»»»»»»»»»»»»»»»» Sample Info ««««««««««««««««««««««««««««««««««««
Sample Name:	
Lot Name:	
Wafer Name:	
Die Row/Column:	0/0
Capacitor Number:	0
Sample Area (cm2):	1.00e-04
Sample Thickness (microns):	1.50e-01

Amplifier:	Internal

»»»»»»»»»»»»»»»»»»»»»»»»»»»»»»»»»»» Tester Info «««««««««««««««««««««««««««««««««««
Tester Name:	PMF21124-494 (100V)
Tester Serial Number:	PMF21124-494
Return Signal Amp. Level:	1.79 [Index: 2]

»»»»»»»»»»»»»»»»»»»»»»»»»»»»»»»» Hysteresis Info ««««««««««««««««««««««««««««««««««
Task Name:	Hyst-116
Volts:	10.00
Field:	666.67 (kV/cm)
DCBias:	0.00
DCField:	0.00 (kV/cm)
Hysteresis Period (ms):	1.00e+00
Preset:	Enabled
Preset Delay (ms):	1.00e+03
Profile:	Standard Monopolar

»»»»»»»»»»»»»»»»»»»»»»»»»»»»»»»»»»»»»» Data «««««««««««««««««««««««««««««««««««««««
Points:	2001

Valid Data

Point	Time (ms)	Drive Voltage	Measured Polarization (uC/cm2)	Capacitance (uF)	Normalized Capacitance (uF/cm2)	Dielectric Constant	Instantaneous Current (mA)
   1	0.0000e+00	-0.0041	-19.879658	0.000462	4.617367	0.782203	0.009237
   2	5.0000e-04	0.0085	-19.833474	0.000462	4.617367	0.782203	0.009237
   3	1.0000e-03	0.0158	-19.780021	0.000534	5.344174	0.905328	0.010691
   4	1.5000e-03	0.0264	-19.754791	0.000252	2.522450	0.427315	0.005046
   5	2.0000e-03	0.0339	-19.712028	0.000428	4.275339	0.724262	0.008553
   6	2.5000e-03	0.0454	-19.694496	0.000175	1.752889	0.296947	0.003507
   7	3.0000e-03	0.0563	-19.632490	0.000620	6.199242	1.050180	0.012401
   8	3.5000e-03	0.0646	-19.596142	0.000363	3.634039	0.615623	0.007270
   9	4.0000e-03	0.0746	-19.568774	0.000274	2.736217	0.463528	0.005474
  10	4.5000e-03	0.0863	-19.525156	0.000436	4.360846	0.738747	0.008724
  11	5.0000e-03	0.0960	-19.487525	0.000376	3.762299	0.637351	0.007526
  12	5.5000e-03	0.1076	-19.459730	0.000278	2.778971	0.470770	0.005559
  13	6.0000e-03	0.1179	-19.409270	0.000504	5.044901	0.854629	0.010092
  14	6.5000e-03	0.1261	-19.390027	0.000192	1.923903	0.325918	0.003849
  15	7.0000e-03	0.1357	-19.350685	0.000393	3.933312	0.666321	0.007868
  16	7.5000e-03	0.1450	-19.313482	0.000372	3.719545	0.630108	0.007441
  17	8.0000e-03	0.1550	-19.289535	0.000239	2.394190	0.405587	0.004789
  18	8.5000e-03	0.1665	-19.222398	0.000671	6.712283	1.137092	0.013427
  19	9.0000e-03	0.1786	-19.208286	0.000141	1.410862	0.239006	0.002822
  20	9.5000e-03	0.1869	-19.170227	0.000381	3.805052	0.644593	0.007612
  21	1.0000e-02	0.1978	-19.134734	0.000355	3.548532	0.601138	0.007099
  22	1.0500e-02	0.2069	-19.090261	0.000445	4.446353	0.753233	0.008895
  23	1.1000e-02	0.2161	-19.062893	0.000274	2.736217	0.463528	0.005474
  24	1.1500e-02	0.2229	-19.045788	0.000171	1.710136	0.289705	0.003421
  25	1.2000e-02	0.2377	-18.975658	0.000701	7.011557	1.187790	0.014026
  26	1.2500e-02	0.2447	-18.949573	0.000261	2.607957	0.441800	0.005217
  27	1.3000e-02	0.2543	-18.909376	0.000402	4.018819	0.680806	0.008039
  28	1.3500e-02	0.2651	-18.853785	0.000556	5.557941	0.941541	0.011118
  29	1.4000e-02	0.2748	-18.837535	0.000162	1.624629	0.275220	0.003250
  30	1.4500e-02	0.2863	-18.811022	0.000265	2.650710	0.449043	0.005303
  31	1.5000e-02	0.2950	-18.746878	0.000641	6.413009	1.086393	0.012829
  32	1.5500e-02	0.3051	-18.728490	0.000184	1.838396	0.311433	0.003678
  33	1.6000e-02	0.3191	-18.685300	0.000432	4.318093	0.731505	0.008638
  34	1.6500e-02	0.3272	-18.643821	0.000415	4.147079	0.702534	0.008296
  35	1.7000e-02	0.3375	-18.601486	0.000423	4.232586	0.717019	0.008467
  36	1.7500e-02	0.3456	-18.565565	0.000359	3.591285	0.608380	0.007184
  37	1.8000e-02	0.3571	-18.534776	0.000308	3.078244	0.521469	0.006158
  38	1.8500e-02	0.3673	-18.489875	0.000449	4.489106	0.760475	0.008980
  39	1.9000e-02	0.3747	-18.438560	0.000513	5.130407	0.869115	0.010263
  40	1.9500e-02	0.3838	-18.420173	0.000184	1.838396	0.311433	0.003678
  41	2.0000e-02	0.3963	-18.383397	0.000368	3.676792	0.622865	0.007355
  42	2.0500e-02	0.4106	-18.340207	0.000432	4.318093	0.731505	0.008638
  43	2.1000e-02	0.4150	-18.306852	0.000333	3.334765	0.564924	0.006671
  44	2.1500e-02	0.4267	-18.262806	0.000440	4.403600	0.745990	0.008809
  45	2.2000e-02	0.4376	-18.240998	0.000218	2.180423	0.369374	0.004362
  46	2.2500e-02	0.4468	-18.193959	0.000470	4.702873	0.796688	0.009408
  47	2.3000e-02	0.4537	-18.142216	0.000517	5.173161	0.876357	0.010349
  48	2.3500e-02	0.4641	-18.103730	0.000385	3.847805	0.651836	0.007697
  49	2.4000e-02	0.4765	-18.090473	0.000133	1.325355	0.224521	0.002651
  50	2.4500e-02	0.4881	-18.033599	0.000569	5.686201	0.963269	0.011375
  51	2.5000e-02	0.4973	-17.989126	0.000445	4.446353	0.753233	0.008895
  52	2.5500e-02	0.5080	-17.963041	0.000261	2.607957	0.441800	0.005217
  53	2.6000e-02	0.5177	-17.931824	0.000312	3.120998	0.528711	0.006243
  54	2.6500e-02	0.5264	-17.879654	0.000522	5.215914	0.883600	0.010434
  55	2.7000e-02	0.5366	-17.839885	0.000398	3.976066	0.673564	0.007954
  56	2.7500e-02	0.5432	-17.809096	0.000308	3.078244	0.521469	0.006158
  57	2.8000e-02	0.5557	-17.754788	0.000543	5.429681	0.919813	0.010862
  58	2.8500e-02	0.5676	-17.724854	0.000299	2.992738	0.506983	0.005987
  59	2.9000e-02	0.5751	-17.688078	0.000368	3.676792	0.622865	0.007355
  60	2.9500e-02	0.5858	-17.648737	0.000393	3.933312	0.666321	0.007868
  61	3.0000e-02	0.5966	-17.600842	0.000479	4.788380	0.811174	0.009579
  62	3.0500e-02	0.6086	-17.564494	0.000363	3.634039	0.615623	0.007270
  63	3.1000e-02	0.6189	-17.534133	0.000304	3.035491	0.514226	0.006072
  64	3.1500e-02	0.6268	-17.494791	0.000393	3.933312	0.666321	0.007868
  65	3.2000e-02	0.6371	-17.452884	0.000419	4.189833	0.709777	0.008381
  66	3.2500e-02	0.6480	-17.419957	0.000329	3.292011	0.557682	0.006585
  67	3.3000e-02	0.6559	-17.387457	0.000325	3.249258	0.550439	0.006500
  68	3.3500e-02	0.6673	-17.335287	0.000522	5.215914	0.883600	0.010434
  69	3.4000e-02	0.6755	-17.294663	0.000406	4.061572	0.688049	0.008125
  70	3.4500e-02	0.6865	-17.259170	0.000355	3.548532	0.601138	0.007099
  71	3.5000e-02	0.6984	-17.221539	0.000376	3.762299	0.637351	0.007526
  72	3.5500e-02	0.7093	-17.186901	0.000346	3.463025	0.586652	0.006928
  73	3.6000e-02	0.7164	-17.147987	0.000389	3.890559	0.659079	0.007783
  74	3.6500e-02	0.7251	-17.097955	0.000500	5.002147	0.847387	0.010006
  75	3.7000e-02	0.7351	-17.045357	0.000526	5.258668	0.890842	0.010520
  76	3.7500e-02	0.7468	-17.020127	0.000252	2.522450	0.427315	0.005046
  77	3.8000e-02	0.7558	-16.991904	0.000282	2.821724	0.478013	0.005645
  78	3.8500e-02	0.7651	-16.946576	0.000453	4.531860	0.767718	0.009066
  79	3.9000e-02	0.7755	-16.906807	0.000398	3.976066	0.673564	0.007954
  80	3.9500e-02	0.7867	-16.858485	0.000483	4.831134	0.818416	0.009664
  81	4.0000e-02	0.7972	-16.839670	0.000188	1.881149	0.318675	0.003763
  82	4.0500e-02	0.8050	-16.784933	0.000547	5.472434	0.927055	0.010947
  83	4.1000e-02	0.8164	-16.741743	0.000432	4.318093	0.731505	0.008638
  84	4.1500e-02	0.8247	-16.715658	0.000261	2.607957	0.441800	0.005217
  85	4.2000e-02	0.8394	-16.687435	0.000282	2.821724	0.478013	0.005645
  86	4.2500e-02	0.8445	-16.631416	0.000560	5.600695	0.948783	0.011204
  87	4.3000e-02	0.8569	-16.604903	0.000265	2.650710	0.449043	0.005303
  88	4.3500e-02	0.8681	-16.564279	0.000406	4.061572	0.688049	0.008125
  89	4.4000e-02	0.8768	-16.521944	0.000423	4.232586	0.717019	0.008467
  90	4.4500e-02	0.8871	-16.477043	0.000449	4.489106	0.760475	0.008980
  91	4.5000e-02	0.8929	-16.436846	0.000402	4.018819	0.680806	0.008039
  92	4.5500e-02	0.9055	-16.418459	0.000184	1.838396	0.311433	0.003678
  93	4.6000e-02	0.9177	-16.359874	0.000586	5.857215	0.992239	0.011717
  94	4.6500e-02	0.9251	-16.317539	0.000423	4.232586	0.717019	0.008467
  95	4.7000e-02	0.9364	-16.282046	0.000355	3.548532	0.601138	0.007099
  96	4.7500e-02	0.9473	-16.246553	0.000355	3.548532	0.601138	0.007099
  97	4.8000e-02	0.9589	-16.202080	0.000445	4.446353	0.753233	0.008895
  98	4.8500e-02	0.9654	-16.158462	0.000436	4.360846	0.738747	0.008724
  99	4.9000e-02	0.9768	-16.125535	0.000329	3.292011	0.557682	0.006585
 100	4.9500e-02	0.9889	-16.088332	0.000372	3.719545	0.630108	0.007441
 101	5.0000e-02	0.9946	-16.041721	0.000466	4.660120	0.789446	0.009322
 102	5.0500e-02	1.0060	-16.001952	0.000398	3.976066	0.673564	0.007954
 103	5.1000e-02	1.0176	-15.966031	0.000359	3.591285	0.608380	0.007184
 104	5.1500e-02	1.0238	-15.934387	0.000316	3.163751	0.535954	0.006329
 105	5.2000e-02	1.0382	-15.902743	0.000316	3.163751	0.535954	0.006329
 106	5.2500e-02	1.0464	-15.840737	0.000620	6.199242	1.050180	0.012401
 107	5.3000e-02	1.0579	-15.811231	0.000295	2.949984	0.499741	0.005901
 108	5.3500e-02	1.0690	-15.771889	0.000393	3.933312	0.666321	0.007868
 109	5.4000e-02	1.0770	-15.745804	0.000261	2.607957	0.441800	0.005217
 110	5.4500e-02	1.0861	-15.698765	0.000470	4.702873	0.796688	0.009408
 111	5.5000e-02	1.0949	-15.641463	0.000573	5.728955	0.970511	0.011460
 112	5.5500e-02	1.1051	-15.617516	0.000239	2.394190	0.405587	0.004789
 113	5.6000e-02	1.1176	-15.560642	0.000569	5.686201	0.963269	0.011375
 114	5.6500e-02	1.1263	-15.529426	0.000312	3.120998	0.528711	0.006243
 115	5.7000e-02	1.1368	-15.484953	0.000445	4.446353	0.753233	0.008895
 116	5.7500e-02	1.1459	-15.451598	0.000333	3.334765	0.564924	0.006671
 117	5.8000e-02	1.1554	-15.404987	0.000466	4.660120	0.789446	0.009322
 118	5.8500e-02	1.1662	-15.367783	0.000372	3.719545	0.630108	0.007441
 119	5.9000e-02	1.1758	-15.319462	0.000483	4.831134	0.818416	0.009664
 120	5.9500e-02	1.1854	-15.286962	0.000325	3.249258	0.550439	0.006500
 121	6.0000e-02	1.1966	-15.268147	0.000188	1.881149	0.318675	0.003763
 122	6.0500e-02	1.2058	-15.205286	0.000628	6.284749	1.064665	0.012572
 123	6.1000e-02	1.2177	-15.182622	0.000227	2.265930	0.383859	0.004533
 124	6.1500e-02	1.2246	-15.139431	0.000432	4.318093	0.731505	0.008638
 125	6.2000e-02	1.2348	-15.102228	0.000372	3.719545	0.630108	0.007441
 126	6.2500e-02	1.2480	-15.069728	0.000325	3.249258	0.550439	0.006500
 127	6.3000e-02	1.2566	-15.003019	0.000667	6.669530	1.129849	0.013342
 128	6.3500e-02	1.2688	-14.987624	0.000154	1.539122	0.260734	0.003079
 129	6.4000e-02	1.2770	-14.919632	0.000680	6.797790	1.151577	0.013598
 130	6.4500e-02	1.2881	-14.888843	0.000308	3.078244	0.521469	0.006158
 131	6.5000e-02	1.2946	-14.852495	0.000363	3.634039	0.615623	0.007270
 132	6.5500e-02	1.3070	-14.817857	0.000346	3.463025	0.586652	0.006928
 133	6.6000e-02	1.3193	-14.771674	0.000462	4.617367	0.782203	0.009237
 134	6.6500e-02	1.3265	-14.725918	0.000457	4.574613	0.774960	0.009151
 135	6.7000e-02	1.3359	-14.679734	0.000462	4.617367	0.782203	0.009237
 136	6.7500e-02	1.3453	-14.639965	0.000398	3.976066	0.673564	0.007954
 137	6.8000e-02	1.3571	-14.627136	0.000128	1.282602	0.217279	0.002566
 138	6.8500e-02	1.3661	-14.559144	0.000680	6.797790	1.151577	0.013598
 139	6.9000e-02	1.3745	-14.533059	0.000261	2.607957	0.441800	0.005217
 140	6.9500e-02	1.3869	-14.486448	0.000466	4.660120	0.789446	0.009322
 141	7.0000e-02	1.3965	-14.446678	0.000398	3.976066	0.673564	0.007954
 142	7.0500e-02	1.4053	-14.413751	0.000329	3.292011	0.557682	0.006585
 143	7.1000e-02	1.4155	-14.375693	0.000381	3.805052	0.644593	0.007612
 144	7.1500e-02	1.4259	-14.336351	0.000393	3.933312	0.666321	0.007868
 145	7.2000e-02	1.4405	-14.296582	0.000398	3.976066	0.673564	0.007954
 146	7.2500e-02	1.4458	-14.252109	0.000445	4.446353	0.753233	0.008895
 147	7.3000e-02	1.4555	-14.202932	0.000492	4.916640	0.832901	0.009835
 148	7.3500e-02	1.4677	-14.169150	0.000338	3.377518	0.572167	0.006756
 149	7.4000e-02	1.4767	-14.123821	0.000453	4.531860	0.767718	0.009066
 150	7.4500e-02	1.4893	-14.089184	0.000346	3.463025	0.586652	0.006928
 151	7.5000e-02	1.4972	-14.041717	0.000475	4.745627	0.803931	0.009493
 152	7.5500e-02	1.5093	-14.002803	0.000389	3.890559	0.659079	0.007783
 153	7.6000e-02	1.5170	-13.958758	0.000440	4.403600	0.745990	0.008809
 154	7.6500e-02	1.5225	-13.911292	0.000475	4.745627	0.803931	0.009493
 155	7.7000e-02	1.5362	-13.884351	0.000269	2.693464	0.456285	0.005388
 156	7.7500e-02	1.5466	-13.854417	0.000299	2.992738	0.506983	0.005987
 157	7.8000e-02	1.5556	-13.804813	0.000496	4.959394	0.840144	0.009921
 158	7.8500e-02	1.5662	-13.764616	0.000402	4.018819	0.680806	0.008039
 159	7.9000e-02	1.5749	-13.712018	0.000526	5.258668	0.890842	0.010520
 160	7.9500e-02	1.5830	-13.675242	0.000368	3.676792	0.622865	0.007355
 161	8.0000e-02	1.5973	-13.650013	0.000252	2.522450	0.427315	0.005046
 162	8.0500e-02	1.6060	-13.593994	0.000560	5.600695	0.948783	0.011204
 163	8.1000e-02	1.6174	-13.559356	0.000346	3.463025	0.586652	0.006928
 164	8.1500e-02	1.6236	-13.523863	0.000355	3.548532	0.601138	0.007099
 165	8.2000e-02	1.6354	-13.479818	0.000440	4.403600	0.745990	0.008809
 166	8.2500e-02	1.6444	-13.425082	0.000547	5.472434	0.927055	0.010947
 167	8.3000e-02	1.6556	-13.381464	0.000436	4.360846	0.738747	0.008724
 168	8.3500e-02	1.6682	-13.338274	0.000432	4.318093	0.731505	0.008638
 169	8.4000e-02	1.6764	-13.312616	0.000257	2.565204	0.434557	0.005132
 170	8.4500e-02	1.6853	-13.266005	0.000466	4.660120	0.789446	0.009322
 171	8.5000e-02	1.6965	-13.227519	0.000385	3.847805	0.651836	0.007697
 172	8.5500e-02	1.7034	-13.185612	0.000419	4.189833	0.709777	0.008381
 173	8.6000e-02	1.7172	-13.138145	0.000475	4.745627	0.803931	0.009493
 174	8.6500e-02	1.7253	-13.097521	0.000406	4.061572	0.688049	0.008125
 175	8.7000e-02	1.7339	-13.060745	0.000368	3.676792	0.622865	0.007355
 176	8.7500e-02	1.7450	-13.011996	0.000487	4.873887	0.825659	0.009750
 177	8.8000e-02	1.7578	-12.985055	0.000269	2.693464	0.456285	0.005388
 178	8.8500e-02	1.7667	-12.931602	0.000534	5.344174	0.905328	0.010691
 179	8.9000e-02	1.7758	-12.911076	0.000205	2.052163	0.347646	0.004105
 180	8.9500e-02	1.7870	-12.862327	0.000487	4.873887	0.825659	0.009750
 181	9.0000e-02	1.7979	-12.833248	0.000291	2.907231	0.492498	0.005816
 182	9.0500e-02	1.8076	-12.777657	0.000556	5.557941	0.941541	0.011118
 183	9.1000e-02	1.8150	-12.729763	0.000479	4.788380	0.811174	0.009579
 184	9.1500e-02	1.8254	-12.706671	0.000231	2.308683	0.391102	0.004618
 185	9.2000e-02	1.8372	-12.673316	0.000333	3.334765	0.564924	0.006671
 186	9.2500e-02	1.8509	-12.601475	0.000718	7.182570	1.216760	0.014368
 187	9.3000e-02	1.8556	-12.577528	0.000239	2.394190	0.405587	0.004789
 188	9.3500e-02	1.8668	-12.521082	0.000564	5.643448	0.956026	0.011289
 189	9.4000e-02	1.8756	-12.490720	0.000304	3.035491	0.514226	0.006072
 190	9.4500e-02	1.8883	-12.456083	0.000346	3.463025	0.586652	0.006928
 191	9.5000e-02	1.8990	-12.420162	0.000359	3.591285	0.608380	0.007184
 192	9.5500e-02	1.9055	-12.348749	0.000714	7.139817	1.209518	0.014283
 193	9.6000e-02	1.9168	-12.319670	0.000291	2.907231	0.492498	0.005816
 194	9.6500e-02	1.9253	-12.283322	0.000363	3.634039	0.615623	0.007270
 195	9.7000e-02	1.9342	-12.228586	0.000547	5.472434	0.927055	0.010947
 196	9.7500e-02	1.9441	-12.198652	0.000299	2.992738	0.506983	0.005987
 197	9.8000e-02	1.9572	-12.156745	0.000419	4.189833	0.709777	0.008381
 198	9.8500e-02	1.9653	-12.111417	0.000453	4.531860	0.767718	0.009066
 199	9.9000e-02	1.9762	-12.068654	0.000428	4.275339	0.724262	0.008553
 200	9.9500e-02	1.9862	-12.040859	0.000278	2.778971	0.470770	0.005559
 201	1.0000e-01	1.9978	-11.993392	0.000475	4.745627	0.803931	0.009493
 202	1.0050e-01	2.0044	-11.952768	0.000406	4.061572	0.688049	0.008125
 203	1.0100e-01	2.0178	-11.894611	0.000581	5.814462	0.984996	0.011631
 204	1.0150e-01	2.0259	-11.868098	0.000265	2.650710	0.449043	0.005303
 205	1.0200e-01	2.0361	-11.816355	0.000517	5.173161	0.876357	0.010349
 206	1.0250e-01	2.0447	-11.771882	0.000445	4.446353	0.753233	0.008895
 207	1.0300e-01	2.0557	-11.738528	0.000333	3.334765	0.564924	0.006671
 208	1.0350e-01	2.0676	-11.690634	0.000479	4.788380	0.811174	0.009579
 209	1.0400e-01	2.0746	-11.660272	0.000304	3.035491	0.514226	0.006072
 210	1.0450e-01	2.0857	-11.627345	0.000329	3.292011	0.557682	0.006585
 211	1.0500e-01	2.0956	-11.582444	0.000449	4.489106	0.760475	0.008980
 212	1.0550e-01	2.1055	-11.538399	0.000440	4.403600	0.745990	0.008809
 213	1.0600e-01	2.1140	-11.474255	0.000641	6.413009	1.086393	0.012829
 214	1.0650e-01	2.1246	-11.459288	0.000150	1.496369	0.253492	0.002993
 215	1.0700e-01	2.1362	-11.398993	0.000603	6.028229	1.021210	0.012059
 216	1.0750e-01	2.1470	-11.359224	0.000398	3.976066	0.673564	0.007954
 217	1.0800e-01	2.1597	-11.326297	0.000329	3.292011	0.557682	0.006585
 218	1.0850e-01	2.1661	-11.282679	0.000436	4.360846	0.738747	0.008724
 219	1.0900e-01	2.1756	-11.242055	0.000406	4.061572	0.688049	0.008125
 220	1.0950e-01	2.1863	-11.204851	0.000372	3.719545	0.630108	0.007441
 221	1.1000e-01	2.1973	-11.162089	0.000428	4.275339	0.724262	0.008553
 222	1.1050e-01	2.2068	-11.125313	0.000368	3.676792	0.622865	0.007355
 223	1.1100e-01	2.2180	-11.083406	0.000419	4.189833	0.709777	0.008381
 224	1.1150e-01	2.2271	-11.032091	0.000513	5.130407	0.869115	0.010263
 225	1.1200e-01	2.2372	-10.985052	0.000470	4.702873	0.796688	0.009408
 226	1.1250e-01	2.2440	-10.940151	0.000449	4.489106	0.760475	0.008980
 227	1.1300e-01	2.2546	-10.902948	0.000372	3.719545	0.630108	0.007441
 228	1.1350e-01	2.2678	-10.861468	0.000415	4.147079	0.702534	0.008296
 229	1.1400e-01	2.2769	-10.828541	0.000329	3.292011	0.557682	0.006585
 230	1.1450e-01	2.2867	-10.776798	0.000517	5.173161	0.876357	0.010349
 231	1.1500e-01	2.2955	-10.737457	0.000393	3.933312	0.666321	0.007868
 232	1.1550e-01	2.3065	-10.707951	0.000295	2.949984	0.499741	0.005901
 233	1.1600e-01	2.3151	-10.672030	0.000359	3.591285	0.608380	0.007184
 234	1.1650e-01	2.3273	-10.622426	0.000496	4.959394	0.840144	0.009921
 235	1.1700e-01	2.3367	-10.576670	0.000457	4.574613	0.774960	0.009151
 236	1.1750e-01	2.3495	-10.544170	0.000325	3.249258	0.550439	0.006500
 237	1.1800e-01	2.3578	-10.495849	0.000483	4.831134	0.818416	0.009664
 238	1.1850e-01	2.3676	-10.458218	0.000376	3.762299	0.637351	0.007526
 239	1.1900e-01	2.3761	-10.419304	0.000389	3.890559	0.659079	0.007783
 240	1.1950e-01	2.3883	-10.370982	0.000483	4.831134	0.818416	0.009664
 241	1.2000e-01	2.3959	-10.329502	0.000415	4.147079	0.702534	0.008296
 242	1.2050e-01	2.4048	-10.281181	0.000483	4.831134	0.818416	0.009664
 243	1.2100e-01	2.4149	-10.231149	0.000500	5.002147	0.847387	0.010006
 244	1.2150e-01	2.4261	-10.207201	0.000239	2.394190	0.405587	0.004789
 245	1.2200e-01	2.4364	-10.169143	0.000381	3.805052	0.644593	0.007612
 246	1.2250e-01	2.4463	-10.119966	0.000492	4.916640	0.832901	0.009835
 247	1.2300e-01	2.4573	-10.074210	0.000457	4.574613	0.774960	0.009151
 248	1.2350e-01	2.4649	-10.030592	0.000436	4.360846	0.738747	0.008724
 249	1.2400e-01	2.4774	-9.998520	0.000321	3.206505	0.543197	0.006414
 250	1.2450e-01	2.4860	-9.954903	0.000436	4.360846	0.738747	0.008724
 251	1.2500e-01	2.4975	-9.901449	0.000534	5.344174	0.905328	0.010691
 252	1.2550e-01	2.5037	-9.855266	0.000462	4.617367	0.782203	0.009237
 253	1.2600e-01	2.5146	-9.829181	0.000261	2.607957	0.441800	0.005217
 254	1.2650e-01	2.5262	-9.773162	0.000560	5.600695	0.948783	0.011204
 255	1.2700e-01	2.5342	-9.740662	0.000325	3.249258	0.550439	0.006500
 256	1.2750e-01	2.5447	-9.704314	0.000363	3.634039	0.615623	0.007270
 257	1.2800e-01	2.5577	-9.668394	0.000359	3.591285	0.608380	0.007184
 258	1.2850e-01	2.5653	-9.618361	0.000500	5.002147	0.847387	0.010006
 259	1.2900e-01	2.5761	-9.576454	0.000419	4.189833	0.709777	0.008381
 260	1.2950e-01	2.5865	-9.539251	0.000372	3.719545	0.630108	0.007441
 261	1.3000e-01	2.5958	-9.486225	0.000530	5.301421	0.898085	0.010605
 262	1.3050e-01	2.6075	-9.449450	0.000368	3.676792	0.622865	0.007355
 263	1.3100e-01	2.6154	-9.399417	0.000500	5.002147	0.847387	0.010006
 264	1.3150e-01	2.6251	-9.368628	0.000308	3.078244	0.521469	0.006158
 265	1.3200e-01	2.6358	-9.310044	0.000586	5.857215	0.992239	0.011717
 266	1.3250e-01	2.6450	-9.280538	0.000295	2.949984	0.499741	0.005901
 267	1.3300e-01	2.6548	-9.241624	0.000389	3.890559	0.659079	0.007783
 268	1.3350e-01	2.6646	-9.185605	0.000560	5.600695	0.948783	0.011204
 269	1.3400e-01	2.6744	-9.149257	0.000363	3.634039	0.615623	0.007270
 270	1.3450e-01	2.6875	-9.109060	0.000402	4.018819	0.680806	0.008039
 271	1.3500e-01	2.6973	-9.066297	0.000428	4.275339	0.724262	0.008553
 272	1.3550e-01	2.7069	-9.031232	0.000351	3.505778	0.593895	0.007013
 273	1.3600e-01	2.7164	-8.977779	0.000534	5.344174	0.905328	0.010691
 274	1.3650e-01	2.7258	-8.939720	0.000381	3.805052	0.644593	0.007612
 275	1.3700e-01	2.7348	-8.896102	0.000436	4.360846	0.738747	0.008724
 276	1.3750e-01	2.7452	-8.871300	0.000248	2.479697	0.420072	0.004960
 277	1.3800e-01	2.7567	-8.818702	0.000526	5.258668	0.890842	0.010520
 278	1.3850e-01	2.7638	-8.776367	0.000423	4.232586	0.717019	0.008467
 279	1.3900e-01	2.7786	-8.731039	0.000453	4.531860	0.767718	0.009066
 280	1.3950e-01	2.7866	-8.694263	0.000368	3.676792	0.622865	0.007355
 281	1.4000e-01	2.7949	-8.656632	0.000376	3.762299	0.637351	0.007526
 282	1.4050e-01	2.8064	-8.596337	0.000603	6.028229	1.021210	0.012059
 283	1.4100e-01	2.8168	-8.577522	0.000188	1.881149	0.318675	0.003763
 284	1.4150e-01	2.8253	-8.515516	0.000620	6.199242	1.050180	0.012401
 285	1.4200e-01	2.8358	-8.485155	0.000304	3.035491	0.514226	0.006072
 286	1.4250e-01	2.8465	-8.444530	0.000406	4.061572	0.688049	0.008125
 287	1.4300e-01	2.8604	-8.389794	0.000547	5.472434	0.927055	0.010947
 288	1.4350e-01	2.8679	-8.360716	0.000291	2.907231	0.492498	0.005816
 289	1.4400e-01	2.8767	-8.307262	0.000534	5.344174	0.905328	0.010691
 290	1.4450e-01	2.8879	-8.272625	0.000346	3.463025	0.586652	0.006928
 291	1.4500e-01	2.8966	-8.246112	0.000265	2.650710	0.449043	0.005303
 292	1.4550e-01	2.9070	-8.193514	0.000526	5.258668	0.890842	0.010520
 293	1.4600e-01	2.9163	-8.143482	0.000500	5.002147	0.847387	0.010006
 294	1.4650e-01	2.9265	-8.119963	0.000235	2.351437	0.398344	0.004704
 295	1.4700e-01	2.9373	-8.069930	0.000500	5.002147	0.847387	0.010006
 296	1.4750e-01	2.9459	-8.016905	0.000530	5.301421	0.898085	0.010605
 297	1.4800e-01	2.9555	-7.972859	0.000440	4.403600	0.745990	0.008809
 298	1.4850e-01	2.9662	-7.937367	0.000355	3.548532	0.601138	0.007099
 299	1.4900e-01	2.9779	-7.897597	0.000398	3.976066	0.673564	0.007954
 300	1.4950e-01	2.9865	-7.868946	0.000286	2.864477	0.485256	0.005730
 301	1.5000e-01	2.9972	-7.797533	0.000714	7.139817	1.209518	0.014283
 302	1.5050e-01	3.0054	-7.769310	0.000282	2.821724	0.478013	0.005645
 303	1.5100e-01	3.0197	-7.735527	0.000338	3.377518	0.572167	0.006756
 304	1.5150e-01	3.0292	-7.688916	0.000466	4.660120	0.789446	0.009322
 305	1.5200e-01	3.0386	-7.647437	0.000415	4.147079	0.702534	0.008296
 306	1.5250e-01	3.0475	-7.605102	0.000423	4.232586	0.717019	0.008467
 307	1.5300e-01	3.0568	-7.558063	0.000470	4.702873	0.796688	0.009408
 308	1.5350e-01	3.0652	-7.513590	0.000445	4.446353	0.753233	0.008895
 309	1.5400e-01	3.0775	-7.478952	0.000346	3.463025	0.586652	0.006928
 310	1.5450e-01	3.0859	-7.434907	0.000440	4.403600	0.745990	0.008809
 311	1.5500e-01	3.0957	-7.387868	0.000470	4.702873	0.796688	0.009408
 312	1.5550e-01	3.1074	-7.350665	0.000372	3.719545	0.630108	0.007441
 313	1.5600e-01	3.1183	-7.302771	0.000479	4.788380	0.811174	0.009579
 314	1.5650e-01	3.1274	-7.269843	0.000329	3.292011	0.557682	0.006585
 315	1.5700e-01	3.1360	-7.230502	0.000393	3.933312	0.666321	0.007868
 316	1.5750e-01	3.1467	-7.181325	0.000492	4.916640	0.832901	0.009835
 317	1.5800e-01	3.1592	-7.141128	0.000402	4.018819	0.680806	0.008039
 318	1.5850e-01	3.1672	-7.103070	0.000381	3.805052	0.644593	0.007612
 319	1.5900e-01	3.1757	-7.053465	0.000496	4.959394	0.840144	0.009921
 320	1.5950e-01	3.1860	-7.021393	0.000321	3.206505	0.543197	0.006414
 321	1.6000e-01	3.1979	-6.969651	0.000517	5.173161	0.876357	0.010349
 322	1.6050e-01	3.2062	-6.931592	0.000381	3.805052	0.644593	0.007612
 323	1.6100e-01	3.2187	-6.883698	0.000479	4.788380	0.811174	0.009579
 324	1.6150e-01	3.2275	-6.863599	0.000201	2.009410	0.340403	0.004020
 325	1.6200e-01	3.2370	-6.811002	0.000526	5.258668	0.890842	0.010520
 326	1.6250e-01	3.2462	-6.775081	0.000359	3.591285	0.608380	0.007184
 327	1.6300e-01	3.2553	-6.730180	0.000449	4.489106	0.760475	0.008980
 328	1.6350e-01	3.2674	-6.682286	0.000479	4.788380	0.811174	0.009579
 329	1.6400e-01	3.2771	-6.633537	0.000487	4.873887	0.825659	0.009750
 330	1.6450e-01	3.2857	-6.606169	0.000274	2.736217	0.463528	0.005474
 331	1.6500e-01	3.2947	-6.553571	0.000526	5.258668	0.890842	0.010520
 332	1.6550e-01	3.3066	-6.521072	0.000325	3.249258	0.550439	0.006500
 333	1.6600e-01	3.3186	-6.492848	0.000282	2.821724	0.478013	0.005645
 334	1.6650e-01	3.3253	-6.439395	0.000534	5.344174	0.905328	0.010691
 335	1.6700e-01	3.3405	-6.397916	0.000415	4.147079	0.702534	0.008296
 336	1.6750e-01	3.3466	-6.357291	0.000406	4.061572	0.688049	0.008125
 337	1.6800e-01	3.3563	-6.329496	0.000278	2.778971	0.470770	0.005559
 338	1.6850e-01	3.3643	-6.276898	0.000526	5.258668	0.890842	0.010520
 339	1.6900e-01	3.3784	-6.224300	0.000526	5.258668	0.890842	0.010520
 340	1.6950e-01	3.3893	-6.207622	0.000167	1.667382	0.282462	0.003335
 341	1.7000e-01	3.3954	-6.155024	0.000526	5.258668	0.890842	0.010520
 342	1.7050e-01	3.4076	-6.105420	0.000496	4.959394	0.840144	0.009921
 343	1.7100e-01	3.4156	-6.058381	0.000470	4.702873	0.796688	0.009408
 344	1.7150e-01	3.4253	-6.034006	0.000244	2.436943	0.412829	0.004875
 345	1.7200e-01	3.4357	-5.986540	0.000475	4.745627	0.803931	0.009493
 346	1.7250e-01	3.4451	-5.948054	0.000385	3.847805	0.651836	0.007697
 347	1.7300e-01	3.4565	-5.904008	0.000440	4.403600	0.745990	0.008809
 348	1.7350e-01	3.4634	-5.859963	0.000440	4.403600	0.745990	0.008809
 349	1.7400e-01	3.4729	-5.801378	0.000586	5.857215	0.992239	0.011717
 350	1.7450e-01	3.4863	-5.788550	0.000128	1.282602	0.217279	0.002566
 351	1.7500e-01	3.4933	-5.733813	0.000547	5.472434	0.927055	0.010947
 352	1.7550e-01	3.5065	-5.703452	0.000304	3.035491	0.514226	0.006072
 353	1.7600e-01	3.5168	-5.655130	0.000483	4.831134	0.818416	0.009664
 354	1.7650e-01	3.5236	-5.597401	0.000577	5.771708	0.977754	0.011546
 355	1.7700e-01	3.5370	-5.587566	0.000098	0.983328	0.166580	0.001967
 356	1.7750e-01	3.5464	-5.532402	0.000552	5.515188	0.934298	0.011033
 357	1.7800e-01	3.5594	-5.492633	0.000398	3.976066	0.673564	0.007954
 358	1.7850e-01	3.5664	-5.446877	0.000457	4.574613	0.774960	0.009151
 359	1.7900e-01	3.5764	-5.417798	0.000291	2.907231	0.492498	0.005816
 360	1.7950e-01	3.5849	-5.362635	0.000552	5.515188	0.934298	0.011033
 361	1.8000e-01	3.5962	-5.318589	0.000440	4.403600	0.745990	0.008809
 362	1.8050e-01	3.6069	-5.303195	0.000154	1.539122	0.260734	0.003079
 363	1.8100e-01	3.6172	-5.257011	0.000462	4.617367	0.782203	0.009237
 364	1.8150e-01	3.6282	-5.207834	0.000492	4.916640	0.832901	0.009835
 365	1.8200e-01	3.6386	-5.161223	0.000466	4.660120	0.789446	0.009322
 366	1.8250e-01	3.6478	-5.119316	0.000419	4.189833	0.709777	0.008381
 367	1.8300e-01	3.6589	-5.083823	0.000355	3.548532	0.601138	0.007099
 368	1.8350e-01	3.6655	-5.034219	0.000496	4.959394	0.840144	0.009921
 369	1.8400e-01	3.6766	-4.985042	0.000492	4.916640	0.832901	0.009835
 370	1.8450e-01	3.6865	-4.968792	0.000162	1.624629	0.275220	0.003250
 371	1.8500e-01	3.6938	-4.916194	0.000526	5.258668	0.890842	0.010520
 372	1.8550e-01	3.7067	-4.870010	0.000462	4.617367	0.782203	0.009237
 373	1.8600e-01	3.7159	-4.831524	0.000385	3.847805	0.651836	0.007697
 374	1.8650e-01	3.7247	-4.790472	0.000410	4.104326	0.695292	0.008210
 375	1.8700e-01	3.7344	-4.748565	0.000419	4.189833	0.709777	0.008381
 376	1.8750e-01	3.7466	-4.709223	0.000393	3.933312	0.666321	0.007868
 377	1.8800e-01	3.7561	-4.670309	0.000389	3.890559	0.659079	0.007783
 378	1.8850e-01	3.7640	-4.613435	0.000569	5.686201	0.963269	0.011375
 379	1.8900e-01	3.7769	-4.585640	0.000278	2.778971	0.470770	0.005559
 380	1.8950e-01	3.7878	-4.551430	0.000342	3.420272	0.579410	0.006842
 381	1.9000e-01	3.7984	-4.506957	0.000445	4.446353	0.753233	0.008895
 382	1.9050e-01	3.8049	-4.468043	0.000389	3.890559	0.659079	0.007783
 383	1.9100e-01	3.8165	-4.423570	0.000445	4.446353	0.753233	0.008895
 384	1.9150e-01	3.8248	-4.392353	0.000312	3.120998	0.528711	0.006243
 385	1.9200e-01	3.8338	-4.348308	0.000440	4.403600	0.745990	0.008809
 386	1.9250e-01	3.8464	-4.303835	0.000445	4.446353	0.753233	0.008895
 387	1.9300e-01	3.8553	-4.263638	0.000402	4.018819	0.680806	0.008039
 388	1.9350e-01	3.8718	-4.228145	0.000355	3.548532	0.601138	0.007099
 389	1.9400e-01	3.8765	-4.181534	0.000466	4.660120	0.789446	0.009322
 390	1.9450e-01	3.8864	-4.143475	0.000381	3.805052	0.644593	0.007612
 391	1.9500e-01	3.8953	-4.095153	0.000483	4.831134	0.818416	0.009664
 392	1.9550e-01	3.9090	-4.058378	0.000368	3.676792	0.622865	0.007355
 393	1.9600e-01	3.9151	-4.017326	0.000410	4.104326	0.695292	0.008210
 394	1.9650e-01	3.9276	-3.984398	0.000329	3.292011	0.557682	0.006585
 395	1.9700e-01	3.9362	-3.944202	0.000402	4.018819	0.680806	0.008039
 396	1.9750e-01	3.9456	-3.897591	0.000466	4.660120	0.789446	0.009322
 397	1.9800e-01	3.9568	-3.853545	0.000440	4.403600	0.745990	0.008809
 398	1.9850e-01	3.9673	-3.813348	0.000402	4.018819	0.680806	0.008039
 399	1.9900e-01	3.9758	-3.764171	0.000492	4.916640	0.832901	0.009835
 400	1.9950e-01	3.9874	-3.741507	0.000227	2.265930	0.383859	0.004533
 401	2.0000e-01	3.9944	-3.691903	0.000496	4.959394	0.840144	0.009921
 402	2.0050e-01	4.0057	-3.661969	0.000299	2.992738	0.506983	0.005987
 403	2.0100e-01	4.0155	-3.615358	0.000466	4.660120	0.789446	0.009322
 404	2.0150e-01	4.0271	-3.569602	0.000457	4.574613	0.774960	0.009151
 405	2.0200e-01	4.0369	-3.535392	0.000342	3.420272	0.579410	0.006842
 406	2.0250e-01	4.0454	-3.498616	0.000368	3.676792	0.622865	0.007355
 407	2.0300e-01	4.0578	-3.446446	0.000522	5.215914	0.883600	0.010434
 408	2.0350e-01	4.0665	-3.403256	0.000432	4.318093	0.731505	0.008638
 409	2.0400e-01	4.0749	-3.366908	0.000363	3.634039	0.615623	0.007270
 410	2.0450e-01	4.0857	-3.326283	0.000406	4.061572	0.688049	0.008125
 411	2.0500e-01	4.0967	-3.301053	0.000252	2.522450	0.427315	0.005046
 412	2.0550e-01	4.1049	-3.255725	0.000453	4.531860	0.767718	0.009066
 413	2.0600e-01	4.1150	-3.193292	0.000624	6.241996	1.057423	0.012487
 414	2.0650e-01	4.1266	-3.155661	0.000376	3.762299	0.637351	0.007526
 415	2.0700e-01	4.1370	-3.138128	0.000175	1.752889	0.296947	0.003507
 416	2.0750e-01	4.1452	-3.096648	0.000415	4.147079	0.702534	0.008296
 417	2.0800e-01	4.1553	-3.063294	0.000333	3.334765	0.564924	0.006671
 418	2.0850e-01	4.1690	-2.993163	0.000701	7.011557	1.187790	0.014026
 419	2.0900e-01	4.1766	-2.973920	0.000192	1.923903	0.325918	0.003849
 420	2.0950e-01	4.1867	-2.932440	0.000415	4.147079	0.702534	0.008296
 421	2.1000e-01	4.1978	-2.897375	0.000351	3.505778	0.593895	0.007013
 422	2.1050e-01	4.2041	-2.857178	0.000402	4.018819	0.680806	0.008039
 423	2.1100e-01	4.2169	-2.798166	0.000590	5.899968	0.999482	0.011802
 424	2.1150e-01	4.2297	-2.769087	0.000291	2.907231	0.492498	0.005816
 425	2.1200e-01	4.2358	-2.740009	0.000291	2.907231	0.492498	0.005816
 426	2.1250e-01	4.2468	-2.687839	0.000522	5.215914	0.883600	0.010434
 427	2.1300e-01	4.2572	-2.652346	0.000355	3.548532	0.601138	0.007099
 428	2.1350e-01	4.2670	-2.608728	0.000436	4.360846	0.738747	0.008724
 429	2.1400e-01	4.2749	-2.560834	0.000479	4.788380	0.811174	0.009579
 430	2.1450e-01	4.2879	-2.527479	0.000333	3.334765	0.564924	0.006671
 431	2.1500e-01	4.2960	-2.492842	0.000346	3.463025	0.586652	0.006928
 432	2.1550e-01	4.3079	-2.450934	0.000419	4.189833	0.709777	0.008381
 433	2.1600e-01	4.3152	-2.406461	0.000445	4.446353	0.753233	0.008895
 434	2.1650e-01	4.3250	-2.385080	0.000214	2.137670	0.362131	0.004276
 435	2.1700e-01	4.3362	-2.317515	0.000676	6.755036	1.144334	0.013513
 436	2.1750e-01	4.3463	-2.296562	0.000209	2.094916	0.354888	0.004191
 437	2.1800e-01	4.3579	-2.262779	0.000338	3.377518	0.572167	0.006756
 438	2.1850e-01	4.3680	-2.208043	0.000547	5.472434	0.927055	0.010947
 439	2.1900e-01	4.3756	-2.165708	0.000423	4.232586	0.717019	0.008467
 440	2.1950e-01	4.3872	-2.130643	0.000351	3.505778	0.593895	0.007013
 441	2.2000e-01	4.3976	-2.086598	0.000440	4.403600	0.745990	0.008809
 442	2.2050e-01	4.4037	-2.053243	0.000333	3.334765	0.564924	0.006671
 443	2.2100e-01	4.4179	-2.019460	0.000338	3.377518	0.572167	0.006756
 444	2.2150e-01	4.4287	-1.980974	0.000385	3.847805	0.651836	0.007697
 445	2.2200e-01	4.4376	-1.947192	0.000338	3.377518	0.572167	0.006756
 446	2.2250e-01	4.4476	-1.906140	0.000410	4.104326	0.695292	0.008210
 447	2.2300e-01	4.4601	-1.865943	0.000402	4.018819	0.680806	0.008039
 448	2.2350e-01	4.4685	-1.818904	0.000470	4.702873	0.796688	0.009408
 449	2.2400e-01	4.4777	-1.777424	0.000415	4.147079	0.702534	0.008296
 450	2.2450e-01	4.4864	-1.731241	0.000462	4.617367	0.782203	0.009237
 451	2.2500e-01	4.4943	-1.687196	0.000440	4.403600	0.745990	0.008809
 452	2.2550e-01	4.5081	-1.653413	0.000338	3.377518	0.572167	0.006756
 453	2.2600e-01	4.5172	-1.617920	0.000355	3.548532	0.601138	0.007099
 454	2.2650e-01	4.5242	-1.577296	0.000406	4.061572	0.688049	0.008125
 455	2.2700e-01	4.5344	-1.562329	0.000150	1.496369	0.253492	0.002993
 456	2.2750e-01	4.5486	-1.499040	0.000633	6.327502	1.071908	0.012658
 457	2.2800e-01	4.5554	-1.444732	0.000543	5.429681	0.919813	0.010862
 458	2.2850e-01	4.5654	-1.422495	0.000222	2.223177	0.376616	0.004447
 459	2.2900e-01	4.5752	-1.369042	0.000534	5.344174	0.905328	0.010691
 460	2.2950e-01	4.5865	-1.344240	0.000248	2.479697	0.420072	0.004960
 461	2.3000e-01	4.5975	-1.294636	0.000496	4.959394	0.840144	0.009921
 462	2.3050e-01	4.6066	-1.253156	0.000415	4.147079	0.702534	0.008296
 463	2.3100e-01	4.6156	-1.231347	0.000218	2.180423	0.369374	0.004362
 464	2.3150e-01	4.6259	-1.194571	0.000368	3.676792	0.622865	0.007355
 465	2.3200e-01	4.6351	-1.136414	0.000581	5.814462	0.984996	0.011631
 466	2.3250e-01	4.6472	-1.104770	0.000316	3.163751	0.535954	0.006329
 467	2.3300e-01	4.6570	-1.072698	0.000321	3.206505	0.543197	0.006414
 468	2.3350e-01	4.6675	-1.028225	0.000445	4.446353	0.753233	0.008895
 469	2.3400e-01	4.6753	-0.979903	0.000483	4.831134	0.818416	0.009664
 470	2.3450e-01	4.6869	-0.958950	0.000209	2.094916	0.354888	0.004191
 471	2.3500e-01	4.6954	-0.912766	0.000462	4.617367	0.782203	0.009237
 472	2.3550e-01	4.7083	-0.854609	0.000581	5.814462	0.984996	0.011631
 473	2.3600e-01	4.7176	-0.822537	0.000321	3.206505	0.543197	0.006414
 474	2.3650e-01	4.7272	-0.793031	0.000295	2.949984	0.499741	0.005901
 475	2.3700e-01	4.7412	-0.748986	0.000440	4.403600	0.745990	0.008809
 476	2.3750e-01	4.7426	-0.721190	0.000278	2.778971	0.470770	0.005559
 477	2.3800e-01	4.7568	-0.672868	0.000483	4.831134	0.818416	0.009664
 478	2.3850e-01	4.7668	-0.631389	0.000415	4.147079	0.702534	0.008296
 479	2.3900e-01	4.7781	-0.604021	0.000274	2.736217	0.463528	0.005474
 480	2.3950e-01	4.7889	-0.560403	0.000436	4.360846	0.738747	0.008724
 481	2.4000e-01	4.7977	-0.524910	0.000355	3.548532	0.601138	0.007099
 482	2.4050e-01	4.8071	-0.477871	0.000470	4.702873	0.796688	0.009408
 483	2.4100e-01	4.8193	-0.438957	0.000389	3.890559	0.659079	0.007783
 484	2.4150e-01	4.8254	-0.409879	0.000291	2.907231	0.492498	0.005816
 485	2.4200e-01	4.8370	-0.359419	0.000504	5.044901	0.854629	0.010092
 486	2.4250e-01	4.8491	-0.318367	0.000410	4.104326	0.695292	0.008210
 487	2.4300e-01	4.8569	-0.301690	0.000167	1.667382	0.282462	0.003335
 488	2.4350e-01	4.8688	-0.264059	0.000376	3.762299	0.637351	0.007526
 489	2.4400e-01	4.8788	-0.215309	0.000487	4.873887	0.825659	0.009750
 490	2.4450e-01	4.8866	-0.182810	0.000325	3.249258	0.550439	0.006500
 491	2.4500e-01	4.8969	-0.128074	0.000547	5.472434	0.927055	0.010947
 492	2.4550e-01	4.9080	-0.092153	0.000359	3.591285	0.608380	0.007184
 493	2.4600e-01	4.9146	-0.045542	0.000466	4.660120	0.789446	0.009322
 494	2.4650e-01	4.9310	-0.025444	0.000201	2.009410	0.340403	0.004020
 495	2.4700e-01	4.9377	0.013898	0.000393	3.933312	0.666321	0.007868
 496	2.4750e-01	4.9487	0.062647	0.000487	4.873887	0.825659	0.009750
 497	2.4800e-01	4.9579	0.100706	0.000381	3.805052	0.644593	0.007612
 498	2.4850e-01	4.9635	0.146462	0.000457	4.574613	0.774960	0.009151
 499	2.4900e-01	4.9768	0.181527	0.000351	3.505778	0.593895	0.007013
 500	2.4950e-01	4.9899	0.205046	0.000235	2.351437	0.398344	0.004704
 501	2.5000e-01	4.9971	0.246526	0.000415	4.147079	0.702534	0.008296
 502	2.5050e-01	5.0067	0.303400	0.000569	5.686201	0.963269	0.011375
 503	2.5100e-01	5.0177	0.310670	0.000073	0.726808	0.123125	0.001454
 504	2.5150e-01	5.0273	0.373103	0.000624	6.241996	1.057423	0.012487
 505	2.5200e-01	5.0349	0.406885	0.000338	3.377518	0.572167	0.006756
 506	2.5250e-01	5.0460	0.431260	0.000244	2.436943	0.412829	0.004875
 507	2.5300e-01	5.0551	0.466753	0.000355	3.548532	0.601138	0.007099
 508	2.5350e-01	5.0659	0.516358	0.000496	4.959394	0.840144	0.009921
 509	2.5400e-01	5.0781	0.559975	0.000436	4.360846	0.738747	0.008724
 510	2.5450e-01	5.0864	0.599317	0.000393	3.933312	0.666321	0.007868
 511	2.5500e-01	5.0943	0.620270	0.000209	2.094916	0.354888	0.004191
 512	2.5550e-01	5.1074	0.678427	0.000581	5.814462	0.984996	0.011631
 513	2.5600e-01	5.1178	0.703657	0.000252	2.522450	0.427315	0.005046
 514	2.5650e-01	5.1263	0.736157	0.000325	3.249258	0.550439	0.006500
 515	2.5700e-01	5.1367	0.783196	0.000470	4.702873	0.796688	0.009408
 516	2.5750e-01	5.1453	0.828096	0.000449	4.489106	0.760475	0.008980
 517	2.5800e-01	5.1563	0.858885	0.000308	3.078244	0.521469	0.006158
 518	2.5850e-01	5.1657	0.906779	0.000479	4.788380	0.811174	0.009579
 519	2.5900e-01	5.1761	0.938851	0.000321	3.206505	0.543197	0.006414
 520	2.5950e-01	5.1868	0.985890	0.000470	4.702873	0.796688	0.009408
 521	2.6000e-01	5.1965	1.014541	0.000286	2.864477	0.485256	0.005730
 522	2.6050e-01	5.2060	1.061580	0.000470	4.702873	0.796688	0.009408
 523	2.6100e-01	5.2197	1.089375	0.000278	2.778971	0.470770	0.005559
 524	2.6150e-01	5.2271	1.135559	0.000462	4.617367	0.782203	0.009237
 525	2.6200e-01	5.2375	1.186874	0.000513	5.130407	0.869115	0.010263
 526	2.6250e-01	5.2479	1.217663	0.000308	3.078244	0.521469	0.006158
 527	2.6300e-01	5.2582	1.238189	0.000205	2.052163	0.347646	0.004105
 528	2.6350e-01	5.2679	1.274965	0.000368	3.676792	0.622865	0.007355
 529	2.6400e-01	5.2771	1.324569	0.000496	4.959394	0.840144	0.009921
 530	2.6450e-01	5.2893	1.350654	0.000261	2.607957	0.441800	0.005217
 531	2.6500e-01	5.2950	1.386147	0.000355	3.548532	0.601138	0.007099
 532	2.6550e-01	5.3064	1.432758	0.000466	4.660120	0.789446	0.009322
 533	2.6600e-01	5.3169	1.471672	0.000389	3.890559	0.659079	0.007783
 534	2.6650e-01	5.3285	1.513152	0.000415	4.147079	0.702534	0.008296
 535	2.6700e-01	5.3363	1.552066	0.000389	3.890559	0.659079	0.007783
 536	2.6750e-01	5.3464	1.577296	0.000252	2.522450	0.427315	0.005046
 537	2.6800e-01	5.3564	1.622196	0.000449	4.489106	0.760475	0.008980
 538	2.6850e-01	5.3682	1.652130	0.000299	2.992738	0.506983	0.005987
 539	2.6900e-01	5.3748	1.708149	0.000560	5.600695	0.948783	0.011204
 540	2.6950e-01	5.3865	1.738083	0.000299	2.992738	0.506983	0.005987
 541	2.7000e-01	5.3955	1.781701	0.000436	4.360846	0.738747	0.008724
 542	2.7050e-01	5.4062	1.813345	0.000316	3.163751	0.535954	0.006329
 543	2.7100e-01	5.4153	1.842851	0.000295	2.949984	0.499741	0.005901
 544	2.7150e-01	5.4242	1.886041	0.000432	4.318093	0.731505	0.008638
 545	2.7200e-01	5.4352	1.945054	0.000590	5.899968	0.999482	0.011802
 546	2.7250e-01	5.4453	1.964297	0.000192	1.923903	0.325918	0.003849
 547	2.7300e-01	5.4590	1.994658	0.000304	3.035491	0.514226	0.006072
 548	2.7350e-01	5.4669	2.026302	0.000316	3.163751	0.535954	0.006329
 549	2.7400e-01	5.4761	2.095578	0.000693	6.926050	1.173305	0.013855
 550	2.7450e-01	5.4866	2.112255	0.000167	1.667382	0.282462	0.003335
 551	2.7500e-01	5.4980	2.139195	0.000269	2.693464	0.456285	0.005388
 552	2.7550e-01	5.5072	2.191793	0.000526	5.258668	0.890842	0.010520
 553	2.7600e-01	5.5173	2.219161	0.000274	2.736217	0.463528	0.005474
 554	2.7650e-01	5.5273	2.274753	0.000556	5.557941	0.941541	0.011118
 555	2.7700e-01	5.5380	2.309818	0.000351	3.505778	0.593895	0.007013
 556	2.7750e-01	5.5476	2.336331	0.000265	2.650710	0.449043	0.005303
 557	2.7800e-01	5.5573	2.365409	0.000291	2.907231	0.492498	0.005816
 558	2.7850e-01	5.5637	2.421856	0.000564	5.643448	0.956026	0.011289
 559	2.7900e-01	5.5786	2.441954	0.000201	2.009410	0.340403	0.004020
 560	2.7950e-01	5.5885	2.500539	0.000586	5.857215	0.992239	0.011717
 561	2.8000e-01	5.5966	2.525769	0.000252	2.522450	0.427315	0.005046
 562	2.8050e-01	5.6073	2.561689	0.000359	3.591285	0.608380	0.007184
 563	2.8100e-01	5.6155	2.595472	0.000338	3.377518	0.572167	0.006756
 564	2.8150e-01	5.6244	2.642938	0.000475	4.745627	0.803931	0.009493
 565	2.8200e-01	5.6366	2.664319	0.000214	2.137670	0.362131	0.004276
 566	2.8250e-01	5.6470	2.698529	0.000342	3.420272	0.579410	0.006842
 567	2.8300e-01	5.6570	2.736588	0.000381	3.805052	0.644593	0.007612
 568	2.8350e-01	5.6654	2.784054	0.000475	4.745627	0.803931	0.009493
 569	2.8400e-01	5.6754	2.821258	0.000372	3.719545	0.630108	0.007441
 570	2.8450e-01	5.6854	2.848198	0.000269	2.693464	0.456285	0.005388
 571	2.8500e-01	5.6958	2.894382	0.000462	4.617367	0.782203	0.009237
 572	2.8550e-01	5.7050	2.934151	0.000398	3.976066	0.673564	0.007954
 573	2.8600e-01	5.7166	2.967933	0.000338	3.377518	0.572167	0.006756
 574	2.8650e-01	5.7248	3.020959	0.000530	5.301421	0.898085	0.010605
 575	2.8700e-01	5.7367	3.045761	0.000248	2.479697	0.420072	0.004960
 576	2.8750e-01	5.7458	3.085103	0.000393	3.933312	0.666321	0.007868
 577	2.8800e-01	5.7568	3.121878	0.000368	3.676792	0.622865	0.007355
 578	2.8850e-01	5.7654	3.154805	0.000329	3.292011	0.557682	0.006585
 579	2.8900e-01	5.7782	3.200134	0.000453	4.531860	0.767718	0.009066
 580	2.8950e-01	5.7880	3.225364	0.000252	2.522450	0.427315	0.005046
 581	2.9000e-01	5.7977	3.274113	0.000487	4.873887	0.825659	0.009750
 582	2.9050e-01	5.8064	3.302764	0.000286	2.864477	0.485256	0.005730
 583	2.9100e-01	5.8167	3.336546	0.000338	3.377518	0.572167	0.006756
 584	2.9150e-01	5.8261	3.391710	0.000552	5.515188	0.934298	0.011033
 585	2.9200e-01	5.8362	3.405394	0.000137	1.368109	0.231764	0.002737
 586	2.9250e-01	5.8463	3.453716	0.000483	4.831134	0.818416	0.009664
 587	2.9300e-01	5.8600	3.487070	0.000333	3.334765	0.564924	0.006671
 588	2.9350e-01	5.8684	3.519570	0.000325	3.249258	0.550439	0.006500
 589	2.9400e-01	5.8783	3.553780	0.000342	3.420272	0.579410	0.006842
 590	2.9450e-01	5.8865	3.602529	0.000487	4.873887	0.825659	0.009750
 591	2.9500e-01	5.8948	3.647430	0.000449	4.489106	0.760475	0.008980
 592	2.9550e-01	5.9119	3.704304	0.000569	5.686201	0.963269	0.011375
 593	2.9600e-01	5.9167	3.701738	-0.000026	-0.256520	-0.043456	-0.000513
 594	2.9650e-01	5.9283	3.742790	0.000410	4.104326	0.695292	0.008210
 595	2.9700e-01	5.9370	3.786836	0.000440	4.403600	0.745990	0.008809
 596	2.9750e-01	5.9442	3.814204	0.000274	2.736217	0.463528	0.005474
 597	2.9800e-01	5.9570	3.846703	0.000325	3.249258	0.550439	0.006500
 598	2.9850e-01	5.9656	3.901012	0.000543	5.429681	0.919813	0.010862
 599	2.9900e-01	5.9747	3.938215	0.000372	3.719545	0.630108	0.007441
 600	2.9950e-01	5.9866	3.976274	0.000381	3.805052	0.644593	0.007612
 601	3.0000e-01	5.9962	4.004925	0.000286	2.864477	0.485256	0.005730
 602	3.0050e-01	6.0040	4.053674	0.000487	4.873887	0.825659	0.009750
 603	3.0100e-01	6.0165	4.086173	0.000325	3.249258	0.550439	0.006500
 604	3.0150e-01	6.0303	4.128081	0.000419	4.189833	0.709777	0.008381
 605	3.0200e-01	6.0352	4.160152	0.000321	3.206505	0.543197	0.006414
 606	3.0250e-01	6.0461	4.193507	0.000333	3.334765	0.564924	0.006671
 607	3.0300e-01	6.0571	4.231138	0.000376	3.762299	0.637351	0.007526
 608	3.0350e-01	6.0651	4.261072	0.000299	2.992738	0.506983	0.005987
 609	3.0400e-01	6.0754	4.300841	0.000398	3.976066	0.673564	0.007954
 610	3.0450e-01	6.0871	4.320084	0.000192	1.923903	0.325918	0.003849
 611	3.0500e-01	6.0944	4.369689	0.000496	4.959394	0.840144	0.009921
 612	3.0550e-01	6.1060	4.410313	0.000406	4.061572	0.688049	0.008125
 613	3.0600e-01	6.1154	4.470608	0.000603	6.028229	1.021210	0.012059
 614	3.0650e-01	6.1279	4.491990	0.000214	2.137670	0.362131	0.004276
 615	3.0700e-01	6.1365	4.514226	0.000222	2.223177	0.376616	0.004447
 616	3.0750e-01	6.1472	4.559127	0.000449	4.489106	0.760475	0.008980
 617	3.0800e-01	6.1584	4.606166	0.000470	4.702873	0.796688	0.009408
 618	3.0850e-01	6.1685	4.635244	0.000291	2.907231	0.492498	0.005816
 619	3.0900e-01	6.1761	4.673730	0.000385	3.847805	0.651836	0.007697
 620	3.0950e-01	6.1874	4.698533	0.000248	2.479697	0.420072	0.004960
 621	3.1000e-01	6.1963	4.747710	0.000492	4.916640	0.832901	0.009835
 622	3.1050e-01	6.2091	4.770374	0.000227	2.265930	0.383859	0.004533
 623	3.1100e-01	6.2186	4.817413	0.000470	4.702873	0.796688	0.009408
 624	3.1150e-01	6.2268	4.867445	0.000500	5.002147	0.847387	0.010006
 625	3.1200e-01	6.2354	4.890964	0.000235	2.351437	0.398344	0.004704
 626	3.1250e-01	6.2469	4.931161	0.000402	4.018819	0.680806	0.008039
 627	3.1300e-01	6.2555	4.970502	0.000393	3.933312	0.666321	0.007868
 628	3.1350e-01	6.2662	4.997870	0.000274	2.736217	0.463528	0.005474
 629	3.1400e-01	6.2750	5.036784	0.000389	3.890559	0.659079	0.007783
 630	3.1450e-01	6.2866	5.084678	0.000479	4.788380	0.811174	0.009579
 631	3.1500e-01	6.2976	5.107342	0.000227	2.265930	0.383859	0.004533
 632	3.1550e-01	6.3098	5.125730	0.000184	1.838396	0.311433	0.003678
 633	3.1600e-01	6.3184	5.166782	0.000410	4.104326	0.695292	0.008210
 634	3.1650e-01	6.3272	5.227078	0.000603	6.028229	1.021210	0.012059
 635	3.1700e-01	6.3367	5.273689	0.000466	4.660120	0.789446	0.009322
 636	3.1750e-01	6.3446	5.304478	0.000308	3.078244	0.521469	0.006158
 637	3.1800e-01	6.3562	5.332273	0.000278	2.778971	0.470770	0.005559
 638	3.1850e-01	6.3666	5.358359	0.000261	2.607957	0.441800	0.005217
 639	3.1900e-01	6.3739	5.402404	0.000440	4.403600	0.745990	0.008809
 640	3.1950e-01	6.3879	5.438752	0.000363	3.634039	0.615623	0.007270
 641	3.2000e-01	6.3965	5.467403	0.000286	2.864477	0.485256	0.005730
 642	3.2050e-01	6.4038	5.519573	0.000522	5.215914	0.883600	0.010434
 643	3.2100e-01	6.4169	5.548652	0.000291	2.907231	0.492498	0.005816
 644	3.2150e-01	6.4264	5.574737	0.000261	2.607957	0.441800	0.005217
 645	3.2200e-01	6.4368	5.610657	0.000359	3.591285	0.608380	0.007184
 646	3.2250e-01	6.4484	5.657269	0.000466	4.660120	0.789446	0.009322
 647	3.2300e-01	6.4563	5.698321	0.000410	4.104326	0.695292	0.008210
 648	3.2350e-01	6.4655	5.747925	0.000496	4.959394	0.840144	0.009921
 649	3.2400e-01	6.4777	5.766313	0.000184	1.838396	0.311433	0.003678
 650	3.2450e-01	6.4856	5.805655	0.000393	3.933312	0.666321	0.007868
 651	3.2500e-01	6.4941	5.850983	0.000453	4.531860	0.767718	0.009066
 652	3.2550e-01	6.5076	5.879206	0.000282	2.821724	0.478013	0.005645
 653	3.2600e-01	6.5167	5.902298	0.000231	2.308683	0.391102	0.004618
 654	3.2650e-01	6.5274	5.953613	0.000513	5.130407	0.869115	0.010263
 655	3.2700e-01	6.5353	5.993810	0.000402	4.018819	0.680806	0.008039
 656	3.2750e-01	6.5442	6.029303	0.000355	3.548532	0.601138	0.007099
 657	3.2800e-01	6.5546	6.075914	0.000466	4.660120	0.789446	0.009322
 658	3.2850e-01	6.5652	6.098150	0.000222	2.223177	0.376616	0.004447
 659	3.2900e-01	6.5759	6.150748	0.000526	5.258668	0.890842	0.010520
 660	3.2950e-01	6.5857	6.179827	0.000291	2.907231	0.492498	0.005816
 661	3.3000e-01	6.5967	6.211043	0.000312	3.120998	0.528711	0.006243
 662	3.3050e-01	6.6049	6.236273	0.000252	2.522450	0.427315	0.005046
 663	3.3100e-01	6.6174	6.277753	0.000415	4.147079	0.702534	0.008296
 664	3.3150e-01	6.6266	6.315384	0.000376	3.762299	0.637351	0.007526
 665	3.3200e-01	6.6368	6.350449	0.000351	3.505778	0.593895	0.007013
 666	3.3250e-01	6.6452	6.379955	0.000295	2.949984	0.499741	0.005901
 667	3.3300e-01	6.6574	6.421863	0.000419	4.189833	0.709777	0.008381
 668	3.3350e-01	6.6678	6.469757	0.000479	4.788380	0.811174	0.009579
 669	3.3400e-01	6.6779	6.502256	0.000325	3.249258	0.550439	0.006500
 670	3.3450e-01	6.6864	6.536466	0.000342	3.420272	0.579410	0.006842
 671	3.3500e-01	6.6992	6.567683	0.000312	3.120998	0.528711	0.006243
 672	3.3550e-01	6.7081	6.593768	0.000261	2.607957	0.441800	0.005217
 673	3.3600e-01	6.7160	6.639951	0.000462	4.617367	0.782203	0.009237
 674	3.3650e-01	6.7273	6.665609	0.000257	2.565204	0.434557	0.005132
 675	3.3700e-01	6.7340	6.715641	0.000500	5.002147	0.847387	0.010006
 676	3.3750e-01	6.7468	6.754127	0.000385	3.847805	0.651836	0.007697
 677	3.3800e-01	6.7563	6.776792	0.000227	2.265930	0.383859	0.004533
 678	3.3850e-01	6.7706	6.833238	0.000564	5.643448	0.956026	0.011289
 679	3.3900e-01	6.7761	6.869159	0.000359	3.591285	0.608380	0.007184
 680	3.3950e-01	6.7871	6.884125	0.000150	1.496369	0.253492	0.002993
 681	3.4000e-01	6.7981	6.930737	0.000466	4.660120	0.789446	0.009322
 682	3.4050e-01	6.8073	6.970078	0.000393	3.933312	0.666321	0.007868
 683	3.4100e-01	6.8164	7.008992	0.000389	3.890559	0.659079	0.007783
 684	3.4150e-01	6.8268	7.044057	0.000351	3.505778	0.593895	0.007013
 685	3.4200e-01	6.8375	7.077840	0.000338	3.377518	0.572167	0.006756
 686	3.4250e-01	6.8463	7.116326	0.000385	3.847805	0.651836	0.007697
 687	3.4300e-01	6.8561	7.153102	0.000368	3.676792	0.622865	0.007355
 688	3.4350e-01	6.8646	7.171917	0.000188	1.881149	0.318675	0.003763
 689	3.4400e-01	6.8787	7.223660	0.000517	5.173161	0.876357	0.010349
 690	3.4450e-01	6.8875	7.265995	0.000423	4.232586	0.717019	0.008467
 691	3.4500e-01	6.8945	7.294218	0.000282	2.821724	0.478013	0.005645
 692	3.4550e-01	6.9049	7.336553	0.000423	4.232586	0.717019	0.008467
 693	3.4600e-01	6.9177	7.384019	0.000475	4.745627	0.803931	0.009493
 694	3.4650e-01	6.9254	7.407111	0.000231	2.308683	0.391102	0.004618
 695	3.4700e-01	6.9388	7.443032	0.000359	3.591285	0.608380	0.007184
 696	3.4750e-01	6.9452	7.488788	0.000457	4.574613	0.774960	0.009151
 697	3.4800e-01	6.9586	7.518721	0.000299	2.992738	0.506983	0.005987
 698	3.4850e-01	6.9678	7.551649	0.000329	3.292011	0.557682	0.006585
 699	3.4900e-01	6.9788	7.590562	0.000389	3.890559	0.659079	0.007783
 700	3.4950e-01	6.9855	7.635891	0.000453	4.531860	0.767718	0.009066
 701	3.5000e-01	6.9958	7.672239	0.000363	3.634039	0.615623	0.007270
 702	3.5050e-01	7.0038	7.702173	0.000299	2.992738	0.506983	0.005987
 703	3.5100e-01	7.0135	7.741942	0.000398	3.976066	0.673564	0.007954
 704	3.5150e-01	7.0264	7.786415	0.000445	4.446353	0.753233	0.008895
 705	3.5200e-01	7.0361	7.807368	0.000209	2.094916	0.354888	0.004191
 706	3.5250e-01	7.0459	7.853552	0.000462	4.617367	0.782203	0.009237
 707	3.5300e-01	7.0551	7.893321	0.000398	3.976066	0.673564	0.007954
 708	3.5350e-01	7.0667	7.913847	0.000205	2.052163	0.347646	0.004105
 709	3.5400e-01	7.0807	7.955754	0.000419	4.189833	0.709777	0.008381
 710	3.5450e-01	7.0871	7.978846	0.000231	2.308683	0.391102	0.004618
 711	3.5500e-01	7.0966	8.019471	0.000406	4.061572	0.688049	0.008125
 712	3.5550e-01	7.1075	8.069930	0.000504	5.044901	0.854629	0.010092
 713	3.5600e-01	7.1161	8.096443	0.000265	2.650710	0.449043	0.005303
 714	3.5650e-01	7.1259	8.134929	0.000385	3.847805	0.651836	0.007697
 715	3.5700e-01	7.1375	8.186244	0.000513	5.130407	0.869115	0.010263
 716	3.5750e-01	7.1472	8.209764	0.000235	2.351437	0.398344	0.004704
 717	3.5800e-01	7.1561	8.239698	0.000299	2.992738	0.506983	0.005987
 718	3.5850e-01	7.1669	8.269631	0.000299	2.992738	0.506983	0.005987
 719	3.5900e-01	7.1783	8.315387	0.000457	4.574613	0.774960	0.009151
 720	3.5950e-01	7.1854	8.366702	0.000513	5.130407	0.869115	0.010263
 721	3.6000e-01	7.1973	8.394498	0.000278	2.778971	0.470770	0.005559
 722	3.6050e-01	7.2073	8.424432	0.000299	2.992738	0.506983	0.005987
 723	3.6100e-01	7.2168	8.471898	0.000475	4.745627	0.803931	0.009493
 724	3.6150e-01	7.2272	8.502260	0.000304	3.035491	0.514226	0.006072
 725	3.6200e-01	7.2366	8.547160	0.000449	4.489106	0.760475	0.008980
 726	3.6250e-01	7.2464	8.571962	0.000248	2.479697	0.420072	0.004960
 727	3.6300e-01	7.2629	8.617291	0.000453	4.531860	0.767718	0.009066
 728	3.6350e-01	7.2659	8.662619	0.000453	4.531860	0.767718	0.009066
 729	3.6400e-01	7.2755	8.689559	0.000269	2.693464	0.456285	0.005388
 730	3.6450e-01	7.2858	8.725480	0.000359	3.591285	0.608380	0.007184
 731	3.6500e-01	7.2971	8.762256	0.000368	3.676792	0.622865	0.007355
 732	3.6550e-01	7.3096	8.772519	0.000103	1.026081	0.173823	0.002053
 733	3.6600e-01	7.3148	8.829820	0.000573	5.728955	0.970511	0.011460
 734	3.6650e-01	7.3276	8.871728	0.000419	4.189833	0.709777	0.008381
 735	3.6700e-01	7.3346	8.903372	0.000316	3.163751	0.535954	0.006329
 736	3.6750e-01	7.3483	8.929457	0.000261	2.607957	0.441800	0.005217
 737	3.6800e-01	7.3566	8.983338	0.000539	5.386928	0.912570	0.010776
 738	3.6850e-01	7.3669	9.019258	0.000359	3.591285	0.608380	0.007184
 739	3.6900e-01	7.3779	9.041495	0.000222	2.223177	0.376616	0.004447
 740	3.6950e-01	7.3871	9.082975	0.000415	4.147079	0.702534	0.008296
 741	3.7000e-01	7.3969	9.134717	0.000517	5.173161	0.876357	0.010349
 742	3.7050e-01	7.4057	9.157381	0.000227	2.265930	0.383859	0.004533
 743	3.7100e-01	7.4173	9.184749	0.000274	2.736217	0.463528	0.005474
 744	3.7150e-01	7.4268	9.222380	0.000376	3.762299	0.637351	0.007526
 745	3.7200e-01	7.4374	9.272413	0.000500	5.002147	0.847387	0.010006
 746	3.7250e-01	7.4463	9.302774	0.000304	3.035491	0.514226	0.006072
 747	3.7300e-01	7.4573	9.336556	0.000338	3.377518	0.572167	0.006756
 748	3.7350e-01	7.4661	9.388727	0.000522	5.215914	0.883600	0.010434
 749	3.7400e-01	7.4774	9.422509	0.000338	3.377518	0.572167	0.006756
 750	3.7450e-01	7.4878	9.460140	0.000376	3.762299	0.637351	0.007526
 751	3.7500e-01	7.4976	9.486225	0.000261	2.607957	0.441800	0.005217
 752	3.7550e-01	7.5070	9.529415	0.000432	4.318093	0.731505	0.008638
 753	3.7600e-01	7.5177	9.574744	0.000453	4.531860	0.767718	0.009066
 754	3.7650e-01	7.5262	9.612802	0.000381	3.805052	0.644593	0.007612
 755	3.7700e-01	7.5372	9.644019	0.000312	3.120998	0.528711	0.006243
 756	3.7750e-01	7.5470	9.682505	0.000385	3.847805	0.651836	0.007697
 757	3.7800e-01	7.5580	9.723985	0.000415	4.147079	0.702534	0.008296
 758	3.7850e-01	7.5693	9.728261	0.000043	0.427534	0.072426	0.000855
 759	3.7900e-01	7.5787	9.788984	0.000607	6.070982	1.028452	0.012145
 760	3.7950e-01	7.5879	9.836450	0.000475	4.745627	0.803931	0.009493
 761	3.8000e-01	7.5986	9.862963	0.000265	2.650710	0.449043	0.005303
 762	3.8050e-01	7.6031	9.877075	0.000141	1.410862	0.239006	0.002822
 763	3.8100e-01	7.6196	9.935659	0.000586	5.857215	0.992239	0.011717
 764	3.8150e-01	7.6248	9.974573	0.000389	3.890559	0.659079	0.007783
 765	3.8200e-01	7.6343	10.021612	0.000470	4.702873	0.796688	0.009408
 766	3.8250e-01	7.6465	10.052829	0.000312	3.120998	0.528711	0.006243
 767	3.8300e-01	7.6563	10.096019	0.000432	4.318093	0.731505	0.008638
 768	3.8350e-01	7.6642	10.129374	0.000333	3.334765	0.564924	0.006671
 769	3.8400e-01	7.6755	10.159735	0.000304	3.035491	0.514226	0.006072
 770	3.8450e-01	7.6886	10.202498	0.000428	4.275339	0.724262	0.008553
 771	3.8500e-01	7.6971	10.231576	0.000291	2.907231	0.492498	0.005816
 772	3.8550e-01	7.7045	10.285457	0.000539	5.386928	0.912570	0.010776
 773	3.8600e-01	7.7151	10.308976	0.000235	2.351437	0.398344	0.004704
 774	3.8650e-01	7.7278	10.353877	0.000449	4.489106	0.760475	0.008980
 775	3.8700e-01	7.7362	10.373975	0.000201	2.009410	0.340403	0.004020
 776	3.8750e-01	7.7441	10.422725	0.000487	4.873887	0.825659	0.009750
 777	3.8800e-01	7.7539	10.474040	0.000513	5.130407	0.869115	0.010263
 778	3.8850e-01	7.7667	10.499270	0.000252	2.522450	0.427315	0.005046
 779	3.8900e-01	7.7740	10.531341	0.000321	3.206505	0.543197	0.006414
 780	3.8950e-01	7.7875	10.575814	0.000445	4.446353	0.753233	0.008895
 781	3.9000e-01	7.7966	10.623281	0.000475	4.745627	0.803931	0.009493
 782	3.9050e-01	7.8064	10.643807	0.000205	2.052163	0.347646	0.004105
 783	3.9100e-01	7.8162	10.691701	0.000479	4.788380	0.811174	0.009579
 784	3.9150e-01	7.8241	10.716076	0.000244	2.436943	0.412829	0.004875
 785	3.9200e-01	7.8342	10.749003	0.000329	3.292011	0.557682	0.006585
 786	3.9250e-01	7.8455	10.793048	0.000440	4.403600	0.745990	0.008809
 787	3.9300e-01	7.8564	10.836666	0.000436	4.360846	0.738747	0.008724
 788	3.9350e-01	7.8653	10.880711	0.000440	4.403600	0.745990	0.008809
 789	3.9400e-01	7.8754	10.917059	0.000363	3.634039	0.615623	0.007270
 790	3.9450e-01	7.8870	10.941006	0.000239	2.394190	0.405587	0.004789
 791	3.9500e-01	7.8961	10.977782	0.000368	3.676792	0.622865	0.007355
 792	3.9550e-01	7.9053	11.018834	0.000410	4.104326	0.695292	0.008210
 793	3.9600e-01	7.9166	11.064590	0.000457	4.574613	0.774960	0.009151
 794	3.9650e-01	7.9245	11.094524	0.000299	2.992738	0.506983	0.005987
 795	3.9700e-01	7.9333	11.134293	0.000398	3.976066	0.673564	0.007954
 796	3.9750e-01	7.9443	11.176628	0.000423	4.232586	0.717019	0.008467
 797	3.9800e-01	7.9578	11.209128	0.000325	3.249258	0.550439	0.006500
 798	3.9850e-01	7.9701	11.237351	0.000282	2.821724	0.478013	0.005645
 799	3.9900e-01	7.9761	11.269423	0.000321	3.206505	0.543197	0.006414
 800	3.9950e-01	7.9852	11.340408	0.000710	7.097063	1.202275	0.014197
 801	4.0000e-01	7.9932	11.365638	0.000252	2.522450	0.427315	0.005046
 802	4.0050e-01	8.0087	11.394289	0.000286	2.864477	0.485256	0.005730
 803	4.0100e-01	8.0176	11.431920	0.000376	3.762299	0.637351	0.007526
 804	4.0150e-01	8.0249	11.472545	0.000406	4.061572	0.688049	0.008125
 805	4.0200e-01	8.0399	11.511459	0.000389	3.890559	0.659079	0.007783
 806	4.0250e-01	8.0478	11.543103	0.000316	3.163751	0.535954	0.006329
 807	4.0300e-01	8.0554	11.585865	0.000428	4.275339	0.724262	0.008553
 808	4.0350e-01	8.0685	11.642312	0.000564	5.643448	0.956026	0.011289
 809	4.0400e-01	8.0762	11.667969	0.000257	2.565204	0.434557	0.005132
 810	4.0450e-01	8.0865	11.702607	0.000346	3.463025	0.586652	0.006928
 811	4.0500e-01	8.0960	11.731686	0.000291	2.907231	0.492498	0.005816
 812	4.0550e-01	8.1042	11.773593	0.000419	4.189833	0.709777	0.008381
 813	4.0600e-01	8.1171	11.819349	0.000457	4.574613	0.774960	0.009151
 814	4.0650e-01	8.1250	11.851848	0.000325	3.249258	0.550439	0.006500
 815	4.0700e-01	8.1360	11.890762	0.000389	3.890559	0.659079	0.007783
 816	4.0750e-01	8.1451	11.931814	0.000410	4.104326	0.695292	0.008210
 817	4.0800e-01	8.1564	11.969873	0.000381	3.805052	0.644593	0.007612
 818	4.0850e-01	8.1653	12.025892	0.000560	5.600695	0.948783	0.011204
 819	4.0900e-01	8.1775	12.041714	0.000158	1.581876	0.267977	0.003164
 820	4.0950e-01	8.1860	12.076779	0.000351	3.505778	0.593895	0.007013
 821	4.1000e-01	8.1961	12.111417	0.000346	3.463025	0.586652	0.006928
 822	4.1050e-01	8.2056	12.154179	0.000428	4.275339	0.724262	0.008553
 823	4.1100e-01	8.2190	12.193949	0.000398	3.976066	0.673564	0.007954
 824	4.1150e-01	8.2236	12.232007	0.000381	3.805052	0.644593	0.007612
 825	4.1200e-01	8.2367	12.284605	0.000526	5.258668	0.890842	0.010520
 826	4.1250e-01	8.2480	12.320953	0.000363	3.634039	0.615623	0.007270
 827	4.1300e-01	8.2581	12.351315	0.000304	3.035491	0.514226	0.006072
 828	4.1350e-01	8.2654	12.394505	0.000432	4.318093	0.731505	0.008638
 829	4.1400e-01	8.2761	12.436840	0.000423	4.232586	0.717019	0.008467
 830	4.1450e-01	8.2867	12.477036	0.000402	4.018819	0.680806	0.008039
 831	4.1500e-01	8.2971	12.506970	0.000299	2.992738	0.506983	0.005987
 832	4.1550e-01	8.3054	12.546739	0.000398	3.976066	0.673564	0.007954
 833	4.1600e-01	8.3160	12.591212	0.000445	4.446353	0.753233	0.008895
 834	4.1650e-01	8.3264	12.634830	0.000436	4.360846	0.738747	0.008724
 835	4.1700e-01	8.3362	12.670751	0.000359	3.591285	0.608380	0.007184
 836	4.1750e-01	8.3447	12.698974	0.000282	2.821724	0.478013	0.005645
 837	4.1800e-01	8.3569	12.746868	0.000479	4.788380	0.811174	0.009579
 838	4.1850e-01	8.3661	12.774664	0.000278	2.778971	0.470770	0.005559
 839	4.1900e-01	8.3752	12.829827	0.000552	5.515188	0.934298	0.011033
 840	4.1950e-01	8.3856	12.870879	0.000410	4.104326	0.695292	0.008210
 841	4.2000e-01	8.3945	12.907655	0.000368	3.676792	0.622865	0.007355
 842	4.2050e-01	8.4076	12.937161	0.000295	2.949984	0.499741	0.005901
 843	4.2100e-01	8.4137	12.982062	0.000449	4.489106	0.760475	0.008980
 844	4.2150e-01	8.4265	13.017555	0.000355	3.548532	0.601138	0.007099
 845	4.2200e-01	8.4369	13.065449	0.000479	4.788380	0.811174	0.009579
 846	4.2250e-01	8.4467	13.098804	0.000333	3.334765	0.564924	0.006671
 847	4.2300e-01	8.4576	13.129593	0.000308	3.078244	0.521469	0.006158
 848	4.2350e-01	8.4659	13.177059	0.000475	4.745627	0.803931	0.009493
 849	4.2400e-01	8.4729	13.212980	0.000359	3.591285	0.608380	0.007184
 850	4.2450e-01	8.4839	13.250183	0.000372	3.719545	0.630108	0.007441
 851	4.2500e-01	8.4973	13.298505	0.000483	4.831134	0.818416	0.009664
 852	4.2550e-01	8.5083	13.331004	0.000325	3.249258	0.550439	0.006500
 853	4.2600e-01	8.5162	13.378471	0.000475	4.745627	0.803931	0.009493
 854	4.2650e-01	8.5266	13.416957	0.000385	3.847805	0.651836	0.007697
 855	4.2700e-01	8.5373	13.449884	0.000329	3.292011	0.557682	0.006585
 856	4.2750e-01	8.5469	13.493502	0.000436	4.360846	0.738747	0.008724
 857	4.2800e-01	8.5571	13.523863	0.000304	3.035491	0.514226	0.006072
 858	4.2850e-01	8.5669	13.583303	0.000594	5.942722	1.006724	0.011888
 859	4.2900e-01	8.5760	13.595277	0.000120	1.197095	0.202793	0.002395
 860	4.2950e-01	8.5883	13.653006	0.000577	5.771708	0.977754	0.011546
 861	4.3000e-01	8.5992	13.682512	0.000295	2.949984	0.499741	0.005901
 862	4.3050e-01	8.6035	13.732544	0.000500	5.002147	0.847387	0.010006
 863	4.3100e-01	8.6163	13.779583	0.000470	4.702873	0.796688	0.009408
 864	4.3150e-01	8.6243	13.796260	0.000167	1.667382	0.282462	0.003335
 865	4.3200e-01	8.6386	13.845010	0.000487	4.873887	0.825659	0.009750
 866	4.3250e-01	8.6462	13.878364	0.000333	3.334765	0.564924	0.006671
 867	4.3300e-01	8.6572	13.932245	0.000539	5.386928	0.912570	0.010776
 868	4.3350e-01	8.6664	13.970732	0.000385	3.847805	0.651836	0.007697
 869	4.3400e-01	8.6743	13.999382	0.000286	2.864477	0.485256	0.005730
 870	4.3450e-01	8.6871	14.062671	0.000633	6.327502	1.071908	0.012658
 871	4.3500e-01	8.6969	14.091749	0.000291	2.907231	0.492498	0.005816
 872	4.3550e-01	8.7048	14.131519	0.000398	3.976066	0.673564	0.007954
 873	4.3600e-01	8.7177	14.168722	0.000372	3.719545	0.630108	0.007441
 874	4.3650e-01	8.7268	14.196518	0.000278	2.778971	0.470770	0.005559
 875	4.3700e-01	8.7378	14.259806	0.000633	6.327502	1.071908	0.012658
 876	4.3750e-01	8.7457	14.297437	0.000376	3.762299	0.637351	0.007526
 877	4.3800e-01	8.7601	14.324378	0.000269	2.693464	0.456285	0.005388
 878	4.3850e-01	8.7674	14.367995	0.000436	4.360846	0.738747	0.008724
 879	4.3900e-01	8.7769	14.420166	0.000522	5.215914	0.883600	0.010434
 880	4.3950e-01	8.7872	14.456086	0.000359	3.591285	0.608380	0.007184
 881	4.4000e-01	8.7976	14.502697	0.000466	4.660120	0.789446	0.009322
 882	4.4050e-01	8.8049	14.547170	0.000445	4.446353	0.753233	0.008895
 883	4.4100e-01	8.8171	14.575394	0.000282	2.821724	0.478013	0.005645
 884	4.4150e-01	8.8263	14.602762	0.000274	2.736217	0.463528	0.005474
 885	4.4200e-01	8.8379	14.655360	0.000526	5.258668	0.890842	0.010520
 886	4.4250e-01	8.8483	14.693846	0.000385	3.847805	0.651836	0.007697
 887	4.4300e-01	8.8574	14.740029	0.000462	4.617367	0.782203	0.009237
 888	4.4350e-01	8.8663	14.782364	0.000423	4.232586	0.717019	0.008467
 889	4.4400e-01	8.8773	14.835390	0.000530	5.301421	0.898085	0.010605
 890	4.4450e-01	8.8870	14.862758	0.000274	2.736217	0.463528	0.005474
 891	4.4500e-01	8.8959	14.897823	0.000351	3.505778	0.593895	0.007013
 892	4.4550e-01	8.9081	14.944434	0.000466	4.660120	0.789446	0.009322
 893	4.4600e-01	8.9154	14.989335	0.000449	4.489106	0.760475	0.008980
 894	4.4650e-01	8.9270	15.014992	0.000257	2.565204	0.434557	0.005132
 895	4.4700e-01	8.9359	15.074432	0.000594	5.942722	1.006724	0.011888
 896	4.4750e-01	8.9468	15.110781	0.000363	3.634039	0.615623	0.007270
 897	4.4800e-01	8.9539	15.155254	0.000445	4.446353	0.753233	0.008895
 898	4.4850e-01	8.9673	15.186898	0.000316	3.163751	0.535954	0.006329
 899	4.4900e-01	8.9746	15.237785	0.000509	5.087654	0.861872	0.010177
 900	4.4950e-01	8.9850	15.285679	0.000479	4.788380	0.811174	0.009579
 901	4.5000e-01	8.9966	15.310909	0.000252	2.522450	0.427315	0.005046
 902	4.5050e-01	9.0027	15.359231	0.000483	4.831134	0.818416	0.009664
 903	4.5100e-01	9.0161	15.404987	0.000457	4.574613	0.774960	0.009151
 904	4.5150e-01	9.0253	15.434920	0.000299	2.992738	0.506983	0.005987
 905	4.5200e-01	9.0347	15.487091	0.000522	5.215914	0.883600	0.010434
 906	4.5250e-01	9.0472	15.533274	0.000462	4.617367	0.782203	0.009237
 907	4.5300e-01	9.0555	15.573471	0.000402	4.018819	0.680806	0.008039
 908	4.5350e-01	9.0668	15.624786	0.000513	5.130407	0.869115	0.010263
 909	4.5400e-01	9.0778	15.645312	0.000205	2.052163	0.347646	0.004105
 910	4.5450e-01	9.0869	15.685509	0.000402	4.018819	0.680806	0.008039
 911	4.5500e-01	9.0973	15.731692	0.000462	4.617367	0.782203	0.009237
 912	4.5550e-01	9.1058	15.767185	0.000355	3.548532	0.601138	0.007099
 913	4.5600e-01	9.1174	15.820211	0.000530	5.301421	0.898085	0.010605
 914	4.5650e-01	9.1302	15.851000	0.000308	3.078244	0.521469	0.006158
 915	4.5700e-01	9.1357	15.895045	0.000440	4.403600	0.745990	0.008809
 916	4.5750e-01	9.1455	15.947643	0.000526	5.258668	0.890842	0.010520
 917	4.5800e-01	9.1565	15.999386	0.000517	5.173161	0.876357	0.010349
 918	4.5850e-01	9.1681	16.031458	0.000321	3.206505	0.543197	0.006414
 919	4.5900e-01	9.1754	16.064385	0.000329	3.292011	0.557682	0.006585
 920	4.5950e-01	9.1864	16.113989	0.000496	4.959394	0.840144	0.009921
 921	4.6000e-01	9.1962	16.156324	0.000423	4.232586	0.717019	0.008467
 922	4.6050e-01	9.2047	16.210633	0.000543	5.429681	0.919813	0.010862
 923	4.6100e-01	9.2154	16.243132	0.000325	3.249258	0.550439	0.006500
 924	4.6150e-01	9.2273	16.283757	0.000406	4.061572	0.688049	0.008125
 925	4.6200e-01	9.2361	16.340631	0.000569	5.686201	0.963269	0.011375
 926	4.6250e-01	9.2453	16.381683	0.000410	4.104326	0.695292	0.008210
 927	4.6300e-01	9.2542	16.418459	0.000368	3.676792	0.622865	0.007355
 928	4.6350e-01	9.2664	16.450958	0.000325	3.249258	0.550439	0.006500
 929	4.6400e-01	9.2755	16.500563	0.000496	4.959394	0.840144	0.009921
 930	4.6450e-01	9.2889	16.544180	0.000436	4.360846	0.738747	0.008724
 931	4.6500e-01	9.2978	16.593785	0.000496	4.959394	0.840144	0.009921
 932	4.6550e-01	9.3073	16.620298	0.000265	2.650710	0.449043	0.005303
 933	4.6600e-01	9.3147	16.674606	0.000543	5.429681	0.919813	0.010862
 934	4.6650e-01	9.3262	16.724638	0.000500	5.002147	0.847387	0.010006
 935	4.6700e-01	9.3378	16.766973	0.000423	4.232586	0.717019	0.008467
 936	4.6750e-01	9.3481	16.802038	0.000351	3.505778	0.593895	0.007013
 937	4.6800e-01	9.3591	16.840952	0.000389	3.890559	0.659079	0.007783
 938	4.6850e-01	9.3649	16.896116	0.000552	5.515188	0.934298	0.011033
 939	4.6900e-01	9.3756	16.944438	0.000483	4.831134	0.818416	0.009664
 940	4.6950e-01	9.3848	16.978648	0.000342	3.420272	0.579410	0.006842
 941	4.7000e-01	9.3954	17.022265	0.000436	4.360846	0.738747	0.008724
 942	4.7050e-01	9.4080	17.074863	0.000526	5.258668	0.890842	0.010520
 943	4.7100e-01	9.4171	17.105225	0.000304	3.035491	0.514226	0.006072
 944	4.7150e-01	9.4254	17.151836	0.000466	4.660120	0.789446	0.009322
 945	4.7200e-01	9.4354	17.201440	0.000496	4.959394	0.840144	0.009921
 946	4.7250e-01	9.4464	17.242920	0.000415	4.147079	0.702534	0.008296
 947	4.7300e-01	9.4577	17.285255	0.000423	4.232586	0.717019	0.008467
 948	4.7350e-01	9.4647	17.334432	0.000492	4.916640	0.832901	0.009835
 949	4.7400e-01	9.4769	17.391734	0.000573	5.728955	0.970511	0.011460
 950	4.7450e-01	9.4867	17.418674	0.000269	2.693464	0.456285	0.005388
 951	4.7500e-01	9.4983	17.461864	0.000432	4.318093	0.731505	0.008638
 952	4.7550e-01	9.5059	17.498640	0.000368	3.676792	0.622865	0.007355
 953	4.7600e-01	9.5184	17.550383	0.000517	5.173161	0.876357	0.010349
 954	4.7650e-01	9.5264	17.609395	0.000590	5.899968	0.999482	0.011802
 955	4.7700e-01	9.5337	17.636335	0.000269	2.693464	0.456285	0.005388
 956	4.7750e-01	9.5447	17.685940	0.000496	4.959394	0.840144	0.009921
 957	4.7800e-01	9.5557	17.722716	0.000368	3.676792	0.622865	0.007355
 958	4.7850e-01	9.5654	17.769754	0.000470	4.702873	0.796688	0.009408
 959	4.7900e-01	9.5752	17.829622	0.000599	5.985475	1.013967	0.011974
 960	4.7950e-01	9.5880	17.878799	0.000492	4.916640	0.832901	0.009835
 961	4.8000e-01	9.5978	17.918140	0.000393	3.933312	0.666321	0.007868
 962	4.8050e-01	9.6069	17.965179	0.000470	4.702873	0.796688	0.009408
 963	4.8100e-01	9.6167	18.008369	0.000432	4.318093	0.731505	0.008638
 964	4.8150e-01	9.6246	18.054553	0.000462	4.617367	0.782203	0.009237
 965	4.8200e-01	9.6356	18.095605	0.000410	4.104326	0.695292	0.008210
 966	4.8250e-01	9.6472	18.143499	0.000479	4.788380	0.811174	0.009579
 967	4.8300e-01	9.6609	18.180702	0.000372	3.719545	0.630108	0.007441
 968	4.8350e-01	9.6674	18.221754	0.000410	4.104326	0.695292	0.008210
 969	4.8400e-01	9.6735	18.285043	0.000633	6.327502	1.071908	0.012658
 970	4.8450e-01	9.6875	18.336786	0.000517	5.173161	0.876357	0.010349
 971	4.8500e-01	9.6950	18.369285	0.000325	3.249258	0.550439	0.006500
 972	4.8550e-01	9.7083	18.412475	0.000432	4.318093	0.731505	0.008638
 973	4.8600e-01	9.7159	18.464646	0.000522	5.215914	0.883600	0.010434
 974	4.8650e-01	9.7260	18.506553	0.000419	4.189833	0.709777	0.008381
 975	4.8700e-01	9.7327	18.565993	0.000594	5.942722	1.006724	0.011888
 976	4.8750e-01	9.7455	18.598920	0.000329	3.292011	0.557682	0.006585
 977	4.8800e-01	9.7571	18.640400	0.000415	4.147079	0.702534	0.008296
 978	4.8850e-01	9.7659	18.694708	0.000543	5.429681	0.919813	0.010862
 979	4.8900e-01	9.7748	18.733622	0.000389	3.890559	0.659079	0.007783
 980	4.8950e-01	9.7858	18.802897	0.000693	6.926050	1.173305	0.013855
 981	4.9000e-01	9.7961	18.831120	0.000282	2.821724	0.478013	0.005645
 982	4.9050e-01	9.8047	18.882863	0.000517	5.173161	0.876357	0.010349
 983	4.9100e-01	9.8163	18.936744	0.000539	5.386928	0.912570	0.010776
 984	4.9150e-01	9.8273	18.973092	0.000363	3.634039	0.615623	0.007270
 985	4.9200e-01	9.8346	19.016282	0.000432	4.318093	0.731505	0.008638
 986	4.9250e-01	9.8474	19.053058	0.000368	3.676792	0.622865	0.007355
 987	4.9300e-01	9.8553	19.115064	0.000620	6.199242	1.050180	0.012401
 988	4.9350e-01	9.8676	19.167661	0.000526	5.258668	0.890842	0.010520
 989	4.9400e-01	9.8785	19.207858	0.000402	4.018819	0.680806	0.008039
 990	4.9450e-01	9.8883	19.253187	0.000453	4.531860	0.767718	0.009066
 991	4.9500e-01	9.8972	19.309633	0.000564	5.643448	0.956026	0.011289
 992	4.9550e-01	9.9078	19.357099	0.000475	4.745627	0.803931	0.009493
 993	4.9600e-01	9.9188	19.401145	0.000440	4.403600	0.745990	0.008809
 994	4.9650e-01	9.9261	19.438348	0.000372	3.719545	0.630108	0.007441
 995	4.9700e-01	9.9347	19.497361	0.000590	5.899968	0.999482	0.011802
 996	4.9750e-01	9.9445	19.561077	0.000637	6.370256	1.079151	0.012743
 997	4.9800e-01	9.9544	19.591011	0.000299	2.992738	0.506983	0.005987
 998	4.9850e-01	9.9664	19.644036	0.000530	5.301421	0.898085	0.010605
 999	4.9900e-01	9.9762	19.692358	0.000483	4.831134	0.818416	0.009664
1000	4.9950e-01	9.9844	19.740252	0.000479	4.788380	0.811174	0.009579
1001	5.0000e-01	9.9982	19.783442	0.000432	4.318093	0.731505	0.008638
1002	5.0050e-01	9.9875	19.773607	0.000098	0.983328	0.166580	-0.001967
1003	5.0100e-01	9.9786	19.792422	-0.000188	-1.881149	-0.318675	0.003763
1004	5.0150e-01	9.9664	19.801830	-0.000094	-0.940575	-0.159338	0.001882
1005	5.0200e-01	9.9573	19.828343	-0.000265	-2.650710	-0.449043	0.005303
1006	5.0250e-01	9.9457	19.819790	0.000086	0.855068	0.144852	-0.001711
1007	5.0300e-01	9.9362	19.828343	-0.000086	-0.855068	-0.144852	0.001711
1008	5.0350e-01	9.9255	19.839888	-0.000115	-1.154342	-0.195551	0.002309
1009	5.0400e-01	9.9146	19.850151	-0.000103	-1.026081	-0.173823	0.002053
1010	5.0450e-01	9.9030	19.859132	-0.000090	-0.897821	-0.152095	0.001796
1011	5.0500e-01	9.8950	19.862980	-0.000038	-0.384781	-0.065184	0.000770
1012	5.0550e-01	9.8895	19.843737	0.000192	1.923903	0.325918	-0.003849
1013	5.0600e-01	9.8734	19.855711	-0.000120	-1.197095	-0.202793	0.002395
1014	5.0650e-01	9.8676	19.860414	-0.000047	-0.470287	-0.079669	0.000941
1015	5.0700e-01	9.8560	19.864691	-0.000043	-0.427534	-0.072426	0.000855
1016	5.0750e-01	9.8438	19.877092	-0.000124	-1.239848	-0.210036	0.002480
1017	5.0800e-01	9.8380	19.859559	0.000175	1.752889	0.296947	-0.003507
1018	5.0850e-01	9.8260	19.874954	-0.000154	-1.539122	-0.260734	0.003079
1019	5.0900e-01	9.8160	19.869822	0.000051	0.513041	0.086911	-0.001026
1020	5.0950e-01	9.8065	19.857849	0.000120	1.197095	0.202793	-0.002395
1021	5.1000e-01	9.7949	19.879658	-0.000218	-2.180423	-0.369374	0.004362
1022	5.1050e-01	9.7864	19.872816	0.000068	0.684054	0.115882	-0.001368
1023	5.1100e-01	9.7766	19.873243	-0.000004	-0.042753	-0.007243	0.000086
1024	5.1150e-01	9.7681	19.862553	0.000107	1.068835	0.181066	-0.002138
1025	5.1200e-01	9.7546	19.867256	-0.000047	-0.470287	-0.079669	0.000941
1026	5.1250e-01	9.7424	19.874954	-0.000077	-0.769561	-0.130367	0.001539
1027	5.1300e-01	9.7351	19.840316	0.000346	3.463025	0.586652	-0.006928
1028	5.1350e-01	9.7275	19.865118	-0.000248	-2.479697	-0.420072	0.004960
1029	5.1400e-01	9.7171	19.849724	0.000154	1.539122	0.260734	-0.003079
1030	5.1450e-01	9.7064	19.843737	0.000060	0.598548	0.101397	-0.001197
1031	5.1500e-01	9.6954	19.832619	0.000111	1.111588	0.188308	-0.002224
1032	5.1550e-01	9.6875	19.843309	-0.000107	-1.068835	-0.181066	0.002138
1033	5.1600e-01	9.6771	19.827487	0.000158	1.581876	0.267977	-0.003164
1034	5.1650e-01	9.6637	19.839461	-0.000120	-1.197095	-0.202793	0.002395
1035	5.1700e-01	9.6570	19.838606	0.000009	0.085507	0.014485	-0.000171
1036	5.1750e-01	9.6442	19.814659	0.000239	2.394190	0.405587	-0.004789
1037	5.1800e-01	9.6332	19.827487	-0.000128	-1.282602	-0.217279	0.002566
1038	5.1850e-01	9.6289	19.813376	0.000141	1.410862	0.239006	-0.002822
1039	5.1900e-01	9.6161	19.809099	0.000043	0.427534	0.072426	-0.000855
1040	5.1950e-01	9.6051	19.800547	0.000086	0.855068	0.144852	-0.001711
1041	5.2000e-01	9.5959	19.797554	0.000030	0.299274	0.050698	-0.000599
1042	5.2050e-01	9.5856	19.792850	0.000047	0.470287	0.079669	-0.000941
1043	5.2100e-01	9.5758	19.779593	0.000133	1.325355	0.224521	-0.002651
1044	5.2150e-01	9.5642	19.774462	0.000051	0.513041	0.086911	-0.001026
1045	5.2200e-01	9.5581	19.763771	0.000107	1.068835	0.181066	-0.002138
1046	5.2250e-01	9.5453	19.758212	0.000056	0.555794	0.094154	-0.001112
1047	5.2300e-01	9.5343	19.761633	-0.000034	-0.342027	-0.057941	0.000684
1048	5.2350e-01	9.5270	19.748804	0.000128	1.282602	0.217279	-0.002566
1049	5.2400e-01	9.5154	19.739396	0.000094	0.940575	0.159338	-0.001882
1050	5.2450e-01	9.5044	19.726140	0.000133	1.325355	0.224521	-0.002651
1051	5.2500e-01	9.4958	19.726995	-0.000009	-0.085507	-0.014485	0.000171
1052	5.2550e-01	9.4849	19.713311	0.000137	1.368109	0.231764	-0.002737
1053	5.2600e-01	9.4757	19.718870	-0.000056	-0.555794	-0.094154	0.001112
1054	5.2650e-01	9.4647	19.709463	0.000094	0.940575	0.159338	-0.001882
1055	5.2700e-01	9.4543	19.701765	0.000077	0.769561	0.130367	-0.001539
1056	5.2750e-01	9.4458	19.662852	0.000389	3.890559	0.659079	-0.007783
1057	5.2800e-01	9.4360	19.675680	-0.000128	-1.282602	-0.217279	0.002566
1058	5.2850e-01	9.4257	19.661141	0.000145	1.453615	0.246249	-0.002908
1059	5.2900e-01	9.4153	19.656437	0.000047	0.470287	0.079669	-0.000941
1060	5.2950e-01	9.4043	19.653016	0.000034	0.342027	0.057941	-0.000684
1061	5.3000e-01	9.3945	19.642753	0.000103	1.026081	0.173823	-0.002053
1062	5.3050e-01	9.3866	19.614958	0.000278	2.778971	0.470770	-0.005559
1063	5.3100e-01	9.3762	19.610681	0.000043	0.427534	0.072426	-0.000855
1064	5.3150e-01	9.3680	19.605550	0.000051	0.513041	0.086911	-0.001026
1065	5.3200e-01	9.3573	19.595287	0.000103	1.026081	0.173823	-0.002053
1066	5.3250e-01	9.3451	19.587590	0.000077	0.769561	0.130367	-0.001539
1067	5.3300e-01	9.3347	19.583313	0.000043	0.427534	0.072426	-0.000855
1068	5.3350e-01	9.3237	19.568346	0.000150	1.496369	0.253492	-0.002993
1069	5.3400e-01	9.3176	19.542689	0.000257	2.565204	0.434557	-0.005132
1070	5.3450e-01	9.3054	19.540551	0.000021	0.213767	0.036213	-0.000428
1071	5.3500e-01	9.2957	19.543544	-0.000030	-0.299274	-0.050698	0.000599
1072	5.3550e-01	9.2853	19.514466	0.000291	2.907231	0.492498	-0.005816
1073	5.3600e-01	9.2773	19.499926	0.000145	1.453615	0.246249	-0.002908
1074	5.3650e-01	9.2651	19.489663	0.000103	1.026081	0.173823	-0.002053
1075	5.3700e-01	9.2560	19.478545	0.000111	1.111588	0.188308	-0.002224
1076	5.3750e-01	9.2493	19.481966	-0.000034	-0.342027	-0.057941	0.000684
1077	5.3800e-01	9.2371	19.437065	0.000449	4.489106	0.760475	-0.008980
1078	5.3850e-01	9.2256	19.443480	-0.000064	-0.641301	-0.108639	0.001283
1079	5.3900e-01	9.2169	19.437065	0.000064	0.641301	0.108639	-0.001283
1080	5.3950e-01	9.2041	19.409270	0.000278	2.778971	0.470770	-0.005559
1081	5.4000e-01	9.1946	19.408415	0.000009	0.085507	0.014485	-0.000171
1082	5.4050e-01	9.1858	19.396441	0.000120	1.197095	0.202793	-0.002395
1083	5.4100e-01	9.1766	19.375915	0.000205	2.052163	0.347646	-0.004105
1084	5.4150e-01	9.1656	19.366935	0.000090	0.897821	0.152095	-0.001796
1085	5.4200e-01	9.1556	19.366507	0.000004	0.042753	0.007243	-0.000086
1086	5.4250e-01	9.1455	19.349402	0.000171	1.710136	0.289705	-0.003421
1087	5.4300e-01	9.1357	19.344271	0.000051	0.513041	0.086911	-0.001026
1088	5.4350e-01	9.1266	19.314337	0.000299	2.992738	0.506983	-0.005987
1089	5.4400e-01	9.1174	19.293383	0.000209	2.094916	0.354888	-0.004191
1090	5.4450e-01	9.1083	19.274140	0.000192	1.923903	0.325918	-0.003849
1091	5.4500e-01	9.0961	19.268581	0.000056	0.555794	0.094154	-0.001112
1092	5.4550e-01	9.0878	19.261311	0.000073	0.726808	0.123125	-0.001454
1093	5.4600e-01	9.0753	19.250621	0.000107	1.068835	0.181066	-0.002138
1094	5.4650e-01	9.0677	19.236937	0.000137	1.368109	0.231764	-0.002737
1095	5.4700e-01	9.0558	19.214273	0.000227	2.265930	0.383859	-0.004533
1096	5.4750e-01	9.0466	19.202299	0.000120	1.197095	0.202793	-0.002395
1097	5.4800e-01	9.0381	19.195885	0.000064	0.641301	0.108639	-0.001283
1098	5.4850e-01	9.0253	19.173221	0.000227	2.265930	0.383859	-0.004533
1099	5.4900e-01	9.0161	19.157398	0.000158	1.581876	0.267977	-0.003164
1100	5.4950e-01	9.0039	19.155688	0.000017	0.171014	0.028970	-0.000342
1101	5.5000e-01	8.9929	19.124899	0.000308	3.078244	0.521469	-0.006158
1102	5.5050e-01	8.9856	19.120195	0.000047	0.470287	0.079669	-0.000941
1103	5.5100e-01	8.9728	19.115491	0.000047	0.470287	0.079669	-0.000941
1104	5.5150e-01	8.9679	19.096676	0.000188	1.881149	0.318675	-0.003763
1105	5.5200e-01	8.9575	19.068025	0.000286	2.864477	0.485256	-0.005730
1106	5.5250e-01	8.9465	19.071873	-0.000038	-0.384781	-0.065184	0.000770
1107	5.5300e-01	8.9362	19.046644	0.000252	2.522450	0.427315	-0.005046
1108	5.5350e-01	8.9264	19.032532	0.000141	1.410862	0.239006	-0.002822
1109	5.5400e-01	8.9160	19.021841	0.000107	1.068835	0.181066	-0.002138
1110	5.5450e-01	8.9066	19.016282	0.000056	0.555794	0.094154	-0.001112
1111	5.5500e-01	8.8995	18.977368	0.000389	3.890559	0.659079	-0.007783
1112	5.5550e-01	8.8898	18.961974	0.000154	1.539122	0.260734	-0.003079
1113	5.5600e-01	8.8763	18.949573	0.000124	1.239848	0.210036	-0.002480
1114	5.5650e-01	8.8654	18.925626	0.000239	2.394190	0.405587	-0.004789
1115	5.5700e-01	8.8556	18.920066	0.000056	0.555794	0.094154	-0.001112
1116	5.5750e-01	8.8507	18.893981	0.000261	2.607957	0.441800	-0.005217
1117	5.5800e-01	8.8361	18.879014	0.000150	1.496369	0.253492	-0.002993
1118	5.5850e-01	8.8251	18.874738	0.000043	0.427534	0.072426	-0.000855
1119	5.5900e-01	8.8153	18.870462	0.000043	0.427534	0.072426	-0.000855
1120	5.5950e-01	8.8080	18.832403	0.000381	3.805052	0.644593	-0.007612
1121	5.6000e-01	8.7970	18.818292	0.000141	1.410862	0.239006	-0.002822
1122	5.6050e-01	8.7866	18.806746	0.000115	1.154342	0.195551	-0.002309
1123	5.6100e-01	8.7756	18.790496	0.000162	1.624629	0.275220	-0.003250
1124	5.6150e-01	8.7677	18.769970	0.000205	2.052163	0.347646	-0.004105
1125	5.6200e-01	8.7561	18.750727	0.000192	1.923903	0.325918	-0.003849
1126	5.6250e-01	8.7463	18.741319	0.000094	0.940575	0.159338	-0.001882
1127	5.6300e-01	8.7360	18.731484	0.000098	0.983328	0.166580	-0.001967
1128	5.6350e-01	8.7280	18.717800	0.000137	1.368109	0.231764	-0.002737
1129	5.6400e-01	8.7183	18.696418	0.000214	2.137670	0.362131	-0.004276
1130	5.6450e-01	8.7094	18.676320	0.000201	2.009410	0.340403	-0.004020
1131	5.6500e-01	8.6938	18.671189	0.000051	0.513041	0.086911	-0.001026
1132	5.6550e-01	8.6871	18.644676	0.000265	2.650710	0.449043	-0.005303
1133	5.6600e-01	8.6774	18.631419	0.000133	1.325355	0.224521	-0.002651
1134	5.6650e-01	8.6694	18.614314	0.000171	1.710136	0.289705	-0.003421
1135	5.6700e-01	8.6560	18.588657	0.000257	2.565204	0.434557	-0.005132
1136	5.6750e-01	8.6462	18.572407	0.000162	1.624629	0.275220	-0.003250
1137	5.6800e-01	8.6389	18.562572	0.000098	0.983328	0.166580	-0.001967
1138	5.6850e-01	8.6269	18.536059	0.000265	2.650710	0.449043	-0.005303
1139	5.6900e-01	8.6182	18.523230	0.000128	1.282602	0.217279	-0.002566
1140	5.6950e-01	8.6066	18.514250	0.000090	0.897821	0.152095	-0.001796
1141	5.7000e-01	8.5962	18.477047	0.000372	3.719545	0.630108	-0.007441
1142	5.7050e-01	8.5867	18.469777	0.000073	0.726808	0.123125	-0.001454
1143	5.7100e-01	8.5754	18.435567	0.000342	3.420272	0.579410	-0.006842
1144	5.7150e-01	8.5663	18.430863	0.000047	0.470287	0.079669	-0.000941
1145	5.7200e-01	8.5559	18.414186	0.000167	1.667382	0.282462	-0.003335
1146	5.7250e-01	8.5507	18.396653	0.000175	1.752889	0.296947	-0.003507
1147	5.7300e-01	8.5376	18.375272	0.000214	2.137670	0.362131	-0.004276
1148	5.7350e-01	8.5266	18.376555	-0.000013	-0.128260	-0.021728	0.000257
1149	5.7400e-01	8.5168	18.339351	0.000372	3.719545	0.630108	-0.007441
1150	5.7450e-01	8.5077	18.322674	0.000167	1.667382	0.282462	-0.003335
1151	5.7500e-01	8.4967	18.306424	0.000162	1.624629	0.275220	-0.003250
1152	5.7550e-01	8.4882	18.297016	0.000094	0.940575	0.159338	-0.001882
1153	5.7600e-01	8.4784	18.267938	0.000291	2.907231	0.492498	-0.005816
1154	5.7650e-01	8.4677	18.248267	0.000197	1.966656	0.333161	-0.003934
1155	5.7700e-01	8.4589	18.224320	0.000239	2.394190	0.405587	-0.004789
1156	5.7750e-01	8.4454	18.223037	0.000013	0.128260	0.021728	-0.000257
1157	5.7800e-01	8.4399	18.206360	0.000167	1.667382	0.282462	-0.003335
1158	5.7850e-01	8.4290	18.170012	0.000363	3.634039	0.615623	-0.007270
1159	5.7900e-01	8.4195	18.145209	0.000248	2.479697	0.420072	-0.004960
1160	5.7950e-01	8.4082	18.127249	0.000180	1.795643	0.304190	-0.003592
1161	5.8000e-01	8.3960	18.133664	-0.000064	-0.641301	-0.108639	0.001283
1162	5.8050e-01	8.3870	18.108861	0.000248	2.479697	0.420072	-0.004960
1163	5.8100e-01	8.3777	18.092612	0.000162	1.624629	0.275220	-0.003250
1164	5.8150e-01	8.3667	18.070803	0.000218	2.180423	0.369374	-0.004362
1165	5.8200e-01	8.3582	18.051560	0.000192	1.923903	0.325918	-0.003849
1166	5.8250e-01	8.3426	18.025047	0.000265	2.650710	0.449043	-0.005303
1167	5.8300e-01	8.3356	18.025902	-0.000009	-0.085507	-0.014485	0.000171
1168	5.8350e-01	8.3252	17.986988	0.000389	3.890559	0.659079	-0.007783
1169	5.8400e-01	8.3179	17.987416	-0.000004	-0.042753	-0.007243	0.000086
1170	5.8450e-01	8.3069	17.951923	0.000355	3.548532	0.601138	-0.007099
1171	5.8500e-01	8.2977	17.943370	0.000086	0.855068	0.144852	-0.001711
1172	5.8550e-01	8.2861	17.918568	0.000248	2.479697	0.420072	-0.004960
1173	5.8600e-01	8.2776	17.896759	0.000218	2.180423	0.369374	-0.004362
1174	5.8650e-01	8.2678	17.864687	0.000321	3.206505	0.543197	-0.006414
1175	5.8700e-01	8.2550	17.846299	0.000184	1.838396	0.311433	-0.003678
1176	5.8750e-01	8.2483	17.847155	-0.000009	-0.085507	-0.014485	0.000171
1177	5.8800e-01	8.2355	17.825773	0.000214	2.137670	0.362131	-0.004276
1178	5.8850e-01	8.2272	17.808668	0.000171	1.710136	0.289705	-0.003421
1179	5.8900e-01	8.2166	17.771465	0.000372	3.719545	0.630108	-0.007441
1180	5.8950e-01	8.2074	17.770610	0.000009	0.085507	0.014485	-0.000171
1181	5.9000e-01	8.1961	17.754360	0.000162	1.624629	0.275220	-0.003250
1182	5.9050e-01	8.1854	17.733406	0.000209	2.094916	0.354888	-0.004191
1183	5.9100e-01	8.1757	17.702617	0.000308	3.078244	0.521469	-0.006158
1184	5.9150e-01	8.1689	17.689361	0.000133	1.325355	0.224521	-0.002651
1185	5.9200e-01	8.1531	17.650019	0.000393	3.933312	0.666321	-0.007868
1186	5.9250e-01	8.1458	17.660282	-0.000103	-1.026081	-0.173823	0.002053
1187	5.9300e-01	8.1360	17.631632	0.000286	2.864477	0.485256	-0.005730
1188	5.9350e-01	8.1296	17.619230	0.000124	1.239848	0.210036	-0.002480
1189	5.9400e-01	8.1155	17.588869	0.000304	3.035491	0.514226	-0.006072
1190	5.9450e-01	8.1049	17.568343	0.000205	2.052163	0.347646	-0.004105
1191	5.9500e-01	8.0975	17.549527	0.000188	1.881149	0.318675	-0.003763
1192	5.9550e-01	8.0835	17.522587	0.000269	2.693464	0.456285	-0.005388
1193	5.9600e-01	8.0771	17.510614	0.000120	1.197095	0.202793	-0.002395
1194	5.9650e-01	8.0664	17.482818	0.000278	2.778971	0.470770	-0.005559
1195	5.9700e-01	8.0585	17.470417	0.000124	1.239848	0.210036	-0.002480
1196	5.9750e-01	8.0475	17.430220	0.000402	4.018819	0.680806	-0.008039
1197	5.9800e-01	8.0341	17.415253	0.000150	1.496369	0.253492	-0.002993
1198	5.9850e-01	8.0267	17.414398	0.000009	0.085507	0.014485	-0.000171
1199	5.9900e-01	8.0157	17.382326	0.000321	3.206505	0.543197	-0.006414
1200	5.9950e-01	8.0063	17.362228	0.000201	2.009410	0.340403	-0.004020
1201	6.0000e-01	7.9974	17.348971	0.000133	1.325355	0.224521	-0.002651
1202	6.0050e-01	7.9874	17.319893	0.000291	2.907231	0.492498	-0.005816
1203	6.0100e-01	7.9761	17.317327	0.000026	0.256520	0.043456	-0.000513
1204	6.0150e-01	7.9657	17.283545	0.000338	3.377518	0.572167	-0.006756
1205	6.0200e-01	7.9602	17.245486	0.000381	3.805052	0.644593	-0.007612
1206	6.0250e-01	7.9449	17.238644	0.000068	0.684054	0.115882	-0.001368
1207	6.0300e-01	7.9370	17.224532	0.000141	1.410862	0.239006	-0.002822
1208	6.0350e-01	7.9272	17.196309	0.000282	2.821724	0.478013	-0.005645
1209	6.0400e-01	7.9187	17.176211	0.000201	2.009410	0.340403	-0.004020
1210	6.0450e-01	7.9077	17.169796	0.000064	0.641301	0.108639	-0.001283
1211	6.0500e-01	7.8952	17.129172	0.000406	4.061572	0.688049	-0.008125
1212	6.0550e-01	7.8851	17.106508	0.000227	2.265930	0.383859	-0.004533
1213	6.0600e-01	7.8766	17.111639	-0.000051	-0.513041	-0.086911	0.001026
1214	6.0650e-01	7.8674	17.088547	0.000231	2.308683	0.391102	-0.004618
1215	6.0700e-01	7.8558	17.046213	0.000423	4.232586	0.717019	-0.008467
1216	6.0750e-01	7.8461	17.053910	-0.000077	-0.769561	-0.130367	0.001539
1217	6.0800e-01	7.8357	17.017989	0.000359	3.591285	0.608380	-0.007184
1218	6.0850e-01	7.8265	16.991476	0.000265	2.650710	0.449043	-0.005303
1219	6.0900e-01	7.8149	16.967957	0.000235	2.351437	0.398344	-0.004704
1220	6.0950e-01	7.8064	16.958977	0.000090	0.897821	0.152095	-0.001796
1221	6.1000e-01	7.7939	16.937168	0.000218	2.180423	0.369374	-0.004362
1222	6.1050e-01	7.7893	16.920063	0.000171	1.710136	0.289705	-0.003421
1223	6.1100e-01	7.7765	16.886281	0.000338	3.377518	0.572167	-0.006756
1224	6.1150e-01	7.7661	16.861906	0.000244	2.436943	0.412829	-0.004875
1225	6.1200e-01	7.7551	16.849505	0.000124	1.239848	0.210036	-0.002480
1226	6.1250e-01	7.7441	16.821709	0.000278	2.778971	0.470770	-0.005559
1227	6.1300e-01	7.7386	16.799900	0.000218	2.180423	0.369374	-0.004362
1228	6.1350e-01	7.7271	16.783651	0.000162	1.624629	0.275220	-0.003250
1229	6.1400e-01	7.7173	16.759276	0.000244	2.436943	0.412829	-0.004875
1230	6.1450e-01	7.7069	16.743454	0.000158	1.581876	0.267977	-0.003164
1231	6.1500e-01	7.6978	16.699408	0.000440	4.403600	0.745990	-0.008809
1232	6.1550e-01	7.6880	16.701547	-0.000021	-0.213767	-0.036213	0.000428
1233	6.1600e-01	7.6733	16.688290	0.000133	1.325355	0.224521	-0.002651
1234	6.1650e-01	7.6678	16.659212	0.000291	2.907231	0.492498	-0.005816
1235	6.1700e-01	7.6556	16.635692	0.000235	2.351437	0.398344	-0.004704
1236	6.1750e-01	7.6447	16.616449	0.000192	1.923903	0.325918	-0.003849
1237	6.1800e-01	7.6349	16.593785	0.000227	2.265930	0.383859	-0.004533
1238	6.1850e-01	7.6254	16.566845	0.000269	2.693464	0.456285	-0.005388
1239	6.1900e-01	7.6166	16.533917	0.000329	3.292011	0.557682	-0.006585
1240	6.1950e-01	7.6050	16.508688	0.000252	2.522450	0.427315	-0.005046
1241	6.2000e-01	7.5949	16.499707	0.000090	0.897821	0.152095	-0.001796
1242	6.2050e-01	7.5856	16.487734	0.000120	1.197095	0.202793	-0.002395
1243	6.2100e-01	7.5742	16.465925	0.000218	2.180423	0.369374	-0.004362
1244	6.2150e-01	7.5677	16.429577	0.000363	3.634039	0.615623	-0.007270
1245	6.2200e-01	7.5555	16.432143	-0.000026	-0.256520	-0.043456	0.000513
1246	6.2250e-01	7.5494	16.389380	0.000428	4.275339	0.724262	-0.008553
1247	6.2300e-01	7.5354	16.392373	-0.000030	-0.299274	-0.050698	0.000599
1248	6.2350e-01	7.5244	16.359874	0.000325	3.249258	0.550439	-0.006500
1249	6.2400e-01	7.5153	16.333361	0.000265	2.650710	0.449043	-0.005303
1250	6.2450e-01	7.5049	16.324381	0.000090	0.897821	0.152095	-0.001796
1251	6.2500e-01	7.4951	16.289316	0.000351	3.505778	0.593895	-0.007013
1252	6.2550e-01	7.4872	16.274349	0.000150	1.496369	0.253492	-0.002993
1253	6.2600e-01	7.4768	16.232014	0.000423	4.232586	0.717019	-0.008467
1254	6.2650e-01	7.4695	16.215337	0.000167	1.667382	0.282462	-0.003335
1255	6.2700e-01	7.4579	16.183265	0.000321	3.206505	0.543197	-0.006414
1256	6.2750e-01	7.4463	16.161883	0.000214	2.137670	0.362131	-0.004276
1257	6.2800e-01	7.4371	16.143923	0.000180	1.795643	0.304190	-0.003592
1258	6.2850e-01	7.4280	16.127673	0.000162	1.624629	0.275220	-0.003250
1259	6.2900e-01	7.4152	16.116128	0.000115	1.154342	0.195551	-0.002309
1260	6.2950e-01	7.4060	16.078069	0.000381	3.805052	0.644593	-0.007612
1261	6.3000e-01	7.3959	16.067806	0.000103	1.026081	0.173823	-0.002053
1262	6.3050e-01	7.3868	16.041721	0.000261	2.607957	0.441800	-0.005217
1263	6.3100e-01	7.3767	16.013497	0.000282	2.821724	0.478013	-0.005645
1264	6.3150e-01	7.3669	16.009221	0.000043	0.427534	0.072426	-0.000855
1265	6.3200e-01	7.3547	15.972445	0.000368	3.676792	0.622865	-0.007355
1266	6.3250e-01	7.3441	15.948498	0.000239	2.394190	0.405587	-0.004789
1267	6.3300e-01	7.3383	15.916427	0.000321	3.206505	0.543197	-0.006414
1268	6.3350e-01	7.3254	15.915999	0.000004	0.042753	0.007243	-0.000086
1269	6.3400e-01	7.3175	15.880078	0.000359	3.591285	0.608380	-0.007184
1270	6.3450e-01	7.3004	15.847579	0.000325	3.249258	0.550439	-0.006500
1271	6.3500e-01	7.2974	15.838599	0.000090	0.897821	0.152095	-0.001796
1272	6.3550e-01	7.2849	15.821494	0.000171	1.710136	0.289705	-0.003421
1273	6.3600e-01	7.2760	15.794981	0.000265	2.650710	0.449043	-0.005303
1274	6.3650e-01	7.2699	15.775738	0.000192	1.923903	0.325918	-0.003849
1275	6.3700e-01	7.2592	15.748370	0.000274	2.736217	0.463528	-0.005474
1276	6.3750e-01	7.2455	15.722712	0.000257	2.565204	0.434557	-0.005132
1277	6.3800e-01	7.2379	15.707745	0.000150	1.496369	0.253492	-0.002993
1278	6.3850e-01	7.2266	15.674818	0.000329	3.292011	0.557682	-0.006585
1279	6.3900e-01	7.2168	15.656430	0.000184	1.838396	0.311433	-0.003678
1280	6.3950e-01	7.2052	15.628207	0.000282	2.821724	0.478013	-0.005645
1281	6.4000e-01	7.1960	15.609819	0.000184	1.838396	0.311433	-0.003678
1282	6.4050e-01	7.1881	15.582024	0.000278	2.778971	0.470770	-0.005559
1283	6.4100e-01	7.1732	15.566629	0.000154	1.539122	0.260734	-0.003079
1284	6.4150e-01	7.1622	15.545675	0.000209	2.094916	0.354888	-0.004191
1285	6.4200e-01	7.1552	15.521728	0.000239	2.394190	0.405587	-0.004789
1286	6.4250e-01	7.1484	15.487518	0.000342	3.420272	0.579410	-0.006842
1287	6.4300e-01	7.1359	15.473407	0.000141	1.410862	0.239006	-0.002822
1288	6.4350e-01	7.1234	15.434920	0.000385	3.847805	0.651836	-0.007697
1289	6.4400e-01	7.1167	15.431072	0.000038	0.384781	0.065184	-0.000770
1290	6.4450e-01	7.1057	15.417815	0.000133	1.325355	0.224521	-0.002651
1291	6.4500e-01	7.0978	15.377619	0.000402	4.018819	0.680806	-0.008039
1292	6.4550e-01	7.0862	15.358803	0.000188	1.881149	0.318675	-0.003763
1293	6.4600e-01	7.0740	15.340843	0.000180	1.795643	0.304190	-0.003592
1294	6.4650e-01	7.0685	15.303212	0.000376	3.762299	0.637351	-0.007526
1295	6.4700e-01	7.0544	15.281403	0.000218	2.180423	0.369374	-0.004362
1296	6.4750e-01	7.0483	15.265153	0.000162	1.624629	0.275220	-0.003250
1297	6.4800e-01	7.0361	15.240779	0.000244	2.436943	0.412829	-0.004875
1298	6.4850e-01	7.0273	15.219397	0.000214	2.137670	0.362131	-0.004276
1299	6.4900e-01	7.0197	15.188181	0.000312	3.120998	0.528711	-0.006243
1300	6.4950e-01	7.0044	15.159957	0.000282	2.821724	0.478013	-0.005645
1301	6.5000e-01	6.9984	15.134728	0.000252	2.522450	0.427315	-0.005046
1302	6.5050e-01	6.9861	15.121471	0.000133	1.325355	0.224521	-0.002651
1303	6.5100e-01	6.9769	15.103511	0.000180	1.795643	0.304190	-0.003592
1304	6.5150e-01	6.9659	15.075715	0.000278	2.778971	0.470770	-0.005559
1305	6.5200e-01	6.9568	15.044071	0.000316	3.163751	0.535954	-0.006329
1306	6.5250e-01	6.9482	15.018413	0.000257	2.565204	0.434557	-0.005132
1307	6.5300e-01	6.9354	14.996605	0.000218	2.180423	0.369374	-0.004362
1308	6.5350e-01	6.9264	14.987624	0.000090	0.897821	0.152095	-0.001796
1309	6.5400e-01	6.9177	14.941869	0.000457	4.574613	0.774960	-0.009151
1310	6.5450e-01	6.9055	14.908514	0.000333	3.334765	0.564924	-0.006671
1311	6.5500e-01	6.8964	14.902527	0.000060	0.598548	0.101397	-0.001197
1312	6.5550e-01	6.8872	14.892264	0.000103	1.026081	0.173823	-0.002053
1313	6.5600e-01	6.8811	14.858054	0.000342	3.420272	0.579410	-0.006842
1314	6.5650e-01	6.8652	14.834535	0.000235	2.351437	0.398344	-0.004704
1315	6.5700e-01	6.8542	14.812298	0.000222	2.223177	0.376616	-0.004447
1316	6.5750e-01	6.8475	14.784502	0.000278	2.778971	0.470770	-0.005559
1317	6.5800e-01	6.8372	14.753286	0.000312	3.120998	0.528711	-0.006243
1318	6.5850e-01	6.8246	14.753286	-0.000000	-0.000000	-0.000000	0.000000
1319	6.5900e-01	6.8188	14.707530	0.000457	4.574613	0.774960	-0.009151
1320	6.5950e-01	6.8054	14.695556	0.000120	1.197095	0.202793	-0.002395
1321	6.6000e-01	6.7938	14.670754	0.000248	2.479697	0.420072	-0.004960
1322	6.6050e-01	6.7883	14.649800	0.000209	2.094916	0.354888	-0.004191
1323	6.6100e-01	6.7783	14.605755	0.000440	4.403600	0.745990	-0.008809
1324	6.6150e-01	6.7693	14.583519	0.000222	2.223177	0.376616	-0.004447
1325	6.6200e-01	6.7584	14.566841	0.000167	1.667382	0.282462	-0.003335
1326	6.6250e-01	6.7480	14.534769	0.000321	3.206505	0.543197	-0.006414
1327	6.6300e-01	6.7365	14.522368	0.000124	1.239848	0.210036	-0.002480
1328	6.6350e-01	6.7273	14.500987	0.000214	2.137670	0.362131	-0.004276
1329	6.6400e-01	6.7172	14.462073	0.000389	3.890559	0.659079	-0.007783
1330	6.6450e-01	6.7067	14.442830	0.000192	1.923903	0.325918	-0.003849
1331	6.6500e-01	6.6995	14.416317	0.000265	2.650710	0.449043	-0.005303
1332	6.6550e-01	6.6852	14.391515	0.000248	2.479697	0.420072	-0.004960
1333	6.6600e-01	6.6766	14.378686	0.000128	1.282602	0.217279	-0.002566
1334	6.6650e-01	6.6666	14.356022	0.000227	2.265930	0.383859	-0.004533
1335	6.6700e-01	6.6577	14.324805	0.000312	3.120998	0.528711	-0.006243
1336	6.6750e-01	6.6479	14.297865	0.000269	2.693464	0.456285	-0.005388
1337	6.6800e-01	6.6382	14.272207	0.000257	2.565204	0.434557	-0.005132
1338	6.6850e-01	6.6263	14.252964	0.000192	1.923903	0.325918	-0.003849
1339	6.6900e-01	6.6156	14.238425	0.000145	1.453615	0.246249	-0.002908
1340	6.6950e-01	6.6071	14.203360	0.000351	3.505778	0.593895	-0.007013
1341	6.7000e-01	6.5942	14.177275	0.000261	2.607957	0.441800	-0.005217
1342	6.7050e-01	6.5851	14.171288	0.000060	0.598548	0.101397	-0.001197
1343	6.7100e-01	6.5765	14.125532	0.000457	4.574613	0.774960	-0.009151
1344	6.7150e-01	6.5674	14.110137	0.000154	1.539122	0.260734	-0.003079
1345	6.7200e-01	6.5553	14.072934	0.000372	3.719545	0.630108	-0.007441
1346	6.7250e-01	6.5454	14.057967	0.000150	1.496369	0.253492	-0.002993
1347	6.7300e-01	6.5376	14.039579	0.000184	1.838396	0.311433	-0.003678
1348	6.7350e-01	6.5274	14.000238	0.000393	3.933312	0.666321	-0.007868
1349	6.7400e-01	6.5170	13.973297	0.000269	2.693464	0.456285	-0.005388
1350	6.7450e-01	6.5057	13.948067	0.000252	2.522450	0.427315	-0.005046
1351	6.7500e-01	6.4957	13.931390	0.000167	1.667382	0.282462	-0.003335
1352	6.7550e-01	6.4832	13.921127	0.000103	1.026081	0.173823	-0.002053
1353	6.7600e-01	6.4771	13.883924	0.000372	3.719545	0.630108	-0.007441
1354	6.7650e-01	6.4709	13.853135	0.000308	3.078244	0.521469	-0.006158
1355	6.7700e-01	6.4606	13.824911	0.000282	2.821724	0.478013	-0.005645
1356	6.7750e-01	6.4465	13.799254	0.000257	2.565204	0.434557	-0.005132
1357	6.7800e-01	6.4343	13.776162	0.000231	2.308683	0.391102	-0.004618
1358	6.7850e-01	6.4288	13.754353	0.000218	2.180423	0.369374	-0.004362
1359	6.7900e-01	6.4142	13.731261	0.000231	2.308683	0.391102	-0.004618
1360	6.7950e-01	6.4053	13.715012	0.000162	1.624629	0.275220	-0.003250
1361	6.8000e-01	6.3934	13.682940	0.000321	3.206505	0.543197	-0.006414
1362	6.8050e-01	6.3873	13.648302	0.000346	3.463025	0.586652	-0.006928
1363	6.8100e-01	6.3770	13.642743	0.000056	0.555794	0.094154	-0.001112
1364	6.8150e-01	6.3669	13.597842	0.000449	4.489106	0.760475	-0.008980
1365	6.8200e-01	6.3562	13.587579	0.000103	1.026081	0.173823	-0.002053
1366	6.8250e-01	6.3452	13.563632	0.000239	2.394190	0.405587	-0.004789
1367	6.8300e-01	6.3379	13.531560	0.000321	3.206505	0.543197	-0.006414
1368	6.8350e-01	6.3232	13.502054	0.000295	2.949984	0.499741	-0.005901
1369	6.8400e-01	6.3177	13.486660	0.000154	1.539122	0.260734	-0.003079
1370	6.8450e-01	6.3062	13.437055	0.000496	4.959394	0.840144	-0.009921
1371	6.8500e-01	6.2952	13.448601	-0.000115	-1.154342	-0.195551	0.002309
1372	6.8550e-01	6.2872	13.398997	0.000496	4.959394	0.840144	-0.009921
1373	6.8600e-01	6.2788	13.370773	0.000282	2.821724	0.478013	-0.005645
1374	6.8650e-01	6.2662	13.345116	0.000257	2.565204	0.434557	-0.005132
1375	6.8700e-01	6.2573	13.318175	0.000269	2.693464	0.456285	-0.005388
1376	6.8750e-01	6.2476	13.291235	0.000269	2.693464	0.456285	-0.005388
1377	6.8800e-01	6.2360	13.275840	0.000154	1.539122	0.260734	-0.003079
1378	6.8850e-01	6.2274	13.249755	0.000261	2.607957	0.441800	-0.005217
1379	6.8900e-01	6.2183	13.218966	0.000308	3.078244	0.521469	-0.006158
1380	6.8950e-01	6.2054	13.194592	0.000244	2.436943	0.412829	-0.004875
1381	6.9000e-01	6.1993	13.186894	0.000077	0.769561	0.130367	-0.001539
1382	6.9050e-01	6.1865	13.136007	0.000509	5.087654	0.861872	-0.010177
1383	6.9100e-01	6.1777	13.110349	0.000257	2.565204	0.434557	-0.005132
1384	6.9150e-01	6.1682	13.097948	0.000124	1.239848	0.210036	-0.002480
1385	6.9200e-01	6.1584	13.047489	0.000504	5.044901	0.854629	-0.010092
1386	6.9250e-01	6.1456	13.037653	0.000098	0.983328	0.166580	-0.001967
1387	6.9300e-01	6.1365	13.020121	0.000175	1.752889	0.296947	-0.003507
1388	6.9350e-01	6.1267	12.985483	0.000346	3.463025	0.586652	-0.006928
1389	6.9400e-01	6.1152	12.970944	0.000145	1.453615	0.246249	-0.002908
1390	6.9450e-01	6.1049	12.929036	0.000419	4.189833	0.709777	-0.008381
1391	6.9500e-01	6.0962	12.902096	0.000269	2.693464	0.456285	-0.005388
1392	6.9550e-01	6.0889	12.884563	0.000175	1.752889	0.296947	-0.003507
1393	6.9600e-01	6.0757	12.854202	0.000304	3.035491	0.514226	-0.006072
1394	6.9650e-01	6.0657	12.834104	0.000201	2.009410	0.340403	-0.004020
1395	6.9700e-01	6.0542	12.804170	0.000299	2.992738	0.506983	-0.005987
1396	6.9750e-01	6.0455	12.791341	0.000128	1.282602	0.217279	-0.002566
1397	6.9800e-01	6.0376	12.752000	0.000393	3.933312	0.666321	-0.007868
1398	6.9850e-01	6.0248	12.737033	0.000150	1.496369	0.253492	-0.002993
1399	6.9900e-01	6.0162	12.701112	0.000359	3.591285	0.608380	-0.007184
1400	6.9950e-01	6.0089	12.667757	0.000333	3.334765	0.564924	-0.006671
1401	7.0000e-01	5.9964	12.649369	0.000184	1.838396	0.311433	-0.003678
1402	7.0050e-01	5.9863	12.611311	0.000381	3.805052	0.644593	-0.007612
1403	7.0100e-01	5.9778	12.586081	0.000252	2.522450	0.427315	-0.005046
1404	7.0150e-01	5.9650	12.568548	0.000175	1.752889	0.296947	-0.003507
1405	7.0200e-01	5.9579	12.535621	0.000329	3.292011	0.557682	-0.006585
1406	7.0250e-01	5.9436	12.524075	0.000115	1.154342	0.195551	-0.002309
1407	7.0300e-01	5.9348	12.497135	0.000269	2.693464	0.456285	-0.005388
1408	7.0350e-01	5.9271	12.468484	0.000286	2.864477	0.485256	-0.005730
1409	7.0400e-01	5.9180	12.435984	0.000325	3.249258	0.550439	-0.006500
1410	7.0450e-01	5.9048	12.407334	0.000286	2.864477	0.485256	-0.005730
1411	7.0500e-01	5.8948	12.379110	0.000282	2.821724	0.478013	-0.005645
1412	7.0550e-01	5.8873	12.364999	0.000141	1.410862	0.239006	-0.002822
1413	7.0600e-01	5.8746	12.321381	0.000436	4.360846	0.738747	-0.008724
1414	7.0650e-01	5.8661	12.311973	0.000094	0.940575	0.159338	-0.001882
1415	7.0700e-01	5.8536	12.284605	0.000274	2.736217	0.463528	-0.005474
1416	7.0750e-01	5.8453	12.260230	0.000244	2.436943	0.412829	-0.004875
1417	7.0800e-01	5.8356	12.220461	0.000398	3.976066	0.673564	-0.007954
1418	7.0850e-01	5.8264	12.202929	0.000175	1.752889	0.296947	-0.003507
1419	7.0900e-01	5.8150	12.179837	0.000231	2.308683	0.391102	-0.004618
1420	7.0950e-01	5.8063	12.122963	0.000569	5.686201	0.963269	-0.011375
1421	7.1000e-01	5.7977	12.116548	0.000064	0.641301	0.108639	-0.001283
1422	7.1050e-01	5.7843	12.089180	0.000274	2.736217	0.463528	-0.005474
1423	7.1100e-01	5.7770	12.062668	0.000265	2.650710	0.449043	-0.005303
1424	7.1150e-01	5.7654	12.035727	0.000269	2.693464	0.456285	-0.005388
1425	7.1200e-01	5.7562	12.006649	0.000291	2.907231	0.492498	-0.005816
1426	7.1250e-01	5.7452	11.985695	0.000209	2.094916	0.354888	-0.004191
1427	7.1300e-01	5.7361	11.963886	0.000218	2.180423	0.369374	-0.004362
1428	7.1350e-01	5.7245	11.928821	0.000351	3.505778	0.593895	-0.007013
1429	7.1400e-01	5.7172	11.898459	0.000304	3.035491	0.514226	-0.006072
1430	7.1450e-01	5.7050	11.868526	0.000299	2.992738	0.506983	-0.005987
1431	7.1500e-01	5.6976	11.841585	0.000269	2.693464	0.456285	-0.005388
1432	7.1550e-01	5.6860	11.816355	0.000252	2.522450	0.427315	-0.005046
1433	7.1600e-01	5.6769	11.779580	0.000368	3.676792	0.622865	-0.007355
1434	7.1650e-01	5.6665	11.759909	0.000197	1.966656	0.333161	-0.003934
1435	7.1700e-01	5.6558	11.742376	0.000175	1.752889	0.296947	-0.003507
1436	7.1750e-01	5.6436	11.729975	0.000124	1.239848	0.210036	-0.002480
1437	7.1800e-01	5.6351	11.684219	0.000457	4.574613	0.774960	-0.009151
1438	7.1850e-01	5.6235	11.661127	0.000231	2.308683	0.391102	-0.004618
1439	7.1900e-01	5.6195	11.617082	0.000440	4.403600	0.745990	-0.008809
1440	7.1950e-01	5.6061	11.602970	0.000141	1.410862	0.239006	-0.002822
1441	7.2000e-01	5.5972	11.581162	0.000218	2.180423	0.369374	-0.004362
1442	7.2050e-01	5.5867	11.544813	0.000363	3.634039	0.615623	-0.007270
1443	7.2100e-01	5.5792	11.511886	0.000329	3.292011	0.557682	-0.006585
1444	7.2150e-01	5.5695	11.481525	0.000304	3.035491	0.514226	-0.006072
1445	7.2200e-01	5.5573	11.470834	0.000107	1.068835	0.181066	-0.002138
1446	7.2250e-01	5.5458	11.434058	0.000368	3.676792	0.622865	-0.007355
1447	7.2300e-01	5.5360	11.409684	0.000244	2.436943	0.412829	-0.004875
1448	7.2350e-01	5.5246	11.381460	0.000282	2.821724	0.478013	-0.005645
1449	7.2400e-01	5.5161	11.352382	0.000291	2.907231	0.492498	-0.005816
1450	7.2450e-01	5.5048	11.315606	0.000368	3.676792	0.622865	-0.007355
1451	7.2500e-01	5.4974	11.286528	0.000291	2.907231	0.492498	-0.005816
1452	7.2550e-01	5.4874	11.276265	0.000103	1.026081	0.173823	-0.002053
1453	7.2600e-01	5.4761	11.234357	0.000419	4.189833	0.709777	-0.008381
1454	7.2650e-01	5.4657	11.215114	0.000192	1.923903	0.325918	-0.003849
1455	7.2700e-01	5.4559	11.184325	0.000308	3.078244	0.521469	-0.006158
1456	7.2750e-01	5.4486	11.171496	0.000128	1.282602	0.217279	-0.002566
1457	7.2800e-01	5.4388	11.136431	0.000351	3.505778	0.593895	-0.007013
1458	7.2850e-01	5.4272	11.097517	0.000389	3.890559	0.659079	-0.007783
1459	7.2900e-01	5.4176	11.071005	0.000265	2.650710	0.449043	-0.005303
1460	7.2950e-01	5.4060	11.057321	0.000137	1.368109	0.231764	-0.002737
1461	7.3000e-01	5.3963	11.020545	0.000368	3.676792	0.622865	-0.007355
1462	7.3050e-01	5.3854	10.994032	0.000265	2.650710	0.449043	-0.005303
1463	7.3100e-01	5.3760	10.959822	0.000342	3.420272	0.579410	-0.006842
1464	7.3150e-01	5.3687	10.939724	0.000201	2.009410	0.340403	-0.004020
1465	7.3200e-01	5.3558	10.923474	0.000162	1.624629	0.275220	-0.003250
1466	7.3250e-01	5.3455	10.888409	0.000351	3.505778	0.593895	-0.007013
1467	7.3300e-01	5.3363	10.855909	0.000325	3.249258	0.550439	-0.006500
1468	7.3350e-01	5.3268	10.818278	0.000376	3.762299	0.637351	-0.007526
1469	7.3400e-01	5.3149	10.793048	0.000252	2.522450	0.427315	-0.005046
1470	7.3450e-01	5.3073	10.763114	0.000299	2.992738	0.506983	-0.005987
1471	7.3500e-01	5.2963	10.730615	0.000325	3.249258	0.550439	-0.006500
1472	7.3550e-01	5.2856	10.717358	0.000133	1.325355	0.224521	-0.002651
1473	7.3600e-01	5.2734	10.679300	0.000381	3.805052	0.644593	-0.007612
1474	7.3650e-01	5.2643	10.658346	0.000209	2.094916	0.354888	-0.004191
1475	7.3700e-01	5.2564	10.611307	0.000470	4.702873	0.796688	-0.009408
1476	7.3750e-01	5.2441	10.603182	0.000081	0.812314	0.137610	-0.001625
1477	7.3800e-01	5.2371	10.559992	0.000432	4.318093	0.731505	-0.008638
1478	7.3850e-01	5.2255	10.545453	0.000145	1.453615	0.246249	-0.002908
1479	7.3900e-01	5.2176	10.511671	0.000338	3.377518	0.572167	-0.006756
1480	7.3950e-01	5.2051	10.486013	0.000257	2.565204	0.434557	-0.005132
1481	7.4000e-01	5.1984	10.458218	0.000278	2.778971	0.470770	-0.005559
1482	7.4050e-01	5.1849	10.429567	0.000286	2.864477	0.485256	-0.005730
1483	7.4100e-01	5.1746	10.404764	0.000248	2.479697	0.420072	-0.004960
1484	7.4150e-01	5.1654	10.370982	0.000338	3.377518	0.572167	-0.006756
1485	7.4200e-01	5.1544	10.342759	0.000282	2.821724	0.478013	-0.005645
1486	7.4250e-01	5.1471	10.318384	0.000244	2.436943	0.412829	-0.004875
1487	7.4300e-01	5.1364	10.293154	0.000252	2.522450	0.427315	-0.005046
1488	7.4350e-01	5.1273	10.258944	0.000342	3.420272	0.579410	-0.006842
1489	7.4400e-01	5.1196	10.227728	0.000312	3.120998	0.528711	-0.006243
1490	7.4450e-01	5.1050	10.196083	0.000316	3.163751	0.535954	-0.006329
1491	7.4500e-01	5.0990	10.175985	0.000201	2.009410	0.340403	-0.004020
1492	7.4550e-01	5.0854	10.145623	0.000304	3.035491	0.514226	-0.006072
1493	7.4600e-01	5.0739	10.116545	0.000291	2.907231	0.492498	-0.005816
1494	7.4650e-01	5.0653	10.076776	0.000398	3.976066	0.673564	-0.007954
1495	7.4700e-01	5.0574	10.049835	0.000269	2.693464	0.456285	-0.005388
1496	7.4750e-01	5.0458	10.023750	0.000261	2.607957	0.441800	-0.005217
1497	7.4800e-01	5.0354	10.007928	0.000158	1.581876	0.267977	-0.003164
1498	7.4850e-01	5.0269	9.962600	0.000453	4.531860	0.767718	-0.009066
1499	7.4900e-01	5.0201	9.930528	0.000321	3.206505	0.543197	-0.006414
1500	7.4950e-01	5.0049	9.906581	0.000239	2.394190	0.405587	-0.004789
1501	7.5000e-01	4.9985	9.876220	0.000304	3.035491	0.514226	-0.006072
1502	7.5050e-01	4.9847	9.847996	0.000282	2.821724	0.478013	-0.005645
1503	7.5100e-01	4.9725	9.826615	0.000214	2.137670	0.362131	-0.004276
1504	7.5150e-01	4.9683	9.785135	0.000415	4.147079	0.702534	-0.008296
1505	7.5200e-01	4.9585	9.784708	0.000004	0.042753	0.007243	-0.000086
1506	7.5250e-01	4.9472	9.733820	0.000509	5.087654	0.861872	-0.010177
1507	7.5300e-01	4.9353	9.710729	0.000231	2.308683	0.391102	-0.004618
1508	7.5350e-01	4.9261	9.666683	0.000440	4.403600	0.745990	-0.008809
1509	7.5400e-01	4.9155	9.648295	0.000184	1.838396	0.311433	-0.003678
1510	7.5450e-01	4.9072	9.606388	0.000419	4.189833	0.709777	-0.008381
1511	7.5500e-01	4.9001	9.579875	0.000265	2.650710	0.449043	-0.005303
1512	7.5550e-01	4.8907	9.549941	0.000299	2.992738	0.506983	-0.005987
1513	7.5600e-01	4.8787	9.527277	0.000227	2.265930	0.383859	-0.004533
1514	7.5650e-01	4.8672	9.502903	0.000244	2.436943	0.412829	-0.004875
1515	7.5700e-01	4.8566	9.490074	0.000128	1.282602	0.217279	-0.002566
1516	7.5750e-01	4.8450	9.440042	0.000500	5.002147	0.847387	-0.010006
1517	7.5800e-01	4.8349	9.413101	0.000269	2.693464	0.456285	-0.005388
1518	7.5850e-01	4.8273	9.367345	0.000457	4.574613	0.774960	-0.009151
1519	7.5900e-01	4.8158	9.351951	0.000154	1.539122	0.260734	-0.003079
1520	7.5950e-01	4.8055	9.324155	0.000278	2.778971	0.470770	-0.005559
1521	7.6000e-01	4.7943	9.291656	0.000325	3.249258	0.550439	-0.006500
1522	7.6050e-01	4.7853	9.257446	0.000342	3.420272	0.579410	-0.006842
1523	7.6100e-01	4.7784	9.246755	0.000107	1.068835	0.181066	-0.002138
1524	7.6150e-01	4.7717	9.221098	0.000257	2.565204	0.434557	-0.005132
1525	7.6200e-01	4.7548	9.169355	0.000517	5.173161	0.876357	-0.010349
1526	7.6250e-01	4.7470	9.147546	0.000218	2.180423	0.369374	-0.004362
1527	7.6300e-01	4.7357	9.117185	0.000304	3.035491	0.514226	-0.006072
1528	7.6350e-01	4.7255	9.074850	0.000423	4.232586	0.717019	-0.008467
1529	7.6400e-01	4.7174	9.047909	0.000269	2.693464	0.456285	-0.005388
1530	7.6450e-01	4.7076	9.015837	0.000321	3.206505	0.543197	-0.006414
1531	7.6500e-01	4.6945	8.979917	0.000359	3.591285	0.608380	-0.007184
1532	7.6550e-01	4.6838	8.972647	0.000073	0.726808	0.123125	-0.001454
1533	7.6600e-01	4.6809	8.938010	0.000346	3.463025	0.586652	-0.006928
1534	7.6650e-01	4.6645	8.906793	0.000312	3.120998	0.528711	-0.006243
1535	7.6700e-01	4.6570	8.850774	0.000560	5.600695	0.948783	-0.011204
1536	7.6750e-01	4.6460	8.840939	0.000098	0.983328	0.166580	-0.001967
1537	7.6800e-01	4.6344	8.820840	0.000201	2.009410	0.340403	-0.004020
1538	7.6850e-01	4.6234	8.778933	0.000419	4.189833	0.709777	-0.008381
1539	7.6900e-01	4.6149	8.763539	0.000154	1.539122	0.260734	-0.003079
1540	7.6950e-01	4.6082	8.719066	0.000445	4.446353	0.753233	-0.008895
1541	7.7000e-01	4.5942	8.695119	0.000239	2.394190	0.405587	-0.004789
1542	7.7050e-01	4.5877	8.669889	0.000252	2.522450	0.427315	-0.005046
1543	7.7100e-01	4.5753	8.613870	0.000560	5.600695	0.948783	-0.011204
1544	7.7150e-01	4.5694	8.606600	0.000073	0.726808	0.123125	-0.001454
1545	7.7200e-01	4.5569	8.572818	0.000338	3.377518	0.572167	-0.006756
1546	7.7250e-01	4.5477	8.531766	0.000410	4.104326	0.695292	-0.008210
1547	7.7300e-01	4.5374	8.513805	0.000180	1.795643	0.304190	-0.003592
1548	7.7350e-01	4.5271	8.477457	0.000363	3.634039	0.615623	-0.007270
1549	7.7400e-01	4.5197	8.440681	0.000368	3.676792	0.622865	-0.007355
1550	7.7450e-01	4.5074	8.409037	0.000316	3.163751	0.535954	-0.006329
1551	7.7500e-01	4.4971	8.381669	0.000274	2.736217	0.463528	-0.005474
1552	7.7550e-01	4.4858	8.352591	0.000291	2.907231	0.492498	-0.005816
1553	7.7600e-01	4.4757	8.327361	0.000252	2.522450	0.427315	-0.005046
1554	7.7650e-01	4.4666	8.294434	0.000329	3.292011	0.557682	-0.006585
1555	7.7700e-01	4.4574	8.260224	0.000342	3.420272	0.579410	-0.006842
1556	7.7750e-01	4.4475	8.229007	0.000312	3.120998	0.528711	-0.006243
1557	7.7800e-01	4.4363	8.201639	0.000274	2.736217	0.463528	-0.005474
1558	7.7850e-01	4.4284	8.175554	0.000261	2.607957	0.441800	-0.005217
1559	7.7900e-01	4.4183	8.144765	0.000308	3.078244	0.521469	-0.006158
1560	7.7950e-01	4.4058	8.113121	0.000316	3.163751	0.535954	-0.006329
1561	7.8000e-01	4.3967	8.071641	0.000415	4.147079	0.702534	-0.008296
1562	7.8050e-01	4.3845	8.048549	0.000231	2.308683	0.391102	-0.004618
1563	7.8100e-01	4.3762	8.011773	0.000368	3.676792	0.622865	-0.007355
1564	7.8150e-01	4.3668	7.986543	0.000252	2.522450	0.427315	-0.005046
1565	7.8200e-01	4.3567	7.937794	0.000487	4.873887	0.825659	-0.009750
1566	7.8250e-01	4.3489	7.929242	0.000086	0.855068	0.144852	-0.001711
1567	7.8300e-01	4.3384	7.879637	0.000496	4.959394	0.840144	-0.009921
1568	7.8350e-01	4.3262	7.856973	0.000227	2.265930	0.383859	-0.004533
1569	7.8400e-01	4.3170	7.834309	0.000227	2.265930	0.383859	-0.004533
1570	7.8450e-01	4.3054	7.795395	0.000389	3.890559	0.659079	-0.007783
1571	7.8500e-01	4.2954	7.752632	0.000428	4.275339	0.724262	-0.008553
1572	7.8550e-01	4.2853	7.729113	0.000235	2.351437	0.398344	-0.004704
1573	7.8600e-01	4.2773	7.697896	0.000312	3.120998	0.528711	-0.006243
1574	7.8650e-01	4.2690	7.668390	0.000295	2.949984	0.499741	-0.005901
1575	7.8700e-01	4.2563	7.632042	0.000363	3.634039	0.615623	-0.007270
1576	7.8750e-01	4.2458	7.616648	0.000154	1.539122	0.260734	-0.003079
1577	7.8800e-01	4.2358	7.572602	0.000440	4.403600	0.745990	-0.008809
1578	7.8850e-01	4.2276	7.553787	0.000188	1.881149	0.318675	-0.003763
1579	7.8900e-01	4.2146	7.514018	0.000398	3.976066	0.673564	-0.007954
1580	7.8950e-01	4.2053	7.497768	0.000162	1.624629	0.275220	-0.003250
1581	7.9000e-01	4.1963	7.452439	0.000453	4.531860	0.767718	-0.009066
1582	7.9050e-01	4.1869	7.410960	0.000415	4.147079	0.702534	-0.008296
1583	7.9100e-01	4.1772	7.398986	0.000120	1.197095	0.202793	-0.002395
1584	7.9150e-01	4.1705	7.360500	0.000385	3.847805	0.651836	-0.007697
1585	7.9200e-01	4.1547	7.320303	0.000402	4.018819	0.680806	-0.008039
1586	7.9250e-01	4.1457	7.301488	0.000188	1.881149	0.318675	-0.003763
1587	7.9300e-01	4.1360	7.268133	0.000333	3.334765	0.564924	-0.006671
1588	7.9350e-01	4.1248	7.236916	0.000312	3.120998	0.528711	-0.006243
1589	7.9400e-01	4.1150	7.206555	0.000304	3.035491	0.514226	-0.006072
1590	7.9450e-01	4.1040	7.165931	0.000406	4.061572	0.688049	-0.008125
1591	7.9500e-01	4.0955	7.146687	0.000192	1.923903	0.325918	-0.003849
1592	7.9550e-01	4.0845	7.110767	0.000359	3.591285	0.608380	-0.007184
1593	7.9600e-01	4.0761	7.073563	0.000372	3.719545	0.630108	-0.007441
1594	7.9650e-01	4.0656	7.039781	0.000338	3.377518	0.572167	-0.006756
1595	7.9700e-01	4.0527	7.012841	0.000269	2.693464	0.456285	-0.005388
1596	7.9750e-01	4.0462	6.970078	0.000428	4.275339	0.724262	-0.008553
1597	7.9800e-01	4.0338	6.937579	0.000325	3.249258	0.550439	-0.006500
1598	7.9850e-01	4.0247	6.905507	0.000321	3.206505	0.543197	-0.006414
1599	7.9900e-01	4.0161	6.880704	0.000248	2.479697	0.420072	-0.004960
1600	7.9950e-01	4.0067	6.841791	0.000389	3.890559	0.659079	-0.007783
1601	8.0000e-01	3.9957	6.817416	0.000244	2.436943	0.412829	-0.004875
1602	8.0050e-01	3.9856	6.777219	0.000402	4.018819	0.680806	-0.008039
1603	8.0100e-01	3.9743	6.752417	0.000248	2.479697	0.420072	-0.004960
1604	8.0150e-01	3.9673	6.724621	0.000278	2.778971	0.470770	-0.005559
1605	8.0200e-01	3.9566	6.672451	0.000522	5.215914	0.883600	-0.010434
1606	8.0250e-01	3.9474	6.654918	0.000175	1.752889	0.296947	-0.003507
1607	8.0300e-01	3.9343	6.625840	0.000291	2.907231	0.492498	-0.005816
1608	8.0350e-01	3.9276	6.598899	0.000269	2.693464	0.456285	-0.005388
1609	8.0400e-01	3.9185	6.569393	0.000295	2.949984	0.499741	-0.005901
1610	8.0450e-01	3.9066	6.519789	0.000496	4.959394	0.840144	-0.009921
1611	8.0500e-01	3.8950	6.479164	0.000406	4.061572	0.688049	-0.008125
1612	8.0550e-01	3.8861	6.454362	0.000248	2.479697	0.420072	-0.004960
1613	8.0600e-01	3.8770	6.435547	0.000188	1.881149	0.318675	-0.003763
1614	8.0650e-01	3.8663	6.392784	0.000428	4.275339	0.724262	-0.008553
1615	8.0700e-01	3.8551	6.360712	0.000321	3.206505	0.543197	-0.006414
1616	8.0750e-01	3.8446	6.323509	0.000372	3.719545	0.630108	-0.007441
1617	8.0800e-01	3.8342	6.293575	0.000299	2.992738	0.506983	-0.005987
1618	8.0850e-01	3.8248	6.276042	0.000175	1.752889	0.296947	-0.003507
1619	8.0900e-01	3.8162	6.231142	0.000449	4.489106	0.760475	-0.008980
1620	8.0950e-01	3.8049	6.191373	0.000398	3.976066	0.673564	-0.007954
1621	8.1000e-01	3.7976	6.164860	0.000265	2.650710	0.449043	-0.005303
1622	8.1050e-01	3.7848	6.131505	0.000333	3.334765	0.564924	-0.006671
1623	8.1100e-01	3.7741	6.113545	0.000180	1.795643	0.304190	-0.003592
1624	8.1150e-01	3.7662	6.063085	0.000504	5.044901	0.854629	-0.010092
1625	8.1200e-01	3.7570	6.038710	0.000244	2.436943	0.412829	-0.004875
1626	8.1250e-01	3.7464	6.002790	0.000359	3.591285	0.608380	-0.007184
1627	8.1300e-01	3.7354	5.960455	0.000423	4.232586	0.717019	-0.008467
1628	8.1350e-01	3.7283	5.923251	0.000372	3.719545	0.630108	-0.007441
1629	8.1400e-01	3.7146	5.907857	0.000154	1.539122	0.260734	-0.003079
1630	8.1450e-01	3.7061	5.854831	0.000530	5.301421	0.898085	-0.010605
1631	8.1500e-01	3.6945	5.843286	0.000115	1.154342	0.195551	-0.002309
1632	8.1550e-01	3.6862	5.800095	0.000432	4.318093	0.731505	-0.008638
1633	8.1600e-01	3.6752	5.762892	0.000372	3.719545	0.630108	-0.007441
1634	8.1650e-01	3.6655	5.737662	0.000252	2.522450	0.427315	-0.005046
1635	8.1700e-01	3.6557	5.707728	0.000299	2.992738	0.506983	-0.005987
1636	8.1750e-01	3.6464	5.670525	0.000372	3.719545	0.630108	-0.007441
1637	8.1800e-01	3.6368	5.637170	0.000333	3.334765	0.564924	-0.006671
1638	8.1850e-01	3.6261	5.586283	0.000509	5.087654	0.861872	-0.010177
1639	8.1900e-01	3.6157	5.553356	0.000329	3.292011	0.557682	-0.006585
1640	8.1950e-01	3.6049	5.531119	0.000222	2.223177	0.376616	-0.004447
1641	8.2000e-01	3.5994	5.487074	0.000440	4.403600	0.745990	-0.008809
1642	8.2050e-01	3.5857	5.459278	0.000278	2.778971	0.470770	-0.005559
1643	8.2100e-01	3.5754	5.428061	0.000312	3.120998	0.528711	-0.006243
1644	8.2150e-01	3.5638	5.395990	0.000321	3.206505	0.543197	-0.006414
1645	8.2200e-01	3.5571	5.362635	0.000333	3.334765	0.564924	-0.006671
1646	8.2250e-01	3.5460	5.329708	0.000329	3.292011	0.557682	-0.006585
1647	8.2300e-01	3.5333	5.306616	0.000231	2.308683	0.391102	-0.004618
1648	8.2350e-01	3.5278	5.265991	0.000406	4.061572	0.688049	-0.008125
1649	8.2400e-01	3.5153	5.227933	0.000381	3.805052	0.644593	-0.007612
1650	8.2450e-01	3.5056	5.200137	0.000278	2.778971	0.470770	-0.005559
1651	8.2500e-01	3.4956	5.150105	0.000500	5.002147	0.847387	-0.010006
1652	8.2550e-01	3.4859	5.121454	0.000286	2.864477	0.485256	-0.005730
1653	8.2600e-01	3.4755	5.087672	0.000338	3.377518	0.572167	-0.006756
1654	8.2650e-01	3.4662	5.050896	0.000368	3.676792	0.622865	-0.007355
1655	8.2700e-01	3.4555	5.032936	0.000180	1.795643	0.304190	-0.003592
1656	8.2750e-01	3.4467	4.990601	0.000423	4.232586	0.717019	-0.008467
1657	8.2800e-01	3.4358	4.962377	0.000282	2.821724	0.478013	-0.005645
1658	8.2850e-01	3.4286	4.909780	0.000526	5.258668	0.890842	-0.010520
1659	8.2900e-01	3.4161	4.891819	0.000180	1.795643	0.304190	-0.003592
1660	8.2950e-01	3.4071	4.861886	0.000299	2.992738	0.506983	-0.005987
1661	8.3000e-01	3.3948	4.818268	0.000436	4.360846	0.738747	-0.008724
1662	8.3050e-01	3.3856	4.780637	0.000376	3.762299	0.637351	-0.007526
1663	8.3100e-01	3.3768	4.755834	0.000248	2.479697	0.420072	-0.004960
1664	8.3150e-01	3.3668	4.715210	0.000406	4.061572	0.688049	-0.008125
1665	8.3200e-01	3.3559	4.664323	0.000509	5.087654	0.861872	-0.010177
1666	8.3250e-01	3.3488	4.654060	0.000103	1.026081	0.173823	-0.002053
1667	8.3300e-01	3.3383	4.604455	0.000496	4.959394	0.840144	-0.009921
1668	8.3350e-01	3.3275	4.581791	0.000227	2.265930	0.383859	-0.004533
1669	8.3400e-01	3.3160	4.551857	0.000299	2.992738	0.506983	-0.005987
1670	8.3450e-01	3.3046	4.512088	0.000398	3.976066	0.673564	-0.007954
1671	8.3500e-01	3.2965	4.485575	0.000265	2.650710	0.449043	-0.005303
1672	8.3550e-01	3.2875	4.437681	0.000479	4.788380	0.811174	-0.009579
1673	8.3600e-01	3.2755	4.411596	0.000261	2.607957	0.441800	-0.005217
1674	8.3650e-01	3.2657	4.377386	0.000342	3.420272	0.579410	-0.006842
1675	8.3700e-01	3.2565	4.340610	0.000368	3.676792	0.622865	-0.007355
1676	8.3750e-01	3.2471	4.293572	0.000470	4.702873	0.796688	-0.009408
1677	8.3800e-01	3.2374	4.268769	0.000248	2.479697	0.420072	-0.004960
1678	8.3850e-01	3.2239	4.226862	0.000419	4.189833	0.709777	-0.008381
1679	8.3900e-01	3.2147	4.192652	0.000342	3.420272	0.579410	-0.006842
1680	8.3950e-01	3.2043	4.166994	0.000257	2.565204	0.434557	-0.005132
1681	8.4000e-01	3.1952	4.128081	0.000389	3.890559	0.659079	-0.007783
1682	8.4050e-01	3.1848	4.083608	0.000445	4.446353	0.753233	-0.008895
1683	8.4100e-01	3.1772	4.052391	0.000312	3.120998	0.528711	-0.006243
1684	8.4150e-01	3.1662	4.024595	0.000278	2.778971	0.470770	-0.005559
1685	8.4200e-01	3.1551	3.988247	0.000363	3.634039	0.615623	-0.007270
1686	8.4250e-01	3.1471	3.957886	0.000304	3.035491	0.514226	-0.006072
1687	8.4300e-01	3.1360	3.921110	0.000368	3.676792	0.622865	-0.007355
1688	8.4350e-01	3.1250	3.887328	0.000338	3.377518	0.572167	-0.006756
1689	8.4400e-01	3.1134	3.842427	0.000449	4.489106	0.760475	-0.008980
1690	8.4450e-01	3.1076	3.812493	0.000299	2.992738	0.506983	-0.005987
1691	8.4500e-01	3.0957	3.775717	0.000368	3.676792	0.622865	-0.007355
1692	8.4550e-01	3.0847	3.741080	0.000346	3.463025	0.586652	-0.006928
1693	8.4600e-01	3.0775	3.708580	0.000325	3.249258	0.550439	-0.006500
1694	8.4650e-01	3.0670	3.667956	0.000406	4.061572	0.688049	-0.008125
1695	8.4700e-01	3.0519	3.639733	0.000282	2.821724	0.478013	-0.005645
1696	8.4750e-01	3.0444	3.598680	0.000410	4.104326	0.695292	-0.008210
1697	8.4800e-01	3.0353	3.567036	0.000316	3.163751	0.535954	-0.006329
1698	8.4850e-01	3.0252	3.539241	0.000278	2.778971	0.470770	-0.005559
1699	8.4900e-01	3.0149	3.499899	0.000393	3.933312	0.666321	-0.007868
1700	8.4950e-01	3.0057	3.453716	0.000462	4.617367	0.782203	-0.009237
1701	8.5000e-01	2.9962	3.428058	0.000257	2.565204	0.434557	-0.005132
1702	8.5050e-01	2.9846	3.388289	0.000398	3.976066	0.673564	-0.007954
1703	8.5100e-01	2.9739	3.349375	0.000389	3.890559	0.659079	-0.007783
1704	8.5150e-01	2.9651	3.317731	0.000316	3.163751	0.535954	-0.006329
1705	8.5200e-01	2.9575	3.282238	0.000355	3.548532	0.601138	-0.007099
1706	8.5250e-01	2.9457	3.247600	0.000346	3.463025	0.586652	-0.006928
1707	8.5300e-01	2.9346	3.206976	0.000406	4.061572	0.688049	-0.008125
1708	8.5350e-01	2.9249	3.164213	0.000428	4.275339	0.724262	-0.008553
1709	8.5400e-01	2.9160	3.135562	0.000286	2.864477	0.485256	-0.005730
1710	8.5450e-01	2.9039	3.095793	0.000398	3.976066	0.673564	-0.007954
1711	8.5500e-01	2.8938	3.057735	0.000381	3.805052	0.644593	-0.007612
1712	8.5550e-01	2.8842	3.033360	0.000244	2.436943	0.412829	-0.004875
1713	8.5600e-01	2.8745	2.989314	0.000440	4.403600	0.745990	-0.008809
1714	8.5650e-01	2.8656	2.952111	0.000372	3.719545	0.630108	-0.007441
1715	8.5700e-01	2.8580	2.911914	0.000402	4.018819	0.680806	-0.008039
1716	8.5750e-01	2.8456	2.866158	0.000457	4.574613	0.774960	-0.009151
1717	8.5800e-01	2.8374	2.845205	0.000209	2.094916	0.354888	-0.004191
1718	8.5850e-01	2.8250	2.806718	0.000385	3.847805	0.651836	-0.007697
1719	8.5900e-01	2.8156	2.760963	0.000457	4.574613	0.774960	-0.009151
1720	8.5950e-01	2.8067	2.719055	0.000419	4.189833	0.709777	-0.008381
1721	8.6000e-01	2.7962	2.696819	0.000222	2.223177	0.376616	-0.004447
1722	8.6050e-01	2.7859	2.665602	0.000312	3.120998	0.528711	-0.006243
1723	8.6100e-01	2.7753	2.627971	0.000376	3.762299	0.637351	-0.007526
1724	8.6150e-01	2.7667	2.563827	0.000641	6.413009	1.086393	-0.012829
1725	8.6200e-01	2.7596	2.526624	0.000372	3.719545	0.630108	-0.007441
1726	8.6250e-01	2.7455	2.522348	0.000043	0.427534	0.072426	-0.000855
1727	8.6300e-01	2.7374	2.483861	0.000385	3.847805	0.651836	-0.007697
1728	8.6350e-01	2.7284	2.430836	0.000530	5.301421	0.898085	-0.010605
1729	8.6400e-01	2.7161	2.404751	0.000261	2.607957	0.441800	-0.005217
1730	8.6450e-01	2.7087	2.347021	0.000577	5.771708	0.977754	-0.011546
1731	8.6500e-01	2.7002	2.323502	0.000235	2.351437	0.398344	-0.004704
1732	8.6550e-01	2.6855	2.298700	0.000248	2.479697	0.420072	-0.004960
1733	8.6600e-01	2.6749	2.241398	0.000573	5.728955	0.970511	-0.011460
1734	8.6650e-01	2.6654	2.214457	0.000269	2.693464	0.456285	-0.005388
1735	8.6700e-01	2.6547	2.181958	0.000325	3.249258	0.550439	-0.006500
1736	8.6750e-01	2.6462	2.156300	0.000257	2.565204	0.434557	-0.005132
1737	8.6800e-01	2.6332	2.098143	0.000581	5.814462	0.984996	-0.011631
1738	8.6850e-01	2.6254	2.068210	0.000299	2.992738	0.506983	-0.005987
1739	8.6900e-01	2.6147	2.041697	0.000265	2.650710	0.449043	-0.005303
1740	8.6950e-01	2.6071	1.988244	0.000534	5.344174	0.905328	-0.010691
1741	8.7000e-01	2.5964	1.960448	0.000278	2.778971	0.470770	-0.005559
1742	8.7050e-01	2.5858	1.917686	0.000428	4.275339	0.724262	-0.008553
1743	8.7100e-01	2.5745	1.883476	0.000342	3.420272	0.579410	-0.006842
1744	8.7150e-01	2.5658	1.856963	0.000265	2.650710	0.449043	-0.005303
1745	8.7200e-01	2.5558	1.809924	0.000470	4.702873	0.796688	-0.009408
1746	8.7250e-01	2.5473	1.766734	0.000432	4.318093	0.731505	-0.008638
1747	8.7300e-01	2.5343	1.738511	0.000282	2.821724	0.478013	-0.005645
1748	8.7350e-01	2.5275	1.691044	0.000475	4.745627	0.803931	-0.009493
1749	8.7400e-01	2.5131	1.668808	0.000222	2.223177	0.376616	-0.004447
1750	8.7450e-01	2.5061	1.619203	0.000496	4.959394	0.840144	-0.009921
1751	8.7500e-01	2.4969	1.576868	0.000423	4.232586	0.717019	-0.008467
1752	8.7550e-01	2.4838	1.552921	0.000239	2.394190	0.405587	-0.004789
1753	8.7600e-01	2.4768	1.511442	0.000415	4.147079	0.702534	-0.008296
1754	8.7650e-01	2.4707	1.462265	0.000492	4.916640	0.832901	-0.009835
1755	8.7700e-01	2.4567	1.424206	0.000381	3.805052	0.644593	-0.007612
1756	8.7750e-01	2.4448	1.405818	0.000184	1.838396	0.311433	-0.003678
1757	8.7800e-01	2.4355	1.364338	0.000415	4.147079	0.702534	-0.008296
1758	8.7850e-01	2.4268	1.314734	0.000496	4.959394	0.840144	-0.009921
1759	8.7900e-01	2.4164	1.281379	0.000333	3.334765	0.564924	-0.006671
1760	8.7950e-01	2.4036	1.253156	0.000282	2.821724	0.478013	-0.005645
1761	8.8000e-01	2.3962	1.204834	0.000483	4.831134	0.818416	-0.009664
1762	8.8050e-01	2.3866	1.157368	0.000475	4.745627	0.803931	-0.009493
1763	8.8100e-01	2.3740	1.124441	0.000329	3.292011	0.557682	-0.006585
1764	8.8150e-01	2.3665	1.093224	0.000312	3.120998	0.528711	-0.006243
1765	8.8200e-01	2.3547	1.049179	0.000440	4.403600	0.745990	-0.008809
1766	8.8250e-01	2.3450	1.022666	0.000265	2.650710	0.449043	-0.005303
1767	8.8300e-01	2.3351	0.958094	0.000646	6.455763	1.093636	-0.012914
1768	8.8350e-01	2.3248	0.946976	0.000111	1.111588	0.188308	-0.002224
1769	8.8400e-01	2.3186	0.909345	0.000376	3.762299	0.637351	-0.007526
1770	8.8450e-01	2.3062	0.862306	0.000470	4.702873	0.796688	-0.009408
1771	8.8500e-01	2.2952	0.828096	0.000342	3.420272	0.579410	-0.006842
1772	8.8550e-01	2.2858	0.784051	0.000440	4.403600	0.745990	-0.008809
1773	8.8600e-01	2.2731	0.742571	0.000415	4.147079	0.702534	-0.008296
1774	8.8650e-01	2.2664	0.701947	0.000406	4.061572	0.688049	-0.008125
1775	8.8700e-01	2.2571	0.658757	0.000432	4.318093	0.731505	-0.008638
1776	8.8750e-01	2.2467	0.625830	0.000329	3.292011	0.557682	-0.006585
1777	8.8800e-01	2.2363	0.589481	0.000363	3.634039	0.615623	-0.007270
1778	8.8850e-01	2.2249	0.550568	0.000389	3.890559	0.659079	-0.007783
1779	8.8900e-01	2.2159	0.509943	0.000406	4.061572	0.688049	-0.008125
1780	8.8950e-01	2.2086	0.468036	0.000419	4.189833	0.709777	-0.008381
1781	8.9000e-01	2.1933	0.433826	0.000342	3.420272	0.579410	-0.006842
1782	8.9050e-01	2.1843	0.396195	0.000376	3.762299	0.637351	-0.007526
1783	8.9100e-01	2.1758	0.363695	0.000325	3.249258	0.550439	-0.006500
1784	8.9150e-01	2.1661	0.314518	0.000492	4.916640	0.832901	-0.009835
1785	8.9200e-01	2.1574	0.269618	0.000449	4.489106	0.760475	-0.008980
1786	8.9250e-01	2.1477	0.233270	0.000363	3.634039	0.615623	-0.007270
1787	8.9300e-01	2.1368	0.193928	0.000393	3.933312	0.666321	-0.007868
1788	8.9350e-01	2.1278	0.167415	0.000265	2.650710	0.449043	-0.005303
1789	8.9400e-01	2.1156	0.124225	0.000432	4.318093	0.731505	-0.008638
1790	8.9450e-01	2.1059	0.072055	0.000522	5.215914	0.883600	-0.010434
1791	8.9500e-01	2.0947	0.028865	0.000432	4.318093	0.731505	-0.008638
1792	8.9550e-01	2.0850	-0.007911	0.000368	3.676792	0.622865	-0.007355
1793	8.9600e-01	2.0752	-0.041693	0.000338	3.377518	0.572167	-0.006756
1794	8.9650e-01	2.0654	-0.072482	0.000308	3.078244	0.521469	-0.006158
1795	8.9700e-01	2.0563	-0.128929	0.000564	5.643448	0.956026	-0.011289
1796	8.9750e-01	2.0471	-0.152876	0.000239	2.394190	0.405587	-0.004789
1797	8.9800e-01	2.0340	-0.190935	0.000381	3.805052	0.644593	-0.007612
1798	8.9850e-01	2.0251	-0.246954	0.000560	5.600695	0.948783	-0.011204
1799	8.9900e-01	2.0162	-0.287150	0.000402	4.018819	0.680806	-0.008039
1800	8.9950e-01	2.0062	-0.299552	0.000124	1.239848	0.210036	-0.002480
1801	9.0000e-01	1.9949	-0.355143	0.000556	5.557941	0.941541	-0.011118
1802	9.0050e-01	1.9855	-0.406885	0.000517	5.173161	0.876357	-0.010349
1803	9.0100e-01	1.9736	-0.437674	0.000308	3.078244	0.521469	-0.006158
1804	9.0150e-01	1.9670	-0.485568	0.000479	4.788380	0.811174	-0.009579
1805	9.0200e-01	1.9579	-0.528331	0.000428	4.275339	0.724262	-0.008553
1806	9.0250e-01	1.9456	-0.551850	0.000235	2.351437	0.398344	-0.004704
1807	9.0300e-01	1.9356	-0.602310	0.000504	5.044901	0.854629	-0.010092
1808	9.0350e-01	1.9263	-0.620270	0.000180	1.795643	0.304190	-0.003592
1809	9.0400e-01	1.9169	-0.685697	0.000654	6.541269	1.108121	-0.013085
1810	9.0450e-01	1.9051	-0.718197	0.000325	3.249258	0.550439	-0.006500
1811	9.0500e-01	1.8948	-0.754972	0.000368	3.676792	0.622865	-0.007355
1812	9.0550e-01	1.8820	-0.797307	0.000423	4.232586	0.717019	-0.008467
1813	9.0600e-01	1.8768	-0.843918	0.000466	4.660120	0.789446	-0.009322
1814	9.0650e-01	1.8657	-0.899937	0.000560	5.600695	0.948783	-0.011204
1815	9.0700e-01	1.8542	-0.917470	0.000175	1.752889	0.296947	-0.003507
1816	9.0750e-01	1.8462	-0.970923	0.000534	5.344174	0.905328	-0.010691
1817	9.0800e-01	1.8365	-1.016251	0.000453	4.531860	0.767718	-0.009066
1818	9.0850e-01	1.8270	-1.054738	0.000385	3.847805	0.651836	-0.007697
1819	9.0900e-01	1.8166	-1.077402	0.000227	2.265930	0.383859	-0.004533
1820	9.0950e-01	1.8077	-1.115033	0.000376	3.762299	0.637351	-0.007526
1821	9.1000e-01	1.7975	-1.168914	0.000539	5.386928	0.912570	-0.010776
1822	9.1050e-01	1.7847	-1.214670	0.000457	4.574613	0.774960	-0.009151
1823	9.1100e-01	1.7756	-1.248024	0.000333	3.334765	0.564924	-0.006671
1824	9.1150e-01	1.7641	-1.292497	0.000445	4.446353	0.753233	-0.008895
1825	9.1200e-01	1.7545	-1.338681	0.000462	4.617367	0.782203	-0.009237
1826	9.1250e-01	1.7458	-1.364766	0.000261	2.607957	0.441800	-0.005217
1827	9.1300e-01	1.7360	-1.418219	0.000534	5.344174	0.905328	-0.010691
1828	9.1350e-01	1.7265	-1.452002	0.000338	3.377518	0.572167	-0.006756
1829	9.1400e-01	1.7165	-1.506310	0.000543	5.429681	0.919813	-0.010862
1830	9.1450e-01	1.7056	-1.543086	0.000368	3.676792	0.622865	-0.007355
1831	9.1500e-01	1.6958	-1.575585	0.000325	3.249258	0.550439	-0.006500
1832	9.1550e-01	1.6862	-1.638446	0.000628	6.284749	1.064665	-0.012572
1833	9.1600e-01	1.6755	-1.667525	0.000291	2.907231	0.492498	-0.005816
1834	9.1650e-01	1.6688	-1.703018	0.000355	3.548532	0.601138	-0.007099
1835	9.1700e-01	1.6559	-1.754333	0.000513	5.130407	0.869115	-0.010263
1836	9.1750e-01	1.6448	-1.791964	0.000376	3.762299	0.637351	-0.007526
1837	9.1800e-01	1.6368	-1.830022	0.000381	3.805052	0.644593	-0.007612
1838	9.1850e-01	1.6241	-1.865943	0.000359	3.591285	0.608380	-0.007184
1839	9.1900e-01	1.6141	-1.908705	0.000428	4.275339	0.724262	-0.008553
1840	9.1950e-01	1.6041	-1.951896	0.000432	4.318093	0.731505	-0.008638
1841	9.2000e-01	1.5968	-1.998507	0.000466	4.660120	0.789446	-0.009322
1842	9.2050e-01	1.5848	-2.036565	0.000381	3.805052	0.644593	-0.007612
1843	9.2100e-01	1.5781	-2.088308	0.000517	5.173161	0.876357	-0.010349
1844	9.2150e-01	1.5666	-2.108406	0.000201	2.009410	0.340403	-0.004020
1845	9.2200e-01	1.5540	-2.156728	0.000483	4.831134	0.818416	-0.009664
1846	9.2250e-01	1.5455	-2.200346	0.000436	4.360846	0.738747	-0.008724
1847	9.2300e-01	1.5359	-2.235411	0.000351	3.505778	0.593895	-0.007013
1848	9.2350e-01	1.5247	-2.276463	0.000410	4.104326	0.695292	-0.008210
1849	9.2400e-01	1.5159	-2.337614	0.000611	6.113735	1.035695	-0.012230
1850	9.2450e-01	1.5089	-2.372251	0.000346	3.463025	0.586652	-0.006928
1851	9.2500e-01	1.4984	-2.432546	0.000603	6.028229	1.021210	-0.012059
1852	9.2550e-01	1.4864	-2.464191	0.000316	3.163751	0.535954	-0.006329
1853	9.2600e-01	1.4753	-2.505670	0.000415	4.147079	0.702534	-0.008296
1854	9.2650e-01	1.4663	-2.548433	0.000428	4.275339	0.724262	-0.008553
1855	9.2700e-01	1.4554	-2.594616	0.000462	4.617367	0.782203	-0.009237
1856	9.2750e-01	1.4453	-2.646359	0.000517	5.173161	0.876357	-0.010349
1857	9.2800e-01	1.4371	-2.681852	0.000355	3.548532	0.601138	-0.007099
1858	9.2850e-01	1.4254	-2.712641	0.000308	3.078244	0.521469	-0.006158
1859	9.2900e-01	1.4142	-2.743002	0.000304	3.035491	0.514226	-0.006072
1860	9.2950e-01	1.4027	-2.801587	0.000586	5.857215	0.992239	-0.011717
1861	9.3000e-01	1.3951	-2.852902	0.000513	5.130407	0.869115	-0.010263
1862	9.3050e-01	1.3845	-2.887112	0.000342	3.420272	0.579410	-0.006842
1863	9.3100e-01	1.3686	-2.936289	0.000492	4.916640	0.832901	-0.009835
1864	9.3150e-01	1.3670	-2.979907	0.000436	4.360846	0.738747	-0.008724
1865	9.3200e-01	1.3545	-3.033360	0.000534	5.344174	0.905328	-0.010691
1866	9.3250e-01	1.3450	-3.061583	0.000282	2.821724	0.478013	-0.005645
1867	9.3300e-01	1.3360	-3.100925	0.000393	3.933312	0.666321	-0.007868
1868	9.3350e-01	1.3265	-3.150957	0.000500	5.002147	0.847387	-0.010006
1869	9.3400e-01	1.3152	-3.203127	0.000522	5.215914	0.883600	-0.010434
1870	9.3450e-01	1.3040	-3.244607	0.000415	4.147079	0.702534	-0.008296
1871	9.3500e-01	1.2935	-3.277962	0.000333	3.334765	0.564924	-0.006671
1872	9.3550e-01	1.2863	-3.323717	0.000457	4.574613	0.774960	-0.009151
1873	9.3600e-01	1.2754	-3.363487	0.000398	3.976066	0.673564	-0.007954
1874	9.3650e-01	1.2660	-3.400690	0.000372	3.719545	0.630108	-0.007441
1875	9.3700e-01	1.2581	-3.436183	0.000355	3.548532	0.601138	-0.007099
1876	9.3750e-01	1.2460	-3.489636	0.000534	5.344174	0.905328	-0.010691
1877	9.3800e-01	1.2360	-3.538385	0.000487	4.873887	0.825659	-0.009750
1878	9.3850e-01	1.2256	-3.590556	0.000522	5.215914	0.883600	-0.010434
1879	9.3900e-01	1.2160	-3.614930	0.000244	2.436943	0.412829	-0.004875
1880	9.3950e-01	1.2064	-3.667528	0.000526	5.258668	0.890842	-0.010520
1881	9.4000e-01	1.1957	-3.712001	0.000445	4.446353	0.753233	-0.008895
1882	9.4050e-01	1.1896	-3.765882	0.000539	5.386928	0.912570	-0.010776
1883	9.4100e-01	1.1745	-3.803941	0.000381	3.805052	0.644593	-0.007612
1884	9.4150e-01	1.1666	-3.845420	0.000415	4.147079	0.702534	-0.008296
1885	9.4200e-01	1.1572	-3.880913	0.000355	3.548532	0.601138	-0.007099
1886	9.4250e-01	1.1445	-3.928807	0.000479	4.788380	0.811174	-0.009579
1887	9.4300e-01	1.1369	-3.995517	0.000667	6.669530	1.129849	-0.013342
1888	9.4350e-01	1.1269	-4.030582	0.000351	3.505778	0.593895	-0.007013
1889	9.4400e-01	1.1169	-4.069924	0.000393	3.933312	0.666321	-0.007868
1890	9.4450e-01	1.1055	-4.113541	0.000436	4.360846	0.738747	-0.008724
1891	9.4500e-01	1.0978	-4.164001	0.000504	5.044901	0.854629	-0.010092
1892	9.4550e-01	1.0871	-4.200349	0.000363	3.634039	0.615623	-0.007270
1893	9.4600e-01	1.0756	-4.245678	0.000453	4.531860	0.767718	-0.009066
1894	9.4650e-01	1.0660	-4.292289	0.000466	4.660120	0.789446	-0.009322
1895	9.4700e-01	1.0522	-4.314953	0.000227	2.265930	0.383859	-0.004533
1896	9.4750e-01	1.0449	-4.373110	0.000581	5.814462	0.984996	-0.011631
1897	9.4800e-01	1.0350	-4.404754	0.000316	3.163751	0.535954	-0.006329
1898	9.4850e-01	1.0271	-4.449227	0.000445	4.446353	0.753233	-0.008895
1899	9.4900e-01	1.0139	-4.517220	0.000680	6.797790	1.151577	-0.013598
1900	9.4950e-01	1.0077	-4.556989	0.000398	3.976066	0.673564	-0.007954
1901	9.5000e-01	0.9975	-4.599751	0.000428	4.275339	0.724262	-0.008553
1902	9.5050e-01	0.9854	-4.639520	0.000398	3.976066	0.673564	-0.007954
1903	9.5100e-01	0.9769	-4.684849	0.000453	4.531860	0.767718	-0.009066
1904	9.5150e-01	0.9636	-4.742150	0.000573	5.728955	0.970511	-0.011460
1905	9.5200e-01	0.9570	-4.779782	0.000376	3.762299	0.637351	-0.007526
1906	9.5250e-01	0.9445	-4.847346	0.000676	6.755036	1.144334	-0.013513
1907	9.5300e-01	0.9370	-4.875997	0.000286	2.864477	0.485256	-0.005730
1908	9.5350e-01	0.9268	-4.909352	0.000333	3.334765	0.564924	-0.006671
1909	9.5400e-01	0.9146	-4.967509	0.000581	5.814462	0.984996	-0.011631
1910	9.5450e-01	0.9055	-5.002147	0.000346	3.463025	0.586652	-0.006928
1911	9.5500e-01	0.8952	-5.052179	0.000500	5.002147	0.847387	-0.010006
1912	9.5550e-01	0.8871	-5.107342	0.000552	5.515188	0.934298	-0.011033
1913	9.5600e-01	0.8788	-5.144973	0.000376	3.762299	0.637351	-0.007526
1914	9.5650e-01	0.8659	-5.187308	0.000423	4.232586	0.717019	-0.008467
1915	9.5700e-01	0.8550	-5.223229	0.000359	3.591285	0.608380	-0.007184
1916	9.5750e-01	0.8444	-5.289511	0.000663	6.626776	1.122606	-0.013256
1917	9.5800e-01	0.8331	-5.339543	0.000500	5.002147	0.847387	-0.010006
1918	9.5850e-01	0.8262	-5.381023	0.000415	4.147079	0.702534	-0.008296
1919	9.5900e-01	0.8136	-5.428917	0.000479	4.788380	0.811174	-0.009579
1920	9.5950e-01	0.8036	-5.465692	0.000368	3.676792	0.622865	-0.007355
1921	9.6000e-01	0.7947	-5.520856	0.000552	5.515188	0.934298	-0.011033
1922	9.6050e-01	0.7837	-5.549079	0.000282	2.821724	0.478013	-0.005645
1923	9.6100e-01	0.7744	-5.608947	0.000599	5.985475	1.013967	-0.011974
1924	9.6150e-01	0.7680	-5.662400	0.000534	5.344174	0.905328	-0.010691
1925	9.6200e-01	0.7538	-5.697893	0.000355	3.548532	0.601138	-0.007099
1926	9.6250e-01	0.7465	-5.753912	0.000560	5.600695	0.948783	-0.011204
1927	9.6300e-01	0.7362	-5.800523	0.000466	4.660120	0.789446	-0.009322
1928	9.6350e-01	0.7259	-5.831740	0.000312	3.120998	0.528711	-0.006243
1929	9.6400e-01	0.7170	-5.895028	0.000633	6.327502	1.071908	-0.012658
1930	9.6450e-01	0.7076	-5.962593	0.000676	6.755036	1.144334	-0.013513
1931	9.6500e-01	0.6953	-5.971573	0.000090	0.897821	0.152095	-0.001796
1932	9.6550e-01	0.6863	-6.031868	0.000603	6.028229	1.021210	-0.012059
1933	9.6600e-01	0.6772	-6.078907	0.000470	4.702873	0.796688	-0.009408
1934	9.6650e-01	0.6713	-6.126373	0.000475	4.745627	0.803931	-0.009493
1935	9.6700e-01	0.6560	-6.181537	0.000552	5.515188	0.934298	-0.011033
1936	9.6750e-01	0.6448	-6.230714	0.000492	4.916640	0.832901	-0.009835
1937	9.6800e-01	0.6337	-6.258937	0.000282	2.821724	0.478013	-0.005645
1938	9.6850e-01	0.6239	-6.306404	0.000475	4.745627	0.803931	-0.009493
1939	9.6900e-01	0.6158	-6.369692	0.000633	6.327502	1.071908	-0.012658
1940	9.6950e-01	0.6023	-6.410317	0.000406	4.061572	0.688049	-0.008125
1941	9.7000e-01	0.5964	-6.465053	0.000547	5.472434	0.927055	-0.010947
1942	9.7050e-01	0.5858	-6.499690	0.000346	3.463025	0.586652	-0.006928
1943	9.7100e-01	0.5739	-6.551861	0.000522	5.215914	0.883600	-0.010434
1944	9.7150e-01	0.5659	-6.587354	0.000355	3.548532	0.601138	-0.007099
1945	9.7200e-01	0.5566	-6.649787	0.000624	6.241996	1.057423	-0.012487
1946	9.7250e-01	0.5470	-6.695543	0.000457	4.574613	0.774960	-0.009151
1947	9.7300e-01	0.5331	-6.746858	0.000513	5.130407	0.869115	-0.010263
1948	9.7350e-01	0.5319	-6.773798	0.000269	2.693464	0.456285	-0.005388
1949	9.7400e-01	0.5188	-6.839225	0.000654	6.541269	1.108121	-0.013085
1950	9.7450e-01	0.5063	-6.885836	0.000466	4.660120	0.789446	-0.009322
1951	9.7500e-01	0.4958	-6.929454	0.000436	4.360846	0.738747	-0.008724
1952	9.7550e-01	0.4871	-6.973072	0.000436	4.360846	0.738747	-0.008724
1953	9.7600e-01	0.4733	-7.030373	0.000573	5.728955	0.970511	-0.011460
1954	9.7650e-01	0.4639	-7.075274	0.000449	4.489106	0.760475	-0.008980
1955	9.7700e-01	0.4561	-7.120175	0.000449	4.489106	0.760475	-0.008980
1956	9.7750e-01	0.4449	-7.183036	0.000628	6.284749	1.064665	-0.012572
1957	9.7800e-01	0.4337	-7.221522	0.000385	3.847805	0.651836	-0.007697
1958	9.7850e-01	0.4275	-7.277541	0.000560	5.600695	0.948783	-0.011204
1959	9.7900e-01	0.4128	-7.312606	0.000351	3.505778	0.593895	-0.007013
1960	9.7950e-01	0.4041	-7.371191	0.000586	5.857215	0.992239	-0.011717
1961	9.8000e-01	0.3972	-7.425071	0.000539	5.386928	0.912570	-0.010776
1962	9.8050e-01	0.3862	-7.464413	0.000393	3.933312	0.666321	-0.007868
1963	9.8100e-01	0.3757	-7.522998	0.000586	5.857215	0.992239	-0.011717
1964	9.8150e-01	0.3661	-7.557208	0.000342	3.420272	0.579410	-0.006842
1965	9.8200e-01	0.3548	-7.625200	0.000680	6.797790	1.151577	-0.013598
1966	9.8250e-01	0.3470	-7.658555	0.000333	3.334765	0.564924	-0.006671
1967	9.8300e-01	0.3368	-7.720988	0.000624	6.241996	1.057423	-0.012487
1968	9.8350e-01	0.3258	-7.768882	0.000479	4.788380	0.811174	-0.009579
1969	9.8400e-01	0.3162	-7.818059	0.000492	4.916640	0.832901	-0.009835
1970	9.8450e-01	0.3036	-7.856545	0.000385	3.847805	0.651836	-0.007697
1971	9.8500e-01	0.2955	-7.910426	0.000539	5.386928	0.912570	-0.010776
1972	9.8550e-01	0.2861	-7.956610	0.000462	4.617367	0.782203	-0.009237
1973	9.8600e-01	0.2750	-8.011773	0.000552	5.515188	0.934298	-0.011033
1974	9.8650e-01	0.2673	-8.043418	0.000316	3.163751	0.535954	-0.006329
1975	9.8700e-01	0.2583	-8.103713	0.000603	6.028229	1.021210	-0.012059
1976	9.8750e-01	0.2458	-8.146475	0.000428	4.275339	0.724262	-0.008553
1977	9.8800e-01	0.2381	-8.217461	0.000710	7.097063	1.202275	-0.014197
1978	9.8850e-01	0.2245	-8.267066	0.000496	4.959394	0.840144	-0.009921
1979	9.8900e-01	0.2179	-8.314104	0.000470	4.702873	0.796688	-0.009408
1980	9.8950e-01	0.2044	-8.353874	0.000398	3.976066	0.673564	-0.007954
1981	9.9000e-01	0.1963	-8.395353	0.000415	4.147079	0.702534	-0.008296
1982	9.9050e-01	0.1841	-8.447096	0.000517	5.173161	0.876357	-0.010349
1983	9.9100e-01	0.1758	-8.514661	0.000676	6.755036	1.144334	-0.013513
1984	9.9150e-01	0.1672	-8.555285	0.000406	4.061572	0.688049	-0.008125
1985	9.9200e-01	0.1560	-8.613014	0.000577	5.771708	0.977754	-0.011546
1986	9.9250e-01	0.1442	-8.648935	0.000359	3.591285	0.608380	-0.007184
1987	9.9300e-01	0.1355	-8.705382	0.000564	5.643448	0.956026	-0.011289
1988	9.9350e-01	0.1242	-8.754986	0.000496	4.959394	0.840144	-0.009921
1989	9.9400e-01	0.1174	-8.814426	0.000594	5.942722	1.006724	-0.011888
1990	9.9450e-01	0.1048	-8.853340	0.000389	3.890559	0.659079	-0.007783
1991	9.9500e-01	0.0951	-8.901662	0.000483	4.831134	0.818416	-0.009664
1992	9.9550e-01	0.0845	-8.966661	0.000650	6.498516	1.100878	-0.013000
1993	9.9600e-01	0.0741	-9.010706	0.000440	4.403600	0.745990	-0.008809
1994	9.9650e-01	0.0648	-9.063732	0.000530	5.301421	0.898085	-0.010605
1995	9.9700e-01	0.0572	-9.126165	0.000624	6.241996	1.057423	-0.012487
1996	9.9750e-01	0.0447	-9.151822	0.000257	2.565204	0.434557	-0.005132
1997	9.9800e-01	0.0346	-9.218959	0.000671	6.712283	1.137092	-0.013427
1998	9.9850e-01	0.0252	-9.266854	0.000479	4.788380	0.811174	-0.009579
1999	9.9900e-01	0.0146	-9.318596	0.000517	5.173161	0.876357	-0.010349
2000	9.9950e-01	0.0040	-9.364352	0.000457	4.574613	0.774960	-0.009151
2001	1.0000e+00	-0.0038	-9.422509	0.000457	4.574613	0.774960	-0.011631

PMax (uC/cm2):	3.96e+01
Pr (uC/cm2):	1.04e+01
-Pr (uC/cm2):	0.00e+00
PLoss (uC/cm2):	0.00e+00
C (Max-Eff) (nF):	3.97e-01
K (Eff):	6.72e+02
Vert. (+/-Pr) Shift (uC/cm2):	5.22e+00
Offset (uC/cm2):	1.99e+01

A (Loop Area - uC/cm2·Volts):	-9.84e-02



Hysteresis Version: 5.48.1 - Radiant Technologies, Inc., 1999 - 9/12/24

