»»»»»»»»»»»»»»»»»»»»»»»»»»»»»»»»»»»» Hysteresis ««««««««««««««««««««««««««««««««««««
»»»  Executed Version:	5.48.1
»»»  Vision Version:	5.48.4 (R)
»»»  Vision Compiled:	9/18/24
»»»  Driver Version:	5.47.0
»»»  Windows Version:	Windows 8 or 8.1
»»»  Processor Information:	x86 (AMD or Intel) - 32 Processors
»»»  Tester Name:	PMF21124-494 (100V)
»»»  Tester S/N:	PMF21124-494
»»»  Internal Amp Type:	100V RevK 270k
»»»  Internal Amp S/N:	iAB2-596/K     
»»»  Execution Count:	1
»»»»»»»»»»»»»»»»»»»»»»»»»»»»»»»»»»»»»»»»»»««««««««««««««««««««««««««««««««««««««««««

Stored:	6/18/2025 - 10:5:47
Configured:	06/18/25 09:47:30 AM
Executed:	06/18/25 10:05:18 AM

»»»»»»»»»»»»»»»»»»»»»»»»»»»»»»»»»»» Sample Info ««««««««««««««««««««««««««««««««««««
Sample Name:	
Lot Name:	
Wafer Name:	
Die Row/Column:	0/0
Capacitor Number:	0
Sample Area (cm2):	1.00e-04
Sample Thickness (microns):	3.00e-01

Amplifier:	Internal

»»»»»»»»»»»»»»»»»»»»»»»»»»»»»»»»»»» Tester Info «««««««««««««««««««««««««««««««««««
Tester Name:	PMF21124-494 (100V)
Tester Serial Number:	PMF21124-494
Return Signal Amp. Level:	0.19 [Index: 3]

»»»»»»»»»»»»»»»»»»»»»»»»»»»»»»»» Hysteresis Info ««««««««««««««««««««««««««««««««««
Task Name:	Hyst-554
Volts:	20.00
Field:	666.67 (kV/cm)
DCBias:	0.00
DCField:	0.00 (kV/cm)
Hysteresis Period (ms):	2.00e+02
Preset:	Enabled
Preset Delay (ms):	1.00e+03
Profile:	Standard Bipolar

»»»»»»»»»»»»»»»»»»»»»»»»»»»»»»»»»»»»»» Data «««««««««««««««««««««««««««««««««««««««
Points:	2009

Valid Data

Point	Time (ms)	Drive Voltage	Measured Polarization (uC/cm2)	Capacitance (uF)	Normalized Capacitance (uF/cm2)	Dielectric Constant	Instantaneous Current (mA)
   1	0.0000e+00	-0.0128	-0.010093	0.000162	1.621609	0.549416	0.000065
   2	9.9500e-02	0.0257	0.054501	0.000162	1.621609	0.549416	0.000065
   3	1.9900e-01	0.0594	0.224061	0.000426	4.256723	1.442217	0.000170
   4	2.9850e-01	0.0930	0.393621	0.000426	4.256723	1.442217	0.000170
   5	3.9800e-01	0.1396	0.530883	0.000345	3.445919	1.167509	0.000138
   6	4.9750e-01	0.1733	0.692369	0.000405	4.054022	1.373540	0.000162
   7	5.9700e-01	0.2214	0.837706	0.000365	3.648620	1.236186	0.000146
   8	6.9650e-01	0.2551	0.974968	0.000345	3.445919	1.167509	0.000138
   9	7.9600e-01	0.3000	1.108194	0.000334	3.344568	1.133170	0.000134
  10	8.9550e-01	0.3385	1.293902	0.000466	4.662125	1.579571	0.000187
  11	9.9500e-01	0.3786	1.455387	0.000405	4.054022	1.373540	0.000162
  12	1.0945e+00	0.4203	1.600724	0.000365	3.648620	1.236186	0.000146
  13	1.1940e+00	0.4604	1.705690	0.000264	2.635114	0.892801	0.000105
  14	1.2935e+00	0.4909	1.899472	0.000486	4.864826	1.648248	0.000195
  15	1.3930e+00	0.5342	2.040772	0.000355	3.547269	1.201847	0.000142
  16	1.4925e+00	0.5775	2.210332	0.000426	4.256723	1.442217	0.000170
  17	1.5920e+00	0.6128	2.363743	0.000385	3.851321	1.304863	0.000154
  18	1.6915e+00	0.6577	2.521191	0.000395	3.952671	1.339201	0.000158
  19	1.7910e+00	0.7043	2.670565	0.000375	3.749970	1.270524	0.000150
  20	1.8905e+00	0.7251	2.791679	0.000304	3.040516	1.030155	0.000122
  21	1.9900e+00	0.7732	2.997573	0.000517	5.168878	1.751263	0.000207
  22	2.0895e+00	0.8182	3.171170	0.000436	4.358074	1.476555	0.000174
  23	2.1890e+00	0.8518	3.312470	0.000355	3.547269	1.201847	0.000142
  24	2.2885e+00	0.9000	3.469918	0.000395	3.952671	1.339201	0.000158
  25	2.3880e+00	0.9337	3.615255	0.000365	3.648620	1.236186	0.000146
  26	2.4875e+00	0.9738	3.776740	0.000405	4.054022	1.373540	0.000162
  27	2.5870e+00	1.0155	3.966486	0.000476	4.763476	1.613909	0.000191
  28	2.6865e+00	1.0476	4.047229	0.000203	2.027011	0.686770	0.000081
  29	2.7860e+00	1.0861	4.253123	0.000517	5.168878	1.751263	0.000207
  30	2.8855e+00	1.1358	4.414608	0.000405	4.054022	1.373540	0.000162
  31	2.9850e+00	1.1823	4.600316	0.000466	4.662125	1.579571	0.000187
  32	3.0845e+00	1.2112	4.741616	0.000355	3.547269	1.201847	0.000142
  33	3.1840e+00	1.2593	4.903101	0.000405	4.054022	1.373540	0.000162
  34	3.2835e+00	1.2898	5.084772	0.000456	4.560775	1.545232	0.000183
  35	3.3830e+00	1.3347	5.222035	0.000345	3.445919	1.167509	0.000138
  36	3.4825e+00	1.3748	5.371409	0.000375	3.749970	1.270524	0.000150
  37	3.5820e+00	1.4149	5.561154	0.000476	4.763476	1.613909	0.000191
  38	3.6815e+00	1.4631	5.674194	0.000284	2.837815	0.961478	0.000114
  39	3.7810e+00	1.4951	5.863940	0.000476	4.763476	1.613909	0.000191
  40	3.8805e+00	1.5288	6.021388	0.000395	3.952671	1.339201	0.000158
  41	3.9800e+00	1.5754	6.199022	0.000446	4.459424	1.510894	0.000179
  42	4.0795e+00	1.6139	6.316099	0.000294	2.939166	0.995816	0.000118
  43	4.1790e+00	1.6492	6.505844	0.000476	4.763476	1.613909	0.000191
  44	4.2785e+00	1.6957	6.687515	0.000456	4.560775	1.545232	0.000183
  45	4.3780e+00	1.7390	6.832852	0.000365	3.648620	1.236186	0.000146
  46	4.4775e+00	1.7775	6.978189	0.000365	3.648620	1.236186	0.000146
  47	4.5770e+00	1.8256	7.155823	0.000446	4.459424	1.510894	0.000179
  48	4.6765e+00	1.8529	7.321346	0.000416	4.155373	1.407878	0.000166
  49	4.7760e+00	1.8898	7.478794	0.000395	3.952671	1.339201	0.000158
  50	4.8755e+00	1.9299	7.644317	0.000416	4.155373	1.407878	0.000166
  51	4.9750e+00	1.9780	7.813876	0.000426	4.256723	1.442217	0.000170
  52	5.0745e+00	2.0149	7.987473	0.000436	4.358074	1.476555	0.000174
  53	5.1740e+00	2.0534	8.140884	0.000385	3.851321	1.304863	0.000154
  54	5.2735e+00	2.0951	8.290258	0.000375	3.749970	1.270524	0.000150
  55	5.3730e+00	2.1256	8.439632	0.000375	3.749970	1.270524	0.000150
  56	5.4725e+00	2.1721	8.665712	0.000568	5.675631	1.922956	0.000227
  57	5.5720e+00	2.2122	8.807012	0.000355	3.547269	1.201847	0.000142
  58	5.6715e+00	2.2636	8.976571	0.000426	4.256723	1.442217	0.000170
  59	5.7710e+00	2.2844	9.117871	0.000355	3.547269	1.201847	0.000142
  60	5.8705e+00	2.3310	9.331839	0.000537	5.371579	1.819940	0.000215
  61	5.9700e+00	2.3743	9.497362	0.000416	4.155373	1.407878	0.000166
  62	6.0695e+00	2.4192	9.646736	0.000375	3.749970	1.270524	0.000150
  63	6.1690e+00	2.4545	9.763813	0.000294	2.939166	0.995816	0.000118
  64	6.2685e+00	2.4930	9.965670	0.000507	5.067527	1.716925	0.000203
  65	6.3680e+00	2.5315	10.155415	0.000476	4.763476	1.613909	0.000191
  66	6.4675e+00	2.5684	10.316900	0.000405	4.054022	1.373540	0.000162
  67	6.5670e+00	2.6133	10.490497	0.000436	4.358074	1.476555	0.000174
  68	6.6665e+00	2.6358	10.684280	0.000486	4.864826	1.648248	0.000195
  69	6.7660e+00	2.6839	10.801357	0.000294	2.939166	0.995816	0.000118
  70	6.8655e+00	2.7368	11.011288	0.000527	5.270229	1.785602	0.000211
  71	6.9650e+00	2.7689	11.188922	0.000446	4.459424	1.510894	0.000179
  72	7.0645e+00	2.8154	11.342333	0.000385	3.851321	1.304863	0.000154
  73	7.1640e+00	2.8379	11.507855	0.000416	4.155373	1.407878	0.000166
  74	7.2635e+00	2.8988	11.657229	0.000375	3.749970	1.270524	0.000150
  75	7.3630e+00	2.9325	11.810641	0.000385	3.851321	1.304863	0.000154
  76	7.4625e+00	2.9694	12.004423	0.000486	4.864826	1.648248	0.000195
  77	7.5620e+00	3.0111	12.186094	0.000456	4.560775	1.545232	0.000183
  78	7.6615e+00	3.0561	12.327394	0.000355	3.547269	1.201847	0.000142
  79	7.7610e+00	3.0898	12.529251	0.000507	5.067527	1.716925	0.000203
  80	7.8605e+00	3.1202	12.654402	0.000314	3.141867	1.064493	0.000126
  81	7.9600e+00	3.1668	12.836073	0.000456	4.560775	1.545232	0.000183
  82	8.0595e+00	3.2117	13.009670	0.000436	4.358074	1.476555	0.000174
  83	8.1590e+00	3.2486	13.183267	0.000436	4.358074	1.476555	0.000174
  84	8.2585e+00	3.2855	13.336678	0.000385	3.851321	1.304863	0.000154
  85	8.3580e+00	3.3288	13.490089	0.000385	3.851321	1.304863	0.000154
  86	8.4575e+00	3.3609	13.679834	0.000476	4.763476	1.613909	0.000191
  87	8.5570e+00	3.4058	13.825171	0.000365	3.648620	1.236186	0.000146
  88	8.6565e+00	3.4523	13.978582	0.000385	3.851321	1.304863	0.000154
  89	8.7560e+00	3.4860	14.184476	0.000517	5.168878	1.751263	0.000207
  90	8.8555e+00	3.5245	14.321739	0.000345	3.445919	1.167509	0.000138
  91	8.9550e+00	3.5710	14.527633	0.000517	5.168878	1.751263	0.000207
  92	9.0545e+00	3.6127	14.677007	0.000375	3.749970	1.270524	0.000150
  93	9.1540e+00	3.6464	14.818307	0.000355	3.547269	1.201847	0.000142
  94	9.2535e+00	3.6849	15.024201	0.000517	5.168878	1.751263	0.000207
  95	9.3530e+00	3.7234	15.193760	0.000426	4.256723	1.442217	0.000170
  96	9.4525e+00	3.7619	15.375431	0.000456	4.560775	1.545232	0.000183
  97	9.5520e+00	3.7956	15.528843	0.000385	3.851321	1.304863	0.000154
  98	9.6515e+00	3.8437	15.666105	0.000345	3.445919	1.167509	0.000138
  99	9.7510e+00	3.8838	15.863925	0.000497	4.966177	1.682586	0.000199
 100	9.8505e+00	3.9240	16.009262	0.000365	3.648620	1.236186	0.000146
 101	9.9500e+00	3.9657	16.170747	0.000405	4.054022	1.373540	0.000162
 102	1.0050e+01	4.0074	16.380678	0.000527	5.270229	1.785602	0.000211
 103	1.0149e+01	4.0491	16.517941	0.000345	3.445919	1.167509	0.000138
 104	1.0248e+01	4.0876	16.711723	0.000486	4.864826	1.648248	0.000195
 105	1.0348e+01	4.1197	16.832837	0.000304	3.040516	1.030155	0.000122
 106	1.0447e+01	4.1566	16.998360	0.000416	4.155373	1.407878	0.000166
 107	1.0547e+01	4.2095	17.200217	0.000507	5.067527	1.716925	0.000203
 108	1.0646e+01	4.2464	17.353628	0.000385	3.851321	1.304863	0.000154
 109	1.0746e+01	4.2849	17.527225	0.000436	4.358074	1.476555	0.000174
 110	1.0845e+01	4.3218	17.708896	0.000456	4.560775	1.545232	0.000183
 111	1.0945e+01	4.3635	17.838084	0.000324	3.243218	1.098832	0.000130
 112	1.1044e+01	4.4068	18.052052	0.000537	5.371579	1.819940	0.000215
 113	1.1144e+01	4.4501	18.221612	0.000426	4.256723	1.442217	0.000170
 114	1.1243e+01	4.4806	18.346763	0.000314	3.141867	1.064493	0.000126
 115	1.1343e+01	4.5255	18.556694	0.000527	5.270229	1.785602	0.000211
 116	1.1443e+01	4.5624	18.681846	0.000314	3.141867	1.064493	0.000126
 117	1.1542e+01	4.6122	18.875628	0.000486	4.864826	1.648248	0.000195
 118	1.1642e+01	4.6459	19.029039	0.000385	3.851321	1.304863	0.000154
 119	1.1741e+01	4.6828	19.214748	0.000466	4.662125	1.579571	0.000187
 120	1.1841e+01	4.7213	19.368159	0.000385	3.851321	1.304863	0.000154
 121	1.1940e+01	4.7694	19.505421	0.000345	3.445919	1.167509	0.000138
 122	1.2040e+01	4.8015	19.715352	0.000527	5.270229	1.785602	0.000211
 123	1.2139e+01	4.8448	19.876838	0.000405	4.054022	1.373540	0.000162
 124	1.2239e+01	4.8833	20.038323	0.000405	4.054022	1.373540	0.000162
 125	1.2338e+01	4.9202	20.232106	0.000486	4.864826	1.648248	0.000195
 126	1.2438e+01	4.9587	20.393591	0.000405	4.054022	1.373540	0.000162
 127	1.2537e+01	4.9988	20.514705	0.000304	3.040516	1.030155	0.000122
 128	1.2636e+01	5.0405	20.720599	0.000517	5.168878	1.751263	0.000207
 129	1.2736e+01	5.0806	20.878047	0.000395	3.952671	1.339201	0.000158
 130	1.2835e+01	5.1255	21.043570	0.000416	4.155373	1.407878	0.000166
 131	1.2935e+01	5.1560	21.217167	0.000436	4.358074	1.476555	0.000174
 132	1.3034e+01	5.2073	21.402875	0.000466	4.662125	1.579571	0.000187
 133	1.3134e+01	5.2394	21.556286	0.000385	3.851321	1.304863	0.000154
 134	1.3233e+01	5.2779	21.693549	0.000345	3.445919	1.167509	0.000138
 135	1.3333e+01	5.3293	21.891369	0.000497	4.966177	1.682586	0.000199
 136	1.3432e+01	5.3581	22.060928	0.000426	4.256723	1.442217	0.000170
 137	1.3532e+01	5.3998	22.234525	0.000436	4.358074	1.476555	0.000174
 138	1.3632e+01	5.4383	22.383899	0.000375	3.749970	1.270524	0.000150
 139	1.3731e+01	5.4785	22.545385	0.000405	4.054022	1.373540	0.000162
 140	1.3831e+01	5.5218	22.735130	0.000476	4.763476	1.613909	0.000191
 141	1.3930e+01	5.5619	22.868355	0.000334	3.344568	1.133170	0.000134
 142	1.4030e+01	5.5956	23.050026	0.000456	4.560775	1.545232	0.000183
 143	1.4129e+01	5.6485	23.215549	0.000416	4.155373	1.407878	0.000166
 144	1.4229e+01	5.6774	23.377034	0.000405	4.054022	1.373540	0.000162
 145	1.4328e+01	5.7287	23.534483	0.000395	3.952671	1.339201	0.000158
 146	1.4428e+01	5.7544	23.712117	0.000446	4.459424	1.510894	0.000179
 147	1.4527e+01	5.7945	23.913974	0.000507	5.067527	1.716925	0.000203
 148	1.4627e+01	5.8394	24.059310	0.000365	3.648620	1.236186	0.000146
 149	1.4726e+01	5.8811	24.204647	0.000365	3.648620	1.236186	0.000146
 150	1.4825e+01	5.9228	24.370170	0.000416	4.155373	1.407878	0.000166
 151	1.4925e+01	5.9501	24.535692	0.000416	4.155373	1.407878	0.000166
 152	1.5024e+01	5.9966	24.709289	0.000436	4.358074	1.476555	0.000174
 153	1.5124e+01	6.0447	24.890960	0.000456	4.560775	1.545232	0.000183
 154	1.5223e+01	6.0752	25.064557	0.000436	4.358074	1.476555	0.000174
 155	1.5323e+01	6.1153	25.213931	0.000375	3.749970	1.270524	0.000150
 156	1.5422e+01	6.1586	25.371380	0.000395	3.952671	1.339201	0.000158
 157	1.5522e+01	6.1972	25.557088	0.000466	4.662125	1.579571	0.000187
 158	1.5621e+01	6.2373	25.710499	0.000385	3.851321	1.304863	0.000154
 159	1.5721e+01	6.2726	25.904281	0.000486	4.864826	1.648248	0.000195
 160	1.5820e+01	6.3191	26.061730	0.000395	3.952671	1.339201	0.000158
 161	1.5920e+01	6.3608	26.186881	0.000314	3.141867	1.064493	0.000126
 162	1.6020e+01	6.3913	26.396812	0.000527	5.270229	1.785602	0.000211
 163	1.6119e+01	6.4394	26.550223	0.000385	3.851321	1.304863	0.000154
 164	1.6218e+01	6.4715	26.691523	0.000355	3.547269	1.201847	0.000142
 165	1.6318e+01	6.5260	26.897417	0.000517	5.168878	1.751263	0.000207
 166	1.6418e+01	6.5517	27.075051	0.000446	4.459424	1.510894	0.000179
 167	1.6517e+01	6.5966	27.204239	0.000324	3.243218	1.098832	0.000130
 168	1.6616e+01	6.6255	27.410133	0.000517	5.168878	1.751263	0.000207
 169	1.6716e+01	6.6752	27.599878	0.000476	4.763476	1.613909	0.000191
 170	1.6816e+01	6.7105	27.716955	0.000294	2.939166	0.995816	0.000118
 171	1.6915e+01	6.7570	27.890552	0.000436	4.358074	1.476555	0.000174
 172	1.7015e+01	6.7923	28.064149	0.000436	4.358074	1.476555	0.000174
 173	1.7114e+01	6.8372	28.209486	0.000365	3.648620	1.236186	0.000146
 174	1.7213e+01	6.8822	28.395194	0.000466	4.662125	1.579571	0.000187
 175	1.7313e+01	6.9094	28.552643	0.000395	3.952671	1.339201	0.000158
 176	1.7413e+01	6.9495	28.786796	0.000588	5.878332	1.991633	0.000235
 177	1.7512e+01	6.9912	28.928096	0.000355	3.547269	1.201847	0.000142
 178	1.7611e+01	7.0314	29.125916	0.000497	4.966177	1.682586	0.000199
 179	1.7711e+01	7.0634	29.242993	0.000294	2.939166	0.995816	0.000118
 180	1.7811e+01	7.1164	29.408515	0.000416	4.155373	1.407878	0.000166
 181	1.7910e+01	7.1565	29.618446	0.000527	5.270229	1.785602	0.000211
 182	1.8009e+01	7.1934	29.743598	0.000314	3.141867	1.064493	0.000126
 183	1.8109e+01	7.2367	29.953529	0.000527	5.270229	1.785602	0.000211
 184	1.8209e+01	7.2688	30.106940	0.000385	3.851321	1.304863	0.000154
 185	1.8308e+01	7.3185	30.284574	0.000446	4.459424	1.510894	0.000179
 186	1.8407e+01	7.3490	30.454133	0.000426	4.256723	1.442217	0.000170
 187	1.8507e+01	7.3907	30.619656	0.000416	4.155373	1.407878	0.000166
 188	1.8607e+01	7.4388	30.777104	0.000395	3.952671	1.339201	0.000158
 189	1.8706e+01	7.4789	30.974924	0.000497	4.966177	1.682586	0.000199
 190	1.8805e+01	7.5158	31.128335	0.000385	3.851321	1.304863	0.000154
 191	1.8905e+01	7.5527	31.326155	0.000497	4.966177	1.682586	0.000199
 192	1.9005e+01	7.5880	31.479566	0.000385	3.851321	1.304863	0.000154
 193	1.9104e+01	7.6249	31.645088	0.000416	4.155373	1.407878	0.000166
 194	1.9203e+01	7.6650	31.814648	0.000426	4.256723	1.442217	0.000170
 195	1.9303e+01	7.7099	31.996319	0.000456	4.560775	1.545232	0.000183
 196	1.9402e+01	7.7517	32.182028	0.000466	4.662125	1.579571	0.000187
 197	1.9502e+01	7.7934	32.335439	0.000385	3.851321	1.304863	0.000154
 198	1.9602e+01	7.8383	32.500961	0.000416	4.155373	1.407878	0.000166
 199	1.9701e+01	7.8768	32.690707	0.000476	4.763476	1.613909	0.000191
 200	1.9800e+01	7.9089	32.888526	0.000497	4.966177	1.682586	0.000199
 201	1.9900e+01	7.9490	32.997529	0.000274	2.736465	0.927139	0.000110
 202	2.0000e+01	8.0003	33.187274	0.000476	4.763476	1.613909	0.000191
 203	2.0099e+01	8.0308	33.364908	0.000446	4.459424	1.510894	0.000179
 204	2.0198e+01	8.0693	33.518319	0.000385	3.851321	1.304863	0.000154
 205	2.0298e+01	8.1046	33.667693	0.000375	3.749970	1.270524	0.000150
 206	2.0398e+01	8.1527	33.893773	0.000568	5.675631	1.922956	0.000227
 207	2.0497e+01	8.1928	34.035073	0.000355	3.547269	1.201847	0.000142
 208	2.0596e+01	8.2297	34.176373	0.000355	3.547269	1.201847	0.000142
 209	2.0696e+01	8.2714	34.349969	0.000436	4.358074	1.476555	0.000174
 210	2.0796e+01	8.3051	34.576049	0.000568	5.675631	1.922956	0.000227
 211	2.0895e+01	8.3468	34.701200	0.000314	3.141867	1.064493	0.000126
 212	2.0994e+01	8.3933	34.890946	0.000476	4.763476	1.613909	0.000191
 213	2.1094e+01	8.4206	35.036283	0.000365	3.648620	1.236186	0.000146
 214	2.1194e+01	8.4720	35.221991	0.000466	4.662125	1.579571	0.000187
 215	2.1293e+01	8.5105	35.399625	0.000446	4.459424	1.510894	0.000179
 216	2.1392e+01	8.5538	35.573222	0.000436	4.358074	1.476555	0.000174
 217	2.1492e+01	8.5810	35.746818	0.000436	4.358074	1.476555	0.000174
 218	2.1591e+01	8.6308	35.880044	0.000334	3.344568	1.133170	0.000134
 219	2.1691e+01	8.6661	36.073826	0.000486	4.864826	1.648248	0.000195
 220	2.1791e+01	8.7094	36.287795	0.000537	5.371579	1.819940	0.000215
 221	2.1890e+01	8.7463	36.421020	0.000334	3.344568	1.133170	0.000134
 222	2.1989e+01	8.7880	36.594617	0.000436	4.358074	1.476555	0.000174
 223	2.2089e+01	8.8137	36.792437	0.000497	4.966177	1.682586	0.000199
 224	2.2189e+01	8.8650	36.933736	0.000355	3.547269	1.201847	0.000142
 225	2.2288e+01	8.9083	37.091185	0.000395	3.952671	1.339201	0.000158
 226	2.2387e+01	8.9388	37.260744	0.000426	4.256723	1.442217	0.000170
 227	2.2487e+01	8.9869	37.434341	0.000436	4.358074	1.476555	0.000174
 228	2.2587e+01	9.0238	37.648309	0.000537	5.371579	1.819940	0.000215
 229	2.2686e+01	9.0735	37.809795	0.000405	4.054022	1.373540	0.000162
 230	2.2785e+01	9.1056	37.987429	0.000446	4.459424	1.510894	0.000179
 231	2.2885e+01	9.1473	38.144877	0.000395	3.952671	1.339201	0.000158
 232	2.2985e+01	9.1874	38.306362	0.000405	4.054022	1.373540	0.000162
 233	2.3084e+01	9.2227	38.496108	0.000476	4.763476	1.613909	0.000191
 234	2.3183e+01	9.2660	38.657593	0.000405	4.054022	1.373540	0.000162
 235	2.3283e+01	9.3078	38.863487	0.000517	5.168878	1.751263	0.000207
 236	2.3383e+01	9.3463	38.972490	0.000274	2.736465	0.927139	0.000110
 237	2.3482e+01	9.3799	39.170309	0.000497	4.966177	1.682586	0.000199
 238	2.3581e+01	9.4361	39.339869	0.000426	4.256723	1.442217	0.000170
 239	2.3681e+01	9.4634	39.517503	0.000446	4.459424	1.510894	0.000179
 240	2.3780e+01	9.4922	39.711286	0.000486	4.864826	1.648248	0.000195
 241	2.3880e+01	9.5436	39.876808	0.000416	4.155373	1.407878	0.000166
 242	2.3980e+01	9.5821	40.042331	0.000416	4.155373	1.407878	0.000166
 243	2.4079e+01	9.6286	40.187668	0.000365	3.648620	1.236186	0.000146
 244	2.4178e+01	9.6639	40.373376	0.000466	4.662125	1.579571	0.000187
 245	2.4278e+01	9.7072	40.546973	0.000436	4.358074	1.476555	0.000174
 246	2.4378e+01	9.7457	40.716532	0.000426	4.256723	1.442217	0.000170
 247	2.4477e+01	9.7762	40.894166	0.000446	4.459424	1.510894	0.000179
 248	2.4576e+01	9.8163	41.043540	0.000375	3.749970	1.270524	0.000150
 249	2.4676e+01	9.8612	41.188877	0.000365	3.648620	1.236186	0.000146
 250	2.4776e+01	9.8981	41.406883	0.000547	5.472930	1.854279	0.000219
 251	2.4875e+01	9.9462	41.527997	0.000304	3.040516	1.030155	0.000122
 252	2.4974e+01	9.9783	41.709668	0.000456	4.560775	1.545232	0.000183
 253	2.5074e+01	10.0184	41.850968	0.000355	3.547269	1.201847	0.000142
 254	2.5174e+01	10.0537	42.036676	0.000466	4.662125	1.579571	0.000187
 255	2.5273e+01	10.1083	42.246607	0.000527	5.270229	1.785602	0.000211
 256	2.5372e+01	10.1436	42.375795	0.000324	3.243218	1.098832	0.000130
 257	2.5472e+01	10.1869	42.533244	0.000395	3.952671	1.339201	0.000158
 258	2.5572e+01	10.2093	42.727026	0.000486	4.864826	1.648248	0.000195
 259	2.5671e+01	10.2575	42.872363	0.000365	3.648620	1.236186	0.000146
 260	2.5770e+01	10.3008	43.058071	0.000466	4.662125	1.579571	0.000187
 261	2.5870e+01	10.3457	43.211482	0.000385	3.851321	1.304863	0.000154
 262	2.5970e+01	10.3778	43.389116	0.000446	4.459424	1.510894	0.000179
 263	2.6069e+01	10.4147	43.542528	0.000385	3.851321	1.304863	0.000154
 264	2.6169e+01	10.4564	43.716124	0.000436	4.358074	1.476555	0.000174
 265	2.6268e+01	10.5109	43.861461	0.000365	3.648620	1.236186	0.000146
 266	2.6367e+01	10.5446	44.031021	0.000426	4.256723	1.442217	0.000170
 267	2.6467e+01	10.5815	44.208655	0.000446	4.459424	1.510894	0.000179
 268	2.6567e+01	10.6152	44.374177	0.000416	4.155373	1.407878	0.000166
 269	2.6666e+01	10.6698	44.551811	0.000446	4.459424	1.510894	0.000179
 270	2.6765e+01	10.6954	44.717334	0.000416	4.155373	1.407878	0.000166
 271	2.6865e+01	10.7323	44.834411	0.000294	2.939166	0.995816	0.000118
 272	2.6965e+01	10.7692	45.036268	0.000507	5.067527	1.716925	0.000203
 273	2.7064e+01	10.8238	45.189679	0.000385	3.851321	1.304863	0.000154
 274	2.7163e+01	10.8639	45.363276	0.000436	4.358074	1.476555	0.000174
 275	2.7263e+01	10.8959	45.492464	0.000324	3.243218	1.098832	0.000130
 276	2.7363e+01	10.9377	45.682209	0.000476	4.763476	1.613909	0.000191
 277	2.7462e+01	10.9826	45.859843	0.000446	4.459424	1.510894	0.000179
 278	2.7561e+01	11.0227	46.013255	0.000385	3.851321	1.304863	0.000154
 279	2.7661e+01	11.0500	46.174740	0.000405	4.054022	1.373540	0.000162
 280	2.7761e+01	11.0997	46.344300	0.000426	4.256723	1.442217	0.000170
 281	2.7860e+01	11.1398	46.513859	0.000426	4.256723	1.442217	0.000170
 282	2.7959e+01	11.1751	46.695531	0.000456	4.560775	1.545232	0.000183
 283	2.8059e+01	11.2200	46.857016	0.000405	4.054022	1.373540	0.000162
 284	2.8159e+01	11.2617	46.990241	0.000334	3.344568	1.133170	0.000134
 285	2.8258e+01	11.2954	47.111355	0.000304	3.040516	1.030155	0.000122
 286	2.8358e+01	11.3387	47.329361	0.000547	5.472930	1.854279	0.000219
 287	2.8457e+01	11.3772	47.494883	0.000416	4.155373	1.407878	0.000166
 288	2.8556e+01	11.4093	47.660406	0.000416	4.155373	1.407878	0.000166
 289	2.8656e+01	11.4655	47.813817	0.000385	3.851321	1.304863	0.000154
 290	2.8756e+01	11.4959	47.959154	0.000365	3.648620	1.236186	0.000146
 291	2.8855e+01	11.5328	48.112565	0.000385	3.851321	1.304863	0.000154
 292	2.8954e+01	11.5665	48.294236	0.000456	4.560775	1.545232	0.000183
 293	2.9054e+01	11.6162	48.471870	0.000446	4.459424	1.510894	0.000179
 294	2.9154e+01	11.6531	48.609133	0.000345	3.445919	1.167509	0.000138
 295	2.9253e+01	11.6884	48.750433	0.000355	3.547269	1.201847	0.000142
 296	2.9352e+01	11.7382	48.952289	0.000507	5.067527	1.716925	0.000203
 297	2.9452e+01	11.7799	49.117812	0.000416	4.155373	1.407878	0.000166
 298	2.9552e+01	11.8136	49.230852	0.000284	2.837815	0.961478	0.000114
 299	2.9651e+01	11.8585	49.436746	0.000517	5.168878	1.751263	0.000207
 300	2.9750e+01	11.8922	49.626491	0.000476	4.763476	1.613909	0.000191
 301	2.9850e+01	11.9243	49.775865	0.000375	3.749970	1.270524	0.000150
 302	2.9950e+01	11.9772	49.901016	0.000314	3.141867	1.064493	0.000126
 303	3.0049e+01	12.0173	50.090762	0.000476	4.763476	1.613909	0.000191
 304	3.0148e+01	12.0558	50.260321	0.000426	4.256723	1.442217	0.000170
 305	3.0248e+01	12.0991	50.413733	0.000385	3.851321	1.304863	0.000154
 306	3.0348e+01	12.1312	50.546958	0.000334	3.344568	1.133170	0.000134
 307	3.0447e+01	12.1713	50.752852	0.000517	5.168878	1.751263	0.000207
 308	3.0547e+01	12.2210	50.882040	0.000324	3.243218	1.098832	0.000130
 309	3.0646e+01	12.2483	51.039489	0.000395	3.952671	1.339201	0.000158
 310	3.0745e+01	12.2852	51.192900	0.000385	3.851321	1.304863	0.000154
 311	3.0845e+01	12.3366	51.358422	0.000416	4.155373	1.407878	0.000166
 312	3.0945e+01	12.3799	51.491648	0.000334	3.344568	1.133170	0.000134
 313	3.1044e+01	12.4119	51.681393	0.000476	4.763476	1.613909	0.000191
 314	3.1143e+01	12.4488	51.822693	0.000355	3.547269	1.201847	0.000142
 315	3.1243e+01	12.4970	51.963993	0.000355	3.547269	1.201847	0.000142
 316	3.1343e+01	12.5371	52.153738	0.000476	4.763476	1.613909	0.000191
 317	3.1442e+01	12.5724	52.295038	0.000355	3.547269	1.201847	0.000142
 318	3.1541e+01	12.6157	52.448449	0.000385	3.851321	1.304863	0.000154
 319	3.1641e+01	12.6526	52.613972	0.000416	4.155373	1.407878	0.000166
 320	3.1741e+01	12.6991	52.775457	0.000405	4.054022	1.373540	0.000162
 321	3.1840e+01	12.7328	52.916757	0.000355	3.547269	1.201847	0.000142
 322	3.1939e+01	12.7777	53.045945	0.000324	3.243218	1.098832	0.000130
 323	3.2039e+01	12.8050	53.247802	0.000507	5.067527	1.716925	0.000203
 324	3.2139e+01	12.8467	53.417362	0.000426	4.256723	1.442217	0.000170
 325	3.2238e+01	12.8916	53.542513	0.000314	3.141867	1.064493	0.000126
 326	3.2337e+01	12.9285	53.732258	0.000476	4.763476	1.613909	0.000191
 327	3.2437e+01	12.9622	53.893744	0.000405	4.054022	1.373540	0.000162
 328	3.2536e+01	12.9991	54.018895	0.000314	3.141867	1.064493	0.000126
 329	3.2636e+01	13.0456	54.192492	0.000436	4.358074	1.476555	0.000174
 330	3.2736e+01	13.0873	54.313606	0.000304	3.040516	1.030155	0.000122
 331	3.2835e+01	13.1322	54.503351	0.000476	4.763476	1.613909	0.000191
 332	3.2934e+01	13.1691	54.668874	0.000416	4.155373	1.407878	0.000166
 333	3.3034e+01	13.2044	54.834396	0.000416	4.155373	1.407878	0.000166
 334	3.3133e+01	13.2462	54.991844	0.000395	3.952671	1.339201	0.000158
 335	3.3233e+01	13.2863	55.137181	0.000365	3.648620	1.236186	0.000146
 336	3.3333e+01	13.3360	55.274444	0.000345	3.445919	1.167509	0.000138
 337	3.3432e+01	13.3665	55.488412	0.000537	5.371579	1.819940	0.000215
 338	3.3532e+01	13.4114	55.653935	0.000416	4.155373	1.407878	0.000166
 339	3.3631e+01	13.4435	55.771012	0.000294	2.939166	0.995816	0.000118
 340	3.3730e+01	13.4900	55.944608	0.000436	4.358074	1.476555	0.000174
 341	3.3830e+01	13.5397	56.146465	0.000507	5.067527	1.716925	0.000203
 342	3.3929e+01	13.5670	56.307951	0.000405	4.054022	1.373540	0.000162
 343	3.4029e+01	13.6103	56.469436	0.000405	4.054022	1.373540	0.000162
 344	3.4129e+01	13.6504	56.614773	0.000365	3.648620	1.236186	0.000146
 345	3.4228e+01	13.6793	56.756073	0.000355	3.547269	1.201847	0.000142
 346	3.4328e+01	13.7322	56.982152	0.000568	5.675631	1.922956	0.000227
 347	3.4427e+01	13.7691	57.091155	0.000274	2.736465	0.927139	0.000110
 348	3.4526e+01	13.8092	57.232455	0.000355	3.547269	1.201847	0.000142
 349	3.4626e+01	13.8413	57.406052	0.000436	4.358074	1.476555	0.000174
 350	3.4725e+01	13.8862	57.595797	0.000476	4.763476	1.613909	0.000191
 351	3.4825e+01	13.9167	57.753245	0.000395	3.952671	1.339201	0.000158
 352	3.4925e+01	13.9697	57.874359	0.000304	3.040516	1.030155	0.000122
 353	3.5024e+01	14.0017	58.051993	0.000446	4.459424	1.510894	0.000179
 354	3.5123e+01	14.0418	58.209442	0.000395	3.952671	1.339201	0.000158
 355	3.5223e+01	14.0852	58.379001	0.000426	4.256723	1.442217	0.000170
 356	3.5322e+01	14.1189	58.532412	0.000385	3.851321	1.304863	0.000154
 357	3.5422e+01	14.1606	58.706009	0.000436	4.358074	1.476555	0.000174
 358	3.5522e+01	14.2119	58.875569	0.000426	4.256723	1.442217	0.000170
 359	3.5621e+01	14.2376	59.024943	0.000375	3.749970	1.270524	0.000150
 360	3.5721e+01	14.2841	59.166243	0.000355	3.547269	1.201847	0.000142
 361	3.5820e+01	14.3274	59.311580	0.000365	3.648620	1.236186	0.000146
 362	3.5919e+01	14.3627	59.489214	0.000446	4.459424	1.510894	0.000179
 363	3.6019e+01	14.4108	59.674922	0.000466	4.662125	1.579571	0.000187
 364	3.6118e+01	14.4413	59.852556	0.000446	4.459424	1.510894	0.000179
 365	3.6218e+01	14.4846	59.993856	0.000355	3.547269	1.201847	0.000142
 366	3.6318e+01	14.5311	60.147267	0.000385	3.851321	1.304863	0.000154
 367	3.6417e+01	14.5664	60.300678	0.000385	3.851321	1.304863	0.000154
 368	3.6517e+01	14.6065	60.454089	0.000385	3.851321	1.304863	0.000154
 369	3.6616e+01	14.6466	60.611537	0.000395	3.952671	1.339201	0.000158
 370	3.6715e+01	14.6835	60.785134	0.000436	4.358074	1.476555	0.000174
 371	3.6815e+01	14.7188	60.954694	0.000426	4.256723	1.442217	0.000170
 372	3.6914e+01	14.7605	61.116179	0.000405	4.054022	1.373540	0.000162
 373	3.7014e+01	14.8023	61.237293	0.000304	3.040516	1.030155	0.000122
 374	3.7114e+01	14.8456	61.451262	0.000537	5.371579	1.819940	0.000215
 375	3.7213e+01	14.8825	61.556227	0.000264	2.635114	0.892801	0.000105
 376	3.7313e+01	14.9322	61.729824	0.000436	4.358074	1.476555	0.000174
 377	3.7412e+01	14.9611	61.903421	0.000436	4.358074	1.476555	0.000174
 378	3.7511e+01	15.0092	62.081055	0.000446	4.459424	1.510894	0.000179
 379	3.7611e+01	15.0461	62.234466	0.000385	3.851321	1.304863	0.000154
 380	3.7711e+01	15.0814	62.408063	0.000436	4.358074	1.476555	0.000174
 381	3.7810e+01	15.1103	62.557437	0.000375	3.749970	1.270524	0.000150
 382	3.7910e+01	15.1552	62.690662	0.000334	3.344568	1.133170	0.000134
 383	3.8009e+01	15.2001	62.880408	0.000476	4.763476	1.613909	0.000191
 384	3.8108e+01	15.2402	63.009596	0.000324	3.243218	1.098832	0.000130
 385	3.8208e+01	15.2803	63.187230	0.000446	4.459424	1.510894	0.000179
 386	3.8307e+01	15.3236	63.340641	0.000385	3.851321	1.304863	0.000154
 387	3.8407e+01	15.3557	63.506164	0.000416	4.155373	1.407878	0.000166
 388	3.8507e+01	15.4006	63.667649	0.000405	4.054022	1.373540	0.000162
 389	3.8606e+01	15.4311	63.837209	0.000426	4.256723	1.442217	0.000170
 390	3.8706e+01	15.4712	63.990620	0.000385	3.851321	1.304863	0.000154
 391	3.8805e+01	15.5210	64.152105	0.000405	4.054022	1.373540	0.000162
 392	3.8904e+01	15.5611	64.309554	0.000395	3.952671	1.339201	0.000158
 393	3.9004e+01	15.6108	64.507373	0.000497	4.966177	1.682586	0.000199
 394	3.9103e+01	15.6509	64.636562	0.000324	3.243218	1.098832	0.000130
 395	3.9203e+01	15.6798	64.822270	0.000466	4.662125	1.579571	0.000187
 396	3.9303e+01	15.7135	64.999904	0.000446	4.459424	1.510894	0.000179
 397	3.9402e+01	15.7664	65.133129	0.000334	3.344568	1.133170	0.000134
 398	3.9502e+01	15.8033	65.266355	0.000334	3.344568	1.133170	0.000134
 399	3.9601e+01	15.8402	65.484360	0.000547	5.472930	1.854279	0.000219
 400	3.9700e+01	15.8867	65.593363	0.000274	2.736465	0.927139	0.000110
 401	3.9800e+01	15.9172	65.758885	0.000416	4.155373	1.407878	0.000166
 402	3.9900e+01	15.9589	65.916334	0.000395	3.952671	1.339201	0.000158
 403	3.9999e+01	15.9990	66.085893	0.000426	4.256723	1.442217	0.000170
 404	4.0099e+01	16.0439	66.263527	0.000446	4.459424	1.510894	0.000179
 405	4.0198e+01	16.0792	66.433087	0.000426	4.256723	1.442217	0.000170
 406	4.0297e+01	16.1209	66.582461	0.000375	3.749970	1.270524	0.000150
 407	4.0397e+01	16.1610	66.739909	0.000395	3.952671	1.339201	0.000158
 408	4.0496e+01	16.2011	66.901395	0.000405	4.054022	1.373540	0.000162
 409	4.0596e+01	16.2396	67.046732	0.000365	3.648620	1.236186	0.000146
 410	4.0696e+01	16.2765	67.244551	0.000497	4.966177	1.682586	0.000199
 411	4.0795e+01	16.3134	67.365665	0.000304	3.040516	1.030155	0.000122
 412	4.0895e+01	16.3568	67.531188	0.000416	4.155373	1.407878	0.000166
 413	4.0994e+01	16.3937	67.676525	0.000365	3.648620	1.236186	0.000146
 414	4.1093e+01	16.4354	67.866270	0.000476	4.763476	1.613909	0.000191
 415	4.1193e+01	16.4723	68.019681	0.000385	3.851321	1.304863	0.000154
 416	4.1292e+01	16.5172	68.148870	0.000324	3.243218	1.098832	0.000130
 417	4.1392e+01	16.5541	68.326504	0.000446	4.459424	1.510894	0.000179
 418	4.1492e+01	16.5942	68.492026	0.000416	4.155373	1.407878	0.000166
 419	4.1591e+01	16.6279	68.629289	0.000345	3.445919	1.167509	0.000138
 420	4.1691e+01	16.6776	68.823071	0.000486	4.864826	1.648248	0.000195
 421	4.1790e+01	16.7177	68.924000	0.000253	2.533764	0.858462	0.000101
 422	4.1889e+01	16.7578	69.097597	0.000436	4.358074	1.476555	0.000174
 423	4.1989e+01	16.7947	69.275231	0.000446	4.459424	1.510894	0.000179
 424	4.2089e+01	16.8316	69.412493	0.000345	3.445919	1.167509	0.000138
 425	4.2188e+01	16.8717	69.561867	0.000375	3.749970	1.270524	0.000150
 426	4.2288e+01	16.9102	69.735464	0.000436	4.358074	1.476555	0.000174
 427	4.2387e+01	16.9503	69.896950	0.000405	4.054022	1.373540	0.000162
 428	4.2486e+01	16.9856	70.001915	0.000264	2.635114	0.892801	0.000105
 429	4.2586e+01	17.0225	70.191661	0.000476	4.763476	1.613909	0.000191
 430	4.2685e+01	17.0738	70.349109	0.000395	3.952671	1.339201	0.000158
 431	4.2785e+01	17.1140	70.530780	0.000456	4.560775	1.545232	0.000183
 432	4.2885e+01	17.1525	70.619597	0.000223	2.229712	0.755447	0.000089
 433	4.2984e+01	17.1861	70.805305	0.000466	4.662125	1.579571	0.000187
 434	4.3084e+01	17.2391	70.974865	0.000426	4.256723	1.442217	0.000170
 435	4.3183e+01	17.2744	71.112127	0.000345	3.445919	1.167509	0.000138
 436	4.3282e+01	17.3065	71.293799	0.000456	4.560775	1.545232	0.000183
 437	4.3382e+01	17.3466	71.435098	0.000355	3.547269	1.201847	0.000142
 438	4.3481e+01	17.3931	71.556212	0.000304	3.040516	1.030155	0.000122
 439	4.3581e+01	17.4364	71.749995	0.000486	4.864826	1.648248	0.000195
 440	4.3681e+01	17.4765	71.887258	0.000345	3.445919	1.167509	0.000138
 441	4.3780e+01	17.5102	72.052780	0.000416	4.155373	1.407878	0.000166
 442	4.3880e+01	17.5439	72.181968	0.000324	3.243218	1.098832	0.000130
 443	4.3979e+01	17.5952	72.347491	0.000416	4.155373	1.407878	0.000166
 444	4.4078e+01	17.6369	72.521088	0.000436	4.358074	1.476555	0.000174
 445	4.4178e+01	17.6802	72.674499	0.000385	3.851321	1.304863	0.000154
 446	4.4278e+01	17.7107	72.811762	0.000345	3.445919	1.167509	0.000138
 447	4.4377e+01	17.7476	72.961136	0.000375	3.749970	1.270524	0.000150
 448	4.4477e+01	17.7925	73.150881	0.000476	4.763476	1.613909	0.000191
 449	4.4576e+01	17.8278	73.288144	0.000345	3.445919	1.167509	0.000138
 450	4.4675e+01	17.8663	73.421369	0.000334	3.344568	1.133170	0.000134
 451	4.4775e+01	17.9145	73.558632	0.000345	3.445919	1.167509	0.000138
 452	4.4874e+01	17.9578	73.748377	0.000476	4.763476	1.613909	0.000191
 453	4.4974e+01	17.9883	73.869491	0.000304	3.040516	1.030155	0.000122
 454	4.5074e+01	18.0252	74.014828	0.000365	3.648620	1.236186	0.000146
 455	4.5173e+01	18.0653	74.164202	0.000375	3.749970	1.270524	0.000150
 456	4.5273e+01	18.1086	74.353947	0.000476	4.763476	1.613909	0.000191
 457	4.5372e+01	18.1471	74.535619	0.000456	4.560775	1.545232	0.000183
 458	4.5471e+01	18.1856	74.672881	0.000345	3.445919	1.167509	0.000138
 459	4.5571e+01	18.2337	74.802070	0.000324	3.243218	1.098832	0.000130
 460	4.5670e+01	18.2690	74.943369	0.000355	3.547269	1.201847	0.000142
 461	4.5770e+01	18.3043	75.100818	0.000395	3.952671	1.339201	0.000158
 462	4.5870e+01	18.3444	75.246154	0.000365	3.648620	1.236186	0.000146
 463	4.5969e+01	18.3925	75.427826	0.000456	4.560775	1.545232	0.000183
 464	4.6069e+01	18.4166	75.561051	0.000334	3.344568	1.133170	0.000134
 465	4.6168e+01	18.4631	75.706388	0.000365	3.648620	1.236186	0.000146
 466	4.6267e+01	18.5112	75.847688	0.000355	3.547269	1.201847	0.000142
 467	4.6367e+01	18.5546	76.009173	0.000405	4.054022	1.373540	0.000162
 468	4.6467e+01	18.5898	76.142399	0.000334	3.344568	1.133170	0.000134
 469	4.6566e+01	18.6284	76.360404	0.000547	5.472930	1.854279	0.000219
 470	4.6666e+01	18.6765	76.489592	0.000324	3.243218	1.098832	0.000130
 471	4.6765e+01	18.7070	76.643003	0.000385	3.851321	1.304863	0.000154
 472	4.6864e+01	18.7423	76.760080	0.000294	2.939166	0.995816	0.000118
 473	4.6964e+01	18.7920	76.909454	0.000375	3.749970	1.270524	0.000150
 474	4.7063e+01	18.8257	77.095163	0.000466	4.662125	1.579571	0.000187
 475	4.7163e+01	18.8610	77.244537	0.000375	3.749970	1.270524	0.000150
 476	4.7263e+01	18.9091	77.369688	0.000314	3.141867	1.064493	0.000126
 477	4.7362e+01	18.9492	77.515025	0.000365	3.648620	1.236186	0.000146
 478	4.7462e+01	18.9941	77.712844	0.000497	4.966177	1.682586	0.000199
 479	4.7561e+01	19.0214	77.821847	0.000274	2.736465	0.927139	0.000110
 480	4.7660e+01	19.0743	77.991407	0.000426	4.256723	1.442217	0.000170
 481	4.7760e+01	19.0968	78.112521	0.000304	3.040516	1.030155	0.000122
 482	4.7859e+01	19.1481	78.269969	0.000395	3.952671	1.339201	0.000158
 483	4.7959e+01	19.1850	78.439529	0.000426	4.256723	1.442217	0.000170
 484	4.8059e+01	19.2315	78.564680	0.000314	3.141867	1.064493	0.000126
 485	4.8158e+01	19.2668	78.693868	0.000324	3.243218	1.098832	0.000130
 486	4.8258e+01	19.3118	78.851317	0.000395	3.952671	1.339201	0.000158
 487	4.8357e+01	19.3535	78.988579	0.000345	3.445919	1.167509	0.000138
 488	4.8456e+01	19.3904	79.137953	0.000375	3.749970	1.270524	0.000150
 489	4.8556e+01	19.4208	79.267142	0.000324	3.243218	1.098832	0.000130
 490	4.8656e+01	19.4577	79.464961	0.000497	4.966177	1.682586	0.000199
 491	4.8755e+01	19.5091	79.602224	0.000345	3.445919	1.167509	0.000138
 492	4.8855e+01	19.5428	79.719301	0.000294	2.939166	0.995816	0.000118
 493	4.8954e+01	19.5845	79.896935	0.000446	4.459424	1.510894	0.000179
 494	4.9053e+01	19.6198	80.042272	0.000365	3.648620	1.236186	0.000146
 495	4.9153e+01	19.6647	80.219906	0.000446	4.459424	1.510894	0.000179
 496	4.9252e+01	19.6952	80.373317	0.000385	3.851321	1.304863	0.000154
 497	4.9352e+01	19.7417	80.522691	0.000375	3.749970	1.270524	0.000150
 498	4.9452e+01	19.7802	80.611508	0.000223	2.229712	0.755447	0.000089
 499	4.9551e+01	19.8187	80.797216	0.000466	4.662125	1.579571	0.000187
 500	4.9651e+01	19.8588	80.946590	0.000375	3.749970	1.270524	0.000150
 501	4.9750e+01	19.9053	81.091927	0.000365	3.648620	1.236186	0.000146
 502	4.9849e+01	19.9390	81.245338	0.000385	3.851321	1.304863	0.000154
 503	4.9949e+01	19.9775	81.406824	0.000405	4.054022	1.373540	0.000162
 504	5.0048e+01	19.9438	81.305895	0.000253	2.533764	0.858462	-0.000101
 505	5.0148e+01	19.8973	81.209004	0.000243	2.432413	0.824124	-0.000097
 506	5.0248e+01	19.8556	81.112113	0.000243	2.432413	0.824124	-0.000097
 507	5.0347e+01	19.8155	81.007147	0.000264	2.635114	0.892801	-0.000105
 508	5.0447e+01	19.7818	80.894107	0.000284	2.837815	0.961478	-0.000114
 509	5.0546e+01	19.7465	80.781068	0.000284	2.837815	0.961478	-0.000114
 510	5.0645e+01	19.6887	80.627656	0.000385	3.851321	1.304863	-0.000154
 511	5.0745e+01	19.6711	80.567099	0.000152	1.520258	0.515077	-0.000061
 512	5.0844e+01	19.6198	80.458097	0.000274	2.736465	0.927139	-0.000110
 513	5.0944e+01	19.5829	80.345057	0.000284	2.837815	0.961478	-0.000114
 514	5.1044e+01	19.5347	80.232017	0.000284	2.837815	0.961478	-0.000114
 515	5.1143e+01	19.4994	80.094754	0.000345	3.445919	1.167509	-0.000138
 516	5.1242e+01	19.4577	80.009975	0.000213	2.128362	0.721108	-0.000085
 517	5.1342e+01	19.4176	79.868675	0.000355	3.547269	1.201847	-0.000142
 518	5.1441e+01	19.3920	79.755635	0.000284	2.837815	0.961478	-0.000114
 519	5.1541e+01	19.3454	79.654707	0.000253	2.533764	0.858462	-0.000101
 520	5.1641e+01	19.3150	79.513407	0.000355	3.547269	1.201847	-0.000142
 521	5.1740e+01	19.2620	79.384219	0.000324	3.243218	1.098832	-0.000130
 522	5.1840e+01	19.2299	79.275216	0.000274	2.736465	0.927139	-0.000110
 523	5.1939e+01	19.1770	79.178325	0.000243	2.432413	0.824124	-0.000097
 524	5.2038e+01	19.1417	79.053173	0.000314	3.141867	1.064493	-0.000126
 525	5.2138e+01	19.1096	78.936097	0.000294	2.939166	0.995816	-0.000118
 526	5.2237e+01	19.0695	78.806908	0.000324	3.243218	1.098832	-0.000130
 527	5.2337e+01	19.0278	78.718091	0.000223	2.229712	0.755447	-0.000089
 528	5.2437e+01	18.9909	78.556606	0.000405	4.054022	1.373540	-0.000162
 529	5.2536e+01	18.9396	78.447603	0.000274	2.736465	0.927139	-0.000110
 530	5.2636e+01	18.9107	78.334563	0.000284	2.837815	0.961478	-0.000114
 531	5.2735e+01	18.8690	78.209412	0.000314	3.141867	1.064493	-0.000126
 532	5.2834e+01	18.8273	78.096372	0.000284	2.837815	0.961478	-0.000114
 533	5.2934e+01	18.7872	77.955073	0.000355	3.547269	1.201847	-0.000142
 534	5.3033e+01	18.7503	77.850107	0.000264	2.635114	0.892801	-0.000105
 535	5.3133e+01	18.7070	77.692659	0.000395	3.952671	1.339201	-0.000158
 536	5.3233e+01	18.6701	77.583656	0.000274	2.736465	0.927139	-0.000110
 537	5.3332e+01	18.6300	77.462542	0.000304	3.040516	1.030155	-0.000122
 538	5.3431e+01	18.5818	77.349502	0.000284	2.837815	0.961478	-0.000114
 539	5.3531e+01	18.5465	77.224351	0.000314	3.141867	1.064493	-0.000126
 540	5.3630e+01	18.5112	77.046717	0.000446	4.459424	1.510894	-0.000179
 541	5.3730e+01	18.4679	76.961937	0.000213	2.128362	0.721108	-0.000085
 542	5.3830e+01	18.4294	76.832749	0.000324	3.243218	1.098832	-0.000130
 543	5.3929e+01	18.3925	76.727783	0.000264	2.635114	0.892801	-0.000105
 544	5.4029e+01	18.3428	76.614743	0.000284	2.837815	0.961478	-0.000114
 545	5.4128e+01	18.3027	76.453258	0.000405	4.054022	1.373540	-0.000162
 546	5.4227e+01	18.2706	76.348293	0.000264	2.635114	0.892801	-0.000105
 547	5.4327e+01	18.2369	76.219104	0.000324	3.243218	1.098832	-0.000130
 548	5.4426e+01	18.1904	76.093953	0.000314	3.141867	1.064493	-0.000126
 549	5.4526e+01	18.1519	75.980913	0.000284	2.837815	0.961478	-0.000114
 550	5.4626e+01	18.1086	75.843651	0.000345	3.445919	1.167509	-0.000138
 551	5.4725e+01	18.0588	75.710425	0.000334	3.344568	1.133170	-0.000134
 552	5.4825e+01	18.0316	75.581237	0.000324	3.243218	1.098832	-0.000130
 553	5.4924e+01	17.9963	75.456086	0.000314	3.141867	1.064493	-0.000126
 554	5.5023e+01	17.9466	75.330934	0.000314	3.141867	1.064493	-0.000126
 555	5.5123e+01	17.9032	75.197709	0.000334	3.344568	1.133170	-0.000134
 556	5.5222e+01	17.8663	75.048335	0.000375	3.749970	1.270524	-0.000150
 557	5.5322e+01	17.8343	74.923184	0.000314	3.141867	1.064493	-0.000126
 558	5.5422e+01	17.7925	74.798032	0.000314	3.141867	1.064493	-0.000126
 559	5.5521e+01	17.7444	74.693067	0.000264	2.635114	0.892801	-0.000105
 560	5.5620e+01	17.7155	74.571953	0.000304	3.040516	1.030155	-0.000122
 561	5.5720e+01	17.6802	74.406430	0.000416	4.155373	1.407878	-0.000166
 562	5.5819e+01	17.6337	74.317613	0.000223	2.229712	0.755447	-0.000089
 563	5.5919e+01	17.5936	74.160165	0.000395	3.952671	1.339201	-0.000158
 564	5.6019e+01	17.5455	74.014828	0.000365	3.648620	1.236186	-0.000146
 565	5.6118e+01	17.5166	73.950234	0.000162	1.621609	0.549416	-0.000065
 566	5.6218e+01	17.4813	73.800860	0.000375	3.749970	1.270524	-0.000150
 567	5.6317e+01	17.4268	73.679746	0.000304	3.040516	1.030155	-0.000122
 568	5.6416e+01	17.3963	73.554595	0.000314	3.141867	1.064493	-0.000126
 569	5.6516e+01	17.3514	73.417332	0.000345	3.445919	1.167509	-0.000138
 570	5.6615e+01	17.3145	73.280069	0.000345	3.445919	1.167509	-0.000138
 571	5.6715e+01	17.2760	73.158955	0.000304	3.040516	1.030155	-0.000122
 572	5.6815e+01	17.2391	73.041878	0.000294	2.939166	0.995816	-0.000118
 573	5.6914e+01	17.1910	72.868282	0.000436	4.358074	1.476555	-0.000174
 574	5.7014e+01	17.1541	72.783502	0.000213	2.128362	0.721108	-0.000085
 575	5.7113e+01	17.1043	72.638165	0.000365	3.648620	1.236186	-0.000146
 576	5.7212e+01	17.0610	72.525125	0.000284	2.837815	0.961478	-0.000114
 577	5.7312e+01	17.0321	72.363640	0.000405	4.054022	1.373540	-0.000162
 578	5.7411e+01	16.9872	72.266748	0.000243	2.432413	0.824124	-0.000097
 579	5.7511e+01	16.9583	72.129486	0.000345	3.445919	1.167509	-0.000138
 580	5.7611e+01	16.9086	71.984149	0.000365	3.648620	1.236186	-0.000146
 581	5.7710e+01	16.8701	71.822663	0.000405	4.054022	1.373540	-0.000162
 582	5.7809e+01	16.8268	71.693475	0.000324	3.243218	1.098832	-0.000130
 583	5.7909e+01	16.7947	71.580435	0.000284	2.837815	0.961478	-0.000114
 584	5.8008e+01	16.7546	71.475470	0.000264	2.635114	0.892801	-0.000105
 585	5.8108e+01	16.7145	71.297836	0.000446	4.459424	1.510894	-0.000179
 586	5.8208e+01	16.6712	71.209019	0.000223	2.229712	0.755447	-0.000089
 587	5.8307e+01	16.6343	71.039459	0.000426	4.256723	1.442217	-0.000170
 588	5.8407e+01	16.6070	70.894122	0.000365	3.648620	1.236186	-0.000146
 589	5.8506e+01	16.5573	70.785119	0.000274	2.736465	0.927139	-0.000110
 590	5.8605e+01	16.5172	70.639783	0.000365	3.648620	1.236186	-0.000146
 591	5.8705e+01	16.4755	70.506557	0.000334	3.344568	1.133170	-0.000134
 592	5.8804e+01	16.4370	70.345072	0.000405	4.054022	1.373540	-0.000162
 593	5.8904e+01	16.3969	70.232032	0.000284	2.837815	0.961478	-0.000114
 594	5.9004e+01	16.3584	70.078621	0.000385	3.851321	1.304863	-0.000154
 595	5.9103e+01	16.3102	69.953470	0.000314	3.141867	1.064493	-0.000126
 596	5.9203e+01	16.2765	69.828318	0.000314	3.141867	1.064493	-0.000126
 597	5.9302e+01	16.2445	69.691056	0.000345	3.445919	1.167509	-0.000138
 598	5.9401e+01	16.2011	69.533607	0.000395	3.952671	1.339201	-0.000158
 599	5.9501e+01	16.1466	69.408456	0.000314	3.141867	1.064493	-0.000126
 600	5.9600e+01	16.1145	69.275231	0.000334	3.344568	1.133170	-0.000134
 601	5.9700e+01	16.0712	69.146042	0.000324	3.243218	1.098832	-0.000130
 602	5.9800e+01	16.0375	68.984557	0.000405	4.054022	1.373540	-0.000162
 603	5.9899e+01	16.0006	68.867480	0.000294	2.939166	0.995816	-0.000118
 604	5.9998e+01	15.9557	68.726180	0.000355	3.547269	1.201847	-0.000142
 605	6.0098e+01	15.9204	68.601029	0.000314	3.141867	1.064493	-0.000126
 606	6.0197e+01	15.8771	68.463766	0.000345	3.445919	1.167509	-0.000138
 607	6.0297e+01	15.8434	68.306318	0.000395	3.952671	1.339201	-0.000158
 608	6.0397e+01	15.8017	68.201353	0.000264	2.635114	0.892801	-0.000105
 609	6.0496e+01	15.7632	68.019681	0.000456	4.560775	1.545232	-0.000183
 610	6.0596e+01	15.7247	67.894530	0.000314	3.141867	1.064493	-0.000126
 611	6.0695e+01	15.6830	67.757268	0.000345	3.445919	1.167509	-0.000138
 612	6.0794e+01	15.6413	67.591745	0.000416	4.155373	1.407878	-0.000166
 613	6.0894e+01	15.6012	67.462557	0.000324	3.243218	1.098832	-0.000130
 614	6.0993e+01	15.5627	67.321257	0.000355	3.547269	1.201847	-0.000142
 615	6.1093e+01	15.5177	67.188032	0.000334	3.344568	1.133170	-0.000134
 616	6.1193e+01	15.4712	67.022509	0.000416	4.155373	1.407878	-0.000166
 617	6.1292e+01	15.4375	66.917543	0.000264	2.635114	0.892801	-0.000105
 618	6.1392e+01	15.4022	66.780281	0.000345	3.445919	1.167509	-0.000138
 619	6.1491e+01	15.3637	66.647055	0.000334	3.344568	1.133170	-0.000134
 620	6.1590e+01	15.3140	66.473458	0.000436	4.358074	1.476555	-0.000174
 621	6.1690e+01	15.2835	66.324084	0.000375	3.749970	1.270524	-0.000150
 622	6.1789e+01	15.2354	66.198933	0.000314	3.141867	1.064493	-0.000126
 623	6.1889e+01	15.2017	66.069745	0.000324	3.243218	1.098832	-0.000130
 624	6.1989e+01	15.1632	65.888074	0.000456	4.560775	1.545232	-0.000183
 625	6.2088e+01	15.1183	65.787145	0.000253	2.533764	0.858462	-0.000101
 626	6.2188e+01	15.0814	65.625660	0.000405	4.054022	1.373540	-0.000162
 627	6.2287e+01	15.0461	65.508583	0.000294	2.939166	0.995816	-0.000118
 628	6.2386e+01	14.9964	65.371320	0.000345	3.445919	1.167509	-0.000138
 629	6.2486e+01	14.9643	65.221946	0.000375	3.749970	1.270524	-0.000150
 630	6.2586e+01	14.9258	65.076610	0.000365	3.648620	1.236186	-0.000146
 631	6.2685e+01	14.8841	64.935310	0.000355	3.547269	1.201847	-0.000142
 632	6.2785e+01	14.8440	64.765750	0.000426	4.256723	1.442217	-0.000170
 633	6.2884e+01	14.7990	64.644636	0.000304	3.040516	1.030155	-0.000122
 634	6.2983e+01	14.7686	64.479113	0.000416	4.155373	1.407878	-0.000166
 635	6.3083e+01	14.7140	64.333777	0.000365	3.648620	1.236186	-0.000146
 636	6.3182e+01	14.6771	64.204588	0.000324	3.243218	1.098832	-0.000130
 637	6.3282e+01	14.6386	64.051177	0.000385	3.851321	1.304863	-0.000154
 638	6.3382e+01	14.5969	63.913914	0.000345	3.445919	1.167509	-0.000138
 639	6.3481e+01	14.5552	63.772615	0.000355	3.547269	1.201847	-0.000142
 640	6.3581e+01	14.5263	63.607092	0.000416	4.155373	1.407878	-0.000166
 641	6.3680e+01	14.4814	63.481941	0.000314	3.141867	1.064493	-0.000126
 642	6.3779e+01	14.4525	63.336604	0.000365	3.648620	1.236186	-0.000146
 643	6.3879e+01	14.4108	63.167044	0.000426	4.256723	1.442217	-0.000170
 644	6.3978e+01	14.3659	63.045930	0.000304	3.040516	1.030155	-0.000122
 645	6.4078e+01	14.3322	62.904631	0.000355	3.547269	1.201847	-0.000142
 646	6.4177e+01	14.2825	62.718922	0.000466	4.662125	1.579571	-0.000187
 647	6.4277e+01	14.2440	62.597808	0.000304	3.040516	1.030155	-0.000122
 648	6.4376e+01	14.2039	62.440360	0.000395	3.952671	1.339201	-0.000158
 649	6.4476e+01	14.1670	62.331357	0.000274	2.736465	0.927139	-0.000110
 650	6.4576e+01	14.1253	62.149686	0.000456	4.560775	1.545232	-0.000183
 651	6.4675e+01	14.0900	62.004349	0.000365	3.648620	1.236186	-0.000146
 652	6.4775e+01	14.0451	61.842864	0.000405	4.054022	1.373540	-0.000162
 653	6.4874e+01	14.0033	61.709638	0.000334	3.344568	1.133170	-0.000134
 654	6.4974e+01	13.9713	61.556227	0.000385	3.851321	1.304863	-0.000154
 655	6.5073e+01	13.9263	61.398779	0.000395	3.952671	1.339201	-0.000158
 656	6.5172e+01	13.8830	61.261516	0.000345	3.445919	1.167509	-0.000138
 657	6.5272e+01	13.8526	61.100031	0.000405	4.054022	1.373540	-0.000162
 658	6.5371e+01	13.8124	60.938545	0.000405	4.054022	1.373540	-0.000162
 659	6.5471e+01	13.7659	60.825506	0.000284	2.837815	0.961478	-0.000114
 660	6.5570e+01	13.7242	60.668057	0.000395	3.952671	1.339201	-0.000158
 661	6.5670e+01	13.6777	60.534832	0.000334	3.344568	1.133170	-0.000134
 662	6.5769e+01	13.6456	60.373346	0.000405	4.054022	1.373540	-0.000162
 663	6.5869e+01	13.6055	60.228010	0.000365	3.648620	1.236186	-0.000146
 664	6.5969e+01	13.5670	60.062487	0.000416	4.155373	1.407878	-0.000166
 665	6.6068e+01	13.5285	59.921187	0.000355	3.547269	1.201847	-0.000142
 666	6.6168e+01	13.4964	59.755665	0.000416	4.155373	1.407878	-0.000166
 667	6.6267e+01	13.4419	59.646662	0.000274	2.736465	0.927139	-0.000110
 668	6.6367e+01	13.4050	59.497288	0.000375	3.749970	1.270524	-0.000150
 669	6.6466e+01	13.3745	59.335803	0.000405	4.054022	1.373540	-0.000162
 670	6.6566e+01	13.3296	59.174317	0.000405	4.054022	1.373540	-0.000162
 671	6.6665e+01	13.2911	59.061277	0.000284	2.837815	0.961478	-0.000114
 672	6.6764e+01	13.2510	58.871532	0.000476	4.763476	1.613909	-0.000191
 673	6.6864e+01	13.2076	58.738306	0.000334	3.344568	1.133170	-0.000134
 674	6.6963e+01	13.1595	58.605081	0.000334	3.344568	1.133170	-0.000134
 675	6.7063e+01	13.1274	58.463781	0.000355	3.547269	1.201847	-0.000142
 676	6.7162e+01	13.0825	58.314407	0.000375	3.749970	1.270524	-0.000150
 677	6.7262e+01	13.0408	58.152922	0.000405	4.054022	1.373540	-0.000162
 678	6.7362e+01	13.0071	58.035845	0.000294	2.939166	0.995816	-0.000118
 679	6.7461e+01	12.9686	57.858211	0.000446	4.459424	1.510894	-0.000179
 680	6.7561e+01	12.9365	57.672503	0.000466	4.662125	1.579571	-0.000187
 681	6.7660e+01	12.8804	57.571574	0.000253	2.533764	0.858462	-0.000101
 682	6.7760e+01	12.8451	57.438349	0.000334	3.344568	1.133170	-0.000134
 683	6.7859e+01	12.8130	57.264752	0.000436	4.358074	1.476555	-0.000174
 684	6.7959e+01	12.7729	57.188046	0.000193	1.925660	0.652431	-0.000077
 685	6.8058e+01	12.7264	56.994264	0.000486	4.864826	1.648248	-0.000195
 686	6.8157e+01	12.6975	56.865075	0.000324	3.243218	1.098832	-0.000130
 687	6.8257e+01	12.6542	56.699553	0.000416	4.155373	1.407878	-0.000166
 688	6.8356e+01	12.6045	56.550179	0.000375	3.749970	1.270524	-0.000150
 689	6.8456e+01	12.5804	56.392731	0.000395	3.952671	1.339201	-0.000158
 690	6.8555e+01	12.5371	56.275654	0.000294	2.939166	0.995816	-0.000118
 691	6.8655e+01	12.4922	56.130317	0.000365	3.648620	1.236186	-0.000146
 692	6.8754e+01	12.4521	55.968831	0.000405	4.054022	1.373540	-0.000162
 693	6.8854e+01	12.4119	55.831569	0.000345	3.445919	1.167509	-0.000138
 694	6.8954e+01	12.3799	55.678158	0.000385	3.851321	1.304863	-0.000154
 695	6.9053e+01	12.3398	55.532821	0.000365	3.648620	1.236186	-0.000146
 696	6.9153e+01	12.2948	55.367298	0.000416	4.155373	1.407878	-0.000166
 697	6.9252e+01	12.2612	55.238110	0.000324	3.243218	1.098832	-0.000130
 698	6.9352e+01	12.2114	55.072587	0.000416	4.155373	1.407878	-0.000166
 699	6.9451e+01	12.1761	54.927250	0.000365	3.648620	1.236186	-0.000146
 700	6.9550e+01	12.1360	54.781913	0.000365	3.648620	1.236186	-0.000146
 701	6.9650e+01	12.0943	54.636577	0.000365	3.648620	1.236186	-0.000146
 702	6.9749e+01	12.0574	54.487202	0.000375	3.749970	1.270524	-0.000150
 703	6.9849e+01	12.0109	54.329754	0.000395	3.952671	1.339201	-0.000158
 704	6.9948e+01	11.9708	54.196529	0.000334	3.344568	1.133170	-0.000134
 705	7.0048e+01	11.9403	54.043118	0.000385	3.851321	1.304863	-0.000154
 706	7.0147e+01	11.9002	53.909892	0.000334	3.344568	1.133170	-0.000134
 707	7.0247e+01	11.8505	53.744370	0.000416	4.155373	1.407878	-0.000166
 708	7.0347e+01	11.8248	53.635367	0.000274	2.736465	0.927139	-0.000110
 709	7.0446e+01	11.7783	53.445621	0.000476	4.763476	1.613909	-0.000191
 710	7.0546e+01	11.7430	53.267987	0.000446	4.459424	1.510894	-0.000179
 711	7.0645e+01	11.7013	53.146873	0.000304	3.040516	1.030155	-0.000122
 712	7.0745e+01	11.6499	53.001537	0.000365	3.648620	1.236186	-0.000146
 713	7.0844e+01	11.6179	52.884460	0.000294	2.939166	0.995816	-0.000118
 714	7.0944e+01	11.5745	52.678566	0.000517	5.168878	1.751263	-0.000207
 715	7.1043e+01	11.5312	52.589749	0.000223	2.229712	0.755447	-0.000089
 716	7.1142e+01	11.4975	52.428263	0.000405	4.054022	1.373540	-0.000162
 717	7.1242e+01	11.4655	52.250629	0.000446	4.459424	1.510894	-0.000179
 718	7.1341e+01	11.4093	52.129515	0.000304	3.040516	1.030155	-0.000122
 719	7.1441e+01	11.3772	51.976104	0.000385	3.851321	1.304863	-0.000154
 720	7.1540e+01	11.3323	51.822693	0.000385	3.851321	1.304863	-0.000154
 721	7.1640e+01	11.2922	51.628910	0.000486	4.864826	1.648248	-0.000195
 722	7.1740e+01	11.2585	51.483573	0.000365	3.648620	1.236186	-0.000146
 723	7.1839e+01	11.2168	51.318051	0.000416	4.155373	1.407878	-0.000166
 724	7.1939e+01	11.1767	51.188863	0.000324	3.243218	1.098832	-0.000130
 725	7.2038e+01	11.1366	51.011229	0.000446	4.459424	1.510894	-0.000179
 726	7.2138e+01	11.1061	50.914337	0.000243	2.432413	0.824124	-0.000097
 727	7.2237e+01	11.0516	50.728629	0.000466	4.662125	1.579571	-0.000187
 728	7.2337e+01	11.0275	50.635775	0.000233	2.331063	0.789785	-0.000093
 729	7.2436e+01	10.9858	50.429881	0.000517	5.168878	1.751263	-0.000207
 730	7.2535e+01	10.9409	50.304730	0.000314	3.141867	1.064493	-0.000126
 731	7.2635e+01	10.8927	50.159393	0.000365	3.648620	1.236186	-0.000146
 732	7.2734e+01	10.8542	50.018093	0.000355	3.547269	1.201847	-0.000142
 733	7.2834e+01	10.8173	49.876793	0.000355	3.547269	1.201847	-0.000142
 734	7.2933e+01	10.7837	49.699160	0.000446	4.459424	1.510894	-0.000179
 735	7.3033e+01	10.7339	49.582083	0.000294	2.939166	0.995816	-0.000118
 736	7.3132e+01	10.6890	49.412523	0.000426	4.256723	1.442217	-0.000170
 737	7.3232e+01	10.6569	49.238926	0.000436	4.358074	1.476555	-0.000174
 738	7.3332e+01	10.6184	49.137998	0.000253	2.533764	0.858462	-0.000101
 739	7.3431e+01	10.5751	48.976512	0.000405	4.054022	1.373540	-0.000162
 740	7.3531e+01	10.5414	48.815027	0.000405	4.054022	1.373540	-0.000162
 741	7.3630e+01	10.4997	48.714098	0.000253	2.533764	0.858462	-0.000101
 742	7.3730e+01	10.4532	48.524353	0.000476	4.763476	1.613909	-0.000191
 743	7.3829e+01	10.4211	48.338645	0.000466	4.662125	1.579571	-0.000187
 744	7.3928e+01	10.3730	48.201382	0.000345	3.445919	1.167509	-0.000138
 745	7.4028e+01	10.3377	48.064120	0.000345	3.445919	1.167509	-0.000138
 746	7.4127e+01	10.2976	47.922820	0.000355	3.547269	1.201847	-0.000142
 747	7.4227e+01	10.2639	47.765371	0.000395	3.952671	1.339201	-0.000158
 748	7.4326e+01	10.2045	47.575626	0.000476	4.763476	1.613909	-0.000191
 749	7.4426e+01	10.1901	47.454512	0.000304	3.040516	1.030155	-0.000122
 750	7.4525e+01	10.1436	47.276878	0.000446	4.459424	1.510894	-0.000179
 751	7.4625e+01	10.1131	47.163838	0.000284	2.837815	0.961478	-0.000114
 752	7.4725e+01	10.0682	46.994279	0.000426	4.256723	1.442217	-0.000170
 753	7.4824e+01	10.0120	46.812607	0.000456	4.560775	1.545232	-0.000183
 754	7.4924e+01	9.9815	46.667271	0.000365	3.648620	1.236186	-0.000146
 755	7.5023e+01	9.9382	46.530008	0.000345	3.445919	1.167509	-0.000138
 756	7.5123e+01	9.9013	46.392745	0.000345	3.445919	1.167509	-0.000138
 757	7.5222e+01	9.8628	46.203000	0.000476	4.763476	1.613909	-0.000191
 758	7.5322e+01	9.8291	46.045552	0.000395	3.952671	1.339201	-0.000158
 759	7.5421e+01	9.7810	45.908289	0.000345	3.445919	1.167509	-0.000138
 760	7.5520e+01	9.7393	45.742766	0.000416	4.155373	1.407878	-0.000166
 761	7.5620e+01	9.7120	45.589355	0.000385	3.851321	1.304863	-0.000154
 762	7.5719e+01	9.6623	45.411721	0.000446	4.459424	1.510894	-0.000179
 763	7.5819e+01	9.6206	45.298682	0.000284	2.837815	0.961478	-0.000114
 764	7.5918e+01	9.5869	45.141233	0.000395	3.952671	1.339201	-0.000158
 765	7.6018e+01	9.5420	44.951488	0.000476	4.763476	1.613909	-0.000191
 766	7.6118e+01	9.5035	44.761742	0.000476	4.763476	1.613909	-0.000191
 767	7.6217e+01	9.4586	44.640628	0.000304	3.040516	1.030155	-0.000122
 768	7.6317e+01	9.4265	44.475106	0.000416	4.155373	1.407878	-0.000166
 769	7.6416e+01	9.3864	44.353992	0.000304	3.040516	1.030155	-0.000122
 770	7.6516e+01	9.3398	44.172321	0.000456	4.560775	1.545232	-0.000183
 771	7.6615e+01	9.3046	44.022947	0.000375	3.749970	1.270524	-0.000150
 772	7.6715e+01	9.2548	43.849350	0.000436	4.358074	1.476555	-0.000174
 773	7.6814e+01	9.2275	43.708050	0.000355	3.547269	1.201847	-0.000142
 774	7.6913e+01	9.1874	43.538490	0.000426	4.256723	1.442217	-0.000170
 775	7.7013e+01	9.1457	43.372968	0.000416	4.155373	1.407878	-0.000166
 776	7.7112e+01	9.1040	43.191297	0.000456	4.560775	1.545232	-0.000183
 777	7.7212e+01	9.0655	43.062108	0.000324	3.243218	1.098832	-0.000130
 778	7.7311e+01	9.0302	42.896586	0.000416	4.155373	1.407878	-0.000166
 779	7.7411e+01	8.9837	42.747212	0.000375	3.749970	1.270524	-0.000150
 780	7.7510e+01	8.9436	42.593801	0.000385	3.851321	1.304863	-0.000154
 781	7.7610e+01	8.9003	42.416167	0.000446	4.459424	1.510894	-0.000179
 782	7.7710e+01	8.8682	42.270830	0.000365	3.648620	1.236186	-0.000146
 783	7.7809e+01	8.8201	42.097233	0.000436	4.358074	1.476555	-0.000174
 784	7.7909e+01	8.7960	41.964007	0.000334	3.344568	1.133170	-0.000134
 785	7.8008e+01	8.7463	41.778299	0.000466	4.662125	1.579571	-0.000187
 786	7.8108e+01	8.7094	41.608739	0.000426	4.256723	1.442217	-0.000170
 787	7.8207e+01	8.6645	41.455328	0.000385	3.851321	1.304863	-0.000154
 788	7.8306e+01	8.6260	41.314029	0.000355	3.547269	1.201847	-0.000142
 789	7.8406e+01	8.5859	41.196952	0.000294	2.939166	0.995816	-0.000118
 790	7.8505e+01	8.5409	41.003169	0.000486	4.864826	1.648248	-0.000195
 791	7.8605e+01	8.5072	40.825535	0.000446	4.459424	1.510894	-0.000179
 792	7.8704e+01	8.4736	40.688273	0.000345	3.445919	1.167509	-0.000138
 793	7.8804e+01	8.4206	40.506601	0.000456	4.560775	1.545232	-0.000183
 794	7.8903e+01	8.3869	40.369339	0.000345	3.445919	1.167509	-0.000138
 795	7.9003e+01	8.3452	40.183631	0.000466	4.662125	1.579571	-0.000187
 796	7.9103e+01	8.3115	40.050405	0.000334	3.344568	1.133170	-0.000134
 797	7.9202e+01	8.2650	39.844511	0.000517	5.168878	1.751263	-0.000207
 798	7.9302e+01	8.2233	39.699174	0.000365	3.648620	1.236186	-0.000146
 799	7.9401e+01	8.1976	39.517503	0.000456	4.560775	1.545232	-0.000183
 800	7.9501e+01	8.1415	39.380241	0.000345	3.445919	1.167509	-0.000138
 801	7.9600e+01	8.1014	39.210681	0.000426	4.256723	1.442217	-0.000170
 802	7.9700e+01	8.0757	39.057270	0.000385	3.851321	1.304863	-0.000154
 803	7.9799e+01	8.0228	38.867524	0.000476	4.763476	1.613909	-0.000191
 804	7.9898e+01	7.9923	38.726225	0.000355	3.547269	1.201847	-0.000142
 805	7.9998e+01	7.9474	38.572813	0.000385	3.851321	1.304863	-0.000154
 806	8.0097e+01	7.9089	38.403254	0.000426	4.256723	1.442217	-0.000170
 807	8.0197e+01	7.8704	38.221583	0.000456	4.560775	1.545232	-0.000183
 808	8.0296e+01	7.8319	38.080283	0.000355	3.547269	1.201847	-0.000142
 809	8.0396e+01	7.7918	37.902649	0.000446	4.459424	1.510894	-0.000179
 810	8.0496e+01	7.7517	37.761349	0.000355	3.547269	1.201847	-0.000142
 811	8.0595e+01	7.7067	37.587752	0.000436	4.358074	1.476555	-0.000174
 812	8.0695e+01	7.6650	37.426267	0.000405	4.054022	1.373540	-0.000162
 813	8.0794e+01	7.6265	37.248633	0.000446	4.459424	1.510894	-0.000179
 814	8.0894e+01	7.5848	37.058888	0.000476	4.763476	1.613909	-0.000191
 815	8.0993e+01	7.5543	36.909513	0.000375	3.749970	1.270524	-0.000150
 816	8.1093e+01	7.5158	36.748028	0.000405	4.054022	1.373540	-0.000162
 817	8.1192e+01	7.4725	36.594617	0.000385	3.851321	1.304863	-0.000154
 818	8.1291e+01	7.4212	36.429094	0.000416	4.155373	1.407878	-0.000166
 819	8.1391e+01	7.3923	36.247423	0.000456	4.560775	1.545232	-0.000183
 820	8.1490e+01	7.3634	36.085938	0.000405	4.054022	1.373540	-0.000162
 821	8.1590e+01	7.3185	35.924452	0.000405	4.054022	1.373540	-0.000162
 822	8.1689e+01	7.2688	35.722596	0.000507	5.067527	1.716925	-0.000203
 823	8.1789e+01	7.2303	35.589370	0.000334	3.344568	1.133170	-0.000134
 824	8.1888e+01	7.1870	35.391550	0.000497	4.966177	1.682586	-0.000199
 825	8.1988e+01	7.1469	35.278511	0.000284	2.837815	0.961478	-0.000114
 826	8.2088e+01	7.1116	35.096840	0.000456	4.560775	1.545232	-0.000183
 827	8.2187e+01	7.0779	34.919206	0.000446	4.459424	1.510894	-0.000179
 828	8.2287e+01	7.0410	34.773869	0.000365	3.648620	1.236186	-0.000146
 829	8.2386e+01	6.9864	34.592198	0.000456	4.560775	1.545232	-0.000183
 830	8.2486e+01	6.9463	34.434749	0.000395	3.952671	1.339201	-0.000158
 831	8.2585e+01	6.9126	34.285375	0.000375	3.749970	1.270524	-0.000150
 832	8.2684e+01	6.8709	34.131964	0.000385	3.851321	1.304863	-0.000154
 833	8.2784e+01	6.8340	33.950293	0.000456	4.560775	1.545232	-0.000183
 834	8.2883e+01	6.7859	33.748436	0.000507	5.067527	1.716925	-0.000203
 835	8.2983e+01	6.7554	33.615211	0.000334	3.344568	1.133170	-0.000134
 836	8.3082e+01	6.7121	33.437577	0.000446	4.459424	1.510894	-0.000179
 837	8.3182e+01	6.6816	33.243794	0.000486	4.864826	1.648248	-0.000195
 838	8.3281e+01	6.6335	33.134792	0.000274	2.736465	0.927139	-0.000110
 839	8.3381e+01	6.5950	32.941009	0.000486	4.864826	1.648248	-0.000195
 840	8.3481e+01	6.5565	32.807784	0.000334	3.344568	1.133170	-0.000134
 841	8.3580e+01	6.5100	32.642261	0.000416	4.155373	1.407878	-0.000166
 842	8.3680e+01	6.4715	32.472701	0.000426	4.256723	1.442217	-0.000170
 843	8.3779e+01	6.4346	32.323327	0.000375	3.749970	1.270524	-0.000150
 844	8.3879e+01	6.3929	32.137619	0.000466	4.662125	1.579571	-0.000187
 845	8.3978e+01	6.3560	31.976134	0.000405	4.054022	1.373540	-0.000162
 846	8.4078e+01	6.3207	31.794463	0.000456	4.560775	1.545232	-0.000183
 847	8.4177e+01	6.2838	31.681423	0.000284	2.837815	0.961478	-0.000114
 848	8.4276e+01	6.2340	31.499752	0.000456	4.560775	1.545232	-0.000183
 849	8.4376e+01	6.1988	31.314043	0.000466	4.662125	1.579571	-0.000187
 850	8.4475e+01	6.1570	31.152558	0.000405	4.054022	1.373540	-0.000162
 851	8.4575e+01	6.1185	31.011258	0.000355	3.547269	1.201847	-0.000142
 852	8.4674e+01	6.0752	30.861884	0.000375	3.749970	1.270524	-0.000150
 853	8.4774e+01	6.0367	30.635805	0.000568	5.675631	1.922956	-0.000227
 854	8.4874e+01	6.0062	30.490468	0.000365	3.648620	1.236186	-0.000146
 855	8.4973e+01	5.9613	30.381465	0.000274	2.736465	0.927139	-0.000110
 856	8.5073e+01	5.9341	30.191720	0.000476	4.763476	1.613909	-0.000191
 857	8.5172e+01	5.8779	29.997937	0.000486	4.864826	1.648248	-0.000195
 858	8.5272e+01	5.8458	29.868749	0.000324	3.243218	1.098832	-0.000130
 859	8.5371e+01	5.7993	29.683041	0.000466	4.662125	1.579571	-0.000187
 860	8.5471e+01	5.7512	29.525592	0.000395	3.952671	1.339201	-0.000158
 861	8.5570e+01	5.7095	29.376218	0.000375	3.749970	1.270524	-0.000150
 862	8.5669e+01	5.6870	29.218770	0.000395	3.952671	1.339201	-0.000158
 863	8.5769e+01	5.6421	29.012876	0.000517	5.168878	1.751263	-0.000207
 864	8.5868e+01	5.5956	28.855428	0.000395	3.952671	1.339201	-0.000158
 865	8.5968e+01	5.5555	28.681831	0.000436	4.358074	1.476555	-0.000174
 866	8.6067e+01	5.5170	28.528420	0.000385	3.851321	1.304863	-0.000154
 867	8.6167e+01	5.4801	28.379046	0.000375	3.749970	1.270524	-0.000150
 868	8.6266e+01	5.4416	28.249857	0.000324	3.243218	1.098832	-0.000130
 869	8.6366e+01	5.3918	28.035889	0.000537	5.371579	1.819940	-0.000215
 870	8.6466e+01	5.3565	27.902664	0.000334	3.344568	1.133170	-0.000134
 871	8.6565e+01	5.3196	27.729067	0.000436	4.358074	1.476555	-0.000174
 872	8.6665e+01	5.2859	27.563544	0.000416	4.155373	1.407878	-0.000166
 873	8.6764e+01	5.2394	27.406096	0.000395	3.952671	1.339201	-0.000158
 874	8.6864e+01	5.1993	27.232499	0.000436	4.358074	1.476555	-0.000174
 875	8.6963e+01	5.1528	27.099274	0.000334	3.344568	1.133170	-0.000134
 876	8.7063e+01	5.1239	26.917603	0.000456	4.560775	1.545232	-0.000183
 877	8.7162e+01	5.0790	26.719783	0.000497	4.966177	1.682586	-0.000199
 878	8.7261e+01	5.0389	26.558297	0.000405	4.054022	1.373540	-0.000162
 879	8.7361e+01	4.9972	26.388738	0.000426	4.256723	1.442217	-0.000170
 880	8.7460e+01	4.9571	26.211104	0.000446	4.459424	1.510894	-0.000179
 881	8.7560e+01	4.9154	26.085953	0.000314	3.141867	1.064493	-0.000126
 882	8.7659e+01	4.8801	25.908319	0.000446	4.459424	1.510894	-0.000179
 883	8.7759e+01	4.8432	25.754907	0.000385	3.851321	1.304863	-0.000154
 884	8.7859e+01	4.8047	25.609571	0.000365	3.648620	1.236186	-0.000146
 885	8.7958e+01	4.7582	25.423862	0.000466	4.662125	1.579571	-0.000187
 886	8.8058e+01	4.7213	25.270451	0.000385	3.851321	1.304863	-0.000154
 887	8.8157e+01	4.6908	25.068594	0.000507	5.067527	1.716925	-0.000203
 888	8.8257e+01	4.6475	24.931332	0.000345	3.445919	1.167509	-0.000138
 889	8.8356e+01	4.5977	24.773883	0.000395	3.952671	1.339201	-0.000158
 890	8.8456e+01	4.5608	24.576064	0.000497	4.966177	1.682586	-0.000199
 891	8.8555e+01	4.5223	24.454950	0.000304	3.040516	1.030155	-0.000122
 892	8.8654e+01	4.4806	24.269241	0.000466	4.662125	1.579571	-0.000187
 893	8.8754e+01	4.4453	24.111793	0.000395	3.952671	1.339201	-0.000158
 894	8.8853e+01	4.4036	23.930122	0.000456	4.560775	1.545232	-0.000183
 895	8.8953e+01	4.3619	23.800934	0.000324	3.243218	1.098832	-0.000130
 896	8.9052e+01	4.3314	23.631374	0.000426	4.256723	1.442217	-0.000170
 897	8.9152e+01	4.2833	23.441629	0.000476	4.763476	1.613909	-0.000191
 898	8.9251e+01	4.2400	23.292255	0.000375	3.749970	1.270524	-0.000150
 899	8.9351e+01	4.1967	23.130769	0.000405	4.054022	1.373540	-0.000162
 900	8.9451e+01	4.1726	22.961210	0.000426	4.256723	1.442217	-0.000170
 901	8.9550e+01	4.1277	22.815873	0.000365	3.648620	1.236186	-0.000146
 902	8.9650e+01	4.0860	22.622090	0.000486	4.864826	1.648248	-0.000195
 903	8.9749e+01	4.0427	22.488865	0.000334	3.344568	1.133170	-0.000134
 904	8.9849e+01	4.0106	22.295082	0.000486	4.864826	1.648248	-0.000195
 905	8.9948e+01	3.9609	22.165894	0.000324	3.243218	1.098832	-0.000130
 906	9.0047e+01	3.9288	21.968074	0.000497	4.966177	1.682586	-0.000199
 907	9.0147e+01	3.8967	21.826774	0.000355	3.547269	1.201847	-0.000142
 908	9.0246e+01	3.8389	21.677400	0.000375	3.749970	1.270524	-0.000150
 909	9.0346e+01	3.8052	21.528026	0.000375	3.749970	1.270524	-0.000150
 910	9.0445e+01	3.7699	21.374615	0.000385	3.851321	1.304863	-0.000154
 911	9.0545e+01	3.7266	21.176796	0.000497	4.966177	1.682586	-0.000199
 912	9.0644e+01	3.6913	21.007236	0.000426	4.256723	1.442217	-0.000170
 913	9.0744e+01	3.6432	20.833639	0.000436	4.358074	1.476555	-0.000174
 914	9.0844e+01	3.6015	20.696376	0.000345	3.445919	1.167509	-0.000138
 915	9.0943e+01	3.5710	20.510668	0.000466	4.662125	1.579571	-0.000187
 916	9.1043e+01	3.5277	20.361294	0.000375	3.749970	1.270524	-0.000150
 917	9.1142e+01	3.4892	20.183660	0.000446	4.459424	1.510894	-0.000179
 918	9.1242e+01	3.4475	20.014100	0.000426	4.256723	1.442217	-0.000170
 919	9.1341e+01	3.4058	19.848578	0.000416	4.155373	1.407878	-0.000166
 920	9.1441e+01	3.3689	19.679018	0.000426	4.256723	1.442217	-0.000170
 921	9.1540e+01	3.3240	19.489273	0.000476	4.763476	1.613909	-0.000191
 922	9.1639e+01	3.2887	19.352010	0.000345	3.445919	1.167509	-0.000138
 923	9.1739e+01	3.2534	19.190525	0.000405	4.054022	1.373540	-0.000162
 924	9.1838e+01	3.2069	19.029039	0.000405	4.054022	1.373540	-0.000162
 925	9.1938e+01	3.1732	18.831220	0.000497	4.966177	1.682586	-0.000199
 926	9.2037e+01	3.1315	18.685883	0.000365	3.648620	1.236186	-0.000146
 927	9.2137e+01	3.0914	18.524397	0.000405	4.054022	1.373540	-0.000162
 928	9.2237e+01	3.0448	18.302355	0.000557	5.574280	1.888617	-0.000223
 929	9.2336e+01	3.0111	18.161055	0.000355	3.547269	1.201847	-0.000142
 930	9.2436e+01	2.9646	17.983421	0.000446	4.459424	1.510894	-0.000179
 931	9.2535e+01	2.9341	17.842121	0.000355	3.547269	1.201847	-0.000142
 932	9.2635e+01	2.8924	17.696785	0.000365	3.648620	1.236186	-0.000146
 933	9.2734e+01	2.8507	17.511076	0.000466	4.662125	1.579571	-0.000187
 934	9.2834e+01	2.8090	17.305182	0.000517	5.168878	1.751263	-0.000207
 935	9.2933e+01	2.7705	17.175994	0.000324	3.243218	1.098832	-0.000130
 936	9.3032e+01	2.7304	16.998360	0.000446	4.459424	1.510894	-0.000179
 937	9.3132e+01	2.6807	16.804578	0.000486	4.864826	1.648248	-0.000195
 938	9.3231e+01	2.6438	16.679426	0.000314	3.141867	1.064493	-0.000126
 939	9.3331e+01	2.6069	16.461421	0.000547	5.472930	1.854279	-0.000219
 940	9.3430e+01	2.5716	16.328195	0.000334	3.344568	1.133170	-0.000134
 941	9.3530e+01	2.5235	16.158636	0.000426	4.256723	1.442217	-0.000170
 942	9.3629e+01	2.4882	15.981002	0.000446	4.459424	1.510894	-0.000179
 943	9.3729e+01	2.4513	15.791256	0.000476	4.763476	1.613909	-0.000191
 944	9.3829e+01	2.4063	15.653994	0.000345	3.445919	1.167509	-0.000138
 945	9.3928e+01	2.3662	15.456174	0.000497	4.966177	1.682586	-0.000199
 946	9.4028e+01	2.3293	15.298726	0.000395	3.952671	1.339201	-0.000158
 947	9.4127e+01	2.2828	15.137240	0.000405	4.054022	1.373540	-0.000162
 948	9.4227e+01	2.2507	14.935384	0.000507	5.067527	1.716925	-0.000203
 949	9.4326e+01	2.2058	14.790047	0.000365	3.648620	1.236186	-0.000146
 950	9.4425e+01	2.1785	14.620487	0.000426	4.256723	1.442217	-0.000170
 951	9.4525e+01	2.1288	14.430742	0.000476	4.763476	1.613909	-0.000191
 952	9.4624e+01	2.0951	14.257145	0.000436	4.358074	1.476555	-0.000174
 953	9.4724e+01	2.0518	14.091622	0.000416	4.155373	1.407878	-0.000166
 954	9.4823e+01	2.0101	13.918025	0.000436	4.358074	1.476555	-0.000174
 955	9.4923e+01	1.9652	13.760577	0.000395	3.952671	1.339201	-0.000158
 956	9.5022e+01	1.9283	13.595055	0.000416	4.155373	1.407878	-0.000166
 957	9.5122e+01	1.8946	13.457792	0.000345	3.445919	1.167509	-0.000138
 958	9.5222e+01	1.8529	13.268047	0.000476	4.763476	1.613909	-0.000191
 959	9.5321e+01	1.8032	13.126747	0.000355	3.547269	1.201847	-0.000142
 960	9.5421e+01	1.7759	12.920853	0.000517	5.168878	1.751263	-0.000207
 961	9.5520e+01	1.7294	12.751293	0.000426	4.256723	1.442217	-0.000170
 962	9.5620e+01	1.6989	12.585771	0.000416	4.155373	1.407878	-0.000166
 963	9.5719e+01	1.6588	12.412174	0.000436	4.358074	1.476555	-0.000174
 964	9.5819e+01	1.6090	12.242614	0.000426	4.256723	1.442217	-0.000170
 965	9.5918e+01	1.5754	12.073054	0.000426	4.256723	1.442217	-0.000170
 966	9.6017e+01	1.5353	11.911569	0.000405	4.054022	1.373540	-0.000162
 967	9.6117e+01	1.4935	11.737972	0.000436	4.358074	1.476555	-0.000174
 968	9.6216e+01	1.4534	11.544190	0.000486	4.864826	1.648248	-0.000195
 969	9.6316e+01	1.4197	11.382704	0.000405	4.054022	1.373540	-0.000162
 970	9.6415e+01	1.3764	11.209107	0.000436	4.358074	1.476555	-0.000174
 971	9.6515e+01	1.3347	11.015325	0.000486	4.864826	1.648248	-0.000195
 972	9.6615e+01	1.2946	10.882099	0.000334	3.344568	1.133170	-0.000134
 973	9.6714e+01	1.2593	10.708503	0.000436	4.358074	1.476555	-0.000174
 974	9.6814e+01	1.2064	10.526831	0.000456	4.560775	1.545232	-0.000183
 975	9.6913e+01	1.1743	10.333049	0.000486	4.864826	1.648248	-0.000195
 976	9.7013e+01	1.1326	10.187712	0.000365	3.648620	1.236186	-0.000146
 977	9.7112e+01	1.1005	10.018152	0.000426	4.256723	1.442217	-0.000170
 978	9.7212e+01	1.0540	9.852630	0.000416	4.155373	1.407878	-0.000166
 979	9.7311e+01	1.0187	9.614439	0.000598	5.979682	2.025971	-0.000239
 980	9.7410e+01	0.9738	9.505436	0.000274	2.736465	0.927139	-0.000110
 981	9.7510e+01	0.9385	9.271282	0.000588	5.878332	1.991633	-0.000235
 982	9.7609e+01	0.8968	9.109797	0.000405	4.054022	1.373540	-0.000162
 983	9.7709e+01	0.8599	8.960423	0.000375	3.749970	1.270524	-0.000150
 984	9.7808e+01	0.8101	8.774715	0.000466	4.662125	1.579571	-0.000187
 985	9.7908e+01	0.7845	8.605155	0.000426	4.256723	1.442217	-0.000170
 986	9.8007e+01	0.7396	8.451744	0.000385	3.851321	1.304863	-0.000154
 987	9.8107e+01	0.6914	8.225664	0.000568	5.675631	1.922956	-0.000227
 988	9.8207e+01	0.6642	8.080327	0.000365	3.648620	1.236186	-0.000146
 989	9.8306e+01	0.6144	7.906730	0.000436	4.358074	1.476555	-0.000174
 990	9.8406e+01	0.5727	7.733134	0.000436	4.358074	1.476555	-0.000174
 991	9.8505e+01	0.5326	7.563574	0.000426	4.256723	1.442217	-0.000170
 992	9.8605e+01	0.5021	7.414200	0.000375	3.749970	1.270524	-0.000150
 993	9.8704e+01	0.4524	7.204269	0.000527	5.270229	1.785602	-0.000211
 994	9.8803e+01	0.4203	7.030672	0.000436	4.358074	1.476555	-0.000174
 995	9.8903e+01	0.3770	6.873224	0.000395	3.952671	1.339201	-0.000158
 996	9.9002e+01	0.3433	6.711738	0.000405	4.054022	1.373540	-0.000162
 997	9.9102e+01	0.2952	6.534104	0.000446	4.459424	1.510894	-0.000179
 998	9.9201e+01	0.2631	6.392804	0.000355	3.547269	1.201847	-0.000142
 999	9.9301e+01	0.2214	6.203059	0.000476	4.763476	1.613909	-0.000191
1000	9.9400e+01	0.1749	6.049648	0.000385	3.851321	1.304863	-0.000154
1001	9.9500e+01	0.1412	5.880088	0.000426	4.256723	1.442217	-0.000170
1002	9.9600e+01	0.0995	5.662083	0.000547	5.472930	1.854279	-0.000219
1003	9.9699e+01	0.0545	5.528857	0.000334	3.344568	1.133170	-0.000134
1004	9.9799e+01	0.0241	5.347186	0.000456	4.560775	1.545232	-0.000183
1005	9.9898e+01	-0.0112	5.222035	0.000314	3.141867	1.064493	-0.000126
1006	9.9998e+01	-0.0465	5.044401	0.000446	4.459424	1.510894	-0.000179
1007	1.0010e+02	-0.0946	4.846581	0.000497	4.966177	1.682586	-0.000199
1008	1.0020e+02	-0.1283	4.717393	0.000324	3.243218	1.098832	-0.000130
1009	1.0030e+02	-0.1700	4.523611	0.000486	4.864826	1.648248	-0.000195
1010	1.0040e+02	-0.2166	4.386348	0.000345	3.445919	1.167509	-0.000138
1011	1.0050e+02	-0.2519	4.212751	0.000436	4.358074	1.476555	-0.000174
1012	1.0059e+02	-0.2952	4.071451	0.000355	3.547269	1.201847	-0.000142
1013	1.0069e+02	-0.3289	3.869595	0.000507	5.067527	1.716925	-0.000203
1014	1.0079e+02	-0.3706	3.663701	0.000517	5.168878	1.751263	-0.000207
1015	1.0089e+02	-0.4139	3.506252	0.000395	3.952671	1.339201	-0.000158
1016	1.0099e+02	-0.4540	3.352841	0.000385	3.851321	1.304863	-0.000154
1017	1.0109e+02	-0.4925	3.183282	0.000426	4.256723	1.442217	-0.000170
1018	1.0119e+02	-0.5358	3.021796	0.000405	4.054022	1.373540	-0.000162
1019	1.0129e+02	-0.5679	2.836088	0.000466	4.662125	1.579571	-0.000187
1020	1.0139e+02	-0.6096	2.702862	0.000334	3.344568	1.133170	-0.000134
1021	1.0149e+02	-0.6353	2.505043	0.000497	4.966177	1.682586	-0.000199
1022	1.0159e+02	-0.6882	2.347594	0.000395	3.952671	1.339201	-0.000158
1023	1.0169e+02	-0.7283	2.165923	0.000456	4.560775	1.545232	-0.000183
1024	1.0179e+02	-0.7684	2.032698	0.000334	3.344568	1.133170	-0.000134
1025	1.0189e+02	-0.8133	1.891398	0.000355	3.547269	1.201847	-0.000142
1026	1.0199e+02	-0.8518	1.705690	0.000466	4.662125	1.579571	-0.000187
1027	1.0209e+02	-0.8903	1.511907	0.000486	4.864826	1.648248	-0.000195
1028	1.0219e+02	-0.9224	1.358496	0.000385	3.851321	1.304863	-0.000154
1029	1.0229e+02	-0.9657	1.148565	0.000527	5.270229	1.785602	-0.000211
1030	1.0239e+02	-1.0059	1.019377	0.000324	3.243218	1.098832	-0.000130
1031	1.0248e+02	-1.0460	0.861928	0.000395	3.952671	1.339201	-0.000158
1032	1.0258e+02	-1.0957	0.668146	0.000486	4.864826	1.648248	-0.000195
1033	1.0268e+02	-1.1358	0.530883	0.000345	3.445919	1.167509	-0.000138
1034	1.0278e+02	-1.1679	0.324989	0.000517	5.168878	1.751263	-0.000207
1035	1.0288e+02	-1.2144	0.199838	0.000314	3.141867	1.064493	-0.000126
1036	1.0298e+02	-1.2481	0.022204	0.000446	4.459424	1.510894	-0.000179
1037	1.0308e+02	-1.2946	-0.151393	0.000436	4.358074	1.476555	-0.000174
1038	1.0318e+02	-1.3283	-0.300767	0.000375	3.749970	1.270524	-0.000150
1039	1.0328e+02	-1.3684	-0.494549	0.000486	4.864826	1.648248	-0.000195
1040	1.0338e+02	-1.4021	-0.680257	0.000466	4.662125	1.579571	-0.000187
1041	1.0348e+02	-1.4470	-0.785223	0.000264	2.635114	0.892801	-0.000105
1042	1.0358e+02	-1.4839	-0.966894	0.000456	4.560775	1.545232	-0.000183
1043	1.0368e+02	-1.5224	-1.112231	0.000365	3.648620	1.236186	-0.000146
1044	1.0378e+02	-1.5657	-1.322162	0.000527	5.270229	1.785602	-0.000211
1045	1.0388e+02	-1.6058	-1.487685	0.000416	4.155373	1.407878	-0.000166
1046	1.0398e+02	-1.6411	-1.612836	0.000314	3.141867	1.064493	-0.000126
1047	1.0408e+02	-1.6844	-1.851027	0.000598	5.979682	2.025971	-0.000239
1048	1.0418e+02	-1.7278	-1.984252	0.000334	3.344568	1.133170	-0.000134
1049	1.0428e+02	-1.7663	-2.145738	0.000405	4.054022	1.373540	-0.000162
1050	1.0438e+02	-1.8048	-2.307223	0.000405	4.054022	1.373540	-0.000162
1051	1.0447e+02	-1.8433	-2.464671	0.000395	3.952671	1.339201	-0.000158
1052	1.0457e+02	-1.8946	-2.642305	0.000446	4.459424	1.510894	-0.000179
1053	1.0467e+02	-1.9235	-2.787642	0.000365	3.648620	1.236186	-0.000146
1054	1.0477e+02	-1.9556	-2.969313	0.000456	4.560775	1.545232	-0.000183
1055	1.0487e+02	-2.0101	-3.118687	0.000375	3.749970	1.270524	-0.000150
1056	1.0497e+02	-2.0422	-3.312470	0.000486	4.864826	1.648248	-0.000195
1057	1.0507e+02	-2.0823	-3.473955	0.000405	4.054022	1.373540	-0.000162
1058	1.0517e+02	-2.1256	-3.651589	0.000446	4.459424	1.510894	-0.000179
1059	1.0527e+02	-2.1673	-3.760592	0.000274	2.736465	0.927139	-0.000110
1060	1.0537e+02	-2.2042	-3.918040	0.000395	3.952671	1.339201	-0.000158
1061	1.0547e+02	-2.2459	-4.136046	0.000547	5.472930	1.854279	-0.000219
1062	1.0557e+02	-2.2844	-4.281382	0.000365	3.648620	1.236186	-0.000146
1063	1.0567e+02	-2.3277	-4.446905	0.000416	4.155373	1.407878	-0.000166
1064	1.0577e+02	-2.3727	-4.576093	0.000324	3.243218	1.098832	-0.000130
1065	1.0587e+02	-2.4031	-4.741616	0.000416	4.155373	1.407878	-0.000166
1066	1.0597e+02	-2.4497	-4.927324	0.000466	4.662125	1.579571	-0.000187
1067	1.0607e+02	-2.4785	-5.060550	0.000334	3.344568	1.133170	-0.000134
1068	1.0617e+02	-2.5106	-5.226072	0.000416	4.155373	1.407878	-0.000166
1069	1.0627e+02	-2.5555	-5.371409	0.000365	3.648620	1.236186	-0.000146
1070	1.0637e+02	-2.6021	-5.557117	0.000466	4.662125	1.579571	-0.000187
1071	1.0647e+02	-2.6390	-5.730714	0.000436	4.358074	1.476555	-0.000174
1072	1.0656e+02	-2.6855	-5.884125	0.000385	3.851321	1.304863	-0.000154
1073	1.0666e+02	-2.7160	-6.029462	0.000365	3.648620	1.236186	-0.000146
1074	1.0676e+02	-2.7609	-6.215170	0.000466	4.662125	1.579571	-0.000187
1075	1.0686e+02	-2.8122	-6.380693	0.000416	4.155373	1.407878	-0.000166
1076	1.0696e+02	-2.8379	-6.554290	0.000436	4.358074	1.476555	-0.000174
1077	1.0706e+02	-2.8828	-6.671367	0.000294	2.939166	0.995816	-0.000118
1078	1.0716e+02	-2.9117	-6.836889	0.000416	4.155373	1.407878	-0.000166
1079	1.0726e+02	-2.9678	-7.002412	0.000416	4.155373	1.407878	-0.000166
1080	1.0736e+02	-3.0079	-7.180046	0.000446	4.459424	1.510894	-0.000179
1081	1.0746e+02	-3.0513	-7.369791	0.000476	4.763476	1.613909	-0.000191
1082	1.0756e+02	-3.0785	-7.511091	0.000355	3.547269	1.201847	-0.000142
1083	1.0766e+02	-3.1299	-7.700836	0.000476	4.763476	1.613909	-0.000191
1084	1.0776e+02	-3.1587	-7.805802	0.000264	2.635114	0.892801	-0.000105
1085	1.0786e+02	-3.2020	-8.015733	0.000527	5.270229	1.785602	-0.000211
1086	1.0796e+02	-3.2422	-8.173181	0.000395	3.952671	1.339201	-0.000158
1087	1.0806e+02	-3.2791	-8.330630	0.000395	3.952671	1.339201	-0.000158
1088	1.0816e+02	-3.3304	-8.484041	0.000385	3.851321	1.304863	-0.000154
1089	1.0826e+02	-3.3545	-8.673786	0.000476	4.763476	1.613909	-0.000191
1090	1.0836e+02	-3.3978	-8.811049	0.000345	3.445919	1.167509	-0.000138
1091	1.0845e+02	-3.4395	-9.008868	0.000497	4.966177	1.682586	-0.000199
1092	1.0855e+02	-3.4748	-9.158242	0.000375	3.749970	1.270524	-0.000150
1093	1.0865e+02	-3.5181	-9.319728	0.000405	4.054022	1.373540	-0.000162
1094	1.0875e+02	-3.5614	-9.477176	0.000395	3.952671	1.339201	-0.000158
1095	1.0885e+02	-3.5999	-9.630587	0.000385	3.851321	1.304863	-0.000154
1096	1.0895e+02	-3.6368	-9.788036	0.000395	3.952671	1.339201	-0.000158
1097	1.0905e+02	-3.6689	-9.973744	0.000466	4.662125	1.579571	-0.000187
1098	1.0915e+02	-3.7106	-10.147341	0.000436	4.358074	1.476555	-0.000174
1099	1.0925e+02	-3.7587	-10.292678	0.000365	3.648620	1.236186	-0.000146
1100	1.0935e+02	-3.8036	-10.474349	0.000456	4.560775	1.545232	-0.000183
1101	1.0945e+02	-3.8405	-10.627760	0.000385	3.851321	1.304863	-0.000154
1102	1.0955e+02	-3.8806	-10.825579	0.000497	4.966177	1.682586	-0.000199
1103	1.0965e+02	-3.9127	-10.966879	0.000355	3.547269	1.201847	-0.000142
1104	1.0975e+02	-3.9592	-11.132402	0.000416	4.155373	1.407878	-0.000166
1105	1.0985e+02	-3.9961	-11.265627	0.000334	3.344568	1.133170	-0.000134
1106	1.0995e+02	-4.0330	-11.463447	0.000497	4.966177	1.682586	-0.000199
1107	1.1005e+02	-4.0731	-11.612821	0.000375	3.749970	1.270524	-0.000150
1108	1.1015e+02	-4.1181	-11.814678	0.000507	5.067527	1.716925	-0.000203
1109	1.1025e+02	-4.1550	-11.939829	0.000314	3.141867	1.064493	-0.000126
1110	1.1035e+02	-4.2079	-12.129574	0.000476	4.763476	1.613909	-0.000191
1111	1.1044e+02	-4.2336	-12.266837	0.000345	3.445919	1.167509	-0.000138
1112	1.1054e+02	-4.2737	-12.472731	0.000517	5.168878	1.751263	-0.000207
1113	1.1064e+02	-4.3234	-12.597882	0.000314	3.141867	1.064493	-0.000126
1114	1.1074e+02	-4.3635	-12.767442	0.000426	4.256723	1.442217	-0.000170
1115	1.1084e+02	-4.3860	-12.912779	0.000365	3.648620	1.236186	-0.000146
1116	1.1094e+02	-4.4277	-13.086375	0.000436	4.358074	1.476555	-0.000174
1117	1.1104e+02	-4.4726	-13.243824	0.000395	3.952671	1.339201	-0.000158
1118	1.1114e+02	-4.5239	-13.457792	0.000537	5.371579	1.819940	-0.000215
1119	1.1124e+02	-4.5528	-13.562758	0.000264	2.635114	0.892801	-0.000105
1120	1.1134e+02	-4.5961	-13.748466	0.000466	4.662125	1.579571	-0.000187
1121	1.1144e+02	-4.6459	-13.934174	0.000466	4.662125	1.579571	-0.000187
1122	1.1154e+02	-4.6731	-14.075474	0.000355	3.547269	1.201847	-0.000142
1123	1.1164e+02	-4.7180	-14.232922	0.000395	3.952671	1.339201	-0.000158
1124	1.1174e+02	-4.7517	-14.426705	0.000486	4.864826	1.648248	-0.000195
1125	1.1184e+02	-4.7918	-14.551856	0.000314	3.141867	1.064493	-0.000126
1126	1.1194e+02	-4.8271	-14.672970	0.000304	3.040516	1.030155	-0.000122
1127	1.1204e+02	-4.8769	-14.919235	0.000618	6.182384	2.094648	-0.000248
1128	1.1214e+02	-4.9186	-15.056498	0.000345	3.445919	1.167509	-0.000138
1129	1.1224e+02	-4.9571	-15.209909	0.000385	3.851321	1.304863	-0.000154
1130	1.1234e+02	-4.9988	-15.367357	0.000395	3.952671	1.339201	-0.000158
1131	1.1244e+02	-5.0437	-15.577288	0.000527	5.270229	1.785602	-0.000211
1132	1.1253e+02	-5.0758	-15.726662	0.000375	3.749970	1.270524	-0.000150
1133	1.1263e+02	-5.1175	-15.863925	0.000345	3.445919	1.167509	-0.000138
1134	1.1273e+02	-5.1608	-16.013299	0.000375	3.749970	1.270524	-0.000150
1135	1.1283e+02	-5.1961	-16.170747	0.000395	3.952671	1.339201	-0.000158
1136	1.1293e+02	-5.2314	-16.356455	0.000466	4.662125	1.579571	-0.000187
1137	1.1303e+02	-5.2731	-16.509867	0.000385	3.851321	1.304863	-0.000154
1138	1.1313e+02	-5.3196	-16.687501	0.000446	4.459424	1.510894	-0.000179
1139	1.1323e+02	-5.3501	-16.832837	0.000365	3.648620	1.236186	-0.000146
1140	1.1333e+02	-5.3918	-17.026620	0.000486	4.864826	1.648248	-0.000195
1141	1.1343e+02	-5.4351	-17.147734	0.000304	3.040516	1.030155	-0.000122
1142	1.1353e+02	-5.4769	-17.301145	0.000385	3.851321	1.304863	-0.000154
1143	1.1363e+02	-5.5137	-17.482816	0.000456	4.560775	1.545232	-0.000183
1144	1.1373e+02	-5.5506	-17.636227	0.000385	3.851321	1.304863	-0.000154
1145	1.1383e+02	-5.5891	-17.817899	0.000456	4.560775	1.545232	-0.000183
1146	1.1393e+02	-5.6309	-17.995533	0.000446	4.459424	1.510894	-0.000179
1147	1.1403e+02	-5.6662	-18.173167	0.000446	4.459424	1.510894	-0.000179
1148	1.1413e+02	-5.7095	-18.294281	0.000304	3.040516	1.030155	-0.000122
1149	1.1423e+02	-5.7544	-18.504212	0.000527	5.270229	1.785602	-0.000211
1150	1.1433e+02	-5.7849	-18.657623	0.000385	3.851321	1.304863	-0.000154
1151	1.1442e+02	-5.8362	-18.770663	0.000284	2.837815	0.961478	-0.000114
1152	1.1452e+02	-5.8795	-18.952334	0.000456	4.560775	1.545232	-0.000183
1153	1.1462e+02	-5.9084	-19.170339	0.000547	5.472930	1.854279	-0.000219
1154	1.1472e+02	-5.9485	-19.275305	0.000264	2.635114	0.892801	-0.000105
1155	1.1482e+02	-5.9934	-19.465050	0.000476	4.763476	1.613909	-0.000191
1156	1.1492e+02	-6.0351	-19.646721	0.000456	4.560775	1.545232	-0.000183
1157	1.1502e+02	-6.0720	-19.792058	0.000365	3.648620	1.236186	-0.000146
1158	1.1512e+02	-6.1121	-19.957581	0.000416	4.155373	1.407878	-0.000166
1159	1.1522e+02	-6.1410	-20.090806	0.000334	3.344568	1.133170	-0.000134
1160	1.1532e+02	-6.1939	-20.296700	0.000517	5.168878	1.751263	-0.000207
1161	1.1542e+02	-6.2292	-20.389554	0.000233	2.331063	0.789785	-0.000093
1162	1.1552e+02	-6.2758	-20.615634	0.000568	5.675631	1.922956	-0.000227
1163	1.1562e+02	-6.3143	-20.744822	0.000324	3.243218	1.098832	-0.000130
1164	1.1572e+02	-6.3447	-20.906307	0.000405	4.054022	1.373540	-0.000162
1165	1.1582e+02	-6.3929	-21.071830	0.000416	4.155373	1.407878	-0.000166
1166	1.1592e+02	-6.4282	-21.237353	0.000416	4.155373	1.407878	-0.000166
1167	1.1602e+02	-6.4570	-21.378652	0.000355	3.547269	1.201847	-0.000142
1168	1.1612e+02	-6.5004	-21.515915	0.000345	3.445919	1.167509	-0.000138
1169	1.1622e+02	-6.5405	-21.673363	0.000395	3.952671	1.339201	-0.000158
1170	1.1632e+02	-6.5886	-21.879257	0.000517	5.168878	1.751263	-0.000207
1171	1.1642e+02	-6.6255	-22.020557	0.000355	3.547269	1.201847	-0.000142
1172	1.1651e+02	-6.6592	-22.161857	0.000355	3.547269	1.201847	-0.000142
1173	1.1661e+02	-6.7057	-22.319305	0.000395	3.952671	1.339201	-0.000158
1174	1.1671e+02	-6.7394	-22.476753	0.000395	3.952671	1.339201	-0.000158
1175	1.1681e+02	-6.7811	-22.654387	0.000446	4.459424	1.510894	-0.000179
1176	1.1691e+02	-6.8244	-22.819910	0.000416	4.155373	1.407878	-0.000166
1177	1.1701e+02	-6.8677	-22.916801	0.000243	2.432413	0.824124	-0.000097
1178	1.1711e+02	-6.8982	-23.110584	0.000486	4.864826	1.648248	-0.000195
1179	1.1721e+02	-6.9415	-23.276106	0.000416	4.155373	1.407878	-0.000166
1180	1.1731e+02	-6.9896	-23.413369	0.000345	3.445919	1.167509	-0.000138
1181	1.1741e+02	-7.0265	-23.574854	0.000405	4.054022	1.373540	-0.000162
1182	1.1751e+02	-7.0570	-23.716154	0.000355	3.547269	1.201847	-0.000142
1183	1.1761e+02	-7.1035	-23.922048	0.000517	5.168878	1.751263	-0.000207
1184	1.1771e+02	-7.1485	-24.067385	0.000365	3.648620	1.236186	-0.000146
1185	1.1781e+02	-7.1902	-24.224833	0.000395	3.952671	1.339201	-0.000158
1186	1.1791e+02	-7.2271	-24.354021	0.000324	3.243218	1.098832	-0.000130
1187	1.1801e+02	-7.2624	-24.511470	0.000395	3.952671	1.339201	-0.000158
1188	1.1811e+02	-7.3121	-24.660844	0.000375	3.749970	1.270524	-0.000150
1189	1.1821e+02	-7.3410	-24.834440	0.000436	4.358074	1.476555	-0.000174
1190	1.1831e+02	-7.3795	-24.947480	0.000284	2.837815	0.961478	-0.000114
1191	1.1841e+02	-7.4180	-25.129151	0.000456	4.560775	1.545232	-0.000183
1192	1.1850e+02	-7.4565	-25.306785	0.000446	4.459424	1.510894	-0.000179
1193	1.1860e+02	-7.5046	-25.431937	0.000314	3.141867	1.064493	-0.000126
1194	1.1870e+02	-7.5463	-25.581311	0.000375	3.749970	1.270524	-0.000150
1195	1.1880e+02	-7.5816	-25.783167	0.000507	5.067527	1.716925	-0.000203
1196	1.1890e+02	-7.6297	-25.904281	0.000304	3.040516	1.030155	-0.000122
1197	1.1900e+02	-7.6554	-26.057693	0.000385	3.851321	1.304863	-0.000154
1198	1.1910e+02	-7.7019	-26.186881	0.000324	3.243218	1.098832	-0.000130
1199	1.1920e+02	-7.7420	-26.352404	0.000416	4.155373	1.407878	-0.000166
1200	1.1930e+02	-7.7837	-26.521963	0.000426	4.256723	1.442217	-0.000170
1201	1.1940e+02	-7.8174	-26.663263	0.000355	3.547269	1.201847	-0.000142
1202	1.1950e+02	-7.8527	-26.828786	0.000416	4.155373	1.407878	-0.000166
1203	1.1960e+02	-7.9008	-26.966048	0.000345	3.445919	1.167509	-0.000138
1204	1.1970e+02	-7.9377	-27.127534	0.000405	4.054022	1.373540	-0.000162
1205	1.1980e+02	-7.9795	-27.256722	0.000324	3.243218	1.098832	-0.000130
1206	1.1990e+02	-8.0212	-27.442430	0.000466	4.662125	1.579571	-0.000187
1207	1.2000e+02	-8.0549	-27.571619	0.000324	3.243218	1.098832	-0.000130
1208	1.2010e+02	-8.1030	-27.741178	0.000426	4.256723	1.442217	-0.000170
1209	1.2020e+02	-8.1447	-27.862292	0.000304	3.040516	1.030155	-0.000122
1210	1.2030e+02	-8.1816	-28.027815	0.000416	4.155373	1.407878	-0.000166
1211	1.2039e+02	-8.2121	-28.177189	0.000375	3.749970	1.270524	-0.000150
1212	1.2049e+02	-8.2666	-28.342711	0.000416	4.155373	1.407878	-0.000166
1213	1.2059e+02	-8.3003	-28.496123	0.000385	3.851321	1.304863	-0.000154
1214	1.2069e+02	-8.3420	-28.665682	0.000426	4.256723	1.442217	-0.000170
1215	1.2079e+02	-8.3853	-28.794871	0.000324	3.243218	1.098832	-0.000130
1216	1.2089e+02	-8.4206	-28.976542	0.000456	4.560775	1.545232	-0.000183
1217	1.2099e+02	-8.4527	-29.061322	0.000213	2.128362	0.721108	-0.000085
1218	1.2109e+02	-8.4912	-29.255104	0.000486	4.864826	1.648248	-0.000195
1219	1.2119e+02	-8.5377	-29.372181	0.000294	2.939166	0.995816	-0.000118
1220	1.2129e+02	-8.5794	-29.541741	0.000426	4.256723	1.442217	-0.000170
1221	1.2139e+02	-8.6051	-29.674966	0.000334	3.344568	1.133170	-0.000134
1222	1.2149e+02	-8.6548	-29.820303	0.000365	3.648620	1.236186	-0.000146
1223	1.2159e+02	-8.6965	-29.993900	0.000436	4.358074	1.476555	-0.000174
1224	1.2169e+02	-8.7367	-30.163460	0.000426	4.256723	1.442217	-0.000170
1225	1.2179e+02	-8.7735	-30.288611	0.000314	3.141867	1.064493	-0.000126
1226	1.2189e+02	-8.8169	-30.437985	0.000375	3.749970	1.270524	-0.000150
1227	1.2199e+02	-8.8538	-30.571210	0.000334	3.344568	1.133170	-0.000134
1228	1.2209e+02	-8.9019	-30.728659	0.000395	3.952671	1.339201	-0.000158
1229	1.2219e+02	-8.9356	-30.886107	0.000395	3.952671	1.339201	-0.000158
1230	1.2229e+02	-8.9709	-31.007221	0.000304	3.040516	1.030155	-0.000122
1231	1.2239e+02	-9.0174	-31.164669	0.000395	3.952671	1.339201	-0.000158
1232	1.2248e+02	-9.0559	-31.277709	0.000284	2.837815	0.961478	-0.000114
1233	1.2258e+02	-9.0992	-31.487640	0.000527	5.270229	1.785602	-0.000211
1234	1.2268e+02	-9.1361	-31.600680	0.000284	2.837815	0.961478	-0.000114
1235	1.2278e+02	-9.1778	-31.750054	0.000375	3.749970	1.270524	-0.000150
1236	1.2288e+02	-9.2163	-31.883279	0.000334	3.344568	1.133170	-0.000134
1237	1.2298e+02	-9.2548	-32.020542	0.000345	3.445919	1.167509	-0.000138
1238	1.2308e+02	-9.2997	-32.198176	0.000446	4.459424	1.510894	-0.000179
1239	1.2318e+02	-9.3366	-32.319290	0.000304	3.040516	1.030155	-0.000122
1240	1.2328e+02	-9.3751	-32.444441	0.000314	3.141867	1.064493	-0.000126
1241	1.2338e+02	-9.4072	-32.638224	0.000486	4.864826	1.648248	-0.000195
1242	1.2348e+02	-9.4650	-32.767412	0.000324	3.243218	1.098832	-0.000130
1243	1.2358e+02	-9.4922	-32.924861	0.000395	3.952671	1.339201	-0.000158
1244	1.2368e+02	-9.5388	-33.098457	0.000436	4.358074	1.476555	-0.000174
1245	1.2378e+02	-9.5789	-33.227646	0.000324	3.243218	1.098832	-0.000130
1246	1.2388e+02	-9.6142	-33.340685	0.000284	2.837815	0.961478	-0.000114
1247	1.2398e+02	-9.6511	-33.506208	0.000416	4.155373	1.407878	-0.000166
1248	1.2408e+02	-9.7040	-33.687879	0.000456	4.560775	1.545232	-0.000183
1249	1.2418e+02	-9.7361	-33.796882	0.000274	2.736465	0.927139	-0.000110
1250	1.2428e+02	-9.7778	-33.970479	0.000436	4.358074	1.476555	-0.000174
1251	1.2438e+02	-9.8115	-34.123890	0.000385	3.851321	1.304863	-0.000154
1252	1.2447e+02	-9.8484	-34.220781	0.000243	2.432413	0.824124	-0.000097
1253	1.2457e+02	-9.8933	-34.374192	0.000385	3.851321	1.304863	-0.000154
1254	1.2467e+02	-9.9318	-34.535678	0.000405	4.054022	1.373540	-0.000162
1255	1.2477e+02	-9.9687	-34.693126	0.000395	3.952671	1.339201	-0.000158
1256	1.2487e+02	-10.0184	-34.777906	0.000213	2.128362	0.721108	-0.000085
1257	1.2497e+02	-10.0553	-34.959577	0.000456	4.560775	1.545232	-0.000183
1258	1.2507e+02	-10.0890	-35.092802	0.000334	3.344568	1.133170	-0.000134
1259	1.2517e+02	-10.1259	-35.270436	0.000446	4.459424	1.510894	-0.000179
1260	1.2527e+02	-10.1789	-35.415773	0.000365	3.648620	1.236186	-0.000146
1261	1.2537e+02	-10.2190	-35.581296	0.000416	4.155373	1.407878	-0.000166
1262	1.2547e+02	-10.2446	-35.714521	0.000334	3.344568	1.133170	-0.000134
1263	1.2557e+02	-10.3024	-35.867932	0.000385	3.851321	1.304863	-0.000154
1264	1.2567e+02	-10.3297	-35.997121	0.000324	3.243218	1.098832	-0.000130
1265	1.2577e+02	-10.3682	-36.162643	0.000416	4.155373	1.407878	-0.000166
1266	1.2587e+02	-10.4099	-36.279720	0.000294	2.939166	0.995816	-0.000118
1267	1.2597e+02	-10.4484	-36.461391	0.000456	4.560775	1.545232	-0.000183
1268	1.2607e+02	-10.4885	-36.606728	0.000365	3.648620	1.236186	-0.000146
1269	1.2617e+02	-10.5254	-36.703620	0.000243	2.432413	0.824124	-0.000097
1270	1.2627e+02	-10.5623	-36.889328	0.000466	4.662125	1.579571	-0.000187
1271	1.2636e+02	-10.6136	-37.014479	0.000314	3.141867	1.064493	-0.000126
1272	1.2646e+02	-10.6489	-37.167890	0.000385	3.851321	1.304863	-0.000154
1273	1.2656e+02	-10.6890	-37.337450	0.000426	4.256723	1.442217	-0.000170
1274	1.2666e+02	-10.7291	-37.470675	0.000334	3.344568	1.133170	-0.000134
1275	1.2676e+02	-10.7724	-37.628124	0.000395	3.952671	1.339201	-0.000158
1276	1.2686e+02	-10.8061	-37.757312	0.000324	3.243218	1.098832	-0.000130
1277	1.2696e+02	-10.8446	-37.906686	0.000375	3.749970	1.270524	-0.000150
1278	1.2706e+02	-10.8815	-38.031837	0.000314	3.141867	1.064493	-0.000126
1279	1.2716e+02	-10.9312	-38.197360	0.000416	4.155373	1.407878	-0.000166
1280	1.2726e+02	-10.9617	-38.346734	0.000375	3.749970	1.270524	-0.000150
1281	1.2736e+02	-11.0131	-38.488034	0.000355	3.547269	1.201847	-0.000142
1282	1.2746e+02	-11.0548	-38.633370	0.000365	3.648620	1.236186	-0.000146
1283	1.2756e+02	-11.0917	-38.798893	0.000416	4.155373	1.407878	-0.000166
1284	1.2766e+02	-11.1318	-38.940193	0.000355	3.547269	1.201847	-0.000142
1285	1.2776e+02	-11.1831	-39.057270	0.000294	2.939166	0.995816	-0.000118
1286	1.2786e+02	-11.2120	-39.234904	0.000446	4.459424	1.510894	-0.000179
1287	1.2796e+02	-11.2569	-39.360055	0.000314	3.141867	1.064493	-0.000126
1288	1.2806e+02	-11.2794	-39.537689	0.000446	4.459424	1.510894	-0.000179
1289	1.2816e+02	-11.3227	-39.626506	0.000223	2.229712	0.755447	-0.000089
1290	1.2826e+02	-11.3692	-39.824325	0.000497	4.966177	1.682586	-0.000199
1291	1.2835e+02	-11.3965	-39.977737	0.000385	3.851321	1.304863	-0.000154
1292	1.2845e+02	-11.4478	-40.070591	0.000233	2.331063	0.789785	-0.000093
1293	1.2855e+02	-11.4943	-40.256299	0.000466	4.662125	1.579571	-0.000187
1294	1.2865e+02	-11.5344	-40.429896	0.000436	4.358074	1.476555	-0.000174
1295	1.2875e+02	-11.5617	-40.559084	0.000324	3.243218	1.098832	-0.000130
1296	1.2885e+02	-11.6098	-40.664050	0.000264	2.635114	0.892801	-0.000105
1297	1.2895e+02	-11.6435	-40.837647	0.000436	4.358074	1.476555	-0.000174
1298	1.2905e+02	-11.6820	-40.999132	0.000405	4.054022	1.373540	-0.000162
1299	1.2915e+02	-11.7302	-41.116209	0.000294	2.939166	0.995816	-0.000118
1300	1.2925e+02	-11.7558	-41.265583	0.000375	3.749970	1.270524	-0.000150
1301	1.2935e+02	-11.8039	-41.427068	0.000405	4.054022	1.373540	-0.000162
1302	1.2945e+02	-11.8408	-41.572405	0.000365	3.648620	1.236186	-0.000146
1303	1.2955e+02	-11.8842	-41.713705	0.000355	3.547269	1.201847	-0.000142
1304	1.2965e+02	-11.9243	-41.855005	0.000355	3.547269	1.201847	-0.000142
1305	1.2975e+02	-11.9660	-41.968045	0.000284	2.837815	0.961478	-0.000114
1306	1.2985e+02	-12.0093	-42.145679	0.000446	4.459424	1.510894	-0.000179
1307	1.2995e+02	-12.0526	-42.270830	0.000314	3.141867	1.064493	-0.000126
1308	1.3005e+02	-12.0799	-42.412129	0.000355	3.547269	1.201847	-0.000142
1309	1.3015e+02	-12.1280	-42.549392	0.000345	3.445919	1.167509	-0.000138
1310	1.3025e+02	-12.1713	-42.714915	0.000416	4.155373	1.407878	-0.000166
1311	1.3034e+02	-12.2002	-42.892549	0.000446	4.459424	1.510894	-0.000179
1312	1.3044e+02	-12.2483	-43.001551	0.000274	2.736465	0.927139	-0.000110
1313	1.3054e+02	-12.2740	-43.150925	0.000375	3.749970	1.270524	-0.000150
1314	1.3064e+02	-12.3221	-43.296262	0.000365	3.648620	1.236186	-0.000146
1315	1.3074e+02	-12.3670	-43.473896	0.000446	4.459424	1.510894	-0.000179
1316	1.3084e+02	-12.4007	-43.599047	0.000314	3.141867	1.064493	-0.000126
1317	1.3094e+02	-12.4553	-43.736310	0.000345	3.445919	1.167509	-0.000138
1318	1.3104e+02	-12.4777	-43.897795	0.000405	4.054022	1.373540	-0.000162
1319	1.3114e+02	-12.5194	-44.022947	0.000314	3.141867	1.064493	-0.000126
1320	1.3124e+02	-12.5595	-44.184432	0.000405	4.054022	1.373540	-0.000162
1321	1.3134e+02	-12.5948	-44.321695	0.000345	3.445919	1.167509	-0.000138
1322	1.3144e+02	-12.6430	-44.450883	0.000324	3.243218	1.098832	-0.000130
1323	1.3154e+02	-12.6734	-44.596220	0.000365	3.648620	1.236186	-0.000146
1324	1.3164e+02	-12.7264	-44.781928	0.000466	4.662125	1.579571	-0.000187
1325	1.3174e+02	-12.7633	-44.886894	0.000264	2.635114	0.892801	-0.000105
1326	1.3184e+02	-12.7986	-45.088750	0.000507	5.067527	1.716925	-0.000203
1327	1.3194e+02	-12.8435	-45.201790	0.000284	2.837815	0.961478	-0.000114
1328	1.3204e+02	-12.8900	-45.335016	0.000334	3.344568	1.133170	-0.000134
1329	1.3214e+02	-12.9173	-45.492464	0.000395	3.952671	1.339201	-0.000158
1330	1.3224e+02	-12.9526	-45.621652	0.000324	3.243218	1.098832	-0.000130
1331	1.3234e+02	-13.0055	-45.771026	0.000375	3.749970	1.270524	-0.000150
1332	1.3243e+02	-13.0456	-45.888103	0.000294	2.939166	0.995816	-0.000118
1333	1.3253e+02	-13.0793	-46.053626	0.000416	4.155373	1.407878	-0.000166
1334	1.3263e+02	-13.1258	-46.223186	0.000426	4.256723	1.442217	-0.000170
1335	1.3273e+02	-13.1579	-46.316040	0.000233	2.331063	0.789785	-0.000093
1336	1.3283e+02	-13.1980	-46.513859	0.000497	4.966177	1.682586	-0.000199
1337	1.3293e+02	-13.2397	-46.639011	0.000314	3.141867	1.064493	-0.000126
1338	1.3303e+02	-13.2782	-46.768199	0.000324	3.243218	1.098832	-0.000130
1339	1.3313e+02	-13.3183	-46.905462	0.000345	3.445919	1.167509	-0.000138
1340	1.3323e+02	-13.3504	-47.058873	0.000385	3.851321	1.304863	-0.000154
1341	1.3333e+02	-13.3986	-47.188061	0.000324	3.243218	1.098832	-0.000130
1342	1.3343e+02	-13.4354	-47.329361	0.000355	3.547269	1.201847	-0.000142
1343	1.3353e+02	-13.4772	-47.466623	0.000345	3.445919	1.167509	-0.000138
1344	1.3363e+02	-13.5237	-47.603886	0.000345	3.445919	1.167509	-0.000138
1345	1.3373e+02	-13.5590	-47.761334	0.000395	3.952671	1.339201	-0.000158
1346	1.3383e+02	-13.5975	-47.914746	0.000385	3.851321	1.304863	-0.000154
1347	1.3393e+02	-13.6360	-48.003562	0.000223	2.229712	0.755447	-0.000089
1348	1.3403e+02	-13.6809	-48.169085	0.000416	4.155373	1.407878	-0.000166
1349	1.3413e+02	-13.7162	-48.294236	0.000314	3.141867	1.064493	-0.000126
1350	1.3423e+02	-13.7595	-48.447647	0.000385	3.851321	1.304863	-0.000154
1351	1.3432e+02	-13.7932	-48.613170	0.000416	4.155373	1.407878	-0.000166
1352	1.3442e+02	-13.8397	-48.710061	0.000243	2.432413	0.824124	-0.000097
1353	1.3452e+02	-13.8734	-48.863472	0.000385	3.851321	1.304863	-0.000154
1354	1.3462e+02	-13.9231	-49.004772	0.000355	3.547269	1.201847	-0.000142
1355	1.3472e+02	-13.9600	-49.154146	0.000375	3.749970	1.270524	-0.000150
1356	1.3482e+02	-14.0033	-49.267186	0.000284	2.837815	0.961478	-0.000114
1357	1.3492e+02	-14.0306	-49.420597	0.000385	3.851321	1.304863	-0.000154
1358	1.3502e+02	-14.0691	-49.549785	0.000324	3.243218	1.098832	-0.000130
1359	1.3512e+02	-14.1092	-49.719345	0.000426	4.256723	1.442217	-0.000170
1360	1.3522e+02	-14.1606	-49.872756	0.000385	3.851321	1.304863	-0.000154
1361	1.3532e+02	-14.1926	-49.965610	0.000233	2.331063	0.789785	-0.000093
1362	1.3542e+02	-14.2376	-50.135170	0.000426	4.256723	1.442217	-0.000170
1363	1.3552e+02	-14.2809	-50.248210	0.000284	2.837815	0.961478	-0.000114
1364	1.3562e+02	-14.3114	-50.421807	0.000436	4.358074	1.476555	-0.000174
1365	1.3572e+02	-14.3499	-50.534847	0.000284	2.837815	0.961478	-0.000114
1366	1.3582e+02	-14.3980	-50.659998	0.000314	3.141867	1.064493	-0.000126
1367	1.3592e+02	-14.4317	-50.797260	0.000345	3.445919	1.167509	-0.000138
1368	1.3602e+02	-14.4766	-50.978932	0.000456	4.560775	1.545232	-0.000183
1369	1.3612e+02	-14.5103	-51.100046	0.000304	3.040516	1.030155	-0.000122
1370	1.3622e+02	-14.5568	-51.245382	0.000365	3.648620	1.236186	-0.000146
1371	1.3631e+02	-14.5825	-51.374571	0.000324	3.243218	1.098832	-0.000130
1372	1.3641e+02	-14.6338	-51.487611	0.000284	2.837815	0.961478	-0.000114
1373	1.3651e+02	-14.6675	-51.624873	0.000345	3.445919	1.167509	-0.000138
1374	1.3661e+02	-14.7188	-51.790396	0.000416	4.155373	1.407878	-0.000166
1375	1.3671e+02	-14.7509	-51.907473	0.000294	2.939166	0.995816	-0.000118
1376	1.3681e+02	-14.7926	-52.060884	0.000385	3.851321	1.304863	-0.000154
1377	1.3691e+02	-14.8343	-52.169887	0.000274	2.736465	0.927139	-0.000110
1378	1.3701e+02	-14.8744	-52.351558	0.000456	4.560775	1.545232	-0.000183
1379	1.3711e+02	-14.9162	-52.436338	0.000213	2.128362	0.721108	-0.000085
1380	1.3721e+02	-14.9466	-52.622046	0.000466	4.662125	1.579571	-0.000187
1381	1.3731e+02	-14.9980	-52.718937	0.000243	2.432413	0.824124	-0.000097
1382	1.3741e+02	-15.0317	-52.880422	0.000405	4.054022	1.373540	-0.000162
1383	1.3751e+02	-15.0830	-53.049982	0.000426	4.256723	1.442217	-0.000170
1384	1.3761e+02	-15.1087	-53.175133	0.000314	3.141867	1.064493	-0.000126
1385	1.3771e+02	-15.1584	-53.312396	0.000345	3.445919	1.167509	-0.000138
1386	1.3781e+02	-15.1953	-53.449659	0.000345	3.445919	1.167509	-0.000138
1387	1.3791e+02	-15.2274	-53.607107	0.000395	3.952671	1.339201	-0.000158
1388	1.3801e+02	-15.2675	-53.716110	0.000274	2.736465	0.927139	-0.000110
1389	1.3811e+02	-15.3092	-53.861446	0.000365	3.648620	1.236186	-0.000146
1390	1.3821e+02	-15.3525	-53.970449	0.000274	2.736465	0.927139	-0.000110
1391	1.3831e+02	-15.3878	-54.172306	0.000507	5.067527	1.716925	-0.000203
1392	1.3840e+02	-15.4311	-54.321680	0.000375	3.749970	1.270524	-0.000150
1393	1.3850e+02	-15.4760	-54.434720	0.000284	2.837815	0.961478	-0.000114
1394	1.3860e+02	-15.5177	-54.576019	0.000355	3.547269	1.201847	-0.000142
1395	1.3870e+02	-15.5530	-54.685022	0.000274	2.736465	0.927139	-0.000110
1396	1.3880e+02	-15.5915	-54.886879	0.000507	5.067527	1.716925	-0.000203
1397	1.3890e+02	-15.6332	-54.967622	0.000203	2.027011	0.686770	-0.000081
1398	1.3900e+02	-15.6734	-55.145256	0.000446	4.459424	1.510894	-0.000179
1399	1.3910e+02	-15.7103	-55.290593	0.000365	3.648620	1.236186	-0.000146
1400	1.3920e+02	-15.7488	-55.439967	0.000375	3.749970	1.270524	-0.000150
1401	1.3930e+02	-15.7921	-55.581266	0.000355	3.547269	1.201847	-0.000142
1402	1.3940e+02	-15.8306	-55.657972	0.000193	1.925660	0.652431	-0.000077
1403	1.3950e+02	-15.8739	-55.835606	0.000446	4.459424	1.510894	-0.000179
1404	1.3960e+02	-15.9188	-55.997091	0.000405	4.054022	1.373540	-0.000162
1405	1.3970e+02	-15.9525	-56.126280	0.000324	3.243218	1.098832	-0.000130
1406	1.3980e+02	-15.9894	-56.275654	0.000375	3.749970	1.270524	-0.000150
1407	1.3990e+02	-16.0263	-56.412916	0.000345	3.445919	1.167509	-0.000138
1408	1.4000e+02	-16.0696	-56.570365	0.000395	3.952671	1.339201	-0.000158
1409	1.4010e+02	-16.1065	-56.651107	0.000203	2.027011	0.686770	-0.000081
1410	1.4020e+02	-16.1530	-56.885261	0.000588	5.878332	1.991633	-0.000235
1411	1.4029e+02	-16.1899	-57.014449	0.000324	3.243218	1.098832	-0.000130
1412	1.4039e+02	-16.2332	-57.119415	0.000264	2.635114	0.892801	-0.000105
1413	1.4049e+02	-16.2669	-57.288975	0.000426	4.256723	1.442217	-0.000170
1414	1.4059e+02	-16.3070	-57.442386	0.000385	3.851321	1.304863	-0.000154
1415	1.4069e+02	-16.3487	-57.620020	0.000446	4.459424	1.510894	-0.000179
1416	1.4079e+02	-16.3969	-57.785542	0.000416	4.155373	1.407878	-0.000166
1417	1.4089e+02	-16.4354	-57.938954	0.000385	3.851321	1.304863	-0.000154
1418	1.4099e+02	-16.4691	-58.080253	0.000355	3.547269	1.201847	-0.000142
1419	1.4109e+02	-16.5124	-58.229627	0.000375	3.749970	1.270524	-0.000150
1420	1.4119e+02	-16.5445	-58.362853	0.000334	3.344568	1.133170	-0.000134
1421	1.4129e+02	-16.5765	-58.560672	0.000497	4.966177	1.682586	-0.000199
1422	1.4139e+02	-16.6199	-58.726195	0.000416	4.155373	1.407878	-0.000166
1423	1.4149e+02	-16.6600	-58.839235	0.000284	2.837815	0.961478	-0.000114
1424	1.4159e+02	-16.7097	-59.061277	0.000557	5.574280	1.888617	-0.000223
1425	1.4169e+02	-16.7466	-59.222763	0.000405	4.054022	1.373540	-0.000162
1426	1.4179e+02	-16.7755	-59.376174	0.000385	3.851321	1.304863	-0.000154
1427	1.4189e+02	-16.8220	-59.533622	0.000395	3.952671	1.339201	-0.000158
1428	1.4199e+02	-16.8541	-59.723368	0.000476	4.763476	1.613909	-0.000191
1429	1.4209e+02	-16.9102	-59.844482	0.000304	3.040516	1.030155	-0.000122
1430	1.4219e+02	-16.9439	-60.058450	0.000537	5.371579	1.819940	-0.000215
1431	1.4228e+02	-16.9920	-60.203787	0.000365	3.648620	1.236186	-0.000146
1432	1.4238e+02	-17.0209	-60.385458	0.000456	4.560775	1.545232	-0.000183
1433	1.4248e+02	-17.0706	-60.518683	0.000334	3.344568	1.133170	-0.000134
1434	1.4258e+02	-17.1027	-60.688243	0.000426	4.256723	1.442217	-0.000170
1435	1.4268e+02	-17.1396	-60.918360	0.000578	5.776981	1.957294	-0.000231
1436	1.4278e+02	-17.1829	-61.071771	0.000385	3.851321	1.304863	-0.000154
1437	1.4288e+02	-17.2230	-61.269591	0.000497	4.966177	1.682586	-0.000199
1438	1.4298e+02	-17.2712	-61.402816	0.000334	3.344568	1.133170	-0.000134
1439	1.4308e+02	-17.3097	-61.641007	0.000598	5.979682	2.025971	-0.000239
1440	1.4318e+02	-17.3562	-61.830752	0.000476	4.763476	1.613909	-0.000191
1441	1.4328e+02	-17.3867	-62.032609	0.000507	5.067527	1.716925	-0.000203
1442	1.4338e+02	-17.4236	-62.153723	0.000304	3.040516	1.030155	-0.000122
1443	1.4348e+02	-17.4573	-62.391914	0.000598	5.979682	2.025971	-0.000239
1444	1.4358e+02	-17.5038	-62.581660	0.000476	4.763476	1.613909	-0.000191
1445	1.4368e+02	-17.5391	-62.739108	0.000395	3.952671	1.339201	-0.000158
1446	1.4378e+02	-17.5840	-63.001522	0.000659	6.587786	2.232002	-0.000264
1447	1.4388e+02	-17.6289	-63.179156	0.000446	4.459424	1.510894	-0.000179
1448	1.4398e+02	-17.6690	-63.381013	0.000507	5.067527	1.716925	-0.000203
1449	1.4408e+02	-17.7059	-63.586906	0.000517	5.168878	1.751263	-0.000207
1450	1.4418e+02	-17.7428	-63.796838	0.000527	5.270229	1.785602	-0.000211
1451	1.4428e+02	-17.7861	-64.002731	0.000517	5.168878	1.751263	-0.000207
1452	1.4437e+02	-17.8246	-64.172291	0.000426	4.256723	1.442217	-0.000170
1453	1.4447e+02	-17.8647	-64.422594	0.000628	6.283734	2.128987	-0.000252
1454	1.4457e+02	-17.9064	-64.596190	0.000436	4.358074	1.476555	-0.000174
1455	1.4467e+02	-17.9498	-64.826307	0.000578	5.776981	1.957294	-0.000231
1456	1.4477e+02	-17.9883	-65.028164	0.000507	5.067527	1.716925	-0.000203
1457	1.4487e+02	-18.0203	-65.266355	0.000598	5.979682	2.025971	-0.000239
1458	1.4497e+02	-18.0605	-65.448026	0.000456	4.560775	1.545232	-0.000183
1459	1.4507e+02	-18.1022	-65.706403	0.000649	6.486435	2.197664	-0.000260
1460	1.4517e+02	-18.1391	-65.880000	0.000436	4.358074	1.476555	-0.000174
1461	1.4527e+02	-18.1856	-66.146450	0.000669	6.689136	2.266341	-0.000268
1462	1.4537e+02	-18.2257	-66.356382	0.000527	5.270229	1.785602	-0.000211
1463	1.4547e+02	-18.2626	-66.586498	0.000578	5.776981	1.957294	-0.000231
1464	1.4557e+02	-18.2979	-66.897358	0.000780	7.803992	2.644064	-0.000312
1465	1.4567e+02	-18.3364	-67.091140	0.000486	4.864826	1.648248	-0.000195
1466	1.4577e+02	-18.3925	-67.321257	0.000578	5.776981	1.957294	-0.000231
1467	1.4587e+02	-18.4182	-67.579634	0.000649	6.486435	2.197664	-0.000260
1468	1.4597e+02	-18.4599	-67.797639	0.000547	5.472930	1.854279	-0.000219
1469	1.4607e+02	-18.5016	-68.047941	0.000628	6.283734	2.128987	-0.000252
1470	1.4617e+02	-18.5433	-68.298244	0.000628	6.283734	2.128987	-0.000252
1471	1.4626e+02	-18.5882	-68.544509	0.000618	6.182384	2.094648	-0.000248
1472	1.4636e+02	-18.6203	-68.794812	0.000628	6.283734	2.128987	-0.000252
1473	1.4646e+02	-18.6604	-69.077411	0.000709	7.094538	2.403695	-0.000284
1474	1.4656e+02	-18.6973	-69.343862	0.000669	6.689136	2.266341	-0.000268
1475	1.4666e+02	-18.7439	-69.586090	0.000608	6.081033	2.060310	-0.000243
1476	1.4676e+02	-18.7791	-69.860615	0.000689	6.891837	2.335018	-0.000276
1477	1.4686e+02	-18.8225	-70.139178	0.000699	6.993188	2.369356	-0.000280
1478	1.4696e+02	-18.8610	-70.353146	0.000537	5.371579	1.819940	-0.000215
1479	1.4706e+02	-18.8979	-70.696302	0.000861	8.614797	2.918772	-0.000345
1480	1.4716e+02	-18.9492	-71.003125	0.000770	7.702642	2.609726	-0.000308
1481	1.4726e+02	-18.9749	-71.245353	0.000608	6.081033	2.060310	-0.000243
1482	1.4736e+02	-19.0134	-71.511804	0.000669	6.689136	2.266341	-0.000268
1483	1.4746e+02	-19.0487	-71.867072	0.000892	8.918848	3.021788	-0.000357
1484	1.4756e+02	-19.0968	-72.117374	0.000628	6.283734	2.128987	-0.000252
1485	1.4766e+02	-19.1385	-72.399974	0.000709	7.094538	2.403695	-0.000284
1486	1.4776e+02	-19.1722	-72.735056	0.000841	8.412096	2.850095	-0.000337
1487	1.4786e+02	-19.2331	-73.066101	0.000831	8.310745	2.815757	-0.000333
1488	1.4796e+02	-19.2556	-73.352738	0.000720	7.195889	2.438033	-0.000288
1489	1.4806e+02	-19.2957	-73.703969	0.000882	8.817498	2.987449	-0.000353
1490	1.4816e+02	-19.3262	-73.978494	0.000689	6.891837	2.335018	-0.000276
1491	1.4825e+02	-19.3791	-74.285316	0.000770	7.702642	2.609726	-0.000308
1492	1.4835e+02	-19.4208	-74.612324	0.000821	8.209395	2.781418	-0.000329
1493	1.4845e+02	-19.4497	-74.931258	0.000801	8.006693	2.712741	-0.000321
1494	1.4855e+02	-19.4946	-75.254229	0.000811	8.108044	2.747080	-0.000325
1495	1.4865e+02	-19.5396	-75.649868	0.000993	9.932354	3.365173	-0.000398
1496	1.4875e+02	-19.5781	-75.988987	0.000851	8.513446	2.884434	-0.000341
1497	1.4885e+02	-19.6166	-76.271587	0.000709	7.094538	2.403695	-0.000284
1498	1.4895e+02	-19.6454	-76.626855	0.000892	8.918848	3.021788	-0.000357
1499	1.4905e+02	-19.6952	-76.961937	0.000841	8.412096	2.850095	-0.000337
1500	1.4915e+02	-19.7401	-77.373725	0.001034	10.337756	3.502527	-0.000414
1501	1.4925e+02	-19.7738	-77.716882	0.000861	8.614797	2.918772	-0.000345
1502	1.4935e+02	-19.8091	-78.023704	0.000770	7.702642	2.609726	-0.000308
1503	1.4945e+02	-19.8508	-78.423380	0.001003	10.033704	3.399511	-0.000402
1504	1.4955e+02	-19.8877	-78.827094	0.001014	10.135055	3.433850	-0.000406
1505	1.4965e+02	-19.9406	-79.133916	0.000770	7.702642	2.609726	-0.000308
1506	1.4975e+02	-19.9679	-79.545704	0.001034	10.337756	3.502527	-0.000414
1507	1.4985e+02	-20.0144	-79.925195	0.000953	9.526952	3.227819	-0.000381
1508	1.4995e+02	-19.9791	-80.090717	-0.000416	-4.155373	-1.407878	-0.000166
1509	1.5005e+02	-19.9326	-80.260277	-0.000426	-4.256723	-1.442217	-0.000170
1510	1.5015e+02	-19.8941	-80.385428	-0.000314	-3.141867	-1.064493	-0.000126
1511	1.5025e+02	-19.8508	-80.538839	-0.000385	-3.851321	-1.304863	-0.000154
1512	1.5034e+02	-19.8059	-80.672065	-0.000334	-3.344568	-1.133170	-0.000134
1513	1.5044e+02	-19.7674	-80.744733	-0.000182	-1.824310	-0.618093	-0.000073
1514	1.5054e+02	-19.7240	-80.837587	-0.000233	-2.331063	-0.789785	-0.000093
1515	1.5064e+02	-19.6936	-80.906219	-0.000172	-1.722959	-0.583754	-0.000069
1516	1.5074e+02	-19.6567	-80.982924	-0.000193	-1.925660	-0.652431	-0.000077
1517	1.5084e+02	-19.6085	-81.047519	-0.000162	-1.621609	-0.549416	-0.000065
1518	1.5094e+02	-19.5748	-81.148447	-0.000253	-2.533764	-0.858462	-0.000101
1519	1.5104e+02	-19.5363	-81.213041	-0.000162	-1.621609	-0.549416	-0.000065
1520	1.5114e+02	-19.4946	-81.213041	0.000000	0.000000	0.000000	0.000000
1521	1.5124e+02	-19.4626	-81.241301	-0.000071	-0.709454	-0.240369	-0.000028
1522	1.5134e+02	-19.4192	-81.297821	-0.000142	-1.418908	-0.480739	-0.000057
1523	1.5144e+02	-19.3743	-81.301858	-0.000010	-0.101351	-0.034338	-0.000004
1524	1.5154e+02	-19.3374	-81.326081	-0.000061	-0.608103	-0.206031	-0.000024
1525	1.5164e+02	-19.2973	-81.406824	-0.000203	-2.027011	-0.686770	-0.000081
1526	1.5174e+02	-19.2572	-81.370489	0.000091	0.912155	0.309046	0.000037
1527	1.5184e+02	-19.2171	-81.366452	0.000010	0.101351	0.034338	0.000004
1528	1.5194e+02	-19.1754	-81.346267	0.000051	0.506753	0.171692	0.000020
1529	1.5204e+02	-19.1353	-81.366452	-0.000051	-0.506753	-0.171692	-0.000020
1530	1.5214e+02	-19.0984	-81.350304	0.000041	0.405402	0.137354	0.000016
1531	1.5224e+02	-19.0567	-81.342229	0.000020	0.202701	0.068677	0.000008
1532	1.5233e+02	-19.0166	-81.305895	0.000091	0.912155	0.309046	0.000037
1533	1.5243e+02	-18.9829	-81.326081	-0.000051	-0.506753	-0.171692	-0.000020
1534	1.5253e+02	-18.9412	-81.257450	0.000172	1.722959	0.583754	0.000069
1535	1.5263e+02	-18.9059	-81.241301	0.000041	0.405402	0.137354	0.000016
1536	1.5273e+02	-18.8562	-81.241301	0.000000	0.000000	0.000000	0.000000
1537	1.5283e+02	-18.8160	-81.176707	0.000162	1.621609	0.549416	0.000065
1538	1.5293e+02	-18.7791	-81.148447	0.000071	0.709454	0.240369	0.000028
1539	1.5303e+02	-18.7390	-81.120187	0.000071	0.709454	0.240369	0.000028
1540	1.5313e+02	-18.7021	-81.075778	0.000111	1.114856	0.377723	0.000045
1541	1.5323e+02	-18.6556	-81.019259	0.000142	1.418908	0.480739	0.000057
1542	1.5333e+02	-18.6235	-80.990999	0.000071	0.709454	0.240369	0.000028
1543	1.5343e+02	-18.5786	-80.934479	0.000142	1.418908	0.480739	0.000057
1544	1.5353e+02	-18.5369	-80.910256	0.000061	0.608103	0.206031	0.000024
1545	1.5363e+02	-18.4920	-80.821439	0.000223	2.229712	0.755447	0.000089
1546	1.5373e+02	-18.4583	-80.768956	0.000132	1.317557	0.446400	0.000053
1547	1.5383e+02	-18.4182	-80.704362	0.000162	1.621609	0.549416	0.000065
1548	1.5393e+02	-18.3813	-80.688213	0.000041	0.405402	0.137354	0.000016
1549	1.5403e+02	-18.3444	-80.607471	0.000203	2.027011	0.686770	0.000081
1550	1.5413e+02	-18.2931	-80.534802	0.000182	1.824310	0.618093	0.000073
1551	1.5422e+02	-18.2642	-80.494431	0.000101	1.013505	0.343385	0.000041
1552	1.5432e+02	-18.2273	-80.425800	0.000172	1.722959	0.583754	0.000069
1553	1.5442e+02	-18.1856	-80.361205	0.000162	1.621609	0.549416	0.000065
1554	1.5452e+02	-18.1407	-80.268351	0.000233	2.331063	0.789785	0.000093
1555	1.5462e+02	-18.1038	-80.199720	0.000172	1.722959	0.583754	0.000069
1556	1.5472e+02	-18.0605	-80.155312	0.000111	1.114856	0.377723	0.000045
1557	1.5482e+02	-18.0300	-80.014012	0.000355	3.547269	1.201847	0.000142
1558	1.5492e+02	-17.9770	-79.981715	0.000081	0.810804	0.274708	0.000032
1559	1.5502e+02	-17.9433	-79.925195	0.000142	1.418908	0.480739	0.000057
1560	1.5512e+02	-17.9081	-79.840415	0.000213	2.128362	0.721108	0.000085
1561	1.5522e+02	-17.8744	-79.739487	0.000253	2.533764	0.858462	0.000101
1562	1.5532e+02	-17.8198	-79.662781	0.000193	1.925660	0.652431	0.000077
1563	1.5542e+02	-17.7813	-79.606261	0.000142	1.418908	0.480739	0.000057
1564	1.5552e+02	-17.7412	-79.529555	0.000193	1.925660	0.652431	0.000077
1565	1.5562e+02	-17.7059	-79.380181	0.000375	3.749970	1.270524	0.000150
1566	1.5572e+02	-17.6690	-79.335773	0.000111	1.114856	0.377723	0.000045
1567	1.5582e+02	-17.6145	-79.230807	0.000264	2.635114	0.892801	0.000105
1568	1.5592e+02	-17.5808	-79.146028	0.000213	2.128362	0.721108	0.000085
1569	1.5602e+02	-17.5519	-79.097582	0.000122	1.216207	0.412062	0.000049
1570	1.5612e+02	-17.4990	-78.948208	0.000375	3.749970	1.270524	0.000150
1571	1.5622e+02	-17.4589	-78.915911	0.000081	0.810804	0.274708	0.000032
1572	1.5631e+02	-17.4204	-78.786722	0.000324	3.243218	1.098832	0.000130
1573	1.5641e+02	-17.3803	-78.689831	0.000243	2.432413	0.824124	0.000097
1574	1.5651e+02	-17.3402	-78.629274	0.000152	1.520258	0.515077	0.000061
1575	1.5661e+02	-17.3113	-78.520272	0.000274	2.736465	0.927139	0.000110
1576	1.5671e+02	-17.2631	-78.415306	0.000264	2.635114	0.892801	0.000105
1577	1.5681e+02	-17.2214	-78.314378	0.000253	2.533764	0.858462	0.000101
1578	1.5691e+02	-17.1958	-78.221523	0.000233	2.331063	0.789785	0.000093
1579	1.5701e+02	-17.1476	-78.128669	0.000233	2.331063	0.789785	0.000093
1580	1.5711e+02	-17.1091	-78.051964	0.000193	1.925660	0.652431	0.000077
1581	1.5721e+02	-17.0706	-77.926813	0.000314	3.141867	1.064493	0.000126
1582	1.5731e+02	-17.0145	-77.829921	0.000243	2.432413	0.824124	0.000097
1583	1.5741e+02	-16.9792	-77.749179	0.000203	2.027011	0.686770	0.000081
1584	1.5751e+02	-16.9423	-77.624027	0.000314	3.141867	1.064493	0.000126
1585	1.5761e+02	-16.9038	-77.567508	0.000142	1.418908	0.480739	0.000057
1586	1.5771e+02	-16.8653	-77.422171	0.000365	3.648620	1.236186	0.000146
1587	1.5781e+02	-16.8316	-77.353539	0.000172	1.722959	0.583754	0.000069
1588	1.5791e+02	-16.7915	-77.240500	0.000284	2.837815	0.961478	0.000114
1589	1.5801e+02	-16.7418	-77.147645	0.000233	2.331063	0.789785	0.000093
1590	1.5811e+02	-16.7001	-77.030568	0.000294	2.939166	0.995816	0.000118
1591	1.5821e+02	-16.6648	-76.941751	0.000223	2.229712	0.755447	0.000089
1592	1.5830e+02	-16.6295	-76.856972	0.000213	2.128362	0.721108	0.000085
1593	1.5840e+02	-16.5830	-76.772192	0.000213	2.128362	0.721108	0.000085
1594	1.5850e+02	-16.5477	-76.671263	0.000253	2.533764	0.858462	0.000101
1595	1.5860e+02	-16.5043	-76.570335	0.000253	2.533764	0.858462	0.000101
1596	1.5870e+02	-16.4691	-76.433072	0.000345	3.445919	1.167509	0.000138
1597	1.5880e+02	-16.4289	-76.328107	0.000264	2.635114	0.892801	0.000105
1598	1.5890e+02	-16.3856	-76.259476	0.000172	1.722959	0.583754	0.000069
1599	1.5900e+02	-16.3535	-76.126250	0.000334	3.344568	1.133170	0.000134
1600	1.5910e+02	-16.3022	-76.041470	0.000213	2.128362	0.721108	0.000085
1601	1.5920e+02	-16.2653	-75.948616	0.000233	2.331063	0.789785	0.000093
1602	1.5930e+02	-16.2316	-75.803279	0.000365	3.648620	1.236186	0.000146
1603	1.5940e+02	-16.1979	-75.754834	0.000122	1.216207	0.412062	0.000049
1604	1.5950e+02	-16.1530	-75.629682	0.000314	3.141867	1.064493	0.000126
1605	1.5960e+02	-16.1161	-75.536828	0.000233	2.331063	0.789785	0.000093
1606	1.5970e+02	-16.0616	-75.395528	0.000355	3.547269	1.201847	0.000142
1607	1.5980e+02	-16.0343	-75.310749	0.000213	2.128362	0.721108	0.000085
1608	1.5990e+02	-15.9926	-75.225969	0.000213	2.128362	0.721108	0.000085
1609	1.6000e+02	-15.9509	-75.153300	0.000182	1.824310	0.618093	0.000073
1610	1.6010e+02	-15.9076	-75.036223	0.000294	2.939166	0.995816	0.000118
1611	1.6019e+02	-15.8851	-74.886849	0.000375	3.749970	1.270524	0.000150
1612	1.6029e+02	-15.8386	-74.798032	0.000223	2.229712	0.755447	0.000089
1613	1.6039e+02	-15.7889	-74.713253	0.000213	2.128362	0.721108	0.000085
1614	1.6049e+02	-15.7471	-74.555804	0.000395	3.952671	1.339201	0.000158
1615	1.6059e+02	-15.7086	-74.499284	0.000142	1.418908	0.480739	0.000057
1616	1.6069e+02	-15.6669	-74.378170	0.000304	3.040516	1.030155	0.000122
1617	1.6079e+02	-15.6349	-74.265130	0.000284	2.837815	0.961478	0.000114
1618	1.6089e+02	-15.5947	-74.172276	0.000233	2.331063	0.789785	0.000093
1619	1.6099e+02	-15.5562	-74.043088	0.000324	3.243218	1.098832	0.000130
1620	1.6109e+02	-15.5145	-73.954271	0.000223	2.229712	0.755447	0.000089
1621	1.6119e+02	-15.4600	-73.853343	0.000253	2.533764	0.858462	0.000101
1622	1.6129e+02	-15.4295	-73.716080	0.000345	3.445919	1.167509	0.000138
1623	1.6139e+02	-15.3958	-73.631300	0.000213	2.128362	0.721108	0.000085
1624	1.6149e+02	-15.3525	-73.522297	0.000274	2.736465	0.927139	0.000110
1625	1.6159e+02	-15.3172	-73.421369	0.000253	2.533764	0.858462	0.000101
1626	1.6169e+02	-15.2739	-73.324478	0.000243	2.432413	0.824124	0.000097
1627	1.6179e+02	-15.2306	-73.203364	0.000304	3.040516	1.030155	0.000122
1628	1.6189e+02	-15.1921	-73.082250	0.000304	3.040516	1.030155	0.000122
1629	1.6199e+02	-15.1536	-72.981321	0.000253	2.533764	0.858462	0.000101
1630	1.6209e+02	-15.1167	-72.831947	0.000375	3.749970	1.270524	0.000150
1631	1.6219e+02	-15.0734	-72.795613	0.000091	0.912155	0.309046	0.000037
1632	1.6228e+02	-15.0301	-72.658350	0.000345	3.445919	1.167509	0.000138
1633	1.6238e+02	-14.9851	-72.561459	0.000243	2.432413	0.824124	0.000097
1634	1.6248e+02	-14.9579	-72.428234	0.000334	3.344568	1.133170	0.000134
1635	1.6258e+02	-14.9129	-72.270785	0.000395	3.952671	1.339201	0.000158
1636	1.6268e+02	-14.8728	-72.218303	0.000132	1.317557	0.446400	0.000053
1637	1.6278e+02	-14.8231	-72.089114	0.000324	3.243218	1.098832	0.000130
1638	1.6288e+02	-14.7942	-72.008372	0.000203	2.027011	0.686770	0.000081
1639	1.6298e+02	-14.7493	-71.887258	0.000304	3.040516	1.030155	0.000122
1640	1.6308e+02	-14.7204	-71.782292	0.000264	2.635114	0.892801	0.000105
1641	1.6318e+02	-14.6691	-71.645029	0.000345	3.445919	1.167509	0.000138
1642	1.6328e+02	-14.6322	-71.568324	0.000193	1.925660	0.652431	0.000077
1643	1.6338e+02	-14.5921	-71.451247	0.000294	2.939166	0.995816	0.000118
1644	1.6348e+02	-14.5584	-71.285724	0.000416	4.155373	1.407878	0.000166
1645	1.6358e+02	-14.5215	-71.180759	0.000264	2.635114	0.892801	0.000105
1646	1.6368e+02	-14.4798	-71.087905	0.000233	2.331063	0.789785	0.000093
1647	1.6378e+02	-14.4349	-70.962753	0.000314	3.141867	1.064493	0.000126
1648	1.6388e+02	-14.4076	-70.869899	0.000233	2.331063	0.789785	0.000093
1649	1.6398e+02	-14.3579	-70.724562	0.000365	3.648620	1.236186	0.000146
1650	1.6408e+02	-14.3162	-70.688228	0.000091	0.912155	0.309046	0.000037
1651	1.6418e+02	-14.2777	-70.510594	0.000446	4.459424	1.510894	0.000179
1652	1.6427e+02	-14.2408	-70.429852	0.000203	2.027011	0.686770	0.000081
1653	1.6437e+02	-14.1959	-70.328923	0.000253	2.533764	0.858462	0.000101
1654	1.6447e+02	-14.1574	-70.211846	0.000294	2.939166	0.995816	0.000118
1655	1.6457e+02	-14.1140	-70.070546	0.000355	3.547269	1.201847	0.000142
1656	1.6467e+02	-14.0804	-69.973655	0.000243	2.432413	0.824124	0.000097
1657	1.6477e+02	-14.0354	-69.888875	0.000213	2.128362	0.721108	0.000085
1658	1.6487e+02	-14.0017	-69.751613	0.000345	3.445919	1.167509	0.000138
1659	1.6497e+02	-13.9665	-69.658759	0.000233	2.331063	0.789785	0.000093
1660	1.6507e+02	-13.9215	-69.565904	0.000233	2.331063	0.789785	0.000093
1661	1.6517e+02	-13.8782	-69.392308	0.000436	4.358074	1.476555	0.000174
1662	1.6527e+02	-13.8445	-69.311565	0.000203	2.027011	0.686770	0.000081
1663	1.6537e+02	-13.7964	-69.210637	0.000253	2.533764	0.858462	0.000101
1664	1.6547e+02	-13.7611	-69.077411	0.000334	3.344568	1.133170	0.000134
1665	1.6557e+02	-13.7146	-68.924000	0.000385	3.851321	1.304863	0.000154
1666	1.6567e+02	-13.6777	-68.867480	0.000142	1.418908	0.480739	0.000057
1667	1.6577e+02	-13.6360	-68.718106	0.000375	3.749970	1.270524	0.000150
1668	1.6587e+02	-13.5927	-68.609103	0.000274	2.736465	0.927139	0.000110
1669	1.6597e+02	-13.5638	-68.520286	0.000223	2.229712	0.755447	0.000089
1670	1.6607e+02	-13.5125	-68.370912	0.000375	3.749970	1.270524	0.000150
1671	1.6616e+02	-13.4772	-68.269984	0.000253	2.533764	0.858462	0.000101
1672	1.6626e+02	-13.4306	-68.132721	0.000345	3.445919	1.167509	0.000138
1673	1.6636e+02	-13.4018	-68.051979	0.000203	2.027011	0.686770	0.000081
1674	1.6646e+02	-13.3633	-67.854159	0.000497	4.966177	1.682586	0.000199
1675	1.6656e+02	-13.3215	-67.761305	0.000233	2.331063	0.789785	0.000093
1676	1.6666e+02	-13.2879	-67.611931	0.000375	3.749970	1.270524	0.000150
1677	1.6676e+02	-13.2381	-67.559448	0.000132	1.317557	0.446400	0.000053
1678	1.6686e+02	-13.2012	-67.393925	0.000416	4.155373	1.407878	0.000166
1679	1.6696e+02	-13.1547	-67.288960	0.000264	2.635114	0.892801	0.000105
1680	1.6706e+02	-13.1194	-67.183994	0.000264	2.635114	0.892801	0.000105
1681	1.6716e+02	-13.0777	-67.083066	0.000253	2.533764	0.858462	0.000101
1682	1.6726e+02	-13.0344	-66.978100	0.000264	2.635114	0.892801	0.000105
1683	1.6736e+02	-12.9879	-66.784318	0.000486	4.864826	1.648248	0.000195
1684	1.6746e+02	-12.9558	-66.683390	0.000253	2.533764	0.858462	0.000101
1685	1.6756e+02	-12.9237	-66.582461	0.000253	2.533764	0.858462	0.000101
1686	1.6766e+02	-12.8788	-66.420976	0.000405	4.054022	1.373540	0.000162
1687	1.6776e+02	-12.8483	-66.348307	0.000182	1.824310	0.618093	0.000073
1688	1.6786e+02	-12.7970	-66.215082	0.000334	3.344568	1.133170	0.000134
1689	1.6796e+02	-12.7713	-66.102042	0.000284	2.837815	0.961478	0.000114
1690	1.6806e+02	-12.7200	-65.989002	0.000284	2.837815	0.961478	0.000114
1691	1.6816e+02	-12.6879	-65.851740	0.000345	3.445919	1.167509	0.000138
1692	1.6825e+02	-12.6398	-65.698328	0.000385	3.851321	1.304863	0.000154
1693	1.6835e+02	-12.6045	-65.561066	0.000345	3.445919	1.167509	0.000138
1694	1.6845e+02	-12.5676	-65.468212	0.000233	2.331063	0.789785	0.000093
1695	1.6855e+02	-12.5210	-65.339023	0.000324	3.243218	1.098832	0.000130
1696	1.6865e+02	-12.4906	-65.221946	0.000294	2.939166	0.995816	0.000118
1697	1.6875e+02	-12.4360	-65.104869	0.000294	2.939166	0.995816	0.000118
1698	1.6885e+02	-12.4023	-64.951458	0.000385	3.851321	1.304863	0.000154
1699	1.6895e+02	-12.3638	-64.834381	0.000294	2.939166	0.995816	0.000118
1700	1.6905e+02	-12.3189	-64.693082	0.000355	3.547269	1.201847	0.000142
1701	1.6915e+02	-12.2900	-64.620413	0.000182	1.824310	0.618093	0.000073
1702	1.6925e+02	-12.2531	-64.483151	0.000345	3.445919	1.167509	0.000138
1703	1.6935e+02	-12.2098	-64.333777	0.000375	3.749970	1.270524	0.000150
1704	1.6945e+02	-12.1729	-64.196514	0.000345	3.445919	1.167509	0.000138
1705	1.6955e+02	-12.1248	-64.079437	0.000294	2.939166	0.995816	0.000118
1706	1.6965e+02	-12.0815	-63.966397	0.000284	2.837815	0.961478	0.000114
1707	1.6975e+02	-12.0462	-63.817023	0.000375	3.749970	1.270524	0.000150
1708	1.6985e+02	-12.0093	-63.703983	0.000284	2.837815	0.961478	0.000114
1709	1.6995e+02	-11.9692	-63.594981	0.000274	2.736465	0.927139	0.000110
1710	1.7005e+02	-11.9307	-63.473867	0.000304	3.040516	1.030155	0.000122
1711	1.7015e+02	-11.8842	-63.324493	0.000375	3.749970	1.270524	0.000150
1712	1.7024e+02	-11.8457	-63.179156	0.000365	3.648620	1.236186	0.000146
1713	1.7034e+02	-11.8152	-63.058042	0.000304	3.040516	1.030155	0.000122
1714	1.7044e+02	-11.7670	-62.989410	0.000172	1.722959	0.583754	0.000069
1715	1.7054e+02	-11.7253	-62.840036	0.000375	3.749970	1.270524	0.000150
1716	1.7064e+02	-11.6868	-62.670477	0.000426	4.256723	1.442217	0.000170
1717	1.7074e+02	-11.6435	-62.533214	0.000345	3.445919	1.167509	0.000138
1718	1.7084e+02	-11.6098	-62.395951	0.000345	3.445919	1.167509	0.000138
1719	1.7094e+02	-11.5617	-62.290986	0.000264	2.635114	0.892801	0.000105
1720	1.7104e+02	-11.5232	-62.149686	0.000355	3.547269	1.201847	0.000142
1721	1.7114e+02	-11.4815	-62.072981	0.000193	1.925660	0.652431	0.000077
1722	1.7124e+02	-11.4494	-61.899384	0.000436	4.358074	1.476555	0.000174
1723	1.7134e+02	-11.4173	-61.774232	0.000314	3.141867	1.064493	0.000126
1724	1.7144e+02	-11.3676	-61.600636	0.000436	4.358074	1.476555	0.000174
1725	1.7154e+02	-11.3243	-61.527967	0.000182	1.824310	0.618093	0.000073
1726	1.7164e+02	-11.2874	-61.394742	0.000334	3.344568	1.133170	0.000134
1727	1.7174e+02	-11.2489	-61.249405	0.000365	3.648620	1.236186	0.000146
1728	1.7184e+02	-11.2072	-61.108105	0.000355	3.547269	1.201847	0.000142
1729	1.7194e+02	-11.1751	-60.970842	0.000345	3.445919	1.167509	0.000138
1730	1.7204e+02	-11.1254	-60.865877	0.000264	2.635114	0.892801	0.000105
1731	1.7213e+02	-11.0917	-60.728614	0.000345	3.445919	1.167509	0.000138
1732	1.7223e+02	-11.0548	-60.603463	0.000314	3.141867	1.064493	0.000126
1733	1.7233e+02	-11.0115	-60.458126	0.000365	3.648620	1.236186	0.000146
1734	1.7243e+02	-10.9681	-60.332975	0.000314	3.141867	1.064493	0.000126
1735	1.7253e+02	-10.9280	-60.203787	0.000324	3.243218	1.098832	0.000130
1736	1.7263e+02	-10.8943	-60.050376	0.000385	3.851321	1.304863	0.000154
1737	1.7273e+02	-10.8526	-59.913113	0.000345	3.445919	1.167509	0.000138
1738	1.7283e+02	-10.8109	-59.779887	0.000334	3.344568	1.133170	0.000134
1739	1.7293e+02	-10.7692	-59.654736	0.000314	3.141867	1.064493	0.000126
1740	1.7303e+02	-10.7291	-59.485177	0.000426	4.256723	1.442217	0.000170
1741	1.7313e+02	-10.6858	-59.380211	0.000264	2.635114	0.892801	0.000105
1742	1.7323e+02	-10.6473	-59.206614	0.000436	4.358074	1.476555	0.000174
1743	1.7333e+02	-10.6072	-59.081463	0.000314	3.141867	1.064493	0.000126
1744	1.7343e+02	-10.5799	-58.964386	0.000294	2.939166	0.995816	0.000118
1745	1.7353e+02	-10.5206	-58.843272	0.000304	3.040516	1.030155	0.000122
1746	1.7363e+02	-10.4933	-58.665638	0.000446	4.459424	1.510894	0.000179
1747	1.7373e+02	-10.4516	-58.552598	0.000284	2.837815	0.961478	0.000114
1748	1.7383e+02	-10.4099	-58.383038	0.000426	4.256723	1.442217	0.000170
1749	1.7393e+02	-10.3682	-58.253850	0.000324	3.243218	1.098832	0.000130
1750	1.7403e+02	-10.3393	-58.144847	0.000274	2.736465	0.927139	0.000110
1751	1.7413e+02	-10.2976	-58.007585	0.000345	3.445919	1.167509	0.000138
1752	1.7422e+02	-10.2527	-57.906656	0.000253	2.533764	0.858462	0.000101
1753	1.7432e+02	-10.2077	-57.757282	0.000375	3.749970	1.270524	0.000150
1754	1.7442e+02	-10.1692	-57.628094	0.000324	3.243218	1.098832	0.000130
1755	1.7452e+02	-10.1307	-57.478720	0.000375	3.749970	1.270524	0.000150
1756	1.7462e+02	-10.0906	-57.357606	0.000304	3.040516	1.030155	0.000122
1757	1.7472e+02	-10.0553	-57.192083	0.000416	4.155373	1.407878	0.000166
1758	1.7482e+02	-10.0136	-57.066932	0.000314	3.141867	1.064493	0.000126
1759	1.7492e+02	-9.9719	-56.925632	0.000355	3.547269	1.201847	0.000142
1760	1.7502e+02	-9.9254	-56.824704	0.000253	2.533764	0.858462	0.000101
1761	1.7512e+02	-9.8901	-56.687441	0.000345	3.445919	1.167509	0.000138
1762	1.7522e+02	-9.8516	-56.493659	0.000486	4.864826	1.648248	0.000195
1763	1.7532e+02	-9.8179	-56.376582	0.000294	2.939166	0.995816	0.000118
1764	1.7542e+02	-9.7778	-56.263542	0.000284	2.837815	0.961478	0.000114
1765	1.7552e+02	-9.7393	-56.142428	0.000304	3.040516	1.030155	0.000122
1766	1.7562e+02	-9.6799	-56.013240	0.000324	3.243218	1.098832	0.000130
1767	1.7572e+02	-9.6511	-55.859829	0.000385	3.851321	1.304863	0.000154
1768	1.7582e+02	-9.5997	-55.766975	0.000233	2.331063	0.789785	0.000093
1769	1.7592e+02	-9.5692	-55.621638	0.000365	3.648620	1.236186	0.000146
1770	1.7602e+02	-9.5291	-55.468226	0.000385	3.851321	1.304863	0.000154
1771	1.7612e+02	-9.4955	-55.310778	0.000395	3.952671	1.339201	0.000158
1772	1.7621e+02	-9.4570	-55.209850	0.000253	2.533764	0.858462	0.000101
1773	1.7631e+02	-9.4136	-55.024142	0.000466	4.662125	1.579571	0.000187
1774	1.7641e+02	-9.3816	-54.915139	0.000274	2.736465	0.927139	0.000110
1775	1.7651e+02	-9.3414	-54.781913	0.000334	3.344568	1.133170	0.000134
1776	1.7661e+02	-9.3062	-54.636577	0.000365	3.648620	1.236186	0.000146
1777	1.7671e+02	-9.2548	-54.527574	0.000274	2.736465	0.927139	0.000110
1778	1.7681e+02	-9.2179	-54.353977	0.000436	4.358074	1.476555	0.000174
1779	1.7691e+02	-9.1842	-54.208640	0.000365	3.648620	1.236186	0.000146
1780	1.7701e+02	-9.1409	-54.075415	0.000334	3.344568	1.133170	0.000134
1781	1.7711e+02	-9.1008	-53.974486	0.000253	2.533764	0.858462	0.000101
1782	1.7721e+02	-9.0575	-53.804927	0.000426	4.256723	1.442217	0.000170
1783	1.7731e+02	-9.0158	-53.716110	0.000223	2.229712	0.755447	0.000089
1784	1.7741e+02	-8.9677	-53.530401	0.000466	4.662125	1.579571	0.000187
1785	1.7751e+02	-8.9372	-53.425436	0.000264	2.635114	0.892801	0.000105
1786	1.7761e+02	-8.9019	-53.308359	0.000294	2.939166	0.995816	0.000118
1787	1.7771e+02	-8.8554	-53.163022	0.000365	3.648620	1.236186	0.000146
1788	1.7781e+02	-8.8121	-53.009611	0.000385	3.851321	1.304863	0.000154
1789	1.7791e+02	-8.7784	-52.860237	0.000375	3.749970	1.270524	0.000150
1790	1.7801e+02	-8.7318	-52.722974	0.000345	3.445919	1.167509	0.000138
1791	1.7810e+02	-8.6933	-52.605897	0.000294	2.939166	0.995816	0.000118
1792	1.7820e+02	-8.6532	-52.480746	0.000314	3.141867	1.064493	0.000126
1793	1.7830e+02	-8.6228	-52.331372	0.000375	3.749970	1.270524	0.000150
1794	1.7840e+02	-8.5810	-52.190072	0.000355	3.547269	1.201847	0.000142
1795	1.7850e+02	-8.5345	-52.032624	0.000395	3.952671	1.339201	0.000158
1796	1.7860e+02	-8.4896	-51.903436	0.000324	3.243218	1.098832	0.000130
1797	1.7870e+02	-8.4607	-51.782322	0.000304	3.040516	1.030155	0.000122
1798	1.7880e+02	-8.4254	-51.649096	0.000334	3.344568	1.133170	0.000134
1799	1.7890e+02	-8.3821	-51.511833	0.000345	3.445919	1.167509	0.000138
1800	1.7900e+02	-8.3372	-51.346311	0.000416	4.155373	1.407878	0.000166
1801	1.7910e+02	-8.3019	-51.233271	0.000284	2.837815	0.961478	0.000114
1802	1.7920e+02	-8.2570	-51.091971	0.000355	3.547269	1.201847	0.000142
1803	1.7930e+02	-8.2073	-50.926449	0.000416	4.155373	1.407878	0.000166
1804	1.7940e+02	-8.1848	-50.813409	0.000284	2.837815	0.961478	0.000114
1805	1.7950e+02	-8.1479	-50.688258	0.000314	3.141867	1.064493	0.000126
1806	1.7960e+02	-8.1030	-50.546958	0.000355	3.547269	1.201847	0.000142
1807	1.7970e+02	-8.0581	-50.369324	0.000446	4.459424	1.510894	0.000179
1808	1.7980e+02	-8.0244	-50.276470	0.000233	2.331063	0.789785	0.000093
1809	1.7990e+02	-7.9795	-50.086725	0.000476	4.763476	1.613909	0.000191
1810	1.8000e+02	-7.9410	-49.921202	0.000416	4.155373	1.407878	0.000166
1811	1.8009e+02	-7.9025	-49.808162	0.000284	2.837815	0.961478	0.000114
1812	1.8019e+02	-7.8495	-49.662825	0.000365	3.648620	1.236186	0.000146
1813	1.8029e+02	-7.8319	-49.549785	0.000284	2.837815	0.961478	0.000114
1814	1.8039e+02	-7.7805	-49.396374	0.000385	3.851321	1.304863	0.000154
1815	1.8049e+02	-7.7468	-49.291409	0.000264	2.635114	0.892801	0.000105
1816	1.8059e+02	-7.7083	-49.133960	0.000395	3.952671	1.339201	0.000158
1817	1.8069e+02	-7.6650	-49.016884	0.000294	2.939166	0.995816	0.000118
1818	1.8079e+02	-7.6105	-48.859435	0.000395	3.952671	1.339201	0.000158
1819	1.8089e+02	-7.5832	-48.714098	0.000365	3.648620	1.236186	0.000146
1820	1.8099e+02	-7.5399	-48.540502	0.000436	4.358074	1.476555	0.000174
1821	1.8109e+02	-7.5078	-48.423425	0.000294	2.939166	0.995816	0.000118
1822	1.8119e+02	-7.4645	-48.294236	0.000324	3.243218	1.098832	0.000130
1823	1.8129e+02	-7.4212	-48.156974	0.000345	3.445919	1.167509	0.000138
1824	1.8139e+02	-7.3795	-47.991451	0.000416	4.155373	1.407878	0.000166
1825	1.8149e+02	-7.3426	-47.898597	0.000233	2.331063	0.789785	0.000093
1826	1.8159e+02	-7.3137	-47.789594	0.000274	2.736465	0.927139	0.000110
1827	1.8169e+02	-7.2640	-47.587738	0.000507	5.067527	1.716925	0.000203
1828	1.8179e+02	-7.2239	-47.458549	0.000324	3.243218	1.098832	0.000130
1829	1.8189e+02	-7.1838	-47.325324	0.000334	3.344568	1.133170	0.000134
1830	1.8199e+02	-7.1356	-47.200172	0.000314	3.141867	1.064493	0.000126
1831	1.8209e+02	-7.1051	-47.091170	0.000274	2.736465	0.927139	0.000110
1832	1.8218e+02	-7.0634	-46.905462	0.000466	4.662125	1.579571	0.000187
1833	1.8228e+02	-7.0233	-46.731865	0.000436	4.358074	1.476555	0.000174
1834	1.8238e+02	-6.9784	-46.566342	0.000416	4.155373	1.407878	0.000166
1835	1.8248e+02	-6.9543	-46.453302	0.000284	2.837815	0.961478	0.000114
1836	1.8258e+02	-6.9030	-46.324114	0.000324	3.243218	1.098832	0.000130
1837	1.8268e+02	-6.8661	-46.174740	0.000375	3.749970	1.270524	0.000150
1838	1.8278e+02	-6.8340	-46.029403	0.000365	3.648620	1.236186	0.000146
1839	1.8288e+02	-6.7907	-45.863881	0.000416	4.155373	1.407878	0.000166
1840	1.8298e+02	-6.7474	-45.710469	0.000385	3.851321	1.304863	0.000154
1841	1.8308e+02	-6.6945	-45.581281	0.000324	3.243218	1.098832	0.000130
1842	1.8318e+02	-6.6720	-45.444018	0.000345	3.445919	1.167509	0.000138
1843	1.8328e+02	-6.6223	-45.278496	0.000416	4.155373	1.407878	0.000166
1844	1.8338e+02	-6.5854	-45.165456	0.000284	2.837815	0.961478	0.000114
1845	1.8348e+02	-6.5405	-45.008008	0.000395	3.952671	1.339201	0.000158
1846	1.8358e+02	-6.5052	-44.886894	0.000304	3.040516	1.030155	0.000122
1847	1.8368e+02	-6.4651	-44.717334	0.000426	4.256723	1.442217	0.000170
1848	1.8378e+02	-6.4314	-44.588146	0.000324	3.243218	1.098832	0.000130
1849	1.8388e+02	-6.3881	-44.426660	0.000405	4.054022	1.373540	0.000162
1850	1.8398e+02	-6.3447	-44.293435	0.000334	3.344568	1.133170	0.000134
1851	1.8407e+02	-6.3078	-44.140024	0.000385	3.851321	1.304863	0.000154
1852	1.8417e+02	-6.2726	-43.926055	0.000537	5.371579	1.819940	0.000215
1853	1.8427e+02	-6.2260	-43.853387	0.000182	1.824310	0.618093	0.000073
1854	1.8437e+02	-6.1891	-43.708050	0.000365	3.648620	1.236186	0.000146
1855	1.8447e+02	-6.1490	-43.534453	0.000436	4.358074	1.476555	0.000174
1856	1.8457e+02	-6.1185	-43.401228	0.000334	3.344568	1.133170	0.000134
1857	1.8467e+02	-6.0720	-43.263965	0.000345	3.445919	1.167509	0.000138
1858	1.8477e+02	-6.0367	-43.094405	0.000426	4.256723	1.442217	0.000170
1859	1.8487e+02	-5.9998	-42.957143	0.000345	3.445919	1.167509	0.000138
1860	1.8497e+02	-5.9533	-42.807769	0.000375	3.749970	1.270524	0.000150
1861	1.8507e+02	-5.9036	-42.654358	0.000385	3.851321	1.304863	0.000154
1862	1.8517e+02	-5.8699	-42.513058	0.000355	3.547269	1.201847	0.000142
1863	1.8527e+02	-5.8298	-42.355610	0.000395	3.952671	1.339201	0.000158
1864	1.8537e+02	-5.7897	-42.194124	0.000405	4.054022	1.373540	0.000162
1865	1.8547e+02	-5.7528	-42.044750	0.000375	3.749970	1.270524	0.000150
1866	1.8557e+02	-5.7079	-41.907488	0.000345	3.445919	1.167509	0.000138
1867	1.8567e+02	-5.6710	-41.750039	0.000395	3.952671	1.339201	0.000158
1868	1.8577e+02	-5.6293	-41.584517	0.000416	4.155373	1.407878	0.000166
1869	1.8587e+02	-5.5988	-41.447254	0.000345	3.445919	1.167509	0.000138
1870	1.8597e+02	-5.5571	-41.285769	0.000405	4.054022	1.373540	0.000162
1871	1.8606e+02	-5.5105	-41.128320	0.000395	3.952671	1.339201	0.000158
1872	1.8616e+02	-5.4656	-40.987021	0.000355	3.547269	1.201847	0.000142
1873	1.8626e+02	-5.4448	-40.849758	0.000345	3.445919	1.167509	0.000138
1874	1.8636e+02	-5.3950	-40.672124	0.000446	4.459424	1.510894	0.000179
1875	1.8646e+02	-5.3565	-40.522750	0.000375	3.749970	1.270524	0.000150
1876	1.8656e+02	-5.3196	-40.413747	0.000274	2.736465	0.927139	0.000110
1877	1.8666e+02	-5.2699	-40.219965	0.000486	4.864826	1.648248	0.000195
1878	1.8676e+02	-5.2330	-40.078665	0.000355	3.547269	1.201847	0.000142
1879	1.8686e+02	-5.1993	-39.933328	0.000365	3.648620	1.236186	0.000146
1880	1.8696e+02	-5.1608	-39.739546	0.000486	4.864826	1.648248	0.000195
1881	1.8706e+02	-5.1143	-39.618432	0.000304	3.040516	1.030155	0.000122
1882	1.8716e+02	-5.0710	-39.465020	0.000385	3.851321	1.304863	0.000154
1883	1.8726e+02	-5.0405	-39.315646	0.000375	3.749970	1.270524	0.000150
1884	1.8736e+02	-4.9988	-39.146087	0.000426	4.256723	1.442217	0.000170
1885	1.8746e+02	-4.9539	-38.988638	0.000395	3.952671	1.339201	0.000158
1886	1.8756e+02	-4.9234	-38.875599	0.000284	2.837815	0.961478	0.000114
1887	1.8766e+02	-4.8721	-38.669705	0.000517	5.168878	1.751263	0.000207
1888	1.8776e+02	-4.8336	-38.548591	0.000304	3.040516	1.030155	0.000122
1889	1.8786e+02	-4.7983	-38.366919	0.000456	4.560775	1.545232	0.000183
1890	1.8796e+02	-4.7501	-38.221583	0.000365	3.648620	1.236186	0.000146
1891	1.8806e+02	-4.7100	-38.052023	0.000426	4.256723	1.442217	0.000170
1892	1.8815e+02	-4.6763	-37.906686	0.000365	3.648620	1.236186	0.000146
1893	1.8825e+02	-4.6394	-37.753275	0.000385	3.851321	1.304863	0.000154
1894	1.8835e+02	-4.5865	-37.591789	0.000405	4.054022	1.373540	0.000162
1895	1.8845e+02	-4.5560	-37.466638	0.000314	3.141867	1.064493	0.000126
1896	1.8855e+02	-4.5175	-37.329376	0.000345	3.445919	1.167509	0.000138
1897	1.8865e+02	-4.4758	-37.123482	0.000517	5.168878	1.751263	0.000207
1898	1.8875e+02	-4.4325	-36.974108	0.000375	3.749970	1.270524	0.000150
1899	1.8885e+02	-4.3892	-36.808585	0.000416	4.155373	1.407878	0.000166
1900	1.8895e+02	-4.3635	-36.659211	0.000375	3.749970	1.270524	0.000150
1901	1.8905e+02	-4.3202	-36.501763	0.000395	3.952671	1.339201	0.000158
1902	1.8915e+02	-4.2833	-36.287795	0.000537	5.371579	1.819940	0.000215
1903	1.8925e+02	-4.2320	-36.190903	0.000243	2.432413	0.824124	0.000097
1904	1.8935e+02	-4.2079	-36.013269	0.000446	4.459424	1.510894	0.000179
1905	1.8945e+02	-4.1598	-35.855821	0.000395	3.952671	1.339201	0.000158
1906	1.8955e+02	-4.1116	-35.722596	0.000334	3.344568	1.133170	0.000134
1907	1.8965e+02	-4.0780	-35.553036	0.000426	4.256723	1.442217	0.000170
1908	1.8975e+02	-4.0411	-35.379439	0.000436	4.358074	1.476555	0.000174
1909	1.8985e+02	-3.9961	-35.189694	0.000476	4.763476	1.613909	0.000191
1910	1.8995e+02	-3.9689	-35.020134	0.000426	4.256723	1.442217	0.000170
1911	1.9004e+02	-3.9191	-34.894983	0.000314	3.141867	1.064493	0.000126
1912	1.9014e+02	-3.8774	-34.737534	0.000395	3.952671	1.339201	0.000158
1913	1.9024e+02	-3.8389	-34.563938	0.000436	4.358074	1.476555	0.000174
1914	1.9034e+02	-3.8068	-34.406489	0.000395	3.952671	1.339201	0.000158
1915	1.9044e+02	-3.7571	-34.253078	0.000385	3.851321	1.304863	0.000154
1916	1.9054e+02	-3.7170	-34.075444	0.000446	4.459424	1.510894	0.000179
1917	1.9064e+02	-3.6737	-33.954330	0.000304	3.040516	1.030155	0.000122
1918	1.9074e+02	-3.6464	-33.716139	0.000598	5.979682	2.025971	0.000239
1919	1.9084e+02	-3.5983	-33.615211	0.000253	2.533764	0.858462	0.000101
1920	1.9094e+02	-3.5518	-33.449688	0.000416	4.155373	1.407878	0.000166
1921	1.9104e+02	-3.5213	-33.324537	0.000314	3.141867	1.064493	0.000126
1922	1.9114e+02	-3.4764	-33.159014	0.000416	4.155373	1.407878	0.000166
1923	1.9124e+02	-3.4427	-32.993492	0.000416	4.155373	1.407878	0.000166
1924	1.9134e+02	-3.4010	-32.815858	0.000446	4.459424	1.510894	0.000179
1925	1.9144e+02	-3.3593	-32.662447	0.000385	3.851321	1.304863	0.000154
1926	1.9154e+02	-3.3240	-32.513073	0.000375	3.749970	1.270524	0.000150
1927	1.9164e+02	-3.2710	-32.335439	0.000446	4.459424	1.510894	0.000179
1928	1.9174e+02	-3.2357	-32.190102	0.000365	3.648620	1.236186	0.000146
1929	1.9184e+02	-3.1972	-32.036691	0.000385	3.851321	1.304863	0.000154
1930	1.9194e+02	-3.1571	-31.842908	0.000486	4.864826	1.648248	0.000195
1931	1.9203e+02	-3.1170	-31.709683	0.000334	3.344568	1.133170	0.000134
1932	1.9213e+02	-3.0817	-31.588569	0.000304	3.040516	1.030155	0.000122
1933	1.9223e+02	-3.0384	-31.390749	0.000497	4.966177	1.682586	0.000199
1934	1.9233e+02	-3.0015	-31.184855	0.000517	5.168878	1.751263	0.000207
1935	1.9243e+02	-2.9710	-31.055667	0.000324	3.243218	1.098832	0.000130
1936	1.9253e+02	-2.9181	-30.922441	0.000334	3.344568	1.133170	0.000134
1937	1.9263e+02	-2.8828	-30.756919	0.000416	4.155373	1.407878	0.000166
1938	1.9273e+02	-2.8395	-30.583322	0.000436	4.358074	1.476555	0.000174
1939	1.9283e+02	-2.8010	-30.462208	0.000304	3.040516	1.030155	0.000122
1940	1.9293e+02	-2.7561	-30.264388	0.000497	4.966177	1.682586	0.000199
1941	1.9303e+02	-2.7208	-30.139237	0.000314	3.141867	1.064493	0.000126
1942	1.9313e+02	-2.6871	-29.921232	0.000547	5.472930	1.854279	0.000219
1943	1.9323e+02	-2.6374	-29.788006	0.000334	3.344568	1.133170	0.000134
1944	1.9333e+02	-2.6037	-29.646706	0.000355	3.547269	1.201847	0.000142
1945	1.9343e+02	-2.5620	-29.440812	0.000517	5.168878	1.751263	0.000207
1946	1.9353e+02	-2.5251	-29.311624	0.000324	3.243218	1.098832	0.000130
1947	1.9363e+02	-2.4801	-29.142064	0.000426	4.256723	1.442217	0.000170
1948	1.9373e+02	-2.4449	-29.000765	0.000355	3.547269	1.201847	0.000142
1949	1.9383e+02	-2.4031	-28.847353	0.000385	3.851321	1.304863	0.000154
1950	1.9393e+02	-2.3614	-28.669719	0.000446	4.459424	1.510894	0.000179
1951	1.9403e+02	-2.3197	-28.496123	0.000436	4.358074	1.476555	0.000174
1952	1.9412e+02	-2.2892	-28.375009	0.000304	3.040516	1.030155	0.000122
1953	1.9422e+02	-2.2475	-28.225635	0.000375	3.749970	1.270524	0.000150
1954	1.9432e+02	-2.1978	-28.052038	0.000436	4.358074	1.476555	0.000174
1955	1.9442e+02	-2.1673	-27.854218	0.000497	4.966177	1.682586	0.000199
1956	1.9452e+02	-2.1272	-27.725030	0.000324	3.243218	1.098832	0.000130
1957	1.9462e+02	-2.0823	-27.551433	0.000436	4.358074	1.476555	0.000174
1958	1.9472e+02	-2.0470	-27.373799	0.000446	4.459424	1.510894	0.000179
1959	1.9482e+02	-2.0069	-27.252685	0.000304	3.040516	1.030155	0.000122
1960	1.9492e+02	-1.9636	-27.083125	0.000426	4.256723	1.442217	0.000170
1961	1.9502e+02	-1.9219	-26.905491	0.000446	4.459424	1.510894	0.000179
1962	1.9512e+02	-1.8786	-26.756117	0.000375	3.749970	1.270524	0.000150
1963	1.9522e+02	-1.8417	-26.594632	0.000405	4.054022	1.373540	0.000162
1964	1.9532e+02	-1.8048	-26.425072	0.000426	4.256723	1.442217	0.000170
1965	1.9542e+02	-1.7663	-26.271661	0.000385	3.851321	1.304863	0.000154
1966	1.9552e+02	-1.7294	-26.110175	0.000405	4.054022	1.373540	0.000162
1967	1.9562e+02	-1.6925	-25.944653	0.000416	4.155373	1.407878	0.000166
1968	1.9572e+02	-1.6443	-25.795279	0.000375	3.749970	1.270524	0.000150
1969	1.9582e+02	-1.6106	-25.613608	0.000456	4.560775	1.545232	0.000183
1970	1.9592e+02	-1.5593	-25.484419	0.000324	3.243218	1.098832	0.000130
1971	1.9601e+02	-1.5256	-25.335045	0.000375	3.749970	1.270524	0.000150
1972	1.9611e+02	-1.4887	-25.137226	0.000497	4.966177	1.682586	0.000199
1973	1.9621e+02	-1.4454	-24.951517	0.000466	4.662125	1.579571	0.000187
1974	1.9631e+02	-1.4021	-24.822329	0.000324	3.243218	1.098832	0.000130
1975	1.9641e+02	-1.3700	-24.676992	0.000365	3.648620	1.236186	0.000146
1976	1.9651e+02	-1.3219	-24.475135	0.000507	5.067527	1.716925	0.000203
1977	1.9661e+02	-1.2914	-24.362096	0.000284	2.837815	0.961478	0.000114
1978	1.9671e+02	-1.2497	-24.180425	0.000456	4.560775	1.545232	0.000183
1979	1.9681e+02	-1.2112	-24.022976	0.000395	3.952671	1.339201	0.000158
1980	1.9691e+02	-1.1695	-23.796897	0.000568	5.675631	1.922956	0.000227
1981	1.9701e+02	-1.1326	-23.695968	0.000253	2.533764	0.858462	0.000101
1982	1.9711e+02	-1.0829	-23.506223	0.000476	4.763476	1.613909	0.000191
1983	1.9721e+02	-1.0444	-23.381072	0.000314	3.141867	1.064493	0.000126
1984	1.9731e+02	-1.0059	-23.195363	0.000466	4.662125	1.579571	0.000187
1985	1.9741e+02	-0.9674	-23.041952	0.000385	3.851321	1.304863	0.000154
1986	1.9751e+02	-0.9305	-22.892578	0.000375	3.749970	1.270524	0.000150
1987	1.9761e+02	-0.8903	-22.743204	0.000375	3.749970	1.270524	0.000150
1988	1.9771e+02	-0.8470	-22.601904	0.000355	3.547269	1.201847	0.000142
1989	1.9781e+02	-0.8166	-22.408122	0.000486	4.864826	1.648248	0.000195
1990	1.9791e+02	-0.7716	-22.242599	0.000416	4.155373	1.407878	0.000166
1991	1.9800e+02	-0.7331	-22.056891	0.000466	4.662125	1.579571	0.000187
1992	1.9810e+02	-0.6850	-21.951926	0.000264	2.635114	0.892801	0.000105
1993	1.9820e+02	-0.6513	-21.770254	0.000456	4.560775	1.545232	0.000183
1994	1.9830e+02	-0.6192	-21.572435	0.000497	4.966177	1.682586	0.000199
1995	1.9840e+02	-0.5727	-21.451321	0.000304	3.040516	1.030155	0.000122
1996	1.9850e+02	-0.5198	-21.253501	0.000497	4.966177	1.682586	0.000199
1997	1.9860e+02	-0.4877	-21.128350	0.000314	3.141867	1.064493	0.000126
1998	1.9870e+02	-0.4572	-20.962827	0.000416	4.155373	1.407878	0.000166
1999	1.9880e+02	-0.4043	-20.777119	0.000466	4.662125	1.579571	0.000187
2000	1.9890e+02	-0.3658	-20.647931	0.000324	3.243218	1.098832	0.000130
2001	1.9900e+02	-0.3289	-20.454148	0.000486	4.864826	1.648248	0.000195
2002	1.9910e+02	-0.2904	-20.308811	0.000365	3.648620	1.236186	0.000146
2003	1.9920e+02	-0.2487	-20.135214	0.000436	4.358074	1.476555	0.000174
2004	1.9930e+02	-0.2069	-19.981803	0.000385	3.851321	1.304863	0.000154
2005	1.9940e+02	-0.1733	-19.840504	0.000355	3.547269	1.201847	0.000142
2006	1.9950e+02	-0.1348	-19.670944	0.000426	4.256723	1.442217	0.000170
2007	1.9960e+02	-0.0898	-19.456976	0.000537	5.371579	1.819940	0.000215
2008	1.9970e+02	-0.0417	-19.299527	0.000395	3.952671	1.339201	0.000158
2009	1.9980e+02	-0.0112	-19.138042	0.000395	3.952671	1.339201	0.000162

PMax (uC/cm2):	8.14e+01
Pr (uC/cm2):	5.29e+00
-Pr (uC/cm2):	-1.91e+01
PLoss (uC/cm2):	-1.91e+01
-Vc:	-1.26e+00
C (Max-Eff) (nF):	4.08e-01
K (Eff):	1.38e+03
Vert. (+/-Pr) Shift (uC/cm2):	-6.91e+00
Offset (uC/cm2):	2.62e-02

A (Loop Area - uC/cm2·Volts):	-6.92e-02



Hysteresis Version: 5.48.1 - Radiant Technologies, Inc., 1999 - 9/12/24

