»»»»»»»»»»»»»»»»»»»»»»»»»»»»»»»»»»»» Hysteresis ««««««««««««««««««««««««««««««««««««
»»»  Executed Version:	5.48.1
»»»  Vision Version:	5.48.4 (R)
»»»  Vision Compiled:	9/18/24
»»»  Driver Version:	5.47.0
»»»  Windows Version:	Windows 8 or 8.1
»»»  Processor Information:	x86 (AMD or Intel) - 32 Processors
»»»  Tester Name:	PMF21124-494 (100V)
»»»  Tester S/N:	PMF21124-494
»»»  Internal Amp Type:	100V RevK 270k
»»»  Internal Amp S/N:	iAB2-596/K     
»»»  Execution Count:	1
»»»»»»»»»»»»»»»»»»»»»»»»»»»»»»»»»»»»»»»»»»««««««««««««««««««««««««««««««««««««««««««

Stored:	6/18/2025 - 10:10:44
Configured:	06/18/25 09:47:30 AM
Executed:	06/18/25 10:10:13 AM

»»»»»»»»»»»»»»»»»»»»»»»»»»»»»»»»»»» Sample Info ««««««««««««««««««««««««««««««««««««
Sample Name:	
Lot Name:	
Wafer Name:	
Die Row/Column:	0/0
Capacitor Number:	0
Sample Area (cm2):	1.00e-04
Sample Thickness (microns):	3.00e-01

Amplifier:	Internal

»»»»»»»»»»»»»»»»»»»»»»»»»»»»»»»»»»» Tester Info «««««««««««««««««««««««««««««««««««
Tester Name:	PMF21124-494 (100V)
Tester Serial Number:	PMF21124-494
Return Signal Amp. Level:	0.19 [Index: 3]

»»»»»»»»»»»»»»»»»»»»»»»»»»»»»»»» Hysteresis Info ««««««««««««««««««««««««««««««««««
Task Name:	Hyst-554
Volts:	20.00
Field:	666.67 (kV/cm)
DCBias:	0.00
DCField:	0.00 (kV/cm)
Hysteresis Period (ms):	2.00e+02
Preset:	Enabled
Preset Delay (ms):	1.00e+03
Profile:	Standard Bipolar

»»»»»»»»»»»»»»»»»»»»»»»»»»»»»»»»»»»»»» Data «««««««««««««««««««««««««««««««««««««««
Points:	2009

Valid Data

Point	Time (ms)	Drive Voltage	Measured Polarization (uC/cm2)	Capacitance (uF)	Normalized Capacitance (uF/cm2)	Dielectric Constant	Instantaneous Current (mA)
   1	0.0000e+00	-0.0096	-1.441257	0.000284	2.837474	0.961362	0.000114
   2	9.9500e-02	0.0209	-1.328218	0.000284	2.837474	0.961362	0.000114
   3	1.9900e-01	0.0626	-1.223252	0.000263	2.634797	0.892693	0.000105
   4	2.9850e-01	0.1043	-1.061767	0.000405	4.053534	1.373375	0.000162
   5	3.9800e-01	0.1332	-0.900281	0.000405	4.053534	1.373375	0.000162
   6	4.9750e-01	0.1861	-0.767056	0.000334	3.344166	1.133034	0.000134
   7	5.9700e-01	0.2214	-0.621719	0.000365	3.648181	1.236037	0.000146
   8	6.9650e-01	0.2647	-0.468308	0.000385	3.850857	1.304706	0.000154
   9	7.9600e-01	0.3032	-0.343157	0.000314	3.141489	1.064365	0.000126
  10	8.9550e-01	0.3417	-0.201857	0.000355	3.546842	1.201703	0.000142
  11	9.9500e-01	0.3850	-0.060557	0.000355	3.546842	1.201703	0.000142
  12	1.0945e+00	0.4171	0.100928	0.000405	4.053534	1.373375	0.000162
  13	1.1940e+00	0.4716	0.246265	0.000365	3.648181	1.236037	0.000146
  14	1.2935e+00	0.5053	0.367379	0.000304	3.040151	1.030031	0.000122
  15	1.3930e+00	0.5406	0.540976	0.000436	4.357549	1.476378	0.000174
  16	1.4925e+00	0.5855	0.722647	0.000456	4.560226	1.545046	0.000183
  17	1.5920e+00	0.6224	0.835687	0.000284	2.837474	0.961362	0.000114
  18	1.6915e+00	0.6609	1.005247	0.000426	4.256211	1.442043	0.000170
  19	1.7910e+00	0.6962	1.106175	0.000253	2.533459	0.858359	0.000101
  20	1.8905e+00	0.7444	1.271698	0.000415	4.154873	1.407709	0.000166
  21	1.9900e+00	0.7797	1.425109	0.000385	3.850857	1.304706	0.000154
  22	2.0895e+00	0.8214	1.578520	0.000385	3.850857	1.304706	0.000154
  23	2.1890e+00	0.8567	1.735968	0.000395	3.952196	1.339040	0.000158
  24	2.2885e+00	0.8984	1.853045	0.000294	2.938812	0.995697	0.000118
  25	2.3880e+00	0.9337	1.998382	0.000365	3.648181	1.236037	0.000146
  26	2.4875e+00	0.9834	2.200239	0.000507	5.066918	1.716718	0.000203
  27	2.5870e+00	1.0219	2.333464	0.000334	3.344166	1.133034	0.000134
  28	2.6865e+00	1.0620	2.466690	0.000334	3.344166	1.133034	0.000134
  29	2.7860e+00	1.0973	2.632213	0.000415	4.154873	1.407709	0.000166
  30	2.8855e+00	1.1374	2.781587	0.000375	3.749519	1.270371	0.000150
  31	2.9850e+00	1.1855	2.947109	0.000415	4.154873	1.407709	0.000166
  32	3.0845e+00	1.2160	3.100520	0.000385	3.850857	1.304706	0.000154
  33	3.1840e+00	1.2561	3.229709	0.000324	3.242827	1.098700	0.000130
  34	3.2835e+00	1.2930	3.419454	0.000476	4.762903	1.613715	0.000191
  35	3.3830e+00	1.3363	3.516345	0.000243	2.432121	0.824025	0.000097
  36	3.4825e+00	1.3861	3.698016	0.000456	4.560226	1.545046	0.000183
  37	3.5820e+00	1.4117	3.867576	0.000426	4.256211	1.442043	0.000170
  38	3.6815e+00	1.4582	3.996764	0.000324	3.242827	1.098700	0.000130
  39	3.7810e+00	1.4951	4.182473	0.000466	4.661564	1.579381	0.000187
  40	3.8805e+00	1.5369	4.315698	0.000334	3.344166	1.133034	0.000134
  41	3.9800e+00	1.5802	4.489295	0.000436	4.357549	1.476378	0.000174
  42	4.0795e+00	1.6187	4.618483	0.000324	3.242827	1.098700	0.000130
  43	4.1790e+00	1.6475	4.763820	0.000365	3.648181	1.236037	0.000146
  44	4.2785e+00	1.6957	4.957603	0.000486	4.864241	1.648049	0.000195
  45	4.3780e+00	1.7422	5.102940	0.000365	3.648181	1.236037	0.000146
  46	4.4775e+00	1.7807	5.228091	0.000314	3.141489	1.064365	0.000126
  47	4.5770e+00	1.8176	5.393613	0.000415	4.154873	1.407709	0.000166
  48	4.6765e+00	1.8609	5.579322	0.000466	4.661564	1.579381	0.000187
  49	4.7760e+00	1.8914	5.732733	0.000385	3.850857	1.304706	0.000154
  50	4.8755e+00	1.9347	5.853847	0.000304	3.040151	1.030031	0.000122
  51	4.9750e+00	1.9732	6.039555	0.000466	4.661564	1.579381	0.000187
  52	5.0745e+00	2.0197	6.213152	0.000436	4.357549	1.476378	0.000174
  53	5.1740e+00	2.0582	6.366563	0.000385	3.850857	1.304706	0.000154
  54	5.2735e+00	2.0935	6.536123	0.000426	4.256211	1.442043	0.000170
  55	5.3730e+00	2.1336	6.685497	0.000375	3.749519	1.270371	0.000150
  56	5.4725e+00	2.1785	6.838908	0.000385	3.850857	1.304706	0.000154
  57	5.5720e+00	2.2170	7.032690	0.000486	4.864241	1.648049	0.000195
  58	5.6715e+00	2.2636	7.145730	0.000284	2.837474	0.961362	0.000114
  59	5.7710e+00	2.2908	7.319327	0.000436	4.357549	1.476378	0.000174
  60	5.8705e+00	2.3374	7.456590	0.000345	3.445504	1.167368	0.000138
  61	5.9700e+00	2.3743	7.642298	0.000466	4.661564	1.579381	0.000187
  62	6.0695e+00	2.4144	7.767449	0.000314	3.141489	1.064365	0.000126
  63	6.1690e+00	2.4529	7.957195	0.000476	4.762903	1.613715	0.000191
  64	6.2685e+00	2.4930	8.094457	0.000345	3.445504	1.167368	0.000138
  65	6.3680e+00	2.5395	8.268054	0.000436	4.357549	1.476378	0.000174
  66	6.4675e+00	2.5748	8.433577	0.000415	4.154873	1.407709	0.000166
  67	6.5670e+00	2.6149	8.566802	0.000334	3.344166	1.133034	0.000134
  68	6.6665e+00	2.6598	8.740399	0.000436	4.357549	1.476378	0.000174
  69	6.7660e+00	2.6919	8.885736	0.000365	3.648181	1.236037	0.000146
  70	6.8655e+00	2.7384	9.075481	0.000476	4.762903	1.613715	0.000191
  71	6.9650e+00	2.7769	9.220818	0.000365	3.648181	1.236037	0.000146
  72	7.0645e+00	2.8106	9.398452	0.000446	4.458888	1.510712	0.000179
  73	7.1640e+00	2.8571	9.511492	0.000284	2.837474	0.961362	0.000114
  74	7.2635e+00	2.8940	9.701237	0.000476	4.762903	1.613715	0.000191
  75	7.3630e+00	2.9245	9.854648	0.000385	3.850857	1.304706	0.000154
  76	7.4625e+00	2.9775	10.052468	0.000497	4.965579	1.682384	0.000199
  77	7.5620e+00	3.0047	10.201842	0.000375	3.749519	1.270371	0.000150
  78	7.6615e+00	3.0545	10.367365	0.000415	4.154873	1.407709	0.000166
  79	7.7610e+00	3.0865	10.540961	0.000436	4.357549	1.476378	0.000174
  80	7.8605e+00	3.1411	10.694373	0.000385	3.850857	1.304706	0.000154
  81	7.9600e+00	3.1748	10.835672	0.000355	3.546842	1.201703	0.000142
  82	8.0595e+00	3.2133	11.005232	0.000426	4.256211	1.442043	0.000170
  83	8.1590e+00	3.2502	11.203052	0.000497	4.965579	1.682384	0.000199
  84	8.2585e+00	3.2855	11.340314	0.000345	3.445504	1.167368	0.000138
  85	8.3580e+00	3.3320	11.530060	0.000476	4.762903	1.613715	0.000191
  86	8.4575e+00	3.3673	11.695582	0.000415	4.154873	1.407709	0.000166
  87	8.5570e+00	3.4106	11.853031	0.000395	3.952196	1.339040	0.000158
  88	8.6565e+00	3.4571	11.990293	0.000345	3.445504	1.167368	0.000138
  89	8.7560e+00	3.4892	12.155816	0.000415	4.154873	1.407709	0.000166
  90	8.8555e+00	3.5341	12.317301	0.000405	4.053534	1.373375	0.000162
  91	8.9550e+00	3.5646	12.478787	0.000405	4.053534	1.373375	0.000162
  92	9.0545e+00	3.5999	12.628161	0.000375	3.749519	1.270371	0.000150
  93	9.1540e+00	3.6577	12.813869	0.000466	4.661564	1.579381	0.000187
  94	9.2535e+00	3.6881	12.983429	0.000426	4.256211	1.442043	0.000170
  95	9.3530e+00	3.7298	13.161063	0.000446	4.458888	1.510712	0.000179
  96	9.4525e+00	3.7699	13.318511	0.000395	3.952196	1.339040	0.000158
  97	9.5520e+00	3.8149	13.488071	0.000426	4.256211	1.442043	0.000170
  98	9.6515e+00	3.8550	13.661667	0.000436	4.357549	1.476378	0.000174
  99	9.7510e+00	3.8871	13.802967	0.000355	3.546842	1.201703	0.000142
 100	9.8505e+00	3.9288	13.988675	0.000466	4.661564	1.579381	0.000187
 101	9.9500e+00	3.9721	14.150161	0.000405	4.053534	1.373375	0.000162
 102	1.0050e+01	4.0122	14.315683	0.000415	4.154873	1.407709	0.000166
 103	1.0149e+01	4.0459	14.481206	0.000415	4.154873	1.407709	0.000166
 104	1.0248e+01	4.0892	14.654803	0.000436	4.357549	1.476378	0.000174
 105	1.0348e+01	4.1261	14.796102	0.000355	3.546842	1.201703	0.000142
 106	1.0447e+01	4.1678	15.001996	0.000517	5.168256	1.751053	0.000207
 107	1.0547e+01	4.2127	15.131185	0.000324	3.242827	1.098700	0.000130
 108	1.0646e+01	4.2464	15.296707	0.000415	4.154873	1.407709	0.000166
 109	1.0746e+01	4.2913	15.470304	0.000436	4.357549	1.476378	0.000174
 110	1.0845e+01	4.3362	15.668124	0.000497	4.965579	1.682384	0.000199
 111	1.0945e+01	4.3667	15.817498	0.000375	3.749519	1.270371	0.000150
 112	1.1044e+01	4.4132	15.995132	0.000446	4.458888	1.510712	0.000179
 113	1.1144e+01	4.4453	16.144506	0.000375	3.749519	1.270371	0.000150
 114	1.1243e+01	4.4951	16.318103	0.000436	4.357549	1.476378	0.000174
 115	1.1343e+01	4.5336	16.503811	0.000466	4.661564	1.579381	0.000187
 116	1.1443e+01	4.5689	16.657222	0.000385	3.850857	1.304706	0.000154
 117	1.1542e+01	4.5993	16.818707	0.000405	4.053534	1.373375	0.000162
 118	1.1642e+01	4.6443	16.947896	0.000324	3.242827	1.098700	0.000130
 119	1.1741e+01	4.6763	17.133604	0.000466	4.661564	1.579381	0.000187
 120	1.1841e+01	4.7341	17.270867	0.000345	3.445504	1.167368	0.000138
 121	1.1940e+01	4.7662	17.468686	0.000497	4.965579	1.682384	0.000199
 122	1.2040e+01	4.8031	17.622097	0.000385	3.850857	1.304706	0.000154
 123	1.2139e+01	4.8448	17.795694	0.000436	4.357549	1.476378	0.000174
 124	1.2239e+01	4.8801	17.977365	0.000456	4.560226	1.545046	0.000183
 125	1.2338e+01	4.9314	18.126739	0.000375	3.749519	1.270371	0.000150
 126	1.2438e+01	4.9779	18.272076	0.000365	3.648181	1.236037	0.000146
 127	1.2537e+01	5.0036	18.433562	0.000405	4.053534	1.373375	0.000162
 128	1.2636e+01	5.0533	18.619270	0.000466	4.661564	1.579381	0.000187
 129	1.2736e+01	5.0870	18.724236	0.000263	2.634797	0.892693	0.000105
 130	1.2835e+01	5.1223	18.930129	0.000517	5.168256	1.751053	0.000207
 131	1.2935e+01	5.1640	19.079503	0.000375	3.749519	1.270371	0.000150
 132	1.3034e+01	5.2025	19.249063	0.000426	4.256211	1.442043	0.000170
 133	1.3134e+01	5.2458	19.370177	0.000304	3.040151	1.030031	0.000122
 134	1.3233e+01	5.2876	19.584145	0.000537	5.370933	1.819721	0.000215
 135	1.3333e+01	5.3293	19.729482	0.000365	3.648181	1.236037	0.000146
 136	1.3432e+01	5.3662	19.911153	0.000456	4.560226	1.545046	0.000183
 137	1.3532e+01	5.4015	20.060527	0.000375	3.749519	1.270371	0.000150
 138	1.3632e+01	5.4480	20.230087	0.000426	4.256211	1.442043	0.000170
 139	1.3731e+01	5.4849	20.419833	0.000476	4.762903	1.613715	0.000191
 140	1.3831e+01	5.5266	20.557095	0.000345	3.445504	1.167368	0.000138
 141	1.3930e+01	5.5619	20.706469	0.000375	3.749519	1.270371	0.000150
 142	1.4030e+01	5.5988	20.839695	0.000334	3.344166	1.133034	0.000134
 143	1.4129e+01	5.6421	21.049626	0.000527	5.269594	1.785387	0.000211
 144	1.4229e+01	5.6822	21.207074	0.000395	3.952196	1.339040	0.000158
 145	1.4328e+01	5.7191	21.380671	0.000436	4.357549	1.476378	0.000174
 146	1.4428e+01	5.7640	21.534082	0.000385	3.850857	1.304706	0.000154
 147	1.4527e+01	5.7993	21.691530	0.000395	3.952196	1.339040	0.000158
 148	1.4627e+01	5.8458	21.853016	0.000405	4.053534	1.373375	0.000162
 149	1.4726e+01	5.8827	22.018538	0.000415	4.154873	1.407709	0.000166
 150	1.4825e+01	5.9308	22.196172	0.000446	4.458888	1.510712	0.000179
 151	1.4925e+01	5.9597	22.361695	0.000415	4.154873	1.407709	0.000166
 152	1.5024e+01	6.0062	22.507032	0.000365	3.648181	1.236037	0.000146
 153	1.5124e+01	6.0464	22.700814	0.000486	4.864241	1.648049	0.000195
 154	1.5223e+01	6.0833	22.834040	0.000334	3.344166	1.133034	0.000134
 155	1.5323e+01	6.1250	23.003599	0.000426	4.256211	1.442043	0.000170
 156	1.5422e+01	6.1619	23.157011	0.000385	3.850857	1.304706	0.000154
 157	1.5522e+01	6.2004	23.310422	0.000385	3.850857	1.304706	0.000154
 158	1.5621e+01	6.2405	23.484019	0.000436	4.357549	1.476378	0.000174
 159	1.5721e+01	6.2838	23.625318	0.000355	3.546842	1.201703	0.000142
 160	1.5820e+01	6.3287	23.802952	0.000446	4.458888	1.510712	0.000179
 161	1.5920e+01	6.3624	23.976549	0.000436	4.357549	1.476378	0.000174
 162	1.6020e+01	6.4105	24.129960	0.000385	3.850857	1.304706	0.000154
 163	1.6119e+01	6.4378	24.299520	0.000426	4.256211	1.442043	0.000170
 164	1.6218e+01	6.4763	24.493303	0.000486	4.864241	1.648049	0.000195
 165	1.6318e+01	6.5228	24.614417	0.000304	3.040151	1.030031	0.000122
 166	1.6418e+01	6.5517	24.783976	0.000426	4.256211	1.442043	0.000170
 167	1.6517e+01	6.5950	24.929313	0.000365	3.648181	1.236037	0.000146
 168	1.6616e+01	6.6399	25.074650	0.000365	3.648181	1.236037	0.000146
 169	1.6716e+01	6.6688	25.228061	0.000385	3.850857	1.304706	0.000154
 170	1.6816e+01	6.7137	25.417807	0.000476	4.762903	1.613715	0.000191
 171	1.6915e+01	6.7506	25.542958	0.000314	3.141489	1.064365	0.000126
 172	1.7015e+01	6.7971	25.708480	0.000415	4.154873	1.407709	0.000166
 173	1.7114e+01	6.8324	25.878040	0.000426	4.256211	1.442043	0.000170
 174	1.7213e+01	6.8822	26.063748	0.000466	4.661564	1.579381	0.000187
 175	1.7313e+01	6.9126	26.217159	0.000385	3.850857	1.304706	0.000154
 176	1.7413e+01	6.9592	26.346348	0.000324	3.242827	1.098700	0.000130
 177	1.7512e+01	6.9929	26.548205	0.000507	5.066918	1.716718	0.000203
 178	1.7611e+01	7.0426	26.701616	0.000385	3.850857	1.304706	0.000154
 179	1.7711e+01	7.0747	26.798507	0.000243	2.432121	0.824025	0.000097
 180	1.7811e+01	7.1148	27.028624	0.000578	5.776286	1.957059	0.000231
 181	1.7910e+01	7.1517	27.161849	0.000334	3.344166	1.133034	0.000134
 182	1.8009e+01	7.1950	27.335446	0.000436	4.357549	1.476378	0.000174
 183	1.8109e+01	7.2351	27.521154	0.000466	4.661564	1.579381	0.000187
 184	1.8209e+01	7.2752	27.670528	0.000375	3.749519	1.270371	0.000150
 185	1.8308e+01	7.3249	27.852199	0.000456	4.560226	1.545046	0.000183
 186	1.8407e+01	7.3538	27.997536	0.000365	3.648181	1.236037	0.000146
 187	1.8507e+01	7.3939	28.154985	0.000395	3.952196	1.339040	0.000158
 188	1.8607e+01	7.4388	28.300322	0.000365	3.648181	1.236037	0.000146
 189	1.8706e+01	7.4805	28.457770	0.000395	3.952196	1.339040	0.000158
 190	1.8805e+01	7.5174	28.635404	0.000446	4.458888	1.510712	0.000179
 191	1.8905e+01	7.5479	28.792852	0.000395	3.952196	1.339040	0.000158
 192	1.9005e+01	7.5912	28.926078	0.000334	3.344166	1.133034	0.000134
 193	1.9104e+01	7.6329	29.148120	0.000557	5.573610	1.888390	0.000223
 194	1.9203e+01	7.6730	29.232900	0.000213	2.128105	0.721022	0.000085
 195	1.9303e+01	7.7099	29.426682	0.000486	4.864241	1.648049	0.000195
 196	1.9402e+01	7.7533	29.580094	0.000385	3.850857	1.304706	0.000154
 197	1.9502e+01	7.8030	29.721393	0.000355	3.546842	1.201703	0.000142
 198	1.9602e+01	7.8447	29.963621	0.000608	6.080301	2.060062	0.000243
 199	1.9701e+01	7.8768	30.044364	0.000203	2.026767	0.686687	0.000081
 200	1.9800e+01	7.9169	30.201812	0.000395	3.952196	1.339040	0.000158
 201	1.9900e+01	7.9586	30.411744	0.000527	5.269594	1.785387	0.000211
 202	2.0000e+01	7.9955	30.565155	0.000385	3.850857	1.304706	0.000154
 203	2.0099e+01	8.0372	30.694343	0.000324	3.242827	1.098700	0.000130
 204	2.0198e+01	8.0693	30.892163	0.000497	4.965579	1.682384	0.000199
 205	2.0298e+01	8.1110	31.073834	0.000456	4.560226	1.545046	0.000183
 206	2.0398e+01	8.1527	31.198985	0.000314	3.141489	1.064365	0.000126
 207	2.0497e+01	8.1912	31.372582	0.000436	4.357549	1.476378	0.000174
 208	2.0596e+01	8.2297	31.538104	0.000415	4.154873	1.407709	0.000166
 209	2.0696e+01	8.2827	31.683441	0.000365	3.648181	1.236037	0.000146
 210	2.0796e+01	8.3196	31.893372	0.000527	5.269594	1.785387	0.000211
 211	2.0895e+01	8.3548	32.042746	0.000375	3.749519	1.270371	0.000150
 212	2.0994e+01	8.3966	32.184046	0.000355	3.546842	1.201703	0.000142
 213	2.1094e+01	8.4351	32.345532	0.000405	4.053534	1.373375	0.000162
 214	2.1194e+01	8.4768	32.490868	0.000365	3.648181	1.236037	0.000146
 215	2.1293e+01	8.5169	32.656391	0.000415	4.154873	1.407709	0.000166
 216	2.1392e+01	8.5554	32.825951	0.000426	4.256211	1.442043	0.000170
 217	2.1492e+01	8.5907	32.987436	0.000405	4.053534	1.373375	0.000162
 218	2.1591e+01	8.6308	33.156996	0.000426	4.256211	1.442043	0.000170
 219	2.1691e+01	8.6709	33.334630	0.000446	4.458888	1.510712	0.000179
 220	2.1791e+01	8.7094	33.504189	0.000426	4.256211	1.442043	0.000170
 221	2.1890e+01	8.7527	33.649526	0.000365	3.648181	1.236037	0.000146
 222	2.1989e+01	8.7832	33.774678	0.000314	3.141489	1.064365	0.000126
 223	2.2089e+01	8.8265	33.952312	0.000446	4.458888	1.510712	0.000179
 224	2.2189e+01	8.8762	34.146094	0.000486	4.864241	1.648049	0.000195
 225	2.2288e+01	8.9131	34.331802	0.000466	4.661564	1.579381	0.000187
 226	2.2387e+01	8.9532	34.452916	0.000304	3.040151	1.030031	0.000122
 227	2.2487e+01	8.9853	34.622476	0.000426	4.256211	1.442043	0.000170
 228	2.2587e+01	9.0318	34.804147	0.000456	4.560226	1.545046	0.000183
 229	2.2686e+01	9.0719	34.949484	0.000365	3.648181	1.236037	0.000146
 230	2.2785e+01	9.1056	35.115007	0.000415	4.154873	1.407709	0.000166
 231	2.2885e+01	9.1473	35.337049	0.000557	5.573610	1.888390	0.000223
 232	2.2985e+01	9.1858	35.482386	0.000365	3.648181	1.236037	0.000146
 233	2.3084e+01	9.2243	35.599463	0.000294	2.938812	0.995697	0.000118
 234	2.3183e+01	9.2725	35.740763	0.000355	3.546842	1.201703	0.000142
 235	2.3283e+01	9.3126	35.958768	0.000547	5.472271	1.854056	0.000219
 236	2.3383e+01	9.3431	36.071808	0.000284	2.837474	0.961362	0.000114
 237	2.3482e+01	9.3896	36.293850	0.000557	5.573610	1.888390	0.000223
 238	2.3581e+01	9.4297	36.459373	0.000415	4.154873	1.407709	0.000166
 239	2.3681e+01	9.4714	36.596635	0.000345	3.445504	1.167368	0.000138
 240	2.3780e+01	9.5019	36.733898	0.000345	3.445504	1.167368	0.000138
 241	2.3880e+01	9.5468	36.911532	0.000446	4.458888	1.510712	0.000179
 242	2.3980e+01	9.5885	37.052832	0.000355	3.546842	1.201703	0.000142
 243	2.4079e+01	9.6366	37.230466	0.000446	4.458888	1.510712	0.000179
 244	2.4178e+01	9.6639	37.391951	0.000405	4.053534	1.373375	0.000162
 245	2.4278e+01	9.7008	37.573622	0.000456	4.560226	1.545046	0.000183
 246	2.4378e+01	9.7489	37.702811	0.000324	3.242827	1.098700	0.000130
 247	2.4477e+01	9.7810	37.876407	0.000436	4.357549	1.476378	0.000174
 248	2.4576e+01	9.8291	38.041930	0.000415	4.154873	1.407709	0.000166
 249	2.4676e+01	9.8596	38.199378	0.000395	3.952196	1.339040	0.000158
 250	2.4776e+01	9.9061	38.389124	0.000476	4.762903	1.613715	0.000191
 251	2.4875e+01	9.9462	38.538498	0.000375	3.749519	1.270371	0.000150
 252	2.4974e+01	9.9783	38.708057	0.000426	4.256211	1.442043	0.000170
 253	2.5074e+01	10.0168	38.865506	0.000395	3.952196	1.339040	0.000158
 254	2.5174e+01	10.0666	39.079474	0.000537	5.370933	1.819721	0.000215
 255	2.5273e+01	10.0970	39.216737	0.000345	3.445504	1.167368	0.000138
 256	2.5372e+01	10.1436	39.345925	0.000324	3.242827	1.098700	0.000130
 257	2.5472e+01	10.1869	39.527596	0.000456	4.560226	1.545046	0.000183
 258	2.5572e+01	10.2174	39.685044	0.000395	3.952196	1.339040	0.000158
 259	2.5671e+01	10.2687	39.846530	0.000405	4.053534	1.373375	0.000162
 260	2.5770e+01	10.3024	39.995904	0.000375	3.749519	1.270371	0.000150
 261	2.5870e+01	10.3441	40.177575	0.000456	4.560226	1.545046	0.000183
 262	2.5970e+01	10.3874	40.335023	0.000395	3.952196	1.339040	0.000158
 263	2.6069e+01	10.4227	40.496509	0.000405	4.053534	1.373375	0.000162
 264	2.6169e+01	10.4660	40.698365	0.000507	5.066918	1.716718	0.000203
 265	2.6268e+01	10.4965	40.815442	0.000294	2.938812	0.995697	0.000118
 266	2.6367e+01	10.5382	40.997113	0.000456	4.560226	1.545046	0.000183
 267	2.6467e+01	10.5783	41.138413	0.000355	3.546842	1.201703	0.000142
 268	2.6567e+01	10.6280	41.287787	0.000375	3.749519	1.270371	0.000150
 269	2.6666e+01	10.6665	41.441198	0.000385	3.850857	1.304706	0.000154
 270	2.6765e+01	10.7002	41.655167	0.000537	5.370933	1.819721	0.000215
 271	2.6865e+01	10.7435	41.804541	0.000375	3.749519	1.270371	0.000150
 272	2.6965e+01	10.7869	41.970063	0.000415	4.154873	1.407709	0.000166
 273	2.7064e+01	10.8254	42.123474	0.000385	3.850857	1.304706	0.000154
 274	2.7163e+01	10.8623	42.260737	0.000345	3.445504	1.167368	0.000138
 275	2.7263e+01	10.9072	42.446445	0.000466	4.661564	1.579381	0.000187
 276	2.7363e+01	10.9377	42.624079	0.000446	4.458888	1.510712	0.000179
 277	2.7462e+01	10.9842	42.785565	0.000405	4.053534	1.373375	0.000162
 278	2.7561e+01	11.0195	42.963199	0.000446	4.458888	1.510712	0.000179
 279	2.7661e+01	11.0628	43.096424	0.000334	3.344166	1.133034	0.000134
 280	2.7761e+01	11.0981	43.249835	0.000385	3.850857	1.304706	0.000154
 281	2.7860e+01	11.1382	43.407283	0.000395	3.952196	1.339040	0.000158
 282	2.7959e+01	11.1815	43.580880	0.000436	4.357549	1.476378	0.000174
 283	2.8059e+01	11.2168	43.742366	0.000405	4.053534	1.373375	0.000162
 284	2.8159e+01	11.2633	43.903851	0.000405	4.053534	1.373375	0.000162
 285	2.8258e+01	11.3002	44.069374	0.000415	4.154873	1.407709	0.000166
 286	2.8358e+01	11.3451	44.206636	0.000345	3.445504	1.167368	0.000138
 287	2.8457e+01	11.3852	44.347936	0.000355	3.546842	1.201703	0.000142
 288	2.8556e+01	11.4221	44.537681	0.000476	4.762903	1.613715	0.000191
 289	2.8656e+01	11.4606	44.711278	0.000436	4.357549	1.476378	0.000174
 290	2.8756e+01	11.5104	44.824318	0.000284	2.837474	0.961362	0.000114
 291	2.8855e+01	11.5409	44.985804	0.000405	4.053534	1.373375	0.000162
 292	2.8954e+01	11.5761	45.155363	0.000426	4.256211	1.442043	0.000170
 293	2.9054e+01	11.6211	45.320886	0.000415	4.154873	1.407709	0.000166
 294	2.9154e+01	11.6580	45.474297	0.000385	3.850857	1.304706	0.000154
 295	2.9253e+01	11.6949	45.655968	0.000456	4.560226	1.545046	0.000183
 296	2.9352e+01	11.7414	45.797268	0.000355	3.546842	1.201703	0.000142
 297	2.9452e+01	11.7751	45.974902	0.000446	4.458888	1.510712	0.000179
 298	2.9552e+01	11.8232	46.075830	0.000253	2.533459	0.858359	0.000101
 299	2.9651e+01	11.8537	46.293836	0.000547	5.472271	1.854056	0.000219
 300	2.9750e+01	11.9002	46.390727	0.000243	2.432121	0.824025	0.000097
 301	2.9850e+01	11.9435	46.592584	0.000507	5.066918	1.716718	0.000203
 302	2.9950e+01	11.9708	46.717735	0.000314	3.141489	1.064365	0.000126
 303	3.0049e+01	12.0205	46.883257	0.000415	4.154873	1.407709	0.000166
 304	3.0148e+01	12.0638	47.044743	0.000405	4.053534	1.373375	0.000162
 305	3.0248e+01	12.0927	47.198154	0.000385	3.850857	1.304706	0.000154
 306	3.0348e+01	12.1344	47.339454	0.000355	3.546842	1.201703	0.000142
 307	3.0447e+01	12.1761	47.509013	0.000426	4.256211	1.442043	0.000170
 308	3.0547e+01	12.2259	47.674536	0.000415	4.154873	1.407709	0.000166
 309	3.0646e+01	12.2531	47.799687	0.000314	3.141489	1.064365	0.000126
 310	3.0745e+01	12.2884	47.965210	0.000415	4.154873	1.407709	0.000166
 311	3.0845e+01	12.3414	48.167066	0.000507	5.066918	1.716718	0.000203
 312	3.0945e+01	12.3879	48.300292	0.000334	3.344166	1.133034	0.000134
 313	3.1044e+01	12.4216	48.433517	0.000334	3.344166	1.133034	0.000134
 314	3.1143e+01	12.4601	48.611151	0.000446	4.458888	1.510712	0.000179
 315	3.1243e+01	12.5034	48.780711	0.000426	4.256211	1.442043	0.000170
 316	3.1343e+01	12.5275	48.889714	0.000274	2.736136	0.927028	0.000110
 317	3.1442e+01	12.5708	49.071385	0.000456	4.560226	1.545046	0.000183
 318	3.1541e+01	12.6125	49.228833	0.000395	3.952196	1.339040	0.000158
 319	3.1641e+01	12.6574	49.386281	0.000395	3.952196	1.339040	0.000158
 320	3.1741e+01	12.6879	49.543730	0.000395	3.952196	1.339040	0.000158
 321	3.1840e+01	12.7328	49.680992	0.000345	3.445504	1.167368	0.000138
 322	3.1939e+01	12.7729	49.878812	0.000497	4.965579	1.682384	0.000199
 323	3.2039e+01	12.8130	50.003963	0.000314	3.141489	1.064365	0.000126
 324	3.2139e+01	12.8579	50.165449	0.000405	4.053534	1.373375	0.000162
 325	3.2238e+01	12.8916	50.318860	0.000385	3.850857	1.304706	0.000154
 326	3.2337e+01	12.9269	50.452085	0.000334	3.344166	1.133034	0.000134
 327	3.2437e+01	12.9686	50.629719	0.000446	4.458888	1.510712	0.000179
 328	3.2536e+01	13.0055	50.775056	0.000365	3.648181	1.236037	0.000146
 329	3.2636e+01	13.0488	50.896170	0.000304	3.040151	1.030031	0.000122
 330	3.2736e+01	13.0954	51.061693	0.000415	4.154873	1.407709	0.000166
 331	3.2835e+01	13.1242	51.194918	0.000334	3.344166	1.133034	0.000134
 332	3.2934e+01	13.1708	51.388701	0.000486	4.864241	1.648049	0.000195
 333	3.3034e+01	13.2093	51.497703	0.000274	2.736136	0.927028	0.000110
 334	3.3133e+01	13.2574	51.639003	0.000355	3.546842	1.201703	0.000142
 335	3.3233e+01	13.2943	51.816637	0.000446	4.458888	1.510712	0.000179
 336	3.3333e+01	13.3264	52.010420	0.000486	4.864241	1.648049	0.000195
 337	3.3432e+01	13.3729	52.135571	0.000314	3.141489	1.064365	0.000126
 338	3.3532e+01	13.4130	52.280908	0.000365	3.648181	1.236037	0.000146
 339	3.3631e+01	13.4515	52.478727	0.000497	4.965579	1.682384	0.000199
 340	3.3730e+01	13.4884	52.583693	0.000263	2.634797	0.892693	0.000105
 341	3.3830e+01	13.5317	52.708844	0.000314	3.141489	1.064365	0.000126
 342	3.3929e+01	13.5766	52.870330	0.000405	4.053534	1.373375	0.000162
 343	3.4029e+01	13.6087	53.015667	0.000365	3.648181	1.236037	0.000146
 344	3.4129e+01	13.6584	53.181189	0.000415	4.154873	1.407709	0.000166
 345	3.4228e+01	13.6841	53.354786	0.000436	4.357549	1.476378	0.000174
 346	3.4328e+01	13.7338	53.520308	0.000415	4.154873	1.407709	0.000166
 347	3.4427e+01	13.7659	53.645460	0.000314	3.141489	1.064365	0.000126
 348	3.4526e+01	13.8124	53.815019	0.000426	4.256211	1.442043	0.000170
 349	3.4626e+01	13.8461	53.956319	0.000355	3.546842	1.201703	0.000142
 350	3.4725e+01	13.8991	54.093582	0.000345	3.445504	1.167368	0.000138
 351	3.4825e+01	13.9263	54.238919	0.000365	3.648181	1.236037	0.000146
 352	3.4925e+01	13.9697	54.416553	0.000446	4.458888	1.510712	0.000179
 353	3.5024e+01	14.0130	54.557852	0.000355	3.546842	1.201703	0.000142
 354	3.5123e+01	14.0418	54.711264	0.000385	3.850857	1.304706	0.000154
 355	3.5223e+01	14.0884	54.840452	0.000324	3.242827	1.098700	0.000130
 356	3.5322e+01	14.1269	54.997900	0.000395	3.952196	1.339040	0.000158
 357	3.5422e+01	14.1718	55.114977	0.000294	2.938812	0.995697	0.000118
 358	3.5522e+01	14.2119	55.324908	0.000527	5.269594	1.785387	0.000211
 359	3.5621e+01	14.2472	55.446022	0.000304	3.040151	1.030031	0.000122
 360	3.5721e+01	14.2905	55.603471	0.000395	3.952196	1.339040	0.000158
 361	3.5820e+01	14.3274	55.752845	0.000375	3.749519	1.270371	0.000150
 362	3.5919e+01	14.3595	55.918367	0.000415	4.154873	1.407709	0.000166
 363	3.6019e+01	14.4124	56.075815	0.000395	3.952196	1.339040	0.000158
 364	3.6118e+01	14.4525	56.196929	0.000304	3.040151	1.030031	0.000122
 365	3.6218e+01	14.4830	56.358415	0.000405	4.053534	1.373375	0.000162
 366	3.6318e+01	14.5279	56.507789	0.000375	3.749519	1.270371	0.000150
 367	3.6417e+01	14.5664	56.641014	0.000334	3.344166	1.133034	0.000134
 368	3.6517e+01	14.6114	56.818648	0.000446	4.458888	1.510712	0.000179
 369	3.6616e+01	14.6370	56.947837	0.000324	3.242827	1.098700	0.000130
 370	3.6715e+01	14.6884	57.125471	0.000446	4.458888	1.510712	0.000179
 371	3.6815e+01	14.7204	57.270808	0.000365	3.648181	1.236037	0.000146
 372	3.6914e+01	14.7622	57.432293	0.000405	4.053534	1.373375	0.000162
 373	3.7014e+01	14.8071	57.569556	0.000345	3.445504	1.167368	0.000138
 374	3.7114e+01	14.8568	57.747190	0.000446	4.458888	1.510712	0.000179
 375	3.7213e+01	14.8809	57.868304	0.000304	3.040151	1.030031	0.000122
 376	3.7313e+01	14.9210	58.029789	0.000405	4.053534	1.373375	0.000162
 377	3.7412e+01	14.9643	58.191275	0.000405	4.053534	1.373375	0.000162
 378	3.7511e+01	15.0108	58.360834	0.000426	4.256211	1.442043	0.000170
 379	3.7611e+01	15.0477	58.502134	0.000355	3.546842	1.201703	0.000142
 380	3.7711e+01	15.0894	58.675731	0.000436	4.357549	1.476378	0.000174
 381	3.7810e+01	15.1183	58.788771	0.000284	2.837474	0.961362	0.000114
 382	3.7910e+01	15.1712	58.986590	0.000497	4.965579	1.682384	0.000199
 383	3.8009e+01	15.2017	59.131927	0.000365	3.648181	1.236037	0.000146
 384	3.8108e+01	15.2386	59.273227	0.000355	3.546842	1.201703	0.000142
 385	3.8208e+01	15.2787	59.410490	0.000345	3.445504	1.167368	0.000138
 386	3.8307e+01	15.3268	59.571975	0.000405	4.053534	1.373375	0.000162
 387	3.8407e+01	15.3589	59.729423	0.000395	3.952196	1.339040	0.000158
 388	3.8507e+01	15.4006	59.862649	0.000334	3.344166	1.133034	0.000134
 389	3.8606e+01	15.4456	60.052394	0.000476	4.762903	1.613715	0.000191
 390	3.8706e+01	15.4792	60.193694	0.000355	3.546842	1.201703	0.000142
 391	3.8805e+01	15.5226	60.355179	0.000405	4.053534	1.373375	0.000162
 392	3.8904e+01	15.5675	60.504553	0.000375	3.749519	1.270371	0.000150
 393	3.9004e+01	15.6076	60.609519	0.000263	2.634797	0.892693	0.000105
 394	3.9103e+01	15.6413	60.766967	0.000395	3.952196	1.339040	0.000158
 395	3.9203e+01	15.6862	60.956713	0.000476	4.762903	1.613715	0.000191
 396	3.9303e+01	15.7263	61.073789	0.000294	2.938812	0.995697	0.000118
 397	3.9402e+01	15.7616	61.231238	0.000395	3.952196	1.339040	0.000158
 398	3.9502e+01	15.8033	61.368500	0.000345	3.445504	1.167368	0.000138
 399	3.9601e+01	15.8434	61.562283	0.000486	4.864241	1.648049	0.000195
 400	3.9700e+01	15.8755	61.695508	0.000334	3.344166	1.133034	0.000134
 401	3.9800e+01	15.9204	61.840845	0.000365	3.648181	1.236037	0.000146
 402	3.9900e+01	15.9637	61.974071	0.000334	3.344166	1.133034	0.000134
 403	3.9999e+01	16.0054	62.151705	0.000446	4.458888	1.510712	0.000179
 404	4.0099e+01	16.0455	62.297042	0.000365	3.648181	1.236037	0.000146
 405	4.0198e+01	16.0792	62.466601	0.000426	4.256211	1.442043	0.000170
 406	4.0297e+01	16.1177	62.624050	0.000395	3.952196	1.339040	0.000158
 407	4.0397e+01	16.1610	62.745164	0.000304	3.040151	1.030031	0.000122
 408	4.0496e+01	16.1963	62.882426	0.000345	3.445504	1.167368	0.000138
 409	4.0596e+01	16.2429	63.051986	0.000426	4.256211	1.442043	0.000170
 410	4.0696e+01	16.2749	63.221546	0.000426	4.256211	1.442043	0.000170
 411	4.0795e+01	16.3183	63.383031	0.000405	4.053534	1.373375	0.000162
 412	4.0895e+01	16.3519	63.544517	0.000405	4.053534	1.373375	0.000162
 413	4.0994e+01	16.3921	63.685816	0.000355	3.546842	1.201703	0.000142
 414	4.1093e+01	16.4322	63.839227	0.000385	3.850857	1.304706	0.000154
 415	4.1193e+01	16.4755	63.964379	0.000314	3.141489	1.064365	0.000126
 416	4.1292e+01	16.5252	64.109716	0.000365	3.648181	1.236037	0.000146
 417	4.1392e+01	16.5573	64.303498	0.000486	4.864241	1.648049	0.000195
 418	4.1492e+01	16.6022	64.456909	0.000385	3.850857	1.304706	0.000154
 419	4.1591e+01	16.6407	64.569949	0.000284	2.837474	0.961362	0.000114
 420	4.1691e+01	16.6792	64.739509	0.000426	4.256211	1.442043	0.000170
 421	4.1790e+01	16.7241	64.941365	0.000507	5.066918	1.716718	0.000203
 422	4.1889e+01	16.7626	65.070554	0.000324	3.242827	1.098700	0.000130
 423	4.1989e+01	16.7931	65.187631	0.000294	2.938812	0.995697	0.000118
 424	4.2089e+01	16.8444	65.357190	0.000426	4.256211	1.442043	0.000170
 425	4.2188e+01	16.8749	65.478305	0.000304	3.040151	1.030031	0.000122
 426	4.2288e+01	16.9166	65.672087	0.000486	4.864241	1.648049	0.000195
 427	4.2387e+01	16.9583	65.833572	0.000405	4.053534	1.373375	0.000162
 428	4.2486e+01	17.0049	65.954687	0.000304	3.040151	1.030031	0.000122
 429	4.2586e+01	17.0450	66.152506	0.000497	4.965579	1.682384	0.000199
 430	4.2685e+01	17.0803	66.293806	0.000355	3.546842	1.201703	0.000142
 431	4.2785e+01	17.1172	66.439143	0.000365	3.648181	1.236037	0.000146
 432	4.2885e+01	17.1717	66.584480	0.000365	3.648181	1.236037	0.000146
 433	4.2984e+01	17.1910	66.802485	0.000547	5.472271	1.854056	0.000219
 434	4.3084e+01	17.2407	66.903413	0.000253	2.533459	0.858359	0.000101
 435	4.3183e+01	17.2776	67.068936	0.000415	4.154873	1.407709	0.000166
 436	4.3282e+01	17.3145	67.202161	0.000334	3.344166	1.133034	0.000134
 437	4.3382e+01	17.3594	67.379795	0.000446	4.458888	1.510712	0.000179
 438	4.3481e+01	17.4027	67.500910	0.000304	3.040151	1.030031	0.000122
 439	4.3581e+01	17.4412	67.666432	0.000415	4.154873	1.407709	0.000166
 440	4.3681e+01	17.4765	67.795620	0.000324	3.242827	1.098700	0.000130
 441	4.3780e+01	17.5230	67.977292	0.000456	4.560226	1.545046	0.000183
 442	4.3880e+01	17.5567	68.130703	0.000385	3.850857	1.304706	0.000154
 443	4.3979e+01	17.5888	68.243743	0.000284	2.837474	0.961362	0.000114
 444	4.4078e+01	17.6401	68.401191	0.000395	3.952196	1.339040	0.000158
 445	4.4178e+01	17.6754	68.554602	0.000385	3.850857	1.304706	0.000154
 446	4.4278e+01	17.7107	68.695902	0.000355	3.546842	1.201703	0.000142
 447	4.4377e+01	17.7556	68.905833	0.000527	5.269594	1.785387	0.000211
 448	4.4477e+01	17.7909	69.014835	0.000274	2.736136	0.927028	0.000110
 449	4.4576e+01	17.8310	69.196507	0.000456	4.560226	1.545046	0.000183
 450	4.4675e+01	17.8663	69.305509	0.000274	2.736136	0.927028	0.000110
 451	4.4775e+01	17.9193	69.458920	0.000385	3.850857	1.304706	0.000154
 452	4.4874e+01	17.9546	69.628480	0.000426	4.256211	1.442043	0.000170
 453	4.4974e+01	17.9931	69.777854	0.000375	3.749519	1.270371	0.000150
 454	4.5074e+01	18.0380	69.939340	0.000405	4.053534	1.373375	0.000162
 455	4.5173e+01	18.0685	70.100825	0.000405	4.053534	1.373375	0.000162
 456	4.5273e+01	18.1102	70.205790	0.000263	2.634797	0.892693	0.000105
 457	4.5372e+01	18.1455	70.359202	0.000385	3.850857	1.304706	0.000154
 458	4.5471e+01	18.1968	70.500501	0.000355	3.546842	1.201703	0.000142
 459	4.5571e+01	18.2257	70.682173	0.000456	4.560226	1.545046	0.000183
 460	4.5670e+01	18.2706	70.819435	0.000345	3.445504	1.167368	0.000138
 461	4.5770e+01	18.3107	70.948623	0.000324	3.242827	1.098700	0.000130
 462	4.5870e+01	18.3556	71.130295	0.000456	4.560226	1.545046	0.000183
 463	4.5969e+01	18.3893	71.267557	0.000345	3.445504	1.167368	0.000138
 464	4.6069e+01	18.4310	71.412894	0.000365	3.648181	1.236037	0.000146
 465	4.6168e+01	18.4776	71.562268	0.000375	3.749519	1.270371	0.000150
 466	4.6267e+01	18.5096	71.703568	0.000355	3.546842	1.201703	0.000142
 467	4.6367e+01	18.5562	71.865053	0.000405	4.053534	1.373375	0.000162
 468	4.6467e+01	18.5882	72.006353	0.000355	3.546842	1.201703	0.000142
 469	4.6566e+01	18.6284	72.143616	0.000345	3.445504	1.167368	0.000138
 470	4.6666e+01	18.6685	72.272804	0.000324	3.242827	1.098700	0.000130
 471	4.6765e+01	18.7118	72.446401	0.000436	4.357549	1.476378	0.000174
 472	4.6864e+01	18.7519	72.611923	0.000415	4.154873	1.407709	0.000166
 473	4.6964e+01	18.7888	72.745149	0.000334	3.344166	1.133034	0.000134
 474	4.7063e+01	18.8353	72.882411	0.000345	3.445504	1.167368	0.000138
 475	4.7163e+01	18.8690	73.019674	0.000345	3.445504	1.167368	0.000138
 476	4.7263e+01	18.9107	73.140788	0.000304	3.040151	1.030031	0.000122
 477	4.7362e+01	18.9556	73.358793	0.000547	5.472271	1.854056	0.000219
 478	4.7462e+01	18.9829	73.443573	0.000213	2.128105	0.721022	0.000085
 479	4.7561e+01	19.0326	73.617170	0.000436	4.357549	1.476378	0.000174
 480	4.7660e+01	19.0807	73.750396	0.000334	3.344166	1.133034	0.000134
 481	4.7760e+01	19.1144	73.919955	0.000426	4.256211	1.442043	0.000170
 482	4.7859e+01	19.1481	74.057218	0.000345	3.445504	1.167368	0.000138
 483	4.7959e+01	19.1979	74.238889	0.000456	4.560226	1.545046	0.000183
 484	4.8059e+01	19.2331	74.343855	0.000263	2.634797	0.892693	0.000105
 485	4.8158e+01	19.2733	74.493229	0.000375	3.749519	1.270371	0.000150
 486	4.8258e+01	19.3134	74.662788	0.000426	4.256211	1.442043	0.000170
 487	4.8357e+01	19.3470	74.779865	0.000294	2.938812	0.995697	0.000118
 488	4.8456e+01	19.3904	74.949425	0.000426	4.256211	1.442043	0.000170
 489	4.8556e+01	19.4273	75.050353	0.000253	2.533459	0.858359	0.000101
 490	4.8656e+01	19.4706	75.207802	0.000395	3.952196	1.339040	0.000158
 491	4.8755e+01	19.5091	75.373324	0.000415	4.154873	1.407709	0.000166
 492	4.8855e+01	19.5444	75.482327	0.000274	2.736136	0.927028	0.000110
 493	4.8954e+01	19.5893	75.639775	0.000395	3.952196	1.339040	0.000158
 494	4.9053e+01	19.6246	75.797223	0.000395	3.952196	1.339040	0.000158
 495	4.9153e+01	19.6647	75.906226	0.000274	2.736136	0.927028	0.000110
 496	4.9252e+01	19.6968	76.100009	0.000486	4.864241	1.648049	0.000195
 497	4.9352e+01	19.7481	76.269568	0.000426	4.256211	1.442043	0.000170
 498	4.9452e+01	19.7930	76.386645	0.000294	2.938812	0.995697	0.000118
 499	4.9551e+01	19.8187	76.507759	0.000304	3.040151	1.030031	0.000122
 500	4.9651e+01	19.8668	76.632911	0.000314	3.141489	1.064365	0.000126
 501	4.9750e+01	19.9053	76.806507	0.000436	4.357549	1.476378	0.000174
 502	4.9849e+01	19.9470	76.935696	0.000324	3.242827	1.098700	0.000130
 503	4.9949e+01	19.9807	77.056810	0.000304	3.040151	1.030031	0.000122
 504	5.0048e+01	19.9486	77.020476	0.000091	0.912045	0.309009	-0.000037
 505	5.0148e+01	19.9037	76.923584	0.000243	2.432121	0.824025	-0.000097
 506	5.0248e+01	19.8668	76.774210	0.000375	3.749519	1.270371	-0.000150
 507	5.0347e+01	19.8299	76.673282	0.000253	2.533459	0.858359	-0.000101
 508	5.0447e+01	19.7834	76.544094	0.000324	3.242827	1.098700	-0.000130
 509	5.0546e+01	19.7513	76.475462	0.000172	1.722752	0.583684	-0.000069
 510	5.0645e+01	19.7048	76.330125	0.000365	3.648181	1.236037	-0.000146
 511	5.0745e+01	19.6631	76.241308	0.000223	2.229444	0.755356	-0.000089
 512	5.0844e+01	19.6246	76.120194	0.000304	3.040151	1.030031	-0.000122
 513	5.0944e+01	19.5957	75.995043	0.000314	3.141489	1.064365	-0.000126
 514	5.1044e+01	19.5524	75.898152	0.000243	2.432121	0.824025	-0.000097
 515	5.1143e+01	19.5123	75.760889	0.000345	3.445504	1.167368	-0.000138
 516	5.1242e+01	19.4690	75.663998	0.000243	2.432121	0.824025	-0.000097
 517	5.1342e+01	19.4176	75.554995	0.000274	2.736136	0.927028	-0.000110
 518	5.1441e+01	19.4000	75.389473	0.000415	4.154873	1.407709	-0.000166
 519	5.1541e+01	19.3438	75.308730	0.000203	2.026767	0.686687	-0.000081
 520	5.1641e+01	19.3021	75.163393	0.000365	3.648181	1.236037	-0.000146
 521	5.1740e+01	19.2652	75.046316	0.000294	2.938812	0.995697	-0.000118
 522	5.1840e+01	19.2315	74.929239	0.000294	2.938812	0.995697	-0.000118
 523	5.1939e+01	19.1786	74.828311	0.000253	2.533459	0.858359	-0.000101
 524	5.2038e+01	19.1449	74.699123	0.000324	3.242827	1.098700	-0.000130
 525	5.2138e+01	19.1016	74.582046	0.000294	2.938812	0.995697	-0.000118
 526	5.2237e+01	19.0711	74.477080	0.000263	2.634797	0.892693	-0.000105
 527	5.2337e+01	19.0294	74.315595	0.000405	4.053534	1.373375	-0.000162
 528	5.2437e+01	18.9925	74.206592	0.000274	2.736136	0.927028	-0.000110
 529	5.2536e+01	18.9636	74.073367	0.000334	3.344166	1.133034	-0.000134
 530	5.2636e+01	18.9155	73.964364	0.000274	2.736136	0.927028	-0.000110
 531	5.2735e+01	18.8690	73.859398	0.000263	2.634797	0.892693	-0.000105
 532	5.2834e+01	18.8305	73.730210	0.000324	3.242827	1.098700	-0.000130
 533	5.2934e+01	18.7872	73.625244	0.000263	2.634797	0.892693	-0.000105
 534	5.3033e+01	18.7423	73.475870	0.000375	3.749519	1.270371	-0.000150
 535	5.3133e+01	18.7086	73.391091	0.000213	2.128105	0.721022	-0.000085
 536	5.3233e+01	18.6749	73.229605	0.000405	4.053534	1.373375	-0.000162
 537	5.3332e+01	18.6284	73.104454	0.000314	3.141489	1.064365	-0.000126
 538	5.3431e+01	18.5882	72.979303	0.000314	3.141489	1.064365	-0.000126
 539	5.3531e+01	18.5562	72.878374	0.000253	2.533459	0.858359	-0.000101
 540	5.3630e+01	18.5080	72.733037	0.000365	3.648181	1.236037	-0.000146
 541	5.3730e+01	18.4711	72.640183	0.000233	2.330782	0.789690	-0.000093
 542	5.3830e+01	18.4374	72.482735	0.000395	3.952196	1.339040	-0.000158
 543	5.3929e+01	18.3989	72.369695	0.000284	2.837474	0.961362	-0.000114
 544	5.4029e+01	18.3540	72.232433	0.000345	3.445504	1.167368	-0.000138
 545	5.4128e+01	18.3139	72.111319	0.000304	3.040151	1.030031	-0.000122
 546	5.4227e+01	18.2690	72.002316	0.000274	2.736136	0.927028	-0.000110
 547	5.4327e+01	18.2305	71.856979	0.000365	3.648181	1.236037	-0.000146
 548	5.4426e+01	18.1936	71.768162	0.000223	2.229444	0.755356	-0.000089
 549	5.4526e+01	18.1679	71.602639	0.000415	4.154873	1.407709	-0.000166
 550	5.4626e+01	18.1118	71.493637	0.000274	2.736136	0.927028	-0.000110
 551	5.4725e+01	18.0717	71.376560	0.000294	2.938812	0.995697	-0.000118
 552	5.4825e+01	18.0332	71.275631	0.000253	2.533459	0.858359	-0.000101
 553	5.4924e+01	17.9947	71.138369	0.000345	3.445504	1.167368	-0.000138
 554	5.5023e+01	17.9514	70.993032	0.000365	3.648181	1.236037	-0.000146
 555	5.5123e+01	17.9097	70.867881	0.000314	3.141489	1.064365	-0.000126
 556	5.5222e+01	17.8728	70.742730	0.000314	3.141489	1.064365	-0.000126
 557	5.5322e+01	17.8407	70.625653	0.000294	2.938812	0.995697	-0.000118
 558	5.5422e+01	17.7909	70.520687	0.000263	2.634797	0.892693	-0.000105
 559	5.5521e+01	17.7556	70.355165	0.000415	4.154873	1.407709	-0.000166
 560	5.5620e+01	17.7139	70.221939	0.000334	3.344166	1.133034	-0.000134
 561	5.5720e+01	17.6706	70.125048	0.000243	2.432121	0.824025	-0.000097
 562	5.5819e+01	17.6369	69.987785	0.000345	3.445504	1.167368	-0.000138
 563	5.5919e+01	17.5856	69.858597	0.000324	3.242827	1.098700	-0.000130
 564	5.6019e+01	17.5567	69.749594	0.000274	2.736136	0.927028	-0.000110
 565	5.6118e+01	17.5246	69.648666	0.000253	2.533459	0.858359	-0.000101
 566	5.6218e+01	17.4749	69.471032	0.000446	4.458888	1.510712	-0.000179
 567	5.6317e+01	17.4428	69.370103	0.000253	2.533459	0.858359	-0.000101
 568	5.6416e+01	17.3899	69.200544	0.000426	4.256211	1.442043	-0.000170
 569	5.6516e+01	17.3514	69.103652	0.000243	2.432121	0.824025	-0.000097
 570	5.6615e+01	17.3193	68.990613	0.000284	2.837474	0.961362	-0.000114
 571	5.6715e+01	17.2856	68.825090	0.000415	4.154873	1.407709	-0.000166
 572	5.6815e+01	17.2279	68.683790	0.000355	3.546842	1.201703	-0.000142
 573	5.6914e+01	17.2054	68.582862	0.000253	2.533459	0.858359	-0.000101
 574	5.7014e+01	17.1605	68.465785	0.000294	2.938812	0.995697	-0.000118
 575	5.7113e+01	17.1140	68.348708	0.000294	2.938812	0.995697	-0.000118
 576	5.7212e+01	17.0755	68.183185	0.000415	4.154873	1.407709	-0.000166
 577	5.7312e+01	17.0386	68.110517	0.000182	1.824090	0.618019	-0.000073
 578	5.7411e+01	16.9985	67.936920	0.000436	4.357549	1.476378	-0.000174
 579	5.7511e+01	16.9599	67.819843	0.000294	2.938812	0.995697	-0.000118
 580	5.7611e+01	16.9150	67.674506	0.000365	3.648181	1.236037	-0.000146
 581	5.7710e+01	16.8733	67.581652	0.000233	2.330782	0.789690	-0.000093
 582	5.7809e+01	16.8396	67.404018	0.000446	4.458888	1.510712	-0.000179
 583	5.7909e+01	16.8027	67.315201	0.000223	2.229444	0.755356	-0.000089
 584	5.8008e+01	16.7610	67.161790	0.000385	3.850857	1.304706	-0.000154
 585	5.8108e+01	16.7209	67.016453	0.000365	3.648181	1.236037	-0.000146
 586	5.8208e+01	16.6824	66.931673	0.000213	2.128105	0.721022	-0.000085
 587	5.8307e+01	16.6327	66.846894	0.000213	2.128105	0.721022	-0.000085
 588	5.8407e+01	16.5990	66.673297	0.000436	4.357549	1.476378	-0.000174
 589	5.8506e+01	16.5605	66.564294	0.000274	2.736136	0.927028	-0.000110
 590	5.8605e+01	16.5188	66.427031	0.000345	3.445504	1.167368	-0.000138
 591	5.8705e+01	16.4723	66.265546	0.000405	4.053534	1.373375	-0.000162
 592	5.8804e+01	16.4370	66.140395	0.000314	3.141489	1.064365	-0.000126
 593	5.8904e+01	16.4017	66.027355	0.000284	2.837474	0.961362	-0.000114
 594	5.9004e+01	16.3535	65.890092	0.000345	3.445504	1.167368	-0.000138
 595	5.9103e+01	16.3199	65.752830	0.000345	3.445504	1.167368	-0.000138
 596	5.9203e+01	16.2798	65.627679	0.000314	3.141489	1.064365	-0.000126
 597	5.9302e+01	16.2300	65.518676	0.000274	2.736136	0.927028	-0.000110
 598	5.9401e+01	16.2011	65.385450	0.000334	3.344166	1.133034	-0.000134
 599	5.9501e+01	16.1675	65.228002	0.000395	3.952196	1.339040	-0.000158
 600	5.9600e+01	16.1225	65.094777	0.000334	3.344166	1.133034	-0.000134
 601	5.9700e+01	16.0840	64.985774	0.000274	2.736136	0.927028	-0.000110
 602	5.9800e+01	16.0471	64.872734	0.000284	2.837474	0.961362	-0.000114
 603	5.9899e+01	15.9926	64.735472	0.000345	3.445504	1.167368	-0.000138
 604	5.9998e+01	15.9653	64.614357	0.000304	3.040151	1.030031	-0.000122
 605	6.0098e+01	15.9236	64.477095	0.000345	3.445504	1.167368	-0.000138
 606	6.0197e+01	15.8739	64.315609	0.000405	4.053534	1.373375	-0.000162
 607	6.0297e+01	15.8514	64.210644	0.000263	2.634797	0.892693	-0.000105
 608	6.0397e+01	15.8049	64.089530	0.000304	3.040151	1.030031	-0.000122
 609	6.0496e+01	15.7648	63.976490	0.000284	2.837474	0.961362	-0.000114
 610	6.0596e+01	15.7151	63.774633	0.000507	5.066918	1.716718	-0.000203
 611	6.0695e+01	15.6798	63.657556	0.000294	2.938812	0.995697	-0.000118
 612	6.0794e+01	15.6509	63.548554	0.000274	2.736136	0.927028	-0.000110
 613	6.0894e+01	15.5996	63.411291	0.000345	3.445504	1.167368	-0.000138
 614	6.0993e+01	15.5562	63.286140	0.000314	3.141489	1.064365	-0.000126
 615	6.1093e+01	15.5274	63.132729	0.000385	3.850857	1.304706	-0.000154
 616	6.1193e+01	15.4857	63.027763	0.000263	2.634797	0.892693	-0.000105
 617	6.1292e+01	15.4375	62.870315	0.000395	3.952196	1.339040	-0.000158
 618	6.1392e+01	15.4071	62.773424	0.000243	2.432121	0.824025	-0.000097
 619	6.1491e+01	15.3734	62.611938	0.000405	4.053534	1.373375	-0.000162
 620	6.1590e+01	15.3284	62.486787	0.000314	3.141489	1.064365	-0.000126
 621	6.1690e+01	15.2803	62.337413	0.000375	3.749519	1.270371	-0.000150
 622	6.1789e+01	15.2354	62.284930	0.000132	1.317399	0.446347	-0.000053
 623	6.1889e+01	15.2001	62.046739	0.000598	5.978963	2.025727	-0.000239
 624	6.1989e+01	15.1712	61.933699	0.000284	2.837474	0.961362	-0.000114
 625	6.2088e+01	15.1247	61.788362	0.000365	3.648181	1.236037	-0.000146
 626	6.2188e+01	15.0798	61.663211	0.000314	3.141489	1.064365	-0.000126
 627	6.2287e+01	15.0429	61.501726	0.000405	4.053534	1.373375	-0.000162
 628	6.2386e+01	15.0060	61.445206	0.000142	1.418737	0.480681	-0.000057
 629	6.2486e+01	14.9675	61.295832	0.000375	3.749519	1.270371	-0.000150
 630	6.2586e+01	14.9210	61.122235	0.000436	4.357549	1.476378	-0.000174
 631	6.2685e+01	14.8857	60.980935	0.000355	3.546842	1.201703	-0.000142
 632	6.2785e+01	14.8488	60.835598	0.000365	3.648181	1.236037	-0.000146
 633	6.2884e+01	14.8103	60.694299	0.000355	3.546842	1.201703	-0.000142
 634	6.2983e+01	14.7686	60.552999	0.000355	3.546842	1.201703	-0.000142
 635	6.3083e+01	14.7220	60.387476	0.000415	4.154873	1.407709	-0.000166
 636	6.3182e+01	14.6868	60.306734	0.000203	2.026767	0.686687	-0.000081
 637	6.3282e+01	14.6386	60.145248	0.000405	4.053534	1.373375	-0.000162
 638	6.3382e+01	14.6033	59.999911	0.000365	3.648181	1.236037	-0.000146
 639	6.3481e+01	14.5584	59.886872	0.000284	2.837474	0.961362	-0.000114
 640	6.3581e+01	14.5231	59.745572	0.000355	3.546842	1.201703	-0.000142
 641	6.3680e+01	14.4862	59.628495	0.000294	2.938812	0.995697	-0.000118
 642	6.3779e+01	14.4525	59.462972	0.000415	4.154873	1.407709	-0.000166
 643	6.3879e+01	14.4076	59.297450	0.000415	4.154873	1.407709	-0.000166
 644	6.3978e+01	14.3739	59.172299	0.000314	3.141489	1.064365	-0.000126
 645	6.4078e+01	14.3210	59.039073	0.000334	3.344166	1.133034	-0.000134
 646	6.4177e+01	14.2873	58.873550	0.000415	4.154873	1.407709	-0.000166
 647	6.4277e+01	14.2440	58.756474	0.000294	2.938812	0.995697	-0.000118
 648	6.4376e+01	14.2103	58.586914	0.000426	4.256211	1.442043	-0.000170
 649	6.4476e+01	14.1686	58.477911	0.000274	2.736136	0.927028	-0.000110
 650	6.4576e+01	14.1301	58.348723	0.000324	3.242827	1.098700	-0.000130
 651	6.4675e+01	14.0948	58.195312	0.000385	3.850857	1.304706	-0.000154
 652	6.4775e+01	14.0483	58.070160	0.000314	3.141489	1.064365	-0.000126
 653	6.4874e+01	14.0146	57.908675	0.000405	4.053534	1.373375	-0.000162
 654	6.4974e+01	13.9568	57.775450	0.000334	3.344166	1.133034	-0.000134
 655	6.5073e+01	13.9279	57.626076	0.000375	3.749519	1.270371	-0.000150
 656	6.5172e+01	13.8862	57.492850	0.000334	3.344166	1.133034	-0.000134
 657	6.5272e+01	13.8413	57.343476	0.000375	3.749519	1.270371	-0.000150
 658	6.5371e+01	13.8092	57.218325	0.000314	3.141489	1.064365	-0.000126
 659	6.5471e+01	13.7627	57.052802	0.000415	4.154873	1.407709	-0.000166
 660	6.5570e+01	13.7242	56.927651	0.000314	3.141489	1.064365	-0.000126
 661	6.5670e+01	13.6889	56.826723	0.000253	2.533459	0.858359	-0.000101
 662	6.5769e+01	13.6536	56.632940	0.000486	4.864241	1.648049	-0.000195
 663	6.5869e+01	13.6199	56.523937	0.000274	2.736136	0.927028	-0.000110
 664	6.5969e+01	13.5734	56.358415	0.000415	4.154873	1.407709	-0.000166
 665	6.6068e+01	13.5301	56.233264	0.000314	3.141489	1.064365	-0.000126
 666	6.6168e+01	13.4916	56.051593	0.000456	4.560226	1.545046	-0.000183
 667	6.6267e+01	13.4483	55.938553	0.000284	2.837474	0.961362	-0.000114
 668	6.6367e+01	13.4018	55.785142	0.000385	3.850857	1.304706	-0.000154
 669	6.6466e+01	13.3745	55.643842	0.000355	3.546842	1.201703	-0.000142
 670	6.6566e+01	13.3280	55.466208	0.000446	4.458888	1.510712	-0.000179
 671	6.6665e+01	13.2911	55.341057	0.000314	3.141489	1.064365	-0.000126
 672	6.6764e+01	13.2542	55.236091	0.000263	2.634797	0.892693	-0.000105
 673	6.6864e+01	13.2076	55.046346	0.000476	4.762903	1.613715	-0.000191
 674	6.6963e+01	13.1724	54.949455	0.000243	2.432121	0.824025	-0.000097
 675	6.7063e+01	13.1258	54.779895	0.000426	4.256211	1.442043	-0.000170
 676	6.7162e+01	13.0825	54.598224	0.000456	4.560226	1.545046	-0.000183
 677	6.7262e+01	13.0601	54.485184	0.000284	2.837474	0.961362	-0.000114
 678	6.7362e+01	13.0183	54.364070	0.000304	3.040151	1.030031	-0.000122
 679	6.7461e+01	12.9638	54.162213	0.000507	5.066918	1.716718	-0.000203
 680	6.7561e+01	12.9365	54.033025	0.000324	3.242827	1.098700	-0.000130
 681	6.7660e+01	12.8900	53.899799	0.000334	3.344166	1.133034	-0.000134
 682	6.7760e+01	12.8643	53.758499	0.000355	3.546842	1.201703	-0.000142
 683	6.7859e+01	12.8130	53.617200	0.000355	3.546842	1.201703	-0.000142
 684	6.7959e+01	12.7777	53.467826	0.000375	3.749519	1.270371	-0.000150
 685	6.8058e+01	12.7360	53.306340	0.000405	4.053534	1.373375	-0.000162
 686	6.8157e+01	12.6959	53.177152	0.000324	3.242827	1.098700	-0.000130
 687	6.8257e+01	12.6558	53.035852	0.000355	3.546842	1.201703	-0.000142
 688	6.8356e+01	12.6173	52.882441	0.000385	3.850857	1.304706	-0.000154
 689	6.8456e+01	12.5724	52.716918	0.000415	4.154873	1.407709	-0.000166
 690	6.8555e+01	12.5355	52.599842	0.000294	2.938812	0.995697	-0.000118
 691	6.8655e+01	12.5034	52.422208	0.000446	4.458888	1.510712	-0.000179
 692	6.8754e+01	12.4585	52.297056	0.000314	3.141489	1.064365	-0.000126
 693	6.8854e+01	12.4184	52.155757	0.000355	3.546842	1.201703	-0.000142
 694	6.8954e+01	12.3927	52.018494	0.000345	3.445504	1.167368	-0.000138
 695	6.9053e+01	12.3414	51.869120	0.000375	3.749519	1.270371	-0.000150
 696	6.9153e+01	12.2884	51.727820	0.000355	3.546842	1.201703	-0.000142
 697	6.9252e+01	12.2547	51.546149	0.000456	4.560226	1.545046	-0.000183
 698	6.9352e+01	12.2130	51.396775	0.000375	3.749519	1.270371	-0.000150
 699	6.9451e+01	12.1745	51.263550	0.000334	3.344166	1.133034	-0.000134
 700	6.9550e+01	12.1392	51.150510	0.000284	2.837474	0.961362	-0.000114
 701	6.9650e+01	12.0943	51.013247	0.000345	3.445504	1.167368	-0.000138
 702	6.9749e+01	12.0542	50.843687	0.000426	4.256211	1.442043	-0.000170
 703	6.9849e+01	12.0109	50.682202	0.000405	4.053534	1.373375	-0.000162
 704	6.9948e+01	11.9820	50.557051	0.000314	3.141489	1.064365	-0.000126
 705	7.0048e+01	11.9403	50.383454	0.000436	4.357549	1.476378	-0.000174
 706	7.0147e+01	11.9034	50.262340	0.000304	3.040151	1.030031	-0.000122
 707	7.0247e+01	11.8617	50.108929	0.000385	3.850857	1.304706	-0.000154
 708	7.0347e+01	11.8136	49.987815	0.000304	3.040151	1.030031	-0.000122
 709	7.0446e+01	11.7703	49.794032	0.000486	4.864241	1.648049	-0.000195
 710	7.0546e+01	11.7446	49.664844	0.000324	3.242827	1.098700	-0.000130
 711	7.0645e+01	11.7013	49.515470	0.000375	3.749519	1.270371	-0.000150
 712	7.0745e+01	11.6644	49.374170	0.000355	3.546842	1.201703	-0.000142
 713	7.0844e+01	11.6195	49.228833	0.000365	3.648181	1.236037	-0.000146
 714	7.0944e+01	11.5713	49.059273	0.000426	4.256211	1.442043	-0.000170
 715	7.1043e+01	11.5344	48.946234	0.000284	2.837474	0.961362	-0.000114
 716	7.1142e+01	11.4975	48.796860	0.000375	3.749519	1.270371	-0.000150
 717	7.1242e+01	11.4638	48.619226	0.000446	4.458888	1.510712	-0.000179
 718	7.1341e+01	11.4253	48.506186	0.000284	2.837474	0.961362	-0.000114
 719	7.1441e+01	11.3836	48.348738	0.000395	3.952196	1.339040	-0.000158
 720	7.1540e+01	11.3275	48.199364	0.000375	3.749519	1.270371	-0.000150
 721	7.1640e+01	11.3082	48.086324	0.000284	2.837474	0.961362	-0.000114
 722	7.1740e+01	11.2681	47.904653	0.000456	4.560226	1.545046	-0.000183
 723	7.1839e+01	11.2024	47.771427	0.000334	3.344166	1.133034	-0.000134
 724	7.1939e+01	11.1831	47.662425	0.000274	2.736136	0.927028	-0.000110
 725	7.2038e+01	11.1350	47.444419	0.000547	5.472271	1.854056	-0.000219
 726	7.2138e+01	11.1077	47.347528	0.000243	2.432121	0.824025	-0.000097
 727	7.2237e+01	11.0484	47.182005	0.000415	4.154873	1.407709	-0.000166
 728	7.2337e+01	11.0227	47.060891	0.000304	3.040151	1.030031	-0.000122
 729	7.2436e+01	10.9890	46.854997	0.000517	5.168256	1.751053	-0.000207
 730	7.2535e+01	10.9409	46.774255	0.000203	2.026767	0.686687	-0.000081
 731	7.2635e+01	10.8895	46.568361	0.000517	5.168256	1.751053	-0.000207
 732	7.2734e+01	10.8591	46.487618	0.000203	2.026767	0.686687	-0.000081
 733	7.2834e+01	10.8141	46.281724	0.000517	5.168256	1.751053	-0.000207
 734	7.2933e+01	10.7820	46.144461	0.000345	3.445504	1.167368	-0.000138
 735	7.3033e+01	10.7500	46.051607	0.000233	2.330782	0.789690	-0.000093
 736	7.3132e+01	10.7034	45.890122	0.000405	4.053534	1.373375	-0.000162
 737	7.3232e+01	10.6714	45.716525	0.000436	4.357549	1.476378	-0.000174
 738	7.3332e+01	10.6200	45.571188	0.000365	3.648181	1.236037	-0.000146
 739	7.3431e+01	10.5879	45.425851	0.000365	3.648181	1.236037	-0.000146
 740	7.3531e+01	10.5446	45.252254	0.000436	4.357549	1.476378	-0.000174
 741	7.3630e+01	10.5045	45.135178	0.000294	2.938812	0.995697	-0.000118
 742	7.3730e+01	10.4660	44.977729	0.000395	3.952196	1.339040	-0.000158
 743	7.3829e+01	10.4195	44.828355	0.000375	3.749519	1.270371	-0.000150
 744	7.3928e+01	10.3858	44.707241	0.000304	3.040151	1.030031	-0.000122
 745	7.4028e+01	10.3489	44.553830	0.000385	3.850857	1.304706	-0.000154
 746	7.4127e+01	10.3040	44.388307	0.000415	4.154873	1.407709	-0.000166
 747	7.4227e+01	10.2559	44.234896	0.000385	3.850857	1.304706	-0.000154
 748	7.4326e+01	10.2206	44.061299	0.000436	4.357549	1.476378	-0.000174
 749	7.4426e+01	10.1869	43.920000	0.000355	3.546842	1.201703	-0.000142
 750	7.4525e+01	10.1516	43.819071	0.000253	2.533459	0.858359	-0.000101
 751	7.4625e+01	10.1019	43.673734	0.000365	3.648181	1.236037	-0.000146
 752	7.4725e+01	10.0601	43.483989	0.000476	4.762903	1.613715	-0.000191
 753	7.4824e+01	10.0216	43.374986	0.000274	2.736136	0.927028	-0.000110
 754	7.4924e+01	9.9815	43.173130	0.000507	5.066918	1.716718	-0.000203
 755	7.5023e+01	9.9398	43.088350	0.000213	2.128105	0.721022	-0.000085
 756	7.5123e+01	9.9061	42.951087	0.000345	3.445504	1.167368	-0.000138
 757	7.5222e+01	9.8644	42.785565	0.000415	4.154873	1.407709	-0.000166
 758	7.5322e+01	9.8259	42.632153	0.000385	3.850857	1.304706	-0.000154
 759	7.5421e+01	9.7922	42.494891	0.000345	3.445504	1.167368	-0.000138
 760	7.5520e+01	9.7409	42.301108	0.000486	4.864241	1.648049	-0.000195
 761	7.5620e+01	9.7056	42.179994	0.000304	3.040151	1.030031	-0.000122
 762	7.5719e+01	9.6655	42.010434	0.000426	4.256211	1.442043	-0.000170
 763	7.5819e+01	9.6254	41.937766	0.000182	1.824090	0.618019	-0.000073
 764	7.5918e+01	9.5853	41.768206	0.000426	4.256211	1.442043	-0.000170
 765	7.6018e+01	9.5468	41.606721	0.000405	4.053534	1.373375	-0.000162
 766	7.6118e+01	9.5115	41.453310	0.000385	3.850857	1.304706	-0.000154
 767	7.6217e+01	9.4650	41.283750	0.000426	4.256211	1.442043	-0.000170
 768	7.6317e+01	9.4281	41.158599	0.000314	3.141489	1.064365	-0.000126
 769	7.6416e+01	9.3992	41.017299	0.000355	3.546842	1.201703	-0.000142
 770	7.6516e+01	9.3463	40.867925	0.000375	3.749519	1.270371	-0.000150
 771	7.6615e+01	9.3174	40.678180	0.000476	4.762903	1.613715	-0.000191
 772	7.6715e+01	9.2644	40.561103	0.000294	2.938812	0.995697	-0.000118
 773	7.6814e+01	9.2324	40.456137	0.000263	2.634797	0.892693	-0.000105
 774	7.6913e+01	9.1874	40.278503	0.000446	4.458888	1.510712	-0.000179
 775	7.7013e+01	9.1425	40.064535	0.000537	5.370933	1.819721	-0.000215
 776	7.7112e+01	9.1040	39.935347	0.000324	3.242827	1.098700	-0.000130
 777	7.7212e+01	9.0687	39.798084	0.000345	3.445504	1.167368	-0.000138
 778	7.7311e+01	9.0222	39.648710	0.000375	3.749519	1.270371	-0.000150
 779	7.7411e+01	8.9997	39.519522	0.000324	3.242827	1.098700	-0.000130
 780	7.7510e+01	8.9436	39.366111	0.000385	3.850857	1.304706	-0.000154
 781	7.7610e+01	8.9099	39.188477	0.000446	4.458888	1.510712	-0.000179
 782	7.7710e+01	8.8826	39.043140	0.000365	3.648181	1.236037	-0.000146
 783	7.7809e+01	8.8265	38.877617	0.000415	4.154873	1.407709	-0.000166
 784	7.7909e+01	8.7912	38.760540	0.000294	2.938812	0.995697	-0.000118
 785	7.8008e+01	8.7431	38.586943	0.000436	4.357549	1.476378	-0.000174
 786	7.8108e+01	8.7094	38.445644	0.000355	3.546842	1.201703	-0.000142
 787	7.8207e+01	8.6693	38.292232	0.000385	3.850857	1.304706	-0.000154
 788	7.8306e+01	8.6324	38.171118	0.000304	3.040151	1.030031	-0.000122
 789	7.8406e+01	8.5859	37.989447	0.000456	4.560226	1.545046	-0.000183
 790	7.8505e+01	8.5522	37.864296	0.000314	3.141489	1.064365	-0.000126
 791	7.8605e+01	8.5056	37.654365	0.000527	5.269594	1.785387	-0.000211
 792	7.8704e+01	8.4703	37.549399	0.000263	2.634797	0.892693	-0.000105
 793	7.8804e+01	8.4367	37.371766	0.000446	4.458888	1.510712	-0.000179
 794	7.8903e+01	8.3869	37.214317	0.000395	3.952196	1.339040	-0.000158
 795	7.9003e+01	8.3532	37.032646	0.000456	4.560226	1.545046	-0.000183
 796	7.9103e+01	8.3131	36.887309	0.000365	3.648181	1.236037	-0.000146
 797	7.9202e+01	8.2666	36.725824	0.000405	4.053534	1.373375	-0.000162
 798	7.9302e+01	8.2169	36.576450	0.000375	3.749519	1.270371	-0.000150
 799	7.9401e+01	8.1896	36.471484	0.000263	2.634797	0.892693	-0.000105
 800	7.9501e+01	8.1527	36.318073	0.000385	3.850857	1.304706	-0.000154
 801	7.9600e+01	8.1174	36.160625	0.000395	3.952196	1.339040	-0.000158
 802	7.9700e+01	8.0725	35.991065	0.000426	4.256211	1.442043	-0.000170
 803	7.9799e+01	8.0340	35.837654	0.000385	3.850857	1.304706	-0.000154
 804	7.9898e+01	7.9923	35.660020	0.000446	4.458888	1.510712	-0.000179
 805	7.9998e+01	7.9474	35.490460	0.000426	4.256211	1.442043	-0.000170
 806	8.0097e+01	7.9121	35.353198	0.000345	3.445504	1.167368	-0.000138
 807	8.0197e+01	7.8768	35.207861	0.000365	3.648181	1.236037	-0.000146
 808	8.0296e+01	7.8238	35.062524	0.000365	3.648181	1.236037	-0.000146
 809	8.0396e+01	7.7918	34.888927	0.000436	4.357549	1.476378	-0.000174
 810	8.0496e+01	7.7500	34.695145	0.000486	4.864241	1.648049	-0.000195
 811	8.0595e+01	7.7051	34.569993	0.000314	3.141489	1.064365	-0.000126
 812	8.0695e+01	7.6698	34.444842	0.000314	3.141489	1.064365	-0.000126
 813	8.0794e+01	7.6329	34.275282	0.000426	4.256211	1.442043	-0.000170
 814	8.0894e+01	7.5944	34.089574	0.000466	4.661564	1.579381	-0.000187
 815	8.0993e+01	7.5575	33.952312	0.000345	3.445504	1.167368	-0.000138
 816	8.1093e+01	7.5255	33.802938	0.000375	3.749519	1.270371	-0.000150
 817	8.1192e+01	7.4725	33.633378	0.000426	4.256211	1.442043	-0.000170
 818	8.1291e+01	7.4324	33.463818	0.000426	4.256211	1.442043	-0.000170
 819	8.1391e+01	7.3907	33.306370	0.000395	3.952196	1.339040	-0.000158
 820	8.1490e+01	7.3474	33.193330	0.000284	2.837474	0.961362	-0.000114
 821	8.1590e+01	7.3137	33.019733	0.000436	4.357549	1.476378	-0.000174
 822	8.1689e+01	7.2608	32.858248	0.000405	4.053534	1.373375	-0.000162
 823	8.1789e+01	7.2335	32.668502	0.000476	4.762903	1.613715	-0.000191
 824	8.1888e+01	7.1934	32.527203	0.000355	3.546842	1.201703	-0.000142
 825	8.1988e+01	7.1565	32.410126	0.000294	2.938812	0.995697	-0.000118
 826	8.2088e+01	7.1164	32.240566	0.000426	4.256211	1.442043	-0.000170
 827	8.2187e+01	7.0779	32.022561	0.000547	5.472271	1.854056	-0.000219
 828	8.2287e+01	7.0394	31.913558	0.000274	2.736136	0.927028	-0.000110
 829	8.2386e+01	6.9929	31.756110	0.000395	3.952196	1.339040	-0.000158
 830	8.2486e+01	6.9592	31.582513	0.000436	4.357549	1.476378	-0.000174
 831	8.2585e+01	6.9078	31.416990	0.000415	4.154873	1.407709	-0.000166
 832	8.2684e+01	6.8677	31.271653	0.000365	3.648181	1.236037	-0.000146
 833	8.2784e+01	6.8372	31.138428	0.000334	3.344166	1.133034	-0.000134
 834	8.2883e+01	6.8003	30.948683	0.000476	4.762903	1.613715	-0.000191
 835	8.2983e+01	6.7490	30.787197	0.000405	4.053534	1.373375	-0.000162
 836	8.3082e+01	6.7153	30.625712	0.000405	4.053534	1.373375	-0.000162
 837	8.3182e+01	6.6800	30.488449	0.000345	3.445504	1.167368	-0.000138
 838	8.3281e+01	6.6351	30.286592	0.000507	5.066918	1.716718	-0.000203
 839	8.3381e+01	6.5998	30.117033	0.000426	4.256211	1.442043	-0.000170
 840	8.3481e+01	6.5565	29.999956	0.000294	2.938812	0.995697	-0.000118
 841	8.3580e+01	6.5132	29.826359	0.000436	4.357549	1.476378	-0.000174
 842	8.3680e+01	6.4827	29.713319	0.000284	2.837474	0.961362	-0.000114
 843	8.3779e+01	6.4314	29.507425	0.000517	5.168256	1.751053	-0.000207
 844	8.3879e+01	6.3945	29.358051	0.000375	3.749519	1.270371	-0.000150
 845	8.3978e+01	6.3640	29.164269	0.000486	4.864241	1.648049	-0.000195
 846	8.4078e+01	6.3223	29.031043	0.000334	3.344166	1.133034	-0.000134
 847	8.4177e+01	6.2742	28.841298	0.000476	4.762903	1.613715	-0.000191
 848	8.4276e+01	6.2405	28.695961	0.000365	3.648181	1.236037	-0.000146
 849	8.4376e+01	6.2020	28.542550	0.000385	3.850857	1.304706	-0.000154
 850	8.4475e+01	6.1683	28.356841	0.000466	4.661564	1.579381	-0.000187
 851	8.4575e+01	6.1201	28.211505	0.000365	3.648181	1.236037	-0.000146
 852	8.4674e+01	6.0784	28.058093	0.000385	3.850857	1.304706	-0.000154
 853	8.4774e+01	6.0367	27.908719	0.000375	3.749519	1.270371	-0.000150
 854	8.4874e+01	6.0030	27.731085	0.000446	4.458888	1.510712	-0.000179
 855	8.4973e+01	5.9565	27.589786	0.000355	3.546842	1.201703	-0.000142
 856	8.5073e+01	5.9276	27.400040	0.000476	4.762903	1.613715	-0.000191
 857	8.5172e+01	5.8763	27.278926	0.000304	3.040151	1.030031	-0.000122
 858	8.5272e+01	5.8362	27.077069	0.000507	5.066918	1.716718	-0.000203
 859	8.5371e+01	5.8057	26.923658	0.000385	3.850857	1.304706	-0.000154
 860	8.5471e+01	5.7704	26.754099	0.000426	4.256211	1.442043	-0.000170
 861	8.5570e+01	5.7239	26.612799	0.000355	3.546842	1.201703	-0.000142
 862	8.5669e+01	5.6918	26.455350	0.000395	3.952196	1.339040	-0.000158
 863	8.5769e+01	5.6421	26.265605	0.000476	4.762903	1.613715	-0.000191
 864	8.5868e+01	5.5988	26.104120	0.000405	4.053534	1.373375	-0.000162
 865	8.5968e+01	5.5619	25.983006	0.000304	3.040151	1.030031	-0.000122
 866	8.6067e+01	5.5282	25.748852	0.000588	5.877625	1.991393	-0.000235
 867	8.6167e+01	5.4833	25.615626	0.000334	3.344166	1.133034	-0.000134
 868	8.6266e+01	5.4367	25.454141	0.000405	4.053534	1.373375	-0.000162
 869	8.6366e+01	5.4031	25.324952	0.000324	3.242827	1.098700	-0.000130
 870	8.6466e+01	5.3678	25.151356	0.000436	4.357549	1.476378	-0.000174
 871	8.6565e+01	5.3196	24.997944	0.000385	3.850857	1.304706	-0.000154
 872	8.6665e+01	5.2908	24.848570	0.000375	3.749519	1.270371	-0.000150
 873	8.6764e+01	5.2571	24.670936	0.000446	4.458888	1.510712	-0.000179
 874	8.6864e+01	5.2105	24.501377	0.000426	4.256211	1.442043	-0.000170
 875	8.6963e+01	5.1624	24.356040	0.000365	3.648181	1.236037	-0.000146
 876	8.7063e+01	5.1255	24.166295	0.000476	4.762903	1.613715	-0.000191
 877	8.7162e+01	5.0934	23.976549	0.000476	4.762903	1.613715	-0.000191
 878	8.7261e+01	5.0453	23.839287	0.000345	3.445504	1.167368	-0.000138
 879	8.7361e+01	5.0132	23.693950	0.000365	3.648181	1.236037	-0.000146
 880	8.7460e+01	4.9667	23.548613	0.000365	3.648181	1.236037	-0.000146
 881	8.7560e+01	4.9218	23.387127	0.000405	4.053534	1.373375	-0.000162
 882	8.7659e+01	4.8849	23.185271	0.000507	5.066918	1.716718	-0.000203
 883	8.7759e+01	4.8416	23.088379	0.000243	2.432121	0.824025	-0.000097
 884	8.7859e+01	4.8143	22.910745	0.000446	4.458888	1.510712	-0.000179
 885	8.7958e+01	4.7566	22.769446	0.000355	3.546842	1.201703	-0.000142
 886	8.8058e+01	4.7245	22.563552	0.000517	5.168256	1.751053	-0.000207
 887	8.8157e+01	4.6812	22.373806	0.000476	4.762903	1.613715	-0.000191
 888	8.8257e+01	4.6378	22.301138	0.000182	1.824090	0.618019	-0.000073
 889	8.8356e+01	4.6090	22.111392	0.000476	4.762903	1.613715	-0.000191
 890	8.8456e+01	4.5721	21.925684	0.000466	4.661564	1.579381	-0.000187
 891	8.8555e+01	4.5271	21.788422	0.000345	3.445504	1.167368	-0.000138
 892	8.8654e+01	4.4854	21.651159	0.000345	3.445504	1.167368	-0.000138
 893	8.8754e+01	4.4534	21.461414	0.000476	4.762903	1.613715	-0.000191
 894	8.8853e+01	4.4036	21.283780	0.000446	4.458888	1.510712	-0.000179
 895	8.8953e+01	4.3587	21.174777	0.000274	2.736136	0.927028	-0.000110
 896	8.9052e+01	4.3346	20.985032	0.000476	4.762903	1.613715	-0.000191
 897	8.9152e+01	4.2785	20.807398	0.000446	4.458888	1.510712	-0.000179
 898	8.9251e+01	4.2464	20.670135	0.000345	3.445504	1.167368	-0.000138
 899	8.9351e+01	4.2095	20.484427	0.000466	4.661564	1.579381	-0.000187
 900	8.9451e+01	4.1630	20.322941	0.000405	4.053534	1.373375	-0.000162
 901	8.9550e+01	4.1277	20.193753	0.000324	3.242827	1.098700	-0.000130
 902	8.9650e+01	4.0844	20.012082	0.000456	4.560226	1.545046	-0.000183
 903	8.9749e+01	4.0411	19.878856	0.000334	3.344166	1.133034	-0.000134
 904	8.9849e+01	4.0090	19.717371	0.000405	4.053534	1.373375	-0.000162
 905	8.9948e+01	3.9705	19.539737	0.000446	4.458888	1.510712	-0.000179
 906	9.0047e+01	3.9320	19.406511	0.000334	3.344166	1.133034	-0.000134
 907	9.0147e+01	3.8903	19.232915	0.000436	4.357549	1.476378	-0.000174
 908	9.0246e+01	3.8453	19.055281	0.000446	4.458888	1.510712	-0.000179
 909	9.0346e+01	3.8084	18.942241	0.000284	2.837474	0.961362	-0.000114
 910	9.0445e+01	3.7603	18.724236	0.000547	5.472271	1.854056	-0.000219
 911	9.0545e+01	3.7282	18.570824	0.000385	3.850857	1.304706	-0.000154
 912	9.0644e+01	3.6929	18.405302	0.000415	4.154873	1.407709	-0.000166
 913	9.0744e+01	3.6432	18.243816	0.000405	4.053534	1.373375	-0.000162
 914	9.0844e+01	3.6047	18.074257	0.000426	4.256211	1.442043	-0.000170
 915	9.0943e+01	3.5742	17.945068	0.000324	3.242827	1.098700	-0.000130
 916	9.1043e+01	3.5325	17.779546	0.000415	4.154873	1.407709	-0.000166
 917	9.1142e+01	3.4892	17.650357	0.000324	3.242827	1.098700	-0.000130
 918	9.1242e+01	3.4571	17.468686	0.000456	4.560226	1.545046	-0.000183
 919	9.1341e+01	3.4106	17.315275	0.000385	3.850857	1.304706	-0.000154
 920	9.1441e+01	3.3769	17.141678	0.000436	4.357549	1.476378	-0.000174
 921	9.1540e+01	3.3272	16.972119	0.000426	4.256211	1.442043	-0.000170
 922	9.1639e+01	3.2983	16.806596	0.000415	4.154873	1.407709	-0.000166
 923	9.1739e+01	3.2518	16.685482	0.000304	3.040151	1.030031	-0.000122
 924	9.1838e+01	3.2117	16.519959	0.000415	4.154873	1.407709	-0.000166
 925	9.1938e+01	3.1571	16.305991	0.000537	5.370933	1.819721	-0.000215
 926	9.2037e+01	3.1331	16.156617	0.000375	3.749519	1.270371	-0.000150
 927	9.2137e+01	3.0898	16.059726	0.000243	2.432121	0.824025	-0.000097
 928	9.2237e+01	3.0496	15.833646	0.000567	5.674948	1.922724	-0.000227
 929	9.2336e+01	3.0095	15.732718	0.000253	2.533459	0.858359	-0.000101
 930	9.2436e+01	2.9742	15.538935	0.000486	4.864241	1.648049	-0.000195
 931	9.2535e+01	2.9293	15.393599	0.000365	3.648181	1.236037	-0.000146
 932	9.2635e+01	2.8908	15.260373	0.000334	3.344166	1.133034	-0.000134
 933	9.2734e+01	2.8523	15.050442	0.000527	5.269594	1.785387	-0.000211
 934	9.2834e+01	2.8170	14.876845	0.000436	4.357549	1.476378	-0.000174
 935	9.2933e+01	2.7737	14.763805	0.000284	2.837474	0.961362	-0.000114
 936	9.3032e+01	2.7272	14.598283	0.000415	4.154873	1.407709	-0.000166
 937	9.3132e+01	2.6983	14.440835	0.000395	3.952196	1.339040	-0.000158
 938	9.3231e+01	2.6502	14.291461	0.000375	3.749519	1.270371	-0.000150
 939	9.3331e+01	2.6101	14.097678	0.000486	4.864241	1.648049	-0.000195
 940	9.3430e+01	2.5780	13.968490	0.000324	3.242827	1.098700	-0.000130
 941	9.3530e+01	2.5363	13.782781	0.000466	4.661564	1.579381	-0.000187
 942	9.3629e+01	2.4914	13.649556	0.000334	3.344166	1.133034	-0.000134
 943	9.3729e+01	2.4449	13.479996	0.000426	4.256211	1.442043	-0.000170
 944	9.3829e+01	2.4160	13.318511	0.000405	4.053534	1.373375	-0.000162
 945	9.3928e+01	2.3807	13.157025	0.000405	4.053534	1.373375	-0.000162
 946	9.4028e+01	2.3390	13.007651	0.000375	3.749519	1.270371	-0.000150
 947	9.4127e+01	2.2924	12.817906	0.000476	4.762903	1.613715	-0.000191
 948	9.4227e+01	2.2523	12.696792	0.000304	3.040151	1.030031	-0.000122
 949	9.4326e+01	2.2170	12.519158	0.000446	4.458888	1.510712	-0.000179
 950	9.4425e+01	2.1802	12.373821	0.000365	3.648181	1.236037	-0.000146
 951	9.4525e+01	2.1352	12.184076	0.000476	4.762903	1.613715	-0.000191
 952	9.4624e+01	2.0919	12.026627	0.000395	3.952196	1.339040	-0.000158
 953	9.4724e+01	2.0695	11.873216	0.000385	3.850857	1.304706	-0.000154
 954	9.4823e+01	2.0117	11.760176	0.000284	2.837474	0.961362	-0.000114
 955	9.4923e+01	1.9828	11.574468	0.000466	4.661564	1.579381	-0.000187
 956	9.5022e+01	1.9395	11.384723	0.000476	4.762903	1.613715	-0.000191
 957	9.5122e+01	1.9010	11.239386	0.000365	3.648181	1.236037	-0.000146
 958	9.5222e+01	1.8641	11.045603	0.000486	4.864241	1.648049	-0.000195
 959	9.5321e+01	1.8192	10.900266	0.000365	3.648181	1.236037	-0.000146
 960	9.5421e+01	1.7727	10.754930	0.000365	3.648181	1.236037	-0.000146
 961	9.5520e+01	1.7342	10.557110	0.000497	4.965579	1.682384	-0.000199
 962	9.5620e+01	1.6989	10.391587	0.000415	4.154873	1.407709	-0.000166
 963	9.5719e+01	1.6588	10.246251	0.000365	3.648181	1.236037	-0.000146
 964	9.5819e+01	1.6235	10.064579	0.000456	4.560226	1.545046	-0.000183
 965	9.5918e+01	1.5770	9.882908	0.000456	4.560226	1.545046	-0.000183
 966	9.6017e+01	1.5465	9.761794	0.000304	3.040151	1.030031	-0.000122
 967	9.6117e+01	1.5032	9.612420	0.000375	3.749519	1.270371	-0.000150
 968	9.6216e+01	1.4566	9.410563	0.000507	5.066918	1.716718	-0.000203
 969	9.6316e+01	1.4165	9.253115	0.000395	3.952196	1.339040	-0.000158
 970	9.6415e+01	1.3780	9.111815	0.000355	3.546842	1.201703	-0.000142
 971	9.6515e+01	1.3427	8.942256	0.000426	4.256211	1.442043	-0.000170
 972	9.6615e+01	1.2978	8.772696	0.000426	4.256211	1.442043	-0.000170
 973	9.6714e+01	1.2625	8.578913	0.000486	4.864241	1.648049	-0.000195
 974	9.6814e+01	1.2176	8.417428	0.000405	4.053534	1.373375	-0.000162
 975	9.6913e+01	1.1727	8.251905	0.000415	4.154873	1.407709	-0.000166
 976	9.7013e+01	1.1342	8.082346	0.000426	4.256211	1.442043	-0.000170
 977	9.7112e+01	1.0973	7.949120	0.000334	3.344166	1.133034	-0.000134
 978	9.7212e+01	1.0636	7.815895	0.000334	3.344166	1.133034	-0.000134
 979	9.7311e+01	1.0251	7.642298	0.000436	4.357549	1.476378	-0.000174
 980	9.7410e+01	0.9818	7.472738	0.000426	4.256211	1.442043	-0.000170
 981	9.7510e+01	0.9353	7.315290	0.000395	3.952196	1.339040	-0.000158
 982	9.7609e+01	0.8871	7.125545	0.000476	4.762903	1.613715	-0.000191
 983	9.7709e+01	0.8583	6.988282	0.000345	3.445504	1.167368	-0.000138
 984	9.7808e+01	0.8214	6.782388	0.000517	5.168256	1.751053	-0.000207
 985	9.7908e+01	0.7748	6.645125	0.000345	3.445504	1.167368	-0.000138
 986	9.8007e+01	0.7476	6.499789	0.000365	3.648181	1.236037	-0.000146
 987	9.8107e+01	0.6978	6.289857	0.000527	5.269594	1.785387	-0.000211
 988	9.8207e+01	0.6625	6.096075	0.000486	4.864241	1.648049	-0.000195
 989	9.8306e+01	0.6305	5.958812	0.000345	3.445504	1.167368	-0.000138
 990	9.8406e+01	0.5791	5.777141	0.000456	4.560226	1.545046	-0.000183
 991	9.8505e+01	0.5406	5.700436	0.000193	1.925429	0.652353	-0.000077
 992	9.8605e+01	0.4973	5.494542	0.000517	5.168256	1.751053	-0.000207
 993	9.8704e+01	0.4604	5.337093	0.000395	3.952196	1.339040	-0.000158
 994	9.8803e+01	0.4235	5.175608	0.000405	4.053534	1.373375	-0.000162
 995	9.8903e+01	0.3866	4.973751	0.000507	5.066918	1.716718	-0.000203
 996	9.9002e+01	0.3433	4.816303	0.000395	3.952196	1.339040	-0.000158
 997	9.9102e+01	0.3064	4.670966	0.000365	3.648181	1.236037	-0.000146
 998	9.9201e+01	0.2567	4.509481	0.000405	4.053534	1.373375	-0.000162
 999	9.9301e+01	0.2230	4.339921	0.000426	4.256211	1.442043	-0.000170
1000	9.9400e+01	0.1813	4.150176	0.000476	4.762903	1.613715	-0.000191
1001	9.9500e+01	0.1412	3.996764	0.000385	3.850857	1.304706	-0.000154
1002	9.9600e+01	0.0963	3.790870	0.000517	5.168256	1.751053	-0.000207
1003	9.9699e+01	0.0658	3.681868	0.000274	2.736136	0.927028	-0.000110
1004	9.9799e+01	0.0353	3.500197	0.000456	4.560226	1.545046	-0.000183
1005	9.9898e+01	-0.0032	3.366971	0.000334	3.344166	1.133034	-0.000134
1006	9.9998e+01	-0.0529	3.161077	0.000517	5.168256	1.751053	-0.000207
1007	1.0010e+02	-0.0850	3.056112	0.000263	2.634797	0.892693	-0.000105
1008	1.0020e+02	-0.1267	2.914812	0.000355	3.546842	1.201703	-0.000142
1009	1.0030e+02	-0.1717	2.716992	0.000497	4.965579	1.682384	-0.000199
1010	1.0040e+02	-0.2102	2.575693	0.000355	3.546842	1.201703	-0.000142
1011	1.0050e+02	-0.2487	2.373836	0.000507	5.066918	1.716718	-0.000203
1012	1.0059e+02	-0.2856	2.232536	0.000355	3.546842	1.201703	-0.000142
1013	1.0069e+02	-0.3257	2.071051	0.000405	4.053534	1.373375	-0.000162
1014	1.0079e+02	-0.3642	1.929751	0.000355	3.546842	1.201703	-0.000142
1015	1.0089e+02	-0.4059	1.719820	0.000527	5.269594	1.785387	-0.000211
1016	1.0099e+02	-0.4492	1.538149	0.000456	4.560226	1.545046	-0.000183
1017	1.0109e+02	-0.4925	1.396849	0.000355	3.546842	1.201703	-0.000142
1018	1.0119e+02	-0.5278	1.239401	0.000395	3.952196	1.339040	-0.000158
1019	1.0129e+02	-0.5663	1.110212	0.000324	3.242827	1.098700	-0.000130
1020	1.0139e+02	-0.6080	0.920467	0.000476	4.762903	1.613715	-0.000191
1021	1.0149e+02	-0.6465	0.742833	0.000446	4.458888	1.510712	-0.000179
1022	1.0159e+02	-0.6786	0.557125	0.000466	4.661564	1.579381	-0.000187
1023	1.0169e+02	-0.7283	0.403714	0.000385	3.850857	1.304706	-0.000154
1024	1.0179e+02	-0.7588	0.234154	0.000426	4.256211	1.442043	-0.000170
1025	1.0189e+02	-0.8053	0.080743	0.000385	3.850857	1.304706	-0.000154
1026	1.0199e+02	-0.8470	-0.088817	0.000426	4.256211	1.442043	-0.000170
1027	1.0209e+02	-0.8807	-0.254340	0.000415	4.154873	1.407709	-0.000166
1028	1.0219e+02	-0.9305	-0.431974	0.000446	4.458888	1.510712	-0.000179
1029	1.0229e+02	-0.9738	-0.597496	0.000415	4.154873	1.407709	-0.000166
1030	1.0239e+02	-1.0091	-0.750907	0.000385	3.850857	1.304706	-0.000154
1031	1.0248e+02	-1.0476	-0.928541	0.000446	4.458888	1.510712	-0.000179
1032	1.0258e+02	-1.0829	-1.069841	0.000355	3.546842	1.201703	-0.000142
1033	1.0268e+02	-1.1198	-1.263623	0.000486	4.864241	1.648049	-0.000195
1034	1.0278e+02	-1.1663	-1.380700	0.000294	2.938812	0.995697	-0.000118
1035	1.0288e+02	-1.2080	-1.586594	0.000517	5.168256	1.751053	-0.000207
1036	1.0298e+02	-1.2465	-1.711746	0.000314	3.141489	1.064365	-0.000126
1037	1.0308e+02	-1.2866	-1.881305	0.000426	4.256211	1.442043	-0.000170
1038	1.0318e+02	-1.3219	-2.034716	0.000385	3.850857	1.304706	-0.000154
1039	1.0328e+02	-1.3636	-2.232536	0.000497	4.965579	1.682384	-0.000199
1040	1.0338e+02	-1.4069	-2.418244	0.000466	4.661564	1.579381	-0.000187
1041	1.0348e+02	-1.4374	-2.539358	0.000304	3.040151	1.030031	-0.000122
1042	1.0358e+02	-1.4823	-2.729104	0.000476	4.762903	1.613715	-0.000191
1043	1.0368e+02	-1.5240	-2.890589	0.000405	4.053534	1.373375	-0.000162
1044	1.0378e+02	-1.5673	-3.027852	0.000345	3.445504	1.167368	-0.000138
1045	1.0388e+02	-1.6010	-3.173189	0.000365	3.648181	1.236037	-0.000146
1046	1.0398e+02	-1.6411	-3.334674	0.000405	4.053534	1.373375	-0.000162
1047	1.0408e+02	-1.6844	-3.492122	0.000395	3.952196	1.339040	-0.000158
1048	1.0418e+02	-1.7310	-3.657645	0.000415	4.154873	1.407709	-0.000166
1049	1.0428e+02	-1.7614	-3.847390	0.000476	4.762903	1.613715	-0.000191
1050	1.0438e+02	-1.8112	-3.984653	0.000345	3.445504	1.167368	-0.000138
1051	1.0447e+02	-1.8465	-4.142101	0.000395	3.952196	1.339040	-0.000158
1052	1.0457e+02	-1.8866	-4.319735	0.000446	4.458888	1.510712	-0.000179
1053	1.0467e+02	-1.9267	-4.513518	0.000486	4.864241	1.648049	-0.000195
1054	1.0477e+02	-1.9684	-4.614446	0.000253	2.533459	0.858359	-0.000101
1055	1.0487e+02	-2.0021	-4.800154	0.000466	4.661564	1.579381	-0.000187
1056	1.0497e+02	-2.0406	-4.941454	0.000355	3.546842	1.201703	-0.000142
1057	1.0507e+02	-2.0839	-5.135237	0.000486	4.864241	1.648049	-0.000195
1058	1.0517e+02	-2.1192	-5.260388	0.000314	3.141489	1.064365	-0.000126
1059	1.0527e+02	-2.1577	-5.409762	0.000375	3.749519	1.270371	-0.000150
1060	1.0537e+02	-2.2026	-5.635841	0.000567	5.674948	1.922724	-0.000227
1061	1.0547e+02	-2.2363	-5.765030	0.000324	3.242827	1.098700	-0.000130
1062	1.0557e+02	-2.2876	-5.906330	0.000355	3.546842	1.201703	-0.000142
1063	1.0567e+02	-2.3197	-6.096075	0.000476	4.762903	1.613715	-0.000191
1064	1.0577e+02	-2.3598	-6.241412	0.000365	3.648181	1.236037	-0.000146
1065	1.0587e+02	-2.3999	-6.374637	0.000334	3.344166	1.133034	-0.000134
1066	1.0597e+02	-2.4400	-6.544197	0.000426	4.256211	1.442043	-0.000170
1067	1.0607e+02	-2.4850	-6.713757	0.000426	4.256211	1.442043	-0.000170
1068	1.0617e+02	-2.5202	-6.855056	0.000355	3.546842	1.201703	-0.000142
1069	1.0627e+02	-2.5620	-7.044802	0.000476	4.762903	1.613715	-0.000191
1070	1.0637e+02	-2.6069	-7.210324	0.000415	4.154873	1.407709	-0.000166
1071	1.0647e+02	-2.6406	-7.335476	0.000314	3.141489	1.064365	-0.000126
1072	1.0656e+02	-2.6759	-7.468701	0.000334	3.344166	1.133034	-0.000134
1073	1.0666e+02	-2.7224	-7.654409	0.000466	4.661564	1.579381	-0.000187
1074	1.0676e+02	-2.7609	-7.811858	0.000395	3.952196	1.339040	-0.000158
1075	1.0686e+02	-2.7994	-7.981417	0.000426	4.256211	1.442043	-0.000170
1076	1.0696e+02	-2.8411	-8.142903	0.000405	4.053534	1.373375	-0.000162
1077	1.0706e+02	-2.8828	-8.259980	0.000294	2.938812	0.995697	-0.000118
1078	1.0716e+02	-2.9181	-8.465874	0.000517	5.168256	1.751053	-0.000207
1079	1.0726e+02	-2.9534	-8.647545	0.000456	4.560226	1.545046	-0.000183
1080	1.0736e+02	-2.9983	-8.768659	0.000304	3.040151	1.030031	-0.000122
1081	1.0746e+02	-3.0416	-8.918033	0.000375	3.749519	1.270371	-0.000150
1082	1.0756e+02	-3.0801	-9.067407	0.000375	3.749519	1.270371	-0.000150
1083	1.0766e+02	-3.1154	-9.224855	0.000395	3.952196	1.339040	-0.000158
1084	1.0776e+02	-3.1475	-9.398452	0.000436	4.357549	1.476378	-0.000174
1085	1.0786e+02	-3.2020	-9.539752	0.000355	3.546842	1.201703	-0.000142
1086	1.0796e+02	-3.2438	-9.721423	0.000456	4.560226	1.545046	-0.000183
1087	1.0806e+02	-3.2646	-9.862723	0.000355	3.546842	1.201703	-0.000142
1088	1.0816e+02	-3.3111	-10.004022	0.000355	3.546842	1.201703	-0.000142
1089	1.0826e+02	-3.3528	-10.153396	0.000375	3.749519	1.270371	-0.000150
1090	1.0836e+02	-3.3994	-10.339105	0.000466	4.661564	1.579381	-0.000187
1091	1.0845e+02	-3.4379	-10.448107	0.000274	2.736136	0.927028	-0.000110
1092	1.0855e+02	-3.4828	-10.581333	0.000334	3.344166	1.133034	-0.000134
1093	1.0865e+02	-3.5117	-10.754930	0.000436	4.357549	1.476378	-0.000174
1094	1.0875e+02	-3.5598	-10.944675	0.000476	4.762903	1.613715	-0.000191
1095	1.0885e+02	-3.5967	-11.094049	0.000375	3.749519	1.270371	-0.000150
1096	1.0895e+02	-3.6352	-11.231312	0.000345	3.445504	1.167368	-0.000138
1097	1.0905e+02	-3.6737	-11.417020	0.000466	4.661564	1.579381	-0.000187
1098	1.0915e+02	-3.7074	-11.546208	0.000324	3.242827	1.098700	-0.000130
1099	1.0925e+02	-3.7507	-11.748065	0.000507	5.066918	1.716718	-0.000203
1100	1.0935e+02	-3.8068	-11.877253	0.000324	3.242827	1.098700	-0.000130
1101	1.0945e+02	-3.8325	-12.042776	0.000415	4.154873	1.407709	-0.000166
1102	1.0955e+02	-3.8806	-12.204261	0.000405	4.053534	1.373375	-0.000162
1103	1.0965e+02	-3.9047	-12.333450	0.000324	3.242827	1.098700	-0.000130
1104	1.0975e+02	-3.9464	-12.482824	0.000375	3.749519	1.270371	-0.000150
1105	1.0985e+02	-3.9897	-12.660458	0.000446	4.458888	1.510712	-0.000179
1106	1.0995e+02	-4.0330	-12.785609	0.000314	3.141489	1.064365	-0.000126
1107	1.1005e+02	-4.0764	-12.975354	0.000476	4.762903	1.613715	-0.000191
1108	1.1015e+02	-4.1084	-13.092431	0.000294	2.938812	0.995697	-0.000118
1109	1.1025e+02	-4.1534	-13.270065	0.000446	4.458888	1.510712	-0.000179
1110	1.1035e+02	-4.1999	-13.427513	0.000395	3.952196	1.339040	-0.000158
1111	1.1044e+02	-4.2304	-13.536516	0.000274	2.736136	0.927028	-0.000110
1112	1.1054e+02	-4.2689	-13.710113	0.000436	4.357549	1.476378	-0.000174
1113	1.1064e+02	-4.3106	-13.867561	0.000395	3.952196	1.339040	-0.000158
1114	1.1074e+02	-4.3555	-14.029047	0.000405	4.053534	1.373375	-0.000162
1115	1.1084e+02	-4.4004	-14.174384	0.000365	3.648181	1.236037	-0.000146
1116	1.1094e+02	-4.4389	-14.303572	0.000324	3.242827	1.098700	-0.000130
1117	1.1104e+02	-4.4678	-14.465057	0.000405	4.053534	1.373375	-0.000162
1118	1.1114e+02	-4.5159	-14.638654	0.000436	4.357549	1.476378	-0.000174
1119	1.1124e+02	-4.5624	-14.840511	0.000507	5.066918	1.716718	-0.000203
1120	1.1134e+02	-4.5897	-14.937402	0.000243	2.432121	0.824025	-0.000097
1121	1.1144e+02	-4.6282	-15.090813	0.000385	3.850857	1.304706	-0.000154
1122	1.1154e+02	-4.6699	-15.296707	0.000517	5.168256	1.751053	-0.000207
1123	1.1164e+02	-4.7068	-15.413784	0.000294	2.938812	0.995697	-0.000118
1124	1.1174e+02	-4.7533	-15.587381	0.000436	4.357549	1.476378	-0.000174
1125	1.1184e+02	-4.7918	-15.756941	0.000426	4.256211	1.442043	-0.000170
1126	1.1194e+02	-4.8336	-15.890166	0.000334	3.344166	1.133034	-0.000134
1127	1.1204e+02	-4.8769	-16.063763	0.000436	4.357549	1.476378	-0.000174
1128	1.1214e+02	-4.9122	-16.209100	0.000365	3.648181	1.236037	-0.000146
1129	1.1224e+02	-4.9475	-16.330214	0.000304	3.040151	1.030031	-0.000122
1130	1.1234e+02	-4.9844	-16.532071	0.000507	5.066918	1.716718	-0.000203
1131	1.1244e+02	-5.0277	-16.641074	0.000274	2.736136	0.927028	-0.000110
1132	1.1253e+02	-5.0758	-16.794485	0.000385	3.850857	1.304706	-0.000154
1133	1.1263e+02	-5.1143	-16.939822	0.000365	3.648181	1.236037	-0.000146
1134	1.1273e+02	-5.1512	-17.133604	0.000486	4.864241	1.648049	-0.000195
1135	1.1283e+02	-5.1881	-17.303164	0.000426	4.256211	1.442043	-0.000170
1136	1.1293e+02	-5.2218	-17.448501	0.000365	3.648181	1.236037	-0.000146
1137	1.1303e+02	-5.2619	-17.605949	0.000395	3.952196	1.339040	-0.000158
1138	1.1313e+02	-5.3100	-17.743212	0.000345	3.445504	1.167368	-0.000138
1139	1.1323e+02	-5.3517	-17.892586	0.000375	3.749519	1.270371	-0.000150
1140	1.1333e+02	-5.3934	-18.045997	0.000385	3.850857	1.304706	-0.000154
1141	1.1343e+02	-5.4351	-18.231705	0.000466	4.661564	1.579381	-0.000187
1142	1.1353e+02	-5.4720	-18.381079	0.000375	3.749519	1.270371	-0.000150
1143	1.1363e+02	-5.5057	-18.526416	0.000365	3.648181	1.236037	-0.000146
1144	1.1373e+02	-5.5490	-18.671753	0.000365	3.648181	1.236037	-0.000146
1145	1.1383e+02	-5.5875	-18.845350	0.000436	4.357549	1.476378	-0.000174
1146	1.1393e+02	-5.6212	-19.010872	0.000415	4.154873	1.407709	-0.000166
1147	1.1403e+02	-5.6662	-19.148135	0.000345	3.445504	1.167368	-0.000138
1148	1.1413e+02	-5.7030	-19.297509	0.000375	3.749519	1.270371	-0.000150
1149	1.1423e+02	-5.7480	-19.463031	0.000415	4.154873	1.407709	-0.000166
1150	1.1433e+02	-5.7897	-19.648740	0.000466	4.661564	1.579381	-0.000187
1151	1.1442e+02	-5.8218	-19.749668	0.000253	2.533459	0.858359	-0.000101
1152	1.1452e+02	-5.8651	-19.915191	0.000415	4.154873	1.407709	-0.000166
1153	1.1462e+02	-5.9148	-20.060527	0.000365	3.648181	1.236037	-0.000146
1154	1.1472e+02	-5.9549	-20.209902	0.000375	3.749519	1.270371	-0.000150
1155	1.1482e+02	-5.9966	-20.399647	0.000476	4.762903	1.613715	-0.000191
1156	1.1492e+02	-6.0271	-20.516724	0.000294	2.938812	0.995697	-0.000118
1157	1.1502e+02	-6.0688	-20.714543	0.000497	4.965579	1.682384	-0.000199
1158	1.1512e+02	-6.1025	-20.847769	0.000334	3.344166	1.133034	-0.000134
1159	1.1522e+02	-6.1442	-21.005217	0.000395	3.952196	1.339040	-0.000158
1160	1.1532e+02	-6.1891	-21.142480	0.000345	3.445504	1.167368	-0.000138
1161	1.1542e+02	-6.2276	-21.316077	0.000436	4.357549	1.476378	-0.000174
1162	1.1552e+02	-6.2661	-21.469488	0.000385	3.850857	1.304706	-0.000154
1163	1.1562e+02	-6.2998	-21.586565	0.000294	2.938812	0.995697	-0.000118
1164	1.1572e+02	-6.3479	-21.744013	0.000395	3.952196	1.339040	-0.000158
1165	1.1582e+02	-6.3961	-21.917610	0.000436	4.357549	1.476378	-0.000174
1166	1.1592e+02	-6.4250	-22.095244	0.000446	4.458888	1.510712	-0.000179
1167	1.1602e+02	-6.4602	-22.192135	0.000243	2.432121	0.824025	-0.000097
1168	1.1612e+02	-6.5020	-22.357658	0.000415	4.154873	1.407709	-0.000166
1169	1.1622e+02	-6.5453	-22.555477	0.000497	4.965579	1.682384	-0.000199
1170	1.1632e+02	-6.5838	-22.692740	0.000345	3.445504	1.167368	-0.000138
1171	1.1642e+02	-6.6143	-22.842114	0.000375	3.749519	1.270371	-0.000150
1172	1.1651e+02	-6.6608	-23.027822	0.000466	4.661564	1.579381	-0.000187
1173	1.1661e+02	-6.7105	-23.161048	0.000334	3.344166	1.133034	-0.000134
1174	1.1671e+02	-6.7426	-23.282162	0.000304	3.040151	1.030031	-0.000122
1175	1.1681e+02	-6.7795	-23.447684	0.000415	4.154873	1.407709	-0.000166
1176	1.1691e+02	-6.8116	-23.588984	0.000355	3.546842	1.201703	-0.000142
1177	1.1701e+02	-6.8549	-23.750470	0.000405	4.053534	1.373375	-0.000162
1178	1.1711e+02	-6.8998	-23.883695	0.000334	3.344166	1.133034	-0.000134
1179	1.1721e+02	-6.9399	-24.037106	0.000385	3.850857	1.304706	-0.000154
1180	1.1731e+02	-6.9752	-24.210703	0.000436	4.357549	1.476378	-0.000174
1181	1.1741e+02	-7.0233	-24.380263	0.000426	4.256211	1.442043	-0.000170
1182	1.1751e+02	-7.0522	-24.529637	0.000375	3.749519	1.270371	-0.000150
1183	1.1761e+02	-7.0939	-24.670936	0.000355	3.546842	1.201703	-0.000142
1184	1.1771e+02	-7.1453	-24.804162	0.000334	3.344166	1.133034	-0.000134
1185	1.1781e+02	-7.1886	-24.993907	0.000476	4.762903	1.613715	-0.000191
1186	1.1791e+02	-7.2239	-25.123096	0.000324	3.242827	1.098700	-0.000130
1187	1.1801e+02	-7.2656	-25.304767	0.000456	4.560226	1.545046	-0.000183
1188	1.1811e+02	-7.2944	-25.433955	0.000324	3.242827	1.098700	-0.000130
1189	1.1821e+02	-7.3346	-25.611589	0.000446	4.458888	1.510712	-0.000179
1190	1.1831e+02	-7.3779	-25.736740	0.000314	3.141489	1.064365	-0.000126
1191	1.1841e+02	-7.4148	-25.926486	0.000476	4.762903	1.613715	-0.000191
1192	1.1850e+02	-7.4597	-26.035488	0.000274	2.736136	0.927028	-0.000110
1193	1.1860e+02	-7.5110	-26.192937	0.000395	3.952196	1.339040	-0.000158
1194	1.1870e+02	-7.5383	-26.354422	0.000405	4.053534	1.373375	-0.000162
1195	1.1880e+02	-7.5736	-26.536093	0.000456	4.560226	1.545046	-0.000183
1196	1.1890e+02	-7.6153	-26.632984	0.000243	2.432121	0.824025	-0.000097
1197	1.1900e+02	-7.6586	-26.810618	0.000446	4.458888	1.510712	-0.000179
1198	1.1910e+02	-7.7019	-26.984215	0.000436	4.357549	1.476378	-0.000174
1199	1.1920e+02	-7.7404	-27.109366	0.000314	3.141489	1.064365	-0.000126
1200	1.1930e+02	-7.7805	-27.262778	0.000385	3.850857	1.304706	-0.000154
1201	1.1940e+02	-7.8222	-27.412152	0.000375	3.749519	1.270371	-0.000150
1202	1.1950e+02	-7.8559	-27.549414	0.000345	3.445504	1.167368	-0.000138
1203	1.1960e+02	-7.9008	-27.702825	0.000385	3.850857	1.304706	-0.000154
1204	1.1970e+02	-7.9393	-27.864311	0.000405	4.053534	1.373375	-0.000162
1205	1.1980e+02	-7.9714	-27.993499	0.000324	3.242827	1.098700	-0.000130
1206	1.1990e+02	-8.0164	-28.159022	0.000415	4.154873	1.407709	-0.000166
1207	1.2000e+02	-8.0597	-28.344730	0.000466	4.661564	1.579381	-0.000187
1208	1.2010e+02	-8.0934	-28.473918	0.000324	3.242827	1.098700	-0.000130
1209	1.2020e+02	-8.1415	-28.607144	0.000334	3.344166	1.133034	-0.000134
1210	1.2030e+02	-8.1752	-28.756518	0.000375	3.749519	1.270371	-0.000150
1211	1.2039e+02	-8.2185	-28.922040	0.000415	4.154873	1.407709	-0.000166
1212	1.2049e+02	-8.2490	-29.031043	0.000274	2.736136	0.927028	-0.000110
1213	1.2059e+02	-8.3083	-29.184454	0.000385	3.850857	1.304706	-0.000154
1214	1.2069e+02	-8.3388	-29.333828	0.000375	3.749519	1.270371	-0.000150
1215	1.2079e+02	-8.3741	-29.483202	0.000375	3.749519	1.270371	-0.000150
1216	1.2089e+02	-8.4174	-29.636613	0.000385	3.850857	1.304706	-0.000154
1217	1.2099e+02	-8.4655	-29.794062	0.000395	3.952196	1.339040	-0.000158
1218	1.2109e+02	-8.4896	-29.931324	0.000345	3.445504	1.167368	-0.000138
1219	1.2119e+02	-8.5345	-30.096847	0.000415	4.154873	1.407709	-0.000166
1220	1.2129e+02	-8.5666	-30.234110	0.000345	3.445504	1.167368	-0.000138
1221	1.2139e+02	-8.6131	-30.363298	0.000324	3.242827	1.098700	-0.000130
1222	1.2149e+02	-8.6484	-30.492486	0.000324	3.242827	1.098700	-0.000130
1223	1.2159e+02	-8.6965	-30.666083	0.000436	4.357549	1.476378	-0.000174
1224	1.2169e+02	-8.7415	-30.783160	0.000294	2.938812	0.995697	-0.000118
1225	1.2179e+02	-8.7896	-30.960794	0.000446	4.458888	1.510712	-0.000179
1226	1.2189e+02	-8.8153	-31.085945	0.000314	3.141489	1.064365	-0.000126
1227	1.2199e+02	-8.8457	-31.243393	0.000395	3.952196	1.339040	-0.000158
1228	1.2209e+02	-8.8987	-31.372582	0.000324	3.242827	1.098700	-0.000130
1229	1.2219e+02	-8.9372	-31.538104	0.000415	4.154873	1.407709	-0.000166
1230	1.2229e+02	-8.9709	-31.651144	0.000284	2.837474	0.961362	-0.000114
1231	1.2239e+02	-8.9981	-31.816667	0.000415	4.154873	1.407709	-0.000166
1232	1.2248e+02	-9.0607	-31.994301	0.000446	4.458888	1.510712	-0.000179
1233	1.2258e+02	-9.1024	-32.087155	0.000233	2.330782	0.789690	-0.000093
1234	1.2268e+02	-9.1377	-32.212306	0.000314	3.141489	1.064365	-0.000126
1235	1.2278e+02	-9.1842	-32.373791	0.000405	4.053534	1.373375	-0.000162
1236	1.2288e+02	-9.2131	-32.543351	0.000426	4.256211	1.442043	-0.000170
1237	1.2298e+02	-9.2644	-32.704837	0.000405	4.053534	1.373375	-0.000162
1238	1.2308e+02	-9.2869	-32.850174	0.000365	3.648181	1.236037	-0.000146
1239	1.2318e+02	-9.3318	-32.963213	0.000284	2.837474	0.961362	-0.000114
1240	1.2328e+02	-9.3703	-33.096439	0.000334	3.344166	1.133034	-0.000134
1241	1.2338e+02	-9.4088	-33.253887	0.000395	3.952196	1.339040	-0.000158
1242	1.2348e+02	-9.4473	-33.407298	0.000385	3.850857	1.304706	-0.000154
1243	1.2358e+02	-9.4906	-33.520338	0.000284	2.837474	0.961362	-0.000114
1244	1.2368e+02	-9.5275	-33.673749	0.000385	3.850857	1.304706	-0.000154
1245	1.2378e+02	-9.5821	-33.806975	0.000334	3.344166	1.133034	-0.000134
1246	1.2388e+02	-9.6158	-33.968460	0.000405	4.053534	1.373375	-0.000162
1247	1.2398e+02	-9.6495	-34.097648	0.000324	3.242827	1.098700	-0.000130
1248	1.2408e+02	-9.6896	-34.283357	0.000466	4.661564	1.579381	-0.000187
1249	1.2418e+02	-9.7329	-34.384285	0.000253	2.533459	0.858359	-0.000101
1250	1.2428e+02	-9.7746	-34.545771	0.000405	4.053534	1.373375	-0.000162
1251	1.2438e+02	-9.8083	-34.666885	0.000304	3.040151	1.030031	-0.000122
1252	1.2447e+02	-9.8468	-34.816259	0.000375	3.749519	1.270371	-0.000150
1253	1.2457e+02	-9.8837	-34.937373	0.000304	3.040151	1.030031	-0.000122
1254	1.2467e+02	-9.9286	-35.123081	0.000466	4.661564	1.579381	-0.000187
1255	1.2477e+02	-9.9703	-35.248232	0.000314	3.141489	1.064365	-0.000126
1256	1.2487e+02	-10.0184	-35.365309	0.000294	2.938812	0.995697	-0.000118
1257	1.2497e+02	-10.0473	-35.514683	0.000375	3.749519	1.270371	-0.000150
1258	1.2507e+02	-10.0858	-35.643871	0.000324	3.242827	1.098700	-0.000130
1259	1.2517e+02	-10.1339	-35.769023	0.000314	3.141489	1.064365	-0.000126
1260	1.2527e+02	-10.1692	-35.922434	0.000385	3.850857	1.304706	-0.000154
1261	1.2537e+02	-10.2142	-36.035474	0.000284	2.837474	0.961362	-0.000114
1262	1.2547e+02	-10.2494	-36.205033	0.000426	4.256211	1.442043	-0.000170
1263	1.2557e+02	-10.2912	-36.338259	0.000334	3.344166	1.133034	-0.000134
1264	1.2567e+02	-10.3281	-36.499744	0.000405	4.053534	1.373375	-0.000162
1265	1.2577e+02	-10.3649	-36.604710	0.000263	2.634797	0.892693	-0.000105
1266	1.2587e+02	-10.4034	-36.770232	0.000415	4.154873	1.407709	-0.000166
1267	1.2597e+02	-10.4452	-36.895384	0.000314	3.141489	1.064365	-0.000126
1268	1.2607e+02	-10.4949	-37.044758	0.000375	3.749519	1.270371	-0.000150
1269	1.2617e+02	-10.5286	-37.149723	0.000263	2.634797	0.892693	-0.000105
1270	1.2627e+02	-10.5735	-37.343506	0.000486	4.864241	1.648049	-0.000195
1271	1.2636e+02	-10.6072	-37.420211	0.000193	1.925429	0.652353	-0.000077
1272	1.2646e+02	-10.6457	-37.585734	0.000415	4.154873	1.407709	-0.000166
1273	1.2656e+02	-10.6922	-37.731071	0.000365	3.648181	1.236037	-0.000146
1274	1.2666e+02	-10.7243	-37.876407	0.000365	3.648181	1.236037	-0.000146
1275	1.2676e+02	-10.7580	-38.009633	0.000334	3.344166	1.133034	-0.000134
1276	1.2686e+02	-10.8029	-38.146896	0.000345	3.445504	1.167368	-0.000138
1277	1.2696e+02	-10.8414	-38.304344	0.000395	3.952196	1.339040	-0.000158
1278	1.2706e+02	-10.8879	-38.429495	0.000314	3.141489	1.064365	-0.000126
1279	1.2716e+02	-10.9232	-38.550609	0.000304	3.040151	1.030031	-0.000122
1280	1.2726e+02	-10.9649	-38.704020	0.000385	3.850857	1.304706	-0.000154
1281	1.2736e+02	-11.0066	-38.804949	0.000253	2.533459	0.858359	-0.000101
1282	1.2746e+02	-11.0403	-38.938174	0.000334	3.344166	1.133034	-0.000134
1283	1.2756e+02	-11.0933	-39.083511	0.000365	3.648181	1.236037	-0.000146
1284	1.2766e+02	-11.1254	-39.228848	0.000365	3.648181	1.236037	-0.000146
1285	1.2776e+02	-11.1639	-39.390333	0.000405	4.053534	1.373375	-0.000162
1286	1.2786e+02	-11.2040	-39.515485	0.000314	3.141489	1.064365	-0.000126
1287	1.2796e+02	-11.2489	-39.672933	0.000395	3.952196	1.339040	-0.000158
1288	1.2806e+02	-11.2794	-39.806158	0.000334	3.344166	1.133034	-0.000134
1289	1.2816e+02	-11.3259	-39.915161	0.000274	2.736136	0.927028	-0.000110
1290	1.2826e+02	-11.3644	-40.048387	0.000334	3.344166	1.133034	-0.000134
1291	1.2835e+02	-11.4125	-40.217946	0.000426	4.256211	1.442043	-0.000170
1292	1.2845e+02	-11.4430	-40.335023	0.000294	2.938812	0.995697	-0.000118
1293	1.2855e+02	-11.4879	-40.476323	0.000355	3.546842	1.201703	-0.000142
1294	1.2865e+02	-11.5216	-40.633771	0.000395	3.952196	1.339040	-0.000158
1295	1.2875e+02	-11.5601	-40.783145	0.000375	3.749519	1.270371	-0.000150
1296	1.2885e+02	-11.6018	-40.920408	0.000345	3.445504	1.167368	-0.000138
1297	1.2895e+02	-11.6371	-41.033448	0.000284	2.837474	0.961362	-0.000114
1298	1.2905e+02	-11.6756	-41.150525	0.000294	2.938812	0.995697	-0.000118
1299	1.2915e+02	-11.7205	-41.324121	0.000436	4.357549	1.476378	-0.000174
1300	1.2925e+02	-11.7558	-41.433124	0.000274	2.736136	0.927028	-0.000110
1301	1.2935e+02	-11.8023	-41.598647	0.000415	4.154873	1.407709	-0.000166
1302	1.2945e+02	-11.8457	-41.707649	0.000274	2.736136	0.927028	-0.000110
1303	1.2955e+02	-11.8890	-41.873172	0.000415	4.154873	1.407709	-0.000166
1304	1.2965e+02	-11.9146	-41.974100	0.000253	2.533459	0.858359	-0.000101
1305	1.2975e+02	-11.9644	-42.139623	0.000415	4.154873	1.407709	-0.000166
1306	1.2985e+02	-11.9852	-42.280923	0.000355	3.546842	1.201703	-0.000142
1307	1.2995e+02	-12.0317	-42.418185	0.000345	3.445504	1.167368	-0.000138
1308	1.3005e+02	-12.0847	-42.567559	0.000375	3.749519	1.270371	-0.000150
1309	1.3015e+02	-12.1296	-42.725008	0.000395	3.952196	1.339040	-0.000158
1310	1.3025e+02	-12.1553	-42.886493	0.000405	4.053534	1.373375	-0.000162
1311	1.3034e+02	-12.2034	-42.963199	0.000193	1.925429	0.652353	-0.000077
1312	1.3044e+02	-12.2515	-43.124684	0.000405	4.053534	1.373375	-0.000162
1313	1.3054e+02	-12.2836	-43.249835	0.000314	3.141489	1.064365	-0.000126
1314	1.3064e+02	-12.3221	-43.419395	0.000426	4.256211	1.442043	-0.000170
1315	1.3074e+02	-12.3590	-43.520323	0.000253	2.533459	0.858359	-0.000101
1316	1.3084e+02	-12.4007	-43.669697	0.000375	3.749519	1.270371	-0.000150
1317	1.3094e+02	-12.4344	-43.778700	0.000274	2.736136	0.927028	-0.000110
1318	1.3104e+02	-12.4793	-43.948260	0.000426	4.256211	1.442043	-0.000170
1319	1.3114e+02	-12.5178	-44.097634	0.000375	3.749519	1.270371	-0.000150
1320	1.3124e+02	-12.5692	-44.234896	0.000345	3.445504	1.167368	-0.000138
1321	1.3134e+02	-12.6077	-44.360047	0.000314	3.141489	1.064365	-0.000126
1322	1.3144e+02	-12.6317	-44.485199	0.000314	3.141489	1.064365	-0.000126
1323	1.3154e+02	-12.6799	-44.654758	0.000426	4.256211	1.442043	-0.000170
1324	1.3164e+02	-12.7232	-44.779910	0.000314	3.141489	1.064365	-0.000126
1325	1.3174e+02	-12.7585	-44.905061	0.000314	3.141489	1.064365	-0.000126
1326	1.3184e+02	-12.7970	-45.026175	0.000304	3.040151	1.030031	-0.000122
1327	1.3194e+02	-12.8419	-45.143252	0.000294	2.938812	0.995697	-0.000118
1328	1.3204e+02	-12.8788	-45.312812	0.000426	4.256211	1.442043	-0.000170
1329	1.3214e+02	-12.9253	-45.502557	0.000476	4.762903	1.613715	-0.000191
1330	1.3224e+02	-12.9574	-45.599448	0.000243	2.432121	0.824025	-0.000097
1331	1.3234e+02	-12.9991	-45.692302	0.000233	2.330782	0.789690	-0.000093
1332	1.3243e+02	-13.0328	-45.849751	0.000395	3.952196	1.339040	-0.000158
1333	1.3253e+02	-13.0649	-46.011236	0.000405	4.053534	1.373375	-0.000162
1334	1.3263e+02	-13.1098	-46.124276	0.000284	2.837474	0.961362	-0.000114
1335	1.3273e+02	-13.1499	-46.293836	0.000426	4.256211	1.442043	-0.000170
1336	1.3283e+02	-13.1884	-46.398801	0.000263	2.634797	0.892693	-0.000105
1337	1.3293e+02	-13.2397	-46.592584	0.000486	4.864241	1.648049	-0.000195
1338	1.3303e+02	-13.2782	-46.701586	0.000274	2.736136	0.927028	-0.000110
1339	1.3313e+02	-13.3264	-46.818663	0.000294	2.938812	0.995697	-0.000118
1340	1.3323e+02	-13.3424	-47.008409	0.000476	4.762903	1.613715	-0.000191
1341	1.3333e+02	-13.4050	-47.113374	0.000263	2.634797	0.892693	-0.000105
1342	1.3343e+02	-13.4274	-47.266785	0.000385	3.850857	1.304706	-0.000154
1343	1.3353e+02	-13.4772	-47.400011	0.000334	3.344166	1.133034	-0.000134
1344	1.3363e+02	-13.5028	-47.549385	0.000375	3.749519	1.270371	-0.000150
1345	1.3373e+02	-13.5590	-47.666462	0.000294	2.938812	0.995697	-0.000118
1346	1.3383e+02	-13.5927	-47.783539	0.000294	2.938812	0.995697	-0.000118
1347	1.3393e+02	-13.6408	-47.945024	0.000405	4.053534	1.373375	-0.000162
1348	1.3403e+02	-13.6729	-48.058064	0.000284	2.837474	0.961362	-0.000114
1349	1.3413e+02	-13.7130	-48.215512	0.000395	3.952196	1.339040	-0.000158
1350	1.3423e+02	-13.7515	-48.340663	0.000314	3.141489	1.064365	-0.000126
1351	1.3432e+02	-13.7836	-48.494074	0.000385	3.850857	1.304706	-0.000154
1352	1.3442e+02	-13.8365	-48.586929	0.000233	2.330782	0.789690	-0.000093
1353	1.3452e+02	-13.8750	-48.776674	0.000476	4.762903	1.613715	-0.000191
1354	1.3462e+02	-13.9135	-48.893751	0.000294	2.938812	0.995697	-0.000118
1355	1.3472e+02	-13.9616	-49.055236	0.000405	4.053534	1.373375	-0.000162
1356	1.3482e+02	-13.9921	-49.184425	0.000324	3.242827	1.098700	-0.000130
1357	1.3492e+02	-14.0306	-49.293427	0.000274	2.736136	0.927028	-0.000110
1358	1.3502e+02	-14.0691	-49.426653	0.000334	3.344166	1.133034	-0.000134
1359	1.3512e+02	-14.1140	-49.588138	0.000405	4.053534	1.373375	-0.000162
1360	1.3522e+02	-14.1461	-49.733475	0.000365	3.648181	1.236037	-0.000146
1361	1.3532e+02	-14.1943	-49.870738	0.000345	3.445504	1.167368	-0.000138
1362	1.3542e+02	-14.2328	-49.991852	0.000304	3.040151	1.030031	-0.000122
1363	1.3552e+02	-14.2648	-50.133152	0.000355	3.546842	1.201703	-0.000142
1364	1.3562e+02	-14.3146	-50.286563	0.000385	3.850857	1.304706	-0.000154
1365	1.3572e+02	-14.3483	-50.423825	0.000345	3.445504	1.167368	-0.000138
1366	1.3582e+02	-14.3964	-50.557051	0.000334	3.344166	1.133034	-0.000134
1367	1.3592e+02	-14.4269	-50.678165	0.000304	3.040151	1.030031	-0.000122
1368	1.3602e+02	-14.4702	-50.815428	0.000345	3.445504	1.167368	-0.000138
1369	1.3612e+02	-14.5167	-50.964802	0.000375	3.749519	1.270371	-0.000150
1370	1.3622e+02	-14.5536	-51.089953	0.000314	3.141489	1.064365	-0.000126
1371	1.3631e+02	-14.5905	-51.223178	0.000334	3.344166	1.133034	-0.000134
1372	1.3641e+02	-14.6386	-51.372552	0.000375	3.749519	1.270371	-0.000150
1373	1.3651e+02	-14.6755	-51.497703	0.000314	3.141489	1.064365	-0.000126
1374	1.3661e+02	-14.7092	-51.634966	0.000345	3.445504	1.167368	-0.000138
1375	1.3671e+02	-14.7461	-51.756080	0.000304	3.040151	1.030031	-0.000122
1376	1.3681e+02	-14.7878	-51.909491	0.000385	3.850857	1.304706	-0.000154
1377	1.3691e+02	-14.8215	-52.030605	0.000304	3.040151	1.030031	-0.000122
1378	1.3701e+02	-14.8761	-52.184017	0.000385	3.850857	1.304706	-0.000154
1379	1.3711e+02	-14.9081	-52.284945	0.000253	2.533459	0.858359	-0.000101
1380	1.3721e+02	-14.9498	-52.450468	0.000415	4.154873	1.407709	-0.000166
1381	1.3731e+02	-14.9851	-52.563507	0.000284	2.837474	0.961362	-0.000114
1382	1.3741e+02	-15.0317	-52.733067	0.000426	4.256211	1.442043	-0.000170
1383	1.3751e+02	-15.0718	-52.838033	0.000263	2.634797	0.892693	-0.000105
1384	1.3761e+02	-15.1055	-53.015667	0.000446	4.458888	1.510712	-0.000179
1385	1.3771e+02	-15.1456	-53.112558	0.000243	2.432121	0.824025	-0.000097
1386	1.3781e+02	-15.1921	-53.265969	0.000385	3.850857	1.304706	-0.000154
1387	1.3791e+02	-15.2210	-53.391120	0.000314	3.141489	1.064365	-0.000126
1388	1.3801e+02	-15.2643	-53.504160	0.000284	2.837474	0.961362	-0.000114
1389	1.3811e+02	-15.3172	-53.657571	0.000385	3.850857	1.304706	-0.000154
1390	1.3821e+02	-15.3445	-53.762537	0.000263	2.634797	0.892693	-0.000105
1391	1.3831e+02	-15.3862	-53.936133	0.000436	4.357549	1.476378	-0.000174
1392	1.3840e+02	-15.4295	-54.093582	0.000395	3.952196	1.339040	-0.000158
1393	1.3850e+02	-15.4616	-54.178362	0.000213	2.128105	0.721022	-0.000085
1394	1.3860e+02	-15.5065	-54.339847	0.000405	4.053534	1.373375	-0.000162
1395	1.3870e+02	-15.5498	-54.456924	0.000294	2.938812	0.995697	-0.000118
1396	1.3880e+02	-15.5835	-54.618409	0.000405	4.053534	1.373375	-0.000162
1397	1.3890e+02	-15.6284	-54.735486	0.000294	2.938812	0.995697	-0.000118
1398	1.3900e+02	-15.6669	-54.880823	0.000365	3.648181	1.236037	-0.000146
1399	1.3910e+02	-15.7119	-55.022123	0.000355	3.546842	1.201703	-0.000142
1400	1.3920e+02	-15.7488	-55.135163	0.000284	2.837474	0.961362	-0.000114
1401	1.3930e+02	-15.7905	-55.300685	0.000415	4.154873	1.407709	-0.000166
1402	1.3940e+02	-15.8242	-55.413725	0.000284	2.837474	0.961362	-0.000114
1403	1.3950e+02	-15.8643	-55.587322	0.000436	4.357549	1.476378	-0.000174
1404	1.3960e+02	-15.9108	-55.692288	0.000263	2.634797	0.892693	-0.000105
1405	1.3970e+02	-15.9493	-55.833587	0.000355	3.546842	1.201703	-0.000142
1406	1.3980e+02	-15.9894	-55.958738	0.000314	3.141489	1.064365	-0.000126
1407	1.3990e+02	-16.0295	-56.104075	0.000365	3.648181	1.236037	-0.000146
1408	1.4000e+02	-16.0680	-56.273635	0.000426	4.256211	1.442043	-0.000170
1409	1.4010e+02	-16.1113	-56.427046	0.000385	3.850857	1.304706	-0.000154
1410	1.4020e+02	-16.1482	-56.519900	0.000233	2.330782	0.789690	-0.000093
1411	1.4029e+02	-16.1851	-56.693497	0.000436	4.357549	1.476378	-0.000174
1412	1.4039e+02	-16.2284	-56.810574	0.000294	2.938812	0.995697	-0.000118
1413	1.4049e+02	-16.2541	-56.980134	0.000426	4.256211	1.442043	-0.000170
1414	1.4059e+02	-16.3086	-57.097211	0.000294	2.938812	0.995697	-0.000118
1415	1.4069e+02	-16.3455	-57.234473	0.000345	3.445504	1.167368	-0.000138
1416	1.4079e+02	-16.3856	-57.379810	0.000365	3.648181	1.236037	-0.000146
1417	1.4089e+02	-16.4225	-57.525147	0.000365	3.648181	1.236037	-0.000146
1418	1.4099e+02	-16.4546	-57.678558	0.000385	3.850857	1.304706	-0.000154
1419	1.4109e+02	-16.4995	-57.807747	0.000324	3.242827	1.098700	-0.000130
1420	1.4119e+02	-16.5396	-57.965195	0.000395	3.952196	1.339040	-0.000158
1421	1.4129e+02	-16.5846	-58.154940	0.000476	4.762903	1.613715	-0.000191
1422	1.4139e+02	-16.6182	-58.243757	0.000223	2.229444	0.755356	-0.000089
1423	1.4149e+02	-16.6760	-58.397168	0.000385	3.850857	1.304706	-0.000154
1424	1.4159e+02	-16.7017	-58.586914	0.000476	4.762903	1.613715	-0.000191
1425	1.4169e+02	-16.7450	-58.659582	0.000182	1.824090	0.618019	-0.000073
1426	1.4179e+02	-16.7899	-58.865476	0.000517	5.168256	1.751053	-0.000207
1427	1.4189e+02	-16.8220	-58.990627	0.000314	3.141489	1.064365	-0.000126
1428	1.4199e+02	-16.8637	-59.127890	0.000345	3.445504	1.167368	-0.000138
1429	1.4209e+02	-16.9022	-59.313598	0.000466	4.661564	1.579381	-0.000187
1430	1.4219e+02	-16.9407	-59.454898	0.000355	3.546842	1.201703	-0.000142
1431	1.4228e+02	-16.9936	-59.604272	0.000375	3.749519	1.270371	-0.000150
1432	1.4238e+02	-17.0193	-59.745572	0.000355	3.546842	1.201703	-0.000142
1433	1.4248e+02	-17.0658	-59.919169	0.000436	4.357549	1.476378	-0.000174
1434	1.4258e+02	-17.1091	-60.096803	0.000446	4.458888	1.510712	-0.000179
1435	1.4268e+02	-17.1460	-60.209842	0.000284	2.837474	0.961362	-0.000114
1436	1.4278e+02	-17.1765	-60.379402	0.000426	4.256211	1.442043	-0.000170
1437	1.4288e+02	-17.2182	-60.557036	0.000446	4.458888	1.510712	-0.000179
1438	1.4298e+02	-17.2615	-60.710447	0.000385	3.850857	1.304706	-0.000154
1439	1.4308e+02	-17.2952	-60.924415	0.000537	5.370933	1.819721	-0.000215
1440	1.4318e+02	-17.3385	-61.033418	0.000274	2.736136	0.927028	-0.000110
1441	1.4328e+02	-17.3819	-61.174718	0.000355	3.546842	1.201703	-0.000142
1442	1.4338e+02	-17.4220	-61.360426	0.000466	4.661564	1.579381	-0.000187
1443	1.4348e+02	-17.4621	-61.542097	0.000456	4.560226	1.545046	-0.000183
1444	1.4358e+02	-17.5038	-61.699545	0.000395	3.952196	1.339040	-0.000158
1445	1.4368e+02	-17.5359	-61.877179	0.000446	4.458888	1.510712	-0.000179
1446	1.4378e+02	-17.5728	-62.018479	0.000355	3.546842	1.201703	-0.000142
1447	1.4388e+02	-17.6129	-62.220336	0.000507	5.066918	1.716718	-0.000203
1448	1.4398e+02	-17.6610	-62.393933	0.000436	4.357549	1.476378	-0.000174
1449	1.4408e+02	-17.7075	-62.571567	0.000446	4.458888	1.510712	-0.000179
1450	1.4418e+02	-17.7380	-62.781498	0.000527	5.269594	1.785387	-0.000211
1451	1.4428e+02	-17.7845	-62.902612	0.000304	3.040151	1.030031	-0.000122
1452	1.4437e+02	-17.8150	-63.104469	0.000507	5.066918	1.716718	-0.000203
1453	1.4447e+02	-17.8663	-63.274028	0.000426	4.256211	1.442043	-0.000170
1454	1.4457e+02	-17.9016	-63.471848	0.000497	4.965579	1.682384	-0.000199
1455	1.4467e+02	-17.9369	-63.633334	0.000405	4.053534	1.373375	-0.000162
1456	1.4477e+02	-17.9818	-63.810967	0.000446	4.458888	1.510712	-0.000179
1457	1.4487e+02	-18.0171	-64.016861	0.000517	5.168256	1.751053	-0.000207
1458	1.4497e+02	-18.0476	-64.190458	0.000436	4.357549	1.476378	-0.000174
1459	1.4507e+02	-18.1038	-64.396352	0.000517	5.168256	1.751053	-0.000207
1460	1.4517e+02	-18.1326	-64.573986	0.000446	4.458888	1.510712	-0.000179
1461	1.4527e+02	-18.1872	-64.812177	0.000598	5.978963	2.025727	-0.000239
1462	1.4537e+02	-18.2241	-64.977700	0.000415	4.154873	1.407709	-0.000166
1463	1.4547e+02	-18.2578	-65.171482	0.000486	4.864241	1.648049	-0.000195
1464	1.4557e+02	-18.2947	-65.381413	0.000527	5.269594	1.785387	-0.000211
1465	1.4567e+02	-18.3364	-65.615567	0.000588	5.877625	1.991393	-0.000235
1466	1.4577e+02	-18.3861	-65.773015	0.000395	3.952196	1.339040	-0.000158
1467	1.4587e+02	-18.4182	-66.003132	0.000578	5.776286	1.957059	-0.000231
1468	1.4597e+02	-18.4631	-66.225175	0.000557	5.573610	1.888390	-0.000223
1469	1.4607e+02	-18.5000	-66.414920	0.000476	4.762903	1.613715	-0.000191
1470	1.4617e+02	-18.5353	-66.653111	0.000598	5.978963	2.025727	-0.000239
1471	1.4626e+02	-18.5866	-66.863042	0.000527	5.269594	1.785387	-0.000211
1472	1.4636e+02	-18.6284	-67.072973	0.000527	5.269594	1.785387	-0.000211
1473	1.4646e+02	-18.6540	-67.299053	0.000567	5.674948	1.922724	-0.000227
1474	1.4656e+02	-18.6893	-67.529169	0.000578	5.776286	1.957059	-0.000231
1475	1.4666e+02	-18.7326	-67.755249	0.000567	5.674948	1.922724	-0.000227
1476	1.4676e+02	-18.7711	-68.005552	0.000628	6.282978	2.128731	-0.000252
1477	1.4686e+02	-18.8112	-68.167037	0.000405	4.053534	1.373375	-0.000162
1478	1.4696e+02	-18.8562	-68.437525	0.000679	6.789670	2.300402	-0.000272
1479	1.4706e+02	-18.9011	-68.623233	0.000466	4.661564	1.579381	-0.000187
1480	1.4716e+02	-18.9332	-68.881610	0.000649	6.485655	2.197399	-0.000260
1481	1.4726e+02	-18.9813	-69.139987	0.000649	6.485655	2.197399	-0.000260
1482	1.4736e+02	-19.0166	-69.378178	0.000598	5.978963	2.025727	-0.000239
1483	1.4746e+02	-19.0567	-69.616369	0.000598	5.978963	2.025727	-0.000239
1484	1.4756e+02	-19.0968	-69.870708	0.000638	6.384316	2.163065	-0.000256
1485	1.4766e+02	-19.1305	-70.125048	0.000638	6.384316	2.163065	-0.000256
1486	1.4776e+02	-19.1722	-70.355165	0.000578	5.776286	1.957059	-0.000231
1487	1.4786e+02	-19.2139	-70.609504	0.000638	6.384316	2.163065	-0.000256
1488	1.4796e+02	-19.2572	-70.867881	0.000649	6.485655	2.197399	-0.000260
1489	1.4806e+02	-19.2925	-71.130295	0.000659	6.586993	2.231734	-0.000264
1490	1.4816e+02	-19.3326	-71.404820	0.000689	6.891008	2.334737	-0.000276
1491	1.4825e+02	-19.3679	-71.643011	0.000598	5.978963	2.025727	-0.000239
1492	1.4835e+02	-19.4128	-71.897350	0.000638	6.384316	2.163065	-0.000256
1493	1.4845e+02	-19.4529	-72.204173	0.000770	7.701715	2.609412	-0.000308
1494	1.4855e+02	-19.4914	-72.446401	0.000608	6.080301	2.060062	-0.000243
1495	1.4865e+02	-19.5380	-72.737075	0.000730	7.296362	2.472074	-0.000292
1496	1.4875e+02	-19.5684	-73.007563	0.000679	6.789670	2.300402	-0.000272
1497	1.4885e+02	-19.6182	-73.286125	0.000699	6.992346	2.369071	-0.000280
1498	1.4895e+02	-19.6470	-73.592947	0.000770	7.701715	2.609412	-0.000308
1499	1.4905e+02	-19.6887	-73.899770	0.000770	7.701715	2.609412	-0.000308
1500	1.4915e+02	-19.7208	-74.133924	0.000588	5.877625	1.991393	-0.000235
1501	1.4925e+02	-19.7706	-74.432672	0.000750	7.499038	2.540743	-0.000300
1502	1.4935e+02	-19.8139	-74.719308	0.000720	7.195023	2.437740	-0.000288
1503	1.4945e+02	-19.8444	-75.046316	0.000821	8.208407	2.781083	-0.000329
1504	1.4955e+02	-19.8845	-75.349101	0.000760	7.600377	2.575077	-0.000304
1505	1.4965e+02	-19.9326	-75.655924	0.000770	7.701715	2.609412	-0.000308
1506	1.4975e+02	-19.9743	-76.003117	0.000872	8.715098	2.952755	-0.000349
1507	1.4985e+02	-20.0160	-76.257457	0.000638	6.384316	2.163065	-0.000256
1508	1.4995e+02	-19.9615	-76.422980	-0.000415	-4.154873	-1.407709	-0.000166
1509	1.5005e+02	-19.9198	-76.536019	-0.000284	-2.837474	-0.961362	-0.000114
1510	1.5015e+02	-19.8877	-76.596576	-0.000152	-1.520075	-0.515015	-0.000061
1511	1.5025e+02	-19.8428	-76.653096	-0.000142	-1.418737	-0.480681	-0.000057
1512	1.5034e+02	-19.8091	-76.737876	-0.000213	-2.128105	-0.721022	-0.000085
1513	1.5044e+02	-19.7706	-76.790359	-0.000132	-1.317399	-0.446347	-0.000053
1514	1.5054e+02	-19.7369	-76.858990	-0.000172	-1.722752	-0.583684	-0.000069
1515	1.5064e+02	-19.6968	-76.887250	-0.000071	-0.709368	-0.240341	-0.000028
1516	1.5074e+02	-19.6519	-76.899362	-0.000030	-0.304015	-0.103003	-0.000012
1517	1.5084e+02	-19.6053	-76.947807	-0.000122	-1.216060	-0.412012	-0.000049
1518	1.5094e+02	-19.5636	-77.008364	-0.000152	-1.520075	-0.515015	-0.000061
1519	1.5104e+02	-19.5299	-76.972030	0.000091	0.912045	0.309009	0.000037
1520	1.5114e+02	-19.4898	-77.008364	-0.000091	-0.912045	-0.309009	-0.000037
1521	1.5124e+02	-19.4593	-77.036624	-0.000071	-0.709368	-0.240341	-0.000028
1522	1.5134e+02	-19.4128	-77.024513	0.000030	0.304015	0.103003	0.000012
1523	1.5144e+02	-19.3679	-77.048736	-0.000061	-0.608030	-0.206006	-0.000024
1524	1.5154e+02	-19.3310	-77.056810	-0.000020	-0.202677	-0.068669	-0.000008
1525	1.5164e+02	-19.3005	-77.032587	0.000061	0.608030	0.206006	0.000024
1526	1.5174e+02	-19.2604	-76.996253	0.000091	0.912045	0.309009	0.000037
1527	1.5184e+02	-19.2139	-77.012401	-0.000041	-0.405353	-0.137337	-0.000016
1528	1.5194e+02	-19.1770	-76.963956	0.000122	1.216060	0.412012	0.000049
1529	1.5204e+02	-19.1321	-76.943770	0.000051	0.506692	0.171672	0.000020
1530	1.5214e+02	-19.1000	-76.915510	0.000071	0.709368	0.240341	0.000028
1531	1.5224e+02	-19.0551	-76.915510	0.000000	0.000000	0.000000	0.000000
1532	1.5233e+02	-19.0150	-76.858990	0.000142	1.418737	0.480681	0.000057
1533	1.5243e+02	-18.9765	-76.786322	0.000182	1.824090	0.618019	0.000073
1534	1.5253e+02	-18.9380	-76.818619	-0.000081	-0.810707	-0.274675	-0.000032
1535	1.5263e+02	-18.8947	-76.729802	0.000223	2.229444	0.755356	0.000089
1536	1.5273e+02	-18.8578	-76.677319	0.000132	1.317399	0.446347	0.000053
1537	1.5283e+02	-18.8128	-76.653096	0.000061	0.608030	0.206006	0.000024
1538	1.5293e+02	-18.7791	-76.632911	0.000051	0.506692	0.171672	0.000020
1539	1.5303e+02	-18.7294	-76.580428	0.000132	1.317399	0.446347	0.000053
1540	1.5313e+02	-18.7005	-76.499685	0.000203	2.026767	0.686687	0.000081
1541	1.5323e+02	-18.6588	-76.451239	0.000122	1.216060	0.412012	0.000049
1542	1.5333e+02	-18.6155	-76.398757	0.000132	1.317399	0.446347	0.000053
1543	1.5343e+02	-18.5850	-76.309940	0.000223	2.229444	0.755356	0.000089
1544	1.5353e+02	-18.5385	-76.253420	0.000142	1.418737	0.480681	0.000057
1545	1.5363e+02	-18.5016	-76.204974	0.000122	1.216060	0.412012	0.000049
1546	1.5373e+02	-18.4615	-76.136343	0.000172	1.722752	0.583684	0.000069
1547	1.5383e+02	-18.4230	-76.067712	0.000172	1.722752	0.583684	0.000069
1548	1.5393e+02	-18.3701	-76.015229	0.000132	1.317399	0.446347	0.000053
1549	1.5403e+02	-18.3412	-75.974857	0.000101	1.013384	0.343344	0.000041
1550	1.5413e+02	-18.3027	-75.861818	0.000284	2.837474	0.961362	0.000114
1551	1.5422e+02	-18.2610	-75.821446	0.000101	1.013384	0.343344	0.000041
1552	1.5432e+02	-18.2241	-75.752815	0.000172	1.722752	0.583684	0.000069
1553	1.5442e+02	-18.1663	-75.672072	0.000203	2.026767	0.686687	0.000081
1554	1.5452e+02	-18.1407	-75.635738	0.000091	0.912045	0.309009	0.000037
1555	1.5462e+02	-18.1038	-75.514624	0.000304	3.040151	1.030031	0.000122
1556	1.5472e+02	-18.0540	-75.445993	0.000172	1.722752	0.583684	0.000069
1557	1.5482e+02	-18.0107	-75.349101	0.000243	2.432121	0.824025	0.000097
1558	1.5492e+02	-17.9802	-75.288544	0.000152	1.520075	0.515015	0.000061
1559	1.5502e+02	-17.9385	-75.203765	0.000213	2.128105	0.721022	0.000085
1560	1.5512e+02	-17.8888	-75.106873	0.000243	2.432121	0.824025	0.000097
1561	1.5522e+02	-17.8663	-74.997871	0.000274	2.736136	0.927028	0.000110
1562	1.5532e+02	-17.8246	-74.965574	0.000081	0.810707	0.274675	0.000032
1563	1.5542e+02	-17.7765	-74.860608	0.000263	2.634797	0.892693	0.000105
1564	1.5552e+02	-17.7380	-74.771791	0.000223	2.229444	0.755356	0.000089
1565	1.5562e+02	-17.7043	-74.682974	0.000223	2.229444	0.755356	0.000089
1566	1.5572e+02	-17.6546	-74.626454	0.000142	1.418737	0.480681	0.000057
1567	1.5582e+02	-17.6209	-74.545711	0.000203	2.026767	0.686687	0.000081
1568	1.5592e+02	-17.5808	-74.424597	0.000304	3.040151	1.030031	0.000122
1569	1.5602e+02	-17.5503	-74.339817	0.000213	2.128105	0.721022	0.000085
1570	1.5612e+02	-17.5054	-74.303483	0.000091	0.912045	0.309009	0.000037
1571	1.5622e+02	-17.4621	-74.198518	0.000263	2.634797	0.892693	0.000105
1572	1.5631e+02	-17.4107	-74.065292	0.000334	3.344166	1.133034	0.000134
1573	1.5641e+02	-17.3883	-73.980512	0.000213	2.128105	0.721022	0.000085
1574	1.5651e+02	-17.3434	-73.879584	0.000253	2.533459	0.858359	0.000101
1575	1.5661e+02	-17.3017	-73.835176	0.000111	1.114722	0.377678	0.000045
1576	1.5671e+02	-17.2583	-73.730210	0.000263	2.634797	0.892693	0.000105
1577	1.5681e+02	-17.2134	-73.613133	0.000294	2.938812	0.995697	0.000118
1578	1.5691e+02	-17.1781	-73.520279	0.000233	2.330782	0.789690	0.000093
1579	1.5701e+02	-17.1460	-73.415313	0.000263	2.634797	0.892693	0.000105
1580	1.5711e+02	-17.1011	-73.350719	0.000162	1.621414	0.549350	0.000065
1581	1.5721e+02	-17.0594	-73.253828	0.000243	2.432121	0.824025	0.000097
1582	1.5731e+02	-17.0177	-73.177122	0.000193	1.925429	0.652353	0.000077
1583	1.5741e+02	-16.9824	-73.060045	0.000294	2.938812	0.995697	0.000118
1584	1.5751e+02	-16.9423	-72.983340	0.000193	1.925429	0.652353	0.000077
1585	1.5761e+02	-16.9022	-72.874337	0.000274	2.736136	0.927028	0.000110
1586	1.5771e+02	-16.8653	-72.737075	0.000345	3.445504	1.167368	0.000138
1587	1.5781e+02	-16.8284	-72.668443	0.000172	1.722752	0.583684	0.000069
1588	1.5791e+02	-16.7771	-72.551366	0.000294	2.938812	0.995697	0.000118
1589	1.5801e+02	-16.7434	-72.482735	0.000172	1.722752	0.583684	0.000069
1590	1.5811e+02	-16.7049	-72.301064	0.000456	4.560226	1.545046	0.000183
1591	1.5821e+02	-16.6616	-72.264730	0.000091	0.912045	0.309009	0.000037
1592	1.5830e+02	-16.6182	-72.171876	0.000233	2.330782	0.789690	0.000093
1593	1.5840e+02	-16.5862	-72.054799	0.000294	2.938812	0.995697	0.000118
1594	1.5850e+02	-16.5445	-71.970019	0.000213	2.128105	0.721022	0.000085
1595	1.5860e+02	-16.5011	-71.861016	0.000274	2.736136	0.927028	0.000110
1596	1.5870e+02	-16.4691	-71.760088	0.000253	2.533459	0.858359	0.000101
1597	1.5880e+02	-16.4257	-71.675308	0.000213	2.128105	0.721022	0.000085
1598	1.5890e+02	-16.3808	-71.521897	0.000385	3.850857	1.304706	0.000154
1599	1.5900e+02	-16.3439	-71.416931	0.000263	2.634797	0.892693	0.000105
1600	1.5910e+02	-16.3102	-71.332151	0.000213	2.128105	0.721022	0.000085
1601	1.5920e+02	-16.2605	-71.227186	0.000263	2.634797	0.892693	0.000105
1602	1.5930e+02	-16.2172	-71.162592	0.000162	1.621414	0.549350	0.000065
1603	1.5940e+02	-16.1819	-70.980921	0.000456	4.560226	1.545046	0.000183
1604	1.5950e+02	-16.1354	-70.916326	0.000162	1.621414	0.549350	0.000065
1605	1.5960e+02	-16.1033	-70.827509	0.000223	2.229444	0.755356	0.000089
1606	1.5970e+02	-16.0760	-70.702358	0.000314	3.141489	1.064365	0.000126
1607	1.5980e+02	-16.0311	-70.569133	0.000334	3.344166	1.133034	0.000134
1608	1.5990e+02	-15.9814	-70.496464	0.000182	1.824090	0.618019	0.000073
1609	1.6000e+02	-15.9364	-70.371313	0.000314	3.141489	1.064365	0.000126
1610	1.6010e+02	-15.9028	-70.254236	0.000294	2.938812	0.995697	0.000118
1611	1.6019e+02	-15.8659	-70.169456	0.000213	2.128105	0.721022	0.000085
1612	1.6029e+02	-15.8177	-70.076602	0.000233	2.330782	0.789690	0.000093
1613	1.6039e+02	-15.7873	-69.959525	0.000294	2.938812	0.995697	0.000118
1614	1.6049e+02	-15.7488	-69.854560	0.000263	2.634797	0.892693	0.000105
1615	1.6059e+02	-15.7103	-69.749594	0.000263	2.634797	0.892693	0.000105
1616	1.6069e+02	-15.6798	-69.612332	0.000345	3.445504	1.167368	0.000138
1617	1.6079e+02	-15.6236	-69.539663	0.000182	1.824090	0.618019	0.000073
1618	1.6089e+02	-15.5851	-69.402400	0.000345	3.445504	1.167368	0.000138
1619	1.6099e+02	-15.5530	-69.305509	0.000243	2.432121	0.824025	0.000097
1620	1.6109e+02	-15.5081	-69.244952	0.000152	1.520075	0.515015	0.000061
1621	1.6119e+02	-15.4664	-69.075392	0.000426	4.256211	1.442043	0.000170
1622	1.6129e+02	-15.4199	-68.974464	0.000253	2.533459	0.858359	0.000101
1623	1.6139e+02	-15.3942	-68.865461	0.000274	2.736136	0.927028	0.000110
1624	1.6149e+02	-15.3509	-68.780682	0.000213	2.128105	0.721022	0.000085
1625	1.6159e+02	-15.3140	-68.687827	0.000233	2.330782	0.789690	0.000093
1626	1.6169e+02	-15.2643	-68.558639	0.000324	3.242827	1.098700	0.000130
1627	1.6179e+02	-15.2338	-68.437525	0.000304	3.040151	1.030031	0.000122
1628	1.6189e+02	-15.1889	-68.340634	0.000243	2.432121	0.824025	0.000097
1629	1.6199e+02	-15.1472	-68.239705	0.000253	2.533459	0.858359	0.000101
1630	1.6209e+02	-15.1022	-68.110517	0.000324	3.242827	1.098700	0.000130
1631	1.6219e+02	-15.0718	-67.997477	0.000284	2.837474	0.961362	0.000114
1632	1.6228e+02	-15.0333	-67.900586	0.000243	2.432121	0.824025	0.000097
1633	1.6238e+02	-14.9916	-67.759286	0.000355	3.546842	1.201703	0.000142
1634	1.6248e+02	-14.9531	-67.662395	0.000243	2.432121	0.824025	0.000097
1635	1.6258e+02	-14.8969	-67.565504	0.000243	2.432121	0.824025	0.000097
1636	1.6268e+02	-14.8744	-67.468612	0.000243	2.432121	0.824025	0.000097
1637	1.6278e+02	-14.8311	-67.331350	0.000345	3.445504	1.167368	0.000138
1638	1.6288e+02	-14.7846	-67.250607	0.000203	2.026767	0.686687	0.000081
1639	1.6298e+02	-14.7541	-67.097196	0.000385	3.850857	1.304706	0.000154
1640	1.6308e+02	-14.7156	-67.004342	0.000233	2.330782	0.789690	0.000093
1641	1.6318e+02	-14.6691	-66.943785	0.000152	1.520075	0.515015	0.000061
1642	1.6328e+02	-14.6322	-66.822671	0.000304	3.040151	1.030031	0.000122
1643	1.6338e+02	-14.5905	-66.701557	0.000304	3.040151	1.030031	0.000122
1644	1.6348e+02	-14.5568	-66.600628	0.000253	2.533459	0.858359	0.000101
1645	1.6358e+02	-14.5199	-66.475477	0.000314	3.141489	1.064365	0.000126
1646	1.6368e+02	-14.4702	-66.394734	0.000203	2.026767	0.686687	0.000081
1647	1.6378e+02	-14.4381	-66.277657	0.000294	2.938812	0.995697	0.000118
1648	1.6388e+02	-14.3884	-66.156543	0.000304	3.040151	1.030031	0.000122
1649	1.6398e+02	-14.3483	-66.027355	0.000324	3.242827	1.098700	0.000130
1650	1.6408e+02	-14.3194	-65.910278	0.000294	2.938812	0.995697	0.000118
1651	1.6418e+02	-14.2697	-65.793201	0.000294	2.938812	0.995697	0.000118
1652	1.6427e+02	-14.2408	-65.692273	0.000253	2.533459	0.858359	0.000101
1653	1.6437e+02	-14.1975	-65.546936	0.000365	3.648181	1.236037	0.000146
1654	1.6447e+02	-14.1509	-65.474267	0.000182	1.824090	0.618019	0.000073
1655	1.6457e+02	-14.1140	-65.373339	0.000253	2.533459	0.858359	0.000101
1656	1.6467e+02	-14.0739	-65.240114	0.000334	3.344166	1.133034	0.000134
1657	1.6477e+02	-14.0306	-65.163408	0.000193	1.925429	0.652353	0.000077
1658	1.6487e+02	-13.9937	-65.018071	0.000365	3.648181	1.236037	0.000146
1659	1.6497e+02	-13.9520	-64.929254	0.000223	2.229444	0.755356	0.000089
1660	1.6507e+02	-13.9135	-64.787954	0.000355	3.546842	1.201703	0.000142
1661	1.6517e+02	-13.8750	-64.670877	0.000294	2.938812	0.995697	0.000118
1662	1.6527e+02	-13.8269	-64.557838	0.000284	2.837474	0.961362	0.000114
1663	1.6537e+02	-13.7836	-64.444798	0.000284	2.837474	0.961362	0.000114
1664	1.6547e+02	-13.7547	-64.351944	0.000233	2.330782	0.789690	0.000093
1665	1.6557e+02	-13.7082	-64.283312	0.000172	1.722752	0.583684	0.000069
1666	1.6567e+02	-13.6681	-64.150087	0.000334	3.344166	1.133034	0.000134
1667	1.6577e+02	-13.6376	-64.012824	0.000345	3.445504	1.167368	0.000138
1668	1.6587e+02	-13.6039	-63.907859	0.000263	2.634797	0.892693	0.000105
1669	1.6597e+02	-13.5606	-63.794819	0.000284	2.837474	0.961362	0.000114
1670	1.6607e+02	-13.5221	-63.649482	0.000365	3.648181	1.236037	0.000146
1671	1.6616e+02	-13.4788	-63.560665	0.000223	2.229444	0.755356	0.000089
1672	1.6626e+02	-13.4322	-63.419365	0.000355	3.546842	1.201703	0.000142
1673	1.6636e+02	-13.3969	-63.342660	0.000193	1.925429	0.652353	0.000077
1674	1.6646e+02	-13.3601	-63.257880	0.000213	2.128105	0.721022	0.000085
1675	1.6656e+02	-13.3151	-63.112543	0.000365	3.648181	1.236037	0.000146
1676	1.6666e+02	-13.2863	-62.983355	0.000324	3.242827	1.098700	0.000130
1677	1.6676e+02	-13.2349	-62.882426	0.000253	2.533459	0.858359	0.000101
1678	1.6686e+02	-13.1980	-62.769386	0.000284	2.837474	0.961362	0.000114
1679	1.6696e+02	-13.1547	-62.644235	0.000314	3.141489	1.064365	0.000126
1680	1.6706e+02	-13.1178	-62.535233	0.000274	2.736136	0.927028	0.000110
1681	1.6716e+02	-13.0697	-62.426230	0.000274	2.736136	0.927028	0.000110
1682	1.6726e+02	-13.0360	-62.293004	0.000334	3.344166	1.133034	0.000134
1683	1.6736e+02	-12.9975	-62.159779	0.000334	3.344166	1.133034	0.000134
1684	1.6746e+02	-12.9494	-62.058851	0.000253	2.533459	0.858359	0.000101
1685	1.6756e+02	-12.9173	-61.957922	0.000253	2.533459	0.858359	0.000101
1686	1.6766e+02	-12.8724	-61.848920	0.000274	2.736136	0.927028	0.000110
1687	1.6776e+02	-12.8419	-61.715694	0.000334	3.344166	1.133034	0.000134
1688	1.6786e+02	-12.8050	-61.651100	0.000162	1.621414	0.549350	0.000065
1689	1.6796e+02	-12.7617	-61.525949	0.000314	3.141489	1.064365	0.000126
1690	1.6806e+02	-12.7248	-61.380612	0.000365	3.648181	1.236037	0.000146
1691	1.6816e+02	-12.6815	-61.275646	0.000263	2.634797	0.892693	0.000105
1692	1.6825e+02	-12.6398	-61.162606	0.000284	2.837474	0.961362	0.000114
1693	1.6835e+02	-12.6125	-61.029381	0.000334	3.344166	1.133034	0.000134
1694	1.6845e+02	-12.5563	-60.948638	0.000203	2.026767	0.686687	0.000081
1695	1.6855e+02	-12.5226	-60.775041	0.000436	4.357549	1.476378	0.000174
1696	1.6865e+02	-12.4809	-60.662002	0.000284	2.837474	0.961362	0.000114
1697	1.6875e+02	-12.4360	-60.544925	0.000294	2.938812	0.995697	0.000118
1698	1.6885e+02	-12.4023	-60.399588	0.000365	3.648181	1.236037	0.000146
1699	1.6895e+02	-12.3686	-60.334994	0.000162	1.621414	0.549350	0.000065
1700	1.6905e+02	-12.3205	-60.189657	0.000365	3.648181	1.236037	0.000146
1701	1.6915e+02	-12.2740	-60.080654	0.000274	2.736136	0.927028	0.000110
1702	1.6925e+02	-12.2403	-59.967614	0.000284	2.837474	0.961362	0.000114
1703	1.6935e+02	-12.1970	-59.826315	0.000355	3.546842	1.201703	0.000142
1704	1.6945e+02	-12.1665	-59.749609	0.000193	1.925429	0.652353	0.000077
1705	1.6955e+02	-12.1248	-59.592161	0.000395	3.952196	1.339040	0.000158
1706	1.6965e+02	-12.0831	-59.487195	0.000263	2.634797	0.892693	0.000105
1707	1.6975e+02	-12.0446	-59.358007	0.000324	3.242827	1.098700	0.000130
1708	1.6985e+02	-12.0013	-59.228818	0.000324	3.242827	1.098700	0.000130
1709	1.6995e+02	-11.9563	-59.123853	0.000263	2.634797	0.892693	0.000105
1710	1.7005e+02	-11.9211	-59.022924	0.000253	2.533459	0.858359	0.000101
1711	1.7015e+02	-11.8826	-58.905848	0.000294	2.938812	0.995697	0.000118
1712	1.7024e+02	-11.8457	-58.752436	0.000385	3.850857	1.304706	0.000154
1713	1.7034e+02	-11.7959	-58.623248	0.000324	3.242827	1.098700	0.000130
1714	1.7044e+02	-11.7558	-58.514245	0.000274	2.736136	0.927028	0.000110
1715	1.7054e+02	-11.7205	-58.389094	0.000314	3.141489	1.064365	0.000126
1716	1.7064e+02	-11.6788	-58.259906	0.000324	3.242827	1.098700	0.000130
1717	1.7074e+02	-11.6435	-58.130717	0.000324	3.242827	1.098700	0.000130
1718	1.7084e+02	-11.6002	-58.021715	0.000274	2.736136	0.927028	0.000110
1719	1.7094e+02	-11.5697	-57.904638	0.000294	2.938812	0.995697	0.000118
1720	1.7104e+02	-11.5264	-57.759301	0.000365	3.648181	1.236037	0.000146
1721	1.7114e+02	-11.4879	-57.662410	0.000243	2.432121	0.824025	0.000097
1722	1.7124e+02	-11.4350	-57.508999	0.000385	3.850857	1.304706	0.000154
1723	1.7134e+02	-11.4029	-57.424219	0.000213	2.128105	0.721022	0.000085
1724	1.7144e+02	-11.3692	-57.303105	0.000304	3.040151	1.030031	0.000122
1725	1.7154e+02	-11.3275	-57.165842	0.000345	3.445504	1.167368	0.000138
1726	1.7164e+02	-11.2890	-57.028579	0.000345	3.445504	1.167368	0.000138
1727	1.7174e+02	-11.2393	-56.887280	0.000355	3.546842	1.201703	0.000142
1728	1.7184e+02	-11.2120	-56.782314	0.000263	2.634797	0.892693	0.000105
1729	1.7194e+02	-11.1751	-56.608717	0.000436	4.357549	1.476378	0.000174
1730	1.7204e+02	-11.1302	-56.532012	0.000193	1.925429	0.652353	0.000077
1731	1.7213e+02	-11.0820	-56.358415	0.000436	4.357549	1.476378	0.000174
1732	1.7223e+02	-11.0419	-56.253449	0.000263	2.634797	0.892693	0.000105
1733	1.7233e+02	-11.0034	-56.132335	0.000304	3.040151	1.030031	0.000122
1734	1.7243e+02	-10.9665	-55.978924	0.000385	3.850857	1.304706	0.000154
1735	1.7253e+02	-10.9232	-55.902219	0.000193	1.925429	0.652353	0.000077
1736	1.7263e+02	-10.8783	-55.752845	0.000375	3.749519	1.270371	0.000150
1737	1.7273e+02	-10.8510	-55.611545	0.000355	3.546842	1.201703	0.000142
1738	1.7283e+02	-10.8093	-55.522728	0.000223	2.229444	0.755356	0.000089
1739	1.7293e+02	-10.7756	-55.332982	0.000476	4.762903	1.613715	0.000191
1740	1.7303e+02	-10.7291	-55.260314	0.000182	1.824090	0.618019	0.000073
1741	1.7313e+02	-10.6874	-55.114977	0.000365	3.648181	1.236037	0.000146
1742	1.7323e+02	-10.6489	-55.005974	0.000274	2.736136	0.927028	0.000110
1743	1.7333e+02	-10.6024	-54.840452	0.000415	4.154873	1.407709	0.000166
1744	1.7343e+02	-10.5687	-54.763746	0.000193	1.925429	0.652353	0.000077
1745	1.7353e+02	-10.5270	-54.610335	0.000385	3.850857	1.304706	0.000154
1746	1.7363e+02	-10.4885	-54.477110	0.000334	3.344166	1.133034	0.000134
1747	1.7373e+02	-10.4484	-54.343884	0.000334	3.344166	1.133034	0.000134
1748	1.7383e+02	-10.4163	-54.190473	0.000385	3.850857	1.304706	0.000154
1749	1.7393e+02	-10.3682	-54.089545	0.000253	2.533459	0.858359	0.000101
1750	1.7403e+02	-10.3248	-53.968431	0.000304	3.040151	1.030031	0.000122
1751	1.7413e+02	-10.2928	-53.815019	0.000385	3.850857	1.304706	0.000154
1752	1.7422e+02	-10.2430	-53.689868	0.000314	3.141489	1.064365	0.000126
1753	1.7432e+02	-10.2045	-53.544531	0.000365	3.648181	1.236037	0.000146
1754	1.7442e+02	-10.1692	-53.419380	0.000314	3.141489	1.064365	0.000126
1755	1.7452e+02	-10.1323	-53.298266	0.000304	3.040151	1.030031	0.000122
1756	1.7462e+02	-10.0874	-53.152929	0.000365	3.648181	1.236037	0.000146
1757	1.7472e+02	-10.0489	-53.015667	0.000345	3.445504	1.167368	0.000138
1758	1.7482e+02	-10.0024	-52.914738	0.000253	2.533459	0.858359	0.000101
1759	1.7492e+02	-9.9703	-52.805735	0.000274	2.736136	0.927028	0.000110
1760	1.7502e+02	-9.9350	-52.660399	0.000365	3.648181	1.236037	0.000146
1761	1.7512e+02	-9.8869	-52.486802	0.000436	4.357549	1.476378	0.000174
1762	1.7522e+02	-9.8532	-52.353576	0.000334	3.344166	1.133034	0.000134
1763	1.7532e+02	-9.8243	-52.240536	0.000284	2.837474	0.961362	0.000114
1764	1.7542e+02	-9.7714	-52.075014	0.000415	4.154873	1.407709	0.000166
1765	1.7552e+02	-9.7345	-51.970048	0.000263	2.634797	0.892693	0.000105
1766	1.7562e+02	-9.6896	-51.832786	0.000345	3.445504	1.167368	0.000138
1767	1.7572e+02	-9.6511	-51.683412	0.000375	3.749519	1.270371	0.000150
1768	1.7582e+02	-9.6061	-51.590558	0.000233	2.330782	0.789690	0.000093
1769	1.7592e+02	-9.5692	-51.441184	0.000375	3.749519	1.270371	0.000150
1770	1.7602e+02	-9.5372	-51.295847	0.000365	3.648181	1.236037	0.000146
1771	1.7612e+02	-9.4842	-51.174733	0.000304	3.040151	1.030031	0.000122
1772	1.7621e+02	-9.4489	-51.029396	0.000365	3.648181	1.236037	0.000146
1773	1.7631e+02	-9.4088	-50.908282	0.000304	3.040151	1.030031	0.000122
1774	1.7641e+02	-9.3671	-50.771019	0.000345	3.445504	1.167368	0.000138
1775	1.7651e+02	-9.3302	-50.633756	0.000345	3.445504	1.167368	0.000138
1776	1.7661e+02	-9.2997	-50.472271	0.000405	4.053534	1.373375	0.000162
1777	1.7671e+02	-9.2580	-50.371343	0.000253	2.533459	0.858359	0.000101
1778	1.7681e+02	-9.2083	-50.197746	0.000436	4.357549	1.476378	0.000174
1779	1.7691e+02	-9.1714	-50.048372	0.000375	3.749519	1.270371	0.000150
1780	1.7701e+02	-9.1249	-49.915146	0.000334	3.344166	1.133034	0.000134
1781	1.7711e+02	-9.0960	-49.789995	0.000314	3.141489	1.064365	0.000126
1782	1.7721e+02	-9.0479	-49.652732	0.000345	3.445504	1.167368	0.000138
1783	1.7731e+02	-9.0110	-49.523544	0.000324	3.242827	1.098700	0.000130
1784	1.7741e+02	-8.9693	-49.394356	0.000324	3.242827	1.098700	0.000130
1785	1.7751e+02	-8.9276	-49.253056	0.000355	3.546842	1.201703	0.000142
1786	1.7761e+02	-8.8971	-49.131942	0.000304	3.040151	1.030031	0.000122
1787	1.7771e+02	-8.8538	-48.982568	0.000375	3.749519	1.270371	0.000150
1788	1.7781e+02	-8.8056	-48.873565	0.000274	2.736136	0.927028	0.000110
1789	1.7791e+02	-8.7671	-48.732265	0.000355	3.546842	1.201703	0.000142
1790	1.7801e+02	-8.7318	-48.570780	0.000405	4.053534	1.373375	0.000162
1791	1.7810e+02	-8.7030	-48.465815	0.000263	2.634797	0.892693	0.000105
1792	1.7820e+02	-8.6596	-48.300292	0.000415	4.154873	1.407709	0.000166
1793	1.7830e+02	-8.6179	-48.163029	0.000345	3.445504	1.167368	0.000138
1794	1.7840e+02	-8.5730	-48.045952	0.000294	2.938812	0.995697	0.000118
1795	1.7850e+02	-8.5361	-47.872356	0.000436	4.357549	1.476378	0.000174
1796	1.7860e+02	-8.4944	-47.751242	0.000304	3.040151	1.030031	0.000122
1797	1.7870e+02	-8.4623	-47.609942	0.000355	3.546842	1.201703	0.000142
1798	1.7880e+02	-8.4110	-47.521125	0.000223	2.229444	0.755356	0.000089
1799	1.7890e+02	-8.3789	-47.363676	0.000395	3.952196	1.339040	0.000158
1800	1.7900e+02	-8.3436	-47.194117	0.000426	4.256211	1.442043	0.000170
1801	1.7910e+02	-8.3003	-47.105300	0.000223	2.229444	0.755356	0.000089
1802	1.7920e+02	-8.2634	-46.935740	0.000426	4.256211	1.442043	0.000170
1803	1.7930e+02	-8.2105	-46.806552	0.000324	3.242827	1.098700	0.000130
1804	1.7940e+02	-8.1752	-46.697549	0.000274	2.736136	0.927028	0.000110
1805	1.7950e+02	-8.1351	-46.544138	0.000385	3.850857	1.304706	0.000154
1806	1.7960e+02	-8.0966	-46.402838	0.000355	3.546842	1.201703	0.000142
1807	1.7970e+02	-8.0549	-46.301910	0.000253	2.533459	0.858359	0.000101
1808	1.7980e+02	-8.0260	-46.156573	0.000365	3.648181	1.236037	0.000146
1809	1.7990e+02	-7.9891	-45.991050	0.000415	4.154873	1.407709	0.000166
1810	1.8000e+02	-7.9377	-45.849751	0.000355	3.546842	1.201703	0.000142
1811	1.8009e+02	-7.8912	-45.736711	0.000284	2.837474	0.961362	0.000114
1812	1.8019e+02	-7.8527	-45.623671	0.000284	2.837474	0.961362	0.000114
1813	1.8029e+02	-7.8110	-45.446037	0.000446	4.458888	1.510712	0.000179
1814	1.8039e+02	-7.7741	-45.288589	0.000395	3.952196	1.339040	0.000158
1815	1.8049e+02	-7.7436	-45.167475	0.000304	3.040151	1.030031	0.000122
1816	1.8059e+02	-7.6987	-45.050398	0.000294	2.938812	0.995697	0.000118
1817	1.8069e+02	-7.6554	-44.901024	0.000375	3.749519	1.270371	0.000150
1818	1.8079e+02	-7.6201	-44.792021	0.000274	2.736136	0.927028	0.000110
1819	1.8089e+02	-7.5832	-44.622461	0.000426	4.256211	1.442043	0.000170
1820	1.8099e+02	-7.5367	-44.485199	0.000345	3.445504	1.167368	0.000138
1821	1.8109e+02	-7.5014	-44.351973	0.000334	3.344166	1.133034	0.000134
1822	1.8119e+02	-7.4517	-44.206636	0.000365	3.648181	1.236037	0.000146
1823	1.8129e+02	-7.4196	-44.077448	0.000324	3.242827	1.098700	0.000130
1824	1.8139e+02	-7.3731	-43.932111	0.000365	3.648181	1.236037	0.000146
1825	1.8149e+02	-7.3410	-43.815034	0.000294	2.938812	0.995697	0.000118
1826	1.8159e+02	-7.3041	-43.657586	0.000395	3.952196	1.339040	0.000158
1827	1.8169e+02	-7.2495	-43.512249	0.000365	3.648181	1.236037	0.000146
1828	1.8179e+02	-7.2207	-43.395172	0.000294	2.938812	0.995697	0.000118
1829	1.8189e+02	-7.1789	-43.257909	0.000345	3.445504	1.167368	0.000138
1830	1.8199e+02	-7.1356	-43.120647	0.000345	3.445504	1.167368	0.000138
1831	1.8209e+02	-7.0939	-42.963199	0.000395	3.952196	1.339040	0.000158
1832	1.8218e+02	-7.0666	-42.846122	0.000294	2.938812	0.995697	0.000118
1833	1.8228e+02	-7.0169	-42.716933	0.000324	3.242827	1.098700	0.000130
1834	1.8238e+02	-6.9816	-42.559485	0.000395	3.952196	1.339040	0.000158
1835	1.8248e+02	-6.9463	-42.434334	0.000314	3.141489	1.064365	0.000126
1836	1.8258e+02	-6.9062	-42.313220	0.000304	3.040151	1.030031	0.000122
1837	1.8268e+02	-6.8629	-42.115400	0.000497	4.965579	1.682384	0.000199
1838	1.8278e+02	-6.8180	-42.006397	0.000274	2.736136	0.927028	0.000110
1839	1.8288e+02	-6.7747	-41.857023	0.000375	3.749519	1.270371	0.000150
1840	1.8298e+02	-6.7346	-41.731872	0.000314	3.141489	1.064365	0.000126
1841	1.8308e+02	-6.7009	-41.602684	0.000324	3.242827	1.098700	0.000130
1842	1.8318e+02	-6.6624	-41.465421	0.000345	3.445504	1.167368	0.000138
1843	1.8328e+02	-6.6287	-41.320084	0.000365	3.648181	1.236037	0.000146
1844	1.8338e+02	-6.5806	-41.162636	0.000395	3.952196	1.339040	0.000158
1845	1.8348e+02	-6.5405	-41.029411	0.000334	3.344166	1.133034	0.000134
1846	1.8358e+02	-6.5020	-40.888111	0.000355	3.546842	1.201703	0.000142
1847	1.8368e+02	-6.4635	-40.771034	0.000294	2.938812	0.995697	0.000118
1848	1.8378e+02	-6.4169	-40.686254	0.000213	2.128105	0.721022	0.000085
1849	1.8388e+02	-6.3832	-40.480360	0.000517	5.168256	1.751053	0.000207
1850	1.8398e+02	-6.3463	-40.335023	0.000365	3.648181	1.236037	0.000146
1851	1.8407e+02	-6.3111	-40.201798	0.000334	3.344166	1.133034	0.000134
1852	1.8417e+02	-6.2742	-40.068572	0.000334	3.344166	1.133034	0.000134
1853	1.8427e+02	-6.2276	-39.919198	0.000375	3.749519	1.270371	0.000150
1854	1.8437e+02	-6.1795	-39.802121	0.000294	2.938812	0.995697	0.000118
1855	1.8447e+02	-6.1426	-39.660821	0.000355	3.546842	1.201703	0.000142
1856	1.8457e+02	-6.1089	-39.503373	0.000395	3.952196	1.339040	0.000158
1857	1.8467e+02	-6.0784	-39.345925	0.000395	3.952196	1.339040	0.000158
1858	1.8477e+02	-6.0255	-39.200588	0.000365	3.648181	1.236037	0.000146
1859	1.8487e+02	-5.9918	-39.087548	0.000284	2.837474	0.961362	0.000114
1860	1.8497e+02	-5.9421	-38.966434	0.000304	3.040151	1.030031	0.000122
1861	1.8507e+02	-5.9068	-38.808986	0.000395	3.952196	1.339040	0.000158
1862	1.8517e+02	-5.8715	-38.708057	0.000253	2.533459	0.858359	0.000101
1863	1.8527e+02	-5.8314	-38.530423	0.000446	4.458888	1.510712	0.000179
1864	1.8537e+02	-5.7913	-38.393161	0.000345	3.445504	1.167368	0.000138
1865	1.8547e+02	-5.7464	-38.243787	0.000375	3.749519	1.270371	0.000150
1866	1.8557e+02	-5.7127	-38.102487	0.000355	3.546842	1.201703	0.000142
1867	1.8567e+02	-5.6678	-37.936965	0.000415	4.154873	1.407709	0.000166
1868	1.8577e+02	-5.6228	-37.831999	0.000263	2.634797	0.892693	0.000105
1869	1.8587e+02	-5.5908	-37.670514	0.000405	4.053534	1.373375	0.000162
1870	1.8597e+02	-5.5458	-37.521140	0.000375	3.749519	1.270371	0.000150
1871	1.8606e+02	-5.5073	-37.355617	0.000415	4.154873	1.407709	0.000166
1872	1.8616e+02	-5.4640	-37.242577	0.000284	2.837474	0.961362	0.000114
1873	1.8626e+02	-5.4303	-37.101277	0.000355	3.546842	1.201703	0.000142
1874	1.8636e+02	-5.3790	-36.980163	0.000304	3.040151	1.030031	0.000122
1875	1.8646e+02	-5.3533	-36.794455	0.000466	4.661564	1.579381	0.000187
1876	1.8656e+02	-5.3084	-36.632970	0.000405	4.053534	1.373375	0.000162
1877	1.8666e+02	-5.2795	-36.507818	0.000314	3.141489	1.064365	0.000126
1878	1.8676e+02	-5.2282	-36.394779	0.000284	2.837474	0.961362	0.000114
1879	1.8686e+02	-5.1913	-36.221182	0.000436	4.357549	1.476378	0.000174
1880	1.8696e+02	-5.1528	-36.059696	0.000405	4.053534	1.373375	0.000162
1881	1.8706e+02	-5.1047	-35.918397	0.000355	3.546842	1.201703	0.000142
1882	1.8716e+02	-5.0710	-35.773060	0.000365	3.648181	1.236037	0.000146
1883	1.8726e+02	-5.0325	-35.676169	0.000243	2.432121	0.824025	0.000097
1884	1.8736e+02	-4.9908	-35.494497	0.000456	4.560226	1.545046	0.000183
1885	1.8746e+02	-4.9507	-35.316863	0.000446	4.458888	1.510712	0.000179
1886	1.8756e+02	-4.9154	-35.199786	0.000294	2.938812	0.995697	0.000118
1887	1.8766e+02	-4.8705	-35.030227	0.000426	4.256211	1.442043	0.000170
1888	1.8776e+02	-4.8368	-34.872779	0.000395	3.952196	1.339040	0.000158
1889	1.8786e+02	-4.7822	-34.743590	0.000324	3.242827	1.098700	0.000130
1890	1.8796e+02	-4.7533	-34.630550	0.000284	2.837474	0.961362	0.000114
1891	1.8806e+02	-4.7180	-34.432731	0.000497	4.965579	1.682384	0.000199
1892	1.8815e+02	-4.6715	-34.259134	0.000436	4.357549	1.476378	0.000174
1893	1.8825e+02	-4.6410	-34.113797	0.000365	3.648181	1.236037	0.000146
1894	1.8835e+02	-4.5913	-34.016906	0.000243	2.432121	0.824025	0.000097
1895	1.8845e+02	-4.5528	-33.847346	0.000426	4.256211	1.442043	0.000170
1896	1.8855e+02	-4.5063	-33.697972	0.000375	3.749519	1.270371	0.000150
1897	1.8865e+02	-4.4726	-33.540524	0.000395	3.952196	1.339040	0.000158
1898	1.8875e+02	-4.4341	-33.399224	0.000355	3.546842	1.201703	0.000142
1899	1.8885e+02	-4.3908	-33.225627	0.000436	4.357549	1.476378	0.000174
1900	1.8895e+02	-4.3523	-33.124699	0.000253	2.533459	0.858359	0.000101
1901	1.8905e+02	-4.3106	-32.955139	0.000426	4.256211	1.442043	0.000170
1902	1.8915e+02	-4.2689	-32.769431	0.000466	4.661564	1.579381	0.000187
1903	1.8925e+02	-4.2368	-32.652354	0.000294	2.938812	0.995697	0.000118
1904	1.8935e+02	-4.1919	-32.511054	0.000355	3.546842	1.201703	0.000142
1905	1.8945e+02	-4.1485	-32.333420	0.000446	4.458888	1.510712	0.000179
1906	1.8955e+02	-4.1181	-32.175972	0.000395	3.952196	1.339040	0.000158
1907	1.8965e+02	-4.0764	-32.046783	0.000324	3.242827	1.098700	0.000130
1908	1.8975e+02	-4.0314	-31.877224	0.000426	4.256211	1.442043	0.000170
1909	1.8985e+02	-3.9961	-31.760147	0.000294	2.938812	0.995697	0.000118
1910	1.8995e+02	-3.9625	-31.586550	0.000436	4.357549	1.476378	0.000174
1911	1.9004e+02	-3.9207	-31.425065	0.000405	4.053534	1.373375	0.000162
1912	1.9014e+02	-3.8710	-31.267616	0.000395	3.952196	1.339040	0.000158
1913	1.9024e+02	-3.8389	-31.114205	0.000385	3.850857	1.304706	0.000154
1914	1.9034e+02	-3.7956	-30.989054	0.000314	3.141489	1.064365	0.000126
1915	1.9044e+02	-3.7571	-30.835643	0.000385	3.850857	1.304706	0.000154
1916	1.9054e+02	-3.7058	-30.674157	0.000405	4.053534	1.373375	0.000162
1917	1.9064e+02	-3.6817	-30.496523	0.000446	4.458888	1.510712	0.000179
1918	1.9074e+02	-3.6304	-30.367335	0.000324	3.242827	1.098700	0.000130
1919	1.9084e+02	-3.5935	-30.209887	0.000395	3.952196	1.339040	0.000158
1920	1.9094e+02	-3.5550	-30.040327	0.000426	4.256211	1.442043	0.000170
1921	1.9104e+02	-3.5149	-29.862693	0.000446	4.458888	1.510712	0.000179
1922	1.9114e+02	-3.4732	-29.777913	0.000213	2.128105	0.721022	0.000085
1923	1.9124e+02	-3.4379	-29.567982	0.000527	5.269594	1.785387	0.000211
1924	1.9134e+02	-3.3962	-29.426682	0.000355	3.546842	1.201703	0.000142
1925	1.9144e+02	-3.3464	-29.273271	0.000385	3.850857	1.304706	0.000154
1926	1.9154e+02	-3.3159	-29.152157	0.000304	3.040151	1.030031	0.000122
1927	1.9164e+02	-3.2758	-28.998746	0.000385	3.850857	1.304706	0.000154
1928	1.9174e+02	-3.2341	-28.792852	0.000517	5.168256	1.751053	0.000207
1929	1.9184e+02	-3.2004	-28.647515	0.000365	3.648181	1.236037	0.000146
1930	1.9194e+02	-3.1619	-28.486030	0.000405	4.053534	1.373375	0.000162
1931	1.9203e+02	-3.1186	-28.344730	0.000355	3.546842	1.201703	0.000142
1932	1.9213e+02	-3.0705	-28.187282	0.000395	3.952196	1.339040	0.000158
1933	1.9223e+02	-3.0368	-28.041945	0.000365	3.648181	1.236037	0.000146
1934	1.9233e+02	-2.9983	-27.860274	0.000456	4.560226	1.545046	0.000183
1935	1.9243e+02	-2.9614	-27.702825	0.000395	3.952196	1.339040	0.000158
1936	1.9253e+02	-2.9117	-27.569600	0.000334	3.344166	1.133034	0.000134
1937	1.9263e+02	-2.8748	-27.387929	0.000456	4.560226	1.545046	0.000183
1938	1.9273e+02	-2.8395	-27.246629	0.000355	3.546842	1.201703	0.000142
1939	1.9283e+02	-2.7946	-27.064958	0.000456	4.560226	1.545046	0.000183
1940	1.9293e+02	-2.7641	-26.939807	0.000314	3.141489	1.064365	0.000126
1941	1.9303e+02	-2.7112	-26.770247	0.000426	4.256211	1.442043	0.000170
1942	1.9313e+02	-2.6839	-26.596650	0.000436	4.357549	1.476378	0.000174
1943	1.9323e+02	-2.6390	-26.447276	0.000375	3.749519	1.270371	0.000150
1944	1.9333e+02	-2.5989	-26.281754	0.000415	4.154873	1.407709	0.000166
1945	1.9343e+02	-2.5604	-26.172751	0.000274	2.736136	0.927028	0.000110
1946	1.9353e+02	-2.5186	-25.946671	0.000567	5.674948	1.922724	0.000227
1947	1.9363e+02	-2.4850	-25.805372	0.000355	3.546842	1.201703	0.000142
1948	1.9373e+02	-2.4481	-25.635812	0.000426	4.256211	1.442043	0.000170
1949	1.9383e+02	-2.4031	-25.518735	0.000294	2.938812	0.995697	0.000118
1950	1.9393e+02	-2.3614	-25.377435	0.000355	3.546842	1.201703	0.000142
1951	1.9403e+02	-2.3133	-25.179616	0.000497	4.965579	1.682384	0.000199
1952	1.9412e+02	-2.2780	-25.062539	0.000294	2.938812	0.995697	0.000118
1953	1.9422e+02	-2.2459	-24.840496	0.000557	5.573610	1.888390	0.000223
1954	1.9432e+02	-2.2010	-24.695159	0.000365	3.648181	1.236037	0.000146
1955	1.9442e+02	-2.1577	-24.557897	0.000345	3.445504	1.167368	0.000138
1956	1.9452e+02	-2.1192	-24.412560	0.000365	3.648181	1.236037	0.000146
1957	1.9462e+02	-2.0791	-24.255112	0.000395	3.952196	1.339040	0.000158
1958	1.9472e+02	-2.0390	-24.081515	0.000436	4.357549	1.476378	0.000174
1959	1.9482e+02	-1.9941	-23.883695	0.000497	4.965579	1.682384	0.000199
1960	1.9492e+02	-1.9636	-23.770655	0.000284	2.837474	0.961362	0.000114
1961	1.9502e+02	-1.9203	-23.588984	0.000456	4.560226	1.545046	0.000183
1962	1.9512e+02	-1.8753	-23.447684	0.000355	3.546842	1.201703	0.000142
1963	1.9522e+02	-1.8417	-23.314459	0.000334	3.344166	1.133034	0.000134
1964	1.9532e+02	-1.8064	-23.157011	0.000395	3.952196	1.339040	0.000158
1965	1.9542e+02	-1.7647	-22.983414	0.000436	4.357549	1.476378	0.000174
1966	1.9552e+02	-1.7213	-22.813854	0.000426	4.256211	1.442043	0.000170
1967	1.9562e+02	-1.6812	-22.700814	0.000284	2.837474	0.961362	0.000114
1968	1.9572e+02	-1.6427	-22.507032	0.000486	4.864241	1.648049	0.000195
1969	1.9582e+02	-1.6058	-22.389955	0.000294	2.938812	0.995697	0.000118
1970	1.9592e+02	-1.5641	-22.208284	0.000456	4.560226	1.545046	0.000183
1971	1.9601e+02	-1.5304	-22.034687	0.000436	4.357549	1.476378	0.000174
1972	1.9611e+02	-1.4823	-21.909536	0.000314	3.141489	1.064365	0.000126
1973	1.9621e+02	-1.4358	-21.744013	0.000415	4.154873	1.407709	0.000166
1974	1.9631e+02	-1.4053	-21.586565	0.000395	3.952196	1.339040	0.000158
1975	1.9641e+02	-1.3620	-21.404894	0.000456	4.560226	1.545046	0.000183
1976	1.9651e+02	-1.3187	-21.251483	0.000385	3.850857	1.304706	0.000154
1977	1.9661e+02	-1.2866	-21.098071	0.000385	3.850857	1.304706	0.000154
1978	1.9671e+02	-1.2433	-20.920437	0.000446	4.458888	1.510712	0.000179
1979	1.9681e+02	-1.2144	-20.783175	0.000345	3.445504	1.167368	0.000138
1980	1.9691e+02	-1.1647	-20.641875	0.000355	3.546842	1.201703	0.000142
1981	1.9701e+02	-1.1262	-20.423870	0.000547	5.472271	1.854056	0.000219
1982	1.9711e+02	-1.0845	-20.286607	0.000345	3.445504	1.167368	0.000138
1983	1.9721e+02	-1.0572	-20.165493	0.000304	3.040151	1.030031	0.000122
1984	1.9731e+02	-1.0010	-20.008045	0.000395	3.952196	1.339040	0.000158
1985	1.9741e+02	-0.9690	-19.830411	0.000446	4.458888	1.510712	0.000179
1986	1.9751e+02	-0.9224	-19.693148	0.000345	3.445504	1.167368	0.000138
1987	1.9761e+02	-0.8920	-19.491291	0.000507	5.066918	1.716718	0.000203
1988	1.9771e+02	-0.8486	-19.345954	0.000365	3.648181	1.236037	0.000146
1989	1.9781e+02	-0.8053	-19.204655	0.000355	3.546842	1.201703	0.000142
1990	1.9791e+02	-0.7652	-19.051244	0.000385	3.850857	1.304706	0.000154
1991	1.9800e+02	-0.7235	-18.861498	0.000476	4.762903	1.613715	0.000191
1992	1.9810e+02	-0.6866	-18.744421	0.000294	2.938812	0.995697	0.000118
1993	1.9820e+02	-0.6433	-18.570824	0.000436	4.357549	1.476378	0.000174
1994	1.9830e+02	-0.6032	-18.417413	0.000385	3.850857	1.304706	0.000154
1995	1.9840e+02	-0.5583	-18.227668	0.000476	4.762903	1.613715	0.000191
1996	1.9850e+02	-0.5262	-18.098480	0.000324	3.242827	1.098700	0.000130
1997	1.9860e+02	-0.4732	-17.957180	0.000355	3.546842	1.201703	0.000142
1998	1.9870e+02	-0.4492	-17.779546	0.000446	4.458888	1.510712	0.000179
1999	1.9880e+02	-0.3978	-17.618060	0.000405	4.053534	1.373375	0.000162
2000	1.9890e+02	-0.3658	-17.464649	0.000385	3.850857	1.304706	0.000154
2001	1.9900e+02	-0.3225	-17.311238	0.000385	3.850857	1.304706	0.000154
2002	1.9910e+02	-0.2920	-17.129567	0.000456	4.560226	1.545046	0.000183
2003	1.9920e+02	-0.2390	-16.984230	0.000365	3.648181	1.236037	0.000146
2004	1.9930e+02	-0.2021	-16.810633	0.000436	4.357549	1.476378	0.000174
2005	1.9940e+02	-0.1620	-16.653185	0.000395	3.952196	1.339040	0.000158
2006	1.9950e+02	-0.1315	-16.475551	0.000446	4.458888	1.510712	0.000179
2007	1.9960e+02	-0.0850	-16.354437	0.000304	3.040151	1.030031	0.000122
2008	1.9970e+02	-0.0465	-16.237360	0.000294	2.938812	0.995697	0.000118
2009	1.9980e+02	-0.0080	-16.039540	0.000294	2.938812	0.995697	0.000199

PMax (uC/cm2):	7.85e+01
Pr (uC/cm2):	4.80e+00
-Pr (uC/cm2):	-1.46e+01
PLoss (uC/cm2):	-1.46e+01
-Vc:	-1.17e+00
C (Max-Eff) (nF):	3.93e-01
K (Eff):	1.33e+03
Vert. (+/-Pr) Shift (uC/cm2):	-4.91e+00
Offset (uC/cm2):	1.42e+00

A (Loop Area - uC/cm2·Volts):	1.07e-01



Hysteresis Version: 5.48.1 - Radiant Technologies, Inc., 1999 - 9/12/24

