»»»»»»»»»»»»»»»»»»»»»»»»»»»»»»»»»»»» Hysteresis ««««««««««««««««««««««««««««««««««««
»»»  Executed Version:	5.48.1
»»»  Vision Version:	5.48.4 (R)
»»»  Vision Compiled:	9/18/24
»»»  Driver Version:	5.47.0
»»»  Windows Version:	Windows 8 or 8.1
»»»  Processor Information:	x86 (AMD or Intel) - 32 Processors
»»»  Tester Name:	PMF21124-494 (100V)
»»»  Tester S/N:	PMF21124-494
»»»  Internal Amp Type:	100V RevK 270k
»»»  Internal Amp S/N:	iAB2-596/K     
»»»  Execution Count:	1
»»»»»»»»»»»»»»»»»»»»»»»»»»»»»»»»»»»»»»»»»»««««««««««««««««««««««««««««««««««««««««««

Stored:	6/18/2025 - 10:16:24
Configured:	06/18/25 09:47:30 AM
Executed:	06/18/25 10:15:45 AM

»»»»»»»»»»»»»»»»»»»»»»»»»»»»»»»»»»» Sample Info ««««««««««««««««««««««««««««««««««««
Sample Name:	
Lot Name:	
Wafer Name:	
Die Row/Column:	0/0
Capacitor Number:	0
Sample Area (cm2):	1.00e-04
Sample Thickness (microns):	3.00e-01

Amplifier:	Internal

»»»»»»»»»»»»»»»»»»»»»»»»»»»»»»»»»»» Tester Info «««««««««««««««««««««««««««««««««««
Tester Name:	PMF21124-494 (100V)
Tester Serial Number:	PMF21124-494
Return Signal Amp. Level:	0.19 [Index: 3]

»»»»»»»»»»»»»»»»»»»»»»»»»»»»»»»» Hysteresis Info ««««««««««««««««««««««««««««««««««
Task Name:	Hyst-554
Volts:	20.00
Field:	666.67 (kV/cm)
DCBias:	0.00
DCField:	0.00 (kV/cm)
Hysteresis Period (ms):	2.00e+02
Preset:	Enabled
Preset Delay (ms):	1.00e+03
Profile:	Standard Bipolar

»»»»»»»»»»»»»»»»»»»»»»»»»»»»»»»»»»»»»» Data «««««««««««««««««««««««««««««««««««««««
Points:	2009

Valid Data

Point	Time (ms)	Drive Voltage	Measured Polarization (uC/cm2)	Capacitance (uF)	Normalized Capacitance (uF/cm2)	Dielectric Constant	Instantaneous Current (mA)
   1	0.0000e+00	-0.0064	-3.780778	0.000233	2.330829	0.789706	0.000093
   2	9.9500e-02	0.0257	-3.687923	0.000233	2.330829	0.789706	0.000093
   3	1.9900e-01	0.0706	-3.550661	0.000345	3.445573	1.167392	0.000138
   4	2.9850e-01	0.1075	-3.449732	0.000253	2.533510	0.858376	0.000101
   5	3.9800e-01	0.1492	-3.264024	0.000466	4.661658	1.579412	0.000187
   6	4.9750e-01	0.1765	-3.130799	0.000334	3.344233	1.133057	0.000134
   7	5.9700e-01	0.2246	-2.985462	0.000365	3.648254	1.236062	0.000146
   8	6.9650e-01	0.2711	-2.856274	0.000324	3.242892	1.098722	0.000130
   9	7.9600e-01	0.3048	-2.706900	0.000375	3.749594	1.270397	0.000150
  10	8.9550e-01	0.3449	-2.569637	0.000345	3.445573	1.167392	0.000138
  11	9.9500e-01	0.3850	-2.408151	0.000405	4.053615	1.373402	0.000162
  12	1.0945e+00	0.4251	-2.339520	0.000172	1.722787	0.583696	0.000069
  13	1.1940e+00	0.4572	-2.153812	0.000466	4.661658	1.579412	0.000187
  14	1.2935e+00	0.5021	-2.032698	0.000304	3.040212	1.030052	0.000122
  15	1.3930e+00	0.5390	-1.899472	0.000334	3.344233	1.133057	0.000134
  16	1.4925e+00	0.5759	-1.697616	0.000507	5.067019	1.716753	0.000203
  17	1.5920e+00	0.6176	-1.661281	0.000091	0.912063	0.309015	0.000037
  18	1.6915e+00	0.6609	-1.475573	0.000466	4.661658	1.579412	0.000187
  19	1.7910e+00	0.7043	-1.354459	0.000304	3.040212	1.030052	0.000122
  20	1.8905e+00	0.7396	-1.197011	0.000395	3.952275	1.339067	0.000158
  21	1.9900e+00	0.7829	-1.019377	0.000446	4.458977	1.510742	0.000179
  22	2.0895e+00	0.8150	-0.882114	0.000345	3.445573	1.167392	0.000138
  23	2.1890e+00	0.8663	-0.773111	0.000274	2.736190	0.927046	0.000110
  24	2.2885e+00	0.9064	-0.631812	0.000355	3.546914	1.201727	0.000142
  25	2.3880e+00	0.9385	-0.502623	0.000324	3.242892	1.098722	0.000130
  26	2.4875e+00	0.9802	-0.329027	0.000436	4.357637	1.476407	0.000174
  27	2.5870e+00	1.0219	-0.211950	0.000294	2.938871	0.995717	0.000118
  28	2.6865e+00	1.0684	-0.046427	0.000415	4.154956	1.407737	0.000166
  29	2.7860e+00	1.1021	0.058538	0.000263	2.634850	0.892711	0.000105
  30	2.8855e+00	1.1518	0.211950	0.000385	3.850935	1.304732	0.000154
  31	2.9850e+00	1.1871	0.361324	0.000375	3.749594	1.270397	0.000150
  32	3.0845e+00	1.2176	0.518772	0.000395	3.952275	1.339067	0.000158
  33	3.1840e+00	1.2625	0.668146	0.000375	3.749594	1.270397	0.000150
  34	3.2835e+00	1.2978	0.817520	0.000375	3.749594	1.270397	0.000150
  35	3.3830e+00	1.3411	0.914411	0.000243	2.432169	0.824041	0.000097
  36	3.4825e+00	1.3828	1.067822	0.000385	3.850935	1.304732	0.000154
  37	3.5820e+00	1.4149	1.229308	0.000405	4.053615	1.373402	0.000162
  38	3.6815e+00	1.4663	1.354459	0.000314	3.141552	1.064387	0.000126
  39	3.7810e+00	1.5016	1.479610	0.000314	3.141552	1.064387	0.000126
  40	3.8805e+00	1.5417	1.641096	0.000405	4.053615	1.373402	0.000162
  41	3.9800e+00	1.5850	1.754135	0.000284	2.837531	0.961381	0.000114
  42	4.0795e+00	1.6219	1.915621	0.000405	4.053615	1.373402	0.000162
  43	4.1790e+00	1.6636	2.044809	0.000324	3.242892	1.098722	0.000130
  44	4.2785e+00	1.7037	2.161886	0.000294	2.938871	0.995717	0.000118
  45	4.3780e+00	1.7454	2.355669	0.000486	4.864339	1.648083	0.000195
  46	4.4775e+00	1.7759	2.533303	0.000446	4.458977	1.510742	0.000179
  47	4.5770e+00	1.8224	2.646342	0.000284	2.837531	0.961381	0.000114
  48	4.6765e+00	1.8545	2.755345	0.000274	2.736190	0.927046	0.000110
  49	4.7760e+00	1.9058	2.941053	0.000466	4.661658	1.579412	0.000187
  50	4.8755e+00	1.9395	3.066205	0.000314	3.141552	1.064387	0.000126
  51	4.9750e+00	1.9668	3.191356	0.000314	3.141552	1.064387	0.000126
  52	5.0745e+00	2.0165	3.320544	0.000324	3.242892	1.098722	0.000130
  53	5.1740e+00	2.0598	3.461844	0.000355	3.546914	1.201727	0.000142
  54	5.2735e+00	2.0951	3.619292	0.000395	3.952275	1.339067	0.000158
  55	5.3730e+00	2.1465	3.752518	0.000334	3.344233	1.133057	0.000134
  56	5.4725e+00	2.1882	3.877669	0.000314	3.141552	1.064387	0.000126
  57	5.5720e+00	2.2106	4.055303	0.000446	4.458977	1.510742	0.000179
  58	5.6715e+00	2.2507	4.208714	0.000385	3.850935	1.304732	0.000154
  59	5.7710e+00	2.2941	4.358088	0.000375	3.749594	1.270397	0.000150
  60	5.8705e+00	2.3390	4.479202	0.000304	3.040212	1.030052	0.000122
  61	5.9700e+00	2.3727	4.628576	0.000375	3.749594	1.270397	0.000150
  62	6.0695e+00	2.4176	4.753727	0.000314	3.141552	1.064387	0.000126
  63	6.1690e+00	2.4593	4.915213	0.000405	4.053615	1.373402	0.000162
  64	6.2685e+00	2.4962	5.024215	0.000274	2.736190	0.927046	0.000110
  65	6.3680e+00	2.5347	5.205887	0.000456	4.560317	1.545077	0.000183
  66	6.4675e+00	2.5828	5.335075	0.000324	3.242892	1.098722	0.000130
  67	6.5670e+00	2.6213	5.468300	0.000334	3.344233	1.133057	0.000134
  68	6.6665e+00	2.6566	5.633823	0.000415	4.154956	1.407737	0.000166
  69	6.7660e+00	2.6983	5.763011	0.000324	3.242892	1.098722	0.000130
  70	6.8655e+00	2.7481	5.932571	0.000426	4.256296	1.442072	0.000170
  71	6.9650e+00	2.7801	6.037536	0.000263	2.634850	0.892711	0.000105
  72	7.0645e+00	2.8138	6.194985	0.000395	3.952275	1.339067	0.000158
  73	7.1640e+00	2.8523	6.320136	0.000314	3.141552	1.064387	0.000126
  74	7.2635e+00	2.8956	6.473547	0.000385	3.850935	1.304732	0.000154
  75	7.3630e+00	2.9406	6.618884	0.000365	3.648254	1.236062	0.000146
  76	7.4625e+00	2.9807	6.748072	0.000324	3.242892	1.098722	0.000130
  77	7.5620e+00	3.0192	6.901484	0.000385	3.850935	1.304732	0.000154
  78	7.6615e+00	3.0609	7.034709	0.000334	3.344233	1.133057	0.000134
  79	7.7610e+00	3.0962	7.167935	0.000334	3.344233	1.133057	0.000134
  80	7.8605e+00	3.1379	7.345568	0.000446	4.458977	1.510742	0.000179
  81	7.9600e+00	3.1796	7.511091	0.000415	4.154956	1.407737	0.000166
  82	8.0595e+00	3.2149	7.595871	0.000213	2.128148	0.721036	0.000085
  83	8.1590e+00	3.2678	7.757356	0.000405	4.053615	1.373402	0.000162
  84	8.2585e+00	3.2983	7.902693	0.000365	3.648254	1.236062	0.000146
  85	8.3580e+00	3.3272	8.015733	0.000284	2.837531	0.961381	0.000114
  86	8.4575e+00	3.3689	8.152996	0.000345	3.445573	1.167392	0.000138
  87	8.5570e+00	3.4170	8.338704	0.000466	4.661658	1.579412	0.000187
  88	8.6565e+00	3.4443	8.455781	0.000294	2.938871	0.995717	0.000118
  89	8.7560e+00	3.4940	8.593043	0.000345	3.445573	1.167392	0.000138
  90	8.8555e+00	3.5325	8.738380	0.000365	3.648254	1.236062	0.000146
  91	8.9550e+00	3.5726	8.883717	0.000365	3.648254	1.236062	0.000146
  92	9.0545e+00	3.6159	9.045203	0.000405	4.053615	1.373402	0.000162
  93	9.1540e+00	3.6609	9.198614	0.000385	3.850935	1.304732	0.000154
  94	9.2535e+00	3.6913	9.364136	0.000415	4.154956	1.407737	0.000166
  95	9.3530e+00	3.7298	9.485250	0.000304	3.040212	1.030052	0.000122
  96	9.4525e+00	3.7732	9.610402	0.000314	3.141552	1.064387	0.000126
  97	9.5520e+00	3.8133	9.759776	0.000375	3.749594	1.270397	0.000150
  98	9.6515e+00	3.8502	9.893001	0.000334	3.344233	1.133057	0.000134
  99	9.7510e+00	3.8838	10.046412	0.000385	3.850935	1.304732	0.000154
 100	9.8505e+00	3.9256	10.183675	0.000345	3.445573	1.167392	0.000138
 101	9.9500e+00	3.9737	10.312863	0.000324	3.242892	1.098722	0.000130
 102	1.0050e+01	4.0090	10.486460	0.000436	4.357637	1.476407	0.000174
 103	1.0149e+01	4.0539	10.619686	0.000334	3.344233	1.133057	0.000134
 104	1.0248e+01	4.0988	10.785208	0.000415	4.154956	1.407737	0.000166
 105	1.0348e+01	4.1277	10.902285	0.000294	2.938871	0.995717	0.000118
 106	1.0447e+01	4.1742	11.035511	0.000334	3.344233	1.133057	0.000134
 107	1.0547e+01	4.2143	11.213145	0.000446	4.458977	1.510742	0.000179
 108	1.0646e+01	4.2544	11.346370	0.000334	3.344233	1.133057	0.000134
 109	1.0746e+01	4.2961	11.495744	0.000375	3.749594	1.270397	0.000150
 110	1.0845e+01	4.3298	11.604747	0.000274	2.736190	0.927046	0.000110
 111	1.0945e+01	4.3699	11.778344	0.000436	4.357637	1.476407	0.000174
 112	1.1044e+01	4.4132	11.923680	0.000365	3.648254	1.236062	0.000146
 113	1.1144e+01	4.4437	12.052869	0.000324	3.242892	1.098722	0.000130
 114	1.1243e+01	4.4999	12.218391	0.000415	4.154956	1.407737	0.000166
 115	1.1343e+01	4.5320	12.351617	0.000334	3.344233	1.133057	0.000134
 116	1.1443e+01	4.5689	12.553474	0.000507	5.067019	1.716753	0.000203
 117	1.1542e+01	4.6154	12.646328	0.000233	2.330829	0.789706	0.000093
 118	1.1642e+01	4.6523	12.779553	0.000334	3.344233	1.133057	0.000134
 119	1.1741e+01	4.6860	12.928927	0.000375	3.749594	1.270397	0.000150
 120	1.1841e+01	4.7277	13.090413	0.000405	4.053615	1.373402	0.000162
 121	1.1940e+01	4.7614	13.239787	0.000375	3.749594	1.270397	0.000150
 122	1.2040e+01	4.8063	13.385124	0.000365	3.648254	1.236062	0.000146
 123	1.2139e+01	4.8448	13.526423	0.000355	3.546914	1.201727	0.000142
 124	1.2239e+01	4.8881	13.695983	0.000426	4.256296	1.442072	0.000170
 125	1.2338e+01	4.9282	13.853431	0.000395	3.952275	1.339067	0.000158
 126	1.2438e+01	4.9731	13.986657	0.000334	3.344233	1.133057	0.000134
 127	1.2537e+01	5.0052	14.083548	0.000243	2.432169	0.824041	0.000097
 128	1.2636e+01	5.0469	14.277331	0.000486	4.864339	1.648083	0.000195
 129	1.2736e+01	5.0918	14.422667	0.000365	3.648254	1.236062	0.000146
 130	1.2835e+01	5.1255	14.588190	0.000415	4.154956	1.407737	0.000166
 131	1.2935e+01	5.1720	14.717378	0.000324	3.242892	1.098722	0.000130
 132	1.3034e+01	5.2138	14.874827	0.000395	3.952275	1.339067	0.000158
 133	1.3134e+01	5.2474	15.032275	0.000395	3.952275	1.339067	0.000158
 134	1.3233e+01	5.2811	15.197797	0.000415	4.154956	1.407737	0.000166
 135	1.3333e+01	5.3277	15.347172	0.000375	3.749594	1.270397	0.000150
 136	1.3432e+01	5.3581	15.452137	0.000263	2.634850	0.892711	0.000105
 137	1.3532e+01	5.4079	15.613622	0.000405	4.053615	1.373402	0.000162
 138	1.3632e+01	5.4480	15.742811	0.000324	3.242892	1.098722	0.000130
 139	1.3731e+01	5.4897	15.892185	0.000375	3.749594	1.270397	0.000150
 140	1.3831e+01	5.5218	16.053670	0.000405	4.053615	1.373402	0.000162
 141	1.3930e+01	5.5731	16.211119	0.000395	3.952275	1.339067	0.000158
 142	1.4030e+01	5.6100	16.396827	0.000466	4.661658	1.579412	0.000187
 143	1.4129e+01	5.6549	16.550238	0.000385	3.850935	1.304732	0.000154
 144	1.4229e+01	5.6726	16.671352	0.000304	3.040212	1.030052	0.000122
 145	1.4328e+01	5.7319	16.788429	0.000294	2.938871	0.995717	0.000118
 146	1.4428e+01	5.7688	16.962026	0.000436	4.357637	1.476407	0.000174
 147	1.4527e+01	5.8089	17.083140	0.000304	3.040212	1.030052	0.000122
 148	1.4627e+01	5.8362	17.260774	0.000446	4.458977	1.510742	0.000179
 149	1.4726e+01	5.8859	17.398036	0.000345	3.445573	1.167392	0.000138
 150	1.4825e+01	5.9180	17.551448	0.000385	3.850935	1.304732	0.000154
 151	1.4925e+01	5.9629	17.684673	0.000334	3.344233	1.133057	0.000134
 152	1.5024e+01	6.0143	17.838084	0.000385	3.850935	1.304732	0.000154
 153	1.5124e+01	6.0512	17.995533	0.000395	3.952275	1.339067	0.000158
 154	1.5223e+01	6.0881	18.152981	0.000395	3.952275	1.339067	0.000158
 155	1.5323e+01	6.1250	18.278132	0.000314	3.141552	1.064387	0.000126
 156	1.5422e+01	6.1683	18.459803	0.000456	4.560317	1.545077	0.000183
 157	1.5522e+01	6.2068	18.617251	0.000395	3.952275	1.339067	0.000158
 158	1.5621e+01	6.2469	18.766625	0.000375	3.749594	1.270397	0.000150
 159	1.5721e+01	6.2870	18.895814	0.000324	3.242892	1.098722	0.000130
 160	1.5820e+01	6.3335	19.029039	0.000334	3.344233	1.133057	0.000134
 161	1.5920e+01	6.3640	19.202636	0.000436	4.357637	1.476407	0.000174
 162	1.6020e+01	6.4057	19.364122	0.000405	4.053615	1.373402	0.000162
 163	1.6119e+01	6.4458	19.525607	0.000405	4.053615	1.373402	0.000162
 164	1.6218e+01	6.4843	19.662870	0.000345	3.445573	1.167392	0.000138
 165	1.6318e+01	6.5164	19.812244	0.000375	3.749594	1.270397	0.000150
 166	1.6418e+01	6.5501	19.957581	0.000365	3.648254	1.236062	0.000146
 167	1.6517e+01	6.5966	20.123103	0.000415	4.154956	1.407737	0.000166
 168	1.6616e+01	6.6383	20.268440	0.000365	3.648254	1.236062	0.000146
 169	1.6716e+01	6.6800	20.409740	0.000355	3.546914	1.201727	0.000142
 170	1.6816e+01	6.7185	20.575262	0.000415	4.154956	1.407737	0.000166
 171	1.6915e+01	6.7634	20.680228	0.000263	2.634850	0.892711	0.000105
 172	1.7015e+01	6.7939	20.849788	0.000426	4.256296	1.442072	0.000170
 173	1.7114e+01	6.8308	20.974939	0.000314	3.141552	1.064387	0.000126
 174	1.7213e+01	6.8806	21.156610	0.000456	4.560317	1.545077	0.000183
 175	1.7313e+01	6.9158	21.322132	0.000415	4.154956	1.407737	0.000166
 176	1.7413e+01	6.9560	21.439209	0.000294	2.938871	0.995717	0.000118
 177	1.7512e+01	6.9945	21.616843	0.000446	4.458977	1.510742	0.000179
 178	1.7611e+01	7.0426	21.705660	0.000223	2.229489	0.755371	0.000089
 179	1.7711e+01	7.0715	21.939814	0.000588	5.877742	1.991433	0.000235
 180	1.7811e+01	7.1196	22.048817	0.000274	2.736190	0.927046	0.000110
 181	1.7910e+01	7.1677	22.161857	0.000284	2.837531	0.961381	0.000114
 182	1.8009e+01	7.1982	22.375825	0.000537	5.371041	1.819758	0.000215
 183	1.8109e+01	7.2351	22.464642	0.000223	2.229489	0.755371	0.000089
 184	1.8209e+01	7.2800	22.638239	0.000436	4.357637	1.476407	0.000174
 185	1.8308e+01	7.3185	22.771464	0.000334	3.344233	1.133057	0.000134
 186	1.8407e+01	7.3554	22.908727	0.000345	3.445573	1.167392	0.000138
 187	1.8507e+01	7.4035	23.094435	0.000466	4.661658	1.579412	0.000187
 188	1.8607e+01	7.4388	23.231698	0.000345	3.445573	1.167392	0.000138
 189	1.8706e+01	7.4837	23.381072	0.000375	3.749594	1.270397	0.000150
 190	1.8805e+01	7.5142	23.534483	0.000385	3.850935	1.304732	0.000154
 191	1.8905e+01	7.5607	23.655597	0.000304	3.040212	1.030052	0.000122
 192	1.9005e+01	7.5912	23.825157	0.000426	4.256296	1.442072	0.000170
 193	1.9104e+01	7.6329	23.982605	0.000395	3.952275	1.339067	0.000158
 194	1.9203e+01	7.6875	24.111793	0.000324	3.242892	1.098722	0.000130
 195	1.9303e+01	7.7212	24.289427	0.000446	4.458977	1.510742	0.000179
 196	1.9402e+01	7.7613	24.434764	0.000365	3.648254	1.236062	0.000146
 197	1.9502e+01	7.7966	24.596249	0.000405	4.053615	1.373402	0.000162
 198	1.9602e+01	7.8335	24.737549	0.000355	3.546914	1.201727	0.000142
 199	1.9701e+01	7.8784	24.866738	0.000324	3.242892	1.098722	0.000130
 200	1.9800e+01	7.9153	25.036297	0.000426	4.256296	1.442072	0.000170
 201	1.9900e+01	7.9602	25.153374	0.000294	2.938871	0.995717	0.000118
 202	2.0000e+01	7.9907	25.326971	0.000436	4.357637	1.476407	0.000174
 203	2.0099e+01	8.0372	25.452122	0.000314	3.141552	1.064387	0.000126
 204	2.0198e+01	8.0789	25.585348	0.000334	3.344233	1.133057	0.000134
 205	2.0298e+01	8.1110	25.758945	0.000436	4.357637	1.476407	0.000174
 206	2.0398e+01	8.1527	25.892170	0.000334	3.344233	1.133057	0.000134
 207	2.0497e+01	8.1912	26.053655	0.000405	4.053615	1.373402	0.000162
 208	2.0596e+01	8.2361	26.158621	0.000263	2.634850	0.892711	0.000105
 209	2.0696e+01	8.2762	26.316069	0.000395	3.952275	1.339067	0.000158
 210	2.0796e+01	8.3228	26.505815	0.000476	4.762998	1.613747	0.000191
 211	2.0895e+01	8.3532	26.643077	0.000345	3.445573	1.167392	0.000138
 212	2.0994e+01	8.3933	26.752080	0.000274	2.736190	0.927046	0.000110
 213	2.1094e+01	8.4367	26.881268	0.000324	3.242892	1.098722	0.000130
 214	2.1194e+01	8.4720	27.042754	0.000405	4.053615	1.373402	0.000162
 215	2.1293e+01	8.5072	27.192128	0.000375	3.749594	1.270397	0.000150
 216	2.1392e+01	8.5538	27.373799	0.000456	4.560317	1.545077	0.000183
 217	2.1492e+01	8.5891	27.482802	0.000274	2.736190	0.927046	0.000110
 218	2.1591e+01	8.6308	27.640250	0.000395	3.952275	1.339067	0.000158
 219	2.1691e+01	8.6741	27.789624	0.000375	3.749594	1.270397	0.000150
 220	2.1791e+01	8.7126	27.910738	0.000304	3.040212	1.030052	0.000122
 221	2.1890e+01	8.7463	28.080298	0.000426	4.256296	1.442072	0.000170
 222	2.1989e+01	8.7896	28.217560	0.000345	3.445573	1.167392	0.000138
 223	2.2089e+01	8.8329	28.362897	0.000365	3.648254	1.236062	0.000146
 224	2.2189e+01	8.8666	28.524383	0.000405	4.053615	1.373402	0.000162
 225	2.2288e+01	8.9195	28.697979	0.000436	4.357637	1.476407	0.000174
 226	2.2387e+01	8.9516	28.802945	0.000263	2.634850	0.892711	0.000105
 227	2.2487e+01	8.9869	28.960393	0.000395	3.952275	1.339067	0.000158
 228	2.2587e+01	9.0382	29.077470	0.000294	2.938871	0.995717	0.000118
 229	2.2686e+01	9.0671	29.234918	0.000395	3.952275	1.339067	0.000158
 230	2.2785e+01	9.1169	29.420627	0.000466	4.661658	1.579412	0.000187
 231	2.2885e+01	9.1538	29.537704	0.000294	2.938871	0.995717	0.000118
 232	2.2985e+01	9.1955	29.683041	0.000365	3.648254	1.236062	0.000146
 233	2.3084e+01	9.2292	29.812229	0.000324	3.242892	1.098722	0.000130
 234	2.3183e+01	9.2789	29.961603	0.000375	3.749594	1.270397	0.000150
 235	2.3283e+01	9.3142	30.082717	0.000304	3.040212	1.030052	0.000122
 236	2.3383e+01	9.3527	30.215942	0.000334	3.344233	1.133057	0.000134
 237	2.3482e+01	9.3960	30.381465	0.000415	4.154956	1.407737	0.000166
 238	2.3581e+01	9.4377	30.534876	0.000385	3.850935	1.304732	0.000154
 239	2.3681e+01	9.4762	30.676176	0.000355	3.546914	1.201727	0.000142
 240	2.3780e+01	9.5099	30.809401	0.000334	3.344233	1.133057	0.000134
 241	2.3880e+01	9.5468	30.958775	0.000375	3.749594	1.270397	0.000150
 242	2.3980e+01	9.5997	31.063741	0.000263	2.634850	0.892711	0.000105
 243	2.4079e+01	9.6302	31.192929	0.000324	3.242892	1.098722	0.000130
 244	2.4178e+01	9.6639	31.358452	0.000415	4.154956	1.407737	0.000166
 245	2.4278e+01	9.7072	31.495714	0.000345	3.445573	1.167392	0.000138
 246	2.4378e+01	9.7441	31.612791	0.000294	2.938871	0.995717	0.000118
 247	2.4477e+01	9.7922	31.786388	0.000436	4.357637	1.476407	0.000174
 248	2.4576e+01	9.8211	31.919614	0.000334	3.344233	1.133057	0.000134
 249	2.4676e+01	9.8644	32.052839	0.000334	3.344233	1.133057	0.000134
 250	2.4776e+01	9.9110	32.218362	0.000415	4.154956	1.407737	0.000166
 251	2.4875e+01	9.9462	32.359662	0.000355	3.546914	1.201727	0.000142
 252	2.4974e+01	9.9944	32.529221	0.000426	4.256296	1.442072	0.000170
 253	2.5074e+01	10.0232	32.658410	0.000324	3.242892	1.098722	0.000130
 254	2.5174e+01	10.0698	32.743189	0.000213	2.128148	0.721036	0.000085
 255	2.5273e+01	10.1051	32.908712	0.000415	4.154956	1.407737	0.000166
 256	2.5372e+01	10.1436	33.037900	0.000324	3.242892	1.098722	0.000130
 257	2.5472e+01	10.1853	33.199386	0.000405	4.053615	1.373402	0.000162
 258	2.5572e+01	10.2206	33.324537	0.000314	3.141552	1.064387	0.000126
 259	2.5671e+01	10.2623	33.473911	0.000375	3.749594	1.270397	0.000150
 260	2.5770e+01	10.3040	33.675768	0.000507	5.067019	1.716753	0.000203
 261	2.5870e+01	10.3473	33.768622	0.000233	2.330829	0.789706	0.000093
 262	2.5970e+01	10.3858	33.909922	0.000355	3.546914	1.201727	0.000142
 263	2.6069e+01	10.4243	34.059296	0.000375	3.749594	1.270397	0.000150
 264	2.6169e+01	10.4724	34.200595	0.000355	3.546914	1.201727	0.000142
 265	2.6268e+01	10.5077	34.309598	0.000274	2.736190	0.927046	0.000110
 266	2.6367e+01	10.5494	34.491269	0.000456	4.560317	1.545077	0.000183
 267	2.6467e+01	10.5927	34.576049	0.000213	2.128148	0.721036	0.000085
 268	2.6567e+01	10.6393	34.757720	0.000456	4.560317	1.545077	0.000183
 269	2.6666e+01	10.6681	34.907094	0.000375	3.749594	1.270397	0.000150
 270	2.6765e+01	10.7066	35.024171	0.000294	2.938871	0.995717	0.000118
 271	2.6865e+01	10.7452	35.157397	0.000334	3.344233	1.133057	0.000134
 272	2.6965e+01	10.7885	35.282548	0.000314	3.141552	1.064387	0.000126
 273	2.7064e+01	10.8189	35.452107	0.000426	4.256296	1.442072	0.000170
 274	2.7163e+01	10.8623	35.565147	0.000284	2.837531	0.961381	0.000114
 275	2.7263e+01	10.9024	35.710484	0.000365	3.648254	1.236062	0.000146
 276	2.7363e+01	10.9521	35.847747	0.000345	3.445573	1.167392	0.000138
 277	2.7462e+01	10.9842	35.997121	0.000375	3.749594	1.270397	0.000150
 278	2.7561e+01	11.0259	36.142458	0.000365	3.648254	1.236062	0.000146
 279	2.7661e+01	11.0580	36.287795	0.000365	3.648254	1.236062	0.000146
 280	2.7761e+01	11.1045	36.404872	0.000294	2.938871	0.995717	0.000118
 281	2.7860e+01	11.1430	36.546171	0.000355	3.546914	1.201727	0.000142
 282	2.7959e+01	11.1863	36.711694	0.000415	4.154956	1.407737	0.000166
 283	2.8059e+01	11.2168	36.840882	0.000324	3.242892	1.098722	0.000130
 284	2.8159e+01	11.2569	36.990256	0.000375	3.749594	1.270397	0.000150
 285	2.8258e+01	11.3034	37.151742	0.000405	4.053615	1.373402	0.000162
 286	2.8358e+01	11.3467	37.240559	0.000223	2.229489	0.755371	0.000089
 287	2.8457e+01	11.3852	37.434341	0.000486	4.864339	1.648083	0.000195
 288	2.8556e+01	11.4157	37.559492	0.000314	3.141552	1.064387	0.000126
 289	2.8656e+01	11.4703	37.704829	0.000365	3.648254	1.236062	0.000146
 290	2.8756e+01	11.5007	37.813832	0.000274	2.736190	0.927046	0.000110
 291	2.8855e+01	11.5425	37.967243	0.000385	3.850935	1.304732	0.000154
 292	2.8954e+01	11.5810	38.104506	0.000345	3.445573	1.167392	0.000138
 293	2.9054e+01	11.6162	38.257917	0.000385	3.850935	1.304732	0.000154
 294	2.9154e+01	11.6564	38.399217	0.000355	3.546914	1.201727	0.000142
 295	2.9253e+01	11.7061	38.572813	0.000436	4.357637	1.476407	0.000174
 296	2.9352e+01	11.7462	38.681816	0.000274	2.736190	0.927046	0.000110
 297	2.9452e+01	11.7735	38.798893	0.000294	2.938871	0.995717	0.000118
 298	2.9552e+01	11.8264	38.964416	0.000415	4.154956	1.407737	0.000166
 299	2.9651e+01	11.8681	39.101678	0.000345	3.445573	1.167392	0.000138
 300	2.9750e+01	11.9018	39.259126	0.000395	3.952275	1.339067	0.000158
 301	2.9850e+01	11.9419	39.388315	0.000324	3.242892	1.098722	0.000130
 302	2.9950e+01	11.9788	39.549800	0.000405	4.053615	1.373402	0.000162
 303	3.0049e+01	12.0285	39.687063	0.000345	3.445573	1.167392	0.000138
 304	3.0148e+01	12.0510	39.820288	0.000334	3.344233	1.133057	0.000134
 305	3.0248e+01	12.0927	39.989848	0.000426	4.256296	1.442072	0.000170
 306	3.0348e+01	12.1408	40.102888	0.000284	2.837531	0.961381	0.000114
 307	3.0447e+01	12.1793	40.211891	0.000274	2.736190	0.927046	0.000110
 308	3.0547e+01	12.2146	40.397599	0.000466	4.661658	1.579412	0.000187
 309	3.0646e+01	12.2676	40.530824	0.000334	3.344233	1.133057	0.000134
 310	3.0745e+01	12.2997	40.647901	0.000294	2.938871	0.995717	0.000118
 311	3.0845e+01	12.3462	40.797275	0.000375	3.749594	1.270397	0.000150
 312	3.0945e+01	12.3847	40.958761	0.000405	4.053615	1.373402	0.000162
 313	3.1044e+01	12.4216	41.091986	0.000334	3.344233	1.133057	0.000134
 314	3.1143e+01	12.4617	41.249434	0.000395	3.952275	1.339067	0.000158
 315	3.1243e+01	12.4922	41.346326	0.000243	2.432169	0.824041	0.000097
 316	3.1343e+01	12.5451	41.499737	0.000385	3.850935	1.304732	0.000154
 317	3.1442e+01	12.5820	41.641037	0.000355	3.546914	1.201727	0.000142
 318	3.1541e+01	12.6173	41.798485	0.000395	3.952275	1.339067	0.000158
 319	3.1641e+01	12.6558	41.911525	0.000284	2.837531	0.961381	0.000114
 320	3.1741e+01	12.7007	42.081084	0.000426	4.256296	1.442072	0.000170
 321	3.1840e+01	12.7328	42.218347	0.000345	3.445573	1.167392	0.000138
 322	3.1939e+01	12.7857	42.355610	0.000345	3.445573	1.167392	0.000138
 323	3.2039e+01	12.8162	42.521132	0.000415	4.154956	1.407737	0.000166
 324	3.2139e+01	12.8579	42.618023	0.000243	2.432169	0.824041	0.000097
 325	3.2238e+01	12.9044	42.783546	0.000415	4.154956	1.407737	0.000166
 326	3.2337e+01	12.9349	42.953106	0.000426	4.256296	1.442072	0.000170
 327	3.2437e+01	12.9782	43.021737	0.000172	1.722787	0.583696	0.000069
 328	3.2536e+01	13.0183	43.235705	0.000537	5.371041	1.819758	0.000215
 329	3.2636e+01	13.0552	43.372968	0.000345	3.445573	1.167392	0.000138
 330	3.2736e+01	13.0857	43.502156	0.000324	3.242892	1.098722	0.000130
 331	3.2835e+01	13.1355	43.619233	0.000294	2.938871	0.995717	0.000118
 332	3.2934e+01	13.1804	43.748421	0.000324	3.242892	1.098722	0.000130
 333	3.3034e+01	13.2157	43.934130	0.000466	4.661658	1.579412	0.000187
 334	3.3133e+01	13.2558	44.018910	0.000213	2.128148	0.721036	0.000085
 335	3.3233e+01	13.2879	44.172321	0.000385	3.850935	1.304732	0.000154
 336	3.3333e+01	13.3264	44.349955	0.000446	4.458977	1.510742	0.000179
 337	3.3432e+01	13.3793	44.462994	0.000284	2.837531	0.961381	0.000114
 338	3.3532e+01	13.4114	44.632554	0.000426	4.256296	1.442072	0.000170
 339	3.3631e+01	13.4499	44.765780	0.000334	3.344233	1.133057	0.000134
 340	3.3730e+01	13.4900	44.919191	0.000385	3.850935	1.304732	0.000154
 341	3.3830e+01	13.5285	45.068565	0.000375	3.749594	1.270397	0.000150
 342	3.3929e+01	13.5782	45.181605	0.000284	2.837531	0.961381	0.000114
 343	3.4029e+01	13.6055	45.322904	0.000355	3.546914	1.201727	0.000142
 344	3.4129e+01	13.6456	45.439981	0.000294	2.938871	0.995717	0.000118
 345	3.4228e+01	13.7001	45.589355	0.000375	3.749594	1.270397	0.000150
 346	3.4328e+01	13.7322	45.758915	0.000426	4.256296	1.442072	0.000170
 347	3.4427e+01	13.7723	45.859843	0.000253	2.533510	0.858376	0.000101
 348	3.4526e+01	13.8060	45.997106	0.000345	3.445573	1.167392	0.000138
 349	3.4626e+01	13.8574	46.142443	0.000365	3.648254	1.236062	0.000146
 350	3.4725e+01	13.8894	46.312003	0.000426	4.256296	1.442072	0.000170
 351	3.4825e+01	13.9312	46.437154	0.000314	3.141552	1.064387	0.000126
 352	3.4925e+01	13.9841	46.594602	0.000395	3.952275	1.339067	0.000158
 353	3.5024e+01	14.0162	46.727828	0.000334	3.344233	1.133057	0.000134
 354	3.5123e+01	14.0515	46.852979	0.000314	3.141552	1.064387	0.000126
 355	3.5223e+01	14.0884	46.994279	0.000355	3.546914	1.201727	0.000142
 356	3.5322e+01	14.1301	47.167875	0.000436	4.357637	1.476407	0.000174
 357	3.5422e+01	14.1702	47.264767	0.000243	2.432169	0.824041	0.000097
 358	3.5522e+01	14.2103	47.438363	0.000436	4.357637	1.476407	0.000174
 359	3.5621e+01	14.2568	47.571589	0.000334	3.344233	1.133057	0.000134
 360	3.5721e+01	14.2953	47.696740	0.000314	3.141552	1.064387	0.000126
 361	3.5820e+01	14.3354	47.854188	0.000395	3.952275	1.339067	0.000158
 362	3.5919e+01	14.3691	47.983377	0.000324	3.242892	1.098722	0.000130
 363	3.6019e+01	14.4124	48.108528	0.000314	3.141552	1.064387	0.000126
 364	3.6118e+01	14.4397	48.245791	0.000345	3.445573	1.167392	0.000138
 365	3.6218e+01	14.4926	48.387090	0.000355	3.546914	1.201727	0.000142
 366	3.6318e+01	14.5295	48.524353	0.000345	3.445573	1.167392	0.000138
 367	3.6417e+01	14.5680	48.673727	0.000375	3.749594	1.270397	0.000150
 368	3.6517e+01	14.6097	48.790804	0.000294	2.938871	0.995717	0.000118
 369	3.6616e+01	14.6499	48.956327	0.000415	4.154956	1.407737	0.000166
 370	3.6715e+01	14.6819	49.073403	0.000294	2.938871	0.995717	0.000118
 371	3.6815e+01	14.7301	49.206629	0.000334	3.344233	1.133057	0.000134
 372	3.6914e+01	14.7750	49.335817	0.000324	3.242892	1.098722	0.000130
 373	3.7014e+01	14.8087	49.497303	0.000405	4.053615	1.373402	0.000162
 374	3.7114e+01	14.8616	49.606305	0.000274	2.736190	0.927046	0.000110
 375	3.7213e+01	14.8889	49.787976	0.000456	4.560317	1.545077	0.000183
 376	3.7313e+01	14.9194	49.888905	0.000253	2.533510	0.858376	0.000101
 377	3.7412e+01	14.9691	50.050390	0.000405	4.053615	1.373402	0.000162
 378	3.7511e+01	14.9900	50.167467	0.000294	2.938871	0.995717	0.000118
 379	3.7611e+01	15.0493	50.300693	0.000334	3.344233	1.133057	0.000134
 380	3.7711e+01	15.0830	50.474290	0.000436	4.357637	1.476407	0.000174
 381	3.7810e+01	15.1247	50.567144	0.000233	2.330829	0.789706	0.000093
 382	3.7910e+01	15.1728	50.708443	0.000355	3.546914	1.201727	0.000142
 383	3.8009e+01	15.2113	50.849743	0.000355	3.546914	1.201727	0.000142
 384	3.8108e+01	15.2514	50.970857	0.000304	3.040212	1.030052	0.000122
 385	3.8208e+01	15.2851	51.112157	0.000355	3.546914	1.201727	0.000142
 386	3.8307e+01	15.3252	51.273642	0.000405	4.053615	1.373402	0.000162
 387	3.8407e+01	15.3686	51.402831	0.000324	3.242892	1.098722	0.000130
 388	3.8507e+01	15.4054	51.532019	0.000324	3.242892	1.098722	0.000130
 389	3.8606e+01	15.4423	51.665245	0.000334	3.344233	1.133057	0.000134
 390	3.8706e+01	15.4937	51.782322	0.000294	2.938871	0.995717	0.000118
 391	3.8805e+01	15.5354	51.939770	0.000395	3.952275	1.339067	0.000158
 392	3.8904e+01	15.5739	52.056847	0.000294	2.938871	0.995717	0.000118
 393	3.9004e+01	15.6012	52.153738	0.000243	2.432169	0.824041	0.000097
 394	3.9103e+01	15.6429	52.339446	0.000466	4.661658	1.579412	0.000187
 395	3.9203e+01	15.6830	52.464597	0.000314	3.141552	1.064387	0.000126
 396	3.9303e+01	15.7231	52.613972	0.000375	3.749594	1.270397	0.000150
 397	3.9402e+01	15.7680	52.722974	0.000274	2.736190	0.927046	0.000110
 398	3.9502e+01	15.8065	52.848125	0.000314	3.141552	1.064387	0.000126
 399	3.9601e+01	15.8450	53.001537	0.000385	3.850935	1.304732	0.000154
 400	3.9700e+01	15.8835	53.146873	0.000365	3.648254	1.236062	0.000146
 401	3.9800e+01	15.9316	53.263950	0.000294	2.938871	0.995717	0.000118
 402	3.9900e+01	15.9637	53.401213	0.000345	3.445573	1.167392	0.000138
 403	3.9999e+01	16.0006	53.538476	0.000345	3.445573	1.167392	0.000138
 404	4.0099e+01	16.0391	53.659590	0.000304	3.040212	1.030052	0.000122
 405	4.0198e+01	16.0824	53.817038	0.000395	3.952275	1.339067	0.000158
 406	4.0297e+01	16.1257	53.930078	0.000284	2.837531	0.961381	0.000114
 407	4.0397e+01	16.1578	54.047155	0.000294	2.938871	0.995717	0.000118
 408	4.0496e+01	16.2108	54.192492	0.000365	3.648254	1.236062	0.000146
 409	4.0596e+01	16.2509	54.329754	0.000345	3.445573	1.167392	0.000138
 410	4.0696e+01	16.2765	54.458943	0.000324	3.242892	1.098722	0.000130
 411	4.0795e+01	16.3263	54.604279	0.000365	3.648254	1.236062	0.000146
 412	4.0895e+01	16.3696	54.717319	0.000284	2.837531	0.961381	0.000114
 413	4.0994e+01	16.4033	54.862656	0.000365	3.648254	1.236062	0.000146
 414	4.1093e+01	16.4466	54.971659	0.000274	2.736190	0.927046	0.000110
 415	4.1193e+01	16.4899	55.112959	0.000355	3.546914	1.201727	0.000142
 416	4.1292e+01	16.5172	55.238110	0.000314	3.141552	1.064387	0.000126
 417	4.1392e+01	16.5653	55.391521	0.000385	3.850935	1.304732	0.000154
 418	4.1492e+01	16.5926	55.540895	0.000375	3.749594	1.270397	0.000150
 419	4.1591e+01	16.6391	55.625675	0.000213	2.128148	0.721036	0.000085
 420	4.1691e+01	16.6728	55.779086	0.000385	3.850935	1.304732	0.000154
 421	4.1790e+01	16.7209	55.920386	0.000355	3.546914	1.201727	0.000142
 422	4.1889e+01	16.7578	56.045537	0.000314	3.141552	1.064387	0.000126
 423	4.1989e+01	16.7931	56.178762	0.000334	3.344233	1.133057	0.000134
 424	4.2089e+01	16.8412	56.287765	0.000274	2.736190	0.927046	0.000110
 425	4.2188e+01	16.8797	56.453288	0.000415	4.154956	1.407737	0.000166
 426	4.2288e+01	16.9134	56.566327	0.000284	2.837531	0.961381	0.000114
 427	4.2387e+01	16.9664	56.711664	0.000365	3.648254	1.236062	0.000146
 428	4.2486e+01	17.0033	56.848927	0.000345	3.445573	1.167392	0.000138
 429	4.2586e+01	17.0353	57.014449	0.000415	4.154956	1.407737	0.000166
 430	4.2685e+01	17.0787	57.087118	0.000182	1.824127	0.618031	0.000073
 431	4.2785e+01	17.1268	57.236492	0.000375	3.749594	1.270397	0.000150
 432	4.2885e+01	17.1605	57.402014	0.000415	4.154956	1.407737	0.000166
 433	4.2984e+01	17.2006	57.494869	0.000233	2.330829	0.789706	0.000093
 434	4.3084e+01	17.2423	57.652317	0.000395	3.952275	1.339067	0.000158
 435	4.3183e+01	17.2776	57.745171	0.000233	2.330829	0.789706	0.000093
 436	4.3282e+01	17.3225	57.898582	0.000385	3.850935	1.304732	0.000154
 437	4.3382e+01	17.3546	57.995473	0.000243	2.432169	0.824041	0.000097
 438	4.3481e+01	17.3979	58.156959	0.000405	4.053615	1.373402	0.000162
 439	4.3581e+01	17.4428	58.330556	0.000436	4.357637	1.476407	0.000174
 440	4.3681e+01	17.4845	58.411298	0.000203	2.026808	0.686701	0.000081
 441	4.3780e+01	17.5166	58.564710	0.000385	3.850935	1.304732	0.000154
 442	4.3880e+01	17.5615	58.681787	0.000294	2.938871	0.995717	0.000118
 443	4.3979e+01	17.5968	58.827123	0.000365	3.648254	1.236062	0.000146
 444	4.4078e+01	17.6385	58.940163	0.000284	2.837531	0.961381	0.000114
 445	4.4178e+01	17.6819	59.081463	0.000355	3.546914	1.201727	0.000142
 446	4.4278e+01	17.7171	59.210651	0.000324	3.242892	1.098722	0.000130
 447	4.4377e+01	17.7589	59.335803	0.000314	3.141552	1.064387	0.000126
 448	4.4477e+01	17.8038	59.485177	0.000375	3.749594	1.270397	0.000150
 449	4.4576e+01	17.8294	59.598216	0.000284	2.837531	0.961381	0.000114
 450	4.4675e+01	17.8712	59.739516	0.000355	3.546914	1.201727	0.000142
 451	4.4775e+01	17.9081	59.844482	0.000263	2.634850	0.892711	0.000105
 452	4.4874e+01	17.9594	59.993856	0.000375	3.749594	1.270397	0.000150
 453	4.4974e+01	18.0027	60.151304	0.000395	3.952275	1.339067	0.000158
 454	4.5074e+01	18.0396	60.260307	0.000274	2.736190	0.927046	0.000110
 455	4.5173e+01	18.0717	60.401606	0.000355	3.546914	1.201727	0.000142
 456	4.5273e+01	18.1214	60.526758	0.000314	3.141552	1.064387	0.000126
 457	4.5372e+01	18.1567	60.639797	0.000284	2.837531	0.961381	0.000114
 458	4.5471e+01	18.1936	60.793209	0.000385	3.850935	1.304732	0.000154
 459	4.5571e+01	18.2305	60.950657	0.000395	3.952275	1.339067	0.000158
 460	4.5670e+01	18.2690	61.067734	0.000294	2.938871	0.995717	0.000118
 461	4.5770e+01	18.3171	61.213071	0.000365	3.648254	1.236062	0.000146
 462	4.5870e+01	18.3540	61.358408	0.000365	3.648254	1.236062	0.000146
 463	4.5969e+01	18.3877	61.495670	0.000345	3.445573	1.167392	0.000138
 464	4.6069e+01	18.4310	61.592561	0.000243	2.432169	0.824041	0.000097
 465	4.6168e+01	18.4792	61.737898	0.000365	3.648254	1.236062	0.000146
 466	4.6267e+01	18.5225	61.883235	0.000365	3.648254	1.236062	0.000146
 467	4.6367e+01	18.5578	62.008386	0.000314	3.141552	1.064387	0.000126
 468	4.6467e+01	18.5931	62.133538	0.000314	3.141552	1.064387	0.000126
 469	4.6566e+01	18.6332	62.262726	0.000324	3.242892	1.098722	0.000130
 470	4.6666e+01	18.6813	62.412100	0.000375	3.749594	1.270397	0.000150
 471	4.6765e+01	18.7150	62.537251	0.000314	3.141552	1.064387	0.000126
 472	4.6864e+01	18.7519	62.646254	0.000274	2.736190	0.927046	0.000110
 473	4.6964e+01	18.7936	62.831962	0.000466	4.661658	1.579412	0.000187
 474	4.7063e+01	18.8305	62.920779	0.000223	2.229489	0.755371	0.000089
 475	4.7163e+01	18.8674	63.054005	0.000334	3.344233	1.133057	0.000134
 476	4.7263e+01	18.9123	63.207416	0.000385	3.850935	1.304732	0.000154
 477	4.7362e+01	18.9476	63.324493	0.000294	2.938871	0.995717	0.000118
 478	4.7462e+01	19.0037	63.498089	0.000436	4.357637	1.476407	0.000174
 479	4.7561e+01	19.0374	63.582869	0.000213	2.128148	0.721036	0.000085
 480	4.7660e+01	19.0759	63.764540	0.000456	4.560317	1.545077	0.000183
 481	4.7760e+01	19.1144	63.881617	0.000294	2.938871	0.995717	0.000118
 482	4.7859e+01	19.1497	63.966397	0.000213	2.128148	0.721036	0.000085
 483	4.7959e+01	19.1898	64.123845	0.000395	3.952275	1.339067	0.000158
 484	4.8059e+01	19.2348	64.261108	0.000345	3.445573	1.167392	0.000138
 485	4.8158e+01	19.2781	64.418556	0.000395	3.952275	1.339067	0.000158
 486	4.8258e+01	19.3134	64.523522	0.000263	2.634850	0.892711	0.000105
 487	4.8357e+01	19.3535	64.660785	0.000345	3.445573	1.167392	0.000138
 488	4.8456e+01	19.3904	64.802084	0.000355	3.546914	1.201727	0.000142
 489	4.8556e+01	19.4241	64.923198	0.000304	3.040212	1.030052	0.000122
 490	4.8656e+01	19.4722	65.052387	0.000324	3.242892	1.098722	0.000130
 491	4.8755e+01	19.5187	65.193686	0.000355	3.546914	1.201727	0.000142
 492	4.8855e+01	19.5508	65.343060	0.000375	3.749594	1.270397	0.000150
 493	4.8954e+01	19.5925	65.480323	0.000345	3.445573	1.167392	0.000138
 494	4.9053e+01	19.6230	65.605474	0.000314	3.141552	1.064387	0.000126
 495	4.9153e+01	19.6743	65.750811	0.000365	3.648254	1.236062	0.000146
 496	4.9252e+01	19.7080	65.867888	0.000294	2.938871	0.995717	0.000118
 497	4.9352e+01	19.7385	66.053596	0.000466	4.661658	1.579412	0.000187
 498	4.9452e+01	19.8026	66.166636	0.000284	2.837531	0.961381	0.000114
 499	4.9551e+01	19.8251	66.283713	0.000294	2.938871	0.995717	0.000118
 500	4.9651e+01	19.8652	66.420976	0.000345	3.445573	1.167392	0.000138
 501	4.9750e+01	19.9117	66.542090	0.000304	3.040212	1.030052	0.000122
 502	4.9849e+01	19.9438	66.671278	0.000324	3.242892	1.098722	0.000130
 503	4.9949e+01	19.9871	66.788355	0.000294	2.938871	0.995717	0.000118
 504	5.0048e+01	19.9486	66.739909	0.000122	1.216085	0.412021	-0.000049
 505	5.0148e+01	19.9101	66.663204	0.000193	1.925467	0.652366	-0.000077
 506	5.0248e+01	19.8668	66.509793	0.000385	3.850935	1.304732	-0.000154
 507	5.0347e+01	19.8283	66.453273	0.000142	1.418765	0.480691	-0.000057
 508	5.0447e+01	19.7930	66.392716	0.000152	1.520106	0.515026	-0.000061
 509	5.0546e+01	19.7545	66.263527	0.000324	3.242892	1.098722	-0.000130
 510	5.0645e+01	19.7128	66.130302	0.000334	3.344233	1.133057	-0.000134
 511	5.0745e+01	19.6759	66.021299	0.000274	2.736190	0.927046	-0.000110
 512	5.0844e+01	19.6278	65.904222	0.000294	2.938871	0.995717	-0.000118
 513	5.0944e+01	19.5909	65.831554	0.000182	1.824127	0.618031	-0.000073
 514	5.1044e+01	19.5476	65.726588	0.000263	2.634850	0.892711	-0.000105
 515	5.1143e+01	19.5139	65.621623	0.000263	2.634850	0.892711	-0.000105
 516	5.1242e+01	19.4674	65.512620	0.000274	2.736190	0.927046	-0.000110
 517	5.1342e+01	19.4257	65.415729	0.000243	2.432169	0.824041	-0.000097
 518	5.1441e+01	19.3888	65.290578	0.000314	3.141552	1.064387	-0.000126
 519	5.1541e+01	19.3438	65.189649	0.000253	2.533510	0.858376	-0.000101
 520	5.1641e+01	19.3102	65.104869	0.000213	2.128148	0.721036	-0.000085
 521	5.1740e+01	19.2668	64.999904	0.000263	2.634850	0.892711	-0.000105
 522	5.1840e+01	19.2299	64.923198	0.000193	1.925467	0.652366	-0.000077
 523	5.1939e+01	19.1882	64.794010	0.000324	3.242892	1.098722	-0.000130
 524	5.2038e+01	19.1513	64.672896	0.000304	3.040212	1.030052	-0.000122
 525	5.2138e+01	19.1112	64.559856	0.000284	2.837531	0.961381	-0.000114
 526	5.2237e+01	19.0743	64.467002	0.000233	2.330829	0.789706	-0.000093
 527	5.2337e+01	19.0406	64.370111	0.000243	2.432169	0.824041	-0.000097
 528	5.2437e+01	19.0053	64.248997	0.000304	3.040212	1.030052	-0.000122
 529	5.2536e+01	18.9428	64.144031	0.000263	2.634850	0.892711	-0.000105
 530	5.2636e+01	18.9155	64.039066	0.000263	2.634850	0.892711	-0.000105
 531	5.2735e+01	18.8738	63.921989	0.000294	2.938871	0.995717	-0.000118
 532	5.2834e+01	18.8289	63.821060	0.000253	2.533510	0.858376	-0.000101
 533	5.2934e+01	18.7968	63.708021	0.000284	2.837531	0.961381	-0.000114
 534	5.3033e+01	18.7519	63.550572	0.000395	3.952275	1.339067	-0.000158
 535	5.3133e+01	18.7214	63.465792	0.000213	2.128148	0.721036	-0.000085
 536	5.3233e+01	18.6765	63.385050	0.000203	2.026808	0.686701	-0.000081
 537	5.3332e+01	18.6267	63.276047	0.000274	2.736190	0.927046	-0.000110
 538	5.3431e+01	18.6011	63.122636	0.000385	3.850935	1.304732	-0.000154
 539	5.3531e+01	18.5578	63.041893	0.000203	2.026808	0.686701	-0.000081
 540	5.3630e+01	18.5289	62.908668	0.000334	3.344233	1.133057	-0.000134
 541	5.3730e+01	18.4743	62.795628	0.000284	2.837531	0.961381	-0.000114
 542	5.3830e+01	18.4391	62.686625	0.000274	2.736190	0.927046	-0.000110
 543	5.3929e+01	18.3941	62.581660	0.000263	2.634850	0.892711	-0.000105
 544	5.4029e+01	18.3620	62.444397	0.000345	3.445573	1.167392	-0.000138
 545	5.4128e+01	18.3171	62.347506	0.000243	2.432169	0.824041	-0.000097
 546	5.4227e+01	18.2770	62.210243	0.000345	3.445573	1.167392	-0.000138
 547	5.4327e+01	18.2417	62.101240	0.000274	2.736190	0.927046	-0.000110
 548	5.4426e+01	18.2032	61.996275	0.000263	2.634850	0.892711	-0.000105
 549	5.4526e+01	18.1567	61.887272	0.000274	2.736190	0.927046	-0.000110
 550	5.4626e+01	18.1150	61.754047	0.000334	3.344233	1.133057	-0.000134
 551	5.4725e+01	18.0701	61.636970	0.000294	2.938871	0.995717	-0.000118
 552	5.4825e+01	18.0284	61.540079	0.000243	2.432169	0.824041	-0.000097
 553	5.4924e+01	17.9947	61.406853	0.000334	3.344233	1.133057	-0.000134
 554	5.5023e+01	17.9546	61.293813	0.000284	2.837531	0.961381	-0.000114
 555	5.5123e+01	17.9209	61.209033	0.000213	2.128148	0.721036	-0.000085
 556	5.5222e+01	17.8712	61.055622	0.000385	3.850935	1.304732	-0.000154
 557	5.5322e+01	17.8343	60.978917	0.000193	1.925467	0.652366	-0.000077
 558	5.5422e+01	17.7990	60.845691	0.000334	3.344233	1.133057	-0.000134
 559	5.5521e+01	17.7589	60.708429	0.000345	3.445573	1.167392	-0.000138
 560	5.5620e+01	17.7171	60.607500	0.000253	2.533510	0.858376	-0.000101
 561	5.5720e+01	17.6786	60.458126	0.000375	3.749594	1.270397	-0.000150
 562	5.5819e+01	17.6369	60.349124	0.000274	2.736190	0.927046	-0.000110
 563	5.5919e+01	17.6032	60.203787	0.000365	3.648254	1.236062	-0.000146
 564	5.6019e+01	17.5583	60.106895	0.000243	2.432169	0.824041	-0.000097
 565	5.6118e+01	17.5262	59.985781	0.000304	3.040212	1.030052	-0.000122
 566	5.6218e+01	17.4733	59.876779	0.000274	2.736190	0.927046	-0.000110
 567	5.6317e+01	17.4396	59.767776	0.000274	2.736190	0.927046	-0.000110
 568	5.6416e+01	17.4011	59.626476	0.000355	3.546914	1.201727	-0.000142
 569	5.6516e+01	17.3562	59.525548	0.000253	2.533510	0.858376	-0.000101
 570	5.6615e+01	17.3225	59.448842	0.000193	1.925467	0.652366	-0.000077
 571	5.6715e+01	17.2696	59.271208	0.000446	4.458977	1.510742	-0.000179
 572	5.6815e+01	17.2407	59.178354	0.000233	2.330829	0.789706	-0.000093
 573	5.6914e+01	17.2102	59.053203	0.000314	3.141552	1.064387	-0.000126
 574	5.7014e+01	17.1669	58.944200	0.000274	2.736190	0.927046	-0.000110
 575	5.7113e+01	17.1204	58.810975	0.000334	3.344233	1.133057	-0.000134
 576	5.7212e+01	17.0867	58.714084	0.000243	2.432169	0.824041	-0.000097
 577	5.7312e+01	17.0353	58.597007	0.000294	2.938871	0.995717	-0.000118
 578	5.7411e+01	17.0017	58.427447	0.000426	4.256296	1.442072	-0.000170
 579	5.7511e+01	16.9648	58.314407	0.000284	2.837531	0.961381	-0.000114
 580	5.7611e+01	16.9134	58.152922	0.000405	4.053615	1.373402	-0.000162
 581	5.7710e+01	16.8813	58.056030	0.000243	2.432169	0.824041	-0.000097
 582	5.7809e+01	16.8380	57.934916	0.000304	3.040212	1.030052	-0.000122
 583	5.7909e+01	16.7963	57.850137	0.000213	2.128148	0.721036	-0.000085
 584	5.8008e+01	16.7546	57.724985	0.000314	3.141552	1.064387	-0.000126
 585	5.8108e+01	16.7161	57.563500	0.000405	4.053615	1.373402	-0.000162
 586	5.8208e+01	16.6808	57.462572	0.000253	2.533510	0.858376	-0.000101
 587	5.8307e+01	16.6503	57.357606	0.000263	2.634850	0.892711	-0.000105
 588	5.8407e+01	16.6006	57.236492	0.000304	3.040212	1.030052	-0.000122
 589	5.8506e+01	16.5589	57.070969	0.000415	4.154956	1.407737	-0.000166
 590	5.8605e+01	16.5188	56.961967	0.000274	2.736190	0.927046	-0.000110
 591	5.8705e+01	16.4771	56.820667	0.000355	3.546914	1.201727	-0.000142
 592	5.8804e+01	16.4354	56.743961	0.000193	1.925467	0.652366	-0.000077
 593	5.8904e+01	16.3985	56.602662	0.000355	3.546914	1.201727	-0.000142
 594	5.9004e+01	16.3568	56.465399	0.000345	3.445573	1.167392	-0.000138
 595	5.9103e+01	16.3279	56.380619	0.000213	2.128148	0.721036	-0.000085
 596	5.9203e+01	16.2814	56.227208	0.000385	3.850935	1.304732	-0.000154
 597	5.9302e+01	16.2380	56.134354	0.000233	2.330829	0.789706	-0.000093
 598	5.9401e+01	16.2028	55.980943	0.000385	3.850935	1.304732	-0.000154
 599	5.9501e+01	16.1610	55.888089	0.000233	2.330829	0.789706	-0.000093
 600	5.9600e+01	16.1209	55.766975	0.000304	3.040212	1.030052	-0.000122
 601	5.9700e+01	16.0872	55.613563	0.000385	3.850935	1.304732	-0.000154
 602	5.9800e+01	16.0439	55.532821	0.000203	2.026808	0.686701	-0.000081
 603	5.9899e+01	15.9974	55.399595	0.000334	3.344233	1.133057	-0.000134
 604	5.9998e+01	15.9653	55.238110	0.000405	4.053615	1.373402	-0.000162
 605	6.0098e+01	15.9284	55.169478	0.000172	1.722787	0.583696	-0.000069
 606	6.0197e+01	15.8867	55.016067	0.000385	3.850935	1.304732	-0.000154
 607	6.0297e+01	15.8450	54.866693	0.000375	3.749594	1.270397	-0.000150
 608	6.0397e+01	15.8033	54.753653	0.000284	2.837531	0.961381	-0.000114
 609	6.0496e+01	15.7696	54.648688	0.000263	2.634850	0.892711	-0.000105
 610	6.0596e+01	15.7343	54.495277	0.000385	3.850935	1.304732	-0.000154
 611	6.0695e+01	15.6814	54.382237	0.000284	2.837531	0.961381	-0.000114
 612	6.0794e+01	15.6573	54.212677	0.000426	4.256296	1.442072	-0.000170
 613	6.0894e+01	15.6060	54.115786	0.000243	2.432169	0.824041	-0.000097
 614	6.0993e+01	15.5659	54.014858	0.000253	2.533510	0.858376	-0.000101
 615	6.1093e+01	15.5290	53.861446	0.000385	3.850935	1.304732	-0.000154
 616	6.1193e+01	15.4873	53.736295	0.000314	3.141552	1.064387	-0.000126
 617	6.1292e+01	15.4536	53.631330	0.000263	2.634850	0.892711	-0.000105
 618	6.1392e+01	15.4167	53.502141	0.000324	3.242892	1.098722	-0.000130
 619	6.1491e+01	15.3669	53.385064	0.000294	2.938871	0.995717	-0.000118
 620	6.1590e+01	15.3252	53.239728	0.000365	3.648254	1.236062	-0.000146
 621	6.1690e+01	15.2851	53.126688	0.000284	2.837531	0.961381	-0.000114
 622	6.1789e+01	15.2466	53.009611	0.000294	2.938871	0.995717	-0.000118
 623	6.1889e+01	15.2081	52.876385	0.000334	3.344233	1.133057	-0.000134
 624	6.1989e+01	15.1584	52.763346	0.000284	2.837531	0.961381	-0.000114
 625	6.2088e+01	15.1215	52.642231	0.000304	3.040212	1.030052	-0.000122
 626	6.2188e+01	15.0830	52.517080	0.000314	3.141552	1.064387	-0.000126
 627	6.2287e+01	15.0461	52.363669	0.000385	3.850935	1.304732	-0.000154
 628	6.2386e+01	15.0285	52.258704	0.000263	2.634850	0.892711	-0.000105
 629	6.2486e+01	14.9627	52.137589	0.000304	3.040212	1.030052	-0.000122
 630	6.2586e+01	14.9290	52.004364	0.000334	3.344233	1.133057	-0.000134
 631	6.2685e+01	14.8825	51.911510	0.000233	2.330829	0.789706	-0.000093
 632	6.2785e+01	14.8584	51.721765	0.000476	4.762998	1.613747	-0.000191
 633	6.2884e+01	14.8055	51.645059	0.000193	1.925467	0.652366	-0.000077
 634	6.2983e+01	14.7718	51.532019	0.000284	2.837531	0.961381	-0.000114
 635	6.3083e+01	14.7333	51.374571	0.000395	3.952275	1.339067	-0.000158
 636	6.3182e+01	14.6900	51.297865	0.000193	1.925467	0.652366	-0.000077
 637	6.3282e+01	14.6402	51.176751	0.000304	3.040212	1.030052	-0.000122
 638	6.3382e+01	14.6178	51.047563	0.000324	3.242892	1.098722	-0.000130
 639	6.3481e+01	14.5729	50.886077	0.000405	4.053615	1.373402	-0.000162
 640	6.3581e+01	14.5343	50.809372	0.000193	1.925467	0.652366	-0.000077
 641	6.3680e+01	14.4814	50.655961	0.000385	3.850935	1.304732	-0.000154
 642	6.3779e+01	14.4509	50.542921	0.000284	2.837531	0.961381	-0.000114
 643	6.3879e+01	14.4188	50.385473	0.000395	3.952275	1.339067	-0.000158
 644	6.3978e+01	14.3707	50.308767	0.000193	1.925467	0.652366	-0.000077
 645	6.4078e+01	14.3338	50.179579	0.000324	3.242892	1.098722	-0.000130
 646	6.4177e+01	14.2873	50.062502	0.000294	2.938871	0.995717	-0.000118
 647	6.4277e+01	14.2408	49.909091	0.000385	3.850935	1.304732	-0.000154
 648	6.4376e+01	14.2055	49.767791	0.000355	3.546914	1.201727	-0.000142
 649	6.4476e+01	14.1734	49.670900	0.000243	2.432169	0.824041	-0.000097
 650	6.4576e+01	14.1269	49.533637	0.000345	3.445573	1.167392	-0.000138
 651	6.4675e+01	14.0964	49.404449	0.000324	3.242892	1.098722	-0.000130
 652	6.4775e+01	14.0467	49.263149	0.000355	3.546914	1.201727	-0.000142
 653	6.4874e+01	14.0162	49.194518	0.000172	1.722787	0.583696	-0.000069
 654	6.4974e+01	13.9616	49.016884	0.000446	4.458977	1.510742	-0.000179
 655	6.5073e+01	13.9344	48.887695	0.000324	3.242892	1.098722	-0.000130
 656	6.5172e+01	13.8927	48.758507	0.000324	3.242892	1.098722	-0.000130
 657	6.5272e+01	13.8590	48.681801	0.000193	1.925467	0.652366	-0.000077
 658	6.5371e+01	13.8140	48.536464	0.000365	3.648254	1.236062	-0.000146
 659	6.5471e+01	13.7788	48.451685	0.000213	2.128148	0.721036	-0.000085
 660	6.5570e+01	13.7242	48.282125	0.000426	4.256296	1.442072	-0.000170
 661	6.5670e+01	13.6873	48.185234	0.000243	2.432169	0.824041	-0.000097
 662	6.5769e+01	13.6440	48.027785	0.000395	3.952275	1.339067	-0.000158
 663	6.5869e+01	13.6039	47.914746	0.000284	2.837531	0.961381	-0.000114
 664	6.5969e+01	13.5814	47.809780	0.000263	2.634850	0.892711	-0.000105
 665	6.6068e+01	13.5333	47.696740	0.000284	2.837531	0.961381	-0.000114
 666	6.6168e+01	13.4932	47.519106	0.000446	4.458977	1.510742	-0.000179
 667	6.6267e+01	13.4579	47.438363	0.000203	2.026808	0.686701	-0.000081
 668	6.6367e+01	13.4194	47.329361	0.000274	2.736190	0.927046	-0.000110
 669	6.6466e+01	13.3729	47.196135	0.000334	3.344233	1.133057	-0.000134
 670	6.6566e+01	13.3312	47.066947	0.000324	3.242892	1.098722	-0.000130
 671	6.6665e+01	13.2895	46.897387	0.000426	4.256296	1.442072	-0.000170
 672	6.6764e+01	13.2542	46.816645	0.000203	2.026808	0.686701	-0.000081
 673	6.6864e+01	13.2173	46.699568	0.000294	2.938871	0.995717	-0.000118
 674	6.6963e+01	13.1772	46.521934	0.000446	4.458977	1.510742	-0.000179
 675	6.7063e+01	13.1306	46.429080	0.000233	2.330829	0.789706	-0.000093
 676	6.7162e+01	13.0937	46.283743	0.000365	3.648254	1.236062	-0.000146
 677	6.7262e+01	13.0617	46.166666	0.000294	2.938871	0.995717	-0.000118
 678	6.7362e+01	13.0248	46.021329	0.000365	3.648254	1.236062	-0.000146
 679	6.7461e+01	12.9750	45.920400	0.000253	2.533510	0.858376	-0.000101
 680	6.7561e+01	12.9349	45.799286	0.000304	3.040212	1.030052	-0.000122
 681	6.7660e+01	12.8964	45.657987	0.000355	3.546914	1.201727	-0.000142
 682	6.7760e+01	12.8659	45.520724	0.000345	3.445573	1.167392	-0.000138
 683	6.7859e+01	12.8178	45.371350	0.000375	3.749594	1.270397	-0.000150
 684	6.7959e+01	12.7793	45.286570	0.000213	2.128148	0.721036	-0.000085
 685	6.8058e+01	12.7424	45.141233	0.000365	3.648254	1.236062	-0.000146
 686	6.8157e+01	12.6991	45.028193	0.000284	2.837531	0.961381	-0.000114
 687	6.8257e+01	12.6606	44.886894	0.000355	3.546914	1.201727	-0.000142
 688	6.8356e+01	12.6205	44.773854	0.000284	2.837531	0.961381	-0.000114
 689	6.8456e+01	12.5804	44.640628	0.000334	3.344233	1.133057	-0.000134
 690	6.8555e+01	12.5387	44.519514	0.000304	3.040212	1.030052	-0.000122
 691	6.8655e+01	12.4890	44.390326	0.000324	3.242892	1.098722	-0.000130
 692	6.8754e+01	12.4617	44.261138	0.000324	3.242892	1.098722	-0.000130
 693	6.8854e+01	12.4216	44.127912	0.000334	3.344233	1.133057	-0.000134
 694	6.8954e+01	12.3799	43.978538	0.000375	3.749594	1.270397	-0.000150
 695	6.9053e+01	12.3398	43.853387	0.000314	3.141552	1.064387	-0.000126
 696	6.9153e+01	12.2964	43.724199	0.000324	3.242892	1.098722	-0.000130
 697	6.9252e+01	12.2676	43.578862	0.000365	3.648254	1.236062	-0.000146
 698	6.9352e+01	12.2226	43.510230	0.000172	1.722787	0.583696	-0.000069
 699	6.9451e+01	12.1793	43.372968	0.000345	3.445573	1.167392	-0.000138
 700	6.9550e+01	12.1264	43.183222	0.000476	4.762998	1.613747	-0.000191
 701	6.9650e+01	12.0975	43.098443	0.000213	2.128148	0.721036	-0.000085
 702	6.9749e+01	12.0638	42.965217	0.000334	3.344233	1.133057	-0.000134
 703	6.9849e+01	12.0157	42.823917	0.000355	3.546914	1.201727	-0.000142
 704	6.9948e+01	11.9804	42.694729	0.000324	3.242892	1.098722	-0.000130
 705	7.0048e+01	11.9387	42.573615	0.000304	3.040212	1.030052	-0.000122
 706	7.0147e+01	11.9018	42.472687	0.000253	2.533510	0.858376	-0.000101
 707	7.0247e+01	11.8601	42.327350	0.000365	3.648254	1.236062	-0.000146
 708	7.0347e+01	11.8216	42.161827	0.000415	4.154956	1.407737	-0.000166
 709	7.0446e+01	11.7847	42.048787	0.000284	2.837531	0.961381	-0.000114
 710	7.0546e+01	11.7398	41.911525	0.000345	3.445573	1.167392	-0.000138
 711	7.0645e+01	11.7077	41.798485	0.000284	2.837531	0.961381	-0.000114
 712	7.0745e+01	11.6548	41.649111	0.000375	3.749594	1.270397	-0.000150
 713	7.0844e+01	11.6195	41.515885	0.000334	3.344233	1.133057	-0.000134
 714	7.0944e+01	11.5906	41.398808	0.000294	2.938871	0.995717	-0.000118
 715	7.1043e+01	11.5409	41.241360	0.000395	3.952275	1.339067	-0.000158
 716	7.1142e+01	11.5072	41.108135	0.000334	3.344233	1.133057	-0.000134
 717	7.1242e+01	11.4671	40.982983	0.000314	3.141552	1.064387	-0.000126
 718	7.1341e+01	11.4270	40.849758	0.000334	3.344233	1.133057	-0.000134
 719	7.1441e+01	11.3884	40.708458	0.000355	3.546914	1.201727	-0.000142
 720	7.1540e+01	11.3516	40.591381	0.000294	2.938871	0.995717	-0.000118
 721	7.1640e+01	11.3002	40.506601	0.000213	2.128148	0.721036	-0.000085
 722	7.1740e+01	11.2601	40.312819	0.000486	4.864339	1.648083	-0.000195
 723	7.1839e+01	11.2328	40.195742	0.000294	2.938871	0.995717	-0.000118
 724	7.1939e+01	11.1815	40.058479	0.000345	3.445573	1.167392	-0.000138
 725	7.2038e+01	11.1414	39.921217	0.000345	3.445573	1.167392	-0.000138
 726	7.2138e+01	11.1013	39.787991	0.000334	3.344233	1.133057	-0.000134
 727	7.2237e+01	11.0628	39.646692	0.000355	3.546914	1.201727	-0.000142
 728	7.2337e+01	11.0275	39.481169	0.000415	4.154956	1.407737	-0.000166
 729	7.2436e+01	10.9858	39.392352	0.000223	2.229489	0.755371	-0.000089
 730	7.2535e+01	10.9345	39.238941	0.000385	3.850935	1.304732	-0.000154
 731	7.2635e+01	10.9056	39.121864	0.000294	2.938871	0.995717	-0.000118
 732	7.2734e+01	10.8607	38.960378	0.000405	4.053615	1.373402	-0.000162
 733	7.2834e+01	10.8254	38.855413	0.000263	2.634850	0.892711	-0.000105
 734	7.2933e+01	10.7885	38.714113	0.000355	3.546914	1.201727	-0.000142
 735	7.3033e+01	10.7452	38.588962	0.000314	3.141552	1.064387	-0.000126
 736	7.3132e+01	10.7002	38.415365	0.000436	4.357637	1.476407	-0.000174
 737	7.3232e+01	10.6601	38.314437	0.000253	2.533510	0.858376	-0.000101
 738	7.3332e+01	10.6248	38.217545	0.000243	2.432169	0.824041	-0.000097
 739	7.3431e+01	10.5815	38.015689	0.000507	5.067019	1.716753	-0.000203
 740	7.3531e+01	10.5478	37.902649	0.000284	2.837531	0.961381	-0.000114
 741	7.3630e+01	10.4981	37.720978	0.000456	4.560317	1.545077	-0.000183
 742	7.3730e+01	10.4628	37.603901	0.000294	2.938871	0.995717	-0.000118
 743	7.3829e+01	10.4323	37.482787	0.000304	3.040212	1.030052	-0.000122
 744	7.3928e+01	10.3890	37.361673	0.000304	3.040212	1.030052	-0.000122
 745	7.4028e+01	10.3409	37.236521	0.000314	3.141552	1.064387	-0.000126
 746	7.4127e+01	10.3056	37.087147	0.000375	3.749594	1.270397	-0.000150
 747	7.4227e+01	10.2623	36.917588	0.000426	4.256296	1.442072	-0.000170
 748	7.4326e+01	10.2286	36.804548	0.000284	2.837531	0.961381	-0.000114
 749	7.4426e+01	10.1837	36.630951	0.000436	4.357637	1.476407	-0.000174
 750	7.4525e+01	10.1548	36.534060	0.000243	2.432169	0.824041	-0.000097
 751	7.4625e+01	10.1211	36.388723	0.000365	3.648254	1.236062	-0.000146
 752	7.4725e+01	10.0666	36.203015	0.000466	4.661658	1.579412	-0.000187
 753	7.4824e+01	10.0297	36.094012	0.000274	2.736190	0.927046	-0.000110
 754	7.4924e+01	9.9783	35.976935	0.000294	2.938871	0.995717	-0.000118
 755	7.5023e+01	9.9495	35.851784	0.000314	3.141552	1.064387	-0.000126
 756	7.5123e+01	9.9093	35.670113	0.000456	4.560317	1.545077	-0.000183
 757	7.5222e+01	9.8741	35.573222	0.000243	2.432169	0.824041	-0.000097
 758	7.5322e+01	9.8291	35.387513	0.000466	4.661658	1.579412	-0.000187
 759	7.5421e+01	9.7842	35.205842	0.000456	4.560317	1.545077	-0.000183
 760	7.5520e+01	9.7409	35.108951	0.000243	2.432169	0.824041	-0.000097
 761	7.5620e+01	9.7088	34.947466	0.000405	4.053615	1.373402	-0.000162
 762	7.5719e+01	9.6639	34.850574	0.000243	2.432169	0.824041	-0.000097
 763	7.5819e+01	9.6334	34.733497	0.000294	2.938871	0.995717	-0.000118
 764	7.5918e+01	9.5885	34.608346	0.000314	3.141552	1.064387	-0.000126
 765	7.6018e+01	9.5500	34.442824	0.000415	4.154956	1.407737	-0.000166
 766	7.6118e+01	9.5115	34.301524	0.000355	3.546914	1.201727	-0.000142
 767	7.6217e+01	9.4698	34.140038	0.000405	4.053615	1.373402	-0.000162
 768	7.6317e+01	9.4377	34.006813	0.000334	3.344233	1.133057	-0.000134
 769	7.6416e+01	9.3944	33.885699	0.000304	3.040212	1.030052	-0.000122
 770	7.6516e+01	9.3398	33.776696	0.000274	2.736190	0.927046	-0.000110
 771	7.6615e+01	9.3142	33.603099	0.000436	4.357637	1.476407	-0.000174
 772	7.6715e+01	9.2725	33.457762	0.000365	3.648254	1.236062	-0.000146
 773	7.6814e+01	9.2275	33.312426	0.000365	3.648254	1.236062	-0.000146
 774	7.6913e+01	9.1923	33.195349	0.000294	2.938871	0.995717	-0.000118
 775	7.7013e+01	9.1425	33.045975	0.000375	3.749594	1.270397	-0.000150
 776	7.7112e+01	9.1136	32.900638	0.000365	3.648254	1.236062	-0.000146
 777	7.7212e+01	9.0735	32.743189	0.000395	3.952275	1.339067	-0.000158
 778	7.7311e+01	9.0302	32.626112	0.000294	2.938871	0.995717	-0.000118
 779	7.7411e+01	8.9933	32.460590	0.000415	4.154956	1.407737	-0.000166
 780	7.7510e+01	8.9500	32.375810	0.000213	2.128148	0.721036	-0.000085
 781	7.7610e+01	8.9163	32.186065	0.000476	4.762998	1.613747	-0.000191
 782	7.7710e+01	8.8730	32.036691	0.000375	3.749594	1.270397	-0.000150
 783	7.7809e+01	8.8249	31.923651	0.000284	2.837531	0.961381	-0.000114
 784	7.7909e+01	8.8008	31.750054	0.000436	4.357637	1.476407	-0.000174
 785	7.8008e+01	8.7527	31.632977	0.000294	2.938871	0.995717	-0.000118
 786	7.8108e+01	8.7062	31.523974	0.000274	2.736190	0.927046	-0.000110
 787	7.8207e+01	8.6773	31.386712	0.000345	3.445573	1.167392	-0.000138
 788	7.8306e+01	8.6276	31.217152	0.000426	4.256296	1.442072	-0.000170
 789	7.8406e+01	8.5939	31.096038	0.000304	3.040212	1.030052	-0.000122
 790	7.8505e+01	8.5522	30.978961	0.000294	2.938871	0.995717	-0.000118
 791	7.8605e+01	8.5137	30.817476	0.000405	4.053615	1.373402	-0.000162
 792	7.8704e+01	8.4768	30.664064	0.000385	3.850935	1.304732	-0.000154
 793	7.8804e+01	8.4335	30.551025	0.000284	2.837531	0.961381	-0.000114
 794	7.8903e+01	8.3933	30.389539	0.000405	4.053615	1.373402	-0.000162
 795	7.9003e+01	8.3564	30.256314	0.000334	3.344233	1.133057	-0.000134
 796	7.9103e+01	8.3196	30.135200	0.000304	3.040212	1.030052	-0.000122
 797	7.9202e+01	8.2698	29.953529	0.000456	4.560317	1.545077	-0.000183
 798	7.9302e+01	8.2409	29.848563	0.000263	2.634850	0.892711	-0.000105
 799	7.9401e+01	8.1960	29.683041	0.000415	4.154956	1.407737	-0.000166
 800	7.9501e+01	8.1543	29.561926	0.000304	3.040212	1.030052	-0.000122
 801	7.9600e+01	8.1142	29.440812	0.000304	3.040212	1.030052	-0.000122
 802	7.9700e+01	8.0645	29.287401	0.000385	3.850935	1.304732	-0.000154
 803	7.9799e+01	8.0484	29.129953	0.000395	3.952275	1.339067	-0.000158
 804	7.9898e+01	7.9987	29.004802	0.000314	3.141552	1.064387	-0.000126
 805	7.9998e+01	7.9586	28.839279	0.000415	4.154956	1.407737	-0.000166
 806	8.0097e+01	7.9201	28.722202	0.000294	2.938871	0.995717	-0.000118
 807	8.0197e+01	7.8752	28.593014	0.000324	3.242892	1.098722	-0.000130
 808	8.0296e+01	7.8254	28.463826	0.000324	3.242892	1.098722	-0.000130
 809	8.0396e+01	7.7918	28.338674	0.000314	3.141552	1.064387	-0.000126
 810	8.0496e+01	7.7565	28.152966	0.000466	4.661658	1.579412	-0.000187
 811	8.0595e+01	7.7260	28.043963	0.000274	2.736190	0.927046	-0.000110
 812	8.0695e+01	7.6698	27.866329	0.000446	4.458977	1.510742	-0.000179
 813	8.0794e+01	7.6361	27.777512	0.000223	2.229489	0.755371	-0.000089
 814	8.0894e+01	7.6025	27.624101	0.000385	3.850935	1.304732	-0.000154
 815	8.0993e+01	7.5479	27.470690	0.000385	3.850935	1.304732	-0.000154
 816	8.1093e+01	7.5126	27.325353	0.000365	3.648254	1.236062	-0.000146
 817	8.1192e+01	7.4773	27.200202	0.000314	3.141552	1.064387	-0.000126
 818	8.1291e+01	7.4340	27.062939	0.000345	3.445573	1.167392	-0.000138
 819	8.1391e+01	7.3923	26.937788	0.000314	3.141552	1.064387	-0.000126
 820	8.1490e+01	7.3634	26.796488	0.000355	3.546914	1.201727	-0.000142
 821	8.1590e+01	7.3169	26.639040	0.000395	3.952275	1.339067	-0.000158
 822	8.1689e+01	7.2752	26.449295	0.000476	4.762998	1.613747	-0.000191
 823	8.1789e+01	7.2447	26.328181	0.000304	3.040212	1.030052	-0.000122
 824	8.1888e+01	7.1950	26.207067	0.000304	3.040212	1.030052	-0.000122
 825	8.1988e+01	7.1597	26.045581	0.000405	4.053615	1.373402	-0.000162
 826	8.2088e+01	7.1100	25.912356	0.000334	3.344233	1.133057	-0.000134
 827	8.2187e+01	7.0795	25.815464	0.000243	2.432169	0.824041	-0.000097
 828	8.2287e+01	7.0362	25.662053	0.000385	3.850935	1.304732	-0.000154
 829	8.2386e+01	7.0089	25.496531	0.000415	4.154956	1.407737	-0.000166
 830	8.2486e+01	6.9608	25.387528	0.000274	2.736190	0.927046	-0.000110
 831	8.2585e+01	6.9191	25.234117	0.000385	3.850935	1.304732	-0.000154
 832	8.2684e+01	6.8822	25.113003	0.000304	3.040212	1.030052	-0.000122
 833	8.2784e+01	6.8421	24.955555	0.000395	3.952275	1.339067	-0.000158
 834	8.2883e+01	6.7971	24.822329	0.000334	3.344233	1.133057	-0.000134
 835	8.2983e+01	6.7538	24.709289	0.000284	2.837531	0.961381	-0.000114
 836	8.3082e+01	6.7121	24.551841	0.000395	3.952275	1.339067	-0.000158
 837	8.3182e+01	6.6848	24.378244	0.000436	4.357637	1.476407	-0.000174
 838	8.3281e+01	6.6415	24.277316	0.000253	2.533510	0.858376	-0.000101
 839	8.3381e+01	6.5982	24.176387	0.000253	2.533510	0.858376	-0.000101
 840	8.3481e+01	6.5677	23.962419	0.000537	5.371041	1.819758	-0.000215
 841	8.3580e+01	6.5228	23.873602	0.000223	2.229489	0.755371	-0.000089
 842	8.3680e+01	6.4763	23.732302	0.000355	3.546914	1.201727	-0.000142
 843	8.3779e+01	6.4394	23.578891	0.000385	3.850935	1.304732	-0.000154
 844	8.3879e+01	6.4057	23.441629	0.000345	3.445573	1.167392	-0.000138
 845	8.3978e+01	6.3592	23.296292	0.000365	3.648254	1.236062	-0.000146
 846	8.4078e+01	6.3207	23.150955	0.000365	3.648254	1.236062	-0.000146
 847	8.4177e+01	6.2806	23.001581	0.000375	3.749594	1.270397	-0.000150
 848	8.4276e+01	6.2485	22.884504	0.000294	2.938871	0.995717	-0.000118
 849	8.4376e+01	6.1972	22.739167	0.000365	3.648254	1.236062	-0.000146
 850	8.4475e+01	6.1667	22.593830	0.000365	3.648254	1.236062	-0.000146
 851	8.4575e+01	6.1250	22.484827	0.000274	2.736190	0.927046	-0.000110
 852	8.4674e+01	6.0768	22.331416	0.000385	3.850935	1.304732	-0.000154
 853	8.4774e+01	6.0447	22.157819	0.000436	4.357637	1.476407	-0.000174
 854	8.4874e+01	6.0046	22.016520	0.000355	3.546914	1.201727	-0.000142
 855	8.4973e+01	5.9613	21.887331	0.000324	3.242892	1.098722	-0.000130
 856	8.5073e+01	5.9244	21.741995	0.000365	3.648254	1.236062	-0.000146
 857	8.5172e+01	5.8779	21.608769	0.000334	3.344233	1.133057	-0.000134
 858	8.5272e+01	5.8506	21.451321	0.000395	3.952275	1.339067	-0.000158
 859	8.5371e+01	5.8073	21.326170	0.000314	3.141552	1.064387	-0.000126
 860	8.5471e+01	5.7672	21.192944	0.000334	3.344233	1.133057	-0.000134
 861	8.5570e+01	5.7191	21.039533	0.000385	3.850935	1.304732	-0.000154
 862	8.5669e+01	5.6758	20.894196	0.000365	3.648254	1.236062	-0.000146
 863	8.5769e+01	5.6421	20.744822	0.000375	3.749594	1.270397	-0.000150
 864	8.5868e+01	5.6100	20.575262	0.000426	4.256296	1.442072	-0.000170
 865	8.5968e+01	5.5619	20.510668	0.000162	1.621446	0.549361	-0.000065
 866	8.6067e+01	5.5282	20.328997	0.000456	4.560317	1.545077	-0.000183
 867	8.6167e+01	5.4849	20.171549	0.000395	3.952275	1.339067	-0.000158
 868	8.6266e+01	5.4512	20.046398	0.000314	3.141552	1.064387	-0.000126
 869	8.6366e+01	5.4159	19.937395	0.000274	2.736190	0.927046	-0.000110
 870	8.6466e+01	5.3678	19.747649	0.000476	4.762998	1.613747	-0.000191
 871	8.6565e+01	5.3196	19.602313	0.000365	3.648254	1.236062	-0.000146
 872	8.6665e+01	5.2859	19.465050	0.000345	3.445573	1.167392	-0.000138
 873	8.6764e+01	5.2507	19.343936	0.000304	3.040212	1.030052	-0.000122
 874	8.6864e+01	5.2041	19.166302	0.000446	4.458977	1.510742	-0.000179
 875	8.6963e+01	5.1656	19.000779	0.000415	4.154956	1.407737	-0.000166
 876	8.7063e+01	5.1255	18.871591	0.000324	3.242892	1.098722	-0.000130
 877	8.7162e+01	5.0790	18.730291	0.000355	3.546914	1.201727	-0.000142
 878	8.7261e+01	5.0485	18.613214	0.000294	2.938871	0.995717	-0.000118
 879	8.7361e+01	5.0116	18.500175	0.000284	2.837531	0.961381	-0.000114
 880	8.7460e+01	4.9699	18.318503	0.000456	4.560317	1.545077	-0.000183
 881	8.7560e+01	4.9266	18.173167	0.000365	3.648254	1.236062	-0.000146
 882	8.7659e+01	4.8961	18.019755	0.000385	3.850935	1.304732	-0.000154
 883	8.7759e+01	4.8480	17.850196	0.000426	4.256296	1.442072	-0.000170
 884	8.7859e+01	4.8191	17.696785	0.000385	3.850935	1.304732	-0.000154
 885	8.7958e+01	4.7662	17.595856	0.000253	2.533510	0.858376	-0.000101
 886	8.8058e+01	4.7309	17.478779	0.000294	2.938871	0.995717	-0.000118
 887	8.8157e+01	4.6940	17.268848	0.000527	5.269700	1.785423	-0.000211
 888	8.8257e+01	4.6555	17.171957	0.000243	2.432169	0.824041	-0.000097
 889	8.8356e+01	4.6025	17.018546	0.000385	3.850935	1.304732	-0.000154
 890	8.8456e+01	4.5737	16.877246	0.000355	3.546914	1.201727	-0.000142
 891	8.8555e+01	4.5271	16.748058	0.000324	3.242892	1.098722	-0.000130
 892	8.8654e+01	4.4902	16.574461	0.000436	4.357637	1.476407	-0.000174
 893	8.8754e+01	4.4469	16.437198	0.000345	3.445573	1.167392	-0.000138
 894	8.8853e+01	4.4100	16.267638	0.000426	4.256296	1.442072	-0.000170
 895	8.8953e+01	4.3683	16.154599	0.000284	2.837531	0.961381	-0.000114
 896	8.9052e+01	4.3362	15.985039	0.000426	4.256296	1.442072	-0.000170
 897	8.9152e+01	4.2865	15.823554	0.000405	4.053615	1.373402	-0.000162
 898	8.9251e+01	4.2464	15.718588	0.000263	2.634850	0.892711	-0.000105
 899	8.9351e+01	4.2111	15.565177	0.000385	3.850935	1.304732	-0.000154
 900	8.9451e+01	4.1806	15.379469	0.000466	4.661658	1.579412	-0.000187
 901	8.9550e+01	4.1293	15.238169	0.000355	3.546914	1.201727	-0.000142
 902	8.9650e+01	4.0892	15.121092	0.000294	2.938871	0.995717	-0.000118
 903	8.9749e+01	4.0411	14.947495	0.000436	4.357637	1.476407	-0.000174
 904	8.9849e+01	4.0154	14.790047	0.000395	3.952275	1.339067	-0.000158
 905	8.9948e+01	3.9673	14.652784	0.000345	3.445573	1.167392	-0.000138
 906	9.0047e+01	3.9304	14.507447	0.000365	3.648254	1.236062	-0.000146
 907	9.0147e+01	3.8951	14.358073	0.000375	3.749594	1.270397	-0.000150
 908	9.0246e+01	3.8470	14.196588	0.000405	4.053615	1.373402	-0.000162
 909	9.0346e+01	3.8036	14.095659	0.000253	2.533510	0.858376	-0.000101
 910	9.0445e+01	3.7780	13.922063	0.000436	4.357637	1.476407	-0.000174
 911	9.0545e+01	3.7347	13.760577	0.000405	4.053615	1.373402	-0.000162
 912	9.0644e+01	3.6929	13.611203	0.000375	3.749594	1.270397	-0.000150
 913	9.0744e+01	3.6544	13.486052	0.000314	3.141552	1.064387	-0.000126
 914	9.0844e+01	3.6159	13.348789	0.000345	3.445573	1.167392	-0.000138
 915	9.0943e+01	3.5774	13.142895	0.000517	5.168360	1.751088	-0.000207
 916	9.1043e+01	3.5277	12.989484	0.000385	3.850935	1.304732	-0.000154
 917	9.1142e+01	3.4972	12.872407	0.000294	2.938871	0.995717	-0.000118
 918	9.1242e+01	3.4571	12.739182	0.000334	3.344233	1.133057	-0.000134
 919	9.1341e+01	3.4154	12.565585	0.000436	4.357637	1.476407	-0.000174
 920	9.1441e+01	3.3785	12.428322	0.000345	3.445573	1.167392	-0.000138
 921	9.1540e+01	3.3352	12.270874	0.000395	3.952275	1.339067	-0.000158
 922	9.1639e+01	3.2983	12.117463	0.000385	3.850935	1.304732	-0.000154
 923	9.1739e+01	3.2518	12.012497	0.000263	2.634850	0.892711	-0.000105
 924	9.1838e+01	3.2133	11.782381	0.000578	5.776402	1.957098	-0.000231
 925	9.1938e+01	3.1780	11.649155	0.000334	3.344233	1.133057	-0.000134
 926	9.2037e+01	3.1443	11.564375	0.000213	2.128148	0.721036	-0.000085
 927	9.2137e+01	3.0978	11.410964	0.000385	3.850935	1.304732	-0.000154
 928	9.2237e+01	3.0545	11.241404	0.000426	4.256296	1.442072	-0.000170
 929	9.2336e+01	3.0144	11.087993	0.000385	3.850935	1.304732	-0.000154
 930	9.2436e+01	2.9775	10.918434	0.000426	4.256296	1.442072	-0.000170
 931	9.2535e+01	2.9341	10.785208	0.000334	3.344233	1.133057	-0.000134
 932	9.2635e+01	2.8908	10.619686	0.000415	4.154956	1.407737	-0.000166
 933	9.2734e+01	2.8620	10.486460	0.000334	3.344233	1.133057	-0.000134
 934	9.2834e+01	2.8234	10.361309	0.000314	3.141552	1.064387	-0.000126
 935	9.2933e+01	2.7753	10.199823	0.000405	4.053615	1.373402	-0.000162
 936	9.3032e+01	2.7320	10.006041	0.000486	4.864339	1.648083	-0.000195
 937	9.3132e+01	2.6935	9.868778	0.000345	3.445573	1.167392	-0.000138
 938	9.3231e+01	2.6550	9.719404	0.000375	3.749594	1.270397	-0.000150
 939	9.3331e+01	2.6149	9.614439	0.000263	2.634850	0.892711	-0.000105
 940	9.3430e+01	2.5828	9.440842	0.000436	4.357637	1.476407	-0.000174
 941	9.3530e+01	2.5363	9.279356	0.000405	4.053615	1.373402	-0.000162
 942	9.3629e+01	2.4930	9.158242	0.000304	3.040212	1.030052	-0.000122
 943	9.3729e+01	2.4529	9.000794	0.000395	3.952275	1.339067	-0.000158
 944	9.3829e+01	2.4224	8.839309	0.000405	4.053615	1.373402	-0.000162
 945	9.3928e+01	2.3695	8.681860	0.000395	3.952275	1.339067	-0.000158
 946	9.4028e+01	2.3390	8.576895	0.000263	2.634850	0.892711	-0.000105
 947	9.4127e+01	2.2941	8.411372	0.000415	4.154956	1.407737	-0.000166
 948	9.4227e+01	2.2588	8.253924	0.000395	3.952275	1.339067	-0.000158
 949	9.4326e+01	2.2138	8.084364	0.000426	4.256296	1.442072	-0.000170
 950	9.4425e+01	2.1802	7.943065	0.000355	3.546914	1.201727	-0.000142
 951	9.4525e+01	2.1384	7.809839	0.000334	3.344233	1.133057	-0.000134
 952	9.4624e+01	2.0951	7.612019	0.000497	4.965679	1.682418	-0.000199
 953	9.4724e+01	2.0582	7.539351	0.000182	1.824127	0.618031	-0.000073
 954	9.4823e+01	2.0165	7.369791	0.000426	4.256296	1.442072	-0.000170
 955	9.4923e+01	1.9748	7.192157	0.000446	4.458977	1.510742	-0.000179
 956	9.5022e+01	1.9459	7.018560	0.000436	4.357637	1.476407	-0.000174
 957	9.5122e+01	1.8978	6.941855	0.000193	1.925467	0.652366	-0.000077
 958	9.5222e+01	1.8529	6.800555	0.000355	3.546914	1.201727	-0.000142
 959	9.5321e+01	1.8192	6.618884	0.000456	4.560317	1.545077	-0.000183
 960	9.5421e+01	1.7807	6.493733	0.000314	3.141552	1.064387	-0.000126
 961	9.5520e+01	1.7422	6.348396	0.000365	3.648254	1.236062	-0.000146
 962	9.5620e+01	1.7021	6.194985	0.000385	3.850935	1.304732	-0.000154
 963	9.5719e+01	1.6540	6.037536	0.000395	3.952275	1.339067	-0.000158
 964	9.5819e+01	1.6155	5.908348	0.000324	3.242892	1.098722	-0.000130
 965	9.5918e+01	1.5866	5.730714	0.000446	4.458977	1.510742	-0.000179
 966	9.6017e+01	1.5336	5.565192	0.000415	4.154956	1.407737	-0.000166
 967	9.6117e+01	1.5032	5.448115	0.000294	2.938871	0.995717	-0.000118
 968	9.6216e+01	1.4550	5.290666	0.000395	3.952275	1.339067	-0.000158
 969	9.6316e+01	1.4278	5.153404	0.000345	3.445573	1.167392	-0.000138
 970	9.6415e+01	1.3845	5.004030	0.000375	3.749594	1.270397	-0.000150
 971	9.6515e+01	1.3411	4.870804	0.000334	3.344233	1.133057	-0.000134
 972	9.6615e+01	1.2978	4.685096	0.000466	4.661658	1.579412	-0.000187
 973	9.6714e+01	1.2657	4.576093	0.000274	2.736190	0.927046	-0.000110
 974	9.6814e+01	1.2208	4.422682	0.000385	3.850935	1.304732	-0.000154
 975	9.6913e+01	1.1871	4.289457	0.000334	3.344233	1.133057	-0.000134
 976	9.7013e+01	1.1422	4.172380	0.000294	2.938871	0.995717	-0.000118
 977	9.7112e+01	1.0973	3.954374	0.000547	5.472381	1.854093	-0.000219
 978	9.7212e+01	1.0604	3.784815	0.000426	4.256296	1.442072	-0.000170
 979	9.7311e+01	1.0187	3.671775	0.000284	2.837531	0.961381	-0.000114
 980	9.7410e+01	0.9770	3.534512	0.000345	3.445573	1.167392	-0.000138
 981	9.7510e+01	0.9449	3.389175	0.000365	3.648254	1.236062	-0.000146
 982	9.7609e+01	0.9032	3.255950	0.000334	3.344233	1.133057	-0.000134
 983	9.7709e+01	0.8551	3.094465	0.000405	4.053615	1.373402	-0.000162
 984	9.7808e+01	0.8262	2.949128	0.000365	3.648254	1.236062	-0.000146
 985	9.7908e+01	0.7781	2.811865	0.000345	3.445573	1.167392	-0.000138
 986	9.8007e+01	0.7396	2.654417	0.000395	3.952275	1.339067	-0.000158
 987	9.8107e+01	0.7043	2.517154	0.000345	3.445573	1.167392	-0.000138
 988	9.8207e+01	0.6609	2.343557	0.000436	4.357637	1.476407	-0.000174
 989	9.8306e+01	0.6144	2.214369	0.000324	3.242892	1.098722	-0.000130
 990	9.8406e+01	0.5888	2.056921	0.000395	3.952275	1.339067	-0.000158
 991	9.8505e+01	0.5374	1.939844	0.000294	2.938871	0.995717	-0.000118
 992	9.8605e+01	0.5069	1.798544	0.000355	3.546914	1.201727	-0.000142
 993	9.8704e+01	0.4604	1.681467	0.000294	2.938871	0.995717	-0.000118
 994	9.8803e+01	0.4283	1.487685	0.000486	4.864339	1.648083	-0.000195
 995	9.8903e+01	0.3866	1.378682	0.000274	2.736190	0.927046	-0.000110
 996	9.9002e+01	0.3433	1.197011	0.000456	4.560317	1.545077	-0.000183
 997	9.9102e+01	0.2952	1.120305	0.000193	1.925467	0.652366	-0.000077
 998	9.9201e+01	0.2615	0.926523	0.000486	4.864339	1.648083	-0.000195
 999	9.9301e+01	0.2262	0.845780	0.000203	2.026808	0.686701	-0.000081
1000	9.9400e+01	0.1797	0.647960	0.000497	4.965679	1.682418	-0.000199
1001	9.9500e+01	0.1428	0.502623	0.000365	3.648254	1.236062	-0.000146
1002	9.9600e+01	0.0995	0.369398	0.000334	3.344233	1.133057	-0.000134
1003	9.9699e+01	0.0706	0.167541	0.000507	5.067019	1.716753	-0.000203
1004	9.9799e+01	0.0289	0.050464	0.000294	2.938871	0.995717	-0.000118
1005	9.9898e+01	-0.0096	-0.046427	0.000243	2.432169	0.824041	-0.000097
1006	9.9998e+01	-0.0417	-0.171578	0.000314	3.141552	1.064387	-0.000126
1007	1.0010e+02	-0.0866	-0.341138	0.000426	4.256296	1.442072	-0.000170
1008	1.0020e+02	-0.1251	-0.474363	0.000334	3.344233	1.133057	-0.000134
1009	1.0030e+02	-0.1636	-0.635849	0.000405	4.053615	1.373402	-0.000162
1010	1.0040e+02	-0.2037	-0.740814	0.000263	2.634850	0.892711	-0.000105
1011	1.0050e+02	-0.2438	-0.882114	0.000355	3.546914	1.201727	-0.000142
1012	1.0059e+02	-0.2872	-1.051674	0.000426	4.256296	1.442072	-0.000170
1013	1.0069e+02	-0.3305	-1.213159	0.000405	4.053615	1.373402	-0.000162
1014	1.0079e+02	-0.3706	-1.330236	0.000294	2.938871	0.995717	-0.000118
1015	1.0089e+02	-0.4043	-1.483647	0.000385	3.850935	1.304732	-0.000154
1016	1.0099e+02	-0.4412	-1.649170	0.000415	4.154956	1.407737	-0.000166
1017	1.0109e+02	-0.4813	-1.794507	0.000365	3.648254	1.236062	-0.000146
1018	1.0119e+02	-0.5214	-1.895435	0.000253	2.533510	0.858376	-0.000101
1019	1.0129e+02	-0.5631	-2.056921	0.000405	4.053615	1.373402	-0.000162
1020	1.0139e+02	-0.5984	-2.202258	0.000365	3.648254	1.236062	-0.000146
1021	1.0149e+02	-0.6449	-2.319334	0.000294	2.938871	0.995717	-0.000118
1022	1.0159e+02	-0.6914	-2.480820	0.000405	4.053615	1.373402	-0.000162
1023	1.0169e+02	-0.7235	-2.670565	0.000476	4.762998	1.613747	-0.000191
1024	1.0179e+02	-0.7668	-2.771494	0.000253	2.533510	0.858376	-0.000101
1025	1.0189e+02	-0.7973	-2.900682	0.000324	3.242892	1.098722	-0.000130
1026	1.0199e+02	-0.8486	-3.046019	0.000365	3.648254	1.236062	-0.000146
1027	1.0209e+02	-0.8839	-3.187319	0.000355	3.546914	1.201727	-0.000142
1028	1.0219e+02	-0.9224	-3.389175	0.000507	5.067019	1.716753	-0.000203
1029	1.0229e+02	-0.9657	-3.514327	0.000314	3.141552	1.064387	-0.000126
1030	1.0239e+02	-1.0010	-3.635441	0.000304	3.040212	1.030052	-0.000122
1031	1.0248e+02	-1.0411	-3.800963	0.000415	4.154956	1.407737	-0.000166
1032	1.0258e+02	-1.0796	-3.938226	0.000345	3.445573	1.167392	-0.000138
1033	1.0268e+02	-1.1165	-4.059340	0.000304	3.040212	1.030052	-0.000122
1034	1.0278e+02	-1.1567	-4.216788	0.000395	3.952275	1.339067	-0.000158
1035	1.0288e+02	-1.2032	-4.394422	0.000446	4.458977	1.510742	-0.000179
1036	1.0298e+02	-1.2401	-4.467091	0.000182	1.824127	0.618031	-0.000073
1037	1.0308e+02	-1.2770	-4.664910	0.000497	4.965679	1.682418	-0.000199
1038	1.0318e+02	-1.3171	-4.814284	0.000375	3.749594	1.270397	-0.000150
1039	1.0328e+02	-1.3652	-4.943473	0.000324	3.242892	1.098722	-0.000130
1040	1.0338e+02	-1.3957	-5.072661	0.000324	3.242892	1.098722	-0.000130
1041	1.0348e+02	-1.4390	-5.193775	0.000304	3.040212	1.030052	-0.000122
1042	1.0358e+02	-1.4887	-5.363335	0.000426	4.256296	1.442072	-0.000170
1043	1.0368e+02	-1.5224	-5.512709	0.000375	3.749594	1.270397	-0.000150
1044	1.0378e+02	-1.5593	-5.649971	0.000345	3.445573	1.167392	-0.000138
1045	1.0388e+02	-1.6074	-5.763011	0.000284	2.837531	0.961381	-0.000114
1046	1.0398e+02	-1.6443	-5.912385	0.000375	3.749594	1.270397	-0.000150
1047	1.0408e+02	-1.6812	-6.069834	0.000395	3.952275	1.339067	-0.000158
1048	1.0418e+02	-1.7181	-6.231319	0.000405	4.053615	1.373402	-0.000162
1049	1.0428e+02	-1.7663	-6.360507	0.000324	3.242892	1.098722	-0.000130
1050	1.0438e+02	-1.8016	-6.550253	0.000476	4.762998	1.613747	-0.000191
1051	1.0447e+02	-1.8433	-6.667330	0.000294	2.938871	0.995717	-0.000118
1052	1.0457e+02	-1.8802	-6.820741	0.000385	3.850935	1.304732	-0.000154
1053	1.0467e+02	-1.9155	-6.958003	0.000345	3.445573	1.167392	-0.000138
1054	1.0477e+02	-1.9668	-7.123526	0.000415	4.154956	1.407737	-0.000166
1055	1.0487e+02	-1.9941	-7.268863	0.000365	3.648254	1.236062	-0.000146
1056	1.0497e+02	-2.0454	-7.402088	0.000334	3.344233	1.133057	-0.000134
1057	1.0507e+02	-2.0807	-7.539351	0.000345	3.445573	1.167392	-0.000138
1058	1.0517e+02	-2.1112	-7.676614	0.000345	3.445573	1.167392	-0.000138
1059	1.0527e+02	-2.1577	-7.809839	0.000334	3.344233	1.133057	-0.000134
1060	1.0537e+02	-2.1978	-7.959213	0.000375	3.749594	1.270397	-0.000150
1061	1.0547e+02	-2.2395	-8.064179	0.000263	2.634850	0.892711	-0.000105
1062	1.0557e+02	-2.2796	-8.249887	0.000466	4.661658	1.579412	-0.000187
1063	1.0567e+02	-2.3165	-8.415409	0.000415	4.154956	1.407737	-0.000166
1064	1.0577e+02	-2.3614	-8.556709	0.000355	3.546914	1.201727	-0.000142
1065	1.0587e+02	-2.4015	-8.722232	0.000415	4.154956	1.407737	-0.000166
1066	1.0597e+02	-2.4400	-8.843346	0.000304	3.040212	1.030052	-0.000122
1067	1.0607e+02	-2.4834	-8.956386	0.000284	2.837531	0.961381	-0.000114
1068	1.0617e+02	-2.5186	-9.129982	0.000436	4.357637	1.476407	-0.000174
1069	1.0627e+02	-2.5523	-9.275319	0.000365	3.648254	1.236062	-0.000146
1070	1.0637e+02	-2.5876	-9.412582	0.000345	3.445573	1.167392	-0.000138
1071	1.0647e+02	-2.6293	-9.553882	0.000355	3.546914	1.201727	-0.000142
1072	1.0656e+02	-2.6710	-9.683070	0.000324	3.242892	1.098722	-0.000130
1073	1.0666e+02	-2.7095	-9.836481	0.000385	3.850935	1.304732	-0.000154
1074	1.0676e+02	-2.7545	-10.006041	0.000426	4.256296	1.442072	-0.000170
1075	1.0686e+02	-2.7994	-10.123118	0.000294	2.938871	0.995717	-0.000118
1076	1.0696e+02	-2.8363	-10.296715	0.000436	4.357637	1.476407	-0.000174
1077	1.0706e+02	-2.8748	-10.429940	0.000334	3.344233	1.133057	-0.000134
1078	1.0716e+02	-2.9181	-10.591426	0.000405	4.053615	1.373402	-0.000162
1079	1.0726e+02	-2.9566	-10.696391	0.000263	2.634850	0.892711	-0.000105
1080	1.0736e+02	-2.9999	-10.869988	0.000436	4.357637	1.476407	-0.000174
1081	1.0746e+02	-3.0416	-11.035511	0.000415	4.154956	1.407737	-0.000166
1082	1.0756e+02	-3.0721	-11.176810	0.000355	3.546914	1.201727	-0.000142
1083	1.0766e+02	-3.1186	-11.350407	0.000436	4.357637	1.476407	-0.000174
1084	1.0776e+02	-3.1507	-11.467484	0.000294	2.938871	0.995717	-0.000118
1085	1.0786e+02	-3.1940	-11.584561	0.000294	2.938871	0.995717	-0.000118
1086	1.0796e+02	-3.2454	-11.754121	0.000426	4.256296	1.442072	-0.000170
1087	1.0806e+02	-3.2614	-11.875235	0.000304	3.040212	1.030052	-0.000122
1088	1.0816e+02	-3.3272	-12.004423	0.000324	3.242892	1.098722	-0.000130
1089	1.0826e+02	-3.3609	-12.194168	0.000476	4.762998	1.613747	-0.000191
1090	1.0836e+02	-3.3978	-12.355654	0.000405	4.053615	1.373402	-0.000162
1091	1.0845e+02	-3.4379	-12.476768	0.000304	3.040212	1.030052	-0.000122
1092	1.0855e+02	-3.4684	-12.670551	0.000486	4.864339	1.648083	-0.000195
1093	1.0865e+02	-3.5149	-12.755330	0.000213	2.128148	0.721036	-0.000085
1094	1.0875e+02	-3.5534	-12.912779	0.000395	3.952275	1.339067	-0.000158
1095	1.0885e+02	-3.5951	-13.037930	0.000314	3.141552	1.064387	-0.000126
1096	1.0895e+02	-3.6288	-13.211527	0.000436	4.357637	1.476407	-0.000174
1097	1.0905e+02	-3.6721	-13.348789	0.000345	3.445573	1.167392	-0.000138
1098	1.0915e+02	-3.7058	-13.482015	0.000334	3.344233	1.133057	-0.000134
1099	1.0925e+02	-3.7587	-13.639463	0.000395	3.952275	1.339067	-0.000158
1100	1.0935e+02	-3.7892	-13.764614	0.000314	3.141552	1.064387	-0.000126
1101	1.0945e+02	-3.8293	-13.926100	0.000405	4.053615	1.373402	-0.000162
1102	1.0955e+02	-3.8726	-14.055288	0.000324	3.242892	1.098722	-0.000130
1103	1.0965e+02	-3.9111	-14.168328	0.000284	2.837531	0.961381	-0.000114
1104	1.0975e+02	-3.9464	-14.337888	0.000426	4.256296	1.442072	-0.000170
1105	1.0985e+02	-3.9913	-14.467076	0.000324	3.242892	1.098722	-0.000130
1106	1.0995e+02	-4.0379	-14.616450	0.000375	3.749594	1.270397	-0.000150
1107	1.1005e+02	-4.0651	-14.777935	0.000405	4.053615	1.373402	-0.000162
1108	1.1015e+02	-4.1084	-14.939421	0.000405	4.053615	1.373402	-0.000162
1109	1.1025e+02	-4.1534	-15.048423	0.000274	2.736190	0.927046	-0.000110
1110	1.1035e+02	-4.1854	-15.234132	0.000466	4.661658	1.579412	-0.000187
1111	1.1044e+02	-4.2304	-15.387543	0.000385	3.850935	1.304732	-0.000154
1112	1.1054e+02	-4.2769	-15.512694	0.000314	3.141552	1.064387	-0.000126
1113	1.1064e+02	-4.3154	-15.629771	0.000294	2.938871	0.995717	-0.000118
1114	1.1074e+02	-4.3523	-15.771071	0.000355	3.546914	1.201727	-0.000142
1115	1.1084e+02	-4.3940	-15.908333	0.000345	3.445573	1.167392	-0.000138
1116	1.1094e+02	-4.4309	-16.061745	0.000385	3.850935	1.304732	-0.000154
1117	1.1104e+02	-4.4646	-16.186896	0.000314	3.141552	1.064387	-0.000126
1118	1.1114e+02	-4.5063	-16.336270	0.000375	3.749594	1.270397	-0.000150
1119	1.1124e+02	-4.5560	-16.505829	0.000426	4.256296	1.442072	-0.000170
1120	1.1134e+02	-4.5897	-16.647129	0.000355	3.546914	1.201727	-0.000142
1121	1.1144e+02	-4.6266	-16.804578	0.000395	3.952275	1.339067	-0.000158
1122	1.1154e+02	-4.6635	-16.897432	0.000233	2.330829	0.789706	-0.000093
1123	1.1164e+02	-4.7164	-17.062954	0.000415	4.154956	1.407737	-0.000166
1124	1.1174e+02	-4.7517	-17.192143	0.000324	3.242892	1.098722	-0.000130
1125	1.1184e+02	-4.7822	-17.321331	0.000324	3.242892	1.098722	-0.000130
1126	1.1194e+02	-4.8368	-17.490891	0.000426	4.256296	1.442072	-0.000170
1127	1.1204e+02	-4.8688	-17.648339	0.000395	3.952275	1.339067	-0.000158
1128	1.1214e+02	-4.9106	-17.761379	0.000284	2.837531	0.961381	-0.000114
1129	1.1224e+02	-4.9523	-17.898641	0.000345	3.445573	1.167392	-0.000138
1130	1.1234e+02	-4.9892	-18.052052	0.000385	3.850935	1.304732	-0.000154
1131	1.1244e+02	-5.0373	-18.185278	0.000334	3.344233	1.133057	-0.000134
1132	1.1253e+02	-5.0694	-18.310429	0.000314	3.141552	1.064387	-0.000126
1133	1.1263e+02	-5.0983	-18.463840	0.000385	3.850935	1.304732	-0.000154
1134	1.1273e+02	-5.1432	-18.609177	0.000365	3.648254	1.236062	-0.000146
1135	1.1283e+02	-5.1865	-18.762588	0.000385	3.850935	1.304732	-0.000154
1136	1.1293e+02	-5.2330	-18.867554	0.000263	2.634850	0.892711	-0.000105
1137	1.1303e+02	-5.2683	-19.004816	0.000345	3.445573	1.167392	-0.000138
1138	1.1313e+02	-5.3052	-19.121893	0.000294	2.938871	0.995717	-0.000118
1139	1.1323e+02	-5.3485	-19.263193	0.000355	3.546914	1.201727	-0.000142
1140	1.1333e+02	-5.3950	-19.428716	0.000415	4.154956	1.407737	-0.000166
1141	1.1343e+02	-5.4271	-19.570015	0.000355	3.546914	1.201727	-0.000142
1142	1.1353e+02	-5.4608	-19.715352	0.000365	3.648254	1.236062	-0.000146
1143	1.1363e+02	-5.5009	-19.884912	0.000426	4.256296	1.442072	-0.000170
1144	1.1373e+02	-5.5539	-19.953543	0.000172	1.722787	0.583696	-0.000069
1145	1.1383e+02	-5.5891	-20.102917	0.000375	3.749594	1.270397	-0.000150
1146	1.1393e+02	-5.6212	-20.228069	0.000314	3.141552	1.064387	-0.000126
1147	1.1403e+02	-5.6678	-20.385517	0.000395	3.952275	1.339067	-0.000158
1148	1.1413e+02	-5.6998	-20.526817	0.000355	3.546914	1.201727	-0.000142
1149	1.1423e+02	-5.7528	-20.651968	0.000314	3.141552	1.064387	-0.000126
1150	1.1433e+02	-5.7849	-20.789230	0.000345	3.445573	1.167392	-0.000138
1151	1.1442e+02	-5.8330	-20.930530	0.000355	3.546914	1.201727	-0.000142
1152	1.1452e+02	-5.8603	-21.083941	0.000385	3.850935	1.304732	-0.000154
1153	1.1462e+02	-5.9020	-21.221204	0.000345	3.445573	1.167392	-0.000138
1154	1.1472e+02	-5.9437	-21.350392	0.000324	3.242892	1.098722	-0.000130
1155	1.1482e+02	-5.9806	-21.471506	0.000304	3.040212	1.030052	-0.000122
1156	1.1492e+02	-6.0239	-21.584546	0.000284	2.837531	0.961381	-0.000114
1157	1.1502e+02	-6.0560	-21.778329	0.000486	4.864339	1.648083	-0.000195
1158	1.1512e+02	-6.1089	-21.855034	0.000193	1.925467	0.652366	-0.000077
1159	1.1522e+02	-6.1490	-22.028631	0.000436	4.357637	1.476407	-0.000174
1160	1.1532e+02	-6.1811	-22.149745	0.000304	3.040212	1.030052	-0.000122
1161	1.1542e+02	-6.2228	-22.270859	0.000304	3.040212	1.030052	-0.000122
1162	1.1552e+02	-6.2758	-22.436382	0.000415	4.154956	1.407737	-0.000166
1163	1.1562e+02	-6.2998	-22.557496	0.000304	3.040212	1.030052	-0.000122
1164	1.1572e+02	-6.3496	-22.706870	0.000375	3.749594	1.270397	-0.000150
1165	1.1582e+02	-6.3816	-22.795687	0.000223	2.229489	0.755371	-0.000089
1166	1.1592e+02	-6.4217	-22.969284	0.000436	4.357637	1.476407	-0.000174
1167	1.1602e+02	-6.4554	-23.078286	0.000274	2.736190	0.927046	-0.000110
1168	1.1612e+02	-6.5004	-23.215549	0.000345	3.445573	1.167392	-0.000138
1169	1.1622e+02	-6.5453	-23.340700	0.000314	3.141552	1.064387	-0.000126
1170	1.1632e+02	-6.5693	-23.486037	0.000365	3.648254	1.236062	-0.000146
1171	1.1642e+02	-6.6159	-23.607151	0.000304	3.040212	1.030052	-0.000122
1172	1.1651e+02	-6.6656	-23.728265	0.000304	3.040212	1.030052	-0.000122
1173	1.1661e+02	-6.6929	-23.905899	0.000446	4.458977	1.510742	-0.000179
1174	1.1671e+02	-6.7474	-23.990679	0.000213	2.128148	0.721036	-0.000085
1175	1.1681e+02	-6.7827	-24.107756	0.000294	2.938871	0.995717	-0.000118
1176	1.1691e+02	-6.8196	-24.253093	0.000365	3.648254	1.236062	-0.000146
1177	1.1701e+02	-6.8517	-24.386318	0.000334	3.344233	1.133057	-0.000134
1178	1.1711e+02	-6.8998	-24.495321	0.000274	2.736190	0.927046	-0.000110
1179	1.1721e+02	-6.9303	-24.681029	0.000466	4.661658	1.579412	-0.000187
1180	1.1731e+02	-6.9768	-24.785995	0.000263	2.634850	0.892711	-0.000105
1181	1.1741e+02	-7.0185	-24.947480	0.000405	4.053615	1.373402	-0.000162
1182	1.1751e+02	-7.0522	-25.036297	0.000223	2.229489	0.755371	-0.000089
1183	1.1761e+02	-7.1003	-25.173560	0.000345	3.445573	1.167392	-0.000138
1184	1.1771e+02	-7.1356	-25.306785	0.000334	3.344233	1.133057	-0.000134
1185	1.1781e+02	-7.1838	-25.488456	0.000456	4.560317	1.545077	-0.000183
1186	1.1791e+02	-7.2239	-25.605533	0.000294	2.938871	0.995717	-0.000118
1187	1.1801e+02	-7.2559	-25.730685	0.000314	3.141552	1.064387	-0.000126
1188	1.1811e+02	-7.2912	-25.884096	0.000385	3.850935	1.304732	-0.000154
1189	1.1821e+02	-7.3378	-26.009247	0.000314	3.141552	1.064387	-0.000126
1190	1.1831e+02	-7.3779	-26.170732	0.000405	4.053615	1.373402	-0.000162
1191	1.1841e+02	-7.4100	-26.267624	0.000243	2.432169	0.824041	-0.000097
1192	1.1850e+02	-7.4613	-26.404886	0.000345	3.445573	1.167392	-0.000138
1193	1.1860e+02	-7.4934	-26.542149	0.000345	3.445573	1.167392	-0.000138
1194	1.1870e+02	-7.5399	-26.643077	0.000253	2.533510	0.858376	-0.000101
1195	1.1880e+02	-7.5800	-26.800526	0.000395	3.952275	1.339067	-0.000158
1196	1.1890e+02	-7.6169	-26.925677	0.000314	3.141552	1.064387	-0.000126
1197	1.1900e+02	-7.6554	-27.026605	0.000253	2.533510	0.858376	-0.000101
1198	1.1910e+02	-7.6971	-27.196165	0.000426	4.256296	1.442072	-0.000170
1199	1.1920e+02	-7.7404	-27.345539	0.000375	3.749594	1.270397	-0.000150
1200	1.1930e+02	-7.7725	-27.430319	0.000213	2.128148	0.721036	-0.000085
1201	1.1940e+02	-7.8238	-27.616027	0.000466	4.661658	1.579412	-0.000187
1202	1.1950e+02	-7.8543	-27.708881	0.000233	2.330829	0.789706	-0.000093
1203	1.1960e+02	-7.8912	-27.834032	0.000314	3.141552	1.064387	-0.000126
1204	1.1970e+02	-7.9377	-27.955146	0.000304	3.040212	1.030052	-0.000122
1205	1.1980e+02	-7.9762	-28.120669	0.000415	4.154956	1.407737	-0.000166
1206	1.1990e+02	-8.0228	-28.221597	0.000253	2.533510	0.858376	-0.000101
1207	1.2000e+02	-8.0613	-28.379046	0.000395	3.952275	1.339067	-0.000158
1208	1.2010e+02	-8.0982	-28.488048	0.000274	2.736190	0.927046	-0.000110
1209	1.2020e+02	-8.1335	-28.609162	0.000304	3.040212	1.030052	-0.000122
1210	1.2030e+02	-8.1671	-28.742388	0.000334	3.344233	1.133057	-0.000134
1211	1.2039e+02	-8.2185	-28.879651	0.000345	3.445573	1.167392	-0.000138
1212	1.2049e+02	-8.2522	-29.008839	0.000324	3.242892	1.098722	-0.000130
1213	1.2059e+02	-8.2907	-29.178399	0.000426	4.256296	1.442072	-0.000170
1214	1.2069e+02	-8.3292	-29.283364	0.000263	2.634850	0.892711	-0.000105
1215	1.2079e+02	-8.3725	-29.440812	0.000395	3.952275	1.339067	-0.000158
1216	1.2089e+02	-8.4174	-29.553852	0.000284	2.837531	0.961381	-0.000114
1217	1.2099e+02	-8.4479	-29.695152	0.000355	3.546914	1.201727	-0.000142
1218	1.2109e+02	-8.4928	-29.788006	0.000233	2.330829	0.789706	-0.000093
1219	1.2119e+02	-8.5425	-29.941417	0.000385	3.850935	1.304732	-0.000154
1220	1.2129e+02	-8.5746	-30.062531	0.000304	3.040212	1.030052	-0.000122
1221	1.2139e+02	-8.6147	-30.207868	0.000365	3.648254	1.236062	-0.000146
1222	1.2149e+02	-8.6420	-30.333019	0.000314	3.141552	1.064387	-0.000126
1223	1.2159e+02	-8.6933	-30.462208	0.000324	3.242892	1.098722	-0.000130
1224	1.2169e+02	-8.7334	-30.611582	0.000375	3.749594	1.270397	-0.000150
1225	1.2179e+02	-8.7671	-30.728659	0.000294	2.938871	0.995717	-0.000118
1226	1.2189e+02	-8.8137	-30.890144	0.000405	4.053615	1.373402	-0.000162
1227	1.2199e+02	-8.8570	-31.007221	0.000294	2.938871	0.995717	-0.000118
1228	1.2209e+02	-8.8955	-31.168706	0.000405	4.053615	1.373402	-0.000162
1229	1.2219e+02	-8.9308	-31.293858	0.000314	3.141552	1.064387	-0.000126
1230	1.2229e+02	-8.9677	-31.419009	0.000314	3.141552	1.064387	-0.000126
1231	1.2239e+02	-9.0174	-31.540123	0.000304	3.040212	1.030052	-0.000122
1232	1.2248e+02	-9.0527	-31.653163	0.000284	2.837531	0.961381	-0.000114
1233	1.2258e+02	-9.0944	-31.758128	0.000263	2.634850	0.892711	-0.000105
1234	1.2268e+02	-9.1345	-31.927688	0.000426	4.256296	1.442072	-0.000170
1235	1.2278e+02	-9.1762	-32.048802	0.000304	3.040212	1.030052	-0.000122
1236	1.2288e+02	-9.2099	-32.165879	0.000294	2.938871	0.995717	-0.000118
1237	1.2298e+02	-9.2612	-32.327364	0.000405	4.053615	1.373402	-0.000162
1238	1.2308e+02	-9.2933	-32.448478	0.000304	3.040212	1.030052	-0.000122
1239	1.2318e+02	-9.3270	-32.561518	0.000284	2.837531	0.961381	-0.000114
1240	1.2328e+02	-9.3751	-32.727041	0.000415	4.154956	1.407737	-0.000166
1241	1.2338e+02	-9.4040	-32.872378	0.000365	3.648254	1.236062	-0.000146
1242	1.2348e+02	-9.4425	-32.977343	0.000263	2.634850	0.892711	-0.000105
1243	1.2358e+02	-9.4858	-33.086346	0.000274	2.736190	0.927046	-0.000110
1244	1.2368e+02	-9.5307	-33.247831	0.000405	4.053615	1.373402	-0.000162
1245	1.2378e+02	-9.5660	-33.377020	0.000324	3.242892	1.098722	-0.000130
1246	1.2388e+02	-9.6029	-33.481985	0.000263	2.634850	0.892711	-0.000105
1247	1.2398e+02	-9.6511	-33.647508	0.000415	4.154956	1.407737	-0.000166
1248	1.2408e+02	-9.6944	-33.784770	0.000345	3.445573	1.167392	-0.000138
1249	1.2418e+02	-9.7297	-33.885699	0.000253	2.533510	0.858376	-0.000101
1250	1.2428e+02	-9.7666	-34.002776	0.000294	2.938871	0.995717	-0.000118
1251	1.2438e+02	-9.8051	-34.172335	0.000426	4.256296	1.442072	-0.000170
1252	1.2447e+02	-9.8468	-34.289412	0.000294	2.938871	0.995717	-0.000118
1253	1.2457e+02	-9.8789	-34.434749	0.000365	3.648254	1.236062	-0.000146
1254	1.2467e+02	-9.9222	-34.547789	0.000284	2.837531	0.961381	-0.000114
1255	1.2477e+02	-9.9687	-34.693126	0.000365	3.648254	1.236062	-0.000146
1256	1.2487e+02	-10.0008	-34.769832	0.000193	1.925467	0.652366	-0.000077
1257	1.2497e+02	-10.0393	-34.959577	0.000476	4.762998	1.613747	-0.000191
1258	1.2507e+02	-10.0842	-35.056468	0.000243	2.432169	0.824041	-0.000097
1259	1.2517e+02	-10.1291	-35.185657	0.000324	3.242892	1.098722	-0.000130
1260	1.2527e+02	-10.1612	-35.347142	0.000405	4.053615	1.373402	-0.000162
1261	1.2537e+02	-10.2029	-35.484405	0.000345	3.445573	1.167392	-0.000138
1262	1.2547e+02	-10.2478	-35.609556	0.000314	3.141552	1.064387	-0.000126
1263	1.2557e+02	-10.2879	-35.702410	0.000233	2.330829	0.789706	-0.000093
1264	1.2567e+02	-10.3281	-35.859858	0.000395	3.952275	1.339067	-0.000158
1265	1.2577e+02	-10.3633	-36.005195	0.000365	3.648254	1.236062	-0.000146
1266	1.2587e+02	-10.4067	-36.134383	0.000324	3.242892	1.098722	-0.000130
1267	1.2597e+02	-10.4468	-36.231275	0.000243	2.432169	0.824041	-0.000097
1268	1.2607e+02	-10.4901	-36.360463	0.000324	3.242892	1.098722	-0.000130
1269	1.2617e+02	-10.5222	-36.509837	0.000375	3.749594	1.270397	-0.000150
1270	1.2627e+02	-10.5591	-36.663248	0.000385	3.850935	1.304732	-0.000154
1271	1.2636e+02	-10.6120	-36.768214	0.000263	2.634850	0.892711	-0.000105
1272	1.2646e+02	-10.6473	-36.881254	0.000284	2.837531	0.961381	-0.000114
1273	1.2656e+02	-10.6794	-37.030628	0.000375	3.749594	1.270397	-0.000150
1274	1.2666e+02	-10.7227	-37.200187	0.000426	4.256296	1.442072	-0.000170
1275	1.2676e+02	-10.7644	-37.264781	0.000162	1.621446	0.549361	-0.000065
1276	1.2686e+02	-10.8093	-37.414155	0.000375	3.749594	1.270397	-0.000150
1277	1.2696e+02	-10.8430	-37.543344	0.000324	3.242892	1.098722	-0.000130
1278	1.2706e+02	-10.8927	-37.672532	0.000324	3.242892	1.098722	-0.000130
1279	1.2716e+02	-10.9264	-37.753275	0.000203	2.026808	0.686701	-0.000081
1280	1.2726e+02	-10.9633	-37.971280	0.000547	5.472381	1.854093	-0.000219
1281	1.2736e+02	-10.9970	-38.019726	0.000122	1.216085	0.412021	-0.000049
1282	1.2746e+02	-11.0403	-38.169100	0.000375	3.749594	1.270397	-0.000150
1283	1.2756e+02	-11.0836	-38.290214	0.000304	3.040212	1.030052	-0.000122
1284	1.2766e+02	-11.1286	-38.451699	0.000405	4.053615	1.373402	-0.000162
1285	1.2776e+02	-11.1590	-38.588962	0.000345	3.445573	1.167392	-0.000138
1286	1.2786e+02	-11.2072	-38.726225	0.000345	3.445573	1.167392	-0.000138
1287	1.2796e+02	-11.2473	-38.827153	0.000253	2.533510	0.858376	-0.000101
1288	1.2806e+02	-11.2842	-38.940193	0.000284	2.837531	0.961381	-0.000114
1289	1.2816e+02	-11.3243	-39.093604	0.000385	3.850935	1.304732	-0.000154
1290	1.2826e+02	-11.3580	-39.182421	0.000223	2.229489	0.755371	-0.000089
1291	1.2835e+02	-11.3917	-39.291424	0.000274	2.736190	0.927046	-0.000110
1292	1.2845e+02	-11.4414	-39.473095	0.000456	4.560317	1.545077	-0.000183
1293	1.2855e+02	-11.4831	-39.545763	0.000182	1.824127	0.618031	-0.000073
1294	1.2865e+02	-11.5296	-39.687063	0.000355	3.546914	1.201727	-0.000142
1295	1.2875e+02	-11.5601	-39.848548	0.000405	4.053615	1.373402	-0.000162
1296	1.2885e+02	-11.6066	-39.961588	0.000284	2.837531	0.961381	-0.000114
1297	1.2895e+02	-11.6419	-40.050405	0.000223	2.229489	0.755371	-0.000089
1298	1.2905e+02	-11.6772	-40.187668	0.000345	3.445573	1.167392	-0.000138
1299	1.2915e+02	-11.7157	-40.328967	0.000355	3.546914	1.201727	-0.000142
1300	1.2925e+02	-11.7638	-40.425859	0.000243	2.432169	0.824041	-0.000097
1301	1.2935e+02	-11.7991	-40.534861	0.000274	2.736190	0.927046	-0.000110
1302	1.2945e+02	-11.8392	-40.672124	0.000345	3.445573	1.167392	-0.000138
1303	1.2955e+02	-11.8826	-40.805349	0.000334	3.344233	1.133057	-0.000134
1304	1.2965e+02	-11.9211	-40.878018	0.000182	1.824127	0.618031	-0.000073
1305	1.2975e+02	-11.9580	-41.043540	0.000415	4.154956	1.407737	-0.000166
1306	1.2985e+02	-11.9997	-41.152543	0.000274	2.736190	0.927046	-0.000110
1307	1.2995e+02	-12.0430	-41.314029	0.000405	4.053615	1.373402	-0.000162
1308	1.3005e+02	-12.0847	-41.439180	0.000314	3.141552	1.064387	-0.000126
1309	1.3015e+02	-12.1296	-41.511848	0.000182	1.824127	0.618031	-0.000073
1310	1.3025e+02	-12.1617	-41.645074	0.000334	3.344233	1.133057	-0.000134
1311	1.3034e+02	-12.1874	-41.774262	0.000324	3.242892	1.098722	-0.000130
1312	1.3044e+02	-12.2339	-41.899413	0.000314	3.141552	1.064387	-0.000126
1313	1.3054e+02	-12.2692	-42.028602	0.000324	3.242892	1.098722	-0.000130
1314	1.3064e+02	-12.3189	-42.153753	0.000314	3.141552	1.064387	-0.000126
1315	1.3074e+02	-12.3606	-42.226421	0.000182	1.824127	0.618031	-0.000073
1316	1.3084e+02	-12.3959	-42.383870	0.000395	3.952275	1.339067	-0.000158
1317	1.3094e+02	-12.4376	-42.509021	0.000314	3.141552	1.064387	-0.000126
1318	1.3104e+02	-12.4857	-42.630135	0.000304	3.040212	1.030052	-0.000122
1319	1.3114e+02	-12.5162	-42.747212	0.000294	2.938871	0.995717	-0.000118
1320	1.3124e+02	-12.5595	-42.876400	0.000324	3.242892	1.098722	-0.000130
1321	1.3134e+02	-12.5964	-43.025774	0.000375	3.749594	1.270397	-0.000150
1322	1.3144e+02	-12.6365	-43.134777	0.000274	2.736190	0.927046	-0.000110
1323	1.3154e+02	-12.6670	-43.263965	0.000324	3.242892	1.098722	-0.000130
1324	1.3164e+02	-12.7264	-43.405265	0.000355	3.546914	1.201727	-0.000142
1325	1.3174e+02	-12.7649	-43.526379	0.000304	3.040212	1.030052	-0.000122
1326	1.3184e+02	-12.7922	-43.586936	0.000152	1.520106	0.515026	-0.000061
1327	1.3194e+02	-12.8403	-43.720161	0.000334	3.344233	1.133057	-0.000134
1328	1.3204e+02	-12.8692	-43.841276	0.000304	3.040212	1.030052	-0.000122
1329	1.3214e+02	-12.9189	-43.938167	0.000243	2.432169	0.824041	-0.000097
1330	1.3224e+02	-12.9510	-44.051207	0.000284	2.837531	0.961381	-0.000114
1331	1.3234e+02	-12.9991	-44.168284	0.000294	2.938871	0.995717	-0.000118
1332	1.3243e+02	-13.0456	-44.269212	0.000253	2.533510	0.858376	-0.000101
1333	1.3253e+02	-13.0681	-44.386289	0.000294	2.938871	0.995717	-0.000118
1334	1.3263e+02	-13.1098	-44.563923	0.000446	4.458977	1.510742	-0.000179
1335	1.3273e+02	-13.1579	-44.668888	0.000263	2.634850	0.892711	-0.000105
1336	1.3283e+02	-13.1852	-44.765780	0.000243	2.432169	0.824041	-0.000097
1337	1.3293e+02	-13.2397	-44.899005	0.000334	3.344233	1.133057	-0.000134
1338	1.3303e+02	-13.2734	-45.028193	0.000324	3.242892	1.098722	-0.000130
1339	1.3313e+02	-13.3103	-45.117010	0.000223	2.229489	0.755371	-0.000089
1340	1.3323e+02	-13.3552	-45.238125	0.000304	3.040212	1.030052	-0.000122
1341	1.3333e+02	-13.3969	-45.330979	0.000233	2.330829	0.789706	-0.000093
1342	1.3343e+02	-13.4274	-45.488427	0.000395	3.952275	1.339067	-0.000158
1343	1.3353e+02	-13.4707	-45.625690	0.000345	3.445573	1.167392	-0.000138
1344	1.3363e+02	-13.5157	-45.694321	0.000172	1.722787	0.583696	-0.000069
1345	1.3373e+02	-13.5494	-45.839658	0.000365	3.648254	1.236062	-0.000146
1346	1.3383e+02	-13.5879	-45.960772	0.000304	3.040212	1.030052	-0.000122
1347	1.3393e+02	-13.6328	-46.069774	0.000274	2.736190	0.927046	-0.000110
1348	1.3403e+02	-13.6616	-46.211074	0.000355	3.546914	1.201727	-0.000142
1349	1.3413e+02	-13.7146	-46.271631	0.000152	1.520106	0.515026	-0.000061
1350	1.3423e+02	-13.7531	-46.429080	0.000395	3.952275	1.339067	-0.000158
1351	1.3432e+02	-13.7804	-46.550194	0.000304	3.040212	1.030052	-0.000122
1352	1.3442e+02	-13.8269	-46.655159	0.000263	2.634850	0.892711	-0.000105
1353	1.3452e+02	-13.8766	-46.780310	0.000314	3.141552	1.064387	-0.000126
1354	1.3462e+02	-13.9039	-46.929684	0.000375	3.749594	1.270397	-0.000150
1355	1.3472e+02	-13.9424	-47.018501	0.000223	2.229489	0.755371	-0.000089
1356	1.3482e+02	-13.9953	-47.167875	0.000375	3.749594	1.270397	-0.000150
1357	1.3492e+02	-14.0354	-47.284952	0.000294	2.938871	0.995717	-0.000118
1358	1.3502e+02	-14.0675	-47.389918	0.000263	2.634850	0.892711	-0.000105
1359	1.3512e+02	-14.1028	-47.502958	0.000284	2.837531	0.961381	-0.000114
1360	1.3522e+02	-14.1429	-47.640220	0.000345	3.445573	1.167392	-0.000138
1361	1.3532e+02	-14.1975	-47.741149	0.000253	2.533510	0.858376	-0.000101
1362	1.3542e+02	-14.2247	-47.829966	0.000223	2.229489	0.755371	-0.000089
1363	1.3552e+02	-14.2713	-47.959154	0.000324	3.242892	1.098722	-0.000130
1364	1.3562e+02	-14.3065	-48.080268	0.000304	3.040212	1.030052	-0.000122
1365	1.3572e+02	-14.3402	-48.221568	0.000355	3.546914	1.201727	-0.000142
1366	1.3582e+02	-14.3852	-48.318459	0.000243	2.432169	0.824041	-0.000097
1367	1.3592e+02	-14.4317	-48.427462	0.000274	2.736190	0.927046	-0.000110
1368	1.3602e+02	-14.4814	-48.532427	0.000263	2.634850	0.892711	-0.000105
1369	1.3612e+02	-14.5055	-48.653541	0.000304	3.040212	1.030052	-0.000122
1370	1.3622e+02	-14.5408	-48.798878	0.000365	3.648254	1.236062	-0.000146
1371	1.3631e+02	-14.5905	-48.919992	0.000304	3.040212	1.030052	-0.000122
1372	1.3641e+02	-14.6290	-49.045144	0.000314	3.141552	1.064387	-0.000126
1373	1.3651e+02	-14.6659	-49.121849	0.000193	1.925467	0.652366	-0.000077
1374	1.3661e+02	-14.7140	-49.271223	0.000375	3.749594	1.270397	-0.000150
1375	1.3671e+02	-14.7477	-49.356003	0.000213	2.128148	0.721036	-0.000085
1376	1.3681e+02	-14.7766	-49.525563	0.000426	4.256296	1.442072	-0.000170
1377	1.3691e+02	-14.8167	-49.586120	0.000152	1.520106	0.515026	-0.000061
1378	1.3701e+02	-14.8648	-49.707234	0.000304	3.040212	1.030052	-0.000122
1379	1.3711e+02	-14.9129	-49.812199	0.000263	2.634850	0.892711	-0.000105
1380	1.3721e+02	-14.9450	-49.985796	0.000436	4.357637	1.476407	-0.000174
1381	1.3731e+02	-14.9819	-50.082687	0.000243	2.432169	0.824041	-0.000097
1382	1.3741e+02	-15.0333	-50.191690	0.000274	2.736190	0.927046	-0.000110
1383	1.3751e+02	-15.0621	-50.320878	0.000324	3.242892	1.098722	-0.000130
1384	1.3761e+02	-15.0990	-50.437955	0.000294	2.938871	0.995717	-0.000118
1385	1.3771e+02	-15.1407	-50.559069	0.000304	3.040212	1.030052	-0.000122
1386	1.3781e+02	-15.1825	-50.712481	0.000385	3.850935	1.304732	-0.000154
1387	1.3791e+02	-15.2290	-50.789186	0.000193	1.925467	0.652366	-0.000077
1388	1.3801e+02	-15.2546	-50.857817	0.000172	1.722787	0.583696	-0.000069
1389	1.3811e+02	-15.3044	-51.023340	0.000415	4.154956	1.407737	-0.000166
1390	1.3821e+02	-15.3509	-51.128306	0.000263	2.634850	0.892711	-0.000105
1391	1.3831e+02	-15.3926	-51.289791	0.000405	4.053615	1.373402	-0.000162
1392	1.3840e+02	-15.4183	-51.378608	0.000223	2.229489	0.755371	-0.000089
1393	1.3850e+02	-15.4632	-51.536056	0.000395	3.952275	1.339067	-0.000158
1394	1.3860e+02	-15.5065	-51.608725	0.000182	1.824127	0.618031	-0.000073
1395	1.3870e+02	-15.5466	-51.733876	0.000314	3.141552	1.064387	-0.000126
1396	1.3880e+02	-15.5819	-51.846916	0.000284	2.837531	0.961381	-0.000114
1397	1.3890e+02	-15.6188	-51.996290	0.000375	3.749594	1.270397	-0.000150
1398	1.3900e+02	-15.6637	-52.109330	0.000284	2.837531	0.961381	-0.000114
1399	1.3910e+02	-15.6990	-52.270815	0.000405	4.053615	1.373402	-0.000162
1400	1.3920e+02	-15.7488	-52.307149	0.000091	0.912063	0.309015	-0.000037
1401	1.3930e+02	-15.7824	-52.448449	0.000355	3.546914	1.201727	-0.000142
1402	1.3940e+02	-15.8242	-52.569563	0.000304	3.040212	1.030052	-0.000122
1403	1.3950e+02	-15.8707	-52.678566	0.000274	2.736190	0.927046	-0.000110
1404	1.3960e+02	-15.9092	-52.860237	0.000456	4.560317	1.545077	-0.000183
1405	1.3970e+02	-15.9493	-52.936942	0.000193	1.925467	0.652366	-0.000077
1406	1.3980e+02	-15.9814	-53.049982	0.000284	2.837531	0.961381	-0.000114
1407	1.3990e+02	-16.0167	-53.130725	0.000203	2.026808	0.686701	-0.000081
1408	1.4000e+02	-16.0648	-53.336619	0.000517	5.168360	1.751088	-0.000207
1409	1.4010e+02	-16.0937	-53.405250	0.000172	1.722787	0.583696	-0.000069
1410	1.4020e+02	-16.1466	-53.522327	0.000294	2.938871	0.995717	-0.000118
1411	1.4029e+02	-16.1771	-53.695924	0.000436	4.357637	1.476407	-0.000174
1412	1.4039e+02	-16.2188	-53.732258	0.000091	0.912063	0.309015	-0.000037
1413	1.4049e+02	-16.2605	-53.897781	0.000415	4.154956	1.407737	-0.000166
1414	1.4059e+02	-16.2926	-54.031006	0.000334	3.344233	1.133057	-0.000134
1415	1.4069e+02	-16.3311	-54.123860	0.000233	2.330829	0.789706	-0.000093
1416	1.4079e+02	-16.3728	-54.261123	0.000345	3.445573	1.167392	-0.000138
1417	1.4089e+02	-16.4225	-54.390311	0.000324	3.242892	1.098722	-0.000130
1418	1.4099e+02	-16.4642	-54.503351	0.000284	2.837531	0.961381	-0.000114
1419	1.4109e+02	-16.4979	-54.648688	0.000365	3.648254	1.236062	-0.000146
1420	1.4119e+02	-16.5396	-54.777876	0.000324	3.242892	1.098722	-0.000130
1421	1.4129e+02	-16.5797	-54.898990	0.000304	3.040212	1.030052	-0.000122
1422	1.4139e+02	-16.6247	-55.012030	0.000284	2.837531	0.961381	-0.000114
1423	1.4149e+02	-16.6584	-55.129107	0.000294	2.938871	0.995717	-0.000118
1424	1.4159e+02	-16.7017	-55.274444	0.000365	3.648254	1.236062	-0.000146
1425	1.4169e+02	-16.7402	-55.363261	0.000223	2.229489	0.755371	-0.000089
1426	1.4179e+02	-16.7851	-55.540895	0.000446	4.458977	1.510742	-0.000179
1427	1.4189e+02	-16.8204	-55.621638	0.000203	2.026808	0.686701	-0.000081
1428	1.4199e+02	-16.8605	-55.726603	0.000263	2.634850	0.892711	-0.000105
1429	1.4209e+02	-16.8958	-55.875977	0.000375	3.749594	1.270397	-0.000150
1430	1.4219e+02	-16.9343	-55.989017	0.000284	2.837531	0.961381	-0.000114
1431	1.4228e+02	-16.9872	-56.118205	0.000324	3.242892	1.098722	-0.000130
1432	1.4238e+02	-17.0225	-56.215097	0.000243	2.432169	0.824041	-0.000097
1433	1.4248e+02	-17.0626	-56.336211	0.000304	3.040212	1.030052	-0.000122
1434	1.4258e+02	-17.0947	-56.481548	0.000365	3.648254	1.236062	-0.000146
1435	1.4268e+02	-17.1412	-56.626884	0.000365	3.648254	1.236062	-0.000146
1436	1.4278e+02	-17.1845	-56.731850	0.000263	2.634850	0.892711	-0.000105
1437	1.4288e+02	-17.2166	-56.852964	0.000304	3.040212	1.030052	-0.000122
1438	1.4298e+02	-17.2615	-56.986190	0.000334	3.344233	1.133057	-0.000134
1439	1.4308e+02	-17.3033	-57.075006	0.000223	2.229489	0.755371	-0.000089
1440	1.4318e+02	-17.3369	-57.252640	0.000446	4.458977	1.510742	-0.000179
1441	1.4328e+02	-17.3803	-57.365680	0.000284	2.837531	0.961381	-0.000114
1442	1.4338e+02	-17.4268	-57.523129	0.000395	3.952275	1.339067	-0.000158
1443	1.4348e+02	-17.4460	-57.652317	0.000324	3.242892	1.098722	-0.000130
1444	1.4358e+02	-17.4926	-57.777468	0.000314	3.141552	1.064387	-0.000126
1445	1.4368e+02	-17.5407	-57.874359	0.000243	2.432169	0.824041	-0.000097
1446	1.4378e+02	-17.5647	-57.995473	0.000304	3.040212	1.030052	-0.000122
1447	1.4388e+02	-17.6305	-58.128699	0.000334	3.344233	1.133057	-0.000134
1448	1.4398e+02	-17.6514	-58.233664	0.000263	2.634850	0.892711	-0.000105
1449	1.4408e+02	-17.6963	-58.391113	0.000395	3.952275	1.339067	-0.000158
1450	1.4418e+02	-17.7428	-58.512227	0.000304	3.040212	1.030052	-0.000122
1451	1.4428e+02	-17.7733	-58.633341	0.000304	3.040212	1.030052	-0.000122
1452	1.4437e+02	-17.8166	-58.798863	0.000415	4.154956	1.407737	-0.000166
1453	1.4447e+02	-17.8535	-58.928052	0.000324	3.242892	1.098722	-0.000130
1454	1.4457e+02	-17.8952	-59.045129	0.000294	2.938871	0.995717	-0.000118
1455	1.4467e+02	-17.9401	-59.166243	0.000304	3.040212	1.030052	-0.000122
1456	1.4477e+02	-17.9738	-59.291394	0.000314	3.141552	1.064387	-0.000126
1457	1.4487e+02	-18.0316	-59.432694	0.000355	3.546914	1.201727	-0.000142
1458	1.4497e+02	-18.0540	-59.545734	0.000284	2.837531	0.961381	-0.000114
1459	1.4507e+02	-18.0893	-59.687033	0.000355	3.546914	1.201727	-0.000142
1460	1.4517e+02	-18.1310	-59.840444	0.000385	3.850935	1.304732	-0.000154
1461	1.4527e+02	-18.1760	-59.977707	0.000345	3.445573	1.167392	-0.000138
1462	1.4537e+02	-18.2145	-60.094784	0.000294	2.938871	0.995717	-0.000118
1463	1.4547e+02	-18.2610	-60.240121	0.000365	3.648254	1.236062	-0.000146
1464	1.4557e+02	-18.2834	-60.361235	0.000304	3.040212	1.030052	-0.000122
1465	1.4567e+02	-18.3380	-60.534832	0.000436	4.357637	1.476407	-0.000174
1466	1.4577e+02	-18.3749	-60.599426	0.000162	1.621446	0.549361	-0.000065
1467	1.4587e+02	-18.4086	-60.752837	0.000385	3.850935	1.304732	-0.000154
1468	1.4597e+02	-18.4551	-60.914323	0.000405	4.053615	1.373402	-0.000162
1469	1.4607e+02	-18.4952	-61.023325	0.000274	2.736190	0.927046	-0.000110
1470	1.4617e+02	-18.5385	-61.140402	0.000294	2.938871	0.995717	-0.000118
1471	1.4626e+02	-18.5754	-61.322073	0.000456	4.560317	1.545077	-0.000183
1472	1.4636e+02	-18.6187	-61.463373	0.000355	3.546914	1.201727	-0.000142
1473	1.4646e+02	-18.6572	-61.568339	0.000263	2.634850	0.892711	-0.000105
1474	1.4656e+02	-18.7054	-61.750010	0.000456	4.560317	1.545077	-0.000183
1475	1.4666e+02	-18.7358	-61.863049	0.000284	2.837531	0.961381	-0.000114
1476	1.4676e+02	-18.7727	-62.000312	0.000345	3.445573	1.167392	-0.000138
1477	1.4686e+02	-18.8112	-62.125463	0.000314	3.141552	1.064387	-0.000126
1478	1.4696e+02	-18.8513	-62.303097	0.000446	4.458977	1.510742	-0.000179
1479	1.4706e+02	-18.8979	-62.432286	0.000324	3.242892	1.098722	-0.000130
1480	1.4716e+02	-18.9396	-62.545325	0.000284	2.837531	0.961381	-0.000114
1481	1.4726e+02	-18.9781	-62.714885	0.000426	4.256296	1.442072	-0.000170
1482	1.4736e+02	-19.0134	-62.884445	0.000426	4.256296	1.442072	-0.000170
1483	1.4746e+02	-19.0487	-63.013633	0.000324	3.242892	1.098722	-0.000130
1484	1.4756e+02	-19.0920	-63.183193	0.000426	4.256296	1.442072	-0.000170
1485	1.4766e+02	-19.1257	-63.336604	0.000385	3.850935	1.304732	-0.000154
1486	1.4776e+02	-19.1594	-63.437532	0.000253	2.533510	0.858376	-0.000101
1487	1.4786e+02	-19.2171	-63.599018	0.000405	4.053615	1.373402	-0.000162
1488	1.4796e+02	-19.2572	-63.736280	0.000345	3.445573	1.167392	-0.000138
1489	1.4806e+02	-19.2829	-63.913914	0.000446	4.458977	1.510742	-0.000179
1490	1.4816e+02	-19.3310	-64.039066	0.000314	3.141552	1.064387	-0.000126
1491	1.4825e+02	-19.3631	-64.192477	0.000385	3.850935	1.304732	-0.000154
1492	1.4835e+02	-19.4080	-64.341851	0.000375	3.749594	1.270397	-0.000150
1493	1.4845e+02	-19.4529	-64.495262	0.000385	3.850935	1.304732	-0.000154
1494	1.4855e+02	-19.4850	-64.656747	0.000405	4.053615	1.373402	-0.000162
1495	1.4865e+02	-19.5331	-64.826307	0.000426	4.256296	1.442072	-0.000170
1496	1.4875e+02	-19.5700	-64.999904	0.000436	4.357637	1.476407	-0.000174
1497	1.4885e+02	-19.6085	-65.133129	0.000334	3.344233	1.133057	-0.000134
1498	1.4895e+02	-19.6422	-65.250206	0.000294	2.938871	0.995717	-0.000118
1499	1.4905e+02	-19.6807	-65.435915	0.000466	4.661658	1.579412	-0.000187
1500	1.4915e+02	-19.7305	-65.621623	0.000466	4.661658	1.579412	-0.000187
1501	1.4925e+02	-19.7690	-65.795220	0.000436	4.357637	1.476407	-0.000174
1502	1.4935e+02	-19.8139	-65.888074	0.000233	2.330829	0.789706	-0.000093
1503	1.4945e+02	-19.8444	-66.061671	0.000436	4.357637	1.476407	-0.000174
1504	1.4955e+02	-19.8797	-66.259490	0.000497	4.965679	1.682418	-0.000199
1505	1.4965e+02	-19.9326	-66.416939	0.000395	3.952275	1.339067	-0.000158
1506	1.4975e+02	-19.9615	-66.590535	0.000436	4.357637	1.476407	-0.000174
1507	1.4985e+02	-20.0096	-66.788355	0.000497	4.965679	1.682418	-0.000199
1508	1.4995e+02	-19.9679	-66.735872	0.000132	1.317425	0.446356	0.000053
1509	1.5005e+02	-19.9342	-66.687427	0.000122	1.216085	0.412021	0.000049
1510	1.5015e+02	-19.8861	-66.659167	0.000071	0.709383	0.240345	0.000028
1511	1.5025e+02	-19.8508	-66.626870	0.000081	0.810723	0.274680	0.000032
1512	1.5034e+02	-19.7994	-66.618795	0.000020	0.202681	0.068670	0.000008
1513	1.5044e+02	-19.7690	-66.550164	0.000172	1.722787	0.583696	0.000069
1514	1.5054e+02	-19.7289	-66.525941	0.000061	0.608042	0.206010	0.000024
1515	1.5064e+02	-19.6871	-66.477496	0.000122	1.216085	0.412021	0.000049
1516	1.5074e+02	-19.6422	-66.465384	0.000030	0.304021	0.103005	0.000012
1517	1.5084e+02	-19.6134	-66.384642	0.000203	2.026808	0.686701	0.000081
1518	1.5094e+02	-19.5652	-66.356382	0.000071	0.709383	0.240345	0.000028
1519	1.5104e+02	-19.5267	-66.316010	0.000101	1.013404	0.343351	0.000041
1520	1.5114e+02	-19.4802	-66.223156	0.000233	2.330829	0.789706	0.000093
1521	1.5124e+02	-19.4497	-66.162599	0.000152	1.520106	0.515026	0.000061
1522	1.5134e+02	-19.4096	-66.102042	0.000152	1.520106	0.515026	0.000061
1523	1.5144e+02	-19.3695	-66.065708	0.000091	0.912063	0.309015	0.000037
1524	1.5154e+02	-19.3310	-65.997076	0.000172	1.722787	0.583696	0.000069
1525	1.5164e+02	-19.2909	-65.952668	0.000111	1.114744	0.377686	0.000045
1526	1.5174e+02	-19.2540	-65.871925	0.000203	2.026808	0.686701	0.000081
1527	1.5184e+02	-19.2139	-65.815405	0.000142	1.418765	0.480691	0.000057
1528	1.5194e+02	-19.1722	-65.766960	0.000122	1.216085	0.412021	0.000049
1529	1.5204e+02	-19.1321	-65.674106	0.000233	2.330829	0.789706	0.000093
1530	1.5214e+02	-19.0952	-65.637771	0.000091	0.912063	0.309015	0.000037
1531	1.5224e+02	-19.0567	-65.544917	0.000233	2.330829	0.789706	0.000093
1532	1.5233e+02	-19.0118	-65.456100	0.000223	2.229489	0.755371	0.000089
1533	1.5243e+02	-18.9684	-65.387469	0.000172	1.722787	0.583696	0.000069
1534	1.5253e+02	-18.9364	-65.310763	0.000193	1.925467	0.652366	0.000077
1535	1.5263e+02	-18.8866	-65.262318	0.000122	1.216085	0.412021	0.000049
1536	1.5273e+02	-18.8465	-65.125055	0.000345	3.445573	1.167392	0.000138
1537	1.5283e+02	-18.8160	-65.096795	0.000071	0.709383	0.240345	0.000028
1538	1.5293e+02	-18.7727	-64.999904	0.000243	2.432169	0.824041	0.000097
1539	1.5303e+02	-18.7390	-64.951458	0.000122	1.216085	0.412021	0.000049
1540	1.5313e+02	-18.6909	-64.890901	0.000152	1.520106	0.515026	0.000061
1541	1.5323e+02	-18.6556	-64.777861	0.000284	2.837531	0.961381	0.000114
1542	1.5333e+02	-18.6139	-64.680970	0.000243	2.432169	0.824041	0.000097
1543	1.5343e+02	-18.5722	-64.640599	0.000101	1.013404	0.343351	0.000041
1544	1.5353e+02	-18.5353	-64.559856	0.000203	2.026808	0.686701	0.000081
1545	1.5363e+02	-18.4936	-64.475076	0.000213	2.128148	0.721036	0.000085
1546	1.5373e+02	-18.4567	-64.418556	0.000142	1.418765	0.480691	0.000057
1547	1.5383e+02	-18.4166	-64.313591	0.000263	2.634850	0.892711	0.000105
1548	1.5393e+02	-18.3701	-64.188440	0.000314	3.141552	1.064387	0.000126
1549	1.5403e+02	-18.3364	-64.144031	0.000111	1.114744	0.377686	0.000045
1550	1.5413e+02	-18.2979	-64.047140	0.000243	2.432169	0.824041	0.000097
1551	1.5422e+02	-18.2514	-63.990620	0.000142	1.418765	0.480691	0.000057
1552	1.5432e+02	-18.2241	-63.857395	0.000334	3.344233	1.133057	0.000134
1553	1.5442e+02	-18.1856	-63.804912	0.000132	1.317425	0.446356	0.000053
1554	1.5452e+02	-18.1326	-63.720132	0.000213	2.128148	0.721036	0.000085
1555	1.5462e+02	-18.0990	-63.647463	0.000182	1.824127	0.618031	0.000073
1556	1.5472e+02	-18.0605	-63.538461	0.000274	2.736190	0.927046	0.000110
1557	1.5482e+02	-18.0139	-63.498089	0.000101	1.013404	0.343351	0.000041
1558	1.5492e+02	-17.9690	-63.401198	0.000243	2.432169	0.824041	0.000097
1559	1.5502e+02	-17.9353	-63.296233	0.000263	2.634850	0.892711	0.000105
1560	1.5512e+02	-17.8888	-63.191267	0.000263	2.634850	0.892711	0.000105
1561	1.5522e+02	-17.8503	-63.134747	0.000142	1.418765	0.480691	0.000057
1562	1.5532e+02	-17.8198	-63.037856	0.000243	2.432169	0.824041	0.000097
1563	1.5542e+02	-17.7701	-62.981336	0.000142	1.418765	0.480691	0.000057
1564	1.5552e+02	-17.7380	-62.872333	0.000274	2.736190	0.927046	0.000110
1565	1.5562e+02	-17.6915	-62.791591	0.000203	2.026808	0.686701	0.000081
1566	1.5572e+02	-17.6642	-62.670477	0.000304	3.040212	1.030052	0.000122
1567	1.5582e+02	-17.6225	-62.589734	0.000203	2.026808	0.686701	0.000081
1568	1.5592e+02	-17.5808	-62.569548	0.000051	0.506702	0.171675	0.000020
1569	1.5602e+02	-17.5423	-62.440360	0.000324	3.242892	1.098722	0.000130
1570	1.5612e+02	-17.5070	-62.343469	0.000243	2.432169	0.824041	0.000097
1571	1.5622e+02	-17.4685	-62.270800	0.000182	1.824127	0.618031	0.000073
1572	1.5631e+02	-17.4204	-62.202169	0.000172	1.722787	0.583696	0.000069
1573	1.5641e+02	-17.3722	-62.072981	0.000324	3.242892	1.098722	0.000130
1574	1.5651e+02	-17.3498	-61.968015	0.000263	2.634850	0.892711	0.000105
1575	1.5661e+02	-17.2984	-61.927644	0.000101	1.013404	0.343351	0.000041
1576	1.5671e+02	-17.2615	-61.766158	0.000405	4.053615	1.373402	0.000162
1577	1.5681e+02	-17.2038	-61.697527	0.000172	1.722787	0.583696	0.000069
1578	1.5691e+02	-17.1813	-61.624858	0.000182	1.824127	0.618031	0.000073
1579	1.5701e+02	-17.1412	-61.572376	0.000132	1.317425	0.446356	0.000053
1580	1.5711e+02	-17.0931	-61.451262	0.000304	3.040212	1.030052	0.000122
1581	1.5721e+02	-17.0546	-61.366482	0.000213	2.128148	0.721036	0.000085
1582	1.5731e+02	-17.0257	-61.261516	0.000263	2.634850	0.892711	0.000105
1583	1.5741e+02	-16.9872	-61.221145	0.000101	1.013404	0.343351	0.000041
1584	1.5751e+02	-16.9407	-61.071771	0.000375	3.749594	1.270397	0.000150
1585	1.5761e+02	-16.9006	-61.047548	0.000061	0.608042	0.206010	0.000024
1586	1.5771e+02	-16.8589	-60.930471	0.000294	2.938871	0.995717	0.000118
1587	1.5781e+02	-16.8188	-60.825506	0.000263	2.634850	0.892711	0.000105
1588	1.5791e+02	-16.7739	-60.744763	0.000203	2.026808	0.686701	0.000081
1589	1.5801e+02	-16.7402	-60.623649	0.000304	3.040212	1.030052	0.000122
1590	1.5811e+02	-16.7001	-60.555018	0.000172	1.722787	0.583696	0.000069
1591	1.5821e+02	-16.6551	-60.450052	0.000263	2.634850	0.892711	0.000105
1592	1.5830e+02	-16.6199	-60.401606	0.000122	1.216085	0.412021	0.000049
1593	1.5840e+02	-16.5765	-60.292604	0.000274	2.736190	0.927046	0.000110
1594	1.5850e+02	-16.5412	-60.167452	0.000314	3.141552	1.064387	0.000126
1595	1.5860e+02	-16.4979	-60.098821	0.000172	1.722787	0.583696	0.000069
1596	1.5870e+02	-16.4530	-60.014041	0.000213	2.128148	0.721036	0.000085
1597	1.5880e+02	-16.4241	-59.892927	0.000304	3.040212	1.030052	0.000122
1598	1.5890e+02	-16.3760	-59.836407	0.000142	1.418765	0.480691	0.000057
1599	1.5900e+02	-16.3295	-59.747590	0.000223	2.229489	0.755371	0.000089
1600	1.5910e+02	-16.3086	-59.646662	0.000253	2.533510	0.858376	0.000101
1601	1.5920e+02	-16.2653	-59.533622	0.000284	2.837531	0.961381	0.000114
1602	1.5930e+02	-16.2300	-59.412508	0.000304	3.040212	1.030052	0.000122
1603	1.5940e+02	-16.1819	-59.368100	0.000111	1.114744	0.377686	0.000045
1604	1.5950e+02	-16.1402	-59.255060	0.000284	2.837531	0.961381	0.000114
1605	1.5960e+02	-16.1097	-59.137983	0.000294	2.938871	0.995717	0.000118
1606	1.5970e+02	-16.0584	-59.081463	0.000142	1.418765	0.480691	0.000057
1607	1.5980e+02	-16.0199	-58.932089	0.000375	3.749594	1.270397	0.000150
1608	1.5990e+02	-15.9862	-58.863458	0.000172	1.722787	0.583696	0.000069
1609	1.6000e+02	-15.9397	-58.730232	0.000334	3.344233	1.133057	0.000134
1610	1.6010e+02	-15.9076	-58.693898	0.000091	0.912063	0.309015	0.000037
1611	1.6019e+02	-15.8659	-58.588932	0.000263	2.634850	0.892711	0.000105
1612	1.6029e+02	-15.8274	-58.479930	0.000274	2.736190	0.927046	0.000110
1613	1.6039e+02	-15.7840	-58.387076	0.000233	2.330829	0.789706	0.000093
1614	1.6049e+02	-15.7488	-58.257887	0.000324	3.242892	1.098722	0.000130
1615	1.6059e+02	-15.7054	-58.201367	0.000142	1.418765	0.480691	0.000057
1616	1.6069e+02	-15.6589	-58.088328	0.000284	2.837531	0.961381	0.000114
1617	1.6079e+02	-15.6284	-58.007585	0.000203	2.026808	0.686701	0.000081
1618	1.6089e+02	-15.5835	-57.866285	0.000355	3.546914	1.201727	0.000142
1619	1.6099e+02	-15.5466	-57.797654	0.000172	1.722787	0.583696	0.000069
1620	1.6109e+02	-15.5081	-57.729022	0.000172	1.722787	0.583696	0.000069
1621	1.6119e+02	-15.4712	-57.603871	0.000314	3.141552	1.064387	0.000126
1622	1.6129e+02	-15.4215	-57.498906	0.000263	2.634850	0.892711	0.000105
1623	1.6139e+02	-15.3830	-57.418163	0.000203	2.026808	0.686701	0.000081
1624	1.6149e+02	-15.3541	-57.313198	0.000263	2.634850	0.892711	0.000105
1625	1.6159e+02	-15.2964	-57.179972	0.000334	3.344233	1.133057	0.000134
1626	1.6169e+02	-15.2611	-57.135564	0.000111	1.114744	0.377686	0.000045
1627	1.6179e+02	-15.2290	-57.010412	0.000314	3.141552	1.064387	0.000126
1628	1.6189e+02	-15.1841	-56.941781	0.000172	1.722787	0.583696	0.000069
1629	1.6199e+02	-15.1552	-56.772221	0.000426	4.256296	1.442072	0.000170
1630	1.6209e+02	-15.1135	-56.727813	0.000111	1.114744	0.377686	0.000045
1631	1.6219e+02	-15.0686	-56.630922	0.000243	2.432169	0.824041	0.000097
1632	1.6228e+02	-15.0317	-56.505770	0.000314	3.141552	1.064387	0.000126
1633	1.6238e+02	-14.9835	-56.384656	0.000304	3.040212	1.030052	0.000122
1634	1.6248e+02	-14.9531	-56.283728	0.000253	2.533510	0.858376	0.000101
1635	1.6258e+02	-14.9065	-56.142428	0.000355	3.546914	1.201727	0.000142
1636	1.6268e+02	-14.8744	-56.106094	0.000091	0.912063	0.309015	0.000037
1637	1.6278e+02	-14.8311	-55.997091	0.000274	2.736190	0.927046	0.000110
1638	1.6288e+02	-14.7910	-55.900200	0.000243	2.432169	0.824041	0.000097
1639	1.6298e+02	-14.7509	-55.775049	0.000314	3.141552	1.064387	0.000126
1640	1.6308e+02	-14.7108	-55.694306	0.000203	2.026808	0.686701	0.000081
1641	1.6318e+02	-14.6675	-55.569155	0.000314	3.141552	1.064387	0.000126
1642	1.6328e+02	-14.6258	-55.464189	0.000263	2.634850	0.892711	0.000105
1643	1.6338e+02	-14.5889	-55.375372	0.000223	2.229489	0.755371	0.000089
1644	1.6348e+02	-14.5488	-55.266370	0.000274	2.736190	0.927046	0.000110
1645	1.6358e+02	-14.5055	-55.181590	0.000213	2.128148	0.721036	0.000085
1646	1.6368e+02	-14.4654	-55.052401	0.000324	3.242892	1.098722	0.000130
1647	1.6378e+02	-14.4253	-54.951473	0.000253	2.533510	0.858376	0.000101
1648	1.6388e+02	-14.3852	-54.826322	0.000314	3.141552	1.064387	0.000126
1649	1.6398e+02	-14.3515	-54.753653	0.000182	1.824127	0.618031	0.000073
1650	1.6408e+02	-14.3114	-54.640614	0.000284	2.837531	0.961381	0.000114
1651	1.6418e+02	-14.2648	-54.511425	0.000324	3.242892	1.098722	0.000130
1652	1.6427e+02	-14.2295	-54.422608	0.000223	2.229489	0.755371	0.000089
1653	1.6437e+02	-14.1943	-54.309569	0.000284	2.837531	0.961381	0.000114
1654	1.6447e+02	-14.1541	-54.228826	0.000203	2.026808	0.686701	0.000081
1655	1.6457e+02	-14.1108	-54.115786	0.000284	2.837531	0.961381	0.000114
1656	1.6467e+02	-14.0723	-53.998709	0.000294	2.938871	0.995717	0.000118
1657	1.6477e+02	-14.0306	-53.893744	0.000263	2.634850	0.892711	0.000105
1658	1.6487e+02	-13.9953	-53.792815	0.000253	2.533510	0.858376	0.000101
1659	1.6497e+02	-13.9552	-53.699961	0.000233	2.330829	0.789706	0.000093
1660	1.6507e+02	-13.9135	-53.615181	0.000213	2.128148	0.721036	0.000085
1661	1.6517e+02	-13.8782	-53.477919	0.000345	3.445573	1.167392	0.000138
1662	1.6527e+02	-13.8365	-53.405250	0.000182	1.824127	0.618031	0.000073
1663	1.6537e+02	-13.7884	-53.251839	0.000385	3.850935	1.304732	0.000154
1664	1.6547e+02	-13.7515	-53.134762	0.000294	2.938871	0.995717	0.000118
1665	1.6557e+02	-13.7114	-52.989425	0.000365	3.648254	1.236062	0.000146
1666	1.6567e+02	-13.6841	-52.940980	0.000122	1.216085	0.412021	0.000049
1667	1.6577e+02	-13.6312	-52.815828	0.000314	3.141552	1.064387	0.000126
1668	1.6587e+02	-13.6055	-52.674529	0.000355	3.546914	1.201727	0.000142
1669	1.6597e+02	-13.5445	-52.541303	0.000334	3.344233	1.133057	0.000134
1670	1.6607e+02	-13.5108	-52.484783	0.000142	1.418765	0.480691	0.000057
1671	1.6616e+02	-13.4675	-52.379818	0.000263	2.634850	0.892711	0.000105
1672	1.6626e+02	-13.4338	-52.238518	0.000355	3.546914	1.201727	0.000142
1673	1.6636e+02	-13.3841	-52.149701	0.000223	2.229489	0.755371	0.000089
1674	1.6646e+02	-13.3520	-52.048773	0.000253	2.533510	0.858376	0.000101
1675	1.6656e+02	-13.3183	-51.927658	0.000304	3.040212	1.030052	0.000122
1676	1.6666e+02	-13.2654	-51.806544	0.000304	3.040212	1.030052	0.000122
1677	1.6676e+02	-13.2365	-51.733876	0.000182	1.824127	0.618031	0.000073
1678	1.6686e+02	-13.1852	-51.628910	0.000263	2.634850	0.892711	0.000105
1679	1.6696e+02	-13.1531	-51.491648	0.000345	3.445573	1.167392	0.000138
1680	1.6706e+02	-13.1130	-51.414942	0.000193	1.925467	0.652366	0.000077
1681	1.6716e+02	-13.0761	-51.257494	0.000395	3.952275	1.339067	0.000158
1682	1.6726e+02	-13.0328	-51.136380	0.000304	3.040212	1.030052	0.000122
1683	1.6736e+02	-12.9927	-51.035451	0.000253	2.533510	0.858376	0.000101
1684	1.6746e+02	-12.9590	-50.958746	0.000193	1.925467	0.652366	0.000077
1685	1.6756e+02	-12.9173	-50.845706	0.000284	2.837531	0.961381	0.000114
1686	1.6766e+02	-12.8772	-50.720555	0.000314	3.141552	1.064387	0.000126
1687	1.6776e+02	-12.8242	-50.615589	0.000263	2.634850	0.892711	0.000105
1688	1.6786e+02	-12.8018	-50.506587	0.000274	2.736190	0.927046	0.000110
1689	1.6796e+02	-12.7553	-50.401621	0.000263	2.634850	0.892711	0.000105
1690	1.6806e+02	-12.7184	-50.276470	0.000314	3.141552	1.064387	0.000126
1691	1.6816e+02	-12.6815	-50.159393	0.000294	2.938871	0.995717	0.000118
1692	1.6825e+02	-12.6333	-50.058465	0.000253	2.533510	0.858376	0.000101
1693	1.6835e+02	-12.6077	-49.941388	0.000294	2.938871	0.995717	0.000118
1694	1.6845e+02	-12.5531	-49.836422	0.000263	2.634850	0.892711	0.000105
1695	1.6855e+02	-12.5114	-49.723382	0.000284	2.837531	0.961381	0.000114
1696	1.6865e+02	-12.4697	-49.586120	0.000345	3.445573	1.167392	0.000138
1697	1.6875e+02	-12.4440	-49.493266	0.000233	2.330829	0.789706	0.000093
1698	1.6885e+02	-12.3927	-49.376189	0.000294	2.938871	0.995717	0.000118
1699	1.6895e+02	-12.3526	-49.242963	0.000334	3.344233	1.133057	0.000134
1700	1.6905e+02	-12.3189	-49.142035	0.000253	2.533510	0.858376	0.000101
1701	1.6915e+02	-12.2740	-49.041106	0.000253	2.533510	0.858376	0.000101
1702	1.6925e+02	-12.2483	-48.948252	0.000233	2.330829	0.789706	0.000093
1703	1.6935e+02	-12.2034	-48.827138	0.000304	3.040212	1.030052	0.000122
1704	1.6945e+02	-12.1553	-48.701987	0.000314	3.141552	1.064387	0.000126
1705	1.6955e+02	-12.1296	-48.552613	0.000375	3.749594	1.270397	0.000150
1706	1.6965e+02	-12.0799	-48.447647	0.000263	2.634850	0.892711	0.000105
1707	1.6975e+02	-12.0398	-48.338645	0.000274	2.736190	0.927046	0.000110
1708	1.6985e+02	-11.9948	-48.229642	0.000274	2.736190	0.927046	0.000110
1709	1.6995e+02	-11.9612	-48.132751	0.000243	2.432169	0.824041	0.000097
1710	1.7005e+02	-11.9259	-48.047971	0.000213	2.128148	0.721036	0.000085
1711	1.7015e+02	-11.8793	-47.910708	0.000345	3.445573	1.167392	0.000138
1712	1.7024e+02	-11.8408	-47.797669	0.000284	2.837531	0.961381	0.000114
1713	1.7034e+02	-11.7943	-47.688666	0.000274	2.736190	0.927046	0.000110
1714	1.7044e+02	-11.7606	-47.571589	0.000294	2.938871	0.995717	0.000118
1715	1.7054e+02	-11.7205	-47.434326	0.000345	3.445573	1.167392	0.000138
1716	1.7064e+02	-11.6836	-47.309175	0.000314	3.141552	1.064387	0.000126
1717	1.7074e+02	-11.6371	-47.220358	0.000223	2.229489	0.755371	0.000089
1718	1.7084e+02	-11.5970	-47.111355	0.000274	2.736190	0.927046	0.000110
1719	1.7094e+02	-11.5617	-47.022539	0.000223	2.229489	0.755371	0.000089
1720	1.7104e+02	-11.5184	-46.869127	0.000385	3.850935	1.304732	0.000154
1721	1.7114e+02	-11.4927	-46.764162	0.000263	2.634850	0.892711	0.000105
1722	1.7124e+02	-11.4334	-46.679382	0.000213	2.128148	0.721036	0.000085
1723	1.7134e+02	-11.3965	-46.538082	0.000355	3.546914	1.201727	0.000142
1724	1.7144e+02	-11.3692	-46.421005	0.000294	2.938871	0.995717	0.000118
1725	1.7154e+02	-11.3291	-46.320077	0.000253	2.533510	0.858376	0.000101
1726	1.7164e+02	-11.2874	-46.235297	0.000213	2.128148	0.721036	0.000085
1727	1.7174e+02	-11.2457	-46.098034	0.000345	3.445573	1.167392	0.000138
1728	1.7184e+02	-11.2024	-46.009217	0.000223	2.229489	0.755371	0.000089
1729	1.7194e+02	-11.1671	-45.892141	0.000294	2.938871	0.995717	0.000118
1730	1.7204e+02	-11.1125	-45.766989	0.000314	3.141552	1.064387	0.000126
1731	1.7213e+02	-11.0869	-45.613578	0.000385	3.850935	1.304732	0.000154
1732	1.7223e+02	-11.0484	-45.540910	0.000182	1.824127	0.618031	0.000073
1733	1.7233e+02	-11.0082	-45.403647	0.000345	3.445573	1.167392	0.000138
1734	1.7243e+02	-10.9617	-45.310793	0.000233	2.330829	0.789706	0.000093
1735	1.7253e+02	-10.9216	-45.173530	0.000345	3.445573	1.167392	0.000138
1736	1.7263e+02	-10.8847	-45.040305	0.000334	3.344233	1.133057	0.000134
1737	1.7273e+02	-10.8494	-44.983785	0.000142	1.418765	0.480691	0.000057
1738	1.7283e+02	-10.8077	-44.818262	0.000415	4.154956	1.407737	0.000166
1739	1.7293e+02	-10.7692	-44.693111	0.000314	3.141552	1.064387	0.000126
1740	1.7303e+02	-10.7275	-44.628517	0.000162	1.621446	0.549361	0.000065
1741	1.7313e+02	-10.6730	-44.515477	0.000284	2.837531	0.961381	0.000114
1742	1.7323e+02	-10.6473	-44.362066	0.000385	3.850935	1.304732	0.000154
1743	1.7333e+02	-10.6056	-44.277286	0.000213	2.128148	0.721036	0.000085
1744	1.7343e+02	-10.5719	-44.144061	0.000334	3.344233	1.133057	0.000134
1745	1.7353e+02	-10.5222	-44.010835	0.000334	3.344233	1.133057	0.000134
1746	1.7363e+02	-10.4917	-43.909907	0.000253	2.533510	0.858376	0.000101
1747	1.7373e+02	-10.4484	-43.752459	0.000395	3.952275	1.339067	0.000158
1748	1.7383e+02	-10.4115	-43.691902	0.000152	1.520106	0.515026	0.000061
1749	1.7393e+02	-10.3649	-43.570787	0.000304	3.040212	1.030052	0.000122
1750	1.7403e+02	-10.3281	-43.481970	0.000223	2.229489	0.755371	0.000089
1751	1.7413e+02	-10.2879	-43.348745	0.000334	3.344233	1.133057	0.000134
1752	1.7422e+02	-10.2462	-43.215520	0.000334	3.344233	1.133057	0.000134
1753	1.7432e+02	-10.2045	-43.090368	0.000314	3.141552	1.064387	0.000126
1754	1.7442e+02	-10.1644	-42.981366	0.000274	2.736190	0.927046	0.000110
1755	1.7452e+02	-10.1259	-42.888512	0.000233	2.330829	0.789706	0.000093
1756	1.7462e+02	-10.0826	-42.767397	0.000304	3.040212	1.030052	0.000122
1757	1.7472e+02	-10.0505	-42.642246	0.000314	3.141552	1.064387	0.000126
1758	1.7482e+02	-10.0088	-42.521132	0.000304	3.040212	1.030052	0.000122
1759	1.7492e+02	-9.9655	-42.432315	0.000223	2.229489	0.755371	0.000089
1760	1.7502e+02	-9.9238	-42.307164	0.000314	3.141552	1.064387	0.000126
1761	1.7512e+02	-9.8869	-42.194124	0.000284	2.837531	0.961381	0.000114
1762	1.7522e+02	-9.8452	-42.044750	0.000375	3.749594	1.270397	0.000150
1763	1.7532e+02	-9.8099	-41.968045	0.000193	1.925467	0.652366	0.000077
1764	1.7542e+02	-9.7618	-41.863079	0.000263	2.634850	0.892711	0.000105
1765	1.7552e+02	-9.7217	-41.721779	0.000355	3.546914	1.201727	0.000142
1766	1.7562e+02	-9.6880	-41.600665	0.000304	3.040212	1.030052	0.000122
1767	1.7572e+02	-9.6446	-41.532034	0.000172	1.722787	0.583696	0.000069
1768	1.7582e+02	-9.6078	-41.386697	0.000365	3.648254	1.236062	0.000146
1769	1.7592e+02	-9.5660	-41.273657	0.000284	2.837531	0.961381	0.000114
1770	1.7602e+02	-9.5324	-41.128320	0.000365	3.648254	1.236062	0.000146
1771	1.7612e+02	-9.4794	-41.023355	0.000263	2.634850	0.892711	0.000105
1772	1.7621e+02	-9.4521	-40.886092	0.000345	3.445573	1.167392	0.000138
1773	1.7631e+02	-9.4152	-40.760941	0.000314	3.141552	1.064387	0.000126
1774	1.7641e+02	-9.3671	-40.660013	0.000253	2.533510	0.858376	0.000101
1775	1.7651e+02	-9.3286	-40.542936	0.000294	2.938871	0.995717	0.000118
1776	1.7661e+02	-9.2981	-40.393562	0.000375	3.749594	1.270397	0.000150
1777	1.7671e+02	-9.2548	-40.320893	0.000182	1.824127	0.618031	0.000073
1778	1.7681e+02	-9.2099	-40.183631	0.000345	3.445573	1.167392	0.000138
1779	1.7691e+02	-9.1714	-40.074628	0.000274	2.736190	0.927046	0.000110
1780	1.7701e+02	-9.1345	-39.913142	0.000405	4.053615	1.373402	0.000162
1781	1.7711e+02	-9.0896	-39.836437	0.000193	1.925467	0.652366	0.000077
1782	1.7721e+02	-9.0527	-39.735509	0.000253	2.533510	0.858376	0.000101
1783	1.7731e+02	-9.0110	-39.634580	0.000253	2.533510	0.858376	0.000101
1784	1.7741e+02	-8.9693	-39.477132	0.000395	3.952275	1.339067	0.000158
1785	1.7751e+02	-8.9340	-39.339869	0.000345	3.445573	1.167392	0.000138
1786	1.7761e+02	-8.8971	-39.210681	0.000324	3.242892	1.098722	0.000130
1787	1.7771e+02	-8.8554	-39.105715	0.000263	2.634850	0.892711	0.000105
1788	1.7781e+02	-8.8104	-39.004787	0.000253	2.533510	0.858376	0.000101
1789	1.7791e+02	-8.7655	-38.863487	0.000355	3.546914	1.201727	0.000142
1790	1.7801e+02	-8.7206	-38.726225	0.000345	3.445573	1.167392	0.000138
1791	1.7810e+02	-8.6885	-38.649519	0.000193	1.925467	0.652366	0.000077
1792	1.7820e+02	-8.6500	-38.496108	0.000385	3.850935	1.304732	0.000154
1793	1.7830e+02	-8.6099	-38.370957	0.000314	3.141552	1.064387	0.000126
1794	1.7840e+02	-8.5698	-38.265991	0.000263	2.634850	0.892711	0.000105
1795	1.7850e+02	-8.5297	-38.169100	0.000243	2.432169	0.824041	0.000097
1796	1.7860e+02	-8.4944	-38.011652	0.000395	3.952275	1.339067	0.000158
1797	1.7870e+02	-8.4543	-37.906686	0.000263	2.634850	0.892711	0.000105
1798	1.7880e+02	-8.4142	-37.733089	0.000436	4.357637	1.476407	0.000174
1799	1.7890e+02	-8.3725	-37.652346	0.000203	2.026808	0.686701	0.000081
1800	1.7900e+02	-8.3260	-37.515084	0.000345	3.445573	1.167392	0.000138
1801	1.7910e+02	-8.2907	-37.406081	0.000274	2.736190	0.927046	0.000110
1802	1.7920e+02	-8.2554	-37.293041	0.000284	2.837531	0.961381	0.000114
1803	1.7930e+02	-8.2153	-37.147704	0.000365	3.648254	1.236062	0.000146
1804	1.7940e+02	-8.1784	-37.054850	0.000233	2.330829	0.789706	0.000093
1805	1.7950e+02	-8.1335	-36.873179	0.000456	4.560317	1.545077	0.000183
1806	1.7960e+02	-8.0853	-36.739954	0.000334	3.344233	1.133057	0.000134
1807	1.7970e+02	-8.0500	-36.634988	0.000263	2.634850	0.892711	0.000105
1808	1.7980e+02	-8.0131	-36.521948	0.000284	2.837531	0.961381	0.000114
1809	1.7990e+02	-7.9778	-36.408909	0.000284	2.837531	0.961381	0.000114
1810	1.8000e+02	-7.9313	-36.275683	0.000334	3.344233	1.133057	0.000134
1811	1.8009e+02	-7.8992	-36.162643	0.000284	2.837531	0.961381	0.000114
1812	1.8019e+02	-7.8479	-36.005195	0.000395	3.952275	1.339067	0.000158
1813	1.8029e+02	-7.8174	-35.880044	0.000314	3.141552	1.064387	0.000126
1814	1.8039e+02	-7.7741	-35.738744	0.000355	3.546914	1.201727	0.000142
1815	1.8049e+02	-7.7372	-35.649927	0.000223	2.229489	0.755371	0.000089
1816	1.8059e+02	-7.6907	-35.524776	0.000314	3.141552	1.064387	0.000126
1817	1.8069e+02	-7.6586	-35.359253	0.000415	4.154956	1.407737	0.000166
1818	1.8079e+02	-7.6185	-35.262362	0.000243	2.432169	0.824041	0.000097
1819	1.8089e+02	-7.5768	-35.145285	0.000294	2.938871	0.995717	0.000118
1820	1.8099e+02	-7.5351	-35.003985	0.000355	3.546914	1.201727	0.000142
1821	1.8109e+02	-7.5062	-34.870760	0.000334	3.344233	1.133057	0.000134
1822	1.8119e+02	-7.4565	-34.761757	0.000274	2.736190	0.927046	0.000110
1823	1.8129e+02	-7.4148	-34.644680	0.000294	2.938871	0.995717	0.000118
1824	1.8139e+02	-7.3875	-34.539715	0.000263	2.634850	0.892711	0.000105
1825	1.8149e+02	-7.3362	-34.374192	0.000415	4.154956	1.407737	0.000166
1826	1.8159e+02	-7.2977	-34.257115	0.000294	2.938871	0.995717	0.000118
1827	1.8169e+02	-7.2495	-34.099667	0.000395	3.952275	1.339067	0.000158
1828	1.8179e+02	-7.2142	-33.990664	0.000274	2.736190	0.927046	0.000110
1829	1.8189e+02	-7.1757	-33.817068	0.000436	4.357637	1.476407	0.000174
1830	1.8199e+02	-7.1244	-33.720176	0.000243	2.432169	0.824041	0.000097
1831	1.8209e+02	-7.0971	-33.578877	0.000355	3.546914	1.201727	0.000142
1832	1.8218e+02	-7.0554	-33.441614	0.000345	3.445573	1.167392	0.000138
1833	1.8228e+02	-7.0281	-33.324537	0.000294	2.938871	0.995717	0.000118
1834	1.8238e+02	-6.9800	-33.203423	0.000304	3.040212	1.030052	0.000122
1835	1.8248e+02	-6.9415	-33.086346	0.000294	2.938871	0.995717	0.000118
1836	1.8258e+02	-6.8918	-32.936972	0.000375	3.749594	1.270397	0.000150
1837	1.8268e+02	-6.8549	-32.767412	0.000426	4.256296	1.442072	0.000170
1838	1.8278e+02	-6.8196	-32.686670	0.000203	2.026808	0.686701	0.000081
1839	1.8288e+02	-6.7891	-32.521147	0.000415	4.154956	1.407737	0.000166
1840	1.8298e+02	-6.7442	-32.412144	0.000274	2.736190	0.927046	0.000110
1841	1.8308e+02	-6.7009	-32.234510	0.000446	4.458977	1.510742	0.000179
1842	1.8318e+02	-6.6528	-32.117433	0.000294	2.938871	0.995717	0.000118
1843	1.8328e+02	-6.6239	-32.012468	0.000263	2.634850	0.892711	0.000105
1844	1.8338e+02	-6.5774	-31.867131	0.000365	3.648254	1.236062	0.000146
1845	1.8348e+02	-6.5324	-31.766203	0.000253	2.533510	0.858376	0.000101
1846	1.8358e+02	-6.4923	-31.612791	0.000385	3.850935	1.304732	0.000154
1847	1.8368e+02	-6.4635	-31.451306	0.000405	4.053615	1.373402	0.000162
1848	1.8378e+02	-6.4233	-31.350378	0.000253	2.533510	0.858376	0.000101
1849	1.8388e+02	-6.3881	-31.237338	0.000284	2.837531	0.961381	0.000114
1850	1.8398e+02	-6.3415	-31.067778	0.000426	4.256296	1.442072	0.000170
1851	1.8407e+02	-6.2982	-30.978961	0.000223	2.229489	0.755371	0.000089
1852	1.8417e+02	-6.2581	-30.813439	0.000415	4.154956	1.407737	0.000166
1853	1.8427e+02	-6.2212	-30.724622	0.000223	2.229489	0.755371	0.000089
1854	1.8437e+02	-6.1827	-30.591396	0.000334	3.344233	1.133057	0.000134
1855	1.8447e+02	-6.1394	-30.446059	0.000365	3.648254	1.236062	0.000146
1856	1.8457e+02	-6.1041	-30.312834	0.000334	3.344233	1.133057	0.000134
1857	1.8467e+02	-6.0720	-30.163460	0.000375	3.749594	1.270397	0.000150
1858	1.8477e+02	-6.0255	-30.026197	0.000345	3.445573	1.167392	0.000138
1859	1.8487e+02	-5.9950	-29.941417	0.000213	2.128148	0.721036	0.000085
1860	1.8497e+02	-5.9485	-29.775895	0.000415	4.154956	1.407737	0.000166
1861	1.8507e+02	-5.9052	-29.622483	0.000385	3.850935	1.304732	0.000154
1862	1.8517e+02	-5.8603	-29.509444	0.000284	2.837531	0.961381	0.000114
1863	1.8527e+02	-5.8218	-29.364107	0.000365	3.648254	1.236062	0.000146
1864	1.8537e+02	-5.7833	-29.263178	0.000253	2.533510	0.858376	0.000101
1865	1.8547e+02	-5.7480	-29.101693	0.000405	4.053615	1.373402	0.000162
1866	1.8557e+02	-5.7079	-28.984616	0.000294	2.938871	0.995717	0.000118
1867	1.8567e+02	-5.6662	-28.871576	0.000284	2.837531	0.961381	0.000114
1868	1.8577e+02	-5.6325	-28.689905	0.000456	4.560317	1.545077	0.000183
1869	1.8587e+02	-5.5859	-28.572828	0.000294	2.938871	0.995717	0.000118
1870	1.8597e+02	-5.5555	-28.463826	0.000274	2.736190	0.927046	0.000110
1871	1.8606e+02	-5.5009	-28.314451	0.000375	3.749594	1.270397	0.000150
1872	1.8616e+02	-5.4640	-28.132780	0.000456	4.560317	1.545077	0.000183
1873	1.8626e+02	-5.4255	-27.999555	0.000334	3.344233	1.133057	0.000134
1874	1.8636e+02	-5.3886	-27.882478	0.000294	2.938871	0.995717	0.000118
1875	1.8646e+02	-5.3437	-27.777512	0.000263	2.634850	0.892711	0.000105
1876	1.8656e+02	-5.2988	-27.599878	0.000446	4.458977	1.510742	0.000179
1877	1.8666e+02	-5.2555	-27.490876	0.000274	2.736190	0.927046	0.000110
1878	1.8676e+02	-5.2298	-27.353613	0.000345	3.445573	1.167392	0.000138
1879	1.8686e+02	-5.1913	-27.232499	0.000304	3.040212	1.030052	0.000122
1880	1.8696e+02	-5.1416	-27.099274	0.000334	3.344233	1.133057	0.000134
1881	1.8706e+02	-5.1175	-26.945862	0.000385	3.850935	1.304732	0.000154
1882	1.8716e+02	-5.0581	-26.824748	0.000304	3.040212	1.030052	0.000122
1883	1.8726e+02	-5.0277	-26.719783	0.000263	2.634850	0.892711	0.000105
1884	1.8736e+02	-4.9908	-26.542149	0.000446	4.458977	1.510742	0.000179
1885	1.8746e+02	-4.9458	-26.392775	0.000375	3.749594	1.270397	0.000150
1886	1.8756e+02	-4.9090	-26.271661	0.000304	3.040212	1.030052	0.000122
1887	1.8766e+02	-4.8753	-26.142472	0.000324	3.242892	1.098722	0.000130
1888	1.8776e+02	-4.8303	-26.001173	0.000355	3.546914	1.201727	0.000142
1889	1.8786e+02	-4.7838	-25.876022	0.000314	3.141552	1.064387	0.000126
1890	1.8796e+02	-4.7437	-25.742796	0.000334	3.344233	1.133057	0.000134
1891	1.8806e+02	-4.7100	-25.613608	0.000324	3.242892	1.098722	0.000130
1892	1.8815e+02	-4.6667	-25.480382	0.000334	3.344233	1.133057	0.000134
1893	1.8825e+02	-4.6282	-25.387528	0.000233	2.330829	0.789706	0.000093
1894	1.8835e+02	-4.5929	-25.230080	0.000395	3.952275	1.339067	0.000158
1895	1.8845e+02	-4.5512	-25.092817	0.000345	3.445573	1.167392	0.000138
1896	1.8855e+02	-4.5127	-24.939406	0.000385	3.850935	1.304732	0.000154
1897	1.8865e+02	-4.4710	-24.830403	0.000274	2.736190	0.927046	0.000110
1898	1.8875e+02	-4.4341	-24.676992	0.000385	3.850935	1.304732	0.000154
1899	1.8885e+02	-4.3924	-24.527618	0.000375	3.749594	1.270397	0.000150
1900	1.8895e+02	-4.3427	-24.390356	0.000345	3.445573	1.167392	0.000138
1901	1.8905e+02	-4.3090	-24.257130	0.000334	3.344233	1.133057	0.000134
1902	1.8915e+02	-4.2737	-24.152165	0.000263	2.634850	0.892711	0.000105
1903	1.8925e+02	-4.2384	-24.010865	0.000355	3.546914	1.201727	0.000142
1904	1.8935e+02	-4.1854	-23.861491	0.000375	3.749594	1.270397	0.000150
1905	1.8945e+02	-4.1598	-23.724228	0.000345	3.445573	1.167392	0.000138
1906	1.8955e+02	-4.1133	-23.586966	0.000345	3.445573	1.167392	0.000138
1907	1.8965e+02	-4.0764	-23.506223	0.000203	2.026808	0.686701	0.000081
1908	1.8975e+02	-4.0330	-23.348775	0.000395	3.952275	1.339067	0.000158
1909	1.8985e+02	-3.9977	-23.175178	0.000436	4.357637	1.476407	0.000174
1910	1.8995e+02	-3.9448	-23.058101	0.000294	2.938871	0.995717	0.000118
1911	1.9004e+02	-3.9031	-22.900652	0.000395	3.952275	1.339067	0.000158
1912	1.9014e+02	-3.8694	-22.775501	0.000314	3.141552	1.064387	0.000126
1913	1.9024e+02	-3.8309	-22.658424	0.000294	2.938871	0.995717	0.000118
1914	1.9034e+02	-3.7908	-22.517125	0.000355	3.546914	1.201727	0.000142
1915	1.9044e+02	-3.7491	-22.412159	0.000263	2.634850	0.892711	0.000105
1916	1.9054e+02	-3.7074	-22.274896	0.000345	3.445573	1.167392	0.000138
1917	1.9064e+02	-3.6673	-22.141671	0.000334	3.344233	1.133057	0.000134
1918	1.9074e+02	-3.6320	-21.984223	0.000395	3.952275	1.339067	0.000158
1919	1.9084e+02	-3.5903	-21.822737	0.000405	4.053615	1.373402	0.000162
1920	1.9094e+02	-3.5646	-21.737957	0.000213	2.128148	0.721036	0.000085
1921	1.9104e+02	-3.5101	-21.580509	0.000395	3.952275	1.339067	0.000158
1922	1.9114e+02	-3.4780	-21.431135	0.000375	3.749594	1.270397	0.000150
1923	1.9124e+02	-3.4347	-21.350392	0.000203	2.026808	0.686701	0.000081
1924	1.9134e+02	-3.3865	-21.148536	0.000507	5.067019	1.716753	0.000203
1925	1.9144e+02	-3.3528	-21.031459	0.000294	2.938871	0.995717	0.000118
1926	1.9154e+02	-3.3127	-20.882085	0.000375	3.749594	1.270397	0.000150
1927	1.9164e+02	-3.2742	-20.789230	0.000233	2.330829	0.789706	0.000093
1928	1.9174e+02	-3.2357	-20.619671	0.000426	4.256296	1.442072	0.000170
1929	1.9184e+02	-3.1876	-20.502594	0.000294	2.938871	0.995717	0.000118
1930	1.9194e+02	-3.1539	-20.377443	0.000314	3.141552	1.064387	0.000126
1931	1.9203e+02	-3.1202	-20.244217	0.000334	3.344233	1.133057	0.000134
1932	1.9213e+02	-3.0769	-20.070620	0.000436	4.357637	1.476407	0.000174
1933	1.9223e+02	-3.0416	-19.989878	0.000203	2.026808	0.686701	0.000081
1934	1.9233e+02	-2.9951	-19.820318	0.000426	4.256296	1.442072	0.000170
1935	1.9243e+02	-2.9550	-19.683055	0.000345	3.445573	1.167392	0.000138
1936	1.9253e+02	-2.9181	-19.574053	0.000274	2.736190	0.927046	0.000110
1937	1.9263e+02	-2.8636	-19.424679	0.000375	3.749594	1.270397	0.000150
1938	1.9273e+02	-2.8315	-19.255119	0.000426	4.256296	1.442072	0.000170
1939	1.9283e+02	-2.8010	-19.117856	0.000345	3.445573	1.167392	0.000138
1940	1.9293e+02	-2.7625	-18.972519	0.000365	3.648254	1.236062	0.000146
1941	1.9303e+02	-2.7128	-18.839294	0.000334	3.344233	1.133057	0.000134
1942	1.9313e+02	-2.6807	-18.734328	0.000263	2.634850	0.892711	0.000105
1943	1.9323e+02	-2.6358	-18.568806	0.000415	4.154956	1.407737	0.000166
1944	1.9333e+02	-2.5989	-18.427506	0.000355	3.546914	1.201727	0.000142
1945	1.9343e+02	-2.5539	-18.326578	0.000253	2.533510	0.858376	0.000101
1946	1.9353e+02	-2.5122	-18.124721	0.000507	5.067019	1.716753	0.000203
1947	1.9363e+02	-2.4817	-18.064164	0.000152	1.520106	0.515026	0.000061
1948	1.9373e+02	-2.4465	-17.858270	0.000517	5.168360	1.751088	0.000207
1949	1.9383e+02	-2.3967	-17.753304	0.000263	2.634850	0.892711	0.000105
1950	1.9393e+02	-2.3566	-17.599893	0.000385	3.850935	1.304732	0.000154
1951	1.9403e+02	-2.3229	-17.446482	0.000385	3.850935	1.304732	0.000154
1952	1.9412e+02	-2.2716	-17.276922	0.000426	4.256296	1.442072	0.000170
1953	1.9422e+02	-2.2379	-17.184068	0.000233	2.330829	0.789706	0.000093
1954	1.9432e+02	-2.1946	-17.079103	0.000263	2.634850	0.892711	0.000105
1955	1.9442e+02	-2.1577	-16.925692	0.000385	3.850935	1.304732	0.000154
1956	1.9452e+02	-2.1160	-16.752095	0.000436	4.357637	1.476407	0.000174
1957	1.9462e+02	-2.0743	-16.647129	0.000263	2.634850	0.892711	0.000105
1958	1.9472e+02	-2.0406	-16.441235	0.000517	5.168360	1.751088	0.000207
1959	1.9482e+02	-2.0021	-16.303973	0.000345	3.445573	1.167392	0.000138
1960	1.9492e+02	-1.9491	-16.239379	0.000162	1.621446	0.549361	0.000065
1961	1.9502e+02	-1.9267	-16.069819	0.000426	4.256296	1.442072	0.000170
1962	1.9512e+02	-1.8786	-15.904296	0.000415	4.154956	1.407737	0.000166
1963	1.9522e+02	-1.8368	-15.807405	0.000243	2.432169	0.824041	0.000097
1964	1.9532e+02	-1.7967	-15.625734	0.000456	4.560317	1.545077	0.000183
1965	1.9542e+02	-1.7663	-15.508657	0.000294	2.938871	0.995717	0.000118
1966	1.9552e+02	-1.7181	-15.331023	0.000446	4.458977	1.510742	0.000179
1967	1.9562e+02	-1.6860	-15.222020	0.000274	2.736190	0.927046	0.000110
1968	1.9572e+02	-1.6331	-15.056498	0.000415	4.154956	1.407737	0.000166
1969	1.9582e+02	-1.5978	-14.967681	0.000223	2.229489	0.755371	0.000089
1970	1.9592e+02	-1.5609	-14.765824	0.000507	5.067019	1.716753	0.000203
1971	1.9601e+02	-1.5192	-14.624524	0.000355	3.546914	1.201727	0.000142
1972	1.9611e+02	-1.4871	-14.499373	0.000314	3.141552	1.064387	0.000126
1973	1.9621e+02	-1.4422	-14.362110	0.000345	3.445573	1.167392	0.000138
1974	1.9631e+02	-1.3796	-14.208699	0.000385	3.850935	1.304732	0.000154
1975	1.9641e+02	-1.3668	-14.083548	0.000314	3.141552	1.064387	0.000126
1976	1.9651e+02	-1.3219	-13.918025	0.000415	4.154956	1.407737	0.000166
1977	1.9661e+02	-1.2818	-13.780763	0.000345	3.445573	1.167392	0.000138
1978	1.9671e+02	-1.2401	-13.631389	0.000375	3.749594	1.270397	0.000150
1979	1.9681e+02	-1.1968	-13.461829	0.000426	4.256296	1.442072	0.000170
1980	1.9691e+02	-1.1615	-13.324567	0.000345	3.445573	1.167392	0.000138
1981	1.9701e+02	-1.1246	-13.219601	0.000263	2.634850	0.892711	0.000105
1982	1.9711e+02	-1.0748	-13.046004	0.000436	4.357637	1.476407	0.000174
1983	1.9721e+02	-1.0444	-12.884519	0.000405	4.053615	1.373402	0.000162
1984	1.9731e+02	-1.0059	-12.747256	0.000345	3.445573	1.167392	0.000138
1985	1.9741e+02	-0.9657	-12.614031	0.000334	3.344233	1.133057	0.000134
1986	1.9751e+02	-0.9208	-12.464657	0.000375	3.749594	1.270397	0.000150
1987	1.9761e+02	-0.8839	-12.323357	0.000355	3.546914	1.201727	0.000142
1988	1.9771e+02	-0.8406	-12.194168	0.000324	3.242892	1.098722	0.000130
1989	1.9781e+02	-0.7957	-12.020572	0.000436	4.357637	1.476407	0.000174
1990	1.9791e+02	-0.7572	-11.883309	0.000345	3.445573	1.167392	0.000138
1991	1.9800e+02	-0.7203	-11.754121	0.000324	3.242892	1.098722	0.000130
1992	1.9810e+02	-0.6770	-11.616858	0.000345	3.445573	1.167392	0.000138
1993	1.9820e+02	-0.6513	-11.455373	0.000405	4.053615	1.373402	0.000162
1994	1.9830e+02	-0.6128	-11.346370	0.000274	2.736190	0.927046	0.000110
1995	1.9840e+02	-0.5727	-11.172773	0.000436	4.357637	1.476407	0.000174
1996	1.9850e+02	-0.5278	-11.019362	0.000385	3.850935	1.304732	0.000154
1997	1.9860e+02	-0.4909	-10.849802	0.000426	4.256296	1.442072	0.000170
1998	1.9870e+02	-0.4524	-10.724651	0.000314	3.141552	1.064387	0.000126
1999	1.9880e+02	-0.4107	-10.579314	0.000365	3.648254	1.236062	0.000146
2000	1.9890e+02	-0.3610	-10.433977	0.000365	3.648254	1.236062	0.000146
2001	1.9900e+02	-0.3273	-10.276529	0.000395	3.952275	1.339067	0.000158
2002	1.9910e+02	-0.2807	-10.135229	0.000355	3.546914	1.201727	0.000142
2003	1.9920e+02	-0.2487	-9.961632	0.000436	4.357637	1.476407	0.000174
2004	1.9930e+02	-0.2069	-9.836481	0.000314	3.141552	1.064387	0.000126
2005	1.9940e+02	-0.1684	-9.650773	0.000466	4.661658	1.579412	0.000187
2006	1.9950e+02	-0.1283	-9.553882	0.000243	2.432169	0.824041	0.000097
2007	1.9960e+02	-0.0946	-9.392396	0.000405	4.053615	1.373402	0.000162
2008	1.9970e+02	-0.0401	-9.226874	0.000415	4.154956	1.407737	0.000166
2009	1.9980e+02	-0.0064	-9.053277	0.000415	4.154956	1.407737	0.000174

PMax (uC/cm2):	7.06e+01
Pr (uC/cm2):	3.77e+00
-Pr (uC/cm2):	-5.26e+00
PLoss (uC/cm2):	-5.27e+00
-Vc:	-1.04e+00
C (Max-Eff) (nF):	3.53e-01
K (Eff):	1.20e+03
Vert. (+/-Pr) Shift (uC/cm2):	-7.41e-01
Offset (uC/cm2):	3.80e+00

A (Loop Area - uC/cm2·Volts):	4.58e-02



Hysteresis Version: 5.48.1 - Radiant Technologies, Inc., 1999 - 9/12/24

