»»»»»»»»»»»»»»»»»»»»»»»»»»»»»»»»»»»» Hysteresis ««««««««««««««««««««««««««««««««««««
»»»  Executed Version:	5.48.1
»»»  Vision Version:	5.48.4 (R)
»»»  Vision Compiled:	9/18/24
»»»  Driver Version:	5.47.0
»»»  Windows Version:	Windows 8 or 8.1
»»»  Processor Information:	x86 (AMD or Intel) - 32 Processors
»»»  Tester Name:	PMF21124-494 (100V)
»»»  Tester S/N:	PMF21124-494
»»»  Internal Amp Type:	100V RevK 270k
»»»  Internal Amp S/N:	iAB2-596/K     
»»»  Execution Count:	1
»»»»»»»»»»»»»»»»»»»»»»»»»»»»»»»»»»»»»»»»»»««««««««««««««««««««««««««««««««««««««««««

Stored:	6/18/2025 - 10:0:9
Configured:	06/18/25 09:47:30 AM
Executed:	06/18/25 09:59:31 AM

»»»»»»»»»»»»»»»»»»»»»»»»»»»»»»»»»»» Sample Info ««««««««««««««««««««««««««««««««««««
Sample Name:	
Lot Name:	
Wafer Name:	
Die Row/Column:	0/0
Capacitor Number:	0
Sample Area (cm2):	1.00e-04
Sample Thickness (microns):	3.00e-01

Amplifier:	Internal

»»»»»»»»»»»»»»»»»»»»»»»»»»»»»»»»»»» Tester Info «««««««««««««««««««««««««««««««««««
Tester Name:	PMF21124-494 (100V)
Tester Serial Number:	PMF21124-494
Return Signal Amp. Level:	0.19 [Index: 3]

»»»»»»»»»»»»»»»»»»»»»»»»»»»»»»»» Hysteresis Info ««««««««««««««««««««««««««««««««««
Task Name:	Hyst-554
Volts:	20.00
Field:	666.67 (kV/cm)
DCBias:	0.00
DCField:	0.00 (kV/cm)
Hysteresis Period (ms):	2.00e+02
Preset:	Enabled
Preset Delay (ms):	1.00e+03
Profile:	Standard Bipolar

»»»»»»»»»»»»»»»»»»»»»»»»»»»»»»»»»»»»»» Data «««««««««««««««««««««««««««««««««««««««
Points:	2009

Valid Data

Point	Time (ms)	Drive Voltage	Measured Polarization (uC/cm2)	Capacitance (uF)	Normalized Capacitance (uF/cm2)	Dielectric Constant	Instantaneous Current (mA)
   1	0.0000e+00	-0.0176	15.008052	0.000193	1.925622	0.652418	0.000077
   2	9.9500e-02	0.0064	15.084758	0.000193	1.925622	0.652418	0.000077
   3	1.9900e-01	0.0497	15.238169	0.000385	3.851244	1.304837	0.000154
   4	2.9850e-01	0.0930	15.395617	0.000395	3.952592	1.339174	0.000158
   5	3.9800e-01	0.1348	15.480397	0.000213	2.128319	0.721094	0.000085
   6	4.9750e-01	0.1765	15.645920	0.000416	4.155289	1.407850	0.000166
   7	5.9700e-01	0.2053	15.819516	0.000436	4.357986	1.476526	0.000174
   8	6.9650e-01	0.2535	15.928519	0.000274	2.736410	0.927121	0.000110
   9	7.9600e-01	0.2856	16.122302	0.000486	4.864729	1.648215	0.000195
  10	8.9550e-01	0.3369	16.231304	0.000274	2.736410	0.927121	0.000110
  11	9.9500e-01	0.3674	16.372604	0.000355	3.547198	1.201823	0.000142
  12	1.0945e+00	0.4123	16.562349	0.000476	4.763380	1.613877	0.000191
  13	1.1940e+00	0.4556	16.679426	0.000294	2.939107	0.995796	0.000118
  14	1.2935e+00	0.4845	16.808615	0.000324	3.243153	1.098810	0.000130
  15	1.3930e+00	0.5326	16.966063	0.000395	3.952592	1.339174	0.000158
  16	1.4925e+00	0.5727	17.171957	0.000517	5.168774	1.751228	0.000207
  17	1.5920e+00	0.6112	17.260774	0.000223	2.229667	0.755432	0.000089
  18	1.6915e+00	0.6497	17.430334	0.000426	4.256638	1.442188	0.000170
  19	1.7910e+00	0.6882	17.583745	0.000385	3.851244	1.304837	0.000154
  20	1.8905e+00	0.7251	17.753304	0.000426	4.256638	1.442188	0.000170
  21	1.9900e+00	0.7620	17.874418	0.000304	3.040456	1.030134	0.000122
  22	2.0895e+00	0.8166	18.056090	0.000456	4.560683	1.545201	0.000183
  23	2.1890e+00	0.8583	18.221612	0.000416	4.155289	1.407850	0.000166
  24	2.2885e+00	0.8887	18.387135	0.000416	4.155289	1.407850	0.000166
  25	2.3880e+00	0.9353	18.512286	0.000314	3.141804	1.064472	0.000126
  26	2.4875e+00	0.9657	18.681846	0.000426	4.256638	1.442188	0.000170
  27	2.5870e+00	1.0042	18.839294	0.000395	3.952592	1.339174	0.000158
  28	2.6865e+00	1.0476	18.992705	0.000385	3.851244	1.304837	0.000154
  29	2.7860e+00	1.0877	19.121893	0.000324	3.243153	1.098810	0.000130
  30	2.8855e+00	1.1294	19.291453	0.000426	4.256638	1.442188	0.000170
  31	2.9850e+00	1.1711	19.481199	0.000476	4.763380	1.613877	0.000191
  32	3.0845e+00	1.2112	19.590201	0.000274	2.736410	0.927121	0.000110
  33	3.1840e+00	1.2433	19.767835	0.000446	4.459335	1.510864	0.000179
  34	3.2835e+00	1.2882	19.925283	0.000395	3.952592	1.339174	0.000158
  35	3.3830e+00	1.3235	20.078695	0.000385	3.851244	1.304837	0.000154
  36	3.4825e+00	1.3796	20.260366	0.000456	4.560683	1.545201	0.000183
  37	3.5820e+00	1.4053	20.381480	0.000304	3.040456	1.030134	0.000122
  38	3.6815e+00	1.4422	20.579299	0.000497	4.966077	1.682553	0.000199
  39	3.7810e+00	1.4807	20.740785	0.000405	4.053941	1.373512	0.000162
  40	3.8805e+00	1.5272	20.898233	0.000395	3.952592	1.339174	0.000158
  41	3.9800e+00	1.5609	21.059719	0.000405	4.053941	1.373512	0.000162
  42	4.0795e+00	1.5962	21.152573	0.000233	2.331016	0.789770	0.000093
  43	4.1790e+00	1.6475	21.334244	0.000456	4.560683	1.545201	0.000183
  44	4.2785e+00	1.6877	21.544175	0.000527	5.270123	1.785566	0.000211
  45	4.3780e+00	1.7246	21.693549	0.000375	3.749895	1.270499	0.000150
  46	4.4775e+00	1.7663	21.834849	0.000355	3.547198	1.201823	0.000142
  47	4.5770e+00	1.8096	22.040743	0.000517	5.168774	1.751228	0.000207
  48	4.6765e+00	1.8497	22.145708	0.000264	2.635061	0.892783	0.000105
  49	4.7760e+00	1.8818	22.311231	0.000416	4.155289	1.407850	0.000166
  50	4.8755e+00	1.9267	22.452530	0.000355	3.547198	1.201823	0.000142
  51	4.9750e+00	1.9764	22.638239	0.000466	4.662032	1.579539	0.000187
  52	5.0745e+00	2.0117	22.811835	0.000436	4.357986	1.476526	0.000174
  53	5.1740e+00	2.0422	22.973321	0.000405	4.053941	1.373512	0.000162
  54	5.2735e+00	2.0887	23.090398	0.000294	2.939107	0.995796	0.000118
  55	5.3730e+00	2.1176	23.280143	0.000476	4.763380	1.613877	0.000191
  56	5.4725e+00	2.1657	23.482000	0.000507	5.067426	1.716890	0.000203
  57	5.5720e+00	2.2074	23.562743	0.000203	2.026970	0.686756	0.000081
  58	5.6715e+00	2.2523	23.796897	0.000588	5.878214	1.991593	0.000235
  59	5.7710e+00	2.2941	23.922048	0.000314	3.141804	1.064472	0.000126
  60	5.8705e+00	2.3293	24.111793	0.000476	4.763380	1.613877	0.000191
  61	5.9700e+00	2.3759	24.240982	0.000324	3.243153	1.098810	0.000130
  62	6.0695e+00	2.4047	24.446875	0.000517	5.168774	1.751228	0.000207
  63	6.1690e+00	2.4432	24.616435	0.000426	4.256638	1.442188	0.000170
  64	6.2685e+00	2.4898	24.765809	0.000375	3.749895	1.270499	0.000150
  65	6.3680e+00	2.5315	24.987852	0.000557	5.574168	1.888579	0.000223
  66	6.4675e+00	2.5604	25.129151	0.000355	3.547198	1.201823	0.000142
  67	6.5670e+00	2.5989	25.246228	0.000294	2.939107	0.995796	0.000118
  68	6.6665e+00	2.6438	25.452122	0.000517	5.168774	1.751228	0.000207
  69	6.7660e+00	2.6823	25.589385	0.000345	3.445850	1.167485	0.000138
  70	6.8655e+00	2.7256	25.779130	0.000476	4.763380	1.613877	0.000191
  71	6.9650e+00	2.7577	25.904281	0.000314	3.141804	1.064472	0.000126
  72	7.0645e+00	2.8042	26.049618	0.000365	3.648547	1.236161	0.000146
  73	7.1640e+00	2.8443	26.259549	0.000527	5.270123	1.785566	0.000211
  74	7.2635e+00	2.8892	26.453332	0.000486	4.864729	1.648215	0.000195
  75	7.3630e+00	2.9277	26.586557	0.000334	3.344501	1.133148	0.000134
  76	7.4625e+00	2.9630	26.792451	0.000517	5.168774	1.751228	0.000207
  77	7.5620e+00	3.0031	26.937788	0.000365	3.648547	1.236161	0.000146
  78	7.6615e+00	3.0448	27.075051	0.000345	3.445850	1.167485	0.000138
  79	7.7610e+00	3.0881	27.264796	0.000476	4.763380	1.613877	0.000191
  80	7.8605e+00	3.1170	27.402059	0.000345	3.445850	1.167485	0.000138
  81	7.9600e+00	3.1587	27.644287	0.000608	6.080911	2.060268	0.000243
  82	8.0595e+00	3.2037	27.753290	0.000274	2.736410	0.927121	0.000110
  83	8.1590e+00	3.2486	27.938998	0.000466	4.662032	1.579539	0.000187
  84	8.2585e+00	3.2791	28.124706	0.000466	4.662032	1.579539	0.000187
  85	8.3580e+00	3.3143	28.274080	0.000375	3.749895	1.270499	0.000150
  86	8.4575e+00	3.3673	28.455751	0.000456	4.560683	1.545201	0.000183
  87	8.5570e+00	3.3994	28.637422	0.000456	4.560683	1.545201	0.000183
  88	8.6565e+00	3.4427	28.774685	0.000345	3.445850	1.167485	0.000138
  89	8.7560e+00	3.4764	28.968467	0.000486	4.864729	1.648215	0.000195
  90	8.8555e+00	3.5245	29.073433	0.000264	2.635061	0.892783	0.000105
  91	8.9550e+00	3.5550	29.279327	0.000517	5.168774	1.751228	0.000207
  92	9.0545e+00	3.5951	29.473109	0.000486	4.864729	1.648215	0.000195
  93	9.1540e+00	3.6384	29.654781	0.000456	4.560683	1.545201	0.000183
  94	9.2535e+00	3.6817	29.808192	0.000385	3.851244	1.304837	0.000154
  95	9.3530e+00	3.7234	29.989863	0.000456	4.560683	1.545201	0.000183
  96	9.4525e+00	3.7667	30.183645	0.000486	4.864729	1.648215	0.000195
  97	9.5520e+00	3.7892	30.308797	0.000314	3.141804	1.064472	0.000126
  98	9.6515e+00	3.8437	30.498542	0.000476	4.763380	1.613877	0.000191
  99	9.7510e+00	3.8758	30.664064	0.000416	4.155289	1.407850	0.000166
 100	9.8505e+00	3.9159	30.837661	0.000436	4.357986	1.476526	0.000174
 101	9.9500e+00	3.9592	31.027407	0.000476	4.763380	1.613877	0.000191
 102	1.0050e+01	3.9945	31.184855	0.000395	3.952592	1.339174	0.000158
 103	1.0149e+01	4.0379	31.366526	0.000456	4.560683	1.545201	0.000183
 104	1.0248e+01	4.0748	31.503789	0.000345	3.445850	1.167485	0.000138
 105	1.0348e+01	4.1277	31.681423	0.000446	4.459335	1.510864	0.000179
 106	1.0447e+01	4.1518	31.830797	0.000375	3.749895	1.270499	0.000150
 107	1.0547e+01	4.1983	32.024579	0.000486	4.864729	1.648215	0.000195
 108	1.0646e+01	4.2416	32.177990	0.000385	3.851244	1.304837	0.000154
 109	1.0746e+01	4.2785	32.359662	0.000456	4.560683	1.545201	0.000183
 110	1.0845e+01	4.3218	32.545370	0.000466	4.662032	1.579539	0.000187
 111	1.0945e+01	4.3635	32.710892	0.000416	4.155289	1.407850	0.000166
 112	1.1044e+01	4.4004	32.916786	0.000517	5.168774	1.751228	0.000207
 113	1.1144e+01	4.4501	33.021752	0.000264	2.635061	0.892783	0.000105
 114	1.1243e+01	4.4822	33.223609	0.000507	5.067426	1.716890	0.000203
 115	1.1343e+01	4.5175	33.377020	0.000385	3.851244	1.304837	0.000154
 116	1.1443e+01	4.5576	33.562728	0.000466	4.662032	1.579539	0.000187
 117	1.1542e+01	4.5865	33.732288	0.000426	4.256638	1.442188	0.000170
 118	1.1642e+01	4.6410	33.877625	0.000365	3.648547	1.236161	0.000146
 119	1.1741e+01	4.6763	34.083518	0.000517	5.168774	1.751228	0.000207
 120	1.1841e+01	4.7116	34.224818	0.000355	3.547198	1.201823	0.000142
 121	1.1940e+01	4.7662	34.362081	0.000345	3.445850	1.167485	0.000138
 122	1.2040e+01	4.7983	34.588160	0.000568	5.675517	1.922917	0.000227
 123	1.2139e+01	4.8287	34.741572	0.000385	3.851244	1.304837	0.000154
 124	1.2239e+01	4.8801	34.951503	0.000527	5.270123	1.785566	0.000211
 125	1.2338e+01	4.9154	35.072617	0.000304	3.040456	1.030134	0.000122
 126	1.2438e+01	4.9458	35.282548	0.000527	5.270123	1.785566	0.000211
 127	1.2537e+01	4.9908	35.439996	0.000395	3.952592	1.339174	0.000158
 128	1.2636e+01	5.0325	35.605519	0.000416	4.155289	1.407850	0.000166
 129	1.2736e+01	5.0822	35.775078	0.000426	4.256638	1.442188	0.000170
 130	1.2835e+01	5.1063	35.924452	0.000375	3.749895	1.270499	0.000150
 131	1.2935e+01	5.1592	36.126309	0.000507	5.067426	1.716890	0.000203
 132	1.3034e+01	5.1961	36.312017	0.000466	4.662032	1.579539	0.000187
 133	1.3134e+01	5.2362	36.501763	0.000476	4.763380	1.613877	0.000191
 134	1.3233e+01	5.2667	36.639025	0.000345	3.445850	1.167485	0.000138
 135	1.3333e+01	5.3148	36.840882	0.000507	5.067426	1.716890	0.000203
 136	1.3432e+01	5.3597	36.970071	0.000324	3.243153	1.098810	0.000130
 137	1.3532e+01	5.3934	37.192113	0.000557	5.574168	1.888579	0.000223
 138	1.3632e+01	5.4287	37.377821	0.000466	4.662032	1.579539	0.000187
 139	1.3731e+01	5.4736	37.511047	0.000334	3.344501	1.133148	0.000134
 140	1.3831e+01	5.5154	37.668495	0.000395	3.952592	1.339174	0.000158
 141	1.3930e+01	5.5555	37.846129	0.000446	4.459335	1.510864	0.000179
 142	1.4030e+01	5.5940	37.991466	0.000365	3.648547	1.236161	0.000146
 143	1.4129e+01	5.6309	38.233694	0.000608	6.080911	2.060268	0.000243
 144	1.4229e+01	5.6790	38.346734	0.000284	2.837758	0.961459	0.000114
 145	1.4328e+01	5.7191	38.572813	0.000568	5.675517	1.922917	0.000227
 146	1.4428e+01	5.7560	38.742373	0.000426	4.256638	1.442188	0.000170
 147	1.4527e+01	5.7945	38.891747	0.000375	3.749895	1.270499	0.000150
 148	1.4627e+01	5.8362	39.033047	0.000355	3.547198	1.201823	0.000142
 149	1.4726e+01	5.8843	39.210681	0.000446	4.459335	1.510864	0.000179
 150	1.4825e+01	5.9148	39.412538	0.000507	5.067426	1.716890	0.000203
 151	1.4925e+01	5.9565	39.606320	0.000486	4.864729	1.648215	0.000195
 152	1.5024e+01	5.9934	39.735509	0.000324	3.243153	1.098810	0.000130
 153	1.5124e+01	6.0303	39.961588	0.000568	5.675517	1.922917	0.000227
 154	1.5223e+01	6.0624	40.082702	0.000304	3.040456	1.030134	0.000122
 155	1.5323e+01	6.1073	40.272448	0.000476	4.763380	1.613877	0.000191
 156	1.5422e+01	6.1554	40.421822	0.000375	3.749895	1.270499	0.000150
 157	1.5522e+01	6.1891	40.623678	0.000507	5.067426	1.716890	0.000203
 158	1.5621e+01	6.2373	40.789201	0.000416	4.155289	1.407850	0.000166
 159	1.5721e+01	6.2629	40.958761	0.000426	4.256638	1.442188	0.000170
 160	1.5820e+01	6.3175	41.172729	0.000537	5.371471	1.819904	0.000215
 161	1.5920e+01	6.3544	41.293843	0.000304	3.040456	1.030134	0.000122
 162	1.6020e+01	6.3881	41.519922	0.000568	5.675517	1.922917	0.000227
 163	1.6119e+01	6.4233	41.665259	0.000365	3.648547	1.236161	0.000146
 164	1.6218e+01	6.4683	41.826745	0.000405	4.053941	1.373512	0.000162
 165	1.6318e+01	6.5100	42.000342	0.000436	4.357986	1.476526	0.000174
 166	1.6418e+01	6.5485	42.169901	0.000426	4.256638	1.442188	0.000170
 167	1.6517e+01	6.5886	42.379832	0.000527	5.270123	1.785566	0.000211
 168	1.6616e+01	6.6351	42.521132	0.000355	3.547198	1.201823	0.000142
 169	1.6716e+01	6.6576	42.658395	0.000345	3.445850	1.167485	0.000138
 170	1.6816e+01	6.6993	42.880437	0.000557	5.574168	1.888579	0.000223
 171	1.6915e+01	6.7442	43.001551	0.000304	3.040456	1.030134	0.000122
 172	1.7015e+01	6.7891	43.231668	0.000578	5.776865	1.957255	0.000231
 173	1.7114e+01	6.8212	43.368931	0.000345	3.445850	1.167485	0.000138
 174	1.7213e+01	6.8629	43.578862	0.000527	5.270123	1.785566	0.000211
 175	1.7313e+01	6.9062	43.736310	0.000395	3.952592	1.339174	0.000158
 176	1.7413e+01	6.9463	43.885684	0.000375	3.749895	1.270499	0.000150
 177	1.7512e+01	6.9768	44.079467	0.000486	4.864729	1.648215	0.000195
 178	1.7611e+01	7.0185	44.232878	0.000385	3.851244	1.304837	0.000154
 179	1.7711e+01	7.0618	44.398400	0.000416	4.155289	1.407850	0.000166
 180	1.7811e+01	7.1003	44.604294	0.000517	5.168774	1.751228	0.000207
 181	1.7910e+01	7.1453	44.741557	0.000345	3.445850	1.167485	0.000138
 182	1.8009e+01	7.1854	44.882857	0.000355	3.547198	1.201823	0.000142
 183	1.8109e+01	7.2271	45.092788	0.000527	5.270123	1.785566	0.000211
 184	1.8209e+01	7.2543	45.286570	0.000486	4.864729	1.648215	0.000195
 185	1.8308e+01	7.3073	45.419796	0.000334	3.344501	1.133148	0.000134
 186	1.8407e+01	7.3394	45.641838	0.000557	5.574168	1.888579	0.000223
 187	1.8507e+01	7.3827	45.839658	0.000497	4.966077	1.682553	0.000199
 188	1.8607e+01	7.4324	45.956735	0.000294	2.939107	0.995796	0.000118
 189	1.8706e+01	7.4661	46.154554	0.000497	4.966077	1.682553	0.000199
 190	1.8805e+01	7.5062	46.348337	0.000486	4.864729	1.648215	0.000195
 191	1.8905e+01	7.5399	46.501748	0.000385	3.851244	1.304837	0.000154
 192	1.9005e+01	7.5928	46.679382	0.000446	4.459335	1.510864	0.000179
 193	1.9104e+01	7.6201	46.857016	0.000446	4.459335	1.510864	0.000179
 194	1.9203e+01	7.6570	47.054836	0.000497	4.966077	1.682553	0.000199
 195	1.9303e+01	7.6955	47.224395	0.000426	4.256638	1.442188	0.000170
 196	1.9402e+01	7.7500	47.357621	0.000334	3.344501	1.133148	0.000134
 197	1.9502e+01	7.7741	47.559478	0.000507	5.067426	1.716890	0.000203
 198	1.9602e+01	7.8238	47.769409	0.000527	5.270123	1.785566	0.000211
 199	1.9701e+01	7.8623	47.886486	0.000294	2.939107	0.995796	0.000118
 200	1.9800e+01	7.8976	48.100454	0.000537	5.371471	1.819904	0.000215
 201	1.9900e+01	7.9458	48.241754	0.000355	3.547198	1.201823	0.000142
 202	2.0000e+01	7.9811	48.403239	0.000405	4.053941	1.373512	0.000162
 203	2.0099e+01	8.0164	48.588947	0.000466	4.662032	1.579539	0.000187
 204	2.0198e+01	8.0661	48.746395	0.000395	3.952592	1.339174	0.000158
 205	2.0298e+01	8.0982	48.952289	0.000517	5.168774	1.751228	0.000207
 206	2.0398e+01	8.1383	49.158183	0.000517	5.168774	1.751228	0.000207
 207	2.0497e+01	8.1816	49.307557	0.000375	3.749895	1.270499	0.000150
 208	2.0596e+01	8.2249	49.456931	0.000375	3.749895	1.270499	0.000150
 209	2.0696e+01	8.2570	49.670900	0.000537	5.371471	1.819904	0.000215
 210	2.0796e+01	8.2971	49.828348	0.000395	3.952592	1.339174	0.000158
 211	2.0895e+01	8.3340	49.969648	0.000355	3.547198	1.201823	0.000142
 212	2.0994e+01	8.3821	50.191690	0.000557	5.574168	1.888579	0.000223
 213	2.1094e+01	8.4190	50.373361	0.000456	4.560683	1.545201	0.000183
 214	2.1194e+01	8.4591	50.498512	0.000314	3.141804	1.064472	0.000126
 215	2.1293e+01	8.5024	50.692295	0.000486	4.864729	1.648215	0.000195
 216	2.1392e+01	8.5441	50.845706	0.000385	3.851244	1.304837	0.000154
 217	2.1492e+01	8.5810	51.047563	0.000507	5.067426	1.716890	0.000203
 218	2.1591e+01	8.6163	51.213085	0.000416	4.155289	1.407850	0.000166
 219	2.1691e+01	8.6596	51.418979	0.000517	5.168774	1.751228	0.000207
 220	2.1791e+01	8.6998	51.580465	0.000405	4.053941	1.373512	0.000162
 221	2.1890e+01	8.7399	51.745987	0.000416	4.155289	1.407850	0.000166
 222	2.1989e+01	8.7752	51.871139	0.000314	3.141804	1.064472	0.000126
 223	2.2089e+01	8.8217	52.068958	0.000497	4.966077	1.682553	0.000199
 224	2.2189e+01	8.8570	52.238518	0.000426	4.256638	1.442188	0.000170
 225	2.2288e+01	8.8874	52.416152	0.000446	4.459335	1.510864	0.000179
 226	2.2387e+01	8.9340	52.585712	0.000426	4.256638	1.442188	0.000170
 227	2.2487e+01	8.9661	52.767383	0.000456	4.560683	1.545201	0.000183
 228	2.2587e+01	9.0238	52.928868	0.000405	4.053941	1.373512	0.000162
 229	2.2686e+01	9.0575	53.126688	0.000497	4.966077	1.682553	0.000199
 230	2.2785e+01	9.0928	53.284136	0.000395	3.952592	1.339174	0.000158
 231	2.2885e+01	9.1297	53.469844	0.000466	4.662032	1.579539	0.000187
 232	2.2985e+01	9.1778	53.643441	0.000436	4.357986	1.476526	0.000174
 233	2.3084e+01	9.2099	53.804927	0.000405	4.053941	1.373512	0.000162
 234	2.3183e+01	9.2580	53.986598	0.000456	4.560683	1.545201	0.000183
 235	2.3283e+01	9.2997	54.135972	0.000375	3.749895	1.270499	0.000150
 236	2.3383e+01	9.3334	54.313606	0.000446	4.459335	1.510864	0.000179
 237	2.3482e+01	9.3719	54.511425	0.000497	4.966077	1.682553	0.000199
 238	2.3581e+01	9.4136	54.676948	0.000416	4.155289	1.407850	0.000166
 239	2.3681e+01	9.4634	54.862656	0.000466	4.662032	1.579539	0.000187
 240	2.3780e+01	9.4906	54.991844	0.000324	3.243153	1.098810	0.000130
 241	2.3880e+01	9.5372	55.230035	0.000598	5.979562	2.025931	0.000239
 242	2.3980e+01	9.5821	55.379409	0.000375	3.749895	1.270499	0.000150
 243	2.4079e+01	9.6190	55.544932	0.000416	4.155289	1.407850	0.000166
 244	2.4178e+01	9.6575	55.746789	0.000507	5.067426	1.716890	0.000203
 245	2.4278e+01	9.7008	55.855792	0.000274	2.736410	0.927121	0.000110
 246	2.4378e+01	9.7345	55.997091	0.000355	3.547198	1.201823	0.000142
 247	2.4477e+01	9.7810	56.231245	0.000588	5.878214	1.991593	0.000235
 248	2.4576e+01	9.8147	56.388693	0.000395	3.952592	1.339174	0.000158
 249	2.4676e+01	9.8580	56.550179	0.000405	4.053941	1.373512	0.000162
 250	2.4776e+01	9.8917	56.731850	0.000456	4.560683	1.545201	0.000183
 251	2.4875e+01	9.9270	56.897373	0.000416	4.155289	1.407850	0.000166
 252	2.4974e+01	9.9687	57.070969	0.000436	4.357986	1.476526	0.000174
 253	2.5074e+01	10.0024	57.248603	0.000446	4.459335	1.510864	0.000179
 254	2.5174e+01	10.0521	57.422200	0.000436	4.357986	1.476526	0.000174
 255	2.5273e+01	10.0986	57.583686	0.000405	4.053941	1.373512	0.000162
 256	2.5372e+01	10.1339	57.745171	0.000405	4.053941	1.373512	0.000162
 257	2.5472e+01	10.1708	57.942991	0.000497	4.966077	1.682553	0.000199
 258	2.5572e+01	10.2125	58.072179	0.000324	3.243153	1.098810	0.000130
 259	2.5671e+01	10.2478	58.269999	0.000497	4.966077	1.682553	0.000199
 260	2.5770e+01	10.2944	58.411298	0.000355	3.547198	1.201823	0.000142
 261	2.5870e+01	10.3313	58.649489	0.000598	5.979562	2.025931	0.000239
 262	2.5970e+01	10.3730	58.790789	0.000355	3.547198	1.201823	0.000142
 263	2.6069e+01	10.4147	58.972460	0.000456	4.560683	1.545201	0.000183
 264	2.6169e+01	10.4596	59.154131	0.000456	4.560683	1.545201	0.000183
 265	2.6268e+01	10.4981	59.291394	0.000345	3.445850	1.167485	0.000138
 266	2.6367e+01	10.5318	59.456917	0.000416	4.155289	1.407850	0.000166
 267	2.6467e+01	10.5735	59.662811	0.000517	5.168774	1.751228	0.000207
 268	2.6567e+01	10.6136	59.852556	0.000476	4.763380	1.613877	0.000191
 269	2.6666e+01	10.6521	60.005967	0.000385	3.851244	1.304837	0.000154
 270	2.6765e+01	10.6970	60.147267	0.000355	3.547198	1.201823	0.000142
 271	2.6865e+01	10.7227	60.324901	0.000446	4.459335	1.510864	0.000179
 272	2.6965e+01	10.7724	60.506572	0.000456	4.560683	1.545201	0.000183
 273	2.7064e+01	10.8093	60.672094	0.000416	4.155289	1.407850	0.000166
 274	2.7163e+01	10.8494	60.805320	0.000334	3.344501	1.133148	0.000134
 275	2.7263e+01	10.8943	60.999102	0.000486	4.864729	1.648215	0.000195
 276	2.7363e+01	10.9280	61.148476	0.000375	3.749895	1.270499	0.000150
 277	2.7462e+01	10.9730	61.326110	0.000446	4.459335	1.510864	0.000179
 278	2.7561e+01	11.0082	61.495670	0.000426	4.256638	1.442188	0.000170
 279	2.7661e+01	11.0484	61.665230	0.000426	4.256638	1.442188	0.000170
 280	2.7761e+01	11.0933	61.838827	0.000436	4.357986	1.476526	0.000174
 281	2.7860e+01	11.1334	62.020498	0.000456	4.560683	1.545201	0.000183
 282	2.7959e+01	11.1703	62.141612	0.000304	3.040456	1.030134	0.000122
 283	2.8059e+01	11.2056	62.331357	0.000476	4.763380	1.613877	0.000191
 284	2.8159e+01	11.2505	62.513028	0.000456	4.560683	1.545201	0.000183
 285	2.8258e+01	11.2890	62.686625	0.000436	4.357986	1.476526	0.000174
 286	2.8358e+01	11.3435	62.831962	0.000365	3.648547	1.236161	0.000146
 287	2.8457e+01	11.3692	62.997485	0.000416	4.155289	1.407850	0.000166
 288	2.8556e+01	11.4125	63.175119	0.000446	4.459335	1.510864	0.000179
 289	2.8656e+01	11.4446	63.332567	0.000395	3.952592	1.339174	0.000158
 290	2.8756e+01	11.4975	63.494052	0.000405	4.053941	1.373512	0.000162
 291	2.8855e+01	11.5264	63.671686	0.000446	4.459335	1.510864	0.000179
 292	2.8954e+01	11.5713	63.817023	0.000365	3.648547	1.236161	0.000146
 293	2.9054e+01	11.6098	64.010806	0.000486	4.864729	1.648215	0.000195
 294	2.9154e+01	11.6483	64.188440	0.000446	4.459335	1.510864	0.000179
 295	2.9253e+01	11.7045	64.317628	0.000324	3.243153	1.098810	0.000130
 296	2.9352e+01	11.7318	64.515448	0.000497	4.966077	1.682553	0.000199
 297	2.9452e+01	11.7703	64.664822	0.000375	3.749895	1.270499	0.000150
 298	2.9552e+01	11.8055	64.838419	0.000436	4.357986	1.476526	0.000174
 299	2.9651e+01	11.8360	65.016052	0.000446	4.459335	1.510864	0.000179
 300	2.9750e+01	11.8906	65.141204	0.000314	3.141804	1.064472	0.000126
 301	2.9850e+01	11.9291	65.359209	0.000547	5.472820	1.854242	0.000219
 302	2.9950e+01	11.9740	65.532806	0.000436	4.357986	1.476526	0.000174
 303	3.0049e+01	12.0061	65.670068	0.000345	3.445850	1.167485	0.000138
 304	3.0148e+01	12.0478	65.859814	0.000476	4.763380	1.613877	0.000191
 305	3.0248e+01	12.0879	65.980928	0.000304	3.040456	1.030134	0.000122
 306	3.0348e+01	12.1280	66.219119	0.000598	5.979562	2.025931	0.000239
 307	3.0447e+01	12.1713	66.356382	0.000345	3.445850	1.167485	0.000138
 308	3.0547e+01	12.2018	66.517867	0.000405	4.053941	1.373512	0.000162
 309	3.0646e+01	12.2435	66.695501	0.000446	4.459335	1.510864	0.000179
 310	3.0745e+01	12.2852	66.856986	0.000405	4.053941	1.373512	0.000162
 311	3.0845e+01	12.3221	67.046732	0.000476	4.763380	1.613877	0.000191
 312	3.0945e+01	12.3558	67.200143	0.000385	3.851244	1.304837	0.000154
 313	3.1044e+01	12.4039	67.357591	0.000395	3.952592	1.339174	0.000158
 314	3.1143e+01	12.4472	67.535225	0.000446	4.459335	1.510864	0.000179
 315	3.1243e+01	12.4809	67.684599	0.000375	3.749895	1.270499	0.000150
 316	3.1343e+01	12.5226	67.866270	0.000456	4.560683	1.545201	0.000183
 317	3.1442e+01	12.5772	68.023719	0.000395	3.952592	1.339174	0.000158
 318	3.1541e+01	12.6045	68.201353	0.000446	4.459335	1.510864	0.000179
 319	3.1641e+01	12.6414	68.350727	0.000375	3.749895	1.270499	0.000150
 320	3.1741e+01	12.6847	68.540472	0.000476	4.763380	1.613877	0.000191
 321	3.1840e+01	12.7168	68.697920	0.000395	3.952592	1.339174	0.000158
 322	3.1939e+01	12.7745	68.855369	0.000395	3.952592	1.339174	0.000158
 323	3.2039e+01	12.8098	69.028965	0.000436	4.357986	1.476526	0.000174
 324	3.2139e+01	12.8499	69.194488	0.000416	4.155289	1.407850	0.000166
 325	3.2238e+01	12.8868	69.364048	0.000426	4.256638	1.442188	0.000170
 326	3.2337e+01	12.9157	69.517459	0.000385	3.851244	1.304837	0.000154
 327	3.2437e+01	12.9606	69.674907	0.000395	3.952592	1.339174	0.000158
 328	3.2536e+01	12.9959	69.876764	0.000507	5.067426	1.716890	0.000203
 329	3.2636e+01	13.0408	69.997878	0.000304	3.040456	1.030134	0.000122
 330	3.2736e+01	13.0729	70.195698	0.000497	4.966077	1.682553	0.000199
 331	3.2835e+01	13.1194	70.361220	0.000416	4.155289	1.407850	0.000166
 332	3.2934e+01	13.1595	70.506557	0.000365	3.648547	1.236161	0.000146
 333	3.3034e+01	13.2028	70.651894	0.000365	3.648547	1.236161	0.000146
 334	3.3133e+01	13.2413	70.849714	0.000497	4.966077	1.682553	0.000199
 335	3.3233e+01	13.2830	71.015236	0.000416	4.155289	1.407850	0.000166
 336	3.3333e+01	13.3167	71.172684	0.000395	3.952592	1.339174	0.000158
 337	3.3432e+01	13.3568	71.322059	0.000375	3.749895	1.270499	0.000150
 338	3.3532e+01	13.4034	71.483544	0.000405	4.053941	1.373512	0.000162
 339	3.3631e+01	13.4435	71.645029	0.000405	4.053941	1.373512	0.000162
 340	3.3730e+01	13.4788	71.826700	0.000456	4.560683	1.545201	0.000183
 341	3.3830e+01	13.5125	72.024520	0.000497	4.966077	1.682553	0.000199
 342	3.3929e+01	13.5574	72.153708	0.000324	3.243153	1.098810	0.000130
 343	3.4029e+01	13.5959	72.323268	0.000426	4.256638	1.442188	0.000170
 344	3.4129e+01	13.6392	72.484754	0.000405	4.053941	1.373512	0.000162
 345	3.4228e+01	13.6825	72.654313	0.000426	4.256638	1.442188	0.000170
 346	3.4328e+01	13.7162	72.819836	0.000416	4.155289	1.407850	0.000166
 347	3.4427e+01	13.7563	72.993433	0.000436	4.357986	1.476526	0.000174
 348	3.4526e+01	13.7932	73.171067	0.000446	4.459335	1.510864	0.000179
 349	3.4626e+01	13.8285	73.296218	0.000314	3.141804	1.064472	0.000126
 350	3.4725e+01	13.8782	73.449629	0.000385	3.851244	1.304837	0.000154
 351	3.4825e+01	13.9215	73.635337	0.000466	4.662032	1.579539	0.000187
 352	3.4925e+01	13.9632	73.800860	0.000416	4.155289	1.407850	0.000166
 353	3.5024e+01	14.0033	73.986568	0.000466	4.662032	1.579539	0.000187
 354	3.5123e+01	14.0338	74.144016	0.000395	3.952592	1.339174	0.000158
 355	3.5223e+01	14.0771	74.333762	0.000476	4.763380	1.613877	0.000191
 356	3.5322e+01	14.1221	74.479099	0.000365	3.648547	1.236161	0.000146
 357	3.5422e+01	14.1606	74.632510	0.000385	3.851244	1.304837	0.000154
 358	3.5522e+01	14.2103	74.777847	0.000365	3.648547	1.236161	0.000146
 359	3.5621e+01	14.2360	74.999889	0.000557	5.574168	1.888579	0.000223
 360	3.5721e+01	14.2745	75.141189	0.000355	3.547198	1.201823	0.000142
 361	3.5820e+01	14.3194	75.371306	0.000578	5.776865	1.957255	0.000231
 362	3.5919e+01	14.3595	75.472234	0.000253	2.533713	0.858445	0.000101
 363	3.6019e+01	14.4012	75.657942	0.000466	4.662032	1.579539	0.000187
 364	3.6118e+01	14.4349	75.799242	0.000355	3.547198	1.201823	0.000142
 365	3.6218e+01	14.4718	75.960727	0.000405	4.053941	1.373512	0.000162
 366	3.6318e+01	14.5151	76.134324	0.000436	4.357986	1.476526	0.000174
 367	3.6417e+01	14.5552	76.315995	0.000456	4.560683	1.545201	0.000183
 368	3.6517e+01	14.5921	76.461332	0.000365	3.648547	1.236161	0.000146
 369	3.6616e+01	14.6418	76.671263	0.000527	5.270123	1.785566	0.000211
 370	3.6715e+01	14.6819	76.828712	0.000395	3.952592	1.339174	0.000158
 371	3.6815e+01	14.7156	76.986160	0.000395	3.952592	1.339174	0.000158
 372	3.6914e+01	14.7541	77.163794	0.000446	4.459335	1.510864	0.000179
 373	3.7014e+01	14.8007	77.305094	0.000355	3.547198	1.201823	0.000142
 374	3.7114e+01	14.8359	77.531173	0.000568	5.675517	1.922917	0.000227
 375	3.7213e+01	14.8728	77.636139	0.000264	2.635061	0.892783	0.000105
 376	3.7313e+01	14.9113	77.809736	0.000436	4.357986	1.476526	0.000174
 377	3.7412e+01	14.9498	77.983332	0.000436	4.357986	1.476526	0.000174
 378	3.7511e+01	14.9932	78.120595	0.000345	3.445850	1.167485	0.000138
 379	3.7611e+01	15.0317	78.302266	0.000456	4.560683	1.545201	0.000183
 380	3.7711e+01	15.0686	78.463752	0.000405	4.053941	1.373512	0.000162
 381	3.7810e+01	15.1135	78.633311	0.000426	4.256638	1.442188	0.000170
 382	3.7910e+01	15.1488	78.806908	0.000436	4.357986	1.476526	0.000174
 383	3.8009e+01	15.1889	78.992616	0.000466	4.662032	1.579539	0.000187
 384	3.8108e+01	15.2418	79.137953	0.000365	3.648547	1.236161	0.000146
 385	3.8208e+01	15.2739	79.275216	0.000345	3.445850	1.167485	0.000138
 386	3.8307e+01	15.3140	79.424590	0.000375	3.749895	1.270499	0.000150
 387	3.8407e+01	15.3445	79.590113	0.000416	4.155289	1.407850	0.000166
 388	3.8507e+01	15.3926	79.735449	0.000365	3.648547	1.236161	0.000146
 389	3.8606e+01	15.4215	79.884823	0.000375	3.749895	1.270499	0.000150
 390	3.8706e+01	15.4728	80.090717	0.000517	5.168774	1.751228	0.000207
 391	3.8805e+01	15.5145	80.260277	0.000426	4.256638	1.442188	0.000170
 392	3.8904e+01	15.5578	80.454060	0.000486	4.864729	1.648215	0.000195
 393	3.9004e+01	15.5980	80.559025	0.000264	2.635061	0.892783	0.000105
 394	3.9103e+01	15.6332	80.720511	0.000405	4.053941	1.373512	0.000162
 395	3.9203e+01	15.6734	80.877959	0.000395	3.952592	1.339174	0.000158
 396	3.9303e+01	15.7086	81.067704	0.000476	4.763380	1.613877	0.000191
 397	3.9402e+01	15.7488	81.257450	0.000476	4.763380	1.613877	0.000191
 398	3.9502e+01	15.7921	81.406824	0.000375	3.749895	1.270499	0.000150
 399	3.9601e+01	15.8370	81.564272	0.000395	3.952592	1.339174	0.000158
 400	3.9700e+01	15.8659	81.729794	0.000416	4.155289	1.407850	0.000166
 401	3.9800e+01	15.9060	81.911466	0.000456	4.560683	1.545201	0.000183
 402	3.9900e+01	15.9589	82.028542	0.000294	2.939107	0.995796	0.000118
 403	3.9999e+01	15.9910	82.198102	0.000426	4.256638	1.442188	0.000170
 404	4.0099e+01	16.0295	82.359588	0.000405	4.053941	1.373512	0.000162
 405	4.0198e+01	16.0776	82.529147	0.000426	4.256638	1.442188	0.000170
 406	4.0297e+01	16.1081	82.714856	0.000466	4.662032	1.579539	0.000187
 407	4.0397e+01	16.1450	82.864230	0.000375	3.749895	1.270499	0.000150
 408	4.0496e+01	16.1883	82.985344	0.000304	3.040456	1.030134	0.000122
 409	4.0596e+01	16.2252	83.175089	0.000476	4.763380	1.613877	0.000191
 410	4.0696e+01	16.2733	83.352723	0.000446	4.459335	1.510864	0.000179
 411	4.0795e+01	16.3118	83.502097	0.000375	3.749895	1.270499	0.000150
 412	4.0895e+01	16.3535	83.615137	0.000284	2.837758	0.961459	0.000114
 413	4.0994e+01	16.3888	83.788734	0.000436	4.357986	1.476526	0.000174
 414	4.1093e+01	16.4257	83.978479	0.000476	4.763380	1.613877	0.000191
 415	4.1193e+01	16.4642	84.152076	0.000436	4.357986	1.476526	0.000174
 416	4.1292e+01	16.5108	84.313561	0.000405	4.053941	1.373512	0.000162
 417	4.1392e+01	16.5493	84.446787	0.000334	3.344501	1.133148	0.000134
 418	4.1492e+01	16.5814	84.644606	0.000497	4.966077	1.682553	0.000199
 419	4.1591e+01	16.6279	84.789943	0.000365	3.648547	1.236161	0.000146
 420	4.1691e+01	16.6680	84.931243	0.000355	3.547198	1.201823	0.000142
 421	4.1790e+01	16.7001	85.104840	0.000436	4.357986	1.476526	0.000174
 422	4.1889e+01	16.7402	85.274400	0.000426	4.256638	1.442188	0.000170
 423	4.1989e+01	16.7931	85.456071	0.000456	4.560683	1.545201	0.000183
 424	4.2089e+01	16.8284	85.617556	0.000405	4.053941	1.373512	0.000162
 425	4.2188e+01	16.8621	85.758856	0.000355	3.547198	1.201823	0.000142
 426	4.2288e+01	16.9134	85.912267	0.000385	3.851244	1.304837	0.000154
 427	4.2387e+01	16.9455	86.073753	0.000405	4.053941	1.373512	0.000162
 428	4.2486e+01	16.9824	86.223127	0.000375	3.749895	1.270499	0.000150
 429	4.2586e+01	17.0241	86.392686	0.000426	4.256638	1.442188	0.000170
 430	4.2685e+01	17.0610	86.558209	0.000416	4.155289	1.407850	0.000166
 431	4.2785e+01	17.1027	86.739880	0.000456	4.560683	1.545201	0.000183
 432	4.2885e+01	17.1460	86.889254	0.000375	3.749895	1.270499	0.000150
 433	4.2984e+01	17.1829	87.034591	0.000365	3.648547	1.236161	0.000146
 434	4.3084e+01	17.2246	87.192039	0.000395	3.952592	1.339174	0.000158
 435	4.3183e+01	17.2664	87.393896	0.000507	5.067426	1.716890	0.000203
 436	4.3282e+01	17.3033	87.519047	0.000314	3.141804	1.064472	0.000126
 437	4.3382e+01	17.3337	87.652273	0.000334	3.344501	1.133148	0.000134
 438	4.3481e+01	17.3899	87.825869	0.000436	4.357986	1.476526	0.000174
 439	4.3581e+01	17.4236	87.991392	0.000416	4.155289	1.407850	0.000166
 440	4.3681e+01	17.4653	88.132692	0.000355	3.547198	1.201823	0.000142
 441	4.3780e+01	17.5134	88.273991	0.000355	3.547198	1.201823	0.000142
 442	4.3880e+01	17.5407	88.463737	0.000476	4.763380	1.613877	0.000191
 443	4.3979e+01	17.5792	88.592925	0.000324	3.243153	1.098810	0.000130
 444	4.4078e+01	17.6161	88.782671	0.000476	4.763380	1.613877	0.000191
 445	4.4178e+01	17.6674	88.907822	0.000314	3.141804	1.064472	0.000126
 446	4.4278e+01	17.7139	89.089493	0.000456	4.560683	1.545201	0.000183
 447	4.4377e+01	17.7460	89.246941	0.000395	3.952592	1.339174	0.000158
 448	4.4477e+01	17.7877	89.372092	0.000314	3.141804	1.064472	0.000126
 449	4.4576e+01	17.8166	89.541652	0.000426	4.256638	1.442188	0.000170
 450	4.4675e+01	17.8647	89.691026	0.000375	3.749895	1.270499	0.000150
 451	4.4775e+01	17.8936	89.848474	0.000395	3.952592	1.339174	0.000158
 452	4.4874e+01	17.9466	90.018034	0.000426	4.256638	1.442188	0.000170
 453	4.4974e+01	17.9915	90.187594	0.000426	4.256638	1.442188	0.000170
 454	4.5074e+01	18.0284	90.349079	0.000405	4.053941	1.373512	0.000162
 455	4.5173e+01	18.0588	90.486342	0.000345	3.445850	1.167485	0.000138
 456	4.5273e+01	18.0990	90.627642	0.000355	3.547198	1.201823	0.000142
 457	4.5372e+01	18.1407	90.793164	0.000416	4.155289	1.407850	0.000166
 458	4.5471e+01	18.1744	90.954650	0.000405	4.053941	1.373512	0.000162
 459	4.5571e+01	18.2193	91.083838	0.000324	3.243153	1.098810	0.000130
 460	4.5670e+01	18.2658	91.249361	0.000416	4.155289	1.407850	0.000166
 461	4.5770e+01	18.3043	91.426994	0.000446	4.459335	1.510864	0.000179
 462	4.5870e+01	18.3460	91.556183	0.000324	3.243153	1.098810	0.000130
 463	4.5969e+01	18.3765	91.721705	0.000416	4.155289	1.407850	0.000166
 464	4.6069e+01	18.4230	91.895302	0.000436	4.357986	1.476526	0.000174
 465	4.6168e+01	18.4567	92.036602	0.000355	3.547198	1.201823	0.000142
 466	4.6267e+01	18.5032	92.214236	0.000446	4.459335	1.510864	0.000179
 467	4.6367e+01	18.5401	92.379759	0.000416	4.155289	1.407850	0.000166
 468	4.6467e+01	18.5706	92.508947	0.000324	3.243153	1.098810	0.000130
 469	4.6566e+01	18.6107	92.670432	0.000405	4.053941	1.373512	0.000162
 470	4.6666e+01	18.6701	92.827881	0.000395	3.952592	1.339174	0.000158
 471	4.6765e+01	18.7054	92.989366	0.000405	4.053941	1.373512	0.000162
 472	4.6864e+01	18.7390	93.122592	0.000334	3.344501	1.133148	0.000134
 473	4.6964e+01	18.7824	93.263891	0.000355	3.547198	1.201823	0.000142
 474	4.7063e+01	18.8144	93.469785	0.000517	5.168774	1.751228	0.000207
 475	4.7163e+01	18.8578	93.611085	0.000355	3.547198	1.201823	0.000142
 476	4.7263e+01	18.8898	93.744310	0.000334	3.344501	1.133148	0.000134
 477	4.7362e+01	18.9396	93.897722	0.000385	3.851244	1.304837	0.000154
 478	4.7462e+01	18.9861	94.075356	0.000446	4.459335	1.510864	0.000179
 479	4.7561e+01	19.0134	94.224730	0.000375	3.749895	1.270499	0.000150
 480	4.7660e+01	19.0631	94.402364	0.000446	4.459335	1.510864	0.000179
 481	4.7760e+01	19.0936	94.535589	0.000334	3.344501	1.133148	0.000134
 482	4.7859e+01	19.1449	94.709186	0.000436	4.357986	1.476526	0.000174
 483	4.7959e+01	19.1802	94.822226	0.000284	2.837758	0.961459	0.000114
 484	4.8059e+01	19.2187	95.040231	0.000547	5.472820	1.854242	0.000219
 485	4.8158e+01	19.2588	95.177494	0.000345	3.445850	1.167485	0.000138
 486	4.8258e+01	19.2989	95.314756	0.000345	3.445850	1.167485	0.000138
 487	4.8357e+01	19.3374	95.452019	0.000345	3.445850	1.167485	0.000138
 488	4.8456e+01	19.3888	95.641764	0.000476	4.763380	1.613877	0.000191
 489	4.8556e+01	19.4176	95.779027	0.000345	3.445850	1.167485	0.000138
 490	4.8656e+01	19.4513	95.952624	0.000436	4.357986	1.476526	0.000174
 491	4.8755e+01	19.4994	96.069701	0.000294	2.939107	0.995796	0.000118
 492	4.8855e+01	19.5428	96.239260	0.000426	4.256638	1.442188	0.000170
 493	4.8954e+01	19.5668	96.384597	0.000365	3.648547	1.236161	0.000146
 494	4.9053e+01	19.6230	96.558194	0.000436	4.357986	1.476526	0.000174
 495	4.9153e+01	19.6519	96.707568	0.000375	3.749895	1.270499	0.000150
 496	4.9252e+01	19.7000	96.844831	0.000345	3.445850	1.167485	0.000138
 497	4.9352e+01	19.7385	97.022465	0.000446	4.459335	1.510864	0.000179
 498	4.9452e+01	19.7786	97.163764	0.000355	3.547198	1.201823	0.000142
 499	4.9551e+01	19.8107	97.325250	0.000405	4.053941	1.373512	0.000162
 500	4.9651e+01	19.8588	97.478661	0.000385	3.851244	1.304837	0.000154
 501	4.9750e+01	19.8909	97.640146	0.000405	4.053941	1.373512	0.000162
 502	4.9849e+01	19.9326	97.777409	0.000345	3.445850	1.167485	0.000138
 503	4.9949e+01	19.9807	97.942932	0.000416	4.155289	1.407850	0.000166
 504	5.0048e+01	19.9278	97.837966	0.000264	2.635061	0.892783	-0.000105
 505	5.0148e+01	19.8973	97.761260	0.000193	1.925622	0.652418	-0.000077
 506	5.0248e+01	19.8508	97.688592	0.000182	1.824273	0.618081	-0.000073
 507	5.0347e+01	19.8091	97.607849	0.000203	2.026970	0.686756	-0.000081
 508	5.0447e+01	19.7738	97.506921	0.000253	2.533713	0.858445	-0.000101
 509	5.0546e+01	19.7369	97.373695	0.000334	3.344501	1.133148	-0.000134
 510	5.0645e+01	19.6920	97.305064	0.000172	1.722925	0.583743	-0.000069
 511	5.0745e+01	19.6551	97.232396	0.000182	1.824273	0.618081	-0.000073
 512	5.0844e+01	19.6085	97.066873	0.000416	4.155289	1.407850	-0.000166
 513	5.0944e+01	19.5781	97.014390	0.000132	1.317531	0.446391	-0.000053
 514	5.1044e+01	19.5380	96.913462	0.000253	2.533713	0.858445	-0.000101
 515	5.1143e+01	19.5059	96.792348	0.000304	3.040456	1.030134	-0.000122
 516	5.1242e+01	19.4513	96.687382	0.000264	2.635061	0.892783	-0.000105
 517	5.1342e+01	19.4176	96.554157	0.000334	3.344501	1.133148	-0.000134
 518	5.1441e+01	19.3727	96.469377	0.000213	2.128319	0.721094	-0.000085
 519	5.1541e+01	19.3470	96.356337	0.000284	2.837758	0.961459	-0.000114
 520	5.1641e+01	19.3037	96.247335	0.000274	2.736410	0.927121	-0.000110
 521	5.1740e+01	19.2540	96.146406	0.000253	2.533713	0.858445	-0.000101
 522	5.1840e+01	19.2219	96.049515	0.000243	2.432364	0.824107	-0.000097
 523	5.1939e+01	19.1834	95.928401	0.000304	3.040456	1.030134	-0.000122
 524	5.2038e+01	19.1369	95.831510	0.000243	2.432364	0.824107	-0.000097
 525	5.2138e+01	19.1016	95.714433	0.000294	2.939107	0.995796	-0.000118
 526	5.2237e+01	19.0583	95.609467	0.000264	2.635061	0.892783	-0.000105
 527	5.2337e+01	19.0198	95.480279	0.000324	3.243153	1.098810	-0.000130
 528	5.2437e+01	18.9861	95.423759	0.000142	1.418879	0.480729	-0.000057
 529	5.2536e+01	18.9428	95.310719	0.000284	2.837758	0.961459	-0.000114
 530	5.2636e+01	18.8979	95.181531	0.000324	3.243153	1.098810	-0.000130
 531	5.2735e+01	18.8690	95.060417	0.000304	3.040456	1.030134	-0.000122
 532	5.2834e+01	18.8160	94.963525	0.000243	2.432364	0.824107	-0.000097
 533	5.2934e+01	18.7824	94.798003	0.000416	4.155289	1.407850	-0.000166
 534	5.3033e+01	18.7374	94.749557	0.000122	1.216182	0.412054	-0.000049
 535	5.3133e+01	18.7070	94.596146	0.000385	3.851244	1.304837	-0.000154
 536	5.3233e+01	18.6620	94.475032	0.000304	3.040456	1.030134	-0.000122
 537	5.3332e+01	18.6219	94.370066	0.000264	2.635061	0.892783	-0.000105
 538	5.3431e+01	18.5834	94.257027	0.000284	2.837758	0.961459	-0.000114
 539	5.3531e+01	18.5449	94.148024	0.000274	2.736410	0.927121	-0.000110
 540	5.3630e+01	18.5000	94.018836	0.000324	3.243153	1.098810	-0.000130
 541	5.3730e+01	18.4679	93.905796	0.000284	2.837758	0.961459	-0.000114
 542	5.3830e+01	18.4182	93.784682	0.000304	3.040456	1.030134	-0.000122
 543	5.3929e+01	18.3909	93.703939	0.000203	2.026970	0.686756	-0.000081
 544	5.4029e+01	18.3380	93.530342	0.000436	4.357986	1.476526	-0.000174
 545	5.4128e+01	18.3027	93.433451	0.000243	2.432364	0.824107	-0.000097
 546	5.4227e+01	18.2626	93.288114	0.000365	3.648547	1.236161	-0.000146
 547	5.4327e+01	18.2193	93.207371	0.000203	2.026970	0.686756	-0.000081
 548	5.4426e+01	18.1888	93.078183	0.000324	3.243153	1.098810	-0.000130
 549	5.4526e+01	18.1423	92.928809	0.000375	3.749895	1.270499	-0.000150
 550	5.4626e+01	18.1070	92.803658	0.000314	3.141804	1.064472	-0.000126
 551	5.4725e+01	18.0524	92.706767	0.000243	2.432364	0.824107	-0.000097
 552	5.4825e+01	18.0252	92.577578	0.000324	3.243153	1.098810	-0.000130
 553	5.4924e+01	17.9722	92.448390	0.000324	3.243153	1.098810	-0.000130
 554	5.5023e+01	17.9466	92.343424	0.000264	2.635061	0.892783	-0.000105
 555	5.5123e+01	17.9000	92.198087	0.000365	3.648547	1.236161	-0.000146
 556	5.5222e+01	17.8631	92.081010	0.000294	2.939107	0.995796	-0.000118
 557	5.5322e+01	17.8246	91.972008	0.000274	2.736410	0.927121	-0.000110
 558	5.5422e+01	17.7813	91.854931	0.000294	2.939107	0.995796	-0.000118
 559	5.5521e+01	17.7428	91.729780	0.000314	3.141804	1.064472	-0.000126
 560	5.5620e+01	17.6995	91.612703	0.000294	2.939107	0.995796	-0.000118
 561	5.5720e+01	17.6546	91.451217	0.000405	4.053941	1.373512	-0.000162
 562	5.5819e+01	17.6193	91.354326	0.000243	2.432364	0.824107	-0.000097
 563	5.5919e+01	17.5920	91.204952	0.000375	3.749895	1.270499	-0.000150
 564	5.6019e+01	17.5439	91.116135	0.000223	2.229667	0.755432	-0.000089
 565	5.6118e+01	17.5150	90.958687	0.000395	3.952592	1.339174	-0.000158
 566	5.6218e+01	17.4685	90.857758	0.000253	2.533713	0.858445	-0.000101
 567	5.6317e+01	17.4252	90.720496	0.000345	3.445850	1.167485	-0.000138
 568	5.6416e+01	17.3883	90.591307	0.000324	3.243153	1.098810	-0.000130
 569	5.6516e+01	17.3466	90.494416	0.000243	2.432364	0.824107	-0.000097
 570	5.6615e+01	17.3081	90.373302	0.000304	3.040456	1.030134	-0.000122
 571	5.6715e+01	17.2567	90.215854	0.000395	3.952592	1.339174	-0.000158
 572	5.6815e+01	17.2327	90.114925	0.000253	2.533713	0.858445	-0.000101
 573	5.6914e+01	17.1942	89.965551	0.000375	3.749895	1.270499	-0.000150
 574	5.7014e+01	17.1444	89.856549	0.000274	2.736410	0.927121	-0.000110
 575	5.7113e+01	17.0979	89.703138	0.000385	3.851244	1.304837	-0.000154
 576	5.7212e+01	17.0690	89.582023	0.000304	3.040456	1.030134	-0.000122
 577	5.7312e+01	17.0209	89.481095	0.000253	2.533713	0.858445	-0.000101
 578	5.7411e+01	16.9936	89.364018	0.000294	2.939107	0.995796	-0.000118
 579	5.7511e+01	16.9343	89.210607	0.000385	3.851244	1.304837	-0.000154
 580	5.7611e+01	16.9086	89.081419	0.000324	3.243153	1.098810	-0.000130
 581	5.7710e+01	16.8653	88.936082	0.000365	3.648547	1.236161	-0.000146
 582	5.7809e+01	16.8348	88.814968	0.000304	3.040456	1.030134	-0.000122
 583	5.7909e+01	16.7771	88.669631	0.000365	3.648547	1.236161	-0.000146
 584	5.8008e+01	16.7546	88.560628	0.000274	2.736410	0.927121	-0.000110
 585	5.8108e+01	16.6985	88.435477	0.000314	3.141804	1.064472	-0.000126
 586	5.8208e+01	16.6712	88.310326	0.000314	3.141804	1.064472	-0.000126
 587	5.8307e+01	16.6327	88.156915	0.000385	3.851244	1.304837	-0.000154
 588	5.8407e+01	16.5942	88.080209	0.000193	1.925622	0.652418	-0.000077
 589	5.8506e+01	16.5396	87.934872	0.000365	3.648547	1.236161	-0.000146
 590	5.8605e+01	16.5124	87.789535	0.000365	3.648547	1.236161	-0.000146
 591	5.8705e+01	16.4691	87.628050	0.000405	4.053941	1.373512	-0.000162
 592	5.8804e+01	16.4322	87.543270	0.000213	2.128319	0.721094	-0.000085
 593	5.8904e+01	16.3888	87.410044	0.000334	3.344501	1.133148	-0.000134
 594	5.9004e+01	16.3439	87.297005	0.000284	2.837758	0.961459	-0.000114
 595	5.9103e+01	16.3102	87.099185	0.000497	4.966077	1.682553	-0.000199
 596	5.9203e+01	16.2717	87.014405	0.000213	2.128319	0.721094	-0.000085
 597	5.9302e+01	16.2252	86.881180	0.000334	3.344501	1.133148	-0.000134
 598	5.9401e+01	16.1979	86.764103	0.000294	2.939107	0.995796	-0.000118
 599	5.9501e+01	16.1418	86.655100	0.000274	2.736410	0.927121	-0.000110
 600	5.9600e+01	16.1065	86.477466	0.000446	4.459335	1.510864	-0.000179
 601	5.9700e+01	16.0696	86.356352	0.000304	3.040456	1.030134	-0.000122
 602	5.9800e+01	16.0327	86.190829	0.000416	4.155289	1.407850	-0.000166
 603	5.9899e+01	15.9926	86.093938	0.000243	2.432364	0.824107	-0.000097
 604	5.9998e+01	15.9589	85.972824	0.000304	3.040456	1.030134	-0.000122
 605	6.0098e+01	15.9124	85.851710	0.000304	3.040456	1.030134	-0.000122
 606	6.0197e+01	15.8659	85.694262	0.000395	3.952592	1.339174	-0.000158
 607	6.0297e+01	15.8274	85.565073	0.000324	3.243153	1.098810	-0.000130
 608	6.0397e+01	15.7937	85.371291	0.000486	4.864729	1.648215	-0.000195
 609	6.0496e+01	15.7488	85.274400	0.000243	2.432364	0.824107	-0.000097
 610	6.0596e+01	15.7086	85.125026	0.000375	3.749895	1.270499	-0.000150
 611	6.0695e+01	15.6782	84.963540	0.000405	4.053941	1.373512	-0.000162
 612	6.0794e+01	15.6365	84.878760	0.000213	2.128319	0.721094	-0.000085
 613	6.0894e+01	15.5883	84.741498	0.000345	3.445850	1.167485	-0.000138
 614	6.0993e+01	15.5498	84.584049	0.000395	3.952592	1.339174	-0.000158
 615	6.1093e+01	15.5113	84.462935	0.000304	3.040456	1.030134	-0.000122
 616	6.1193e+01	15.4728	84.285301	0.000446	4.459335	1.510864	-0.000179
 617	6.1292e+01	15.4423	84.188410	0.000243	2.432364	0.824107	-0.000097
 618	6.1392e+01	15.3910	84.030962	0.000395	3.952592	1.339174	-0.000158
 619	6.1491e+01	15.3525	83.905811	0.000314	3.141804	1.064472	-0.000126
 620	6.1590e+01	15.3172	83.780659	0.000314	3.141804	1.064472	-0.000126
 621	6.1690e+01	15.2739	83.619174	0.000405	4.053941	1.373512	-0.000162
 622	6.1789e+01	15.2338	83.498060	0.000304	3.040456	1.030134	-0.000122
 623	6.1889e+01	15.1953	83.340612	0.000395	3.952592	1.339174	-0.000158
 624	6.1989e+01	15.1568	83.191238	0.000375	3.749895	1.270499	-0.000150
 625	6.2088e+01	15.1151	83.070124	0.000304	3.040456	1.030134	-0.000122
 626	6.2188e+01	15.0670	82.949009	0.000304	3.040456	1.030134	-0.000122
 627	6.2287e+01	15.0317	82.799635	0.000375	3.749895	1.270499	-0.000150
 628	6.2386e+01	14.9883	82.674484	0.000314	3.141804	1.064472	-0.000126
 629	6.2486e+01	14.9498	82.512999	0.000405	4.053941	1.373512	-0.000162
 630	6.2586e+01	14.9194	82.371699	0.000355	3.547198	1.201823	-0.000142
 631	6.2685e+01	14.8825	82.238474	0.000334	3.344501	1.133148	-0.000134
 632	6.2785e+01	14.8359	82.113322	0.000314	3.141804	1.064472	-0.000126
 633	6.2884e+01	14.7990	81.972023	0.000355	3.547198	1.201823	-0.000142
 634	6.2983e+01	14.7589	81.822649	0.000375	3.749895	1.270499	-0.000150
 635	6.3083e+01	14.7124	81.673275	0.000375	3.749895	1.270499	-0.000150
 636	6.3182e+01	14.6691	81.564272	0.000274	2.736410	0.927121	-0.000110
 637	6.3282e+01	14.6386	81.390675	0.000436	4.357986	1.476526	-0.000174
 638	6.3382e+01	14.5921	81.269561	0.000304	3.040456	1.030134	-0.000122
 639	6.3481e+01	14.5520	81.152484	0.000294	2.939107	0.995796	-0.000118
 640	6.3581e+01	14.5231	80.999073	0.000385	3.851244	1.304837	-0.000154
 641	6.3680e+01	14.4750	80.873922	0.000314	3.141804	1.064472	-0.000126
 642	6.3779e+01	14.4317	80.732622	0.000355	3.547198	1.201823	-0.000142
 643	6.3879e+01	14.3932	80.563062	0.000426	4.256638	1.442188	-0.000170
 644	6.3978e+01	14.3515	80.429837	0.000334	3.344501	1.133148	-0.000134
 645	6.4078e+01	14.3178	80.288537	0.000355	3.547198	1.201823	-0.000142
 646	6.4177e+01	14.2713	80.151274	0.000345	3.445850	1.167485	-0.000138
 647	6.4277e+01	14.2328	80.022086	0.000324	3.243153	1.098810	-0.000130
 648	6.4376e+01	14.1991	79.860601	0.000405	4.053941	1.373512	-0.000162
 649	6.4476e+01	14.1590	79.719301	0.000355	3.547198	1.201823	-0.000142
 650	6.4576e+01	14.1140	79.569927	0.000375	3.749895	1.270499	-0.000150
 651	6.4675e+01	14.0820	79.436701	0.000334	3.344501	1.133148	-0.000134
 652	6.4775e+01	14.0354	79.291364	0.000365	3.648547	1.236161	-0.000146
 653	6.4874e+01	14.0050	79.158139	0.000334	3.344501	1.133148	-0.000134
 654	6.4974e+01	13.9584	78.996654	0.000405	4.053941	1.373512	-0.000162
 655	6.5073e+01	13.9215	78.863428	0.000334	3.344501	1.133148	-0.000134
 656	6.5172e+01	13.8798	78.726165	0.000345	3.445850	1.167485	-0.000138
 657	6.5272e+01	13.8429	78.576791	0.000375	3.749895	1.270499	-0.000150
 658	6.5371e+01	13.7964	78.415306	0.000405	4.053941	1.373512	-0.000162
 659	6.5471e+01	13.7563	78.326489	0.000223	2.229667	0.755432	-0.000089
 660	6.5570e+01	13.7114	78.160966	0.000416	4.155289	1.407850	-0.000166
 661	6.5670e+01	13.6793	78.011592	0.000375	3.749895	1.270499	-0.000150
 662	6.5769e+01	13.6328	77.866256	0.000365	3.648547	1.236161	-0.000146
 663	6.5869e+01	13.6023	77.733030	0.000334	3.344501	1.133148	-0.000134
 664	6.5969e+01	13.5574	77.615953	0.000294	2.939107	0.995796	-0.000118
 665	6.6068e+01	13.5157	77.454468	0.000405	4.053941	1.373512	-0.000162
 666	6.6168e+01	13.4788	77.341428	0.000284	2.837758	0.961459	-0.000114
 667	6.6267e+01	13.4435	77.143608	0.000497	4.966077	1.682553	-0.000199
 668	6.6367e+01	13.3905	77.010383	0.000334	3.344501	1.133148	-0.000134
 669	6.6466e+01	13.3681	76.856972	0.000385	3.851244	1.304837	-0.000154
 670	6.6566e+01	13.3215	76.719709	0.000345	3.445850	1.167485	-0.000138
 671	6.6665e+01	13.2814	76.566298	0.000385	3.851244	1.304837	-0.000154
 672	6.6764e+01	13.2381	76.449221	0.000294	2.939107	0.995796	-0.000118
 673	6.6864e+01	13.1980	76.283698	0.000416	4.155289	1.407850	-0.000166
 674	6.6963e+01	13.1643	76.146436	0.000345	3.445850	1.167485	-0.000138
 675	6.7063e+01	13.1162	76.001099	0.000365	3.648547	1.236161	-0.000146
 676	6.7162e+01	13.0857	75.855762	0.000365	3.648547	1.236161	-0.000146
 677	6.7262e+01	13.0392	75.682165	0.000436	4.357986	1.476526	-0.000174
 678	6.7362e+01	12.9959	75.561051	0.000304	3.040456	1.030134	-0.000122
 679	6.7461e+01	12.9558	75.403603	0.000395	3.952592	1.339174	-0.000158
 680	6.7561e+01	12.9189	75.250192	0.000385	3.851244	1.304837	-0.000154
 681	6.7660e+01	12.8868	75.116966	0.000334	3.344501	1.133148	-0.000134
 682	6.7760e+01	12.8467	74.963555	0.000385	3.851244	1.304837	-0.000154
 683	6.7859e+01	12.7954	74.806107	0.000395	3.952592	1.339174	-0.000158
 684	6.7959e+01	12.7633	74.676918	0.000324	3.243153	1.098810	-0.000130
 685	6.8058e+01	12.7296	74.531581	0.000365	3.648547	1.236161	-0.000146
 686	6.8157e+01	12.6959	74.410467	0.000304	3.040456	1.030134	-0.000122
 687	6.8257e+01	12.6542	74.232833	0.000446	4.459335	1.510864	-0.000179
 688	6.8356e+01	12.6012	74.087496	0.000365	3.648547	1.236161	-0.000146
 689	6.8456e+01	12.5724	73.978494	0.000274	2.736410	0.927121	-0.000110
 690	6.8555e+01	12.5258	73.817008	0.000405	4.053941	1.373512	-0.000162
 691	6.8655e+01	12.4873	73.679746	0.000345	3.445850	1.167485	-0.000138
 692	6.8754e+01	12.4488	73.526335	0.000385	3.851244	1.304837	-0.000154
 693	6.8854e+01	12.4071	73.417332	0.000274	2.736410	0.927121	-0.000110
 694	6.8954e+01	12.3638	73.231624	0.000466	4.662032	1.579539	-0.000187
 695	6.9053e+01	12.3269	73.078213	0.000385	3.851244	1.304837	-0.000154
 696	6.9153e+01	12.2852	72.961136	0.000294	2.939107	0.995796	-0.000118
 697	6.9252e+01	12.2499	72.807724	0.000385	3.851244	1.304837	-0.000154
 698	6.9352e+01	12.2018	72.658350	0.000375	3.749895	1.270499	-0.000150
 699	6.9451e+01	12.1665	72.525125	0.000334	3.344501	1.133148	-0.000134
 700	6.9550e+01	12.1264	72.375751	0.000375	3.749895	1.270499	-0.000150
 701	6.9650e+01	12.0943	72.190043	0.000466	4.662032	1.579539	-0.000187
 702	6.9749e+01	12.0494	72.068929	0.000304	3.040456	1.030134	-0.000122
 703	6.9849e+01	11.9981	71.939740	0.000324	3.243153	1.098810	-0.000130
 704	6.9948e+01	11.9612	71.774218	0.000416	4.155289	1.407850	-0.000166
 705	7.0048e+01	11.9291	71.640992	0.000334	3.344501	1.133148	-0.000134
 706	7.0147e+01	11.8842	71.471433	0.000426	4.256638	1.442188	-0.000170
 707	7.0247e+01	11.8473	71.326096	0.000365	3.648547	1.236161	-0.000146
 708	7.0347e+01	11.8007	71.184796	0.000355	3.547198	1.201823	-0.000142
 709	7.0446e+01	11.7606	71.055608	0.000324	3.243153	1.098810	-0.000130
 710	7.0546e+01	11.7382	70.898159	0.000395	3.952592	1.339174	-0.000158
 711	7.0645e+01	11.6949	70.728600	0.000426	4.256638	1.442188	-0.000170
 712	7.0745e+01	11.6371	70.599411	0.000324	3.243153	1.098810	-0.000130
 713	7.0844e+01	11.6050	70.466186	0.000334	3.344501	1.133148	-0.000134
 714	7.0944e+01	11.5649	70.292589	0.000436	4.357986	1.476526	-0.000174
 715	7.1043e+01	11.5328	70.110918	0.000456	4.560683	1.545201	-0.000183
 716	7.1142e+01	11.4911	70.014027	0.000243	2.432364	0.824107	-0.000097
 717	7.1242e+01	11.4478	69.836393	0.000446	4.459335	1.510864	-0.000179
 718	7.1341e+01	11.4061	69.687019	0.000375	3.749895	1.270499	-0.000150
 719	7.1441e+01	11.3708	69.537645	0.000375	3.749895	1.270499	-0.000150
 720	7.1540e+01	11.3323	69.384233	0.000385	3.851244	1.304837	-0.000154
 721	7.1640e+01	11.2954	69.279268	0.000264	2.635061	0.892783	-0.000105
 722	7.1740e+01	11.2473	69.109708	0.000426	4.256638	1.442188	-0.000170
 723	7.1839e+01	11.2088	68.940148	0.000426	4.256638	1.442188	-0.000170
 724	7.1939e+01	11.1703	68.810960	0.000324	3.243153	1.098810	-0.000130
 725	7.2038e+01	11.1302	68.625252	0.000466	4.662032	1.579539	-0.000187
 726	7.2138e+01	11.0933	68.496063	0.000324	3.243153	1.098810	-0.000130
 727	7.2237e+01	11.0451	68.330541	0.000416	4.155289	1.407850	-0.000166
 728	7.2337e+01	11.0131	68.217501	0.000284	2.837758	0.961459	-0.000114
 729	7.2436e+01	10.9794	68.027756	0.000476	4.763380	1.613877	-0.000191
 730	7.2535e+01	10.9345	67.882419	0.000365	3.648547	1.236161	-0.000146
 731	7.2635e+01	10.8959	67.745156	0.000345	3.445850	1.167485	-0.000138
 732	7.2734e+01	10.8558	67.599819	0.000365	3.648547	1.236161	-0.000146
 733	7.2834e+01	10.8061	67.402000	0.000497	4.966077	1.682553	-0.000199
 734	7.2933e+01	10.7772	67.260700	0.000355	3.547198	1.201823	-0.000142
 735	7.3033e+01	10.7291	67.079029	0.000456	4.560683	1.545201	-0.000183
 736	7.3132e+01	10.6970	66.990212	0.000223	2.229667	0.755432	-0.000089
 737	7.3232e+01	10.6537	66.832764	0.000395	3.952592	1.339174	-0.000158
 738	7.3332e+01	10.6168	66.703575	0.000324	3.243153	1.098810	-0.000130
 739	7.3431e+01	10.5639	66.497681	0.000517	5.168774	1.751228	-0.000207
 740	7.3531e+01	10.5398	66.372530	0.000314	3.141804	1.064472	-0.000126
 741	7.3630e+01	10.4949	66.235267	0.000345	3.445850	1.167485	-0.000138
 742	7.3730e+01	10.4500	66.041485	0.000486	4.864729	1.648215	-0.000195
 743	7.3829e+01	10.4131	65.908259	0.000334	3.344501	1.133148	-0.000134
 744	7.3928e+01	10.3682	65.754848	0.000385	3.851244	1.304837	-0.000154
 745	7.4028e+01	10.3329	65.577214	0.000446	4.459335	1.510864	-0.000179
 746	7.4127e+01	10.2895	65.439952	0.000345	3.445850	1.167485	-0.000138
 747	7.4227e+01	10.2559	65.318838	0.000304	3.040456	1.030134	-0.000122
 748	7.4326e+01	10.2109	65.125055	0.000486	4.864729	1.648215	-0.000195
 749	7.4426e+01	10.1805	64.967607	0.000395	3.952592	1.339174	-0.000158
 750	7.4525e+01	10.1339	64.842456	0.000314	3.141804	1.064472	-0.000126
 751	7.4625e+01	10.0938	64.668859	0.000436	4.357986	1.476526	-0.000174
 752	7.4725e+01	10.0489	64.515448	0.000385	3.851244	1.304837	-0.000154
 753	7.4824e+01	10.0104	64.366074	0.000375	3.749895	1.270499	-0.000150
 754	7.4924e+01	9.9735	64.196514	0.000426	4.256638	1.442188	-0.000170
 755	7.5023e+01	9.9430	64.055214	0.000355	3.547198	1.201823	-0.000142
 756	7.5123e+01	9.8805	63.873543	0.000456	4.560683	1.545201	-0.000183
 757	7.5222e+01	9.8532	63.736280	0.000345	3.445850	1.167485	-0.000138
 758	7.5322e+01	9.8147	63.623241	0.000284	2.837758	0.961459	-0.000114
 759	7.5421e+01	9.7746	63.445607	0.000446	4.459335	1.510864	-0.000179
 760	7.5520e+01	9.7345	63.312381	0.000334	3.344501	1.133148	-0.000134
 761	7.5620e+01	9.6944	63.122636	0.000476	4.763380	1.613877	-0.000191
 762	7.5719e+01	9.6527	62.961150	0.000405	4.053941	1.373512	-0.000162
 763	7.5819e+01	9.6158	62.848111	0.000284	2.837758	0.961459	-0.000114
 764	7.5918e+01	9.5773	62.662402	0.000466	4.662032	1.579539	-0.000187
 765	7.6018e+01	9.5340	62.484768	0.000446	4.459335	1.510864	-0.000179
 766	7.6118e+01	9.4922	62.375766	0.000274	2.736410	0.927121	-0.000110
 767	7.6217e+01	9.4505	62.190057	0.000466	4.662032	1.579539	-0.000187
 768	7.6317e+01	9.4185	62.068943	0.000304	3.040456	1.030134	-0.000122
 769	7.6416e+01	9.3767	61.935718	0.000334	3.344501	1.133148	-0.000134
 770	7.6516e+01	9.3302	61.721750	0.000537	5.371471	1.819904	-0.000215
 771	7.6615e+01	9.3046	61.592561	0.000324	3.243153	1.098810	-0.000130
 772	7.6715e+01	9.2564	61.435113	0.000395	3.952592	1.339174	-0.000158
 773	7.6814e+01	9.2179	61.261516	0.000436	4.357986	1.476526	-0.000174
 774	7.6913e+01	9.1778	61.124254	0.000345	3.445850	1.167485	-0.000138
 775	7.7013e+01	9.1313	60.914323	0.000527	5.270123	1.785566	-0.000211
 776	7.7112e+01	9.1008	60.777060	0.000345	3.445850	1.167485	-0.000138
 777	7.7212e+01	9.0559	60.643834	0.000334	3.344501	1.133148	-0.000134
 778	7.7311e+01	9.0142	60.446015	0.000497	4.966077	1.682553	-0.000199
 779	7.7411e+01	8.9837	60.304715	0.000355	3.547198	1.201823	-0.000142
 780	7.7510e+01	8.9372	60.143230	0.000405	4.053941	1.373512	-0.000162
 781	7.7610e+01	8.9051	60.030190	0.000284	2.837758	0.961459	-0.000114
 782	7.7710e+01	8.8554	59.816222	0.000537	5.371471	1.819904	-0.000215
 783	7.7809e+01	8.8233	59.674922	0.000355	3.547198	1.201823	-0.000142
 784	7.7909e+01	8.7768	59.493251	0.000456	4.560683	1.545201	-0.000183
 785	7.8008e+01	8.7367	59.319654	0.000436	4.357986	1.476526	-0.000174
 786	7.8108e+01	8.6982	59.154131	0.000416	4.155289	1.407850	-0.000166
 787	7.8207e+01	8.6645	59.012832	0.000355	3.547198	1.201823	-0.000142
 788	7.8306e+01	8.6211	58.871532	0.000355	3.547198	1.201823	-0.000142
 789	7.8406e+01	8.5794	58.714084	0.000395	3.952592	1.339174	-0.000158
 790	7.8505e+01	8.5393	58.556635	0.000395	3.952592	1.339174	-0.000158
 791	7.8605e+01	8.4976	58.395150	0.000405	4.053941	1.373512	-0.000162
 792	7.8704e+01	8.4623	58.185219	0.000527	5.270123	1.785566	-0.000211
 793	7.8804e+01	8.4078	58.060068	0.000314	3.141804	1.064472	-0.000126
 794	7.8903e+01	8.3901	57.906656	0.000385	3.851244	1.304837	-0.000154
 795	7.9003e+01	8.3500	57.753245	0.000385	3.851244	1.304837	-0.000154
 796	7.9103e+01	8.2955	57.559463	0.000486	4.864729	1.648215	-0.000195
 797	7.9202e+01	8.2650	57.414126	0.000365	3.648547	1.236161	-0.000146
 798	7.9302e+01	8.2121	57.236492	0.000446	4.459335	1.510864	-0.000179
 799	7.9401e+01	8.1848	57.083081	0.000385	3.851244	1.304837	-0.000154
 800	7.9501e+01	8.1495	56.941781	0.000355	3.547198	1.201823	-0.000142
 801	7.9600e+01	8.0998	56.796444	0.000365	3.648547	1.236161	-0.000146
 802	7.9700e+01	8.0613	56.594587	0.000507	5.067426	1.716890	-0.000203
 803	7.9799e+01	8.0180	56.465399	0.000324	3.243153	1.098810	-0.000130
 804	7.9898e+01	7.9859	56.307951	0.000395	3.952592	1.339174	-0.000158
 805	7.9998e+01	7.9377	56.122242	0.000466	4.662032	1.579539	-0.000187
 806	8.0097e+01	7.8912	55.972868	0.000375	3.749895	1.270499	-0.000150
 807	8.0197e+01	7.8704	55.783123	0.000476	4.763380	1.613877	-0.000191
 808	8.0296e+01	7.8222	55.657972	0.000314	3.141804	1.064472	-0.000126
 809	8.0396e+01	7.7789	55.456115	0.000507	5.067426	1.716890	-0.000203
 810	8.0496e+01	7.7468	55.298667	0.000395	3.952592	1.339174	-0.000158
 811	8.0595e+01	7.6907	55.161404	0.000345	3.445850	1.167485	-0.000138
 812	8.0695e+01	7.6682	55.040290	0.000304	3.040456	1.030134	-0.000122
 813	8.0794e+01	7.6249	54.818248	0.000557	5.574168	1.888579	-0.000223
 814	8.0894e+01	7.5752	54.680985	0.000345	3.445850	1.167485	-0.000138
 815	8.0993e+01	7.5495	54.495277	0.000466	4.662032	1.579539	-0.000187
 816	8.1093e+01	7.5046	54.337828	0.000395	3.952592	1.339174	-0.000158
 817	8.1192e+01	7.4597	54.160194	0.000446	4.459335	1.510864	-0.000179
 818	8.1291e+01	7.4212	53.990635	0.000426	4.256638	1.442188	-0.000170
 819	8.1391e+01	7.3843	53.885669	0.000264	2.635061	0.892783	-0.000105
 820	8.1490e+01	7.3474	53.671701	0.000537	5.371471	1.819904	-0.000215
 821	8.1590e+01	7.3105	53.526364	0.000365	3.648547	1.236161	-0.000146
 822	8.1689e+01	7.2640	53.356804	0.000426	4.256638	1.442188	-0.000170
 823	8.1789e+01	7.2239	53.199356	0.000395	3.952592	1.339174	-0.000158
 824	8.1888e+01	7.1838	53.025759	0.000436	4.357986	1.476526	-0.000174
 825	8.1988e+01	7.1453	52.872348	0.000385	3.851244	1.304837	-0.000154
 826	8.2088e+01	7.0971	52.743160	0.000324	3.243153	1.098810	-0.000130
 827	8.2187e+01	7.0602	52.557452	0.000466	4.662032	1.579539	-0.000187
 828	8.2287e+01	7.0281	52.375780	0.000456	4.560683	1.545201	-0.000183
 829	8.2386e+01	6.9848	52.254666	0.000304	3.040456	1.030134	-0.000122
 830	8.2486e+01	6.9527	52.036661	0.000547	5.472820	1.854242	-0.000219
 831	8.2585e+01	6.9094	51.895361	0.000355	3.547198	1.201823	-0.000142
 832	8.2684e+01	6.8693	51.725802	0.000426	4.256638	1.442188	-0.000170
 833	8.2784e+01	6.8212	51.584502	0.000355	3.547198	1.201823	-0.000142
 834	8.2883e+01	6.7907	51.427054	0.000395	3.952592	1.339174	-0.000158
 835	8.2983e+01	6.7490	51.249420	0.000446	4.459335	1.510864	-0.000179
 836	8.3082e+01	6.7057	51.079860	0.000426	4.256638	1.442188	-0.000170
 837	8.3182e+01	6.6624	50.922412	0.000395	3.952592	1.339174	-0.000158
 838	8.3281e+01	6.6255	50.760926	0.000405	4.053941	1.373512	-0.000162
 839	8.3381e+01	6.5934	50.563107	0.000497	4.966077	1.682553	-0.000199
 840	8.3481e+01	6.5581	50.409695	0.000385	3.851244	1.304837	-0.000154
 841	8.3580e+01	6.5052	50.223987	0.000466	4.662032	1.579539	-0.000187
 842	8.3680e+01	6.4667	50.106910	0.000294	2.939107	0.995796	-0.000118
 843	8.3779e+01	6.4410	49.917165	0.000476	4.763380	1.613877	-0.000191
 844	8.3879e+01	6.3945	49.759717	0.000395	3.952592	1.339174	-0.000158
 845	8.3978e+01	6.3463	49.598231	0.000405	4.053941	1.373512	-0.000162
 846	8.4078e+01	6.3127	49.416560	0.000456	4.560683	1.545201	-0.000183
 847	8.4177e+01	6.2806	49.214703	0.000507	5.067426	1.716890	-0.000203
 848	8.4276e+01	6.2340	49.097626	0.000294	2.939107	0.995796	-0.000118
 849	8.4376e+01	6.1875	48.911918	0.000466	4.662032	1.579539	-0.000187
 850	8.4475e+01	6.1506	48.734284	0.000446	4.459335	1.510864	-0.000179
 851	8.4575e+01	6.1185	48.621244	0.000284	2.837758	0.961459	-0.000114
 852	8.4674e+01	6.0688	48.447647	0.000436	4.357986	1.476526	-0.000174
 853	8.4774e+01	6.0255	48.265976	0.000456	4.560683	1.545201	-0.000183
 854	8.4874e+01	5.9902	48.096417	0.000426	4.256638	1.442188	-0.000170
 855	8.4973e+01	5.9565	47.918783	0.000446	4.459335	1.510864	-0.000179
 856	8.5073e+01	5.9164	47.761334	0.000395	3.952592	1.339174	-0.000158
 857	8.5172e+01	5.8763	47.595812	0.000416	4.155289	1.407850	-0.000166
 858	8.5272e+01	5.8218	47.438363	0.000395	3.952592	1.339174	-0.000158
 859	8.5371e+01	5.7881	47.256692	0.000456	4.560683	1.545201	-0.000183
 860	8.5471e+01	5.7528	47.107318	0.000375	3.749895	1.270499	-0.000150
 861	8.5570e+01	5.7127	46.937759	0.000426	4.256638	1.442188	-0.000170
 862	8.5669e+01	5.6726	46.756088	0.000456	4.560683	1.545201	-0.000183
 863	8.5769e+01	5.6293	46.610751	0.000365	3.648547	1.236161	-0.000146
 864	8.5868e+01	5.5875	46.449265	0.000405	4.053941	1.373512	-0.000162
 865	8.5968e+01	5.5539	46.291817	0.000395	3.952592	1.339174	-0.000158
 866	8.6067e+01	5.4993	46.077849	0.000537	5.371471	1.819904	-0.000215
 867	8.6167e+01	5.4656	45.960772	0.000294	2.939107	0.995796	-0.000118
 868	8.6266e+01	5.4351	45.779101	0.000456	4.560683	1.545201	-0.000183
 869	8.6366e+01	5.3902	45.653949	0.000314	3.141804	1.064472	-0.000126
 870	8.6466e+01	5.3565	45.444018	0.000527	5.270123	1.785566	-0.000211
 871	8.6565e+01	5.3052	45.290607	0.000385	3.851244	1.304837	-0.000154
 872	8.6665e+01	5.2747	45.112973	0.000446	4.459335	1.510864	-0.000179
 873	8.6764e+01	5.2330	44.975711	0.000345	3.445850	1.167485	-0.000138
 874	8.6864e+01	5.1993	44.798077	0.000446	4.459335	1.510864	-0.000179
 875	8.6963e+01	5.1560	44.644666	0.000385	3.851244	1.304837	-0.000154
 876	8.7063e+01	5.1095	44.462994	0.000456	4.560683	1.545201	-0.000183
 877	8.7162e+01	5.0806	44.277286	0.000466	4.662032	1.579539	-0.000187
 878	8.7261e+01	5.0341	44.140024	0.000345	3.445850	1.167485	-0.000138
 879	8.7361e+01	4.9908	44.014872	0.000314	3.141804	1.064472	-0.000126
 880	8.7460e+01	4.9587	43.796867	0.000547	5.472820	1.854242	-0.000219
 881	8.7560e+01	4.9138	43.599047	0.000497	4.966077	1.682553	-0.000199
 882	8.7659e+01	4.8785	43.465822	0.000334	3.344501	1.133148	-0.000134
 883	8.7759e+01	4.8271	43.276077	0.000476	4.763380	1.613877	-0.000191
 884	8.7859e+01	4.7983	43.070183	0.000517	5.168774	1.751228	-0.000207
 885	8.7958e+01	4.7598	42.945031	0.000314	3.141804	1.064472	-0.000126
 886	8.8058e+01	4.7164	42.799695	0.000365	3.648547	1.236161	-0.000146
 887	8.8157e+01	4.6844	42.626098	0.000436	4.357986	1.476526	-0.000174
 888	8.8257e+01	4.6330	42.468649	0.000395	3.952592	1.339174	-0.000158
 889	8.8356e+01	4.5913	42.286978	0.000456	4.560683	1.545201	-0.000183
 890	8.8456e+01	4.5576	42.129530	0.000395	3.952592	1.339174	-0.000158
 891	8.8555e+01	4.5111	41.899413	0.000578	5.776865	1.957255	-0.000231
 892	8.8654e+01	4.4790	41.746002	0.000385	3.851244	1.304837	-0.000154
 893	8.8754e+01	4.4437	41.616814	0.000324	3.243153	1.098810	-0.000130
 894	8.8853e+01	4.3988	41.423031	0.000486	4.864729	1.648215	-0.000195
 895	8.8953e+01	4.3491	41.253472	0.000426	4.256638	1.442188	-0.000170
 896	8.9052e+01	4.3106	41.112172	0.000355	3.547198	1.201823	-0.000142
 897	8.9152e+01	4.2833	40.930501	0.000456	4.560683	1.545201	-0.000183
 898	8.9251e+01	4.2432	40.764978	0.000416	4.155289	1.407850	-0.000166
 899	8.9351e+01	4.1999	40.591381	0.000436	4.357986	1.476526	-0.000174
 900	8.9451e+01	4.1598	40.405673	0.000466	4.662032	1.579539	-0.000187
 901	8.9550e+01	4.1181	40.268410	0.000345	3.445850	1.167485	-0.000138
 902	8.9650e+01	4.0748	40.094814	0.000436	4.357986	1.476526	-0.000174
 903	8.9749e+01	4.0346	39.888920	0.000517	5.168774	1.751228	-0.000207
 904	8.9849e+01	3.9977	39.723397	0.000416	4.155289	1.407850	-0.000166
 905	8.9948e+01	3.9576	39.569986	0.000385	3.851244	1.304837	-0.000154
 906	9.0047e+01	3.9159	39.408501	0.000405	4.053941	1.373512	-0.000162
 907	9.0147e+01	3.8758	39.251052	0.000395	3.952592	1.339174	-0.000158
 908	9.0246e+01	3.8405	39.041121	0.000527	5.270123	1.785566	-0.000211
 909	9.0346e+01	3.7988	38.887710	0.000385	3.851244	1.304837	-0.000154
 910	9.0445e+01	3.7523	38.726225	0.000405	4.053941	1.373512	-0.000162
 911	9.0545e+01	3.7170	38.552628	0.000436	4.357986	1.476526	-0.000174
 912	9.0644e+01	3.6753	38.379031	0.000436	4.357986	1.476526	-0.000174
 913	9.0744e+01	3.6368	38.209471	0.000426	4.256638	1.442188	-0.000170
 914	9.0844e+01	3.6015	38.019726	0.000476	4.763380	1.613877	-0.000191
 915	9.0943e+01	3.5630	37.850166	0.000426	4.256638	1.442188	-0.000170
 916	9.1043e+01	3.5149	37.668495	0.000456	4.560683	1.545201	-0.000183
 917	9.1142e+01	3.4892	37.527195	0.000355	3.547198	1.201823	-0.000142
 918	9.1242e+01	3.4347	37.381858	0.000365	3.648547	1.236161	-0.000146
 919	9.1341e+01	3.3946	37.180002	0.000507	5.067426	1.716890	-0.000203
 920	9.1441e+01	3.3545	37.022553	0.000395	3.952592	1.339174	-0.000158
 921	9.1540e+01	3.3159	36.840882	0.000456	4.560683	1.545201	-0.000183
 922	9.1639e+01	3.2839	36.659211	0.000456	4.560683	1.545201	-0.000183
 923	9.1739e+01	3.2357	36.477540	0.000456	4.560683	1.545201	-0.000183
 924	9.1838e+01	3.2037	36.348352	0.000324	3.243153	1.098810	-0.000130
 925	9.1938e+01	3.1587	36.154569	0.000486	4.864729	1.648215	-0.000195
 926	9.2037e+01	3.1250	35.989047	0.000416	4.155289	1.407850	-0.000166
 927	9.2137e+01	3.0801	35.843710	0.000365	3.648547	1.236161	-0.000146
 928	9.2237e+01	3.0400	35.682224	0.000405	4.053941	1.373512	-0.000162
 929	9.2336e+01	3.0031	35.488442	0.000486	4.864729	1.648215	-0.000195
 930	9.2436e+01	2.9598	35.294659	0.000486	4.864729	1.648215	-0.000195
 931	9.2535e+01	2.9245	35.157397	0.000345	3.445850	1.167485	-0.000138
 932	9.2635e+01	2.8908	34.983800	0.000436	4.357986	1.476526	-0.000174
 933	9.2734e+01	2.8411	34.818277	0.000416	4.155289	1.407850	-0.000166
 934	9.2834e+01	2.8042	34.664866	0.000385	3.851244	1.304837	-0.000154
 935	9.2933e+01	2.7673	34.463009	0.000507	5.067426	1.716890	-0.000203
 936	9.3032e+01	2.7224	34.305561	0.000395	3.952592	1.339174	-0.000158
 937	9.3132e+01	2.6839	34.123890	0.000456	4.560683	1.545201	-0.000183
 938	9.3231e+01	2.6390	33.934144	0.000476	4.763380	1.613877	-0.000191
 939	9.3331e+01	2.6053	33.776696	0.000395	3.952592	1.339174	-0.000158
 940	9.3430e+01	2.5604	33.607136	0.000426	4.256638	1.442188	-0.000170
 941	9.3530e+01	2.5219	33.425465	0.000456	4.560683	1.545201	-0.000183
 942	9.3629e+01	2.4817	33.268017	0.000395	3.952592	1.339174	-0.000158
 943	9.3729e+01	2.4465	33.045975	0.000557	5.574168	1.888579	-0.000223
 944	9.3829e+01	2.4015	32.932935	0.000284	2.837758	0.961459	-0.000114
 945	9.3928e+01	2.3678	32.694744	0.000598	5.979562	2.025931	-0.000239
 946	9.4028e+01	2.3342	32.513073	0.000456	4.560683	1.545201	-0.000183
 947	9.4127e+01	2.2860	32.343513	0.000426	4.256638	1.442188	-0.000170
 948	9.4227e+01	2.2411	32.194139	0.000375	3.749895	1.270499	-0.000150
 949	9.4326e+01	2.2010	32.036691	0.000395	3.952592	1.339174	-0.000158
 950	9.4425e+01	2.1641	31.875205	0.000405	4.053941	1.373512	-0.000162
 951	9.4525e+01	2.1208	31.685460	0.000476	4.763380	1.613877	-0.000191
 952	9.4624e+01	2.0807	31.483603	0.000507	5.067426	1.716890	-0.000203
 953	9.4724e+01	2.0454	31.301932	0.000456	4.560683	1.545201	-0.000183
 954	9.4823e+01	2.0085	31.124298	0.000446	4.459335	1.510864	-0.000179
 955	9.4923e+01	1.9572	30.987035	0.000345	3.445850	1.167485	-0.000138
 956	9.5022e+01	1.9251	30.756919	0.000578	5.776865	1.957255	-0.000231
 957	9.5122e+01	1.8882	30.631767	0.000314	3.141804	1.064472	-0.000126
 958	9.5222e+01	1.8465	30.421836	0.000527	5.270123	1.785566	-0.000211
 959	9.5321e+01	1.8016	30.288611	0.000334	3.344501	1.133148	-0.000134
 960	9.5421e+01	1.7647	30.074643	0.000537	5.371471	1.819904	-0.000215
 961	9.5520e+01	1.7310	29.937380	0.000345	3.445850	1.167485	-0.000138
 962	9.5620e+01	1.6828	29.759746	0.000446	4.459335	1.510864	-0.000179
 963	9.5719e+01	1.6492	29.521555	0.000598	5.979562	2.025931	-0.000239
 964	9.5819e+01	1.6090	29.416590	0.000264	2.635061	0.892783	-0.000105
 965	9.5918e+01	1.5657	29.210696	0.000517	5.168774	1.751228	-0.000207
 966	9.6017e+01	1.5288	29.037099	0.000436	4.357986	1.476526	-0.000174
 967	9.6117e+01	1.4791	28.863502	0.000436	4.357986	1.476526	-0.000174
 968	9.6216e+01	1.4438	28.718165	0.000365	3.648547	1.236161	-0.000146
 969	9.6316e+01	1.4037	28.520345	0.000497	4.966077	1.682553	-0.000199
 970	9.6415e+01	1.3668	28.366934	0.000385	3.851244	1.304837	-0.000154
 971	9.6515e+01	1.3347	28.181226	0.000466	4.662032	1.579539	-0.000187
 972	9.6615e+01	1.2818	28.023778	0.000395	3.952592	1.339174	-0.000158
 973	9.6714e+01	1.2449	27.882478	0.000355	3.547198	1.201823	-0.000142
 974	9.6814e+01	1.2160	27.676584	0.000517	5.168774	1.751228	-0.000207
 975	9.6913e+01	1.1583	27.523173	0.000385	3.851244	1.304837	-0.000154
 976	9.7013e+01	1.1278	27.325353	0.000497	4.966077	1.682553	-0.000199
 977	9.7112e+01	1.0780	27.139645	0.000466	4.662032	1.579539	-0.000187
 978	9.7212e+01	1.0540	26.970085	0.000426	4.256638	1.442188	-0.000170
 979	9.7311e+01	1.0075	26.768229	0.000507	5.067426	1.716890	-0.000203
 980	9.7410e+01	0.9754	26.614817	0.000385	3.851244	1.304837	-0.000154
 981	9.7510e+01	0.9353	26.441221	0.000436	4.357986	1.476526	-0.000174
 982	9.7609e+01	0.8984	26.259549	0.000456	4.560683	1.545201	-0.000183
 983	9.7709e+01	0.8518	26.057693	0.000507	5.067426	1.716890	-0.000203
 984	9.7808e+01	0.8085	25.924467	0.000334	3.344501	1.133148	-0.000134
 985	9.7908e+01	0.7684	25.738759	0.000466	4.662032	1.579539	-0.000187
 986	9.8007e+01	0.7347	25.557088	0.000456	4.560683	1.545201	-0.000183
 987	9.8107e+01	0.6882	25.399639	0.000395	3.952592	1.339174	-0.000158
 988	9.8207e+01	0.6497	25.217968	0.000456	4.560683	1.545201	-0.000183
 989	9.8306e+01	0.6144	25.036297	0.000456	4.560683	1.545201	-0.000183
 990	9.8406e+01	0.5695	24.862700	0.000436	4.357986	1.476526	-0.000174
 991	9.8505e+01	0.5278	24.693141	0.000426	4.256638	1.442188	-0.000170
 992	9.8605e+01	0.4925	24.499358	0.000486	4.864729	1.648215	-0.000195
 993	9.8704e+01	0.4508	24.329799	0.000426	4.256638	1.442188	-0.000170
 994	9.8803e+01	0.4107	24.192536	0.000345	3.445850	1.167485	-0.000138
 995	9.8903e+01	0.3738	24.014902	0.000446	4.459335	1.510864	-0.000179
 996	9.9002e+01	0.3337	23.813045	0.000507	5.067426	1.716890	-0.000203
 997	9.9102e+01	0.2839	23.631374	0.000456	4.560683	1.545201	-0.000183
 998	9.9201e+01	0.2535	23.486037	0.000365	3.648547	1.236161	-0.000146
 999	9.9301e+01	0.2086	23.280143	0.000517	5.168774	1.751228	-0.000207
1000	9.9400e+01	0.1733	23.134806	0.000365	3.648547	1.236161	-0.000146
1001	9.9500e+01	0.1380	22.945061	0.000476	4.763380	1.613877	-0.000191
1002	9.9600e+01	0.0834	22.755316	0.000476	4.763380	1.613877	-0.000191
1003	9.9699e+01	0.0642	22.569607	0.000466	4.662032	1.579539	-0.000187
1004	9.9799e+01	0.0193	22.404085	0.000416	4.155289	1.407850	-0.000166
1005	9.9898e+01	-0.0128	22.295082	0.000274	2.736410	0.927121	-0.000110
1006	9.9998e+01	-0.0626	22.077077	0.000547	5.472820	1.854242	-0.000219
1007	1.0010e+02	-0.0946	21.960000	0.000294	2.939107	0.995796	-0.000118
1008	1.0020e+02	-0.1380	21.737957	0.000557	5.574168	1.888579	-0.000223
1009	1.0030e+02	-0.1861	21.572435	0.000416	4.155289	1.407850	-0.000166
1010	1.0040e+02	-0.2150	21.382689	0.000476	4.763380	1.613877	-0.000191
1011	1.0050e+02	-0.2519	21.229278	0.000385	3.851244	1.304837	-0.000154
1012	1.0059e+02	-0.2984	21.051644	0.000446	4.459335	1.510864	-0.000179
1013	1.0069e+02	-0.3337	20.869973	0.000456	4.560683	1.545201	-0.000183
1014	1.0079e+02	-0.3786	20.700413	0.000426	4.256638	1.442188	-0.000170
1015	1.0089e+02	-0.4203	20.530854	0.000426	4.256638	1.442188	-0.000170
1016	1.0099e+02	-0.4620	20.312848	0.000547	5.472820	1.854242	-0.000219
1017	1.0109e+02	-0.4909	20.151363	0.000405	4.053941	1.373512	-0.000162
1018	1.0119e+02	-0.5422	19.989878	0.000405	4.053941	1.373512	-0.000162
1019	1.0129e+02	-0.5775	19.792058	0.000497	4.966077	1.682553	-0.000199
1020	1.0139e+02	-0.6160	19.606350	0.000466	4.662032	1.579539	-0.000187
1021	1.0149e+02	-0.6593	19.465050	0.000355	3.547198	1.201823	-0.000142
1022	1.0159e+02	-0.7027	19.299527	0.000416	4.155289	1.407850	-0.000166
1023	1.0169e+02	-0.7396	19.117856	0.000456	4.560683	1.545201	-0.000183
1024	1.0179e+02	-0.7829	18.944259	0.000436	4.357986	1.476526	-0.000174
1025	1.0189e+02	-0.8117	18.750477	0.000486	4.864729	1.648215	-0.000195
1026	1.0199e+02	-0.8518	18.548620	0.000507	5.067426	1.716890	-0.000203
1027	1.0209e+02	-0.8984	18.427506	0.000304	3.040456	1.030134	-0.000122
1028	1.0219e+02	-0.9289	18.253909	0.000436	4.357986	1.476526	-0.000174
1029	1.0229e+02	-0.9738	18.096461	0.000395	3.952592	1.339174	-0.000158
1030	1.0239e+02	-1.0187	17.878456	0.000547	5.472820	1.854242	-0.000219
1031	1.0248e+02	-1.0556	17.712933	0.000416	4.155289	1.407850	-0.000166
1032	1.0258e+02	-1.0957	17.543373	0.000426	4.256638	1.442188	-0.000170
1033	1.0268e+02	-1.1406	17.345554	0.000497	4.966077	1.682553	-0.000199
1034	1.0278e+02	-1.1743	17.228477	0.000294	2.939107	0.995796	-0.000118
1035	1.0288e+02	-1.2208	17.050843	0.000446	4.459335	1.510864	-0.000179
1036	1.0298e+02	-1.2545	16.897432	0.000385	3.851244	1.304837	-0.000154
1037	1.0308e+02	-1.3010	16.703649	0.000486	4.864729	1.648215	-0.000195
1038	1.0318e+02	-1.3347	16.530052	0.000436	4.357986	1.476526	-0.000174
1039	1.0328e+02	-1.3700	16.360493	0.000426	4.256638	1.442188	-0.000170
1040	1.0338e+02	-1.4165	16.154599	0.000517	5.168774	1.751228	-0.000207
1041	1.0348e+02	-1.4534	16.029447	0.000314	3.141804	1.064472	-0.000126
1042	1.0358e+02	-1.4855	15.811442	0.000547	5.472820	1.854242	-0.000219
1043	1.0368e+02	-1.5385	15.653994	0.000395	3.952592	1.339174	-0.000158
1044	1.0378e+02	-1.5593	15.496546	0.000395	3.952592	1.339174	-0.000158
1045	1.0388e+02	-1.6106	15.314874	0.000456	4.560683	1.545201	-0.000183
1046	1.0398e+02	-1.6508	15.129166	0.000466	4.662032	1.579539	-0.000187
1047	1.0408e+02	-1.6941	14.919235	0.000527	5.270123	1.785566	-0.000211
1048	1.0418e+02	-1.7438	14.790047	0.000324	3.243153	1.098810	-0.000130
1049	1.0428e+02	-1.7759	14.608376	0.000456	4.560683	1.545201	-0.000183
1050	1.0438e+02	-1.8160	14.426705	0.000456	4.560683	1.545201	-0.000183
1051	1.0447e+02	-1.8497	14.240996	0.000466	4.662032	1.579539	-0.000187
1052	1.0457e+02	-1.8914	14.095659	0.000365	3.648547	1.236161	-0.000146
1053	1.0467e+02	-1.9379	13.922063	0.000436	4.357986	1.476526	-0.000174
1054	1.0477e+02	-1.9780	13.744429	0.000446	4.459335	1.510864	-0.000179
1055	1.0487e+02	-2.0085	13.570832	0.000436	4.357986	1.476526	-0.000174
1056	1.0497e+02	-2.0550	13.401272	0.000426	4.256638	1.442188	-0.000170
1057	1.0507e+02	-2.0855	13.235750	0.000416	4.155289	1.407850	-0.000166
1058	1.0517e+02	-2.1272	13.054078	0.000456	4.560683	1.545201	-0.000183
1059	1.0527e+02	-2.1753	12.888556	0.000416	4.155289	1.407850	-0.000166
1060	1.0537e+02	-2.2122	12.706885	0.000456	4.560683	1.545201	-0.000183
1061	1.0547e+02	-2.2475	12.509065	0.000497	4.966077	1.682553	-0.000199
1062	1.0557e+02	-2.2941	12.396025	0.000284	2.837758	0.961459	-0.000114
1063	1.0567e+02	-2.3326	12.198206	0.000497	4.966077	1.682553	-0.000199
1064	1.0577e+02	-2.3662	12.040757	0.000395	3.952592	1.339174	-0.000158
1065	1.0587e+02	-2.4031	11.851012	0.000476	4.763380	1.613877	-0.000191
1066	1.0597e+02	-2.4481	11.657229	0.000486	4.864729	1.648215	-0.000195
1067	1.0607e+02	-2.4817	11.519967	0.000345	3.445850	1.167485	-0.000138
1068	1.0617e+02	-2.5283	11.330221	0.000476	4.763380	1.613877	-0.000191
1069	1.0627e+02	-2.5716	11.148550	0.000456	4.560683	1.545201	-0.000183
1070	1.0637e+02	-2.6069	11.007251	0.000355	3.547198	1.201823	-0.000142
1071	1.0647e+02	-2.6486	10.829617	0.000446	4.459335	1.510864	-0.000179
1072	1.0656e+02	-2.6951	10.619686	0.000527	5.270123	1.785566	-0.000211
1073	1.0666e+02	-2.7256	10.450126	0.000426	4.256638	1.442188	-0.000170
1074	1.0676e+02	-2.7689	10.268455	0.000456	4.560683	1.545201	-0.000183
1075	1.0686e+02	-2.8170	10.106969	0.000405	4.053941	1.373512	-0.000162
1076	1.0696e+02	-2.8411	9.961632	0.000365	3.648547	1.236161	-0.000146
1077	1.0706e+02	-2.8860	9.751701	0.000527	5.270123	1.785566	-0.000211
1078	1.0716e+02	-2.9325	9.610402	0.000355	3.547198	1.201823	-0.000142
1079	1.0726e+02	-2.9662	9.452953	0.000395	3.952592	1.339174	-0.000158
1080	1.0736e+02	-3.0111	9.263208	0.000476	4.763380	1.613877	-0.000191
1081	1.0746e+02	-3.0480	9.085574	0.000446	4.459335	1.510864	-0.000179
1082	1.0756e+02	-3.0865	8.920051	0.000416	4.155289	1.407850	-0.000166
1083	1.0766e+02	-3.1315	8.758566	0.000405	4.053941	1.373512	-0.000162
1084	1.0776e+02	-3.1684	8.576895	0.000456	4.560683	1.545201	-0.000183
1085	1.0786e+02	-3.2085	8.387149	0.000476	4.763380	1.613877	-0.000191
1086	1.0796e+02	-3.2406	8.205478	0.000456	4.560683	1.545201	-0.000183
1087	1.0806e+02	-3.2935	8.068216	0.000345	3.445850	1.167485	-0.000138
1088	1.0816e+02	-3.3336	7.874433	0.000486	4.864729	1.648215	-0.000195
1089	1.0826e+02	-3.3673	7.696799	0.000446	4.459335	1.510864	-0.000179
1090	1.0836e+02	-3.4026	7.535314	0.000405	4.053941	1.373512	-0.000162
1091	1.0845e+02	-3.4411	7.381903	0.000385	3.851244	1.304837	-0.000154
1092	1.0855e+02	-3.4780	7.196194	0.000466	4.662032	1.579539	-0.000187
1093	1.0865e+02	-3.5261	7.046820	0.000375	3.749895	1.270499	-0.000150
1094	1.0875e+02	-3.5614	6.849001	0.000497	4.966077	1.682553	-0.000199
1095	1.0885e+02	-3.6079	6.727887	0.000304	3.040456	1.030134	-0.000122
1096	1.0895e+02	-3.6448	6.530067	0.000497	4.966077	1.682553	-0.000199
1097	1.0905e+02	-3.6897	6.356470	0.000436	4.357986	1.476526	-0.000174
1098	1.0915e+02	-3.7202	6.215170	0.000355	3.547198	1.201823	-0.000142
1099	1.0925e+02	-3.7748	6.013314	0.000507	5.067426	1.716890	-0.000203
1100	1.0935e+02	-3.8133	5.847791	0.000416	4.155289	1.407850	-0.000166
1101	1.0945e+02	-3.8582	5.645934	0.000507	5.067426	1.716890	-0.000203
1102	1.0955e+02	-3.8790	5.528857	0.000294	2.939107	0.995796	-0.000118
1103	1.0965e+02	-3.9272	5.347186	0.000456	4.560683	1.545201	-0.000183
1104	1.0975e+02	-3.9625	5.137255	0.000527	5.270123	1.785566	-0.000211
1105	1.0985e+02	-4.0010	4.979807	0.000395	3.952592	1.339174	-0.000158
1106	1.0995e+02	-4.0411	4.834470	0.000365	3.648547	1.236161	-0.000146
1107	1.1005e+02	-4.0860	4.677022	0.000395	3.952592	1.339174	-0.000158
1108	1.1015e+02	-4.1309	4.467091	0.000527	5.270123	1.785566	-0.000211
1109	1.1025e+02	-4.1646	4.277345	0.000476	4.763380	1.613877	-0.000191
1110	1.1035e+02	-4.2095	4.148157	0.000324	3.243153	1.098810	-0.000130
1111	1.1044e+02	-4.2528	3.962449	0.000466	4.662032	1.579539	-0.000187
1112	1.1054e+02	-4.2801	3.780778	0.000456	4.560683	1.545201	-0.000183
1113	1.1064e+02	-4.3186	3.611218	0.000426	4.256638	1.442188	-0.000170
1114	1.1074e+02	-4.3667	3.445695	0.000416	4.155289	1.407850	-0.000166
1115	1.1084e+02	-4.4084	3.251913	0.000486	4.864729	1.648215	-0.000195
1116	1.1094e+02	-4.4357	3.098502	0.000385	3.851244	1.304837	-0.000154
1117	1.1104e+02	-4.4919	2.953165	0.000365	3.648547	1.236161	-0.000146
1118	1.1114e+02	-4.5223	2.775531	0.000446	4.459335	1.510864	-0.000179
1119	1.1124e+02	-4.5737	2.585785	0.000476	4.763380	1.613877	-0.000191
1120	1.1134e+02	-4.5993	2.424300	0.000405	4.053941	1.373512	-0.000162
1121	1.1144e+02	-4.6362	2.194183	0.000578	5.776865	1.957255	-0.000231
1122	1.1154e+02	-4.6860	2.056921	0.000345	3.445850	1.167485	-0.000138
1123	1.1164e+02	-4.7213	1.919658	0.000345	3.445850	1.167485	-0.000138
1124	1.1174e+02	-4.7549	1.673393	0.000618	6.182260	2.094606	-0.000248
1125	1.1184e+02	-4.8015	1.548242	0.000314	3.141804	1.064472	-0.000126
1126	1.1194e+02	-4.8416	1.398868	0.000375	3.749895	1.270499	-0.000150
1127	1.1204e+02	-4.8801	1.229308	0.000426	4.256638	1.442188	-0.000170
1128	1.1214e+02	-4.9266	1.027451	0.000507	5.067426	1.716890	-0.000203
1129	1.1224e+02	-4.9651	0.894226	0.000334	3.344501	1.133148	-0.000134
1130	1.1234e+02	-5.0084	0.696406	0.000497	4.966077	1.682553	-0.000199
1131	1.1244e+02	-5.0373	0.506661	0.000476	4.763380	1.613877	-0.000191
1132	1.1253e+02	-5.0774	0.369398	0.000345	3.445850	1.167485	-0.000138
1133	1.1263e+02	-5.1207	0.203875	0.000416	4.155289	1.407850	-0.000166
1134	1.1273e+02	-5.1672	0.046427	0.000395	3.952592	1.339174	-0.000158
1135	1.1283e+02	-5.1977	-0.159467	0.000517	5.168774	1.751228	-0.000207
1136	1.1293e+02	-5.2346	-0.300767	0.000355	3.547198	1.201823	-0.000142
1137	1.1303e+02	-5.2940	-0.474363	0.000436	4.357986	1.476526	-0.000174
1138	1.1313e+02	-5.3132	-0.647960	0.000436	4.357986	1.476526	-0.000174
1139	1.1323e+02	-5.3646	-0.821557	0.000436	4.357986	1.476526	-0.000174
1140	1.1333e+02	-5.3934	-1.019377	0.000497	4.966077	1.682553	-0.000199
1141	1.1343e+02	-5.4448	-1.136454	0.000294	2.939107	0.995796	-0.000118
1142	1.1353e+02	-5.4801	-1.338310	0.000507	5.067426	1.716890	-0.000203
1143	1.1363e+02	-5.5186	-1.479610	0.000355	3.547198	1.201823	-0.000142
1144	1.1373e+02	-5.5651	-1.677430	0.000497	4.966077	1.682553	-0.000199
1145	1.1383e+02	-5.6036	-1.802581	0.000314	3.141804	1.064472	-0.000126
1146	1.1393e+02	-5.6437	-1.960029	0.000395	3.952592	1.339174	-0.000158
1147	1.1403e+02	-5.6870	-2.157849	0.000497	4.966077	1.682553	-0.000199
1148	1.1413e+02	-5.7207	-2.315297	0.000395	3.952592	1.339174	-0.000158
1149	1.1423e+02	-5.7640	-2.496968	0.000456	4.560683	1.545201	-0.000183
1150	1.1433e+02	-5.7961	-2.662491	0.000416	4.155289	1.407850	-0.000166
1151	1.1442e+02	-5.8378	-2.856274	0.000486	4.864729	1.648215	-0.000195
1152	1.1452e+02	-5.8763	-3.001610	0.000365	3.648547	1.236161	-0.000146
1153	1.1462e+02	-5.9164	-3.167133	0.000416	4.155289	1.407850	-0.000166
1154	1.1472e+02	-5.9549	-3.336693	0.000426	4.256638	1.442188	-0.000170
1155	1.1482e+02	-5.9998	-3.514327	0.000446	4.459335	1.510864	-0.000179
1156	1.1492e+02	-6.0271	-3.651589	0.000345	3.445850	1.167485	-0.000138
1157	1.1502e+02	-6.0816	-3.821149	0.000426	4.256638	1.442188	-0.000170
1158	1.1512e+02	-6.1234	-4.027043	0.000517	5.168774	1.751228	-0.000207
1159	1.1522e+02	-6.1538	-4.156231	0.000324	3.243153	1.098810	-0.000130
1160	1.1532e+02	-6.1955	-4.333865	0.000446	4.459335	1.510864	-0.000179
1161	1.1542e+02	-6.2389	-4.503425	0.000426	4.256638	1.442188	-0.000170
1162	1.1552e+02	-6.2870	-4.664910	0.000405	4.053941	1.373512	-0.000162
1163	1.1562e+02	-6.3255	-4.834470	0.000426	4.256638	1.442188	-0.000170
1164	1.1572e+02	-6.3576	-5.008067	0.000436	4.357986	1.476526	-0.000174
1165	1.1582e+02	-6.3913	-5.177627	0.000426	4.256638	1.442188	-0.000170
1166	1.1592e+02	-6.4362	-5.290666	0.000284	2.837758	0.961459	-0.000114
1167	1.1602e+02	-6.4843	-5.472337	0.000456	4.560683	1.545201	-0.000183
1168	1.1612e+02	-6.5132	-5.629786	0.000395	3.952592	1.339174	-0.000158
1169	1.1622e+02	-6.5501	-5.795308	0.000416	4.155289	1.407850	-0.000166
1170	1.1632e+02	-6.5918	-5.981017	0.000466	4.662032	1.579539	-0.000187
1171	1.1642e+02	-6.6239	-6.170762	0.000476	4.763380	1.613877	-0.000191
1172	1.1651e+02	-6.6752	-6.348396	0.000446	4.459335	1.510864	-0.000179
1173	1.1661e+02	-6.7073	-6.457399	0.000274	2.736410	0.927121	-0.000110
1174	1.1671e+02	-6.7506	-6.626958	0.000426	4.256638	1.442188	-0.000170
1175	1.1681e+02	-6.7923	-6.768258	0.000355	3.547198	1.201823	-0.000142
1176	1.1691e+02	-6.8308	-6.986263	0.000547	5.472820	1.854242	-0.000219
1177	1.1701e+02	-6.8597	-7.107377	0.000304	3.040456	1.030134	-0.000122
1178	1.1711e+02	-6.9126	-7.268863	0.000405	4.053941	1.373512	-0.000162
1179	1.1721e+02	-6.9463	-7.466683	0.000497	4.966077	1.682553	-0.000199
1180	1.1731e+02	-6.9896	-7.632205	0.000416	4.155289	1.407850	-0.000166
1181	1.1741e+02	-7.0330	-7.797728	0.000416	4.155289	1.407850	-0.000166
1182	1.1751e+02	-7.0715	-7.947102	0.000375	3.749895	1.270499	-0.000150
1183	1.1761e+02	-7.1068	-8.132810	0.000466	4.662032	1.579539	-0.000187
1184	1.1771e+02	-7.1469	-8.326592	0.000486	4.864729	1.648215	-0.000195
1185	1.1781e+02	-7.1902	-8.463855	0.000345	3.445850	1.167485	-0.000138
1186	1.1791e+02	-7.2431	-8.609192	0.000365	3.648547	1.236161	-0.000146
1187	1.1801e+02	-7.2672	-8.790863	0.000456	4.560683	1.545201	-0.000183
1188	1.1811e+02	-7.3041	-8.948311	0.000395	3.952592	1.339174	-0.000158
1189	1.1821e+02	-7.3490	-9.134020	0.000466	4.662032	1.579539	-0.000187
1190	1.1831e+02	-7.3811	-9.263208	0.000324	3.243153	1.098810	-0.000130
1191	1.1841e+02	-7.4356	-9.440842	0.000446	4.459335	1.510864	-0.000179
1192	1.1850e+02	-7.4581	-9.594253	0.000385	3.851244	1.304837	-0.000154
1193	1.1860e+02	-7.5062	-9.759776	0.000416	4.155289	1.407850	-0.000166
1194	1.1870e+02	-7.5591	-9.893001	0.000334	3.344501	1.133148	-0.000134
1195	1.1880e+02	-7.5928	-10.066598	0.000436	4.357986	1.476526	-0.000174
1196	1.1890e+02	-7.6265	-10.240195	0.000436	4.357986	1.476526	-0.000174
1197	1.1900e+02	-7.6666	-10.397643	0.000395	3.952592	1.339174	-0.000158
1198	1.1910e+02	-7.7180	-10.555091	0.000395	3.952592	1.339174	-0.000158
1199	1.1920e+02	-7.7468	-10.680243	0.000314	3.141804	1.064472	-0.000126
1200	1.1930e+02	-7.7853	-10.861914	0.000456	4.560683	1.545201	-0.000183
1201	1.1940e+02	-7.8222	-11.027436	0.000416	4.155289	1.407850	-0.000166
1202	1.1950e+02	-7.8688	-11.168736	0.000355	3.547198	1.201823	-0.000142
1203	1.1960e+02	-7.8976	-11.338296	0.000426	4.256638	1.442188	-0.000170
1204	1.1970e+02	-7.9442	-11.483633	0.000365	3.648547	1.236161	-0.000146
1205	1.1980e+02	-7.9891	-11.645118	0.000405	4.053941	1.373512	-0.000162
1206	1.1990e+02	-8.0308	-11.818715	0.000436	4.357986	1.476526	-0.000174
1207	1.2000e+02	-8.0725	-12.012497	0.000486	4.864729	1.648215	-0.000195
1208	1.2010e+02	-8.1158	-12.133611	0.000304	3.040456	1.030134	-0.000122
1209	1.2020e+02	-8.1447	-12.295097	0.000405	4.053941	1.373512	-0.000162
1210	1.2030e+02	-8.1896	-12.452545	0.000395	3.952592	1.339174	-0.000158
1211	1.2039e+02	-8.2297	-12.601919	0.000375	3.749895	1.270499	-0.000150
1212	1.2049e+02	-8.2634	-12.771479	0.000426	4.256638	1.442188	-0.000170
1213	1.2059e+02	-8.3067	-12.953150	0.000456	4.560683	1.545201	-0.000183
1214	1.2069e+02	-8.3532	-13.126747	0.000436	4.357986	1.476526	-0.000174
1215	1.2079e+02	-8.3901	-13.251898	0.000314	3.141804	1.064472	-0.000126
1216	1.2089e+02	-8.4270	-13.429532	0.000446	4.459335	1.510864	-0.000179
1217	1.2099e+02	-8.4639	-13.570832	0.000355	3.547198	1.201823	-0.000142
1218	1.2109e+02	-8.5024	-13.744429	0.000436	4.357986	1.476526	-0.000174
1219	1.2119e+02	-8.5506	-13.893803	0.000375	3.749895	1.270499	-0.000150
1220	1.2129e+02	-8.5810	-14.091622	0.000497	4.966077	1.682553	-0.000199
1221	1.2139e+02	-8.6260	-14.232922	0.000355	3.547198	1.201823	-0.000142
1222	1.2149e+02	-8.6548	-14.354036	0.000304	3.040456	1.030134	-0.000122
1223	1.2159e+02	-8.7062	-14.523596	0.000426	4.256638	1.442188	-0.000170
1224	1.2169e+02	-8.7479	-14.664896	0.000355	3.547198	1.201823	-0.000142
1225	1.2179e+02	-8.7864	-14.814270	0.000375	3.749895	1.270499	-0.000150
1226	1.2189e+02	-8.8313	-15.004015	0.000476	4.763380	1.613877	-0.000191
1227	1.2199e+02	-8.8618	-15.125129	0.000304	3.040456	1.030134	-0.000122
1228	1.2209e+02	-8.8891	-15.290652	0.000416	4.155289	1.407850	-0.000166
1229	1.2219e+02	-8.9452	-15.504620	0.000537	5.371471	1.819904	-0.000215
1230	1.2229e+02	-8.9869	-15.641882	0.000345	3.445850	1.167485	-0.000138
1231	1.2239e+02	-9.0174	-15.754922	0.000284	2.837758	0.961459	-0.000114
1232	1.2248e+02	-9.0575	-15.924482	0.000426	4.256638	1.442188	-0.000170
1233	1.2258e+02	-9.1185	-16.130376	0.000517	5.168774	1.751228	-0.000207
1234	1.2268e+02	-9.1425	-16.251490	0.000304	3.040456	1.030134	-0.000122
1235	1.2278e+02	-9.1810	-16.449310	0.000497	4.966077	1.682553	-0.000199
1236	1.2288e+02	-9.2163	-16.574461	0.000314	3.141804	1.064472	-0.000126
1237	1.2298e+02	-9.2580	-16.727872	0.000385	3.851244	1.304837	-0.000154
1238	1.2308e+02	-9.2997	-16.897432	0.000426	4.256638	1.442188	-0.000170
1239	1.2318e+02	-9.3511	-17.046806	0.000375	3.749895	1.270499	-0.000150
1240	1.2328e+02	-9.3816	-17.212328	0.000416	4.155289	1.407850	-0.000166
1241	1.2338e+02	-9.4168	-17.357665	0.000365	3.648547	1.236161	-0.000146
1242	1.2348e+02	-9.4666	-17.503002	0.000365	3.648547	1.236161	-0.000146
1243	1.2358e+02	-9.5019	-17.636227	0.000334	3.344501	1.133148	-0.000134
1244	1.2368e+02	-9.5356	-17.821936	0.000466	4.662032	1.579539	-0.000187
1245	1.2378e+02	-9.5837	-17.975347	0.000385	3.851244	1.304837	-0.000154
1246	1.2388e+02	-9.6174	-18.144907	0.000426	4.256638	1.442188	-0.000170
1247	1.2398e+02	-9.6495	-18.274095	0.000324	3.243153	1.098810	-0.000130
1248	1.2408e+02	-9.7040	-18.455766	0.000456	4.560683	1.545201	-0.000183
1249	1.2418e+02	-9.7361	-18.609177	0.000385	3.851244	1.304837	-0.000154
1250	1.2428e+02	-9.7826	-18.738366	0.000324	3.243153	1.098810	-0.000130
1251	1.2438e+02	-9.8195	-18.928111	0.000476	4.763380	1.613877	-0.000191
1252	1.2447e+02	-9.8532	-19.081522	0.000385	3.851244	1.304837	-0.000154
1253	1.2457e+02	-9.8981	-19.206673	0.000314	3.141804	1.064472	-0.000126
1254	1.2467e+02	-9.9366	-19.368159	0.000405	4.053941	1.373512	-0.000162
1255	1.2477e+02	-9.9783	-19.549830	0.000456	4.560683	1.545201	-0.000183
1256	1.2487e+02	-10.0120	-19.683055	0.000334	3.344501	1.133148	-0.000134
1257	1.2497e+02	-10.0585	-19.884912	0.000507	5.067426	1.716890	-0.000203
1258	1.2507e+02	-10.0954	-20.010063	0.000314	3.141804	1.064472	-0.000126
1259	1.2517e+02	-10.1404	-20.155400	0.000365	3.648547	1.236161	-0.000146
1260	1.2527e+02	-10.1821	-20.316886	0.000405	4.053941	1.373512	-0.000162
1261	1.2537e+02	-10.2125	-20.454148	0.000345	3.445850	1.167485	-0.000138
1262	1.2547e+02	-10.2494	-20.579299	0.000314	3.141804	1.064472	-0.000126
1263	1.2557e+02	-10.3024	-20.760971	0.000456	4.560683	1.545201	-0.000183
1264	1.2567e+02	-10.3361	-20.886122	0.000314	3.141804	1.064472	-0.000126
1265	1.2577e+02	-10.3794	-21.071830	0.000466	4.662032	1.579539	-0.000187
1266	1.2587e+02	-10.4131	-21.172758	0.000253	2.533713	0.858445	-0.000101
1267	1.2597e+02	-10.4580	-21.338281	0.000416	4.155289	1.407850	-0.000166
1268	1.2607e+02	-10.4997	-21.515915	0.000446	4.459335	1.510864	-0.000179
1269	1.2617e+02	-10.5318	-21.632992	0.000294	2.939107	0.995796	-0.000118
1270	1.2627e+02	-10.5783	-21.822737	0.000476	4.763380	1.613877	-0.000191
1271	1.2636e+02	-10.6248	-21.968074	0.000365	3.648547	1.236161	-0.000146
1272	1.2646e+02	-10.6665	-22.141671	0.000436	4.357986	1.476526	-0.000174
1273	1.2656e+02	-10.6922	-22.246636	0.000264	2.635061	0.892783	-0.000105
1274	1.2666e+02	-10.7355	-22.391973	0.000365	3.648547	1.236161	-0.000146
1275	1.2676e+02	-10.7772	-22.581719	0.000476	4.763380	1.613877	-0.000191
1276	1.2686e+02	-10.8222	-22.727056	0.000365	3.648547	1.236161	-0.000146
1277	1.2696e+02	-10.8591	-22.876430	0.000375	3.749895	1.270499	-0.000150
1278	1.2706e+02	-10.8927	-23.021767	0.000365	3.648547	1.236161	-0.000146
1279	1.2716e+02	-10.9393	-23.175178	0.000385	3.851244	1.304837	-0.000154
1280	1.2726e+02	-10.9778	-23.344737	0.000426	4.256638	1.442188	-0.000170
1281	1.2736e+02	-11.0243	-23.490074	0.000365	3.648547	1.236161	-0.000146
1282	1.2746e+02	-11.0596	-23.679820	0.000476	4.763380	1.613877	-0.000191
1283	1.2756e+02	-11.0965	-23.853417	0.000436	4.357986	1.476526	-0.000174
1284	1.2766e+02	-11.1382	-23.978568	0.000314	3.141804	1.064472	-0.000126
1285	1.2776e+02	-11.1831	-24.136016	0.000395	3.952592	1.339174	-0.000158
1286	1.2786e+02	-11.2248	-24.289427	0.000385	3.851244	1.304837	-0.000154
1287	1.2796e+02	-11.2569	-24.450913	0.000405	4.053941	1.373512	-0.000162
1288	1.2806e+02	-11.2890	-24.628547	0.000446	4.459335	1.510864	-0.000179
1289	1.2816e+02	-11.3339	-24.781958	0.000385	3.851244	1.304837	-0.000154
1290	1.2826e+02	-11.3708	-24.927295	0.000365	3.648547	1.236161	-0.000146
1291	1.2835e+02	-11.4109	-25.048409	0.000304	3.040456	1.030134	-0.000122
1292	1.2845e+02	-11.4542	-25.189708	0.000355	3.547198	1.201823	-0.000142
1293	1.2855e+02	-11.5040	-25.387528	0.000497	4.966077	1.682553	-0.000199
1294	1.2865e+02	-11.5264	-25.516716	0.000324	3.243153	1.098810	-0.000130
1295	1.2875e+02	-11.5665	-25.653979	0.000345	3.445850	1.167485	-0.000138
1296	1.2885e+02	-11.6082	-25.811427	0.000395	3.952592	1.339174	-0.000158
1297	1.2895e+02	-11.6467	-25.936579	0.000314	3.141804	1.064472	-0.000126
1298	1.2905e+02	-11.6900	-26.114213	0.000446	4.459335	1.510864	-0.000179
1299	1.2915e+02	-11.7350	-26.275698	0.000405	4.053941	1.373512	-0.000162
1300	1.2925e+02	-11.7670	-26.433146	0.000395	3.952592	1.339174	-0.000158
1301	1.2935e+02	-11.8136	-26.562335	0.000324	3.243153	1.098810	-0.000130
1302	1.2945e+02	-11.8537	-26.727857	0.000416	4.155289	1.407850	-0.000166
1303	1.2955e+02	-11.8906	-26.832823	0.000264	2.635061	0.892783	-0.000105
1304	1.2965e+02	-11.9387	-27.014494	0.000456	4.560683	1.545201	-0.000183
1305	1.2975e+02	-11.9708	-27.163868	0.000375	3.749895	1.270499	-0.000150
1306	1.2985e+02	-12.0141	-27.301130	0.000345	3.445850	1.167485	-0.000138
1307	1.2995e+02	-12.0526	-27.478764	0.000446	4.459335	1.510864	-0.000179
1308	1.3005e+02	-12.0911	-27.611990	0.000334	3.344501	1.133148	-0.000134
1309	1.3015e+02	-12.1328	-27.757327	0.000365	3.648547	1.236161	-0.000146
1310	1.3025e+02	-12.1713	-27.943035	0.000466	4.662032	1.579539	-0.000187
1311	1.3034e+02	-12.2210	-28.060112	0.000294	2.939107	0.995796	-0.000118
1312	1.3044e+02	-12.2531	-28.201412	0.000355	3.547198	1.201823	-0.000142
1313	1.3054e+02	-12.2820	-28.366934	0.000416	4.155289	1.407850	-0.000166
1314	1.3064e+02	-12.3269	-28.524383	0.000395	3.952592	1.339174	-0.000158
1315	1.3074e+02	-12.3767	-28.653571	0.000324	3.243153	1.098810	-0.000130
1316	1.3084e+02	-12.4119	-28.831205	0.000446	4.459335	1.510864	-0.000179
1317	1.3094e+02	-12.4649	-28.940208	0.000274	2.736410	0.927121	-0.000110
1318	1.3104e+02	-12.4938	-29.109767	0.000426	4.256638	1.442188	-0.000170
1319	1.3114e+02	-12.5258	-29.242993	0.000334	3.344501	1.133148	-0.000134
1320	1.3124e+02	-12.5692	-29.420627	0.000446	4.459335	1.510864	-0.000179
1321	1.3134e+02	-12.6077	-29.541741	0.000304	3.040456	1.030134	-0.000122
1322	1.3144e+02	-12.6478	-29.679003	0.000345	3.445850	1.167485	-0.000138
1323	1.3154e+02	-12.6911	-29.844526	0.000416	4.155289	1.407850	-0.000166
1324	1.3164e+02	-12.7216	-29.997937	0.000385	3.851244	1.304837	-0.000154
1325	1.3174e+02	-12.7681	-30.151348	0.000385	3.851244	1.304837	-0.000154
1326	1.3184e+02	-12.8114	-30.316871	0.000416	4.155289	1.407850	-0.000166
1327	1.3194e+02	-12.8595	-30.446059	0.000324	3.243153	1.098810	-0.000130
1328	1.3204e+02	-12.9012	-30.595433	0.000375	3.749895	1.270499	-0.000150
1329	1.3214e+02	-12.9237	-30.752881	0.000395	3.952592	1.339174	-0.000158
1330	1.3224e+02	-12.9686	-30.873996	0.000304	3.040456	1.030134	-0.000122
1331	1.3234e+02	-12.9991	-31.035481	0.000405	4.053941	1.373512	-0.000162
1332	1.3243e+02	-13.0536	-31.180818	0.000365	3.648547	1.236161	-0.000146
1333	1.3253e+02	-13.0841	-31.330192	0.000375	3.749895	1.270499	-0.000150
1334	1.3263e+02	-13.1210	-31.443232	0.000284	2.837758	0.961459	-0.000114
1335	1.3273e+02	-13.1627	-31.616829	0.000436	4.357986	1.476526	-0.000174
1336	1.3283e+02	-13.2093	-31.746017	0.000324	3.243153	1.098810	-0.000130
1337	1.3293e+02	-13.2574	-31.927688	0.000456	4.560683	1.545201	-0.000183
1338	1.3303e+02	-13.2879	-32.085136	0.000395	3.952592	1.339174	-0.000158
1339	1.3313e+02	-13.3232	-32.222399	0.000345	3.445850	1.167485	-0.000138
1340	1.3323e+02	-13.3633	-32.400033	0.000446	4.459335	1.510864	-0.000179
1341	1.3333e+02	-13.4082	-32.529221	0.000324	3.243153	1.098810	-0.000130
1342	1.3343e+02	-13.4435	-32.686670	0.000395	3.952592	1.339174	-0.000158
1343	1.3353e+02	-13.4964	-32.848155	0.000405	4.053941	1.373512	-0.000162
1344	1.3363e+02	-13.5285	-32.977343	0.000324	3.243153	1.098810	-0.000130
1345	1.3373e+02	-13.5686	-33.126717	0.000375	3.749895	1.270499	-0.000150
1346	1.3383e+02	-13.5991	-33.247831	0.000304	3.040456	1.030134	-0.000122
1347	1.3393e+02	-13.6488	-33.421428	0.000436	4.357986	1.476526	-0.000174
1348	1.3403e+02	-13.6777	-33.578877	0.000395	3.952592	1.339174	-0.000158
1349	1.3413e+02	-13.7290	-33.740362	0.000405	4.053941	1.373512	-0.000162
1350	1.3423e+02	-13.7659	-33.873587	0.000334	3.344501	1.133148	-0.000134
1351	1.3432e+02	-13.8060	-34.059296	0.000466	4.662032	1.579539	-0.000187
1352	1.3442e+02	-13.8509	-34.188484	0.000324	3.243153	1.098810	-0.000130
1353	1.3452e+02	-13.8814	-34.309598	0.000304	3.040456	1.030134	-0.000122
1354	1.3462e+02	-13.9263	-34.491269	0.000456	4.560683	1.545201	-0.000183
1355	1.3472e+02	-13.9584	-34.652755	0.000405	4.053941	1.373512	-0.000162
1356	1.3482e+02	-14.0066	-34.769832	0.000294	2.939107	0.995796	-0.000118
1357	1.3492e+02	-14.0467	-34.923243	0.000385	3.851244	1.304837	-0.000154
1358	1.3502e+02	-14.0771	-35.080691	0.000395	3.952592	1.339174	-0.000158
1359	1.3512e+02	-14.1301	-35.226028	0.000365	3.648547	1.236161	-0.000146
1360	1.3522e+02	-14.1670	-35.363290	0.000345	3.445850	1.167485	-0.000138
1361	1.3532e+02	-14.2039	-35.504590	0.000355	3.547198	1.201823	-0.000142
1362	1.3542e+02	-14.2376	-35.678187	0.000436	4.357986	1.476526	-0.000174
1363	1.3552e+02	-14.2873	-35.827561	0.000375	3.749895	1.270499	-0.000150
1364	1.3562e+02	-14.3242	-35.964824	0.000345	3.445850	1.167485	-0.000138
1365	1.3572e+02	-14.3579	-36.089975	0.000314	3.141804	1.064472	-0.000126
1366	1.3582e+02	-14.4076	-36.263572	0.000436	4.357986	1.476526	-0.000174
1367	1.3592e+02	-14.4477	-36.396797	0.000334	3.344501	1.133148	-0.000134
1368	1.3602e+02	-14.4750	-36.550208	0.000385	3.851244	1.304837	-0.000154
1369	1.3612e+02	-14.5199	-36.715731	0.000416	4.155289	1.407850	-0.000166
1370	1.3622e+02	-14.5648	-36.828771	0.000284	2.837758	0.961459	-0.000114
1371	1.3631e+02	-14.6033	-37.026590	0.000497	4.966077	1.682553	-0.000199
1372	1.3641e+02	-14.6450	-37.163853	0.000345	3.445850	1.167485	-0.000138
1373	1.3651e+02	-14.6707	-37.333413	0.000426	4.256638	1.442188	-0.000170
1374	1.3661e+02	-14.7253	-37.422230	0.000223	2.229667	0.755432	-0.000089
1375	1.3671e+02	-14.7589	-37.591789	0.000426	4.256638	1.442188	-0.000170
1376	1.3681e+02	-14.8039	-37.753275	0.000405	4.053941	1.373512	-0.000162
1377	1.3691e+02	-14.8343	-37.922835	0.000426	4.256638	1.442188	-0.000170
1378	1.3701e+02	-14.8841	-38.056060	0.000334	3.344501	1.133148	-0.000134
1379	1.3711e+02	-14.9162	-38.257917	0.000507	5.067426	1.716890	-0.000203
1380	1.3721e+02	-14.9611	-38.383068	0.000314	3.141804	1.064472	-0.000126
1381	1.3731e+02	-15.0012	-38.520331	0.000345	3.445850	1.167485	-0.000138
1382	1.3741e+02	-15.0429	-38.718150	0.000497	4.966077	1.682553	-0.000199
1383	1.3751e+02	-15.0862	-38.895784	0.000446	4.459335	1.510864	-0.000179
1384	1.3761e+02	-15.1247	-39.065344	0.000426	4.256638	1.442188	-0.000170
1385	1.3771e+02	-15.1680	-39.226829	0.000405	4.053941	1.373512	-0.000162
1386	1.3781e+02	-15.1873	-39.364092	0.000345	3.445850	1.167485	-0.000138
1387	1.3791e+02	-15.2370	-39.525577	0.000405	4.053941	1.373512	-0.000162
1388	1.3801e+02	-15.2803	-39.699174	0.000436	4.357986	1.476526	-0.000174
1389	1.3811e+02	-15.3333	-39.888920	0.000476	4.763380	1.613877	-0.000191
1390	1.3821e+02	-15.3589	-40.058479	0.000426	4.256638	1.442188	-0.000170
1391	1.3831e+02	-15.3958	-40.272448	0.000537	5.371471	1.819904	-0.000215
1392	1.3840e+02	-15.4311	-40.385487	0.000284	2.837758	0.961459	-0.000114
1393	1.3850e+02	-15.4760	-40.567158	0.000456	4.560683	1.545201	-0.000183
1394	1.3860e+02	-15.5081	-40.756904	0.000476	4.763380	1.613877	-0.000191
1395	1.3870e+02	-15.5530	-40.934538	0.000446	4.459335	1.510864	-0.000179
1396	1.3880e+02	-15.5964	-41.091986	0.000395	3.952592	1.339174	-0.000158
1397	1.3890e+02	-15.6332	-41.301917	0.000527	5.270123	1.785566	-0.000211
1398	1.3900e+02	-15.6782	-41.495700	0.000486	4.864729	1.648215	-0.000195
1399	1.3910e+02	-15.7215	-41.669297	0.000436	4.357986	1.476526	-0.000174
1400	1.3920e+02	-15.7616	-41.850968	0.000456	4.560683	1.545201	-0.000183
1401	1.3930e+02	-15.7969	-42.068973	0.000547	5.472820	1.854242	-0.000219
1402	1.3940e+02	-15.8290	-42.242570	0.000436	4.357986	1.476526	-0.000174
1403	1.3950e+02	-15.8739	-42.428278	0.000466	4.662032	1.579539	-0.000187
1404	1.3960e+02	-15.9092	-42.650321	0.000557	5.574168	1.888579	-0.000223
1405	1.3970e+02	-15.9621	-42.831992	0.000456	4.560683	1.545201	-0.000183
1406	1.3980e+02	-15.9974	-43.049997	0.000547	5.472820	1.854242	-0.000219
1407	1.3990e+02	-16.0375	-43.191297	0.000355	3.547198	1.201823	-0.000142
1408	1.4000e+02	-16.0728	-43.433525	0.000608	6.080911	2.060268	-0.000243
1409	1.4010e+02	-16.1161	-43.659604	0.000568	5.675517	1.922917	-0.000227
1410	1.4020e+02	-16.1594	-43.813016	0.000385	3.851244	1.304837	-0.000154
1411	1.4029e+02	-16.1995	-44.039095	0.000568	5.675517	1.922917	-0.000227
1412	1.4039e+02	-16.2316	-44.289398	0.000628	6.283608	2.128944	-0.000252
1413	1.4049e+02	-16.2765	-44.479143	0.000476	4.763380	1.613877	-0.000191
1414	1.4059e+02	-16.3134	-44.709260	0.000578	5.776865	1.957255	-0.000231
1415	1.4069e+02	-16.3568	-44.911117	0.000507	5.067426	1.716890	-0.000203
1416	1.4079e+02	-16.3985	-45.173530	0.000659	6.587654	2.231957	-0.000264
1417	1.4089e+02	-16.4370	-45.359239	0.000466	4.662032	1.579539	-0.000187
1418	1.4099e+02	-16.4723	-45.662024	0.000760	7.601139	2.575336	-0.000304
1419	1.4109e+02	-16.4979	-45.835621	0.000436	4.357986	1.476526	-0.000174
1420	1.4119e+02	-16.5509	-46.110146	0.000689	6.891699	2.334971	-0.000276
1421	1.4129e+02	-16.5942	-46.320077	0.000527	5.270123	1.785566	-0.000211
1422	1.4139e+02	-16.6295	-46.570379	0.000628	6.283608	2.128944	-0.000252
1423	1.4149e+02	-16.6824	-46.832793	0.000659	6.587654	2.231957	-0.000264
1424	1.4159e+02	-16.7081	-47.095207	0.000659	6.587654	2.231957	-0.000264
1425	1.4169e+02	-16.7498	-47.329361	0.000588	5.878214	1.991593	-0.000235
1426	1.4179e+02	-16.7915	-47.583700	0.000638	6.384957	2.163282	-0.000256
1427	1.4189e+02	-16.8332	-47.846114	0.000659	6.587654	2.231957	-0.000264
1428	1.4199e+02	-16.8733	-48.064120	0.000547	5.472820	1.854242	-0.000219
1429	1.4209e+02	-16.9214	-48.350756	0.000720	7.195745	2.437984	-0.000288
1430	1.4219e+02	-16.9535	-48.605096	0.000638	6.384957	2.163282	-0.000256
1431	1.4228e+02	-17.0001	-48.887695	0.000709	7.094396	2.403646	-0.000284
1432	1.4238e+02	-17.0273	-49.146072	0.000649	6.486305	2.197620	-0.000260
1433	1.4248e+02	-17.0674	-49.436746	0.000730	7.297093	2.472322	-0.000292
1434	1.4258e+02	-17.1220	-49.719345	0.000709	7.094396	2.403646	-0.000284
1435	1.4268e+02	-17.1573	-50.010019	0.000730	7.297093	2.472322	-0.000292
1436	1.4278e+02	-17.1845	-50.296656	0.000720	7.195745	2.437984	-0.000288
1437	1.4288e+02	-17.2343	-50.575218	0.000699	6.993048	2.369309	-0.000280
1438	1.4298e+02	-17.2760	-50.958746	0.000963	9.628109	3.262092	-0.000385
1439	1.4308e+02	-17.3193	-51.221160	0.000659	6.587654	2.231957	-0.000264
1440	1.4318e+02	-17.3482	-51.511833	0.000730	7.297093	2.472322	-0.000292
1441	1.4328e+02	-17.3979	-51.826730	0.000791	7.905184	2.678349	-0.000316
1442	1.4338e+02	-17.4332	-52.157775	0.000831	8.310578	2.815700	-0.000333
1443	1.4348e+02	-17.4765	-52.484783	0.000821	8.209230	2.781362	-0.000329
1444	1.4358e+02	-17.4958	-52.868311	0.000963	9.628109	3.262092	-0.000385
1445	1.4368e+02	-17.5535	-53.191282	0.000811	8.107881	2.747025	-0.000325
1446	1.4378e+02	-17.5904	-53.518290	0.000821	8.209230	2.781362	-0.000329
1447	1.4388e+02	-17.6353	-53.841261	0.000811	8.107881	2.747025	-0.000325
1448	1.4398e+02	-17.6754	-54.244974	0.001013	10.134852	3.433781	-0.000406
1449	1.4408e+02	-17.7059	-54.551797	0.000770	7.702487	2.609673	-0.000308
1450	1.4418e+02	-17.7396	-54.943399	0.000983	9.830806	3.330767	-0.000394
1451	1.4428e+02	-17.7861	-55.254258	0.000780	7.803836	2.644011	-0.000312
1452	1.4437e+02	-17.8294	-55.678158	0.001064	10.641594	3.605470	-0.000426
1453	1.4447e+02	-17.8631	-55.997091	0.000801	8.006533	2.712687	-0.000321
1454	1.4457e+02	-17.9032	-56.449250	0.001135	11.351034	3.845834	-0.000454
1455	1.4467e+02	-17.9642	-56.788370	0.000851	8.513275	2.884376	-0.000341
1456	1.4477e+02	-17.9834	-57.204195	0.001044	10.438897	3.536794	-0.000418
1457	1.4487e+02	-18.0332	-57.607908	0.001013	10.134852	3.433781	-0.000406
1458	1.4497e+02	-18.0701	-58.015659	0.001024	10.236200	3.468119	-0.000410
1459	1.4507e+02	-18.1134	-58.439558	0.001064	10.641594	3.605470	-0.000426
1460	1.4517e+02	-18.1503	-58.879606	0.001105	11.046988	3.742821	-0.000442
1461	1.4527e+02	-18.1920	-59.307543	0.001074	10.742943	3.639808	-0.000430
1462	1.4537e+02	-18.2353	-59.719330	0.001034	10.337549	3.502456	-0.000414
1463	1.4547e+02	-18.2690	-60.143230	0.001064	10.641594	3.605470	-0.000426
1464	1.4557e+02	-18.3059	-60.575203	0.001084	10.844291	3.674145	-0.000434
1465	1.4567e+02	-18.3444	-61.051585	0.001196	11.959125	4.051861	-0.000479
1466	1.4577e+02	-18.3845	-61.511819	0.001155	11.553731	3.914510	-0.000463
1467	1.4587e+02	-18.4310	-61.963978	0.001135	11.351034	3.845834	-0.000454
1468	1.4597e+02	-18.4631	-62.476694	0.001287	12.871262	4.360901	-0.000515
1469	1.4607e+02	-18.5032	-62.904631	0.001074	10.742943	3.639808	-0.000430
1470	1.4617e+02	-18.5497	-63.376975	0.001186	11.857776	4.017523	-0.000475
1471	1.4626e+02	-18.5866	-63.901803	0.001318	13.175307	4.463915	-0.000527
1472	1.4636e+02	-18.6171	-64.370111	0.001176	11.756428	3.983186	-0.000471
1473	1.4646e+02	-18.6669	-64.923198	0.001388	13.884747	4.704280	-0.000556
1474	1.4656e+02	-18.7038	-65.427840	0.001267	12.668565	4.292226	-0.000507
1475	1.4666e+02	-18.7390	-65.944594	0.001297	12.972610	4.395239	-0.000519
1476	1.4676e+02	-18.7856	-66.525941	0.001459	14.594186	4.944644	-0.000584
1477	1.4686e+02	-18.8257	-67.050769	0.001318	13.175307	4.463915	-0.000527
1478	1.4696e+02	-18.8674	-67.583671	0.001338	13.378004	4.532591	-0.000536
1479	1.4706e+02	-18.9107	-68.152907	0.001429	14.290141	4.841631	-0.000572
1480	1.4716e+02	-18.9460	-68.726180	0.001439	14.391489	4.875969	-0.000576
1481	1.4726e+02	-18.9861	-69.267156	0.001358	13.580701	4.601266	-0.000544
1482	1.4736e+02	-19.0182	-69.884838	0.001551	15.506323	5.253684	-0.000621
1483	1.4746e+02	-19.0759	-70.502520	0.001551	15.506323	5.253684	-0.000621
1484	1.4756e+02	-19.1096	-71.059645	0.001399	13.986095	4.738617	-0.000560
1485	1.4766e+02	-19.1433	-71.705586	0.001622	16.215763	5.494049	-0.000649
1486	1.4776e+02	-19.1914	-72.299045	0.001490	14.898232	5.047658	-0.000596
1487	1.4786e+02	-19.2283	-72.961136	0.001662	16.621157	5.631400	-0.000665
1488	1.4796e+02	-19.2636	-73.594966	0.001591	15.911717	5.391036	-0.000637
1489	1.4806e+02	-19.3118	-74.232833	0.001601	16.013066	5.425374	-0.000641
1490	1.4816e+02	-19.3454	-74.882812	0.001632	16.317111	5.528387	-0.000653
1491	1.4825e+02	-19.3743	-75.544902	0.001662	16.621157	5.631400	-0.000665
1492	1.4835e+02	-19.4257	-76.231216	0.001723	17.229248	5.837427	-0.000690
1493	1.4845e+02	-19.4674	-76.909454	0.001703	17.026551	5.768752	-0.000682
1494	1.4855e+02	-19.5027	-77.607879	0.001753	17.533293	5.940441	-0.000702
1495	1.4865e+02	-19.5524	-78.358786	0.001885	18.850824	6.386832	-0.000755
1496	1.4875e+02	-19.5829	-79.049136	0.001733	17.330596	5.871765	-0.000694
1497	1.4885e+02	-19.6278	-79.828304	0.001956	19.560264	6.627197	-0.000783
1498	1.4895e+02	-19.6535	-80.559025	0.001834	18.344082	6.215143	-0.000734
1499	1.4905e+02	-19.7048	-81.318007	0.001905	19.053521	6.455508	-0.000763
1500	1.4915e+02	-19.7465	-82.060840	0.001865	18.648127	6.318156	-0.000747
1501	1.4925e+02	-19.7770	-82.856155	0.001997	19.965658	6.764548	-0.000799
1502	1.4935e+02	-19.8267	-83.687805	0.002088	20.877794	7.073588	-0.000836
1503	1.4945e+02	-19.8620	-84.450824	0.001915	19.154870	6.489846	-0.000767
1504	1.4955e+02	-19.8893	-85.286511	0.002098	20.979143	7.107926	-0.000840
1505	1.4965e+02	-19.9486	-86.126235	0.002108	21.080492	7.142264	-0.000844
1506	1.4975e+02	-19.9807	-86.994219	0.002179	21.789931	7.382629	-0.000872
1507	1.4985e+02	-20.0128	-87.833944	0.002108	21.080492	7.142264	-0.000844
1508	1.4995e+02	-19.9807	-88.463737	-0.001581	-15.810369	-5.356698	-0.000633
1509	1.5005e+02	-19.9342	-89.061233	-0.001500	-14.999580	-5.081995	-0.000600
1510	1.5015e+02	-19.8925	-89.602209	-0.001358	-13.580701	-4.601266	-0.000544
1511	1.5025e+02	-19.8604	-90.175482	-0.001439	-14.391489	-4.875969	-0.000576
1512	1.5034e+02	-19.8203	-90.655902	-0.001206	-12.060474	-4.086199	-0.000483
1513	1.5044e+02	-19.7818	-91.124209	-0.001176	-11.756428	-3.983186	-0.000471
1514	1.5054e+02	-19.7433	-91.560220	-0.001095	-10.945640	-3.708483	-0.000438
1515	1.5064e+02	-19.6952	-91.967971	-0.001024	-10.236200	-3.468119	-0.000410
1516	1.5074e+02	-19.6519	-92.375721	-0.001024	-10.236200	-3.468119	-0.000410
1517	1.5084e+02	-19.6117	-92.747138	-0.000932	-9.324064	-3.159078	-0.000373
1518	1.5094e+02	-19.5845	-93.086257	-0.000851	-8.513275	-2.884376	-0.000341
1519	1.5104e+02	-19.5412	-93.485934	-0.001003	-10.033503	-3.399443	-0.000402
1520	1.5114e+02	-19.5011	-93.829090	-0.000861	-8.614624	-2.918714	-0.000345
1521	1.5124e+02	-19.4626	-94.103615	-0.000689	-6.891699	-2.334971	-0.000276
1522	1.5134e+02	-19.4208	-94.394289	-0.000730	-7.297093	-2.472322	-0.000292
1523	1.5144e+02	-19.3759	-94.648629	-0.000638	-6.384957	-2.163282	-0.000256
1524	1.5154e+02	-19.3342	-94.894894	-0.000618	-6.182260	-2.094606	-0.000248
1525	1.5164e+02	-19.2989	-95.149234	-0.000638	-6.384957	-2.163282	-0.000256
1526	1.5174e+02	-19.2636	-95.395499	-0.000618	-6.182260	-2.094606	-0.000248
1527	1.5184e+02	-19.2267	-95.573133	-0.000446	-4.459335	-1.510864	-0.000179
1528	1.5194e+02	-19.1850	-95.795175	-0.000557	-5.574168	-1.888579	-0.000223
1529	1.5204e+02	-19.1513	-95.920327	-0.000314	-3.141804	-1.064472	-0.000126
1530	1.5214e+02	-19.1064	-96.174666	-0.000638	-6.384957	-2.163282	-0.000256
1531	1.5224e+02	-19.0663	-96.299817	-0.000314	-3.141804	-1.064472	-0.000126
1532	1.5233e+02	-19.0262	-96.489563	-0.000476	-4.763380	-1.613877	-0.000191
1533	1.5243e+02	-18.9845	-96.598565	-0.000274	-2.736410	-0.927121	-0.000110
1534	1.5253e+02	-18.9460	-96.747939	-0.000375	-3.749895	-1.270499	-0.000150
1535	1.5263e+02	-18.9043	-96.897313	-0.000375	-3.749895	-1.270499	-0.000150
1536	1.5273e+02	-18.8610	-96.974019	-0.000193	-1.925622	-0.652418	-0.000077
1537	1.5283e+02	-18.8225	-97.107244	-0.000334	-3.344501	-1.133148	-0.000134
1538	1.5293e+02	-18.7952	-97.204136	-0.000243	-2.432364	-0.824107	-0.000097
1539	1.5303e+02	-18.7487	-97.305064	-0.000253	-2.533713	-0.858445	-0.000101
1540	1.5313e+02	-18.7070	-97.369658	-0.000162	-1.621576	-0.549405	-0.000065
1541	1.5323e+02	-18.6620	-97.446364	-0.000193	-1.925622	-0.652418	-0.000077
1542	1.5333e+02	-18.6267	-97.519032	-0.000182	-1.824273	-0.618081	-0.000073
1543	1.5343e+02	-18.5898	-97.595738	-0.000193	-1.925622	-0.652418	-0.000077
1544	1.5353e+02	-18.5449	-97.660332	-0.000162	-1.621576	-0.549405	-0.000065
1545	1.5363e+02	-18.5193	-97.720889	-0.000152	-1.520228	-0.515067	-0.000061
1546	1.5373e+02	-18.4583	-97.733001	-0.000030	-0.304046	-0.103013	-0.000012
1547	1.5383e+02	-18.4230	-97.793558	-0.000152	-1.520228	-0.515067	-0.000061
1548	1.5393e+02	-18.3909	-97.805669	-0.000030	-0.304046	-0.103013	-0.000012
1549	1.5403e+02	-18.3508	-97.862189	-0.000142	-1.418879	-0.480729	-0.000057
1550	1.5413e+02	-18.3011	-97.870263	-0.000020	-0.202697	-0.068676	-0.000008
1551	1.5422e+02	-18.2626	-97.882375	-0.000030	-0.304046	-0.103013	-0.000012
1552	1.5432e+02	-18.2257	-97.882375	0.000000	0.000000	0.000000	0.000000
1553	1.5442e+02	-18.1920	-97.902560	-0.000051	-0.506743	-0.171689	-0.000020
1554	1.5452e+02	-18.1439	-97.890449	0.000030	0.304046	0.103013	0.000012
1555	1.5462e+02	-18.1118	-97.942932	-0.000132	-1.317531	-0.446391	-0.000053
1556	1.5472e+02	-18.0749	-97.922746	0.000051	0.506743	0.171689	0.000020
1557	1.5482e+02	-18.0187	-97.910634	0.000030	0.304046	0.103013	0.000012
1558	1.5492e+02	-17.9931	-97.906597	0.000010	0.101349	0.034338	0.000004
1559	1.5502e+02	-17.9498	-97.858152	0.000122	1.216182	0.412054	0.000049
1560	1.5512e+02	-17.9081	-97.842003	0.000041	0.405394	0.137351	0.000016
1561	1.5522e+02	-17.8647	-97.866226	-0.000061	-0.608091	-0.206027	-0.000024
1562	1.5532e+02	-17.8294	-97.813743	0.000132	1.317531	0.446391	0.000053
1563	1.5542e+02	-17.7925	-97.769335	0.000111	1.114834	0.377716	0.000045
1564	1.5552e+02	-17.7476	-97.749149	0.000051	0.506743	0.171689	0.000020
1565	1.5562e+02	-17.7155	-97.716852	0.000081	0.810788	0.274702	0.000032
1566	1.5572e+02	-17.6658	-97.652258	0.000162	1.621576	0.549405	0.000065
1567	1.5582e+02	-17.6321	-97.636109	0.000041	0.405394	0.137351	0.000016
1568	1.5592e+02	-17.5936	-97.567478	0.000172	1.722925	0.583743	0.000069
1569	1.5602e+02	-17.5519	-97.535181	0.000081	0.810788	0.274702	0.000032
1570	1.5612e+02	-17.5134	-97.510958	0.000061	0.608091	0.206027	0.000024
1571	1.5622e+02	-17.4749	-97.430215	0.000203	2.026970	0.686756	0.000081
1572	1.5631e+02	-17.4220	-97.410030	0.000051	0.506743	0.171689	0.000020
1573	1.5641e+02	-17.3931	-97.377733	0.000081	0.810788	0.274702	0.000032
1574	1.5651e+02	-17.3530	-97.276804	0.000253	2.533713	0.858445	0.000101
1575	1.5661e+02	-17.3161	-97.187987	0.000223	2.229667	0.755432	0.000089
1576	1.5671e+02	-17.2744	-97.163764	0.000061	0.608091	0.206027	0.000024
1577	1.5681e+02	-17.2279	-97.103207	0.000152	1.520228	0.515067	0.000061
1578	1.5691e+02	-17.1942	-97.058799	0.000111	1.114834	0.377716	0.000045
1579	1.5701e+02	-17.1460	-96.945759	0.000284	2.837758	0.961459	0.000114
1580	1.5711e+02	-17.1124	-96.909425	0.000091	0.912137	0.309040	0.000037
1581	1.5721e+02	-17.0674	-96.820608	0.000223	2.229667	0.755432	0.000089
1582	1.5731e+02	-17.0353	-96.751977	0.000172	1.722925	0.583743	0.000069
1583	1.5741e+02	-16.9936	-96.659122	0.000233	2.331016	0.789770	0.000093
1584	1.5751e+02	-16.9599	-96.606640	0.000132	1.317531	0.446391	0.000053
1585	1.5761e+02	-16.9182	-96.501674	0.000264	2.635061	0.892783	0.000105
1586	1.5771e+02	-16.8765	-96.461303	0.000101	1.013485	0.343378	0.000041
1587	1.5781e+02	-16.8316	-96.372486	0.000223	2.229667	0.755432	0.000089
1588	1.5791e+02	-16.7867	-96.324040	0.000122	1.216182	0.412054	0.000049
1589	1.5801e+02	-16.7514	-96.219075	0.000264	2.635061	0.892783	0.000105
1590	1.5811e+02	-16.7113	-96.150443	0.000172	1.722925	0.583743	0.000069
1591	1.5821e+02	-16.6824	-96.041441	0.000274	2.736410	0.927121	0.000110
1592	1.5830e+02	-16.6311	-95.972809	0.000172	1.722925	0.583743	0.000069
1593	1.5840e+02	-16.5974	-95.908215	0.000162	1.621576	0.549405	0.000065
1594	1.5850e+02	-16.5461	-95.774990	0.000334	3.344501	1.133148	0.000134
1595	1.5860e+02	-16.5108	-95.665987	0.000274	2.736410	0.927121	0.000110
1596	1.5870e+02	-16.4835	-95.621579	0.000111	1.114834	0.377716	0.000045
1597	1.5880e+02	-16.4322	-95.520650	0.000253	2.533713	0.858445	0.000101
1598	1.5890e+02	-16.3921	-95.419722	0.000253	2.533713	0.858445	0.000101
1599	1.5900e+02	-16.3503	-95.330905	0.000223	2.229667	0.755432	0.000089
1600	1.5910e+02	-16.3038	-95.238051	0.000233	2.331016	0.789770	0.000093
1601	1.5920e+02	-16.2782	-95.161345	0.000193	1.925622	0.652418	0.000077
1602	1.5930e+02	-16.2332	-95.076565	0.000213	2.128319	0.721094	0.000085
1603	1.5940e+02	-16.1931	-94.979674	0.000243	2.432364	0.824107	0.000097
1604	1.5950e+02	-16.1610	-94.878746	0.000253	2.533713	0.858445	0.000101
1605	1.5960e+02	-16.1177	-94.793966	0.000213	2.128319	0.721094	0.000085
1606	1.5970e+02	-16.0744	-94.672852	0.000304	3.040456	1.030134	0.000122
1607	1.5980e+02	-16.0359	-94.616332	0.000142	1.418879	0.480729	0.000057
1608	1.5990e+02	-15.9958	-94.499255	0.000294	2.939107	0.995796	0.000118
1609	1.6000e+02	-15.9717	-94.406401	0.000233	2.331016	0.789770	0.000093
1610	1.6010e+02	-15.9076	-94.305472	0.000253	2.533713	0.858445	0.000101
1611	1.6019e+02	-15.8755	-94.208581	0.000243	2.432364	0.824107	0.000097
1612	1.6029e+02	-15.8386	-94.131875	0.000193	1.925622	0.652418	0.000077
1613	1.6039e+02	-15.8065	-94.022873	0.000274	2.736410	0.927121	0.000110
1614	1.6049e+02	-15.7552	-93.909833	0.000284	2.837758	0.961459	0.000114
1615	1.6059e+02	-15.7199	-93.845239	0.000162	1.621576	0.549405	0.000065
1616	1.6069e+02	-15.6862	-93.756422	0.000223	2.229667	0.755432	0.000089
1617	1.6079e+02	-15.6332	-93.623196	0.000334	3.344501	1.133148	0.000134
1618	1.6089e+02	-15.5883	-93.566676	0.000142	1.418879	0.480729	0.000057
1619	1.6099e+02	-15.5530	-93.421340	0.000365	3.648547	1.236161	0.000146
1620	1.6109e+02	-15.5193	-93.368857	0.000132	1.317531	0.446391	0.000053
1621	1.6119e+02	-15.4776	-93.239668	0.000324	3.243153	1.098810	0.000130
1622	1.6129e+02	-15.4504	-93.118554	0.000304	3.040456	1.030134	0.000122
1623	1.6139e+02	-15.4006	-93.037812	0.000203	2.026970	0.686756	0.000081
1624	1.6149e+02	-15.3605	-92.900549	0.000345	3.445850	1.167485	0.000138
1625	1.6159e+02	-15.3108	-92.844029	0.000142	1.418879	0.480729	0.000057
1626	1.6169e+02	-15.2851	-92.702729	0.000355	3.547198	1.201823	0.000142
1627	1.6179e+02	-15.2466	-92.626024	0.000193	1.925622	0.652418	0.000077
1628	1.6189e+02	-15.1969	-92.541244	0.000213	2.128319	0.721094	0.000085
1629	1.6199e+02	-15.1536	-92.399944	0.000355	3.547198	1.201823	0.000142
1630	1.6209e+02	-15.1167	-92.319201	0.000203	2.026970	0.686756	0.000081
1631	1.6219e+02	-15.0814	-92.254607	0.000162	1.621576	0.549405	0.000065
1632	1.6228e+02	-15.0317	-92.137530	0.000294	2.939107	0.995796	0.000118
1633	1.6238e+02	-14.9980	-91.996231	0.000355	3.547198	1.201823	0.000142
1634	1.6248e+02	-14.9563	-91.899339	0.000243	2.432364	0.824107	0.000097
1635	1.6258e+02	-14.9178	-91.782262	0.000294	2.939107	0.995796	0.000118
1636	1.6268e+02	-14.8728	-91.669223	0.000284	2.837758	0.961459	0.000114
1637	1.6278e+02	-14.8392	-91.584443	0.000213	2.128319	0.721094	0.000085
1638	1.6288e+02	-14.7974	-91.471403	0.000284	2.837758	0.961459	0.000114
1639	1.6298e+02	-14.7670	-91.358363	0.000284	2.837758	0.961459	0.000114
1640	1.6308e+02	-14.7188	-91.253398	0.000264	2.635061	0.892783	0.000105
1641	1.6318e+02	-14.6868	-91.120172	0.000334	3.344501	1.133148	0.000134
1642	1.6328e+02	-14.6402	-91.027318	0.000233	2.331016	0.789770	0.000093
1643	1.6338e+02	-14.5969	-90.966761	0.000152	1.520228	0.515067	0.000061
1644	1.6348e+02	-14.5648	-90.809313	0.000395	3.952592	1.339174	0.000158
1645	1.6358e+02	-14.5167	-90.684162	0.000314	3.141804	1.064472	0.000126
1646	1.6368e+02	-14.4750	-90.627642	0.000142	1.418879	0.480729	0.000057
1647	1.6378e+02	-14.4413	-90.494416	0.000334	3.344501	1.133148	0.000134
1648	1.6388e+02	-14.4060	-90.397525	0.000243	2.432364	0.824107	0.000097
1649	1.6398e+02	-14.3675	-90.320819	0.000193	1.925622	0.652418	0.000077
1650	1.6408e+02	-14.3210	-90.151260	0.000426	4.256638	1.442188	0.000170
1651	1.6418e+02	-14.2857	-90.026108	0.000314	3.141804	1.064472	0.000126
1652	1.6427e+02	-14.2392	-89.913069	0.000284	2.837758	0.961459	0.000114
1653	1.6437e+02	-14.2039	-89.840400	0.000182	1.824273	0.618081	0.000073
1654	1.6447e+02	-14.1622	-89.735435	0.000264	2.635061	0.892783	0.000105
1655	1.6457e+02	-14.1301	-89.598172	0.000345	3.445850	1.167485	0.000138
1656	1.6467e+02	-14.0787	-89.501281	0.000243	2.432364	0.824107	0.000097
1657	1.6477e+02	-14.0451	-89.380167	0.000304	3.040456	1.030134	0.000122
1658	1.6487e+02	-14.0050	-89.291350	0.000223	2.229667	0.755432	0.000089
1659	1.6497e+02	-13.9616	-89.158124	0.000334	3.344501	1.133148	0.000134
1660	1.6507e+02	-13.9183	-89.049122	0.000274	2.736410	0.927121	0.000110
1661	1.6517e+02	-13.8830	-88.952230	0.000243	2.432364	0.824107	0.000097
1662	1.6527e+02	-13.8493	-88.847265	0.000264	2.635061	0.892783	0.000105
1663	1.6537e+02	-13.7964	-88.730188	0.000294	2.939107	0.995796	0.000118
1664	1.6547e+02	-13.7707	-88.588888	0.000355	3.547198	1.201823	0.000142
1665	1.6557e+02	-13.7258	-88.483923	0.000264	2.635061	0.892783	0.000105
1666	1.6567e+02	-13.6873	-88.358771	0.000314	3.141804	1.064472	0.000126
1667	1.6577e+02	-13.6456	-88.282066	0.000193	1.925622	0.652418	0.000077
1668	1.6587e+02	-13.5959	-88.156915	0.000314	3.141804	1.064472	0.000126
1669	1.6597e+02	-13.5670	-88.011578	0.000365	3.648547	1.236161	0.000146
1670	1.6607e+02	-13.5189	-87.878352	0.000334	3.344501	1.133148	0.000134
1671	1.6616e+02	-13.4884	-87.777424	0.000253	2.533713	0.858445	0.000101
1672	1.6626e+02	-13.4419	-87.640161	0.000345	3.445850	1.167485	0.000138
1673	1.6636e+02	-13.4002	-87.531159	0.000274	2.736410	0.927121	0.000110
1674	1.6646e+02	-13.3649	-87.426193	0.000264	2.635061	0.892783	0.000105
1675	1.6656e+02	-13.3264	-87.329302	0.000243	2.432364	0.824107	0.000097
1676	1.6666e+02	-13.2750	-87.216262	0.000284	2.837758	0.961459	0.000114
1677	1.6676e+02	-13.2494	-87.107259	0.000274	2.736410	0.927121	0.000110
1678	1.6686e+02	-13.1948	-86.978071	0.000324	3.243153	1.098810	0.000130
1679	1.6696e+02	-13.1708	-86.856957	0.000304	3.040456	1.030134	0.000122
1680	1.6706e+02	-13.1226	-86.768140	0.000223	2.229667	0.755432	0.000089
1681	1.6716e+02	-13.0841	-86.598580	0.000426	4.256638	1.442188	0.000170
1682	1.6726e+02	-13.0536	-86.525912	0.000182	1.824273	0.618081	0.000073
1683	1.6736e+02	-12.9943	-86.372501	0.000385	3.851244	1.304837	0.000154
1684	1.6746e+02	-12.9718	-86.299832	0.000182	1.824273	0.618081	0.000073
1685	1.6756e+02	-12.9269	-86.158532	0.000355	3.547198	1.201823	0.000142
1686	1.6766e+02	-12.8932	-86.033381	0.000314	3.141804	1.064472	0.000126
1687	1.6776e+02	-12.8531	-85.940527	0.000233	2.331016	0.789770	0.000093
1688	1.6786e+02	-12.8114	-85.851710	0.000223	2.229667	0.755432	0.000089
1689	1.6796e+02	-12.7697	-85.710410	0.000355	3.547198	1.201823	0.000142
1690	1.6806e+02	-12.7248	-85.565073	0.000365	3.648547	1.236161	0.000146
1691	1.6816e+02	-12.6895	-85.464145	0.000253	2.533713	0.858445	0.000101
1692	1.6825e+02	-12.6590	-85.326882	0.000345	3.445850	1.167485	0.000138
1693	1.6835e+02	-12.6077	-85.201731	0.000314	3.141804	1.064472	0.000126
1694	1.6845e+02	-12.5788	-85.076580	0.000314	3.141804	1.064472	0.000126
1695	1.6855e+02	-12.5275	-84.987763	0.000223	2.229667	0.755432	0.000089
1696	1.6865e+02	-12.4890	-84.854538	0.000334	3.344501	1.133148	0.000134
1697	1.6875e+02	-12.4472	-84.737461	0.000294	2.939107	0.995796	0.000118
1698	1.6885e+02	-12.4136	-84.584049	0.000385	3.851244	1.304837	0.000154
1699	1.6895e+02	-12.3638	-84.491195	0.000233	2.331016	0.789770	0.000093
1700	1.6905e+02	-12.3333	-84.345858	0.000365	3.648547	1.236161	0.000146
1701	1.6915e+02	-12.2948	-84.196484	0.000375	3.749895	1.270499	0.000150
1702	1.6925e+02	-12.2499	-84.099593	0.000243	2.432364	0.824107	0.000097
1703	1.6935e+02	-12.2114	-84.002702	0.000243	2.432364	0.824107	0.000097
1704	1.6945e+02	-12.1793	-83.812956	0.000476	4.763380	1.613877	0.000191
1705	1.6955e+02	-12.1248	-83.699917	0.000284	2.837758	0.961459	0.000114
1706	1.6965e+02	-12.0863	-83.566691	0.000334	3.344501	1.133148	0.000134
1707	1.6975e+02	-12.0526	-83.489986	0.000193	1.925622	0.652418	0.000077
1708	1.6985e+02	-12.0125	-83.324463	0.000416	4.155289	1.407850	0.000166
1709	1.6995e+02	-11.9772	-83.211423	0.000284	2.837758	0.961459	0.000114
1710	1.7005e+02	-11.9403	-83.066086	0.000365	3.648547	1.236161	0.000146
1711	1.7015e+02	-11.8954	-82.981307	0.000213	2.128319	0.721094	0.000085
1712	1.7024e+02	-11.8601	-82.835970	0.000365	3.648547	1.236161	0.000146
1713	1.7034e+02	-11.8120	-82.747153	0.000223	2.229667	0.755432	0.000089
1714	1.7044e+02	-11.7783	-82.609890	0.000345	3.445850	1.167485	0.000138
1715	1.7054e+02	-11.7414	-82.472627	0.000345	3.445850	1.167485	0.000138
1716	1.7064e+02	-11.6981	-82.351513	0.000304	3.040456	1.030134	0.000122
1717	1.7074e+02	-11.6548	-82.210214	0.000355	3.547198	1.201823	0.000142
1718	1.7084e+02	-11.6162	-82.125434	0.000213	2.128319	0.721094	0.000085
1719	1.7094e+02	-11.5697	-81.955874	0.000426	4.256638	1.442188	0.000170
1720	1.7104e+02	-11.5376	-81.830723	0.000314	3.141804	1.064472	0.000126
1721	1.7114e+02	-11.4943	-81.713646	0.000294	2.939107	0.995796	0.000118
1722	1.7124e+02	-11.4526	-81.580420	0.000334	3.344501	1.133148	0.000134
1723	1.7134e+02	-11.4173	-81.483529	0.000243	2.432364	0.824107	0.000097
1724	1.7144e+02	-11.3772	-81.309932	0.000436	4.357986	1.476526	0.000174
1725	1.7154e+02	-11.3355	-81.209004	0.000253	2.533713	0.858445	0.000101
1726	1.7164e+02	-11.3002	-81.047519	0.000405	4.053941	1.373512	0.000162
1727	1.7174e+02	-11.2601	-80.906219	0.000355	3.547198	1.201823	0.000142
1728	1.7184e+02	-11.2120	-80.837587	0.000172	1.722925	0.583743	0.000069
1729	1.7194e+02	-11.1815	-80.720511	0.000294	2.939107	0.995796	0.000118
1730	1.7204e+02	-11.1366	-80.563062	0.000395	3.952592	1.339174	0.000158
1731	1.7213e+02	-11.0852	-80.381391	0.000456	4.560683	1.545201	0.000183
1732	1.7223e+02	-11.0564	-80.288537	0.000233	2.331016	0.789770	0.000093
1733	1.7233e+02	-11.0131	-80.131089	0.000395	3.952592	1.339174	0.000158
1734	1.7243e+02	-10.9746	-80.046309	0.000213	2.128319	0.721094	0.000085
1735	1.7253e+02	-10.9312	-79.900972	0.000365	3.648547	1.236161	0.000146
1736	1.7263e+02	-10.8927	-79.743524	0.000395	3.952592	1.339174	0.000158
1737	1.7273e+02	-10.8591	-79.678929	0.000162	1.621576	0.549405	0.000065
1738	1.7283e+02	-10.8173	-79.529555	0.000375	3.749895	1.270499	0.000150
1739	1.7293e+02	-10.7724	-79.416516	0.000284	2.837758	0.961459	0.000114
1740	1.7303e+02	-10.7339	-79.263105	0.000385	3.851244	1.304837	0.000154
1741	1.7313e+02	-10.7018	-79.146028	0.000294	2.939107	0.995796	0.000118
1742	1.7323e+02	-10.6617	-79.012802	0.000334	3.344501	1.133148	0.000134
1743	1.7333e+02	-10.6104	-78.875539	0.000345	3.445850	1.167485	0.000138
1744	1.7343e+02	-10.5735	-78.710017	0.000416	4.155289	1.407850	0.000166
1745	1.7353e+02	-10.5350	-78.596977	0.000284	2.837758	0.961459	0.000114
1746	1.7363e+02	-10.5077	-78.492012	0.000264	2.635061	0.892783	0.000105
1747	1.7373e+02	-10.4564	-78.338600	0.000385	3.851244	1.304837	0.000154
1748	1.7383e+02	-10.4163	-78.221523	0.000294	2.939107	0.995796	0.000118
1749	1.7393e+02	-10.3842	-78.084261	0.000345	3.445850	1.167485	0.000138
1750	1.7403e+02	-10.3345	-77.955073	0.000324	3.243153	1.098810	0.000130
1751	1.7413e+02	-10.2944	-77.821847	0.000334	3.344501	1.133148	0.000134
1752	1.7422e+02	-10.2623	-77.708807	0.000284	2.837758	0.961459	0.000114
1753	1.7432e+02	-10.2190	-77.551359	0.000395	3.952592	1.339174	0.000158
1754	1.7442e+02	-10.1773	-77.446393	0.000264	2.635061	0.892783	0.000105
1755	1.7452e+02	-10.1307	-77.288945	0.000395	3.952592	1.339174	0.000158
1756	1.7462e+02	-10.1051	-77.155720	0.000334	3.344501	1.133148	0.000134
1757	1.7472e+02	-10.0601	-76.986160	0.000426	4.256638	1.442188	0.000170
1758	1.7482e+02	-10.0104	-76.873120	0.000284	2.837758	0.961459	0.000114
1759	1.7492e+02	-9.9863	-76.739895	0.000334	3.344501	1.133148	0.000134
1760	1.7502e+02	-9.9286	-76.606669	0.000334	3.344501	1.133148	0.000134
1761	1.7512e+02	-9.8997	-76.497667	0.000274	2.736410	0.927121	0.000110
1762	1.7522e+02	-9.8596	-76.336181	0.000405	4.053941	1.373512	0.000162
1763	1.7532e+02	-9.8179	-76.186807	0.000375	3.749895	1.270499	0.000150
1764	1.7542e+02	-9.7810	-76.073767	0.000284	2.837758	0.961459	0.000114
1765	1.7552e+02	-9.7393	-75.948616	0.000314	3.141804	1.064472	0.000126
1766	1.7562e+02	-9.6848	-75.791168	0.000395	3.952592	1.339174	0.000158
1767	1.7572e+02	-9.6575	-75.637757	0.000385	3.851244	1.304837	0.000154
1768	1.7582e+02	-9.6286	-75.508568	0.000324	3.243153	1.098810	0.000130
1769	1.7592e+02	-9.5901	-75.367269	0.000355	3.547198	1.201823	0.000142
1770	1.7602e+02	-9.5404	-75.246154	0.000304	3.040456	1.030134	0.000122
1771	1.7612e+02	-9.5163	-75.129078	0.000294	2.939107	0.995796	0.000118
1772	1.7621e+02	-9.4666	-75.012001	0.000294	2.939107	0.995796	0.000118
1773	1.7631e+02	-9.4152	-74.842441	0.000426	4.256638	1.442188	0.000170
1774	1.7641e+02	-9.3832	-74.705178	0.000345	3.445850	1.167485	0.000138
1775	1.7651e+02	-9.3350	-74.592138	0.000284	2.837758	0.961459	0.000114
1776	1.7661e+02	-9.3029	-74.446802	0.000365	3.648547	1.236161	0.000146
1777	1.7671e+02	-9.2532	-74.313576	0.000334	3.344501	1.133148	0.000134
1778	1.7681e+02	-9.2211	-74.172276	0.000355	3.547198	1.201823	0.000142
1779	1.7691e+02	-9.1730	-74.014828	0.000395	3.952592	1.339174	0.000158
1780	1.7701e+02	-9.1409	-73.881603	0.000334	3.344501	1.133148	0.000134
1781	1.7711e+02	-9.1056	-73.756451	0.000314	3.141804	1.064472	0.000126
1782	1.7721e+02	-9.0591	-73.611114	0.000365	3.648547	1.236161	0.000146
1783	1.7731e+02	-9.0302	-73.506149	0.000264	2.635061	0.892783	0.000105
1784	1.7741e+02	-8.9853	-73.344664	0.000405	4.053941	1.373512	0.000162
1785	1.7751e+02	-8.9420	-73.227587	0.000294	2.939107	0.995796	0.000118
1786	1.7761e+02	-8.9019	-73.090324	0.000345	3.445850	1.167485	0.000138
1787	1.7771e+02	-8.8698	-72.965173	0.000314	3.141804	1.064472	0.000126
1788	1.7781e+02	-8.8265	-72.787539	0.000446	4.459335	1.510864	0.000179
1789	1.7791e+02	-8.7864	-72.642202	0.000365	3.648547	1.236161	0.000146
1790	1.7801e+02	-8.7447	-72.541274	0.000253	2.533713	0.858445	0.000101
1791	1.7810e+02	-8.7014	-72.399974	0.000355	3.547198	1.201823	0.000142
1792	1.7820e+02	-8.6709	-72.230414	0.000426	4.256638	1.442188	0.000170
1793	1.7830e+02	-8.6324	-72.081040	0.000375	3.749895	1.270499	0.000150
1794	1.7840e+02	-8.5859	-71.984149	0.000243	2.432364	0.824107	0.000097
1795	1.7850e+02	-8.5490	-71.854960	0.000324	3.243153	1.098810	0.000130
1796	1.7860e+02	-8.5072	-71.689438	0.000416	4.155289	1.407850	0.000166
1797	1.7870e+02	-8.4623	-71.568324	0.000304	3.040456	1.030134	0.000122
1798	1.7880e+02	-8.4367	-71.427024	0.000355	3.547198	1.201823	0.000142
1799	1.7890e+02	-8.3837	-71.297836	0.000324	3.243153	1.098810	0.000130
1800	1.7900e+02	-8.3532	-71.192870	0.000264	2.635061	0.892783	0.000105
1801	1.7910e+02	-8.3067	-70.995051	0.000497	4.966077	1.682553	0.000199
1802	1.7920e+02	-8.2666	-70.857788	0.000345	3.445850	1.167485	0.000138
1803	1.7930e+02	-8.2281	-70.760897	0.000243	2.432364	0.824107	0.000097
1804	1.7940e+02	-8.1864	-70.599411	0.000405	4.053941	1.373512	0.000162
1805	1.7950e+02	-8.1399	-70.498483	0.000253	2.533713	0.858445	0.000101
1806	1.7960e+02	-8.0998	-70.304700	0.000486	4.864729	1.648215	0.000195
1807	1.7970e+02	-8.0709	-70.171475	0.000334	3.344501	1.133148	0.000134
1808	1.7980e+02	-8.0228	-70.034212	0.000345	3.445850	1.167485	0.000138
1809	1.7990e+02	-7.9939	-69.884838	0.000375	3.749895	1.270499	0.000150
1810	1.8000e+02	-7.9458	-69.767761	0.000294	2.939107	0.995796	0.000118
1811	1.8009e+02	-7.9121	-69.618387	0.000375	3.749895	1.270499	0.000150
1812	1.8019e+02	-7.8688	-69.436716	0.000456	4.560683	1.545201	0.000183
1813	1.8029e+02	-7.8174	-69.295416	0.000355	3.547198	1.201823	0.000142
1814	1.8039e+02	-7.7837	-69.178339	0.000294	2.939107	0.995796	0.000118
1815	1.8049e+02	-7.7500	-69.012817	0.000416	4.155289	1.407850	0.000166
1816	1.8059e+02	-7.7067	-68.875554	0.000345	3.445850	1.167485	0.000138
1817	1.8069e+02	-7.6779	-68.714069	0.000405	4.053941	1.373512	0.000162
1818	1.8079e+02	-7.6313	-68.637363	0.000193	1.925622	0.652418	0.000077
1819	1.8089e+02	-7.5928	-68.431469	0.000517	5.168774	1.751228	0.000207
1820	1.8099e+02	-7.5495	-68.310355	0.000304	3.040456	1.030134	0.000122
1821	1.8109e+02	-7.5014	-68.152907	0.000395	3.952592	1.339174	0.000158
1822	1.8119e+02	-7.4693	-68.015644	0.000345	3.445850	1.167485	0.000138
1823	1.8129e+02	-7.4292	-67.858196	0.000395	3.952592	1.339174	0.000158
1824	1.8139e+02	-7.3859	-67.741119	0.000294	2.939107	0.995796	0.000118
1825	1.8149e+02	-7.3490	-67.587708	0.000385	3.851244	1.304837	0.000154
1826	1.8159e+02	-7.3073	-67.430260	0.000395	3.952592	1.339174	0.000158
1827	1.8169e+02	-7.2736	-67.297034	0.000334	3.344501	1.133148	0.000134
1828	1.8179e+02	-7.2255	-67.151697	0.000365	3.648547	1.236161	0.000146
1829	1.8189e+02	-7.1966	-67.046732	0.000264	2.635061	0.892783	0.000105
1830	1.8199e+02	-7.1517	-66.852949	0.000486	4.864729	1.648215	0.000195
1831	1.8209e+02	-7.1100	-66.719724	0.000334	3.344501	1.133148	0.000134
1832	1.8218e+02	-7.0682	-66.574387	0.000365	3.648547	1.236161	0.000146
1833	1.8228e+02	-7.0281	-66.416939	0.000395	3.952592	1.339174	0.000158
1834	1.8238e+02	-6.9912	-66.295825	0.000304	3.040456	1.030134	0.000122
1835	1.8248e+02	-6.9447	-66.142413	0.000385	3.851244	1.304837	0.000154
1836	1.8258e+02	-6.9175	-65.960742	0.000456	4.560683	1.545201	0.000183
1837	1.8268e+02	-6.8725	-65.855777	0.000264	2.635061	0.892783	0.000105
1838	1.8278e+02	-6.8356	-65.674106	0.000456	4.560683	1.545201	0.000183
1839	1.8288e+02	-6.7891	-65.528769	0.000365	3.648547	1.236161	0.000146
1840	1.8298e+02	-6.7474	-65.391506	0.000345	3.445850	1.167485	0.000138
1841	1.8308e+02	-6.7169	-65.274429	0.000294	2.939107	0.995796	0.000118
1842	1.8318e+02	-6.6784	-65.141204	0.000334	3.344501	1.133148	0.000134
1843	1.8328e+02	-6.6303	-64.971644	0.000426	4.256638	1.442188	0.000170
1844	1.8338e+02	-6.5918	-64.834381	0.000345	3.445850	1.167485	0.000138
1845	1.8348e+02	-6.5485	-64.644636	0.000476	4.763380	1.613877	0.000191
1846	1.8358e+02	-6.5020	-64.535633	0.000274	2.736410	0.927121	0.000110
1847	1.8368e+02	-6.4699	-64.374148	0.000405	4.053941	1.373512	0.000162
1848	1.8378e+02	-6.4426	-64.244960	0.000324	3.243153	1.098810	0.000130
1849	1.8388e+02	-6.3961	-64.051177	0.000486	4.864729	1.648215	0.000195
1850	1.8398e+02	-6.3576	-63.946212	0.000264	2.635061	0.892783	0.000105
1851	1.8407e+02	-6.3159	-63.776652	0.000426	4.256638	1.442188	0.000170
1852	1.8417e+02	-6.2742	-63.639389	0.000345	3.445850	1.167485	0.000138
1853	1.8427e+02	-6.2292	-63.546535	0.000233	2.331016	0.789770	0.000093
1854	1.8437e+02	-6.1988	-63.360827	0.000466	4.662032	1.579539	0.000187
1855	1.8447e+02	-6.1522	-63.239713	0.000304	3.040456	1.030134	0.000122
1856	1.8457e+02	-6.1185	-63.070153	0.000426	4.256638	1.442188	0.000170
1857	1.8467e+02	-6.0849	-62.936928	0.000334	3.344501	1.133148	0.000134
1858	1.8477e+02	-6.0415	-62.759294	0.000446	4.459335	1.510864	0.000179
1859	1.8487e+02	-6.0014	-62.605882	0.000385	3.851244	1.304837	0.000154
1860	1.8497e+02	-5.9565	-62.436323	0.000426	4.256638	1.442188	0.000170
1861	1.8507e+02	-5.9132	-62.295023	0.000355	3.547198	1.201823	0.000142
1862	1.8517e+02	-5.8795	-62.137575	0.000395	3.952592	1.339174	0.000158
1863	1.8527e+02	-5.8426	-61.968015	0.000426	4.256638	1.442188	0.000170
1864	1.8537e+02	-5.7977	-61.838827	0.000324	3.243153	1.098810	0.000130
1865	1.8547e+02	-5.7624	-61.649081	0.000476	4.763380	1.613877	0.000191
1866	1.8557e+02	-5.7175	-61.568339	0.000203	2.026970	0.686756	0.000081
1867	1.8567e+02	-5.6806	-61.358408	0.000527	5.270123	1.785566	0.000211
1868	1.8577e+02	-5.6325	-61.241331	0.000294	2.939107	0.995796	0.000118
1869	1.8587e+02	-5.5924	-61.071771	0.000426	4.256638	1.442188	0.000170
1870	1.8597e+02	-5.5555	-60.910285	0.000405	4.053941	1.373512	0.000162
1871	1.8606e+02	-5.5154	-60.748800	0.000405	4.053941	1.373512	0.000162
1872	1.8616e+02	-5.4849	-60.603463	0.000365	3.648547	1.236161	0.000146
1873	1.8626e+02	-5.4480	-60.458126	0.000365	3.648547	1.236161	0.000146
1874	1.8636e+02	-5.4031	-60.284529	0.000436	4.357986	1.476526	0.000174
1875	1.8646e+02	-5.3581	-60.139193	0.000365	3.648547	1.236161	0.000146
1876	1.8656e+02	-5.3084	-60.001930	0.000345	3.445850	1.167485	0.000138
1877	1.8666e+02	-5.2827	-59.812185	0.000476	4.763380	1.613877	0.000191
1878	1.8676e+02	-5.2426	-59.662811	0.000375	3.749895	1.270499	0.000150
1879	1.8686e+02	-5.2009	-59.513436	0.000375	3.749895	1.270499	0.000150
1880	1.8696e+02	-5.1512	-59.372137	0.000355	3.547198	1.201823	0.000142
1881	1.8706e+02	-5.1191	-59.206614	0.000416	4.155289	1.407850	0.000166
1882	1.8716e+02	-5.0806	-59.057240	0.000375	3.749895	1.270499	0.000150
1883	1.8726e+02	-5.0325	-58.887680	0.000426	4.256638	1.442188	0.000170
1884	1.8736e+02	-5.0004	-58.738306	0.000375	3.749895	1.270499	0.000150
1885	1.8746e+02	-4.9539	-58.560672	0.000446	4.459335	1.510864	0.000179
1886	1.8756e+02	-4.9122	-58.439558	0.000304	3.040456	1.030134	0.000122
1887	1.8766e+02	-4.8817	-58.261924	0.000446	4.459335	1.510864	0.000179
1888	1.8776e+02	-4.8416	-58.169070	0.000233	2.331016	0.789770	0.000093
1889	1.8786e+02	-4.8095	-57.959139	0.000527	5.270123	1.785566	0.000211
1890	1.8796e+02	-4.7694	-57.809765	0.000375	3.749895	1.270499	0.000150
1891	1.8806e+02	-4.7309	-57.636168	0.000436	4.357986	1.476526	0.000174
1892	1.8815e+02	-4.6844	-57.454497	0.000456	4.560683	1.545201	0.000183
1893	1.8825e+02	-4.6378	-57.321272	0.000334	3.344501	1.133148	0.000134
1894	1.8835e+02	-4.6009	-57.159786	0.000405	4.053941	1.373512	0.000162
1895	1.8845e+02	-4.5640	-56.994264	0.000416	4.155289	1.407850	0.000166
1896	1.8855e+02	-4.5191	-56.820667	0.000436	4.357986	1.476526	0.000174
1897	1.8865e+02	-4.4758	-56.687441	0.000334	3.344501	1.133148	0.000134
1898	1.8875e+02	-4.4566	-56.554216	0.000334	3.344501	1.133148	0.000134
1899	1.8885e+02	-4.4116	-56.425028	0.000324	3.243153	1.098810	0.000130
1900	1.8895e+02	-4.3667	-56.235282	0.000476	4.763380	1.613877	0.000191
1901	1.8905e+02	-4.3234	-56.041500	0.000486	4.864729	1.648215	0.000195
1902	1.8915e+02	-4.2833	-55.928460	0.000284	2.837758	0.961459	0.000114
1903	1.8925e+02	-4.2400	-55.754863	0.000436	4.357986	1.476526	0.000174
1904	1.8935e+02	-4.2111	-55.633749	0.000304	3.040456	1.030134	0.000122
1905	1.8945e+02	-4.1662	-55.448041	0.000466	4.662032	1.579539	0.000187
1906	1.8955e+02	-4.1261	-55.278481	0.000426	4.256638	1.442188	0.000170
1907	1.8965e+02	-4.0828	-55.129107	0.000375	3.749895	1.270499	0.000150
1908	1.8975e+02	-4.0475	-54.959547	0.000426	4.256638	1.442188	0.000170
1909	1.8985e+02	-4.0090	-54.785951	0.000436	4.357986	1.476526	0.000174
1910	1.8995e+02	-3.9705	-54.620428	0.000416	4.155289	1.407850	0.000166
1911	1.9004e+02	-3.9240	-54.442794	0.000446	4.459335	1.510864	0.000179
1912	1.9014e+02	-3.8758	-54.285346	0.000395	3.952592	1.339174	0.000158
1913	1.9024e+02	-3.8486	-54.180380	0.000264	2.635061	0.892783	0.000105
1914	1.9034e+02	-3.8004	-53.994672	0.000466	4.662032	1.579539	0.000187
1915	1.9044e+02	-3.7699	-53.841261	0.000385	3.851244	1.304837	0.000154
1916	1.9054e+02	-3.7314	-53.655553	0.000466	4.662032	1.579539	0.000187
1917	1.9064e+02	-3.6817	-53.518290	0.000345	3.445850	1.167485	0.000138
1918	1.9074e+02	-3.6496	-53.376990	0.000355	3.547198	1.201823	0.000142
1919	1.9084e+02	-3.6127	-53.207430	0.000426	4.256638	1.442188	0.000170
1920	1.9094e+02	-3.5678	-53.045945	0.000405	4.053941	1.373512	0.000162
1921	1.9104e+02	-3.5229	-52.844088	0.000507	5.067426	1.716890	0.000203
1922	1.9114e+02	-3.4860	-52.735086	0.000274	2.736410	0.927121	0.000110
1923	1.9124e+02	-3.4475	-52.521117	0.000537	5.371471	1.819904	0.000215
1924	1.9134e+02	-3.4218	-52.400003	0.000304	3.040456	1.030134	0.000122
1925	1.9144e+02	-3.3625	-52.238518	0.000405	4.053941	1.373512	0.000162
1926	1.9154e+02	-3.3256	-52.105292	0.000334	3.344501	1.133148	0.000134
1927	1.9164e+02	-3.2823	-51.903436	0.000507	5.067426	1.716890	0.000203
1928	1.9174e+02	-3.2534	-51.750024	0.000385	3.851244	1.304837	0.000154
1929	1.9184e+02	-3.2053	-51.564316	0.000466	4.662032	1.579539	0.000187
1930	1.9194e+02	-3.1812	-51.370534	0.000486	4.864729	1.648215	0.000195
1931	1.9203e+02	-3.1379	-51.225197	0.000365	3.648547	1.236161	0.000146
1932	1.9213e+02	-3.0865	-51.055637	0.000426	4.256638	1.442188	0.000170
1933	1.9223e+02	-3.0496	-50.918374	0.000345	3.445850	1.167485	0.000138
1934	1.9233e+02	-3.0047	-50.748815	0.000426	4.256638	1.442188	0.000170
1935	1.9243e+02	-2.9726	-50.599441	0.000375	3.749895	1.270499	0.000150
1936	1.9253e+02	-2.9293	-50.437955	0.000405	4.053941	1.373512	0.000162
1937	1.9263e+02	-2.8860	-50.240136	0.000497	4.966077	1.682553	0.000199
1938	1.9273e+02	-2.8459	-50.078650	0.000405	4.053941	1.373512	0.000162
1939	1.9283e+02	-2.8090	-49.892942	0.000466	4.662032	1.579539	0.000187
1940	1.9293e+02	-2.7737	-49.771828	0.000304	3.040456	1.030134	0.000122
1941	1.9303e+02	-2.7256	-49.622454	0.000375	3.749895	1.270499	0.000150
1942	1.9313e+02	-2.6935	-49.456931	0.000416	4.155289	1.407850	0.000166
1943	1.9323e+02	-2.6534	-49.267186	0.000476	4.763380	1.613877	0.000191
1944	1.9333e+02	-2.6165	-49.085515	0.000456	4.560683	1.545201	0.000183
1945	1.9343e+02	-2.5652	-48.944215	0.000355	3.547198	1.201823	0.000142
1946	1.9353e+02	-2.5347	-48.742358	0.000507	5.067426	1.716890	0.000203
1947	1.9363e+02	-2.4834	-48.633356	0.000274	2.736410	0.927121	0.000110
1948	1.9373e+02	-2.4513	-48.488019	0.000365	3.648547	1.236161	0.000146
1949	1.9383e+02	-2.4128	-48.326533	0.000405	4.053941	1.373512	0.000162
1950	1.9393e+02	-2.3711	-48.112565	0.000537	5.371471	1.819904	0.000215
1951	1.9403e+02	-2.3342	-47.983377	0.000324	3.243153	1.098810	0.000130
1952	1.9412e+02	-2.2828	-47.789594	0.000486	4.864729	1.648215	0.000195
1953	1.9422e+02	-2.2507	-47.644257	0.000365	3.648547	1.236161	0.000146
1954	1.9432e+02	-2.2090	-47.438363	0.000517	5.168774	1.751228	0.000207
1955	1.9442e+02	-2.1657	-47.325324	0.000284	2.837758	0.961459	0.000114
1956	1.9452e+02	-2.1224	-47.135578	0.000476	4.763380	1.613877	0.000191
1957	1.9462e+02	-2.0935	-46.986204	0.000375	3.749895	1.270499	0.000150
1958	1.9472e+02	-2.0614	-46.812607	0.000436	4.357986	1.476526	0.000174
1959	1.9482e+02	-2.0005	-46.683419	0.000324	3.243153	1.098810	0.000130
1960	1.9492e+02	-1.9732	-46.465414	0.000547	5.472820	1.854242	0.000219
1961	1.9502e+02	-1.9251	-46.352374	0.000284	2.837758	0.961459	0.000114
1962	1.9512e+02	-1.8898	-46.178777	0.000436	4.357986	1.476526	0.000174
1963	1.9522e+02	-1.8561	-46.005180	0.000436	4.357986	1.476526	0.000174
1964	1.9532e+02	-1.8096	-45.851769	0.000385	3.851244	1.304837	0.000154
1965	1.9542e+02	-1.7727	-45.662024	0.000476	4.763380	1.613877	0.000191
1966	1.9552e+02	-1.7310	-45.484390	0.000446	4.459335	1.510864	0.000179
1967	1.9562e+02	-1.7021	-45.343090	0.000355	3.547198	1.201823	0.000142
1968	1.9572e+02	-1.6524	-45.173530	0.000426	4.256638	1.442188	0.000170
1969	1.9582e+02	-1.6106	-45.012045	0.000405	4.053941	1.373512	0.000162
1970	1.9592e+02	-1.5770	-44.846522	0.000416	4.155289	1.407850	0.000166
1971	1.9601e+02	-1.5433	-44.624480	0.000557	5.574168	1.888579	0.000223
1972	1.9611e+02	-1.4823	-44.515477	0.000274	2.736410	0.927121	0.000110
1973	1.9621e+02	-1.4534	-44.313620	0.000507	5.067426	1.716890	0.000203
1974	1.9631e+02	-1.4165	-44.176358	0.000345	3.445850	1.167485	0.000138
1975	1.9641e+02	-1.3716	-44.039095	0.000345	3.445850	1.167485	0.000138
1976	1.9651e+02	-1.3331	-43.837238	0.000507	5.067426	1.716890	0.000203
1977	1.9661e+02	-1.2898	-43.724199	0.000284	2.837758	0.961459	0.000114
1978	1.9671e+02	-1.2577	-43.494082	0.000578	5.776865	1.957255	0.000231
1979	1.9681e+02	-1.2192	-43.316448	0.000446	4.459335	1.510864	0.000179
1980	1.9691e+02	-1.1743	-43.154962	0.000405	4.053941	1.373512	0.000162
1981	1.9701e+02	-1.1374	-42.977328	0.000446	4.459335	1.510864	0.000179
1982	1.9711e+02	-1.0941	-42.815843	0.000405	4.053941	1.373512	0.000162
1983	1.9721e+02	-1.0572	-42.674543	0.000355	3.547198	1.201823	0.000142
1984	1.9731e+02	-1.0107	-42.468649	0.000517	5.168774	1.751228	0.000207
1985	1.9741e+02	-0.9738	-42.299090	0.000426	4.256638	1.442188	0.000170
1986	1.9751e+02	-0.9289	-42.141641	0.000395	3.952592	1.339174	0.000158
1987	1.9761e+02	-0.8920	-41.976119	0.000416	4.155289	1.407850	0.000166
1988	1.9771e+02	-0.8631	-41.826745	0.000375	3.749895	1.270499	0.000150
1989	1.9781e+02	-0.8182	-41.628925	0.000497	4.966077	1.682553	0.000199
1990	1.9791e+02	-0.7861	-41.487625	0.000355	3.547198	1.201823	0.000142
1991	1.9800e+02	-0.7315	-41.301917	0.000466	4.662032	1.579539	0.000187
1992	1.9810e+02	-0.6978	-41.144469	0.000395	3.952592	1.339174	0.000158
1993	1.9820e+02	-0.6609	-40.942612	0.000507	5.067426	1.716890	0.000203
1994	1.9830e+02	-0.6112	-40.801312	0.000355	3.547198	1.201823	0.000142
1995	1.9840e+02	-0.5727	-40.635790	0.000416	4.155289	1.407850	0.000166
1996	1.9850e+02	-0.5422	-40.466230	0.000426	4.256638	1.442188	0.000170
1997	1.9860e+02	-0.4941	-40.308782	0.000395	3.952592	1.339174	0.000158
1998	1.9870e+02	-0.4572	-40.147296	0.000405	4.053941	1.373512	0.000162
1999	1.9880e+02	-0.4235	-39.945440	0.000507	5.067426	1.716890	0.000203
2000	1.9890e+02	-0.3786	-39.792028	0.000385	3.851244	1.304837	0.000154
2001	1.9900e+02	-0.3353	-39.606320	0.000466	4.662032	1.579539	0.000187
2002	1.9910e+02	-0.2872	-39.436760	0.000426	4.256638	1.442188	0.000170
2003	1.9920e+02	-0.2647	-39.259126	0.000446	4.459335	1.510864	0.000179
2004	1.9930e+02	-0.2278	-39.069381	0.000476	4.763380	1.613877	0.000191
2005	1.9940e+02	-0.1813	-38.944230	0.000314	3.141804	1.064472	0.000126
2006	1.9950e+02	-0.1364	-38.766596	0.000446	4.459335	1.510864	0.000179
2007	1.9960e+02	-0.0995	-38.584925	0.000456	4.560683	1.545201	0.000183
2008	1.9970e+02	-0.0642	-38.411328	0.000436	4.357986	1.476526	0.000174
2009	1.9980e+02	-0.0176	-38.221583	0.000436	4.357986	1.476526	0.000191

PMax (uC/cm2):	8.29e+01
Pr (uC/cm2):	7.33e+00
-Pr (uC/cm2):	-5.32e+01
PLoss (uC/cm2):	-5.32e+01
-Vc:	-1.67e+00
C (Max-Eff) (nF):	4.15e-01
K (Eff):	1.41e+03
Vert. (+/-Pr) Shift (uC/cm2):	-2.30e+01
Offset (uC/cm2):	-1.50e+01

A (Loop Area - uC/cm2·Volts):	4.12e-02



Hysteresis Version: 5.48.1 - Radiant Technologies, Inc., 1999 - 9/12/24

