»»»»»»»»»»»»»»»»»»»»»»»»»»»»»»»»»»»» Hysteresis ««««««««««««««««««««««««««««««««««««
»»»  Executed Version:	5.48.1
»»»  Vision Version:	5.48.4 (R)
»»»  Vision Compiled:	9/18/24
»»»  Driver Version:	5.47.0
»»»  Windows Version:	Windows 8 or 8.1
»»»  Processor Information:	x86 (AMD or Intel) - 32 Processors
»»»  Tester Name:	PMF21124-494 (100V)
»»»  Tester S/N:	PMF21124-494
»»»  Internal Amp Type:	100V RevK 270k
»»»  Internal Amp S/N:	iAB2-596/K     
»»»  Execution Count:	1
»»»»»»»»»»»»»»»»»»»»»»»»»»»»»»»»»»»»»»»»»»««««««««««««««««««««««««««««««««««««««««««

Stored:	6/18/2025 - 10:25:49
Configured:	06/18/25 09:47:30 AM
Executed:	06/18/25 10:25:05 AM

»»»»»»»»»»»»»»»»»»»»»»»»»»»»»»»»»»» Sample Info ««««««««««««««««««««««««««««««««««««
Sample Name:	
Lot Name:	
Wafer Name:	
Die Row/Column:	0/0
Capacitor Number:	0
Sample Area (cm2):	1.00e-04
Sample Thickness (microns):	3.00e-01

Amplifier:	Internal

»»»»»»»»»»»»»»»»»»»»»»»»»»»»»»»»»»» Tester Info «««««««««««««««««««««««««««««««««««
Tester Name:	PMF21124-494 (100V)
Tester Serial Number:	PMF21124-494
Return Signal Amp. Level:	0.19 [Index: 3]

»»»»»»»»»»»»»»»»»»»»»»»»»»»»»»»» Hysteresis Info ««««««««««««««««««««««««««««««««««
Task Name:	Hyst-554
Volts:	20.00
Field:	666.67 (kV/cm)
DCBias:	0.00
DCField:	0.00 (kV/cm)
Hysteresis Period (ms):	2.00e+02
Preset:	Enabled
Preset Delay (ms):	1.00e+03
Profile:	Standard Bipolar

»»»»»»»»»»»»»»»»»»»»»»»»»»»»»»»»»»»»»» Data «««««««««««««««««««««««««««««««««««««««
Points:	2009

Valid Data

Point	Time (ms)	Drive Voltage	Measured Polarization (uC/cm2)	Capacitance (uF)	Normalized Capacitance (uF/cm2)	Dielectric Constant	Instantaneous Current (mA)
   1	0.0000e+00	-0.0032	-42.452501	0.000365	3.648400	1.236111	0.000146
   2	9.9500e-02	0.0353	-42.307164	0.000365	3.648400	1.236111	0.000146
   3	1.9900e-01	0.0754	-42.182013	0.000314	3.141678	1.064429	0.000126
   4	2.9850e-01	0.0979	-42.028602	0.000385	3.851089	1.304784	0.000154
   5	3.9800e-01	0.1508	-41.911525	0.000294	2.938989	0.995756	0.000118
   6	4.9750e-01	0.1877	-41.774262	0.000345	3.445711	1.167439	0.000138
   7	5.9700e-01	0.2326	-41.641037	0.000334	3.344367	1.133102	0.000134
   8	6.9650e-01	0.2551	-41.451291	0.000476	4.763189	1.613812	0.000191
   9	7.9600e-01	0.3112	-41.330177	0.000304	3.040334	1.030093	0.000122
  10	8.9550e-01	0.3497	-41.205026	0.000314	3.141678	1.064429	0.000126
  11	9.9500e-01	0.3834	-41.047578	0.000395	3.952434	1.339121	0.000158
  12	1.0945e+00	0.4283	-40.926464	0.000304	3.040334	1.030093	0.000122
  13	1.1940e+00	0.4749	-40.756904	0.000426	4.256467	1.442130	0.000170
  14	1.2935e+00	0.4989	-40.599456	0.000395	3.952434	1.339121	0.000158
  15	1.3930e+00	0.5438	-40.474304	0.000314	3.141678	1.064429	0.000126
  16	1.4925e+00	0.5904	-40.304745	0.000426	4.256467	1.442130	0.000170
  17	1.5920e+00	0.6273	-40.147296	0.000395	3.952434	1.339121	0.000158
  18	1.6915e+00	0.6674	-40.026182	0.000304	3.040334	1.030093	0.000122
  19	1.7910e+00	0.7075	-39.929291	0.000243	2.432267	0.824074	0.000097
  20	1.8905e+00	0.7428	-39.735509	0.000486	4.864534	1.648149	0.000195
  21	1.9900e+00	0.7845	-39.586134	0.000375	3.749745	1.270448	0.000150
  22	2.0895e+00	0.8278	-39.432723	0.000385	3.851089	1.304784	0.000154
  23	2.1890e+00	0.8679	-39.287386	0.000365	3.648400	1.236111	0.000146
  24	2.2885e+00	0.8968	-39.166272	0.000304	3.040334	1.030093	0.000122
  25	2.3880e+00	0.9481	-38.972490	0.000486	4.864534	1.648149	0.000195
  26	2.4875e+00	0.9866	-38.851376	0.000304	3.040334	1.030093	0.000122
  27	2.5870e+00	1.0203	-38.661630	0.000476	4.763189	1.613812	0.000191
  28	2.6865e+00	1.0604	-38.524368	0.000345	3.445711	1.167439	0.000138
  29	2.7860e+00	1.1021	-38.419402	0.000263	2.634956	0.892747	0.000105
  30	2.8855e+00	1.1390	-38.209471	0.000527	5.269911	1.785494	0.000211
  31	2.9850e+00	1.1839	-38.047986	0.000405	4.053778	1.373457	0.000162
  32	3.0845e+00	1.2208	-37.910723	0.000345	3.445711	1.167439	0.000138
  33	3.1840e+00	1.2706	-37.761349	0.000375	3.749745	1.270448	0.000150
  34	3.2835e+00	1.3074	-37.636198	0.000314	3.141678	1.064429	0.000126
  35	3.3830e+00	1.3460	-37.462601	0.000436	4.357811	1.476466	0.000174
  36	3.4825e+00	1.3828	-37.325338	0.000345	3.445711	1.167439	0.000138
  37	3.5820e+00	1.4230	-37.139630	0.000466	4.661845	1.579476	0.000187
  38	3.6815e+00	1.4534	-37.010442	0.000324	3.243022	1.098766	0.000130
  39	3.7810e+00	1.5000	-36.840882	0.000426	4.256467	1.442130	0.000170
  40	3.8805e+00	1.5497	-36.748028	0.000233	2.330922	0.789738	0.000093
  41	3.9800e+00	1.5802	-36.562320	0.000466	4.661845	1.579476	0.000187
  42	4.0795e+00	1.6251	-36.408909	0.000385	3.851089	1.304784	0.000154
  43	4.1790e+00	1.6684	-36.227238	0.000456	4.560500	1.545139	0.000183
  44	4.2785e+00	1.7021	-36.073826	0.000385	3.851089	1.304784	0.000154
  45	4.3780e+00	1.7406	-35.940601	0.000334	3.344367	1.133102	0.000134
  46	4.4775e+00	1.7807	-35.779115	0.000405	4.053778	1.373457	0.000162
  47	4.5770e+00	1.8192	-35.662039	0.000294	2.938989	0.995756	0.000118
  48	4.6765e+00	1.8577	-35.484405	0.000446	4.459156	1.510803	0.000179
  49	4.7760e+00	1.8946	-35.347142	0.000345	3.445711	1.167439	0.000138
  50	4.8755e+00	1.9459	-35.189694	0.000395	3.952434	1.339121	0.000158
  51	4.9750e+00	1.9796	-35.012060	0.000446	4.459156	1.510803	0.000179
  52	5.0745e+00	2.0197	-34.874797	0.000345	3.445711	1.167439	0.000138
  53	5.1740e+00	2.0614	-34.709275	0.000416	4.155123	1.407794	0.000166
  54	5.2735e+00	2.1112	-34.608346	0.000253	2.533611	0.858411	0.000101
  55	5.3730e+00	2.1384	-34.386304	0.000557	5.573945	1.888504	0.000223
  56	5.4725e+00	2.1769	-34.277301	0.000274	2.736300	0.927084	0.000110
  57	5.5720e+00	2.2283	-34.083518	0.000486	4.864534	1.648149	0.000195
  58	5.6715e+00	2.2636	-33.950293	0.000334	3.344367	1.133102	0.000134
  59	5.7710e+00	2.2941	-33.821105	0.000324	3.243022	1.098766	0.000130
  60	5.8705e+00	2.3374	-33.562728	0.000649	6.486045	2.197532	0.000260
  61	5.9700e+00	2.3759	-33.490060	0.000182	1.824200	0.618056	0.000073
  62	6.0695e+00	2.4192	-33.288203	0.000507	5.067223	1.716821	0.000203
  63	6.1690e+00	2.4609	-33.142866	0.000365	3.648400	1.236111	0.000146
  64	6.2685e+00	2.4946	-32.997529	0.000365	3.648400	1.236111	0.000146
  65	6.3680e+00	2.5427	-32.815858	0.000456	4.560500	1.545139	0.000183
  66	6.4675e+00	2.5748	-32.658410	0.000395	3.952434	1.339121	0.000158
  67	6.5670e+00	2.6101	-32.472701	0.000466	4.661845	1.579476	0.000187
  68	6.6665e+00	2.6550	-32.339476	0.000334	3.344367	1.133102	0.000134
  69	6.7660e+00	2.6967	-32.214325	0.000314	3.141678	1.064429	0.000126
  70	6.8655e+00	2.7400	-32.032654	0.000456	4.560500	1.545139	0.000183
  71	6.9650e+00	2.7705	-31.887317	0.000365	3.648400	1.236111	0.000146
  72	7.0645e+00	2.8186	-31.709683	0.000446	4.459156	1.510803	0.000179
  73	7.1640e+00	2.8539	-31.560309	0.000375	3.749745	1.270448	0.000150
  74	7.2635e+00	2.9053	-31.374600	0.000466	4.661845	1.579476	0.000187
  75	7.3630e+00	2.9357	-31.245412	0.000324	3.243022	1.098766	0.000130
  76	7.4625e+00	2.9791	-31.035481	0.000527	5.269911	1.785494	0.000211
  77	7.5620e+00	3.0144	-30.910330	0.000314	3.141678	1.064429	0.000126
  78	7.6615e+00	3.0593	-30.724622	0.000466	4.661845	1.579476	0.000187
  79	7.7610e+00	3.0962	-30.579285	0.000365	3.648400	1.236111	0.000146
  80	7.8605e+00	3.1395	-30.429911	0.000375	3.749745	1.270448	0.000150
  81	7.9600e+00	3.1716	-30.268425	0.000405	4.053778	1.373457	0.000162
  82	8.0595e+00	3.2117	-30.102903	0.000416	4.155123	1.407794	0.000166
  83	8.1590e+00	3.2582	-29.949491	0.000385	3.851089	1.304784	0.000154
  84	8.2585e+00	3.2935	-29.759746	0.000476	4.763189	1.613812	0.000191
  85	8.3580e+00	3.3416	-29.614409	0.000365	3.648400	1.236111	0.000146
  86	8.4575e+00	3.3705	-29.469072	0.000365	3.648400	1.236111	0.000146
  87	8.5570e+00	3.4138	-29.299513	0.000426	4.256467	1.442130	0.000170
  88	8.6565e+00	3.4587	-29.158213	0.000355	3.547056	1.201775	0.000142
  89	8.7560e+00	3.4876	-28.960393	0.000497	4.965878	1.682485	0.000199
  90	8.8555e+00	3.5373	-28.831205	0.000324	3.243022	1.098766	0.000130
  91	8.9550e+00	3.5710	-28.657608	0.000436	4.357811	1.476466	0.000174
  92	9.0545e+00	3.6159	-28.463826	0.000486	4.864534	1.648149	0.000195
  93	9.1540e+00	3.6577	-28.322526	0.000355	3.547056	1.201775	0.000142
  94	9.2535e+00	3.6913	-28.189300	0.000334	3.344367	1.133102	0.000134
  95	9.3530e+00	3.7347	-27.975332	0.000537	5.371256	1.819831	0.000215
  96	9.4525e+00	3.7748	-27.850181	0.000314	3.141678	1.064429	0.000126
  97	9.5520e+00	3.8165	-27.680621	0.000426	4.256467	1.442130	0.000170
  98	9.6515e+00	3.8582	-27.502987	0.000446	4.459156	1.510803	0.000179
  99	9.7510e+00	3.8983	-27.373799	0.000324	3.243022	1.098766	0.000130
 100	9.8505e+00	3.9240	-27.204239	0.000426	4.256467	1.442130	0.000170
 101	9.9500e+00	3.9737	-27.046791	0.000395	3.952434	1.339121	0.000158
 102	1.0050e+01	4.0170	-26.816674	0.000578	5.776634	1.957176	0.000231
 103	1.0149e+01	4.0587	-26.687486	0.000324	3.243022	1.098766	0.000130
 104	1.0248e+01	4.0956	-26.578483	0.000274	2.736300	0.927084	0.000110
 105	1.0348e+01	4.1293	-26.368552	0.000527	5.269911	1.785494	0.000211
 106	1.0447e+01	4.1854	-26.186881	0.000456	4.560500	1.545139	0.000183
 107	1.0547e+01	4.2111	-26.053655	0.000334	3.344367	1.133102	0.000134
 108	1.0646e+01	4.2641	-25.896207	0.000395	3.952434	1.339121	0.000158
 109	1.0746e+01	4.2977	-25.738759	0.000395	3.952434	1.339121	0.000158
 110	1.0845e+01	4.3362	-25.520754	0.000547	5.472600	1.854167	0.000219
 111	1.0945e+01	4.3699	-25.371380	0.000375	3.749745	1.270448	0.000150
 112	1.1044e+01	4.4197	-25.234117	0.000345	3.445711	1.167439	0.000138
 113	1.1144e+01	4.4517	-25.060520	0.000436	4.357811	1.476466	0.000174
 114	1.1243e+01	4.4886	-24.923257	0.000345	3.445711	1.167439	0.000138
 115	1.1343e+01	4.5287	-24.753698	0.000426	4.256467	1.442130	0.000170
 116	1.1443e+01	4.5721	-24.592212	0.000405	4.053778	1.373457	0.000162
 117	1.1542e+01	4.6202	-24.394393	0.000497	4.965878	1.682485	0.000199
 118	1.1642e+01	4.6523	-24.253093	0.000355	3.547056	1.201775	0.000142
 119	1.1741e+01	4.6924	-24.075459	0.000446	4.459156	1.510803	0.000179
 120	1.1841e+01	4.7325	-23.946271	0.000324	3.243022	1.098766	0.000130
 121	1.1940e+01	4.7678	-23.804971	0.000355	3.547056	1.201775	0.000142
 122	1.2040e+01	4.8127	-23.599077	0.000517	5.168567	1.751158	0.000207
 123	1.2139e+01	4.8496	-23.465851	0.000334	3.344367	1.133102	0.000134
 124	1.2239e+01	4.8993	-23.288218	0.000446	4.459156	1.510803	0.000179
 125	1.2338e+01	4.9266	-23.150955	0.000345	3.445711	1.167439	0.000138
 126	1.2438e+01	4.9747	-22.957172	0.000486	4.864534	1.648149	0.000195
 127	1.2537e+01	5.0132	-22.807798	0.000375	3.749745	1.270448	0.000150
 128	1.2636e+01	5.0549	-22.609979	0.000497	4.965878	1.682485	0.000199
 129	1.2736e+01	5.0838	-22.468679	0.000355	3.547056	1.201775	0.000142
 130	1.2835e+01	5.1400	-22.323342	0.000365	3.648400	1.236111	0.000146
 131	1.2935e+01	5.1624	-22.117448	0.000517	5.168567	1.751158	0.000207
 132	1.3034e+01	5.2089	-21.984223	0.000334	3.344367	1.133102	0.000134
 133	1.3134e+01	5.2490	-21.806589	0.000446	4.459156	1.510803	0.000179
 134	1.3233e+01	5.2876	-21.669326	0.000345	3.445711	1.167439	0.000138
 135	1.3333e+01	5.3244	-21.451321	0.000547	5.472600	1.854167	0.000219
 136	1.3432e+01	5.3710	-21.285798	0.000416	4.155123	1.407794	0.000166
 137	1.3532e+01	5.4079	-21.112201	0.000436	4.357811	1.476466	0.000174
 138	1.3632e+01	5.4464	-20.995124	0.000294	2.938989	0.995756	0.000118
 139	1.3731e+01	5.4913	-20.809416	0.000466	4.661845	1.579476	0.000187
 140	1.3831e+01	5.5346	-20.643894	0.000416	4.155123	1.407794	0.000166
 141	1.3930e+01	5.5715	-20.454148	0.000476	4.763189	1.613812	0.000191
 142	1.4030e+01	5.6020	-20.316886	0.000345	3.445711	1.167439	0.000138
 143	1.4129e+01	5.6517	-20.151363	0.000416	4.155123	1.407794	0.000166
 144	1.4229e+01	5.6918	-19.977766	0.000436	4.357811	1.476466	0.000174
 145	1.4328e+01	5.7255	-19.804169	0.000436	4.357811	1.476466	0.000174
 146	1.4428e+01	5.7656	-19.699204	0.000263	2.634956	0.892747	0.000105
 147	1.4527e+01	5.8105	-19.493310	0.000517	5.168567	1.751158	0.000207
 148	1.4627e+01	5.8426	-19.335862	0.000395	3.952434	1.339121	0.000158
 149	1.4726e+01	5.8859	-19.186488	0.000375	3.749745	1.270448	0.000150
 150	1.4825e+01	5.9292	-19.008854	0.000446	4.459156	1.510803	0.000179
 151	1.4925e+01	5.9629	-18.827183	0.000456	4.560500	1.545139	0.000183
 152	1.5024e+01	5.9998	-18.689920	0.000345	3.445711	1.167439	0.000138
 153	1.5124e+01	6.0399	-18.524397	0.000416	4.155123	1.407794	0.000166
 154	1.5223e+01	6.0913	-18.358875	0.000416	4.155123	1.407794	0.000166
 155	1.5323e+01	6.1330	-18.213538	0.000365	3.648400	1.236111	0.000146
 156	1.5422e+01	6.1667	-18.023793	0.000476	4.763189	1.613812	0.000191
 157	1.5522e+01	6.2180	-17.902678	0.000304	3.040334	1.030093	0.000122
 158	1.5621e+01	6.2357	-17.676599	0.000568	5.675289	1.922840	0.000227
 159	1.5721e+01	6.2886	-17.579708	0.000243	2.432267	0.824074	0.000097
 160	1.5820e+01	6.3255	-17.422259	0.000395	3.952434	1.339121	0.000158
 161	1.5920e+01	6.3576	-17.220402	0.000507	5.067223	1.716821	0.000203
 162	1.6020e+01	6.4041	-17.079103	0.000355	3.547056	1.201775	0.000142
 163	1.6119e+01	6.4442	-16.913580	0.000416	4.155123	1.407794	0.000166
 164	1.6218e+01	6.4891	-16.788429	0.000314	3.141678	1.064429	0.000126
 165	1.6318e+01	6.5212	-16.606758	0.000456	4.560500	1.545139	0.000183
 166	1.6418e+01	6.5597	-16.441235	0.000416	4.155123	1.407794	0.000166
 167	1.6517e+01	6.5998	-16.267638	0.000436	4.357811	1.476466	0.000174
 168	1.6616e+01	6.6399	-16.090004	0.000446	4.459156	1.510803	0.000179
 169	1.6716e+01	6.6848	-15.952742	0.000345	3.445711	1.167439	0.000138
 170	1.6816e+01	6.7217	-15.811442	0.000355	3.547056	1.201775	0.000142
 171	1.6915e+01	6.7618	-15.617660	0.000486	4.864534	1.648149	0.000195
 172	1.7015e+01	6.8116	-15.476360	0.000355	3.547056	1.201775	0.000142
 173	1.7114e+01	6.8356	-15.339097	0.000345	3.445711	1.167439	0.000138
 174	1.7213e+01	6.8757	-15.145315	0.000486	4.864534	1.648149	0.000195
 175	1.7313e+01	6.9175	-15.004015	0.000355	3.547056	1.201775	0.000142
 176	1.7413e+01	6.9672	-14.826381	0.000446	4.459156	1.510803	0.000179
 177	1.7512e+01	6.9977	-14.648747	0.000446	4.459156	1.510803	0.000179
 178	1.7611e+01	7.0410	-14.499373	0.000375	3.749745	1.270448	0.000150
 179	1.7711e+01	7.0795	-14.337888	0.000405	4.053778	1.373457	0.000162
 180	1.7811e+01	7.1228	-14.168328	0.000426	4.256467	1.442130	0.000170
 181	1.7910e+01	7.1581	-14.010880	0.000395	3.952434	1.339121	0.000158
 182	1.8009e+01	7.1998	-13.833246	0.000446	4.459156	1.510803	0.000179
 183	1.8109e+01	7.2367	-13.671760	0.000405	4.053778	1.373457	0.000162
 184	1.8209e+01	7.2832	-13.514312	0.000395	3.952434	1.339121	0.000158
 185	1.8308e+01	7.3249	-13.292269	0.000557	5.573945	1.888504	0.000223
 186	1.8407e+01	7.3554	-13.187304	0.000263	2.634956	0.892747	0.000105
 187	1.8507e+01	7.3907	-13.058116	0.000324	3.243022	1.098766	0.000130
 188	1.8607e+01	7.4404	-12.860296	0.000497	4.965878	1.682485	0.000199
 189	1.8706e+01	7.4757	-12.710922	0.000375	3.749745	1.270448	0.000150
 190	1.8805e+01	7.5255	-12.533288	0.000446	4.459156	1.510803	0.000179
 191	1.8905e+01	7.5624	-12.351617	0.000456	4.560500	1.545139	0.000183
 192	1.9005e+01	7.5976	-12.210317	0.000355	3.547056	1.201775	0.000142
 193	1.9104e+01	7.6442	-12.036720	0.000436	4.357811	1.476466	0.000174
 194	1.9203e+01	7.6843	-11.875235	0.000405	4.053778	1.373457	0.000162
 195	1.9303e+01	7.7115	-11.733935	0.000355	3.547056	1.201775	0.000142
 196	1.9402e+01	7.7565	-11.564375	0.000426	4.256467	1.442130	0.000170
 197	1.9502e+01	7.8062	-11.398853	0.000416	4.155123	1.407794	0.000166
 198	1.9602e+01	7.8431	-11.225256	0.000436	4.357811	1.476466	0.000174
 199	1.9701e+01	7.8800	-11.051659	0.000436	4.357811	1.476466	0.000174
 200	1.9800e+01	7.9121	-10.914396	0.000345	3.445711	1.167439	0.000138
 201	1.9900e+01	7.9538	-10.773097	0.000355	3.547056	1.201775	0.000142
 202	2.0000e+01	7.9971	-10.599500	0.000436	4.357811	1.476466	0.000174
 203	2.0099e+01	8.0356	-10.442052	0.000395	3.952434	1.339121	0.000158
 204	2.0198e+01	8.0693	-10.240195	0.000507	5.067223	1.716821	0.000203
 205	2.0298e+01	8.1078	-10.102932	0.000345	3.445711	1.167439	0.000138
 206	2.0398e+01	8.1527	-9.945484	0.000395	3.952434	1.339121	0.000158
 207	2.0497e+01	8.2040	-9.763813	0.000456	4.560500	1.545139	0.000183
 208	2.0596e+01	8.2361	-9.618476	0.000365	3.648400	1.236111	0.000146
 209	2.0696e+01	8.2698	-9.400471	0.000547	5.472600	1.854167	0.000219
 210	2.0796e+01	8.3196	-9.263208	0.000345	3.445711	1.167439	0.000138
 211	2.0895e+01	8.3581	-9.101723	0.000405	4.053778	1.373457	0.000162
 212	2.0994e+01	8.3982	-8.944274	0.000395	3.952434	1.339121	0.000158
 213	2.1094e+01	8.4351	-8.778752	0.000416	4.155123	1.407794	0.000166
 214	2.1194e+01	8.4800	-8.613229	0.000416	4.155123	1.407794	0.000166
 215	2.1293e+01	8.5233	-8.496152	0.000294	2.938989	0.995756	0.000118
 216	2.1392e+01	8.5554	-8.274110	0.000557	5.573945	1.888504	0.000223
 217	2.1492e+01	8.5923	-8.124736	0.000375	3.749745	1.270448	0.000150
 218	2.1591e+01	8.6372	-7.967287	0.000395	3.952434	1.339121	0.000158
 219	2.1691e+01	8.6741	-7.793691	0.000436	4.357811	1.476466	0.000174
 220	2.1791e+01	8.7174	-7.612019	0.000456	4.560500	1.545139	0.000183
 221	2.1890e+01	8.7527	-7.470720	0.000355	3.547056	1.201775	0.000142
 222	2.1989e+01	8.8008	-7.305197	0.000416	4.155123	1.407794	0.000166
 223	2.2089e+01	8.8329	-7.127563	0.000446	4.459156	1.510803	0.000179
 224	2.2189e+01	8.8714	-6.929743	0.000497	4.965878	1.682485	0.000199
 225	2.2288e+01	8.9115	-6.796518	0.000334	3.344367	1.133102	0.000134
 226	2.2387e+01	8.9564	-6.635033	0.000405	4.053778	1.373457	0.000162
 227	2.2487e+01	8.9837	-6.473547	0.000405	4.053778	1.373457	0.000162
 228	2.2587e+01	9.0270	-6.275728	0.000497	4.965878	1.682485	0.000199
 229	2.2686e+01	9.0767	-6.073871	0.000507	5.067223	1.716821	0.000203
 230	2.2785e+01	9.1136	-5.936608	0.000345	3.445711	1.167439	0.000138
 231	2.2885e+01	9.1489	-5.779160	0.000395	3.952434	1.339121	0.000158
 232	2.2985e+01	9.1987	-5.625749	0.000385	3.851089	1.304784	0.000154
 233	2.3084e+01	9.2275	-5.460226	0.000416	4.155123	1.407794	0.000166
 234	2.3183e+01	9.2725	-5.258369	0.000507	5.067223	1.716821	0.000203
 235	2.3283e+01	9.3126	-5.092847	0.000416	4.155123	1.407794	0.000166
 236	2.3383e+01	9.3479	-4.919250	0.000436	4.357811	1.476466	0.000174
 237	2.3482e+01	9.3992	-4.749690	0.000426	4.256467	1.442130	0.000170
 238	2.3581e+01	9.4329	-4.592242	0.000395	3.952434	1.339121	0.000158
 239	2.3681e+01	9.4634	-4.418645	0.000436	4.357811	1.476466	0.000174
 240	2.3780e+01	9.5115	-4.269271	0.000375	3.749745	1.270448	0.000150
 241	2.3880e+01	9.5452	-4.095674	0.000436	4.357811	1.476466	0.000174
 242	2.3980e+01	9.5901	-3.922077	0.000436	4.357811	1.476466	0.000174
 243	2.4079e+01	9.6334	-3.720221	0.000507	5.067223	1.716821	0.000203
 244	2.4178e+01	9.6687	-3.599107	0.000304	3.040334	1.030093	0.000122
 245	2.4278e+01	9.7104	-3.409361	0.000476	4.763189	1.613812	0.000191
 246	2.4378e+01	9.7569	-3.239801	0.000426	4.256467	1.442130	0.000170
 247	2.4477e+01	9.7970	-3.086390	0.000385	3.851089	1.304784	0.000154
 248	2.4576e+01	9.8388	-2.904719	0.000456	4.560500	1.545139	0.000183
 249	2.4676e+01	9.8757	-2.731122	0.000436	4.357811	1.476466	0.000174
 250	2.4776e+01	9.9126	-2.557525	0.000436	4.357811	1.476466	0.000174
 251	2.4875e+01	9.9559	-2.396040	0.000405	4.053778	1.373457	0.000162
 252	2.4974e+01	9.9912	-2.198220	0.000497	4.965878	1.682485	0.000199
 253	2.5074e+01	10.0313	-2.056921	0.000355	3.547056	1.201775	0.000142
 254	2.5174e+01	10.0730	-1.879287	0.000446	4.459156	1.510803	0.000179
 255	2.5273e+01	10.1067	-1.669356	0.000527	5.269911	1.785494	0.000211
 256	2.5372e+01	10.1500	-1.532093	0.000345	3.445711	1.167439	0.000138
 257	2.5472e+01	10.1917	-1.362533	0.000426	4.256467	1.442130	0.000170
 258	2.5572e+01	10.2254	-1.184899	0.000446	4.459156	1.510803	0.000179
 259	2.5671e+01	10.2639	-1.031488	0.000385	3.851089	1.304784	0.000154
 260	2.5770e+01	10.3008	-0.825594	0.000517	5.168567	1.751158	0.000207
 261	2.5870e+01	10.3505	-0.684295	0.000355	3.547056	1.201775	0.000142
 262	2.5970e+01	10.3874	-0.490512	0.000486	4.864534	1.648149	0.000195
 263	2.6069e+01	10.4259	-0.337101	0.000385	3.851089	1.304784	0.000154
 264	2.6169e+01	10.4692	-0.159467	0.000446	4.459156	1.510803	0.000179
 265	2.6268e+01	10.4997	-0.010093	0.000375	3.749745	1.270448	0.000150
 266	2.6367e+01	10.5494	0.195801	0.000517	5.168567	1.751158	0.000207
 267	2.6467e+01	10.5895	0.369398	0.000436	4.357811	1.476466	0.000174
 268	2.6567e+01	10.6248	0.494549	0.000314	3.141678	1.064429	0.000126
 269	2.6666e+01	10.6649	0.700443	0.000517	5.168567	1.751158	0.000207
 270	2.6765e+01	10.7066	0.902300	0.000507	5.067223	1.716821	0.000203
 271	2.6865e+01	10.7532	1.071860	0.000426	4.256467	1.442130	0.000170
 272	2.6965e+01	10.7917	1.217196	0.000365	3.648400	1.236111	0.000146
 273	2.7064e+01	10.8222	1.386756	0.000426	4.256467	1.442130	0.000170
 274	2.7163e+01	10.8558	1.564390	0.000446	4.459156	1.510803	0.000179
 275	2.7263e+01	10.9072	1.742024	0.000446	4.459156	1.510803	0.000179
 276	2.7363e+01	10.9537	1.935807	0.000486	4.864534	1.648149	0.000195
 277	2.7462e+01	10.9922	2.064995	0.000324	3.243022	1.098766	0.000130
 278	2.7561e+01	11.0323	2.299149	0.000588	5.877978	1.991513	0.000235
 279	2.7661e+01	11.0644	2.440449	0.000355	3.547056	1.201775	0.000142
 280	2.7761e+01	11.1029	2.614045	0.000436	4.357811	1.476466	0.000174
 281	2.7860e+01	11.1414	2.775531	0.000405	4.053778	1.373457	0.000162
 282	2.7959e+01	11.1831	2.945091	0.000426	4.256467	1.442130	0.000170
 283	2.8059e+01	11.2232	3.138873	0.000486	4.864534	1.648149	0.000195
 284	2.8159e+01	11.2681	3.328618	0.000476	4.763189	1.613812	0.000191
 285	2.8258e+01	11.3034	3.449732	0.000304	3.040334	1.030093	0.000122
 286	2.8358e+01	11.3483	3.667738	0.000547	5.472600	1.854167	0.000219
 287	2.8457e+01	11.3836	3.833260	0.000416	4.155123	1.407794	0.000166
 288	2.8556e+01	11.4286	4.010894	0.000446	4.459156	1.510803	0.000179
 289	2.8656e+01	11.4655	4.184491	0.000436	4.357811	1.476466	0.000174
 290	2.8756e+01	11.4975	4.358088	0.000436	4.357811	1.476466	0.000174
 291	2.8855e+01	11.5409	4.535722	0.000446	4.459156	1.510803	0.000179
 292	2.8954e+01	11.5842	4.725467	0.000476	4.763189	1.613812	0.000191
 293	2.9054e+01	11.6275	4.882916	0.000395	3.952434	1.339121	0.000158
 294	2.9154e+01	11.6628	5.092847	0.000527	5.269911	1.785494	0.000211
 295	2.9253e+01	11.7045	5.254332	0.000405	4.053778	1.373457	0.000162
 296	2.9352e+01	11.7478	5.383521	0.000324	3.243022	1.098766	0.000130
 297	2.9452e+01	11.7831	5.605563	0.000557	5.573945	1.888504	0.000223
 298	2.9552e+01	11.8216	5.767048	0.000405	4.053778	1.373457	0.000162
 299	2.9651e+01	11.8601	5.932571	0.000416	4.155123	1.407794	0.000166
 300	2.9750e+01	11.9098	6.085982	0.000385	3.851089	1.304784	0.000154
 301	2.9850e+01	11.9483	6.291876	0.000517	5.168567	1.751158	0.000207
 302	2.9950e+01	11.9852	6.461436	0.000426	4.256467	1.442130	0.000170
 303	3.0049e+01	12.0189	6.663293	0.000507	5.067223	1.716821	0.000203
 304	3.0148e+01	12.0638	6.828815	0.000416	4.155123	1.407794	0.000166
 305	3.0248e+01	12.0975	6.990301	0.000405	4.053778	1.373457	0.000162
 306	3.0348e+01	12.1360	7.180046	0.000476	4.763189	1.613812	0.000191
 307	3.0447e+01	12.1745	7.385940	0.000517	5.168567	1.751158	0.000207
 308	3.0547e+01	12.2194	7.543388	0.000395	3.952434	1.339121	0.000158
 309	3.0646e+01	12.2595	7.704874	0.000405	4.053778	1.373457	0.000162
 310	3.0745e+01	12.2964	7.866359	0.000405	4.053778	1.373457	0.000162
 311	3.0845e+01	12.3446	8.064179	0.000497	4.965878	1.682485	0.000199
 312	3.0945e+01	12.3927	8.225664	0.000405	4.053778	1.373457	0.000162
 313	3.1044e+01	12.4232	8.435595	0.000527	5.269911	1.785494	0.000211
 314	3.1143e+01	12.4537	8.625341	0.000476	4.763189	1.613812	0.000191
 315	3.1243e+01	12.5018	8.790863	0.000416	4.155123	1.407794	0.000166
 316	3.1343e+01	12.5435	8.960423	0.000426	4.256467	1.442130	0.000170
 317	3.1442e+01	12.5772	9.170354	0.000527	5.269911	1.785494	0.000211
 318	3.1541e+01	12.6253	9.347988	0.000446	4.459156	1.510803	0.000179
 319	3.1641e+01	12.6462	9.525622	0.000446	4.459156	1.510803	0.000179
 320	3.1741e+01	12.7039	9.695181	0.000426	4.256467	1.442130	0.000170
 321	3.1840e+01	12.7424	9.888964	0.000486	4.864534	1.648149	0.000195
 322	3.1939e+01	12.7889	10.090821	0.000507	5.067223	1.716821	0.000203
 323	3.2039e+01	12.8242	10.191749	0.000253	2.533611	0.858411	0.000101
 324	3.2139e+01	12.8627	10.433977	0.000608	6.080667	2.060186	0.000243
 325	3.2238e+01	12.9012	10.607574	0.000436	4.357811	1.476466	0.000174
 326	3.2337e+01	12.9462	10.765022	0.000395	3.952434	1.339121	0.000158
 327	3.2437e+01	12.9718	10.970916	0.000517	5.168567	1.751158	0.000207
 328	3.2536e+01	13.0103	11.160662	0.000476	4.763189	1.613812	0.000191
 329	3.2636e+01	13.0536	11.322147	0.000405	4.053778	1.373457	0.000162
 330	3.2736e+01	13.0954	11.507855	0.000466	4.661845	1.579476	0.000187
 331	3.2835e+01	13.1274	11.701638	0.000486	4.864534	1.648149	0.000195
 332	3.2934e+01	13.1788	11.879272	0.000446	4.459156	1.510803	0.000179
 333	3.3034e+01	13.2109	12.064980	0.000466	4.661845	1.579476	0.000187
 334	3.3133e+01	13.2542	12.274911	0.000527	5.269911	1.785494	0.000211
 335	3.3233e+01	13.2959	12.468694	0.000486	4.864534	1.648149	0.000195
 336	3.3333e+01	13.3408	12.638253	0.000426	4.256467	1.442130	0.000170
 337	3.3432e+01	13.3665	12.795702	0.000395	3.952434	1.339121	0.000158
 338	3.3532e+01	13.4114	13.017744	0.000557	5.573945	1.888504	0.000223
 339	3.3631e+01	13.4595	13.239787	0.000557	5.573945	1.888504	0.000223
 340	3.3730e+01	13.4932	13.409346	0.000426	4.256467	1.442130	0.000170
 341	3.3830e+01	13.5333	13.607166	0.000497	4.965878	1.682485	0.000199
 342	3.3929e+01	13.5734	13.813060	0.000517	5.168567	1.751158	0.000207
 343	3.4029e+01	13.6183	14.014917	0.000507	5.067223	1.716821	0.000203
 344	3.4129e+01	13.6681	14.196588	0.000456	4.560500	1.545139	0.000183
 345	3.4228e+01	13.6889	14.410556	0.000537	5.371256	1.819831	0.000215
 346	3.4328e+01	13.7242	14.628561	0.000547	5.472600	1.854167	0.000219
 347	3.4427e+01	13.7659	14.850604	0.000557	5.573945	1.888504	0.000223
 348	3.4526e+01	13.8140	15.084758	0.000588	5.877978	1.991513	0.000235
 349	3.4626e+01	13.8574	15.274503	0.000476	4.763189	1.613812	0.000191
 350	3.4725e+01	13.8862	15.516731	0.000608	6.080667	2.060186	0.000243
 351	3.4825e+01	13.9312	15.722625	0.000517	5.168567	1.751158	0.000207
 352	3.4925e+01	13.9665	15.896222	0.000436	4.357811	1.476466	0.000174
 353	3.5024e+01	14.0162	16.134413	0.000598	5.979323	2.025849	0.000239
 354	3.5123e+01	14.0483	16.324158	0.000476	4.763189	1.613812	0.000191
 355	3.5223e+01	14.0948	16.489681	0.000416	4.155123	1.407794	0.000166
 356	3.5322e+01	14.1333	16.744020	0.000638	6.384700	2.163195	0.000256
 357	3.5422e+01	14.1654	16.921654	0.000446	4.459156	1.510803	0.000179
 358	3.5522e+01	14.2055	17.115437	0.000486	4.864534	1.648149	0.000195
 359	3.5621e+01	14.2488	17.325368	0.000527	5.269911	1.785494	0.000211
 360	3.5721e+01	14.2937	17.511076	0.000466	4.661845	1.579476	0.000187
 361	3.5820e+01	14.3290	17.741193	0.000578	5.776634	1.957176	0.000231
 362	3.5919e+01	14.3739	17.963235	0.000557	5.573945	1.888504	0.000223
 363	3.6019e+01	14.4140	18.140869	0.000446	4.459156	1.510803	0.000179
 364	3.6118e+01	14.4525	18.387135	0.000618	6.182012	2.094522	0.000248
 365	3.6218e+01	14.4894	18.609177	0.000557	5.573945	1.888504	0.000223
 366	3.6318e+01	14.5231	18.815071	0.000517	5.168567	1.751158	0.000207
 367	3.6417e+01	14.5648	19.033076	0.000547	5.472600	1.854167	0.000219
 368	3.6517e+01	14.6017	19.222822	0.000476	4.763189	1.613812	0.000191
 369	3.6616e+01	14.6531	19.424679	0.000507	5.067223	1.716821	0.000203
 370	3.6715e+01	14.6916	19.634610	0.000527	5.269911	1.785494	0.000211
 371	3.6815e+01	14.7269	19.888949	0.000638	6.384700	2.163195	0.000256
 372	3.6914e+01	14.7686	20.102917	0.000537	5.371256	1.819831	0.000215
 373	3.7014e+01	14.8071	20.337071	0.000588	5.877978	1.991513	0.000235
 374	3.7114e+01	14.8488	20.530854	0.000486	4.864534	1.648149	0.000195
 375	3.7213e+01	14.8889	20.752896	0.000557	5.573945	1.888504	0.000223
 376	3.7313e+01	14.9338	20.995124	0.000608	6.080667	2.060186	0.000243
 377	3.7412e+01	14.9563	21.221204	0.000568	5.675289	1.922840	0.000227
 378	3.7511e+01	15.0092	21.431135	0.000527	5.269911	1.785494	0.000211
 379	3.7611e+01	15.0461	21.677400	0.000618	6.182012	2.094522	0.000248
 380	3.7711e+01	15.0878	21.927703	0.000628	6.283356	2.128859	0.000252
 381	3.7810e+01	15.1263	22.157819	0.000578	5.776634	1.957176	0.000231
 382	3.7910e+01	15.1744	22.379862	0.000557	5.573945	1.888504	0.000223
 383	3.8009e+01	15.2017	22.622090	0.000608	6.080667	2.060186	0.000243
 384	3.8108e+01	15.2482	22.832021	0.000527	5.269911	1.785494	0.000211
 385	3.8208e+01	15.2835	23.118658	0.000720	7.195456	2.437887	0.000288
 386	3.8307e+01	15.3300	23.308403	0.000476	4.763189	1.613812	0.000191
 387	3.8407e+01	15.3669	23.562743	0.000638	6.384700	2.163195	0.000256
 388	3.8507e+01	15.4087	23.764600	0.000507	5.067223	1.716821	0.000203
 389	3.8606e+01	15.4536	24.022976	0.000649	6.486045	2.197532	0.000260
 390	3.8706e+01	15.4905	24.208684	0.000466	4.661845	1.579476	0.000187
 391	3.8805e+01	15.5354	24.499358	0.000730	7.296801	2.472223	0.000292
 392	3.8904e+01	15.5675	24.709289	0.000527	5.269911	1.785494	0.000211
 393	3.9004e+01	15.6092	24.923257	0.000537	5.371256	1.819831	0.000215
 394	3.9103e+01	15.6493	25.185671	0.000659	6.587389	2.231868	0.000264
 395	3.9203e+01	15.6878	25.411751	0.000568	5.675289	1.922840	0.000227
 396	3.9303e+01	15.7311	25.633793	0.000557	5.573945	1.888504	0.000223
 397	3.9402e+01	15.7760	25.892170	0.000649	6.486045	2.197532	0.000260
 398	3.9502e+01	15.8065	26.158621	0.000669	6.688734	2.266204	0.000268
 399	3.9601e+01	15.8434	26.408923	0.000628	6.283356	2.128859	0.000252
 400	3.9700e+01	15.8899	26.639040	0.000578	5.776634	1.957176	0.000231
 401	3.9800e+01	15.9204	26.917603	0.000699	6.992767	2.369214	0.000280
 402	3.9900e+01	15.9589	27.135608	0.000547	5.472600	1.854167	0.000219
 403	3.9999e+01	16.0135	27.422245	0.000720	7.195456	2.437887	0.000288
 404	4.0099e+01	16.0455	27.652361	0.000578	5.776634	1.957176	0.000231
 405	4.0198e+01	16.0792	27.910738	0.000649	6.486045	2.197532	0.000260
 406	4.0297e+01	16.1177	28.132780	0.000557	5.573945	1.888504	0.000223
 407	4.0397e+01	16.1675	28.403268	0.000679	6.790078	2.300541	0.000272
 408	4.0496e+01	16.1979	28.665682	0.000659	6.587389	2.231868	0.000264
 409	4.0596e+01	16.2445	28.911948	0.000618	6.182012	2.094522	0.000248
 410	4.0696e+01	16.2878	29.194547	0.000709	7.094112	2.403550	0.000284
 411	4.0795e+01	16.3167	29.460998	0.000669	6.688734	2.266204	0.000268
 412	4.0895e+01	16.3696	29.683041	0.000557	5.573945	1.888504	0.000223
 413	4.0994e+01	16.4049	29.985826	0.000760	7.600834	2.575232	0.000304
 414	4.1093e+01	16.4482	30.224017	0.000598	5.979323	2.025849	0.000239
 415	4.1193e+01	16.4819	30.486431	0.000659	6.587389	2.231868	0.000264
 416	4.1292e+01	16.5300	30.752881	0.000669	6.688734	2.266204	0.000268
 417	4.1392e+01	16.5589	30.982998	0.000578	5.776634	1.957176	0.000231
 418	4.1492e+01	16.6070	31.253486	0.000679	6.790078	2.300541	0.000272
 419	4.1591e+01	16.6471	31.532049	0.000699	6.992767	2.369214	0.000280
 420	4.1691e+01	16.6776	31.810611	0.000699	6.992767	2.369214	0.000280
 421	4.1790e+01	16.7113	32.060913	0.000628	6.283356	2.128859	0.000252
 422	4.1889e+01	16.7658	32.303142	0.000608	6.080667	2.060186	0.000243
 423	4.1989e+01	16.8011	32.609964	0.000770	7.702178	2.609569	0.000308
 424	4.2089e+01	16.8444	32.896601	0.000720	7.195456	2.437887	0.000288
 425	4.2188e+01	16.8781	33.154977	0.000649	6.486045	2.197532	0.000260
 426	4.2288e+01	16.9247	33.429502	0.000689	6.891423	2.334877	0.000276
 427	4.2387e+01	16.9632	33.671731	0.000608	6.080667	2.060186	0.000243
 428	4.2486e+01	16.9985	33.926070	0.000638	6.384700	2.163195	0.000256
 429	4.2586e+01	17.0482	34.236930	0.000780	7.803523	2.643905	0.000312
 430	4.2685e+01	17.0867	34.479158	0.000608	6.080667	2.060186	0.000243
 431	4.2785e+01	17.1284	34.729460	0.000628	6.283356	2.128859	0.000252
 432	4.2885e+01	17.1621	34.995911	0.000669	6.688734	2.266204	0.000268
 433	4.2984e+01	17.2022	35.278511	0.000709	7.094112	2.403550	0.000284
 434	4.3084e+01	17.2423	35.544962	0.000669	6.688734	2.266204	0.000268
 435	4.3183e+01	17.2712	35.795264	0.000628	6.283356	2.128859	0.000252
 436	4.3282e+01	17.3145	36.069789	0.000689	6.891423	2.334877	0.000276
 437	4.3382e+01	17.3562	36.324129	0.000638	6.384700	2.163195	0.000256
 438	4.3481e+01	17.4107	36.590580	0.000669	6.688734	2.266204	0.000268
 439	4.3581e+01	17.4412	36.840882	0.000628	6.283356	2.128859	0.000252
 440	4.3681e+01	17.4797	37.107333	0.000669	6.688734	2.266204	0.000268
 441	4.3780e+01	17.5230	37.381858	0.000689	6.891423	2.334877	0.000276
 442	4.3880e+01	17.5551	37.595827	0.000537	5.371256	1.819831	0.000215
 443	4.3979e+01	17.5920	37.870352	0.000689	6.891423	2.334877	0.000276
 444	4.4078e+01	17.6337	38.144877	0.000689	6.891423	2.334877	0.000276
 445	4.4178e+01	17.6770	38.403254	0.000649	6.486045	2.197532	0.000260
 446	4.4278e+01	17.7139	38.625296	0.000557	5.573945	1.888504	0.000223
 447	4.4377e+01	17.7605	38.936156	0.000780	7.803523	2.643905	0.000312
 448	4.4477e+01	17.7990	39.206644	0.000679	6.790078	2.300541	0.000272
 449	4.4576e+01	17.8375	39.517503	0.000780	7.803523	2.643905	0.000312
 450	4.4675e+01	17.8840	39.763768	0.000618	6.182012	2.094522	0.000248
 451	4.4775e+01	17.9225	40.058479	0.000740	7.398145	2.506559	0.000296
 452	4.4874e+01	17.9546	40.337042	0.000699	6.992767	2.369214	0.000280
 453	4.4974e+01	17.9995	40.660013	0.000811	8.107556	2.746914	0.000325
 454	4.5074e+01	18.0380	40.926464	0.000669	6.688734	2.266204	0.000268
 455	4.5173e+01	18.0749	41.225212	0.000750	7.499489	2.540896	0.000300
 456	4.5273e+01	18.1182	41.560294	0.000841	8.411589	2.849924	0.000337
 457	4.5372e+01	18.1567	41.850968	0.000730	7.296801	2.472223	0.000292
 458	4.5471e+01	18.1888	42.125493	0.000689	6.891423	2.334877	0.000276
 459	4.5571e+01	18.2401	42.456538	0.000831	8.310245	2.815587	0.000333
 460	4.5670e+01	18.2786	42.686655	0.000578	5.776634	1.957176	0.000231
 461	4.5770e+01	18.3203	42.989440	0.000760	7.600834	2.575232	0.000304
 462	4.5870e+01	18.3620	43.272039	0.000709	7.094112	2.403550	0.000284
 463	4.5969e+01	18.3973	43.534453	0.000659	6.587389	2.231868	0.000264
 464	4.6069e+01	18.4310	43.825127	0.000730	7.296801	2.472223	0.000292
 465	4.6168e+01	18.4663	44.140024	0.000790	7.904867	2.678242	0.000316
 466	4.6267e+01	18.5209	44.410512	0.000679	6.790078	2.300541	0.000272
 467	4.6367e+01	18.5562	44.713297	0.000760	7.600834	2.575232	0.000304
 468	4.6467e+01	18.5947	45.012045	0.000750	7.499489	2.540896	0.000300
 469	4.6566e+01	18.6412	45.310793	0.000750	7.499489	2.540896	0.000300
 470	4.6666e+01	18.6765	45.633764	0.000811	8.107556	2.746914	0.000325
 471	4.6765e+01	18.7166	45.948660	0.000790	7.904867	2.678242	0.000316
 472	4.6864e+01	18.7519	46.243371	0.000740	7.398145	2.506559	0.000296
 473	4.6964e+01	18.7952	46.542119	0.000750	7.499489	2.540896	0.000300
 474	4.7063e+01	18.8417	46.861053	0.000801	8.006212	2.712578	0.000321
 475	4.7163e+01	18.8770	47.151727	0.000730	7.296801	2.472223	0.000292
 476	4.7263e+01	18.9187	47.490846	0.000851	8.512934	2.884260	0.000341
 477	4.7362e+01	18.9476	47.769409	0.000699	6.992767	2.369214	0.000280
 478	4.7462e+01	19.0053	48.080268	0.000780	7.803523	2.643905	0.000312
 479	4.7561e+01	19.0326	48.374979	0.000740	7.398145	2.506559	0.000296
 480	4.7660e+01	19.0759	48.734284	0.000902	9.019656	3.055942	0.000361
 481	4.7760e+01	19.1160	48.972475	0.000598	5.979323	2.025849	0.000239
 482	4.7859e+01	19.1545	49.283335	0.000780	7.803523	2.643905	0.000312
 483	4.7959e+01	19.1882	49.586120	0.000760	7.600834	2.575232	0.000304
 484	4.8059e+01	19.2364	49.856608	0.000679	6.790078	2.300541	0.000272
 485	4.8158e+01	19.2781	50.171504	0.000790	7.904867	2.678242	0.000316
 486	4.8258e+01	19.3134	50.462178	0.000730	7.296801	2.472223	0.000292
 487	4.8357e+01	19.3567	50.789186	0.000821	8.208901	2.781251	0.000329
 488	4.8456e+01	19.3920	51.071786	0.000709	7.094112	2.403550	0.000284
 489	4.8556e+01	19.4353	51.382645	0.000780	7.803523	2.643905	0.000312
 490	4.8656e+01	19.4754	51.685430	0.000760	7.600834	2.575232	0.000304
 491	4.8755e+01	19.5075	52.028587	0.000861	8.614278	2.918597	0.000345
 492	4.8855e+01	19.5556	52.371743	0.000861	8.614278	2.918597	0.000345
 493	4.8954e+01	19.5973	52.686640	0.000790	7.904867	2.678242	0.000316
 494	4.9053e+01	19.6230	52.985388	0.000750	7.499489	2.540896	0.000300
 495	4.9153e+01	19.6711	53.292210	0.000770	7.702178	2.609569	0.000308
 496	4.9252e+01	19.7080	53.558661	0.000669	6.688734	2.266204	0.000268
 497	4.9352e+01	19.7561	53.901818	0.000861	8.614278	2.918597	0.000345
 498	4.9452e+01	19.7898	54.204603	0.000760	7.600834	2.575232	0.000304
 499	4.9551e+01	19.8235	54.503351	0.000750	7.499489	2.540896	0.000300
 500	4.9651e+01	19.8732	54.830359	0.000821	8.208901	2.781251	0.000329
 501	4.9750e+01	19.9133	55.173516	0.000861	8.614278	2.918597	0.000345
 502	4.9849e+01	19.9438	55.452078	0.000699	6.992767	2.369214	0.000280
 503	4.9949e+01	19.9903	55.783123	0.000831	8.310245	2.815587	0.000333
 504	5.0048e+01	19.9567	55.871940	-0.000223	-2.229578	-0.755401	0.000089
 505	5.0148e+01	19.9037	55.916349	-0.000111	-1.114789	-0.377701	0.000045
 506	5.0248e+01	19.8636	55.993054	-0.000193	-1.925545	-0.652392	0.000077
 507	5.0347e+01	19.8363	56.025351	-0.000081	-0.810756	-0.274691	0.000032
 508	5.0447e+01	19.7930	56.069760	-0.000111	-1.114789	-0.377701	0.000045
 509	5.0546e+01	19.7609	56.182799	-0.000284	-2.837645	-0.961420	0.000114
 510	5.0645e+01	19.7144	56.150502	0.000081	0.810756	0.274691	-0.000032
 511	5.0745e+01	19.6759	56.231245	-0.000203	-2.026889	-0.686729	0.000081
 512	5.0844e+01	19.6310	56.247394	-0.000041	-0.405378	-0.137346	0.000016
 513	5.0944e+01	19.6021	56.279691	-0.000081	-0.810756	-0.274691	0.000032
 514	5.1044e+01	19.5508	56.336211	-0.000142	-1.418822	-0.480710	0.000057
 515	5.1143e+01	19.5219	56.344285	-0.000020	-0.202689	-0.068673	0.000008
 516	5.1242e+01	19.4690	56.416953	-0.000182	-1.824200	-0.618056	0.000073
 517	5.1342e+01	19.4289	56.408879	0.000020	0.202689	0.068673	-0.000008
 518	5.1441e+01	19.3952	56.477510	-0.000172	-1.722856	-0.583719	0.000069
 519	5.1541e+01	19.3519	56.445213	0.000081	0.810756	0.274691	-0.000032
 520	5.1641e+01	19.3182	56.525956	-0.000203	-2.026889	-0.686729	0.000081
 521	5.1740e+01	19.2733	56.517882	0.000020	0.202689	0.068673	-0.000008
 522	5.1840e+01	19.2444	56.578439	-0.000152	-1.520167	-0.515046	0.000061
 523	5.1939e+01	19.1914	56.550179	0.000071	0.709411	0.240355	-0.000028
 524	5.2038e+01	19.1610	56.562290	-0.000030	-0.304033	-0.103009	0.000012
 525	5.2138e+01	19.1096	56.558253	0.000010	0.101344	0.034336	-0.000004
 526	5.2237e+01	19.0775	56.606699	-0.000122	-1.216133	-0.412037	0.000049
 527	5.2337e+01	19.0342	56.626884	-0.000051	-0.506722	-0.171682	0.000020
 528	5.2437e+01	18.9973	56.602662	0.000061	0.608067	0.206019	-0.000024
 529	5.2536e+01	18.9556	56.651107	-0.000122	-1.216133	-0.412037	0.000049
 530	5.2636e+01	18.9219	56.675330	-0.000061	-0.608067	-0.206019	0.000024
 531	5.2735e+01	18.8722	56.671293	0.000010	0.101344	0.034336	-0.000004
 532	5.2834e+01	18.8369	56.691479	-0.000051	-0.506722	-0.171682	0.000020
 533	5.2934e+01	18.7840	56.743961	-0.000132	-1.317478	-0.446374	0.000053
 534	5.3033e+01	18.7503	56.780296	-0.000091	-0.912100	-0.309028	0.000037
 535	5.3133e+01	18.7134	56.852964	-0.000182	-1.824200	-0.618056	0.000073
 536	5.3233e+01	18.6749	56.840853	0.000030	0.304033	0.103009	-0.000012
 537	5.3332e+01	18.6348	56.861038	-0.000051	-0.506722	-0.171682	0.000020
 538	5.3431e+01	18.5915	56.897373	-0.000091	-0.912100	-0.309028	0.000037
 539	5.3531e+01	18.5546	56.913521	-0.000041	-0.405378	-0.137346	0.000016
 540	5.3630e+01	18.5161	56.909484	0.000010	0.101344	0.034336	-0.000004
 541	5.3730e+01	18.4776	56.929670	-0.000051	-0.506722	-0.171682	0.000020
 542	5.3830e+01	18.4358	56.921595	0.000020	0.202689	0.068673	-0.000008
 543	5.3929e+01	18.3893	56.957930	-0.000091	-0.912100	-0.309028	0.000037
 544	5.4029e+01	18.3556	56.974078	-0.000041	-0.405378	-0.137346	0.000016
 545	5.4128e+01	18.3155	56.957930	0.000041	0.405378	0.137346	-0.000016
 546	5.4227e+01	18.2786	57.014449	-0.000142	-1.418822	-0.480710	0.000057
 547	5.4327e+01	18.2433	57.046747	-0.000081	-0.810756	-0.274691	0.000032
 548	5.4426e+01	18.1952	57.127489	-0.000203	-2.026889	-0.686729	0.000081
 549	5.4526e+01	18.1599	57.135564	-0.000020	-0.202689	-0.068673	0.000008
 550	5.4626e+01	18.1246	57.175935	-0.000101	-1.013445	-0.343364	0.000041
 551	5.4725e+01	18.0765	57.232455	-0.000142	-1.418822	-0.480710	0.000057
 552	5.4825e+01	18.0364	57.288975	-0.000142	-1.418822	-0.480710	0.000057
 553	5.4924e+01	17.9995	57.365680	-0.000193	-1.925545	-0.652392	0.000077
 554	5.5023e+01	17.9594	57.373755	-0.000020	-0.202689	-0.068673	0.000008
 555	5.5123e+01	17.9129	57.438349	-0.000162	-1.621511	-0.549383	0.000065
 556	5.5222e+01	17.8776	57.482757	-0.000111	-1.114789	-0.377701	0.000045
 557	5.5322e+01	17.8439	57.543314	-0.000152	-1.520167	-0.515046	0.000061
 558	5.5422e+01	17.8118	57.539277	0.000010	0.101344	0.034336	-0.000004
 559	5.5521e+01	17.7540	57.567537	-0.000071	-0.709411	-0.240355	0.000028
 560	5.5620e+01	17.7123	57.611946	-0.000111	-1.114789	-0.377701	0.000045
 561	5.5720e+01	17.6754	57.664428	-0.000132	-1.317478	-0.446374	0.000053
 562	5.5819e+01	17.6385	57.684614	-0.000051	-0.506722	-0.171682	0.000020
 563	5.5919e+01	17.6016	57.712874	-0.000071	-0.709411	-0.240355	0.000028
 564	5.6019e+01	17.5583	57.753245	-0.000101	-1.013445	-0.343364	0.000041
 565	5.6118e+01	17.5118	57.809765	-0.000142	-1.418822	-0.480710	0.000057
 566	5.6218e+01	17.4781	57.874359	-0.000162	-1.621511	-0.549383	0.000065
 567	5.6317e+01	17.4428	57.955102	-0.000203	-2.026889	-0.686729	0.000081
 568	5.6416e+01	17.3963	57.979325	-0.000061	-0.608067	-0.206019	0.000024
 569	5.6516e+01	17.3562	58.007585	-0.000071	-0.709411	-0.240355	0.000028
 570	5.6615e+01	17.3241	58.056030	-0.000122	-1.216133	-0.412037	0.000049
 571	5.6715e+01	17.2776	58.112550	-0.000142	-1.418822	-0.480710	0.000057
 572	5.6815e+01	17.2423	58.136773	-0.000061	-0.608067	-0.206019	0.000024
 573	5.6914e+01	17.1958	58.165033	-0.000071	-0.709411	-0.240355	0.000028
 574	5.7014e+01	17.1589	58.233664	-0.000172	-1.722856	-0.583719	0.000069
 575	5.7113e+01	17.1140	58.225590	0.000020	0.202689	0.068673	-0.000008
 576	5.7212e+01	17.0835	58.322481	-0.000243	-2.432267	-0.824074	0.000097
 577	5.7312e+01	17.0450	58.326519	-0.000010	-0.101344	-0.034336	0.000004
 578	5.7411e+01	17.0017	58.374964	-0.000122	-1.216133	-0.412037	0.000049
 579	5.7511e+01	16.9616	58.411298	-0.000091	-0.912100	-0.309028	0.000037
 580	5.7611e+01	16.9279	58.455707	-0.000111	-1.114789	-0.377701	0.000045
 581	5.7710e+01	16.8813	58.483967	-0.000071	-0.709411	-0.240355	0.000028
 582	5.7809e+01	16.8428	58.544524	-0.000152	-1.520167	-0.515046	0.000061
 583	5.7909e+01	16.7979	58.568747	-0.000061	-0.608067	-0.206019	0.000024
 584	5.8008e+01	16.7674	58.609118	-0.000101	-1.013445	-0.343364	0.000041
 585	5.8108e+01	16.7177	58.657564	-0.000122	-1.216133	-0.412037	0.000049
 586	5.8208e+01	16.6824	58.718121	-0.000152	-1.520167	-0.515046	0.000061
 587	5.8307e+01	16.6455	58.766566	-0.000122	-1.216133	-0.412037	0.000049
 588	5.8407e+01	16.5958	58.802901	-0.000091	-0.912100	-0.309028	0.000037
 589	5.8506e+01	16.5605	58.806938	-0.000010	-0.101344	-0.034336	0.000004
 590	5.8605e+01	16.5172	58.855383	-0.000122	-1.216133	-0.412037	0.000049
 591	5.8705e+01	16.4883	58.871532	-0.000041	-0.405378	-0.137346	0.000016
 592	5.8804e+01	16.4466	58.903829	-0.000081	-0.810756	-0.274691	0.000032
 593	5.8904e+01	16.4049	58.948237	-0.000111	-1.114789	-0.377701	0.000045
 594	5.9004e+01	16.3584	59.008795	-0.000152	-1.520167	-0.515046	0.000061
 595	5.9103e+01	16.3215	59.024943	-0.000041	-0.405378	-0.137346	0.000016
 596	5.9203e+01	16.2894	59.105686	-0.000203	-2.026889	-0.686729	0.000081
 597	5.9302e+01	16.2396	59.129909	-0.000061	-0.608067	-0.206019	0.000024
 598	5.9401e+01	16.2092	59.198540	-0.000172	-1.722856	-0.583719	0.000069
 599	5.9501e+01	16.1594	59.267171	-0.000172	-1.722856	-0.583719	0.000069
 600	5.9600e+01	16.1241	59.315617	-0.000122	-1.216133	-0.412037	0.000049
 601	5.9700e+01	16.0872	59.396360	-0.000203	-2.026889	-0.686729	0.000081
 602	5.9800e+01	16.0407	59.448842	-0.000132	-1.317478	-0.446374	0.000053
 603	5.9899e+01	16.0022	59.533622	-0.000213	-2.128233	-0.721065	0.000085
 604	5.9998e+01	15.9717	59.634551	-0.000253	-2.533611	-0.858411	0.000101
 605	6.0098e+01	15.9268	59.662811	-0.000071	-0.709411	-0.240355	0.000028
 606	6.0197e+01	15.8963	59.735479	-0.000182	-1.824200	-0.618056	0.000073
 607	6.0297e+01	15.8530	59.800073	-0.000162	-1.621511	-0.549383	0.000065
 608	6.0397e+01	15.8081	59.828333	-0.000071	-0.709411	-0.240355	0.000028
 609	6.0496e+01	15.7728	59.860630	-0.000081	-0.810756	-0.274691	0.000032
 610	6.0596e+01	15.7295	59.909076	-0.000122	-1.216133	-0.412037	0.000049
 611	6.0695e+01	15.6910	59.909076	-0.000000	-0.000000	-0.000000	0.000000
 612	6.0794e+01	15.6429	59.973670	-0.000162	-1.621511	-0.549383	0.000065
 613	6.0894e+01	15.6092	60.038264	-0.000162	-1.621511	-0.549383	0.000065
 614	6.0993e+01	15.5755	60.046338	-0.000020	-0.202689	-0.068673	0.000008
 615	6.1093e+01	15.5258	60.098821	-0.000132	-1.317478	-0.446374	0.000053
 616	6.1193e+01	15.4825	60.139193	-0.000101	-1.013445	-0.343364	0.000041
 617	6.1292e+01	15.4472	60.232047	-0.000233	-2.330922	-0.789738	0.000093
 618	6.1392e+01	15.4071	60.288567	-0.000142	-1.418822	-0.480710	0.000057
 619	6.1491e+01	15.3702	60.341049	-0.000132	-1.317478	-0.446374	0.000053
 620	6.1590e+01	15.3268	60.397569	-0.000142	-1.418822	-0.480710	0.000057
 621	6.1690e+01	15.2787	60.454089	-0.000142	-1.418822	-0.480710	0.000057
 622	6.1789e+01	15.2514	60.506572	-0.000132	-1.317478	-0.446374	0.000053
 623	6.1889e+01	15.2113	60.591352	-0.000213	-2.128233	-0.721065	0.000085
 624	6.1989e+01	15.1664	60.651909	-0.000152	-1.520167	-0.515046	0.000061
 625	6.2088e+01	15.1343	60.664020	-0.000030	-0.304033	-0.103009	0.000012
 626	6.2188e+01	15.0974	60.680169	-0.000041	-0.405378	-0.137346	0.000016
 627	6.2287e+01	15.0429	60.708429	-0.000071	-0.709411	-0.240355	0.000028
 628	6.2386e+01	15.0028	60.728614	-0.000051	-0.506722	-0.171682	0.000020
 629	6.2486e+01	14.9691	60.752837	-0.000061	-0.608067	-0.206019	0.000024
 630	6.2586e+01	14.9306	60.764949	-0.000030	-0.304033	-0.103009	0.000012
 631	6.2685e+01	14.8873	60.744763	0.000051	0.506722	0.171682	-0.000020
 632	6.2785e+01	14.8472	60.696317	0.000122	1.216133	0.412037	-0.000049
 633	6.2884e+01	14.8087	60.716503	-0.000051	-0.506722	-0.171682	0.000020
 634	6.2983e+01	14.7670	60.680169	0.000091	0.912100	0.309028	-0.000037
 635	6.3083e+01	14.7253	60.684206	-0.000010	-0.101344	-0.034336	0.000004
 636	6.3182e+01	14.6900	60.647872	0.000091	0.912100	0.309028	-0.000037
 637	6.3282e+01	14.6627	60.655946	-0.000020	-0.202689	-0.068673	0.000008
 638	6.3382e+01	14.6178	60.627686	0.000071	0.709411	0.240355	-0.000028
 639	6.3481e+01	14.5648	60.579240	0.000122	1.216133	0.412037	-0.000049
 640	6.3581e+01	14.5295	60.603463	-0.000061	-0.608067	-0.206019	0.000024
 641	6.3680e+01	14.4846	60.579240	0.000061	0.608067	0.206019	-0.000024
 642	6.3779e+01	14.4461	60.571166	0.000020	0.202689	0.068673	-0.000008
 643	6.3879e+01	14.4108	60.555018	0.000041	0.405378	0.137346	-0.000016
 644	6.3978e+01	14.3723	60.542906	0.000030	0.304033	0.103009	-0.000012
 645	6.4078e+01	14.3338	60.542906	-0.000000	-0.000000	-0.000000	0.000000
 646	6.4177e+01	14.2953	60.518683	0.000061	0.608067	0.206019	-0.000024
 647	6.4277e+01	14.2536	60.490423	0.000071	0.709411	0.240355	-0.000028
 648	6.4376e+01	14.2183	60.441978	0.000122	1.216133	0.412037	-0.000049
 649	6.4476e+01	14.1814	60.409681	0.000081	0.810756	0.274691	-0.000032
 650	6.4576e+01	14.1381	60.373346	0.000091	0.912100	0.309028	-0.000037
 651	6.4675e+01	14.0932	60.369309	0.000010	0.101344	0.034336	-0.000004
 652	6.4775e+01	14.0563	60.316826	0.000132	1.317478	0.446374	-0.000053
 653	6.4874e+01	14.0162	60.292604	0.000061	0.608067	0.206019	-0.000024
 654	6.4974e+01	13.9745	60.248195	0.000111	1.114789	0.377701	-0.000045
 655	6.5073e+01	13.9296	60.203787	0.000111	1.114789	0.377701	-0.000045
 656	6.5172e+01	13.8927	60.183601	0.000051	0.506722	0.171682	-0.000020
 657	6.5272e+01	13.8493	60.131118	0.000132	1.317478	0.446374	-0.000053
 658	6.5371e+01	13.8108	60.110933	0.000051	0.506722	0.171682	-0.000020
 659	6.5471e+01	13.7820	60.098821	0.000030	0.304033	0.103009	-0.000012
 660	6.5570e+01	13.7226	60.090747	0.000020	0.202689	0.068673	-0.000008
 661	6.5670e+01	13.6825	60.038264	0.000132	1.317478	0.446374	-0.000053
 662	6.5769e+01	13.6584	59.953484	0.000213	2.128233	0.721065	-0.000085
 663	6.5869e+01	13.6119	59.933299	0.000051	0.506722	0.171682	-0.000020
 664	6.5969e+01	13.5782	59.953484	-0.000051	-0.506722	-0.171682	0.000020
 665	6.6068e+01	13.5365	59.860630	0.000233	2.330922	0.789738	-0.000093
 666	6.6168e+01	13.4900	59.808147	0.000132	1.317478	0.446374	-0.000053
 667	6.6267e+01	13.4563	59.836407	-0.000071	-0.709411	-0.240355	0.000028
 668	6.6367e+01	13.4194	59.747590	0.000223	2.229578	0.755401	-0.000089
 669	6.6466e+01	13.3793	59.715293	0.000081	0.810756	0.274691	-0.000032
 670	6.6566e+01	13.3264	59.658773	0.000142	1.418822	0.480710	-0.000057
 671	6.6665e+01	13.2927	59.626476	0.000081	0.810756	0.274691	-0.000032
 672	6.6764e+01	13.2494	59.590142	0.000091	0.912100	0.309028	-0.000037
 673	6.6864e+01	13.2044	59.553808	0.000091	0.912100	0.309028	-0.000037
 674	6.6963e+01	13.1740	59.477102	0.000193	1.925545	0.652392	-0.000077
 675	6.7063e+01	13.1387	59.469028	0.000020	0.202689	0.068673	-0.000008
 676	6.7162e+01	13.0905	59.384248	0.000213	2.128233	0.721065	-0.000085
 677	6.7262e+01	13.0520	59.368100	0.000041	0.405378	0.137346	-0.000016
 678	6.7362e+01	13.0151	59.323691	0.000111	1.114789	0.377701	-0.000045
 679	6.7461e+01	12.9815	59.226800	0.000243	2.432267	0.824074	-0.000097
 680	6.7561e+01	12.9365	59.158169	0.000172	1.722856	0.583719	-0.000069
 681	6.7660e+01	12.8884	59.129909	0.000071	0.709411	0.240355	-0.000028
 682	6.7760e+01	12.8627	59.073389	0.000142	1.418822	0.480710	-0.000057
 683	6.7859e+01	12.8258	58.980535	0.000233	2.330922	0.789738	-0.000093
 684	6.7959e+01	12.7793	58.996683	-0.000041	-0.405378	-0.137346	0.000016
 685	6.8058e+01	12.7440	58.891718	0.000263	2.634956	0.892747	-0.000105
 686	6.8157e+01	12.7087	58.847309	0.000111	1.114789	0.377701	-0.000045
 687	6.8257e+01	12.6622	58.798863	0.000122	1.216133	0.412037	-0.000049
 688	6.8356e+01	12.6157	58.710046	0.000223	2.229578	0.755401	-0.000089
 689	6.8456e+01	12.5868	58.685824	0.000061	0.608067	0.206019	-0.000024
 690	6.8555e+01	12.5371	58.605081	0.000203	2.026889	0.686729	-0.000081
 691	6.8655e+01	12.5018	58.540487	0.000162	1.621511	0.549383	-0.000065
 692	6.8754e+01	12.4633	58.496078	0.000111	1.114789	0.377701	-0.000045
 693	6.8854e+01	12.4264	58.439558	0.000142	1.418822	0.480710	-0.000057
 694	6.8954e+01	12.3879	58.366890	0.000182	1.824200	0.618056	-0.000073
 695	6.9053e+01	12.3478	58.306333	0.000152	1.520167	0.515046	-0.000061
 696	6.9153e+01	12.2932	58.225590	0.000203	2.026889	0.686729	-0.000081
 697	6.9252e+01	12.2724	58.181182	0.000111	1.114789	0.377701	-0.000045
 698	6.9352e+01	12.2210	58.120625	0.000152	1.520167	0.515046	-0.000061
 699	6.9451e+01	12.1825	58.080253	0.000101	1.013445	0.343364	-0.000041
 700	6.9550e+01	12.1440	58.007585	0.000182	1.824200	0.618056	-0.000073
 701	6.9650e+01	12.1055	57.926842	0.000203	2.026889	0.686729	-0.000081
 702	6.9749e+01	12.0606	57.882434	0.000111	1.114789	0.377701	-0.000045
 703	6.9849e+01	12.0237	57.797654	0.000213	2.128233	0.721065	-0.000085
 704	6.9948e+01	11.9884	57.704800	0.000233	2.330922	0.789738	-0.000093
 705	7.0048e+01	11.9499	57.652317	0.000132	1.317478	0.446374	-0.000053
 706	7.0147e+01	11.9066	57.571574	0.000203	2.026889	0.686729	-0.000081
 707	7.0247e+01	11.8681	57.531203	0.000101	1.013445	0.343364	-0.000041
 708	7.0347e+01	11.8232	57.454497	0.000193	1.925545	0.652392	-0.000077
 709	7.0446e+01	11.7879	57.397977	0.000142	1.418822	0.480710	-0.000057
 710	7.0546e+01	11.7350	57.317235	0.000203	2.026889	0.686729	-0.000081
 711	7.0645e+01	11.7061	57.220343	0.000243	2.432267	0.824074	-0.000097
 712	7.0745e+01	11.6596	57.163823	0.000142	1.418822	0.480710	-0.000057
 713	7.0844e+01	11.6259	57.054821	0.000274	2.736300	0.927084	-0.000110
 714	7.0944e+01	11.5794	56.966004	0.000223	2.229578	0.755401	-0.000089
 715	7.1043e+01	11.5409	56.889298	0.000193	1.925545	0.652392	-0.000077
 716	7.1142e+01	11.5007	56.881224	0.000020	0.202689	0.068673	-0.000008
 717	7.1242e+01	11.4671	56.760110	0.000304	3.040334	1.030093	-0.000122
 718	7.1341e+01	11.4286	56.687441	0.000182	1.824200	0.618056	-0.000073
 719	7.1441e+01	11.3917	56.630922	0.000142	1.418822	0.480710	-0.000057
 720	7.1540e+01	11.3548	56.513845	0.000294	2.938989	0.995756	-0.000118
 721	7.1640e+01	11.3018	56.429065	0.000213	2.128233	0.721065	-0.000085
 722	7.1740e+01	11.2665	56.344285	0.000213	2.128233	0.721065	-0.000085
 723	7.1839e+01	11.2216	56.283728	0.000152	1.520167	0.515046	-0.000061
 724	7.1939e+01	11.1895	56.223171	0.000152	1.520167	0.515046	-0.000061
 725	7.2038e+01	11.1478	56.106094	0.000294	2.938989	0.995756	-0.000118
 726	7.2138e+01	11.1045	56.025351	0.000203	2.026889	0.686729	-0.000081
 727	7.2237e+01	11.0660	55.932497	0.000233	2.330922	0.789738	-0.000093
 728	7.2337e+01	11.0227	55.859829	0.000182	1.824200	0.618056	-0.000073
 729	7.2436e+01	10.9794	55.754863	0.000263	2.634956	0.892747	-0.000105
 730	7.2535e+01	10.9457	55.702380	0.000132	1.317478	0.446374	-0.000053
 731	7.2635e+01	10.9056	55.613563	0.000223	2.229578	0.755401	-0.000089
 732	7.2734e+01	10.8719	55.520709	0.000233	2.330922	0.789738	-0.000093
 733	7.2834e+01	10.8286	55.444004	0.000193	1.925545	0.652392	-0.000077
 734	7.2933e+01	10.7869	55.343075	0.000253	2.533611	0.858411	-0.000101
 735	7.3033e+01	10.7484	55.217924	0.000314	3.141678	1.064429	-0.000126
 736	7.3132e+01	10.7115	55.165441	0.000132	1.317478	0.446374	-0.000053
 737	7.3232e+01	10.6730	55.096810	0.000172	1.722856	0.583719	-0.000069
 738	7.3332e+01	10.6329	55.036253	0.000152	1.520167	0.515046	-0.000061
 739	7.3431e+01	10.5831	54.894953	0.000355	3.547056	1.201775	-0.000142
 740	7.3531e+01	10.5462	54.826322	0.000172	1.722856	0.583719	-0.000069
 741	7.3630e+01	10.5093	54.741542	0.000213	2.128233	0.721065	-0.000085
 742	7.3730e+01	10.4692	54.648688	0.000233	2.330922	0.789738	-0.000093
 743	7.3829e+01	10.4227	54.543722	0.000263	2.634956	0.892747	-0.000105
 744	7.3928e+01	10.3858	54.458943	0.000213	2.128233	0.721065	-0.000085
 745	7.4028e+01	10.3505	54.362051	0.000243	2.432267	0.824074	-0.000097
 746	7.4127e+01	10.3136	54.261123	0.000253	2.533611	0.858411	-0.000101
 747	7.4227e+01	10.2735	54.192492	0.000172	1.722856	0.583719	-0.000069
 748	7.4326e+01	10.2254	54.091563	0.000253	2.533611	0.858411	-0.000101
 749	7.4426e+01	10.1949	53.998709	0.000233	2.330922	0.789738	-0.000093
 750	7.4525e+01	10.1436	53.917966	0.000203	2.026889	0.686729	-0.000081
 751	7.4625e+01	10.1131	53.800889	0.000294	2.938989	0.995756	-0.000118
 752	7.4725e+01	10.0585	53.695924	0.000263	2.634956	0.892747	-0.000105
 753	7.4824e+01	10.0200	53.623255	0.000182	1.824200	0.618056	-0.000073
 754	7.4924e+01	9.9847	53.550587	0.000182	1.824200	0.618056	-0.000073
 755	7.5023e+01	9.9527	53.441584	0.000274	2.736300	0.927084	-0.000110
 756	7.5123e+01	9.9061	53.352767	0.000223	2.229578	0.755401	-0.000089
 757	7.5222e+01	9.8708	53.292210	0.000152	1.520167	0.515046	-0.000061
 758	7.5322e+01	9.8243	53.187245	0.000263	2.634956	0.892747	-0.000105
 759	7.5421e+01	9.7970	53.110539	0.000193	1.925545	0.652392	-0.000077
 760	7.5520e+01	9.7537	52.977314	0.000334	3.344367	1.133102	-0.000134
 761	7.5620e+01	9.7120	52.949054	0.000071	0.709411	0.240355	-0.000028
 762	7.5719e+01	9.6735	52.815828	0.000334	3.344367	1.133102	-0.000134
 763	7.5819e+01	9.6334	52.714900	0.000253	2.533611	0.858411	-0.000101
 764	7.5918e+01	9.5885	52.569563	0.000365	3.648400	1.236111	-0.000146
 765	7.6018e+01	9.5468	52.496895	0.000182	1.824200	0.618056	-0.000073
 766	7.6118e+01	9.5099	52.400003	0.000243	2.432267	0.824074	-0.000097
 767	7.6217e+01	9.4778	52.303112	0.000243	2.432267	0.824074	-0.000097
 768	7.6317e+01	9.4297	52.137589	0.000416	4.155123	1.407794	-0.000166
 769	7.6416e+01	9.3992	52.060884	0.000193	1.925545	0.652392	-0.000077
 770	7.6516e+01	9.3463	51.951881	0.000274	2.736300	0.927084	-0.000110
 771	7.6615e+01	9.3190	51.838841	0.000284	2.837645	0.961420	-0.000114
 772	7.6715e+01	9.2693	51.758099	0.000203	2.026889	0.686729	-0.000081
 773	7.6814e+01	9.2372	51.612762	0.000365	3.648400	1.236111	-0.000146
 774	7.6913e+01	9.1987	51.515871	0.000243	2.432267	0.824074	-0.000097
 775	7.7013e+01	9.1473	51.402831	0.000284	2.837645	0.961420	-0.000114
 776	7.7112e+01	9.1136	51.285754	0.000294	2.938989	0.995756	-0.000118
 777	7.7212e+01	9.0864	51.184825	0.000253	2.533611	0.858411	-0.000101
 778	7.7311e+01	9.0334	51.047563	0.000345	3.445711	1.167439	-0.000138
 779	7.7411e+01	8.9917	50.934523	0.000284	2.837645	0.961420	-0.000114
 780	7.7510e+01	8.9436	50.833595	0.000253	2.533611	0.858411	-0.000101
 781	7.7610e+01	8.9131	50.696332	0.000345	3.445711	1.167439	-0.000138
 782	7.7710e+01	8.8666	50.583292	0.000284	2.837645	0.961420	-0.000114
 783	7.7809e+01	8.8313	50.494475	0.000223	2.229578	0.755401	-0.000089
 784	7.7909e+01	8.8040	50.365287	0.000324	3.243022	1.098766	-0.000130
 785	7.8008e+01	8.7559	50.252247	0.000284	2.837645	0.961420	-0.000114
 786	7.8108e+01	8.7158	50.102873	0.000375	3.749745	1.270448	-0.000150
 787	7.8207e+01	8.6757	49.981759	0.000304	3.040334	1.030093	-0.000122
 788	7.8306e+01	8.6372	49.884868	0.000243	2.432267	0.824074	-0.000097
 789	7.8406e+01	8.5955	49.755679	0.000324	3.243022	1.098766	-0.000130
 790	7.8505e+01	8.5586	49.630528	0.000314	3.141678	1.064429	-0.000126
 791	7.8605e+01	8.5297	49.513451	0.000294	2.938989	0.995756	-0.000118
 792	7.8704e+01	8.4800	49.408486	0.000263	2.634956	0.892747	-0.000105
 793	7.8804e+01	8.4415	49.275260	0.000334	3.344367	1.133102	-0.000134
 794	7.8903e+01	8.3950	49.182406	0.000233	2.330922	0.789738	-0.000093
 795	7.9003e+01	8.3661	49.045144	0.000345	3.445711	1.167439	-0.000138
 796	7.9103e+01	8.3228	48.891732	0.000385	3.851089	1.304784	-0.000154
 797	7.9202e+01	8.2730	48.782730	0.000274	2.736300	0.927084	-0.000110
 798	7.9302e+01	8.2345	48.629319	0.000385	3.851089	1.304784	-0.000154
 799	7.9401e+01	8.1928	48.532427	0.000243	2.432267	0.824074	-0.000097
 800	7.9501e+01	8.1511	48.423425	0.000274	2.736300	0.927084	-0.000110
 801	7.9600e+01	8.1078	48.294236	0.000324	3.243022	1.098766	-0.000130
 802	7.9700e+01	8.0789	48.173122	0.000304	3.040334	1.030093	-0.000122
 803	7.9799e+01	8.0388	48.035860	0.000345	3.445711	1.167439	-0.000138
 804	7.9898e+01	8.0003	47.918783	0.000294	2.938989	0.995756	-0.000118
 805	7.9998e+01	7.9602	47.821891	0.000243	2.432267	0.824074	-0.000097
 806	8.0097e+01	7.9169	47.668480	0.000385	3.851089	1.304784	-0.000154
 807	8.0197e+01	7.8720	47.527180	0.000355	3.547056	1.201775	-0.000142
 808	8.0296e+01	7.8351	47.389918	0.000345	3.445711	1.167439	-0.000138
 809	8.0396e+01	7.7934	47.288989	0.000253	2.533611	0.858411	-0.000101
 810	8.0496e+01	7.7629	47.167875	0.000304	3.040334	1.030093	-0.000122
 811	8.0595e+01	7.7115	47.010427	0.000395	3.952434	1.339121	-0.000158
 812	8.0695e+01	7.6763	46.885276	0.000314	3.141678	1.064429	-0.000126
 813	8.0794e+01	7.6394	46.756088	0.000324	3.243022	1.098766	-0.000130
 814	8.0894e+01	7.5993	46.602676	0.000385	3.851089	1.304784	-0.000154
 815	8.0993e+01	7.5511	46.473488	0.000324	3.243022	1.098766	-0.000130
 816	8.1093e+01	7.5126	46.336225	0.000345	3.445711	1.167439	-0.000138
 817	8.1192e+01	7.4837	46.190889	0.000365	3.648400	1.236111	-0.000146
 818	8.1291e+01	7.4420	46.081886	0.000274	2.736300	0.927084	-0.000110
 819	8.1391e+01	7.4003	45.944623	0.000345	3.445711	1.167439	-0.000138
 820	8.1490e+01	7.3538	45.779101	0.000416	4.155123	1.407794	-0.000166
 821	8.1590e+01	7.3249	45.686247	0.000233	2.330922	0.789738	-0.000093
 822	8.1689e+01	7.2832	45.581281	0.000263	2.634956	0.892747	-0.000105
 823	8.1789e+01	7.2335	45.411721	0.000426	4.256467	1.442130	-0.000170
 824	8.1888e+01	7.1982	45.294644	0.000294	2.938989	0.995756	-0.000118
 825	8.1988e+01	7.1597	45.137196	0.000395	3.952434	1.339121	-0.000158
 826	8.2088e+01	7.1132	44.987822	0.000375	3.749745	1.270448	-0.000150
 827	8.2187e+01	7.0779	44.842485	0.000365	3.648400	1.236111	-0.000146
 828	8.2287e+01	7.0362	44.749631	0.000233	2.330922	0.789738	-0.000093
 829	8.2386e+01	7.0057	44.596220	0.000385	3.851089	1.304784	-0.000154
 830	8.2486e+01	6.9543	44.467032	0.000324	3.243022	1.098766	-0.000130
 831	8.2585e+01	6.9158	44.321695	0.000365	3.648400	1.236111	-0.000146
 832	8.2684e+01	6.8838	44.140024	0.000456	4.560500	1.545139	-0.000183
 833	8.2784e+01	6.8356	43.986612	0.000385	3.851089	1.304784	-0.000154
 834	8.2883e+01	6.7987	43.837238	0.000375	3.749745	1.270448	-0.000150
 835	8.2983e+01	6.7538	43.728236	0.000274	2.736300	0.927084	-0.000110
 836	8.3082e+01	6.7314	43.595010	0.000334	3.344367	1.133102	-0.000134
 837	8.3182e+01	6.6688	43.445636	0.000375	3.749745	1.270448	-0.000150
 838	8.3281e+01	6.6463	43.312411	0.000334	3.344367	1.133102	-0.000134
 839	8.3381e+01	6.5966	43.150925	0.000405	4.053778	1.373457	-0.000162
 840	8.3481e+01	6.5613	43.013663	0.000345	3.445711	1.167439	-0.000138
 841	8.3580e+01	6.5292	42.852177	0.000405	4.053778	1.373457	-0.000162
 842	8.3680e+01	6.4763	42.698766	0.000385	3.851089	1.304784	-0.000154
 843	8.3779e+01	6.4538	42.573615	0.000314	3.141678	1.064429	-0.000126
 844	8.3879e+01	6.4073	42.460575	0.000284	2.837645	0.961420	-0.000114
 845	8.3978e+01	6.3608	42.291015	0.000426	4.256467	1.442130	-0.000170
 846	8.4078e+01	6.3207	42.173938	0.000294	2.938989	0.995756	-0.000118
 847	8.4177e+01	6.2918	42.004379	0.000426	4.256467	1.442130	-0.000170
 848	8.4276e+01	6.2453	41.846930	0.000395	3.952434	1.339121	-0.000158
 849	8.4376e+01	6.2004	41.673334	0.000436	4.357811	1.476466	-0.000174
 850	8.4475e+01	6.1683	41.564331	0.000274	2.736300	0.927084	-0.000110
 851	8.4575e+01	6.1250	41.414957	0.000375	3.749745	1.270448	-0.000150
 852	8.4674e+01	6.0816	41.261546	0.000385	3.851089	1.304784	-0.000154
 853	8.4774e+01	6.0415	41.104098	0.000395	3.952434	1.339121	-0.000158
 854	8.4874e+01	6.0046	40.938575	0.000416	4.155123	1.407794	-0.000166
 855	8.4973e+01	5.9645	40.829572	0.000274	2.736300	0.927084	-0.000110
 856	8.5073e+01	5.9308	40.692310	0.000345	3.445711	1.167439	-0.000138
 857	8.5172e+01	5.8827	40.538899	0.000385	3.851089	1.304784	-0.000154
 858	8.5272e+01	5.8587	40.369339	0.000426	4.256467	1.442130	-0.000170
 859	8.5371e+01	5.8089	40.228039	0.000355	3.547056	1.201775	-0.000142
 860	8.5471e+01	5.7704	40.078665	0.000375	3.749745	1.270448	-0.000150
 861	8.5570e+01	5.7239	39.913142	0.000416	4.155123	1.407794	-0.000166
 862	8.5669e+01	5.6854	39.771843	0.000355	3.547056	1.201775	-0.000142
 863	8.5769e+01	5.6469	39.606320	0.000416	4.155123	1.407794	-0.000166
 864	8.5868e+01	5.6084	39.465020	0.000355	3.547056	1.201775	-0.000142
 865	8.5968e+01	5.5667	39.303535	0.000405	4.053778	1.373457	-0.000162
 866	8.6067e+01	5.5298	39.150124	0.000385	3.851089	1.304784	-0.000154
 867	8.6167e+01	5.4913	39.033047	0.000294	2.938989	0.995756	-0.000118
 868	8.6266e+01	5.4480	38.871561	0.000405	4.053778	1.373457	-0.000162
 869	8.6366e+01	5.4015	38.722187	0.000375	3.749745	1.270448	-0.000150
 870	8.6466e+01	5.3678	38.556665	0.000416	4.155123	1.407794	-0.000166
 871	8.6565e+01	5.3341	38.423439	0.000334	3.344367	1.133102	-0.000134
 872	8.6665e+01	5.2940	38.233694	0.000476	4.763189	1.613812	-0.000191
 873	8.6764e+01	5.2442	38.096431	0.000345	3.445711	1.167439	-0.000138
 874	8.6864e+01	5.2009	37.930909	0.000416	4.155123	1.407794	-0.000166
 875	8.6963e+01	5.1608	37.781535	0.000375	3.749745	1.270448	-0.000150
 876	8.7063e+01	5.1255	37.636198	0.000365	3.648400	1.236111	-0.000146
 877	8.7162e+01	5.0806	37.478750	0.000395	3.952434	1.339121	-0.000158
 878	8.7261e+01	5.0501	37.329376	0.000375	3.749745	1.270448	-0.000150
 879	8.7361e+01	5.0068	37.175964	0.000385	3.851089	1.304784	-0.000154
 880	8.7460e+01	4.9683	37.038702	0.000345	3.445711	1.167439	-0.000138
 881	8.7560e+01	4.9298	36.848956	0.000476	4.763189	1.613812	-0.000191
 882	8.7659e+01	4.8977	36.695545	0.000385	3.851089	1.304784	-0.000154
 883	8.7759e+01	4.8464	36.542134	0.000385	3.851089	1.304784	-0.000154
 884	8.7859e+01	4.8127	36.384686	0.000395	3.952434	1.339121	-0.000158
 885	8.7958e+01	4.7646	36.211089	0.000436	4.357811	1.476466	-0.000174
 886	8.8058e+01	4.7293	36.057678	0.000385	3.851089	1.304784	-0.000154
 887	8.8157e+01	4.6908	35.916378	0.000355	3.547056	1.201775	-0.000142
 888	8.8257e+01	4.6539	35.771041	0.000365	3.648400	1.236111	-0.000146
 889	8.8356e+01	4.6074	35.609556	0.000405	4.053778	1.373457	-0.000162
 890	8.8456e+01	4.5705	35.452107	0.000395	3.952434	1.339121	-0.000158
 891	8.8555e+01	4.5432	35.254288	0.000497	4.965878	1.682485	-0.000199
 892	8.8654e+01	4.4951	35.112988	0.000355	3.547056	1.201775	-0.000142
 893	8.8754e+01	4.4421	34.967651	0.000365	3.648400	1.236111	-0.000146
 894	8.8853e+01	4.4148	34.761757	0.000517	5.168567	1.751158	-0.000207
 895	8.8953e+01	4.3763	34.672940	0.000223	2.229578	0.755401	-0.000089
 896	8.9052e+01	4.3314	34.527603	0.000365	3.648400	1.236111	-0.000146
 897	8.9152e+01	4.2945	34.317672	0.000527	5.269911	1.785494	-0.000211
 898	8.9251e+01	4.2512	34.176373	0.000355	3.547056	1.201775	-0.000142
 899	8.9351e+01	4.2127	34.035073	0.000355	3.547056	1.201775	-0.000142
 900	8.9451e+01	4.1822	33.877625	0.000395	3.952434	1.339121	-0.000158
 901	8.9550e+01	4.1373	33.732288	0.000365	3.648400	1.236111	-0.000146
 902	8.9650e+01	4.0924	33.546579	0.000466	4.661845	1.579476	-0.000187
 903	8.9749e+01	4.0507	33.409317	0.000345	3.445711	1.167439	-0.000138
 904	8.9849e+01	4.0122	33.259943	0.000375	3.749745	1.270448	-0.000150
 905	8.9948e+01	3.9721	33.102494	0.000395	3.952434	1.339121	-0.000158
 906	9.0047e+01	3.9352	32.957158	0.000365	3.648400	1.236111	-0.000146
 907	9.0147e+01	3.8935	32.775486	0.000456	4.560500	1.545139	-0.000183
 908	9.0246e+01	3.8550	32.626112	0.000375	3.749745	1.270448	-0.000150
 909	9.0346e+01	3.8181	32.464627	0.000405	4.053778	1.373457	-0.000162
 910	9.0445e+01	3.7716	32.319290	0.000365	3.648400	1.236111	-0.000146
 911	9.0545e+01	3.7298	32.153768	0.000416	4.155123	1.407794	-0.000166
 912	9.0644e+01	3.6881	31.992282	0.000405	4.053778	1.373457	-0.000162
 913	9.0744e+01	3.6512	31.834834	0.000395	3.952434	1.339121	-0.000158
 914	9.0844e+01	3.6208	31.681423	0.000385	3.851089	1.304784	-0.000154
 915	9.0943e+01	3.5790	31.536086	0.000365	3.648400	1.236111	-0.000146
 916	9.1043e+01	3.5405	31.370563	0.000416	4.155123	1.407794	-0.000166
 917	9.1142e+01	3.5020	31.237338	0.000334	3.344367	1.133102	-0.000134
 918	9.1242e+01	3.4539	31.059704	0.000446	4.459156	1.510803	-0.000179
 919	9.1341e+01	3.4154	30.890144	0.000426	4.256467	1.442130	-0.000170
 920	9.1441e+01	3.3817	30.708473	0.000456	4.560500	1.545139	-0.000183
 921	9.1540e+01	3.3416	30.603507	0.000263	2.634956	0.892747	-0.000105
 922	9.1639e+01	3.3015	30.409725	0.000486	4.864534	1.648149	-0.000195
 923	9.1739e+01	3.2598	30.288611	0.000304	3.040334	1.030093	-0.000122
 924	9.1838e+01	3.2229	30.106940	0.000456	4.560500	1.545139	-0.000183
 925	9.1938e+01	3.1812	29.945454	0.000405	4.053778	1.373457	-0.000162
 926	9.2037e+01	3.1331	29.783969	0.000405	4.053778	1.373457	-0.000162
 927	9.2137e+01	3.1042	29.638632	0.000365	3.648400	1.236111	-0.000146
 928	9.2237e+01	3.0673	29.460998	0.000446	4.459156	1.510803	-0.000179
 929	9.2336e+01	3.0095	29.291438	0.000426	4.256467	1.442130	-0.000170
 930	9.2436e+01	2.9855	29.170324	0.000304	3.040334	1.030093	-0.000122
 931	9.2535e+01	2.9390	28.992690	0.000446	4.459156	1.510803	-0.000179
 932	9.2635e+01	2.9053	28.790834	0.000507	5.067223	1.716821	-0.000203
 933	9.2734e+01	2.8523	28.625311	0.000416	4.155123	1.407794	-0.000166
 934	9.2834e+01	2.8090	28.536494	0.000223	2.229578	0.755401	-0.000089
 935	9.2933e+01	2.7753	28.314451	0.000557	5.573945	1.888504	-0.000223
 936	9.3032e+01	2.7336	28.185263	0.000324	3.243022	1.098766	-0.000130
 937	9.3132e+01	2.6951	28.031852	0.000385	3.851089	1.304784	-0.000154
 938	9.3231e+01	2.6582	27.890552	0.000355	3.547056	1.201775	-0.000142
 939	9.3331e+01	2.6165	27.733104	0.000395	3.952434	1.339121	-0.000158
 940	9.3430e+01	2.5684	27.543359	0.000476	4.763189	1.613812	-0.000191
 941	9.3530e+01	2.5363	27.373799	0.000426	4.256467	1.442130	-0.000170
 942	9.3629e+01	2.4994	27.192128	0.000456	4.560500	1.545139	-0.000183
 943	9.3729e+01	2.4625	27.014494	0.000446	4.459156	1.510803	-0.000179
 944	9.3829e+01	2.4256	26.905491	0.000274	2.736300	0.927084	-0.000110
 945	9.3928e+01	2.3855	26.739969	0.000416	4.155123	1.407794	-0.000166
 946	9.4028e+01	2.3438	26.590595	0.000375	3.749745	1.270448	-0.000150
 947	9.4127e+01	2.2973	26.416998	0.000436	4.357811	1.476466	-0.000174
 948	9.4227e+01	2.2620	26.243401	0.000436	4.357811	1.476466	-0.000174
 949	9.4326e+01	2.2106	26.110175	0.000334	3.344367	1.133102	-0.000134
 950	9.4425e+01	2.1818	25.892170	0.000547	5.472600	1.854167	-0.000219
 951	9.4525e+01	2.1368	25.738759	0.000385	3.851089	1.304784	-0.000154
 952	9.4624e+01	2.0935	25.581311	0.000395	3.952434	1.339121	-0.000158
 953	9.4724e+01	2.0630	25.452122	0.000324	3.243022	1.098766	-0.000130
 954	9.4823e+01	2.0245	25.298711	0.000385	3.851089	1.304784	-0.000154
 955	9.4923e+01	1.9828	25.141263	0.000395	3.952434	1.339121	-0.000158
 956	9.5022e+01	1.9411	24.911146	0.000578	5.776634	1.957176	-0.000231
 957	9.5122e+01	1.9010	24.806181	0.000263	2.634956	0.892747	-0.000105
 958	9.5222e+01	1.8641	24.644695	0.000405	4.053778	1.373457	-0.000162
 959	9.5321e+01	1.8240	24.463024	0.000456	4.560500	1.545139	-0.000183
 960	9.5421e+01	1.7759	24.285390	0.000446	4.459156	1.510803	-0.000179
 961	9.5520e+01	1.7390	24.123905	0.000405	4.053778	1.373457	-0.000162
 962	9.5620e+01	1.6973	23.974531	0.000375	3.749745	1.270448	-0.000150
 963	9.5719e+01	1.6620	23.813045	0.000405	4.053778	1.373457	-0.000162
 964	9.5819e+01	1.6171	23.639448	0.000436	4.357811	1.476466	-0.000174
 965	9.5918e+01	1.5802	23.477963	0.000405	4.053778	1.373457	-0.000162
 966	9.6017e+01	1.5449	23.328589	0.000375	3.749745	1.270448	-0.000150
 967	9.6117e+01	1.5048	23.163066	0.000416	4.155123	1.407794	-0.000166
 968	9.6216e+01	1.4631	22.981395	0.000456	4.560500	1.545139	-0.000183
 969	9.6316e+01	1.4246	22.807798	0.000436	4.357811	1.476466	-0.000174
 970	9.6415e+01	1.3861	22.662461	0.000365	3.648400	1.236111	-0.000146
 971	9.6515e+01	1.3427	22.500976	0.000405	4.053778	1.373457	-0.000162
 972	9.6615e+01	1.3058	22.339491	0.000405	4.053778	1.373457	-0.000162
 973	9.6714e+01	1.2641	22.157819	0.000456	4.560500	1.545139	-0.000183
 974	9.6814e+01	1.2304	21.988260	0.000426	4.256467	1.442130	-0.000170
 975	9.6913e+01	1.1791	21.842923	0.000365	3.648400	1.236111	-0.000146
 976	9.7013e+01	1.1470	21.677400	0.000416	4.155123	1.407794	-0.000166
 977	9.7112e+01	1.1053	21.507841	0.000426	4.256467	1.442130	-0.000170
 978	9.7212e+01	1.0604	21.382689	0.000314	3.141678	1.064429	-0.000126
 979	9.7311e+01	1.0331	21.184870	0.000497	4.965878	1.682485	-0.000199
 980	9.7410e+01	0.9818	21.055681	0.000324	3.243022	1.098766	-0.000130
 981	9.7510e+01	0.9577	20.861899	0.000486	4.864534	1.648149	-0.000195
 982	9.7609e+01	0.9032	20.696376	0.000416	4.155123	1.407794	-0.000166
 983	9.7709e+01	0.8647	20.526817	0.000426	4.256467	1.442130	-0.000170
 984	9.7808e+01	0.8166	20.337071	0.000476	4.763189	1.613812	-0.000191
 985	9.7908e+01	0.7813	20.195772	0.000355	3.547056	1.201775	-0.000142
 986	9.8007e+01	0.7428	20.034286	0.000405	4.053778	1.373457	-0.000162
 987	9.8107e+01	0.7059	19.897023	0.000345	3.445711	1.167439	-0.000138
 988	9.8207e+01	0.6642	19.699204	0.000497	4.965878	1.682485	-0.000199
 989	9.8306e+01	0.6240	19.557904	0.000355	3.547056	1.201775	-0.000142
 990	9.8406e+01	0.5871	19.404493	0.000385	3.851089	1.304784	-0.000154
 991	9.8505e+01	0.5406	19.182450	0.000557	5.573945	1.888504	-0.000223
 992	9.8605e+01	0.5053	19.077485	0.000263	2.634956	0.892747	-0.000105
 993	9.8704e+01	0.4652	18.911962	0.000416	4.155123	1.407794	-0.000166
 994	9.8803e+01	0.4187	18.702031	0.000527	5.269911	1.785494	-0.000211
 995	9.8903e+01	0.3802	18.544583	0.000395	3.952434	1.339121	-0.000158
 996	9.9002e+01	0.3481	18.399246	0.000365	3.648400	1.236111	-0.000146
 997	9.9102e+01	0.3080	18.189315	0.000527	5.269911	1.785494	-0.000211
 998	9.9201e+01	0.2631	18.039941	0.000375	3.749745	1.270448	-0.000150
 999	9.9301e+01	0.2262	17.886530	0.000385	3.851089	1.304784	-0.000154
1000	9.9400e+01	0.1781	17.729082	0.000395	3.952434	1.339121	-0.000158
1001	9.9500e+01	0.1492	17.515113	0.000537	5.371256	1.819831	-0.000215
1002	9.9600e+01	0.1011	17.385925	0.000324	3.243022	1.098766	-0.000130
1003	9.9699e+01	0.0738	17.196180	0.000476	4.763189	1.613812	-0.000191
1004	9.9799e+01	0.0353	17.062954	0.000334	3.344367	1.133102	-0.000134
1005	9.9898e+01	-0.0048	16.937803	0.000314	3.141678	1.064429	-0.000126
1006	9.9998e+01	-0.0465	16.764206	0.000436	4.357811	1.476466	-0.000174
1007	1.0010e+02	-0.0818	16.582535	0.000456	4.560500	1.545139	-0.000183
1008	1.0020e+02	-0.1171	16.400864	0.000456	4.560500	1.545139	-0.000183
1009	1.0030e+02	-0.1620	16.243416	0.000395	3.952434	1.339121	-0.000158
1010	1.0040e+02	-0.2021	16.110190	0.000334	3.344367	1.133102	-0.000134
1011	1.0050e+02	-0.2342	15.908333	0.000507	5.067223	1.716821	-0.000203
1012	1.0059e+02	-0.2775	15.738774	0.000426	4.256467	1.442130	-0.000170
1013	1.0069e+02	-0.3273	15.569214	0.000426	4.256467	1.442130	-0.000170
1014	1.0079e+02	-0.3642	15.427914	0.000355	3.547056	1.201775	-0.000142
1015	1.0089e+02	-0.3962	15.226057	0.000507	5.067223	1.716821	-0.000203
1016	1.0099e+02	-0.4540	15.076683	0.000375	3.749745	1.270448	-0.000150
1017	1.0109e+02	-0.4845	14.919235	0.000395	3.952434	1.339121	-0.000158
1018	1.0119e+02	-0.5166	14.753713	0.000416	4.155123	1.407794	-0.000166
1019	1.0129e+02	-0.5695	14.600301	0.000385	3.851089	1.304784	-0.000154
1020	1.0139e+02	-0.5984	14.475150	0.000314	3.141678	1.064429	-0.000126
1021	1.0149e+02	-0.6449	14.228885	0.000618	6.182012	2.094522	-0.000248
1022	1.0159e+02	-0.6898	14.099697	0.000324	3.243022	1.098766	-0.000130
1023	1.0169e+02	-0.7187	13.930137	0.000426	4.256467	1.442130	-0.000170
1024	1.0179e+02	-0.7668	13.792874	0.000345	3.445711	1.167439	-0.000138
1025	1.0189e+02	-0.7973	13.599092	0.000486	4.864534	1.648149	-0.000195
1026	1.0199e+02	-0.8422	13.401272	0.000497	4.965878	1.682485	-0.000199
1027	1.0209e+02	-0.8839	13.284195	0.000294	2.938989	0.995756	-0.000118
1028	1.0219e+02	-0.9128	13.090413	0.000486	4.864534	1.648149	-0.000195
1029	1.0229e+02	-0.9657	12.932964	0.000395	3.952434	1.339121	-0.000158
1030	1.0239e+02	-0.9946	12.795702	0.000345	3.445711	1.167439	-0.000138
1031	1.0248e+02	-1.0395	12.589808	0.000517	5.168567	1.751158	-0.000207
1032	1.0258e+02	-1.0796	12.452545	0.000345	3.445711	1.167439	-0.000138
1033	1.0268e+02	-1.1246	12.287023	0.000416	4.155123	1.407794	-0.000166
1034	1.0278e+02	-1.1647	12.121500	0.000416	4.155123	1.407794	-0.000166
1035	1.0288e+02	-1.2048	11.951940	0.000426	4.256467	1.442130	-0.000170
1036	1.0298e+02	-1.2304	11.851012	0.000253	2.533611	0.858411	-0.000101
1037	1.0308e+02	-1.2818	11.641081	0.000527	5.269911	1.785494	-0.000211
1038	1.0318e+02	-1.3203	11.479595	0.000405	4.053778	1.373457	-0.000162
1039	1.0328e+02	-1.3620	11.310036	0.000426	4.256467	1.442130	-0.000170
1040	1.0338e+02	-1.3989	11.152587	0.000395	3.952434	1.339121	-0.000158
1041	1.0348e+02	-1.4358	11.035511	0.000294	2.938989	0.995756	-0.000118
1042	1.0358e+02	-1.4775	10.821542	0.000537	5.371256	1.819831	-0.000215
1043	1.0368e+02	-1.5224	10.688317	0.000334	3.344367	1.133102	-0.000134
1044	1.0378e+02	-1.5609	10.494534	0.000486	4.864534	1.648149	-0.000195
1045	1.0388e+02	-1.5930	10.316900	0.000446	4.459156	1.510803	-0.000179
1046	1.0398e+02	-1.6427	10.167526	0.000375	3.749745	1.270448	-0.000150
1047	1.0408e+02	-1.6828	10.042375	0.000314	3.141678	1.064429	-0.000126
1048	1.0418e+02	-1.7165	9.856667	0.000466	4.661845	1.579476	-0.000187
1049	1.0428e+02	-1.7647	9.703256	0.000385	3.851089	1.304784	-0.000154
1050	1.0438e+02	-1.7871	9.493325	0.000527	5.269911	1.785494	-0.000211
1051	1.0447e+02	-1.8417	9.347988	0.000365	3.648400	1.236111	-0.000146
1052	1.0457e+02	-1.8770	9.190540	0.000395	3.952434	1.339121	-0.000158
1053	1.0467e+02	-1.9203	9.012906	0.000446	4.459156	1.510803	-0.000179
1054	1.0477e+02	-1.9604	8.851420	0.000405	4.053778	1.373457	-0.000162
1055	1.0487e+02	-1.9941	8.677823	0.000436	4.357811	1.476466	-0.000174
1056	1.0497e+02	-2.0326	8.520375	0.000395	3.952434	1.339121	-0.000158
1057	1.0507e+02	-2.0807	8.346778	0.000436	4.357811	1.476466	-0.000174
1058	1.0517e+02	-2.1208	8.181256	0.000416	4.155123	1.407794	-0.000166
1059	1.0527e+02	-2.1577	8.060142	0.000304	3.040334	1.030093	-0.000122
1060	1.0537e+02	-2.1946	7.866359	0.000486	4.864534	1.648149	-0.000195
1061	1.0547e+02	-2.2331	7.712948	0.000385	3.851089	1.304784	-0.000154
1062	1.0557e+02	-2.2748	7.571648	0.000355	3.547056	1.201775	-0.000142
1063	1.0567e+02	-2.3085	7.406126	0.000416	4.155123	1.407794	-0.000166
1064	1.0577e+02	-2.3550	7.244640	0.000405	4.053778	1.373457	-0.000162
1065	1.0587e+02	-2.3967	7.083155	0.000405	4.053778	1.373457	-0.000162
1066	1.0597e+02	-2.4384	6.913595	0.000426	4.256467	1.442130	-0.000170
1067	1.0607e+02	-2.4785	6.744035	0.000426	4.256467	1.442130	-0.000170
1068	1.0617e+02	-2.5122	6.566401	0.000446	4.459156	1.510803	-0.000179
1069	1.0627e+02	-2.5555	6.425102	0.000355	3.547056	1.201775	-0.000142
1070	1.0637e+02	-2.5956	6.243430	0.000456	4.560500	1.545139	-0.000183
1071	1.0647e+02	-2.6374	6.114242	0.000324	3.243022	1.098766	-0.000130
1072	1.0656e+02	-2.6759	5.900274	0.000537	5.371256	1.819831	-0.000215
1073	1.0666e+02	-2.7047	5.815494	0.000213	2.128233	0.721065	-0.000085
1074	1.0676e+02	-2.7609	5.617674	0.000497	4.965878	1.682485	-0.000199
1075	1.0686e+02	-2.7930	5.452152	0.000416	4.155123	1.407794	-0.000166
1076	1.0696e+02	-2.8283	5.306815	0.000365	3.648400	1.236111	-0.000146
1077	1.0706e+02	-2.8796	5.141292	0.000416	4.155123	1.407794	-0.000166
1078	1.0716e+02	-2.9181	5.016141	0.000314	3.141678	1.064429	-0.000126
1079	1.0726e+02	-2.9598	4.802173	0.000537	5.371256	1.819831	-0.000215
1080	1.0736e+02	-2.9855	4.652799	0.000375	3.749745	1.270448	-0.000150
1081	1.0746e+02	-3.0320	4.491314	0.000405	4.053778	1.373457	-0.000162
1082	1.0756e+02	-3.0785	4.374237	0.000294	2.938989	0.995756	-0.000118
1083	1.0766e+02	-3.1138	4.180454	0.000486	4.864534	1.648149	-0.000195
1084	1.0776e+02	-3.1555	4.031080	0.000375	3.749745	1.270448	-0.000150
1085	1.0786e+02	-3.1908	3.893817	0.000345	3.445711	1.167439	-0.000138
1086	1.0796e+02	-3.2389	3.736369	0.000395	3.952434	1.339121	-0.000158
1087	1.0806e+02	-3.2662	3.570847	0.000416	4.155123	1.407794	-0.000166
1088	1.0816e+02	-3.3127	3.425510	0.000365	3.648400	1.236111	-0.000146
1089	1.0826e+02	-3.3577	3.247876	0.000446	4.459156	1.510803	-0.000179
1090	1.0836e+02	-3.3897	3.102539	0.000365	3.648400	1.236111	-0.000146
1091	1.0845e+02	-3.4266	2.924905	0.000446	4.459156	1.510803	-0.000179
1092	1.0855e+02	-3.4748	2.747271	0.000446	4.459156	1.510803	-0.000179
1093	1.0865e+02	-3.5133	2.642305	0.000263	2.634956	0.892747	-0.000105
1094	1.0875e+02	-3.5502	2.456597	0.000466	4.661845	1.579476	-0.000187
1095	1.0885e+02	-3.5935	2.311260	0.000365	3.648400	1.236111	-0.000146
1096	1.0895e+02	-3.6432	2.121515	0.000476	4.763189	1.613812	-0.000191
1097	1.0905e+02	-3.6737	1.988289	0.000334	3.344367	1.133102	-0.000134
1098	1.0915e+02	-3.6994	1.818730	0.000426	4.256467	1.442130	-0.000170
1099	1.0925e+02	-3.7523	1.697616	0.000304	3.040334	1.030093	-0.000122
1100	1.0935e+02	-3.7988	1.483647	0.000537	5.371256	1.819831	-0.000215
1101	1.0945e+02	-3.8293	1.346385	0.000345	3.445711	1.167439	-0.000138
1102	1.0955e+02	-3.8694	1.172788	0.000436	4.357811	1.476466	-0.000174
1103	1.0965e+02	-3.9175	1.023414	0.000375	3.749745	1.270448	-0.000150
1104	1.0975e+02	-3.9496	0.894226	0.000324	3.243022	1.098766	-0.000130
1105	1.0985e+02	-3.9849	0.720629	0.000436	4.357811	1.476466	-0.000174
1106	1.0995e+02	-4.0266	0.575292	0.000365	3.648400	1.236111	-0.000146
1107	1.1005e+02	-4.0731	0.421881	0.000385	3.851089	1.304784	-0.000154
1108	1.1015e+02	-4.1084	0.240210	0.000456	4.560500	1.545139	-0.000183
1109	1.1025e+02	-4.1485	0.094873	0.000365	3.648400	1.236111	-0.000146
1110	1.1035e+02	-4.1887	-0.054501	0.000375	3.749745	1.270448	-0.000150
1111	1.1044e+02	-4.2288	-0.224061	0.000426	4.256467	1.442130	-0.000170
1112	1.1054e+02	-4.2737	-0.385546	0.000405	4.053778	1.373457	-0.000162
1113	1.1064e+02	-4.3090	-0.571255	0.000466	4.661845	1.579476	-0.000187
1114	1.1074e+02	-4.3539	-0.712554	0.000355	3.547056	1.201775	-0.000142
1115	1.1084e+02	-4.3780	-0.865966	0.000385	3.851089	1.304784	-0.000154
1116	1.1094e+02	-4.4277	-1.035525	0.000426	4.256467	1.442130	-0.000170
1117	1.1104e+02	-4.4662	-1.160677	0.000314	3.141678	1.064429	-0.000126
1118	1.1114e+02	-4.5015	-1.358496	0.000497	4.965878	1.682485	-0.000199
1119	1.1124e+02	-4.5464	-1.544204	0.000466	4.661845	1.579476	-0.000187
1120	1.1134e+02	-4.5913	-1.649170	0.000263	2.634956	0.892747	-0.000105
1121	1.1144e+02	-4.6250	-1.794507	0.000365	3.648400	1.236111	-0.000146
1122	1.1154e+02	-4.6667	-2.000401	0.000517	5.168567	1.751158	-0.000207
1123	1.1164e+02	-4.7084	-2.137663	0.000345	3.445711	1.167439	-0.000138
1124	1.1174e+02	-4.7437	-2.319334	0.000456	4.560500	1.545139	-0.000183
1125	1.1184e+02	-4.7918	-2.444486	0.000314	3.141678	1.064429	-0.000126
1126	1.1194e+02	-4.8255	-2.638268	0.000486	4.864534	1.648149	-0.000195
1127	1.1204e+02	-4.8721	-2.755345	0.000294	2.938989	0.995756	-0.000118
1128	1.1214e+02	-4.9009	-2.892608	0.000345	3.445711	1.167439	-0.000138
1129	1.1224e+02	-4.9410	-3.066205	0.000436	4.357811	1.476466	-0.000174
1130	1.1234e+02	-4.9972	-3.235764	0.000426	4.256467	1.442130	-0.000170
1131	1.1244e+02	-5.0325	-3.356878	0.000304	3.040334	1.030093	-0.000122
1132	1.1253e+02	-5.0630	-3.566809	0.000527	5.269911	1.785494	-0.000211
1133	1.1263e+02	-5.1111	-3.708109	0.000355	3.547056	1.201775	-0.000142
1134	1.1273e+02	-5.1512	-3.833260	0.000314	3.141678	1.064429	-0.000126
1135	1.1283e+02	-5.1929	-4.027043	0.000486	4.864534	1.648149	-0.000195
1136	1.1293e+02	-5.2250	-4.176417	0.000375	3.749745	1.270448	-0.000150
1137	1.1303e+02	-5.2651	-4.350014	0.000436	4.357811	1.476466	-0.000174
1138	1.1313e+02	-5.3116	-4.454979	0.000263	2.634956	0.892747	-0.000105
1139	1.1323e+02	-5.3437	-4.600316	0.000365	3.648400	1.236111	-0.000146
1140	1.1333e+02	-5.3806	-4.733542	0.000334	3.344367	1.133102	-0.000134
1141	1.1343e+02	-5.4319	-4.955584	0.000557	5.573945	1.888504	-0.000223
1142	1.1353e+02	-5.4608	-5.084772	0.000324	3.243022	1.098766	-0.000130
1143	1.1363e+02	-5.5089	-5.213961	0.000324	3.243022	1.098766	-0.000130
1144	1.1373e+02	-5.5474	-5.399669	0.000466	4.661845	1.579476	-0.000187
1145	1.1383e+02	-5.5956	-5.524820	0.000314	3.141678	1.064429	-0.000126
1146	1.1393e+02	-5.6196	-5.682269	0.000395	3.952434	1.339121	-0.000158
1147	1.1403e+02	-5.6613	-5.888162	0.000517	5.168567	1.751158	-0.000207
1148	1.1413e+02	-5.6998	-6.013314	0.000314	3.141678	1.064429	-0.000126
1149	1.1423e+02	-5.7383	-6.186911	0.000436	4.357811	1.476466	-0.000174
1150	1.1433e+02	-5.7833	-6.352433	0.000416	4.155123	1.407794	-0.000166
1151	1.1442e+02	-5.8250	-6.497770	0.000365	3.648400	1.236111	-0.000146
1152	1.1452e+02	-5.8635	-6.618884	0.000304	3.040334	1.030093	-0.000122
1153	1.1462e+02	-5.9036	-6.816704	0.000497	4.965878	1.682485	-0.000199
1154	1.1472e+02	-5.9469	-6.970115	0.000385	3.851089	1.304784	-0.000154
1155	1.1482e+02	-5.9806	-7.131600	0.000405	4.053778	1.373457	-0.000162
1156	1.1492e+02	-6.0255	-7.276937	0.000365	3.648400	1.236111	-0.000146
1157	1.1502e+02	-6.0640	-7.410163	0.000334	3.344367	1.133102	-0.000134
1158	1.1512e+02	-6.1137	-7.575685	0.000416	4.155123	1.407794	-0.000166
1159	1.1522e+02	-6.1362	-7.729096	0.000385	3.851089	1.304784	-0.000154
1160	1.1532e+02	-6.1795	-7.914805	0.000466	4.661845	1.579476	-0.000187
1161	1.1542e+02	-6.2212	-8.068216	0.000385	3.851089	1.304784	-0.000154
1162	1.1552e+02	-6.2645	-8.237775	0.000426	4.256467	1.442130	-0.000170
1163	1.1562e+02	-6.3014	-8.383112	0.000365	3.648400	1.236111	-0.000146
1164	1.1572e+02	-6.3335	-8.552672	0.000426	4.256467	1.442130	-0.000170
1165	1.1582e+02	-6.3768	-8.685898	0.000334	3.344367	1.133102	-0.000134
1166	1.1592e+02	-6.4233	-8.823160	0.000345	3.445711	1.167439	-0.000138
1167	1.1602e+02	-6.4570	-9.004831	0.000456	4.560500	1.545139	-0.000183
1168	1.1612e+02	-6.4971	-9.129982	0.000314	3.141678	1.064429	-0.000126
1169	1.1622e+02	-6.5356	-9.295505	0.000416	4.155123	1.407794	-0.000166
1170	1.1632e+02	-6.5758	-9.440842	0.000365	3.648400	1.236111	-0.000146
1171	1.1642e+02	-6.6126	-9.602327	0.000405	4.053778	1.373457	-0.000162
1172	1.1651e+02	-6.6688	-9.747664	0.000365	3.648400	1.236111	-0.000146
1173	1.1661e+02	-6.6977	-9.913187	0.000416	4.155123	1.407794	-0.000166
1174	1.1671e+02	-6.7442	-10.106969	0.000486	4.864534	1.648149	-0.000195
1175	1.1681e+02	-6.7779	-10.244232	0.000345	3.445711	1.167439	-0.000138
1176	1.1691e+02	-6.8196	-10.409755	0.000416	4.155123	1.407794	-0.000166
1177	1.1701e+02	-6.8581	-10.571240	0.000405	4.053778	1.373457	-0.000162
1178	1.1711e+02	-6.9014	-10.692354	0.000304	3.040334	1.030093	-0.000122
1179	1.1721e+02	-6.9335	-10.845765	0.000385	3.851089	1.304784	-0.000154
1180	1.1731e+02	-6.9736	-11.015325	0.000426	4.256467	1.442130	-0.000170
1181	1.1741e+02	-7.0153	-11.168736	0.000385	3.851089	1.304784	-0.000154
1182	1.1751e+02	-7.0538	-11.378667	0.000527	5.269911	1.785494	-0.000211
1183	1.1761e+02	-7.1019	-11.463447	0.000213	2.128233	0.721065	-0.000085
1184	1.1771e+02	-7.1436	-11.620895	0.000395	3.952434	1.339121	-0.000158
1185	1.1781e+02	-7.1757	-11.746046	0.000314	3.141678	1.064429	-0.000126
1186	1.1791e+02	-7.2142	-11.951940	0.000517	5.168567	1.751158	-0.000207
1187	1.1801e+02	-7.2543	-12.069017	0.000294	2.938989	0.995756	-0.000118
1188	1.1811e+02	-7.2912	-12.238577	0.000426	4.256467	1.442130	-0.000170
1189	1.1821e+02	-7.3362	-12.428322	0.000476	4.763189	1.613812	-0.000191
1190	1.1831e+02	-7.3747	-12.521176	0.000233	2.330922	0.789738	-0.000093
1191	1.1841e+02	-7.4083	-12.702848	0.000456	4.560500	1.545139	-0.000183
1192	1.1850e+02	-7.4549	-12.832036	0.000324	3.243022	1.098766	-0.000130
1193	1.1860e+02	-7.4886	-13.021781	0.000476	4.763189	1.613812	-0.000191
1194	1.1870e+02	-7.5447	-13.179230	0.000395	3.952434	1.339121	-0.000158
1195	1.1880e+02	-7.5800	-13.308418	0.000324	3.243022	1.098766	-0.000130
1196	1.1890e+02	-7.6057	-13.465866	0.000395	3.952434	1.339121	-0.000158
1197	1.1900e+02	-7.6602	-13.619277	0.000385	3.851089	1.304784	-0.000154
1198	1.1910e+02	-7.6939	-13.776726	0.000395	3.952434	1.339121	-0.000158
1199	1.1920e+02	-7.7404	-13.901877	0.000314	3.141678	1.064429	-0.000126
1200	1.1930e+02	-7.7661	-14.099697	0.000497	4.965878	1.682485	-0.000199
1201	1.1940e+02	-7.8110	-14.249071	0.000375	3.749745	1.270448	-0.000150
1202	1.1950e+02	-7.8591	-14.378259	0.000324	3.243022	1.098766	-0.000130
1203	1.1960e+02	-7.8976	-14.551856	0.000436	4.357811	1.476466	-0.000174
1204	1.1970e+02	-7.9297	-14.701230	0.000375	3.749745	1.270448	-0.000150
1205	1.1980e+02	-7.9714	-14.818307	0.000294	2.938989	0.995756	-0.000118
1206	1.1990e+02	-8.0164	-15.020164	0.000507	5.067223	1.716821	-0.000203
1207	1.2000e+02	-8.0549	-15.133203	0.000284	2.837645	0.961420	-0.000114
1208	1.2010e+02	-8.0885	-15.270466	0.000345	3.445711	1.167439	-0.000138
1209	1.2020e+02	-8.1303	-15.431951	0.000405	4.053778	1.373457	-0.000162
1210	1.2030e+02	-8.1655	-15.553065	0.000304	3.040334	1.030093	-0.000122
1211	1.2039e+02	-8.2073	-15.726662	0.000436	4.357811	1.476466	-0.000174
1212	1.2049e+02	-8.2538	-15.936593	0.000527	5.269911	1.785494	-0.000211
1213	1.2059e+02	-8.2955	-16.045596	0.000274	2.736300	0.927084	-0.000110
1214	1.2069e+02	-8.3372	-16.203044	0.000395	3.952434	1.339121	-0.000158
1215	1.2079e+02	-8.3741	-16.324158	0.000304	3.040334	1.030093	-0.000122
1216	1.2089e+02	-8.4158	-16.493718	0.000426	4.256467	1.442130	-0.000170
1217	1.2099e+02	-8.4511	-16.647129	0.000385	3.851089	1.304784	-0.000154
1218	1.2109e+02	-8.4944	-16.792466	0.000365	3.648400	1.236111	-0.000146
1219	1.2119e+02	-8.5329	-16.929729	0.000345	3.445711	1.167439	-0.000138
1220	1.2129e+02	-8.5778	-17.123511	0.000486	4.864534	1.648149	-0.000195
1221	1.2139e+02	-8.6147	-17.268848	0.000365	3.648400	1.236111	-0.000146
1222	1.2149e+02	-8.6516	-17.393999	0.000314	3.141678	1.064429	-0.000126
1223	1.2159e+02	-8.6821	-17.559522	0.000416	4.155123	1.407794	-0.000166
1224	1.2169e+02	-8.7254	-17.692747	0.000334	3.344367	1.133102	-0.000134
1225	1.2179e+02	-8.7687	-17.838084	0.000365	3.648400	1.236111	-0.000146
1226	1.2189e+02	-8.8104	-18.015718	0.000446	4.459156	1.510803	-0.000179
1227	1.2199e+02	-8.8361	-18.132795	0.000294	2.938989	0.995756	-0.000118
1228	1.2209e+02	-8.8826	-18.298318	0.000416	4.155123	1.407794	-0.000166
1229	1.2219e+02	-8.9292	-18.439617	0.000355	3.547056	1.201775	-0.000142
1230	1.2229e+02	-8.9661	-18.568806	0.000324	3.243022	1.098766	-0.000130
1231	1.2239e+02	-8.9965	-18.685883	0.000294	2.938989	0.995756	-0.000118
1232	1.2248e+02	-9.0495	-18.911962	0.000568	5.675289	1.922840	-0.000227
1233	1.2258e+02	-9.0944	-19.000779	0.000223	2.229578	0.755401	-0.000089
1234	1.2268e+02	-9.1281	-19.174376	0.000436	4.357811	1.476466	-0.000174
1235	1.2278e+02	-9.1730	-19.335862	0.000405	4.053778	1.373457	-0.000162
1236	1.2288e+02	-9.2067	-19.481199	0.000365	3.648400	1.236111	-0.000146
1237	1.2298e+02	-9.2484	-19.622498	0.000355	3.547056	1.201775	-0.000142
1238	1.2308e+02	-9.2773	-19.788021	0.000416	4.155123	1.407794	-0.000166
1239	1.2318e+02	-9.3270	-19.913172	0.000314	3.141678	1.064429	-0.000126
1240	1.2328e+02	-9.3655	-20.054472	0.000355	3.547056	1.201775	-0.000142
1241	1.2338e+02	-9.4040	-20.179623	0.000314	3.141678	1.064429	-0.000126
1242	1.2348e+02	-9.4537	-20.333034	0.000385	3.851089	1.304784	-0.000154
1243	1.2358e+02	-9.4890	-20.506631	0.000436	4.357811	1.476466	-0.000174
1244	1.2368e+02	-9.5275	-20.627745	0.000304	3.040334	1.030093	-0.000122
1245	1.2378e+02	-9.5725	-20.773082	0.000365	3.648400	1.236111	-0.000146
1246	1.2388e+02	-9.6094	-20.906307	0.000334	3.344367	1.133102	-0.000134
1247	1.2398e+02	-9.6495	-21.023384	0.000294	2.938989	0.995756	-0.000118
1248	1.2408e+02	-9.6880	-21.192944	0.000426	4.256467	1.442130	-0.000170
1249	1.2418e+02	-9.7184	-21.358467	0.000416	4.155123	1.407794	-0.000166
1250	1.2428e+02	-9.7714	-21.507841	0.000375	3.749745	1.270448	-0.000150
1251	1.2438e+02	-9.8067	-21.616843	0.000274	2.736300	0.927084	-0.000110
1252	1.2447e+02	-9.8420	-21.766217	0.000375	3.749745	1.270448	-0.000150
1253	1.2457e+02	-9.8981	-21.907517	0.000355	3.547056	1.201775	-0.000142
1254	1.2467e+02	-9.9270	-22.081114	0.000436	4.357811	1.476466	-0.000174
1255	1.2477e+02	-9.9687	-22.190117	0.000274	2.736300	0.927084	-0.000110
1256	1.2487e+02	-10.0104	-22.343528	0.000385	3.851089	1.304784	-0.000154
1257	1.2497e+02	-10.0393	-22.492902	0.000375	3.749745	1.270448	-0.000150
1258	1.2507e+02	-10.0922	-22.650350	0.000395	3.952434	1.339121	-0.000158
1259	1.2517e+02	-10.1339	-22.791650	0.000355	3.547056	1.201775	-0.000142
1260	1.2527e+02	-10.1628	-22.920838	0.000324	3.243022	1.098766	-0.000130
1261	1.2537e+02	-10.2045	-23.041952	0.000304	3.040334	1.030093	-0.000122
1262	1.2547e+02	-10.2398	-23.219586	0.000446	4.459156	1.510803	-0.000179
1263	1.2557e+02	-10.2879	-23.368960	0.000375	3.749745	1.270448	-0.000150
1264	1.2567e+02	-10.3329	-23.494111	0.000314	3.141678	1.064429	-0.000126
1265	1.2577e+02	-10.3553	-23.623300	0.000324	3.243022	1.098766	-0.000130
1266	1.2587e+02	-10.4018	-23.784785	0.000405	4.053778	1.373457	-0.000162
1267	1.2597e+02	-10.4452	-23.958382	0.000436	4.357811	1.476466	-0.000174
1268	1.2607e+02	-10.4772	-24.059310	0.000253	2.533611	0.858411	-0.000101
1269	1.2617e+02	-10.5302	-24.180425	0.000304	3.040334	1.030093	-0.000122
1270	1.2627e+02	-10.5671	-24.329799	0.000375	3.749745	1.270448	-0.000150
1271	1.2636e+02	-10.6040	-24.527618	0.000497	4.965878	1.682485	-0.000199
1272	1.2646e+02	-10.6393	-24.668918	0.000355	3.547056	1.201775	-0.000142
1273	1.2656e+02	-10.6810	-24.773883	0.000263	2.634956	0.892747	-0.000105
1274	1.2666e+02	-10.7227	-24.939406	0.000416	4.155123	1.407794	-0.000166
1275	1.2676e+02	-10.7628	-25.076669	0.000345	3.445711	1.167439	-0.000138
1276	1.2686e+02	-10.8029	-25.201820	0.000314	3.141678	1.064429	-0.000126
1277	1.2696e+02	-10.8462	-25.322934	0.000304	3.040334	1.030093	-0.000122
1278	1.2706e+02	-10.8783	-25.500568	0.000446	4.459156	1.510803	-0.000179
1279	1.2716e+02	-10.9152	-25.633793	0.000334	3.344367	1.133102	-0.000134
1280	1.2726e+02	-10.9665	-25.754907	0.000304	3.040334	1.030093	-0.000122
1281	1.2736e+02	-11.0050	-25.916393	0.000405	4.053778	1.373457	-0.000162
1282	1.2746e+02	-11.0435	-26.061730	0.000365	3.648400	1.236111	-0.000146
1283	1.2756e+02	-11.0772	-26.194955	0.000334	3.344367	1.133102	-0.000134
1284	1.2766e+02	-11.1125	-26.344329	0.000375	3.749745	1.270448	-0.000150
1285	1.2776e+02	-11.1655	-26.489666	0.000365	3.648400	1.236111	-0.000146
1286	1.2786e+02	-11.1943	-26.606743	0.000294	2.938989	0.995756	-0.000118
1287	1.2796e+02	-11.2553	-26.760154	0.000385	3.851089	1.304784	-0.000154
1288	1.2806e+02	-11.2858	-26.889343	0.000324	3.243022	1.098766	-0.000130
1289	1.2816e+02	-11.3195	-27.079088	0.000476	4.763189	1.613812	-0.000191
1290	1.2826e+02	-11.3532	-27.232499	0.000385	3.851089	1.304784	-0.000154
1291	1.2835e+02	-11.3997	-27.345539	0.000284	2.837645	0.961420	-0.000114
1292	1.2845e+02	-11.4398	-27.511061	0.000416	4.155123	1.407794	-0.000166
1293	1.2855e+02	-11.4687	-27.656398	0.000365	3.648400	1.236111	-0.000146
1294	1.2865e+02	-11.5216	-27.733104	0.000193	1.925545	0.652392	-0.000077
1295	1.2875e+02	-11.5601	-27.870367	0.000345	3.445711	1.167439	-0.000138
1296	1.2885e+02	-11.6034	-28.052038	0.000456	4.560500	1.545139	-0.000183
1297	1.2895e+02	-11.6419	-28.177189	0.000314	3.141678	1.064429	-0.000126
1298	1.2905e+02	-11.6804	-28.302340	0.000314	3.141678	1.064429	-0.000126
1299	1.2915e+02	-11.7093	-28.484011	0.000456	4.560500	1.545139	-0.000183
1300	1.2925e+02	-11.7510	-28.564754	0.000203	2.026889	0.686729	-0.000081
1301	1.2935e+02	-11.7927	-28.770648	0.000517	5.168567	1.751158	-0.000207
1302	1.2945e+02	-11.8344	-28.839279	0.000172	1.722856	0.583719	-0.000069
1303	1.2955e+02	-11.8745	-29.037099	0.000497	4.965878	1.682485	-0.000199
1304	1.2965e+02	-11.9098	-29.154176	0.000294	2.938989	0.995756	-0.000118
1305	1.2975e+02	-11.9580	-29.299513	0.000365	3.648400	1.236111	-0.000146
1306	1.2985e+02	-11.9884	-29.440812	0.000355	3.547056	1.201775	-0.000142
1307	1.2995e+02	-12.0398	-29.545778	0.000263	2.634956	0.892747	-0.000105
1308	1.3005e+02	-12.0847	-29.707263	0.000405	4.053778	1.373457	-0.000162
1309	1.3015e+02	-12.1200	-29.848563	0.000355	3.547056	1.201775	-0.000142
1310	1.3025e+02	-12.1553	-30.018123	0.000426	4.256467	1.442130	-0.000170
1311	1.3034e+02	-12.1938	-30.127125	0.000274	2.736300	0.927084	-0.000110
1312	1.3044e+02	-12.2435	-30.232091	0.000263	2.634956	0.892747	-0.000105
1313	1.3054e+02	-12.2772	-30.389539	0.000395	3.952434	1.339121	-0.000158
1314	1.3064e+02	-12.3109	-30.534876	0.000365	3.648400	1.236111	-0.000146
1315	1.3074e+02	-12.3622	-30.696362	0.000405	4.053778	1.373457	-0.000162
1316	1.3084e+02	-12.3911	-30.805364	0.000274	2.736300	0.927084	-0.000110
1317	1.3094e+02	-12.4360	-30.942627	0.000345	3.445711	1.167439	-0.000138
1318	1.3104e+02	-12.4713	-31.108149	0.000416	4.155123	1.407794	-0.000166
1319	1.3114e+02	-12.5178	-31.281746	0.000436	4.357811	1.476466	-0.000174
1320	1.3124e+02	-12.5531	-31.398823	0.000294	2.938989	0.995756	-0.000118
1321	1.3134e+02	-12.5964	-31.499752	0.000253	2.533611	0.858411	-0.000101
1322	1.3144e+02	-12.6317	-31.661237	0.000405	4.053778	1.373457	-0.000162
1323	1.3154e+02	-12.6750	-31.762165	0.000253	2.533611	0.858411	-0.000101
1324	1.3164e+02	-12.7103	-31.931725	0.000426	4.256467	1.442130	-0.000170
1325	1.3174e+02	-12.7601	-32.089173	0.000395	3.952434	1.339121	-0.000158
1326	1.3184e+02	-12.7905	-32.234510	0.000365	3.648400	1.236111	-0.000146
1327	1.3194e+02	-12.8307	-32.375810	0.000355	3.547056	1.201775	-0.000142
1328	1.3204e+02	-12.8724	-32.480776	0.000263	2.634956	0.892747	-0.000105
1329	1.3214e+02	-12.9189	-32.642261	0.000405	4.053778	1.373457	-0.000162
1330	1.3224e+02	-12.9462	-32.759338	0.000294	2.938989	0.995756	-0.000118
1331	1.3234e+02	-12.9911	-32.904675	0.000365	3.648400	1.236111	-0.000146
1332	1.3243e+02	-13.0472	-33.041937	0.000345	3.445711	1.167439	-0.000138
1333	1.3253e+02	-13.0617	-33.187274	0.000365	3.648400	1.236111	-0.000146
1334	1.3263e+02	-13.1146	-33.360871	0.000436	4.357811	1.476466	-0.000174
1335	1.3273e+02	-13.1467	-33.494097	0.000334	3.344367	1.133102	-0.000134
1336	1.3283e+02	-13.1884	-33.611174	0.000294	2.938989	0.995756	-0.000118
1337	1.3293e+02	-13.2301	-33.752473	0.000355	3.547056	1.201775	-0.000142
1338	1.3303e+02	-13.2702	-33.885699	0.000334	3.344367	1.133102	-0.000134
1339	1.3313e+02	-13.3135	-34.035073	0.000375	3.749745	1.270448	-0.000150
1340	1.3323e+02	-13.3488	-34.192521	0.000395	3.952434	1.339121	-0.000158
1341	1.3333e+02	-13.3889	-34.374192	0.000456	4.560500	1.545139	-0.000183
1342	1.3343e+02	-13.4274	-34.483195	0.000274	2.736300	0.927084	-0.000110
1343	1.3353e+02	-13.4723	-34.600272	0.000294	2.938989	0.995756	-0.000118
1344	1.3363e+02	-13.5125	-34.737534	0.000345	3.445711	1.167439	-0.000138
1345	1.3373e+02	-13.5526	-34.899020	0.000405	4.053778	1.373457	-0.000162
1346	1.3383e+02	-13.5782	-35.024171	0.000314	3.141678	1.064429	-0.000126
1347	1.3393e+02	-13.6280	-35.193731	0.000426	4.256467	1.442130	-0.000170
1348	1.3403e+02	-13.6681	-35.314845	0.000304	3.040334	1.030093	-0.000122
1349	1.3413e+02	-13.7082	-35.435959	0.000304	3.040334	1.030093	-0.000122
1350	1.3423e+02	-13.7547	-35.601482	0.000416	4.155123	1.407794	-0.000166
1351	1.3432e+02	-13.7820	-35.726633	0.000314	3.141678	1.064429	-0.000126
1352	1.3442e+02	-13.8285	-35.863895	0.000345	3.445711	1.167439	-0.000138
1353	1.3452e+02	-13.8766	-35.980972	0.000294	2.938989	0.995756	-0.000118
1354	1.3462e+02	-13.9135	-36.142458	0.000405	4.053778	1.373457	-0.000162
1355	1.3472e+02	-13.9616	-36.263572	0.000304	3.040334	1.030093	-0.000122
1356	1.3482e+02	-13.9953	-36.392760	0.000324	3.243022	1.098766	-0.000130
1357	1.3492e+02	-14.0306	-36.513874	0.000304	3.040334	1.030093	-0.000122
1358	1.3502e+02	-14.0675	-36.659211	0.000365	3.648400	1.236111	-0.000146
1359	1.3512e+02	-14.1044	-36.816659	0.000395	3.952434	1.339121	-0.000158
1360	1.3522e+02	-14.1461	-36.961996	0.000365	3.648400	1.236111	-0.000146
1361	1.3532e+02	-14.1846	-37.119445	0.000395	3.952434	1.339121	-0.000158
1362	1.3542e+02	-14.2231	-37.188076	0.000172	1.722856	0.583719	-0.000069
1363	1.3552e+02	-14.2713	-37.361673	0.000436	4.357811	1.476466	-0.000174
1364	1.3562e+02	-14.3130	-37.494898	0.000334	3.344367	1.133102	-0.000134
1365	1.3572e+02	-14.3531	-37.624087	0.000324	3.243022	1.098766	-0.000130
1366	1.3582e+02	-14.3916	-37.765386	0.000355	3.547056	1.201775	-0.000142
1367	1.3592e+02	-14.4188	-37.906686	0.000355	3.547056	1.201775	-0.000142
1368	1.3602e+02	-14.4718	-38.043949	0.000345	3.445711	1.167439	-0.000138
1369	1.3612e+02	-14.4991	-38.156988	0.000284	2.837645	0.961420	-0.000114
1370	1.3622e+02	-14.5456	-38.318474	0.000405	4.053778	1.373457	-0.000162
1371	1.3631e+02	-14.5793	-38.447662	0.000324	3.243022	1.098766	-0.000130
1372	1.3641e+02	-14.6226	-38.580888	0.000334	3.344367	1.133102	-0.000134
1373	1.3651e+02	-14.6691	-38.714113	0.000334	3.344367	1.133102	-0.000134
1374	1.3661e+02	-14.7092	-38.839264	0.000314	3.141678	1.064429	-0.000126
1375	1.3671e+02	-14.7493	-38.956341	0.000294	2.938989	0.995756	-0.000118
1376	1.3681e+02	-14.7846	-39.109752	0.000385	3.851089	1.304784	-0.000154
1377	1.3691e+02	-14.8231	-39.238941	0.000324	3.243022	1.098766	-0.000130
1378	1.3701e+02	-14.8632	-39.384278	0.000365	3.648400	1.236111	-0.000146
1379	1.3711e+02	-14.9081	-39.553837	0.000426	4.256467	1.442130	-0.000170
1380	1.3721e+02	-14.9434	-39.666877	0.000284	2.837645	0.961420	-0.000114
1381	1.3731e+02	-14.9787	-39.800103	0.000334	3.344367	1.133102	-0.000134
1382	1.3741e+02	-15.0220	-39.933328	0.000334	3.344367	1.133102	-0.000134
1383	1.3751e+02	-15.0589	-40.078665	0.000365	3.648400	1.236111	-0.000146
1384	1.3761e+02	-15.1022	-40.191705	0.000284	2.837645	0.961420	-0.000114
1385	1.3771e+02	-15.1375	-40.328967	0.000345	3.445711	1.167439	-0.000138
1386	1.3781e+02	-15.1889	-40.474304	0.000365	3.648400	1.236111	-0.000146
1387	1.3791e+02	-15.2226	-40.599456	0.000314	3.141678	1.064429	-0.000126
1388	1.3801e+02	-15.2611	-40.752867	0.000385	3.851089	1.304784	-0.000154
1389	1.3811e+02	-15.3028	-40.886092	0.000334	3.344367	1.133102	-0.000134
1390	1.3821e+02	-15.3525	-41.035466	0.000375	3.749745	1.270448	-0.000150
1391	1.3831e+02	-15.3814	-41.200989	0.000416	4.155123	1.407794	-0.000166
1392	1.3840e+02	-15.4215	-41.297880	0.000243	2.432267	0.824074	-0.000097
1393	1.3850e+02	-15.4648	-41.414957	0.000294	2.938989	0.995756	-0.000118
1394	1.3860e+02	-15.5049	-41.572405	0.000395	3.952434	1.339121	-0.000158
1395	1.3870e+02	-15.5514	-41.725816	0.000385	3.851089	1.304784	-0.000154
1396	1.3880e+02	-15.5771	-41.814633	0.000223	2.229578	0.755401	-0.000089
1397	1.3890e+02	-15.6252	-41.972082	0.000395	3.952434	1.339121	-0.000158
1398	1.3900e+02	-15.6621	-42.089159	0.000294	2.938989	0.995756	-0.000118
1399	1.3910e+02	-15.7119	-42.270830	0.000456	4.560500	1.545139	-0.000183
1400	1.3920e+02	-15.7439	-42.383870	0.000284	2.837645	0.961420	-0.000114
1401	1.3930e+02	-15.7744	-42.492872	0.000274	2.736300	0.927084	-0.000110
1402	1.3940e+02	-15.8193	-42.662432	0.000426	4.256467	1.442130	-0.000170
1403	1.3950e+02	-15.8562	-42.827954	0.000416	4.155123	1.407794	-0.000166
1404	1.3960e+02	-15.9012	-42.916771	0.000223	2.229578	0.755401	-0.000089
1405	1.3970e+02	-15.9509	-43.090368	0.000436	4.357811	1.476466	-0.000174
1406	1.3980e+02	-15.9862	-43.183222	0.000233	2.330922	0.789738	-0.000093
1407	1.3990e+02	-16.0247	-43.304336	0.000304	3.040334	1.030093	-0.000122
1408	1.4000e+02	-16.0648	-43.441599	0.000345	3.445711	1.167439	-0.000138
1409	1.4010e+02	-16.0921	-43.611159	0.000426	4.256467	1.442130	-0.000170
1410	1.4020e+02	-16.1322	-43.744384	0.000334	3.344367	1.133102	-0.000134
1411	1.4029e+02	-16.1739	-43.853387	0.000274	2.736300	0.927084	-0.000110
1412	1.4039e+02	-16.2236	-43.998724	0.000365	3.648400	1.236111	-0.000146
1413	1.4049e+02	-16.2605	-44.087541	0.000223	2.229578	0.755401	-0.000089
1414	1.4059e+02	-16.2910	-44.261138	0.000436	4.357811	1.476466	-0.000174
1415	1.4069e+02	-16.3455	-44.394363	0.000334	3.344367	1.133102	-0.000134
1416	1.4079e+02	-16.3872	-44.519514	0.000314	3.141678	1.064429	-0.000126
1417	1.4089e+02	-16.4145	-44.697148	0.000446	4.459156	1.510803	-0.000179
1418	1.4099e+02	-16.4626	-44.798077	0.000253	2.533611	0.858411	-0.000101
1419	1.4109e+02	-16.5011	-44.899005	0.000253	2.533611	0.858411	-0.000101
1420	1.4119e+02	-16.5412	-45.032231	0.000334	3.344367	1.133102	-0.000134
1421	1.4129e+02	-16.5862	-45.169493	0.000345	3.445711	1.167439	-0.000138
1422	1.4139e+02	-16.6215	-45.351164	0.000456	4.560500	1.545139	-0.000183
1423	1.4149e+02	-16.6551	-45.456130	0.000263	2.634956	0.892747	-0.000105
1424	1.4159e+02	-16.7049	-45.601467	0.000365	3.648400	1.236111	-0.000146
1425	1.4169e+02	-16.7386	-45.718544	0.000294	2.938989	0.995756	-0.000118
1426	1.4179e+02	-16.7883	-45.871955	0.000385	3.851089	1.304784	-0.000154
1427	1.4189e+02	-16.8172	-45.993069	0.000304	3.040334	1.030093	-0.000122
1428	1.4199e+02	-16.8621	-46.162629	0.000426	4.256467	1.442130	-0.000170
1429	1.4209e+02	-16.8990	-46.259520	0.000243	2.432267	0.824074	-0.000097
1430	1.4219e+02	-16.9359	-46.445228	0.000466	4.661845	1.579476	-0.000187
1431	1.4228e+02	-16.9888	-46.594602	0.000375	3.749745	1.270448	-0.000150
1432	1.4238e+02	-17.0225	-46.691493	0.000243	2.432267	0.824074	-0.000097
1433	1.4248e+02	-17.0642	-46.828756	0.000345	3.445711	1.167439	-0.000138
1434	1.4258e+02	-17.0931	-47.010427	0.000456	4.560500	1.545139	-0.000183
1435	1.4268e+02	-17.1412	-47.151727	0.000355	3.547056	1.201775	-0.000142
1436	1.4278e+02	-17.1813	-47.321287	0.000426	4.256467	1.442130	-0.000170
1437	1.4288e+02	-17.2166	-47.410104	0.000223	2.229578	0.755401	-0.000089
1438	1.4298e+02	-17.2599	-47.563515	0.000385	3.851089	1.304784	-0.000154
1439	1.4308e+02	-17.3000	-47.729037	0.000416	4.155123	1.407794	-0.000166
1440	1.4318e+02	-17.3402	-47.854188	0.000314	3.141678	1.064429	-0.000126
1441	1.4328e+02	-17.3658	-48.031822	0.000446	4.459156	1.510803	-0.000179
1442	1.4338e+02	-17.4107	-48.161011	0.000324	3.243022	1.098766	-0.000130
1443	1.4348e+02	-17.4637	-48.310385	0.000375	3.749745	1.270448	-0.000150
1444	1.4358e+02	-17.4990	-48.431499	0.000304	3.040334	1.030093	-0.000122
1445	1.4368e+02	-17.5423	-48.584910	0.000385	3.851089	1.304784	-0.000154
1446	1.4378e+02	-17.5744	-48.746395	0.000405	4.053778	1.373457	-0.000162
1447	1.4388e+02	-17.6209	-48.956327	0.000527	5.269911	1.785494	-0.000211
1448	1.4398e+02	-17.6626	-49.065329	0.000274	2.736300	0.927084	-0.000110
1449	1.4408e+02	-17.6995	-49.190480	0.000314	3.141678	1.064429	-0.000126
1450	1.4418e+02	-17.7364	-49.404449	0.000537	5.371256	1.819831	-0.000215
1451	1.4428e+02	-17.7765	-49.553823	0.000375	3.749745	1.270448	-0.000150
1452	1.4437e+02	-17.8070	-49.719345	0.000416	4.155123	1.407794	-0.000166
1453	1.4447e+02	-17.8551	-49.808162	0.000223	2.229578	0.755401	-0.000089
1454	1.4457e+02	-17.8952	-50.010019	0.000507	5.067223	1.716821	-0.000203
1455	1.4467e+02	-17.9305	-50.139207	0.000324	3.243022	1.098766	-0.000130
1456	1.4477e+02	-17.9802	-50.349138	0.000527	5.269911	1.785494	-0.000211
1457	1.4487e+02	-18.0220	-50.466215	0.000294	2.938989	0.995756	-0.000118
1458	1.4497e+02	-18.0588	-50.664035	0.000497	4.965878	1.682485	-0.000199
1459	1.4507e+02	-18.0845	-50.821483	0.000395	3.952434	1.339121	-0.000158
1460	1.4517e+02	-18.1294	-50.987006	0.000416	4.155123	1.407794	-0.000166
1461	1.4527e+02	-18.1792	-51.140417	0.000385	3.851089	1.304784	-0.000154
1462	1.4537e+02	-18.2161	-51.318051	0.000446	4.459156	1.510803	-0.000179
1463	1.4547e+02	-18.2546	-51.467425	0.000375	3.749745	1.270448	-0.000150
1464	1.4557e+02	-18.2947	-51.645059	0.000446	4.459156	1.510803	-0.000179
1465	1.4567e+02	-18.3316	-51.826730	0.000456	4.560500	1.545139	-0.000183
1466	1.4577e+02	-18.3701	-52.000327	0.000436	4.357811	1.476466	-0.000174
1467	1.4587e+02	-18.4086	-52.181998	0.000456	4.560500	1.545139	-0.000183
1468	1.4597e+02	-18.4439	-52.331372	0.000375	3.749745	1.270448	-0.000150
1469	1.4607e+02	-18.4920	-52.557452	0.000568	5.675289	1.922840	-0.000227
1470	1.4617e+02	-18.5401	-52.714900	0.000395	3.952434	1.339121	-0.000158
1471	1.4626e+02	-18.5770	-52.856200	0.000355	3.547056	1.201775	-0.000142
1472	1.4636e+02	-18.6043	-53.058056	0.000507	5.067223	1.716821	-0.000203
1473	1.4646e+02	-18.6540	-53.255876	0.000497	4.965878	1.682485	-0.000199
1474	1.4656e+02	-18.6957	-53.437547	0.000456	4.560500	1.545139	-0.000183
1475	1.4666e+02	-18.7390	-53.607107	0.000426	4.256467	1.442130	-0.000170
1476	1.4676e+02	-18.7663	-53.776667	0.000426	4.256467	1.442130	-0.000170
1477	1.4686e+02	-18.8177	-53.978523	0.000507	5.067223	1.716821	-0.000203
1478	1.4696e+02	-18.8497	-54.164232	0.000466	4.661845	1.579476	-0.000187
1479	1.4706e+02	-18.8834	-54.337828	0.000436	4.357811	1.476466	-0.000174
1480	1.4716e+02	-18.9364	-54.576019	0.000598	5.979323	2.025849	-0.000239
1481	1.4726e+02	-18.9781	-54.749616	0.000436	4.357811	1.476466	-0.000174
1482	1.4736e+02	-19.0086	-54.963585	0.000537	5.371256	1.819831	-0.000215
1483	1.4746e+02	-19.0599	-55.161404	0.000497	4.965878	1.682485	-0.000199
1484	1.4756e+02	-19.0920	-55.407669	0.000618	6.182012	2.094522	-0.000248
1485	1.4766e+02	-19.1273	-55.577229	0.000426	4.256467	1.442130	-0.000170
1486	1.4776e+02	-19.1706	-55.775049	0.000497	4.965878	1.682485	-0.000199
1487	1.4786e+02	-19.2075	-55.960757	0.000466	4.661845	1.579476	-0.000187
1488	1.4796e+02	-19.2508	-56.194911	0.000588	5.877978	1.991513	-0.000235
1489	1.4806e+02	-19.2829	-56.392731	0.000497	4.965878	1.682485	-0.000199
1490	1.4816e+02	-19.3278	-56.630922	0.000598	5.979323	2.025849	-0.000239
1491	1.4825e+02	-19.3679	-56.820667	0.000476	4.763189	1.613812	-0.000191
1492	1.4835e+02	-19.4064	-57.022524	0.000507	5.067223	1.716821	-0.000203
1493	1.4845e+02	-19.4545	-57.244566	0.000557	5.573945	1.888504	-0.000223
1494	1.4855e+02	-19.4898	-57.519091	0.000689	6.891423	2.334877	-0.000276
1495	1.4865e+02	-19.5251	-57.692688	0.000436	4.357811	1.476466	-0.000174
1496	1.4875e+02	-19.5588	-57.947028	0.000638	6.384700	2.163195	-0.000256
1497	1.4885e+02	-19.6069	-58.181182	0.000588	5.877978	1.991513	-0.000235
1498	1.4895e+02	-19.6390	-58.366890	0.000466	4.661845	1.579476	-0.000187
1499	1.4905e+02	-19.6920	-58.617192	0.000628	6.283356	2.128859	-0.000252
1500	1.4915e+02	-19.7240	-58.855383	0.000598	5.979323	2.025849	-0.000239
1501	1.4925e+02	-19.7690	-59.109723	0.000638	6.384700	2.163195	-0.000256
1502	1.4935e+02	-19.8123	-59.331765	0.000557	5.573945	1.888504	-0.000223
1503	1.4945e+02	-19.8428	-59.594179	0.000659	6.587389	2.231868	-0.000264
1504	1.4955e+02	-19.8893	-59.812185	0.000547	5.472600	1.854167	-0.000219
1505	1.4965e+02	-19.9262	-60.082673	0.000679	6.790078	2.300541	-0.000272
1506	1.4975e+02	-19.9599	-60.312789	0.000578	5.776634	1.957176	-0.000231
1507	1.4985e+02	-20.0064	-60.627686	0.000790	7.904867	2.678242	-0.000316
1508	1.4995e+02	-19.9647	-60.639797	-0.000030	-0.304033	-0.103009	-0.000012
1509	1.5005e+02	-19.9198	-60.684206	-0.000111	-1.114789	-0.377701	-0.000045
1510	1.5015e+02	-19.8797	-60.708429	-0.000061	-0.608067	-0.206019	-0.000024
1511	1.5025e+02	-19.8476	-60.728614	-0.000051	-0.506722	-0.171682	-0.000020
1512	1.5034e+02	-19.8075	-60.740726	-0.000030	-0.304033	-0.103009	-0.000012
1513	1.5044e+02	-19.7658	-60.764949	-0.000061	-0.608067	-0.206019	-0.000024
1514	1.5054e+02	-19.7208	-60.740726	0.000061	0.608067	0.206019	0.000024
1515	1.5064e+02	-19.6887	-60.744763	-0.000010	-0.101344	-0.034336	-0.000004
1516	1.5074e+02	-19.6422	-60.692280	0.000132	1.317478	0.446374	0.000053
1517	1.5084e+02	-19.6101	-60.700354	-0.000020	-0.202689	-0.068673	-0.000008
1518	1.5094e+02	-19.5572	-60.724577	-0.000061	-0.608067	-0.206019	-0.000024
1519	1.5104e+02	-19.5315	-60.672094	0.000132	1.317478	0.446374	0.000053
1520	1.5114e+02	-19.4834	-60.627686	0.000111	1.114789	0.377701	0.000045
1521	1.5124e+02	-19.4449	-60.631723	-0.000010	-0.101344	-0.034336	-0.000004
1522	1.5134e+02	-19.4048	-60.591352	0.000101	1.013445	0.343364	0.000041
1523	1.5144e+02	-19.3743	-60.555018	0.000091	0.912100	0.309028	0.000037
1524	1.5154e+02	-19.3294	-60.490423	0.000162	1.621511	0.549383	0.000065
1525	1.5164e+02	-19.2829	-60.437941	0.000132	1.317478	0.446374	0.000053
1526	1.5174e+02	-19.2476	-60.397569	0.000101	1.013445	0.343364	0.000041
1527	1.5184e+02	-19.2139	-60.357198	0.000101	1.013445	0.343364	0.000041
1528	1.5194e+02	-19.1738	-60.328938	0.000071	0.709411	0.240355	0.000028
1529	1.5204e+02	-19.1225	-60.272418	0.000142	1.418822	0.480710	0.000057
1530	1.5214e+02	-19.0968	-60.203787	0.000172	1.722856	0.583719	0.000069
1531	1.5224e+02	-19.0503	-60.187638	0.000041	0.405378	0.137346	0.000016
1532	1.5233e+02	-19.0118	-60.110933	0.000193	1.925545	0.652392	0.000077
1533	1.5243e+02	-18.9684	-60.046338	0.000162	1.621511	0.549383	0.000065
1534	1.5253e+02	-18.9316	-59.985781	0.000152	1.520167	0.515046	0.000061
1535	1.5263e+02	-18.8850	-59.949447	0.000091	0.912100	0.309028	0.000037
1536	1.5273e+02	-18.8545	-59.852556	0.000243	2.432267	0.824074	0.000097
1537	1.5283e+02	-18.8080	-59.771813	0.000203	2.026889	0.686729	0.000081
1538	1.5293e+02	-18.7759	-59.703182	0.000172	1.722856	0.583719	0.000069
1539	1.5303e+02	-18.7294	-59.658773	0.000111	1.114789	0.377701	0.000045
1540	1.5313e+02	-18.6941	-59.557845	0.000253	2.533611	0.858411	0.000101
1541	1.5323e+02	-18.6524	-59.509399	0.000122	1.216133	0.412037	0.000049
1542	1.5333e+02	-18.6123	-59.404434	0.000263	2.634956	0.892747	0.000105
1543	1.5343e+02	-18.5770	-59.360025	0.000111	1.114789	0.377701	0.000045
1544	1.5353e+02	-18.5337	-59.271208	0.000223	2.229578	0.755401	0.000089
1545	1.5363e+02	-18.4952	-59.194503	0.000193	1.925545	0.652392	0.000077
1546	1.5373e+02	-18.4439	-59.105686	0.000223	2.229578	0.755401	0.000089
1547	1.5383e+02	-18.4118	-59.033017	0.000182	1.824200	0.618056	0.000073
1548	1.5393e+02	-18.3781	-58.992646	0.000101	1.013445	0.343364	0.000041
1549	1.5403e+02	-18.3300	-58.871532	0.000304	3.040334	1.030093	0.000122
1550	1.5413e+02	-18.2883	-58.758492	0.000284	2.837645	0.961420	0.000114
1551	1.5422e+02	-18.2594	-58.714084	0.000111	1.114789	0.377701	0.000045
1552	1.5432e+02	-18.2096	-58.621229	0.000233	2.330922	0.789738	0.000093
1553	1.5442e+02	-18.1695	-58.520301	0.000253	2.533611	0.858411	0.000101
1554	1.5452e+02	-18.1246	-58.439558	0.000203	2.026889	0.686729	0.000081
1555	1.5462e+02	-18.0877	-58.383038	0.000142	1.418822	0.480710	0.000057
1556	1.5472e+02	-18.0508	-58.286147	0.000243	2.432267	0.824074	0.000097
1557	1.5482e+02	-18.0123	-58.189256	0.000243	2.432267	0.824074	0.000097
1558	1.5492e+02	-17.9738	-58.100439	0.000223	2.229578	0.755401	0.000089
1559	1.5502e+02	-17.9369	-57.967213	0.000334	3.344367	1.133102	0.000134
1560	1.5512e+02	-17.8888	-57.894545	0.000182	1.824200	0.618056	0.000073
1561	1.5522e+02	-17.8535	-57.817839	0.000193	1.925545	0.652392	0.000077
1562	1.5532e+02	-17.8118	-57.761320	0.000142	1.418822	0.480710	0.000057
1563	1.5542e+02	-17.7701	-57.688651	0.000182	1.824200	0.618056	0.000073
1564	1.5552e+02	-17.7412	-57.583686	0.000263	2.634956	0.892747	0.000105
1565	1.5562e+02	-17.6963	-57.474683	0.000274	2.736300	0.927084	0.000110
1566	1.5572e+02	-17.6642	-57.381829	0.000233	2.330922	0.789738	0.000093
1567	1.5582e+02	-17.6113	-57.284938	0.000243	2.432267	0.824074	0.000097
1568	1.5592e+02	-17.5776	-57.175935	0.000274	2.736300	0.927084	0.000110
1569	1.5602e+02	-17.5359	-57.058858	0.000294	2.938989	0.995756	0.000118
1570	1.5612e+02	-17.5054	-56.998301	0.000152	1.520167	0.515046	0.000061
1571	1.5622e+02	-17.4589	-56.889298	0.000274	2.736300	0.927084	0.000110
1572	1.5631e+02	-17.4107	-56.792407	0.000243	2.432267	0.824074	0.000097
1573	1.5641e+02	-17.3883	-56.695516	0.000243	2.432267	0.824074	0.000097
1574	1.5651e+02	-17.3353	-56.602662	0.000233	2.330922	0.789738	0.000093
1575	1.5661e+02	-17.2952	-56.505770	0.000243	2.432267	0.824074	0.000097
1576	1.5671e+02	-17.2583	-56.396768	0.000274	2.736300	0.927084	0.000110
1577	1.5681e+02	-17.2102	-56.295839	0.000253	2.533611	0.858411	0.000101
1578	1.5691e+02	-17.1845	-56.166651	0.000324	3.243022	1.098766	0.000130
1579	1.5701e+02	-17.1476	-56.081871	0.000213	2.128233	0.721065	0.000085
1580	1.5711e+02	-17.0979	-55.993054	0.000223	2.229578	0.755401	0.000089
1581	1.5721e+02	-17.0578	-55.859829	0.000334	3.344367	1.133102	0.000134
1582	1.5731e+02	-17.0193	-55.795234	0.000162	1.621511	0.549383	0.000065
1583	1.5741e+02	-16.9888	-55.670083	0.000314	3.141678	1.064429	0.000126
1584	1.5751e+02	-16.9343	-55.569155	0.000253	2.533611	0.858411	0.000101
1585	1.5761e+02	-16.9006	-55.476301	0.000233	2.330922	0.789738	0.000093
1586	1.5771e+02	-16.8444	-55.355187	0.000304	3.040334	1.030093	0.000122
1587	1.5781e+02	-16.8188	-55.298667	0.000142	1.418822	0.480710	0.000057
1588	1.5791e+02	-16.7787	-55.125070	0.000436	4.357811	1.476466	0.000174
1589	1.5801e+02	-16.7354	-55.056439	0.000172	1.722856	0.583719	0.000069
1590	1.5811e+02	-16.6920	-54.959547	0.000243	2.432267	0.824074	0.000097
1591	1.5821e+02	-16.6632	-54.806136	0.000385	3.851089	1.304784	0.000154
1592	1.5830e+02	-16.6215	-54.725393	0.000203	2.026889	0.686729	0.000081
1593	1.5840e+02	-16.5830	-54.616391	0.000274	2.736300	0.927084	0.000110
1594	1.5850e+02	-16.5380	-54.499314	0.000294	2.938989	0.995756	0.000118
1595	1.5860e+02	-16.4979	-54.438757	0.000152	1.520167	0.515046	0.000061
1596	1.5870e+02	-16.4578	-54.297457	0.000355	3.547056	1.201775	0.000142
1597	1.5880e+02	-16.4209	-54.160194	0.000345	3.445711	1.167439	0.000138
1598	1.5890e+02	-16.3760	-54.111749	0.000122	1.216133	0.412037	0.000049
1599	1.5900e+02	-16.3423	-53.978523	0.000334	3.344367	1.133102	0.000134
1600	1.5910e+02	-16.3006	-53.845298	0.000334	3.344367	1.133102	0.000134
1601	1.5920e+02	-16.2557	-53.776667	0.000172	1.722856	0.583719	0.000069
1602	1.5930e+02	-16.2220	-53.643441	0.000334	3.344367	1.133102	0.000134
1603	1.5940e+02	-16.1819	-53.570773	0.000182	1.824200	0.618056	0.000073
1604	1.5950e+02	-16.1450	-53.441584	0.000324	3.243022	1.098766	0.000130
1605	1.5960e+02	-16.1113	-53.376990	0.000162	1.621511	0.549383	0.000065
1606	1.5970e+02	-16.0680	-53.219542	0.000395	3.952434	1.339121	0.000158
1607	1.5980e+02	-16.0231	-53.146873	0.000182	1.824200	0.618056	0.000073
1608	1.5990e+02	-15.9750	-53.021722	0.000314	3.141678	1.064429	0.000126
1609	1.6000e+02	-15.9509	-52.904645	0.000294	2.938989	0.995756	0.000118
1610	1.6010e+02	-15.9060	-52.787568	0.000294	2.938989	0.995756	0.000118
1611	1.6019e+02	-15.8594	-52.698751	0.000223	2.229578	0.755401	0.000089
1612	1.6029e+02	-15.8209	-52.601860	0.000243	2.432267	0.824074	0.000097
1613	1.6039e+02	-15.7857	-52.464597	0.000345	3.445711	1.167439	0.000138
1614	1.6049e+02	-15.7488	-52.363669	0.000253	2.533611	0.858411	0.000101
1615	1.6059e+02	-15.7006	-52.278889	0.000213	2.128233	0.721065	0.000085
1616	1.6069e+02	-15.6718	-52.137589	0.000355	3.547056	1.201775	0.000142
1617	1.6079e+02	-15.6252	-52.016475	0.000304	3.040334	1.030093	0.000122
1618	1.6089e+02	-15.5803	-51.919584	0.000243	2.432267	0.824074	0.000097
1619	1.6099e+02	-15.5434	-51.810581	0.000274	2.736300	0.927084	0.000110
1620	1.6109e+02	-15.5065	-51.709653	0.000253	2.533611	0.858411	0.000101
1621	1.6119e+02	-15.4616	-51.604688	0.000263	2.634956	0.892747	0.000105
1622	1.6129e+02	-15.4263	-51.491648	0.000284	2.837645	0.961420	0.000114
1623	1.6139e+02	-15.3846	-51.378608	0.000284	2.837645	0.961420	0.000114
1624	1.6149e+02	-15.3397	-51.281717	0.000243	2.432267	0.824074	0.000097
1625	1.6159e+02	-15.3060	-51.188863	0.000233	2.330922	0.789738	0.000093
1626	1.6169e+02	-15.2659	-51.043526	0.000365	3.648400	1.236111	0.000146
1627	1.6179e+02	-15.2290	-50.950672	0.000233	2.330922	0.789738	0.000093
1628	1.6189e+02	-15.1841	-50.801298	0.000375	3.749745	1.270448	0.000150
1629	1.6199e+02	-15.1536	-50.688258	0.000284	2.837645	0.961420	0.000114
1630	1.6209e+02	-15.1006	-50.555032	0.000334	3.344367	1.133102	0.000134
1631	1.6219e+02	-15.0654	-50.454104	0.000253	2.533611	0.858411	0.000101
1632	1.6228e+02	-15.0220	-50.377398	0.000193	1.925545	0.652392	0.000077
1633	1.6238e+02	-14.9835	-50.232061	0.000365	3.648400	1.236111	0.000146
1634	1.6248e+02	-14.9531	-50.106910	0.000314	3.141678	1.064429	0.000126
1635	1.6258e+02	-14.9097	-49.993870	0.000284	2.837645	0.961420	0.000114
1636	1.6268e+02	-14.8680	-49.905053	0.000223	2.229578	0.755401	0.000089
1637	1.6278e+02	-14.8183	-49.779902	0.000314	3.141678	1.064429	0.000126
1638	1.6288e+02	-14.7894	-49.695122	0.000213	2.128233	0.721065	0.000085
1639	1.6298e+02	-14.7445	-49.565934	0.000324	3.243022	1.098766	0.000130
1640	1.6308e+02	-14.7044	-49.448857	0.000294	2.938989	0.995756	0.000118
1641	1.6318e+02	-14.6691	-49.335817	0.000284	2.837645	0.961420	0.000114
1642	1.6328e+02	-14.6274	-49.150109	0.000466	4.661845	1.579476	0.000187
1643	1.6338e+02	-14.5889	-49.081478	0.000172	1.722856	0.583719	0.000069
1644	1.6348e+02	-14.5456	-48.996698	0.000213	2.128233	0.721065	0.000085
1645	1.6358e+02	-14.5135	-48.859435	0.000345	3.445711	1.167439	0.000138
1646	1.6368e+02	-14.4654	-48.770618	0.000223	2.229578	0.755401	0.000089
1647	1.6378e+02	-14.4221	-48.617207	0.000385	3.851089	1.304784	0.000154
1648	1.6388e+02	-14.3932	-48.496093	0.000304	3.040334	1.030093	0.000122
1649	1.6398e+02	-14.3499	-48.387090	0.000274	2.736300	0.927084	0.000110
1650	1.6408e+02	-14.3001	-48.274051	0.000284	2.837645	0.961420	0.000114
1651	1.6418e+02	-14.2664	-48.152937	0.000304	3.040334	1.030093	0.000122
1652	1.6427e+02	-14.2263	-48.052008	0.000253	2.533611	0.858411	0.000101
1653	1.6437e+02	-14.1910	-47.930894	0.000304	3.040334	1.030093	0.000122
1654	1.6447e+02	-14.1445	-47.854188	0.000193	1.925545	0.652392	0.000077
1655	1.6457e+02	-14.1092	-47.720963	0.000334	3.344367	1.133102	0.000134
1656	1.6467e+02	-14.0643	-47.615997	0.000263	2.634956	0.892747	0.000105
1657	1.6477e+02	-14.0274	-47.454512	0.000405	4.053778	1.373457	0.000162
1658	1.6487e+02	-13.9905	-47.357621	0.000243	2.432267	0.824074	0.000097
1659	1.6497e+02	-13.9584	-47.232470	0.000314	3.141678	1.064429	0.000126
1660	1.6507e+02	-13.9103	-47.147690	0.000213	2.128233	0.721065	0.000085
1661	1.6517e+02	-13.8670	-47.006390	0.000355	3.547056	1.201775	0.000142
1662	1.6527e+02	-13.8237	-46.921610	0.000213	2.128233	0.721065	0.000085
1663	1.6537e+02	-13.7932	-46.796459	0.000314	3.141678	1.064429	0.000126
1664	1.6547e+02	-13.7531	-46.667271	0.000324	3.243022	1.098766	0.000130
1665	1.6557e+02	-13.7082	-46.566342	0.000253	2.533611	0.858411	0.000101
1666	1.6567e+02	-13.6761	-46.441191	0.000314	3.141678	1.064429	0.000126
1667	1.6577e+02	-13.6360	-46.307965	0.000334	3.344367	1.133102	0.000134
1668	1.6587e+02	-13.5846	-46.211074	0.000243	2.432267	0.824074	0.000097
1669	1.6597e+02	-13.5510	-46.053626	0.000395	3.952434	1.339121	0.000158
1670	1.6607e+02	-13.5076	-45.968846	0.000213	2.128233	0.721065	0.000085
1671	1.6616e+02	-13.4691	-45.843695	0.000314	3.141678	1.064429	0.000126
1672	1.6626e+02	-13.4162	-45.746804	0.000243	2.432267	0.824074	0.000097
1673	1.6636e+02	-13.3921	-45.637801	0.000274	2.736300	0.927084	0.000110
1674	1.6646e+02	-13.3440	-45.520724	0.000294	2.938989	0.995756	0.000118
1675	1.6656e+02	-13.3087	-45.407684	0.000284	2.837645	0.961420	0.000114
1676	1.6666e+02	-13.2734	-45.238125	0.000426	4.256467	1.442130	0.000170
1677	1.6676e+02	-13.2349	-45.133159	0.000263	2.634956	0.892747	0.000105
1678	1.6686e+02	-13.1916	-45.036268	0.000243	2.432267	0.824074	0.000097
1679	1.6696e+02	-13.1499	-44.939376	0.000243	2.432267	0.824074	0.000097
1680	1.6706e+02	-13.1130	-44.777891	0.000405	4.053778	1.373457	0.000162
1681	1.6716e+02	-13.0729	-44.681000	0.000243	2.432267	0.824074	0.000097
1682	1.6726e+02	-13.0312	-44.547774	0.000334	3.344367	1.133102	0.000134
1683	1.6736e+02	-12.9943	-44.434735	0.000284	2.837645	0.961420	0.000114
1684	1.6746e+02	-12.9526	-44.305546	0.000324	3.243022	1.098766	0.000130
1685	1.6756e+02	-12.9125	-44.220766	0.000213	2.128233	0.721065	0.000085
1686	1.6766e+02	-12.8692	-44.067355	0.000385	3.851089	1.304784	0.000154
1687	1.6776e+02	-12.8258	-43.930093	0.000345	3.445711	1.167439	0.000138
1688	1.6786e+02	-12.7954	-43.845313	0.000213	2.128233	0.721065	0.000085
1689	1.6796e+02	-12.7569	-43.699976	0.000365	3.648400	1.236111	0.000146
1690	1.6806e+02	-12.7168	-43.570787	0.000324	3.243022	1.098766	0.000130
1691	1.6816e+02	-12.6799	-43.498119	0.000182	1.824200	0.618056	0.000073
1692	1.6825e+02	-12.6414	-43.340671	0.000395	3.952434	1.339121	0.000158
1693	1.6835e+02	-12.5900	-43.223594	0.000294	2.938989	0.995756	0.000118
1694	1.6845e+02	-12.5595	-43.126703	0.000243	2.432267	0.824074	0.000097
1695	1.6855e+02	-12.5146	-42.969254	0.000395	3.952434	1.339121	0.000158
1696	1.6865e+02	-12.4809	-42.852177	0.000294	2.938989	0.995756	0.000118
1697	1.6875e+02	-12.4296	-42.731063	0.000304	3.040334	1.030093	0.000122
1698	1.6885e+02	-12.3911	-42.634172	0.000243	2.432267	0.824074	0.000097
1699	1.6895e+02	-12.3558	-42.541318	0.000233	2.330922	0.789738	0.000093
1700	1.6905e+02	-12.3221	-42.363684	0.000446	4.459156	1.510803	0.000179
1701	1.6915e+02	-12.2676	-42.218347	0.000365	3.648400	1.236111	0.000146
1702	1.6925e+02	-12.2371	-42.129530	0.000223	2.229578	0.755401	0.000089
1703	1.6935e+02	-12.1938	-41.992267	0.000345	3.445711	1.167439	0.000138
1704	1.6945e+02	-12.1537	-41.871153	0.000304	3.040334	1.030093	0.000122
1705	1.6955e+02	-12.1071	-41.762151	0.000274	2.736300	0.927084	0.000110
1706	1.6965e+02	-12.0735	-41.596628	0.000416	4.155123	1.407794	0.000166
1707	1.6975e+02	-12.0430	-41.499737	0.000243	2.432267	0.824074	0.000097
1708	1.6985e+02	-12.0029	-41.322103	0.000446	4.459156	1.510803	0.000179
1709	1.6995e+02	-11.9547	-41.257509	0.000162	1.621511	0.549383	0.000065
1710	1.7005e+02	-11.9146	-41.124283	0.000334	3.344367	1.133102	0.000134
1711	1.7015e+02	-11.8761	-41.011243	0.000284	2.837645	0.961420	0.000114
1712	1.7024e+02	-11.8441	-40.890129	0.000304	3.040334	1.030093	0.000122
1713	1.7034e+02	-11.7959	-40.793238	0.000243	2.432267	0.824074	0.000097
1714	1.7044e+02	-11.7494	-40.579270	0.000537	5.371256	1.819831	0.000215
1715	1.7054e+02	-11.7221	-40.510639	0.000172	1.722856	0.583719	0.000069
1716	1.7064e+02	-11.6804	-40.357227	0.000385	3.851089	1.304784	0.000154
1717	1.7074e+02	-11.6371	-40.268410	0.000223	2.229578	0.755401	0.000089
1718	1.7084e+02	-11.5954	-40.135185	0.000334	3.344367	1.133102	0.000134
1719	1.7094e+02	-11.5521	-39.989848	0.000365	3.648400	1.236111	0.000146
1720	1.7104e+02	-11.5136	-39.888920	0.000253	2.533611	0.858411	0.000101
1721	1.7114e+02	-11.4815	-39.767806	0.000304	3.040334	1.030093	0.000122
1722	1.7124e+02	-11.4366	-39.622469	0.000365	3.648400	1.236111	0.000146
1723	1.7134e+02	-11.3981	-39.493280	0.000324	3.243022	1.098766	0.000130
1724	1.7144e+02	-11.3644	-39.388315	0.000263	2.634956	0.892747	0.000105
1725	1.7154e+02	-11.3227	-39.242978	0.000365	3.648400	1.236111	0.000146
1726	1.7164e+02	-11.2794	-39.142050	0.000253	2.533611	0.858411	0.000101
1727	1.7174e+02	-11.2393	-38.992676	0.000375	3.749745	1.270448	0.000150
1728	1.7184e+02	-11.1991	-38.871561	0.000304	3.040334	1.030093	0.000122
1729	1.7194e+02	-11.1590	-38.758522	0.000284	2.837645	0.961420	0.000114
1730	1.7204e+02	-11.1302	-38.592999	0.000416	4.155123	1.407794	0.000166
1731	1.7213e+02	-11.0756	-38.483996	0.000274	2.736300	0.927084	0.000110
1732	1.7223e+02	-11.0387	-38.370957	0.000284	2.837645	0.961420	0.000114
1733	1.7233e+02	-11.0082	-38.257917	0.000284	2.837645	0.961420	0.000114
1734	1.7243e+02	-10.9585	-38.100469	0.000395	3.952434	1.339121	0.000158
1735	1.7253e+02	-10.9168	-37.951095	0.000375	3.749745	1.270448	0.000150
1736	1.7263e+02	-10.8799	-37.846129	0.000263	2.634956	0.892747	0.000105
1737	1.7273e+02	-10.8382	-37.741163	0.000263	2.634956	0.892747	0.000105
1738	1.7283e+02	-10.8045	-37.579678	0.000405	4.053778	1.373457	0.000162
1739	1.7293e+02	-10.7612	-37.458564	0.000304	3.040334	1.030093	0.000122
1740	1.7303e+02	-10.7275	-37.325338	0.000334	3.344367	1.133102	0.000134
1741	1.7313e+02	-10.6810	-37.196150	0.000324	3.243022	1.098766	0.000130
1742	1.7323e+02	-10.6425	-37.099259	0.000243	2.432267	0.824074	0.000097
1743	1.7333e+02	-10.6008	-36.945848	0.000385	3.851089	1.304784	0.000154
1744	1.7343e+02	-10.5591	-36.816659	0.000324	3.243022	1.098766	0.000130
1745	1.7353e+02	-10.5174	-36.663248	0.000385	3.851089	1.304784	0.000154
1746	1.7363e+02	-10.4772	-36.517911	0.000365	3.648400	1.236111	0.000146
1747	1.7373e+02	-10.4452	-36.408909	0.000274	2.736300	0.927084	0.000110
1748	1.7383e+02	-10.4051	-36.275683	0.000334	3.344367	1.133102	0.000134
1749	1.7393e+02	-10.3569	-36.085938	0.000476	4.763189	1.613812	0.000191
1750	1.7403e+02	-10.3248	-36.013269	0.000182	1.824200	0.618056	0.000073
1751	1.7413e+02	-10.2767	-35.880044	0.000334	3.344367	1.133102	0.000134
1752	1.7422e+02	-10.2398	-35.706447	0.000436	4.357811	1.476466	0.000174
1753	1.7432e+02	-10.2029	-35.581296	0.000314	3.141678	1.064429	0.000126
1754	1.7442e+02	-10.1676	-35.472293	0.000274	2.736300	0.927084	0.000110
1755	1.7452e+02	-10.1323	-35.314845	0.000395	3.952434	1.339121	0.000158
1756	1.7462e+02	-10.0826	-35.181619	0.000334	3.344367	1.133102	0.000134
1757	1.7472e+02	-10.0505	-35.048394	0.000334	3.344367	1.133102	0.000134
1758	1.7482e+02	-10.0024	-34.939391	0.000274	2.736300	0.927084	0.000110
1759	1.7492e+02	-9.9623	-34.781943	0.000395	3.952434	1.339121	0.000158
1760	1.7502e+02	-9.9270	-34.624495	0.000395	3.952434	1.339121	0.000158
1761	1.7512e+02	-9.8837	-34.511455	0.000284	2.837645	0.961420	0.000114
1762	1.7522e+02	-9.8404	-34.382267	0.000324	3.243022	1.098766	0.000130
1763	1.7532e+02	-9.8099	-34.228855	0.000385	3.851089	1.304784	0.000154
1764	1.7542e+02	-9.7682	-34.071407	0.000395	3.952434	1.339121	0.000158
1765	1.7552e+02	-9.7281	-33.950293	0.000304	3.040334	1.030093	0.000122
1766	1.7562e+02	-9.6880	-33.841290	0.000274	2.736300	0.927084	0.000110
1767	1.7572e+02	-9.6446	-33.720176	0.000304	3.040334	1.030093	0.000122
1768	1.7582e+02	-9.6126	-33.582914	0.000345	3.445711	1.167439	0.000138
1769	1.7592e+02	-9.5628	-33.453725	0.000324	3.243022	1.098766	0.000130
1770	1.7602e+02	-9.5163	-33.284166	0.000426	4.256467	1.442130	0.000170
1771	1.7612e+02	-9.4842	-33.191311	0.000233	2.330922	0.789738	0.000093
1772	1.7621e+02	-9.4489	-33.037900	0.000385	3.851089	1.304784	0.000154
1773	1.7631e+02	-9.4040	-32.896601	0.000355	3.547056	1.201775	0.000142
1774	1.7641e+02	-9.3639	-32.767412	0.000324	3.243022	1.098766	0.000130
1775	1.7651e+02	-9.3270	-32.597853	0.000426	4.256467	1.442130	0.000170
1776	1.7661e+02	-9.2965	-32.468664	0.000324	3.243022	1.098766	0.000130
1777	1.7671e+02	-9.2516	-32.355624	0.000284	2.837645	0.961420	0.000114
1778	1.7681e+02	-9.2083	-32.218362	0.000345	3.445711	1.167439	0.000138
1779	1.7691e+02	-9.1714	-32.121470	0.000243	2.432267	0.824074	0.000097
1780	1.7701e+02	-9.1313	-31.955948	0.000416	4.155123	1.407794	0.000166
1781	1.7711e+02	-9.1040	-31.855020	0.000253	2.533611	0.858411	0.000101
1782	1.7721e+02	-9.0479	-31.685460	0.000426	4.256467	1.442130	0.000170
1783	1.7731e+02	-9.0046	-31.536086	0.000375	3.749745	1.270448	0.000150
1784	1.7741e+02	-8.9661	-31.414972	0.000304	3.040334	1.030093	0.000122
1785	1.7751e+02	-8.9324	-31.281746	0.000334	3.344367	1.133102	0.000134
1786	1.7761e+02	-8.8842	-31.132372	0.000375	3.749745	1.270448	0.000150
1787	1.7771e+02	-8.8570	-30.966850	0.000416	4.155123	1.407794	0.000166
1788	1.7781e+02	-8.8153	-30.857847	0.000274	2.736300	0.927084	0.000110
1789	1.7791e+02	-8.7703	-30.736733	0.000304	3.040334	1.030093	0.000122
1790	1.7801e+02	-8.7286	-30.583322	0.000385	3.851089	1.304784	0.000154
1791	1.7810e+02	-8.6965	-30.442022	0.000355	3.547056	1.201775	0.000142
1792	1.7820e+02	-8.6452	-30.316871	0.000314	3.141678	1.064429	0.000126
1793	1.7830e+02	-8.6051	-30.147311	0.000426	4.256467	1.442130	0.000170
1794	1.7840e+02	-8.5650	-30.034271	0.000284	2.837645	0.961420	0.000114
1795	1.7850e+02	-8.5265	-29.868749	0.000416	4.155123	1.407794	0.000166
1796	1.7860e+02	-8.4944	-29.751672	0.000294	2.938989	0.995756	0.000118
1797	1.7870e+02	-8.4431	-29.598261	0.000385	3.851089	1.304784	0.000154
1798	1.7880e+02	-8.4110	-29.501369	0.000243	2.432267	0.824074	0.000097
1799	1.7890e+02	-8.3693	-29.311624	0.000476	4.763189	1.613812	0.000191
1800	1.7900e+02	-8.3356	-29.194547	0.000294	2.938989	0.995756	0.000118
1801	1.7910e+02	-8.2923	-29.061322	0.000334	3.344367	1.133102	0.000134
1802	1.7920e+02	-8.2522	-28.879651	0.000456	4.560500	1.545139	0.000183
1803	1.7930e+02	-8.2137	-28.782759	0.000243	2.432267	0.824074	0.000097
1804	1.7940e+02	-8.1671	-28.641459	0.000355	3.547056	1.201775	0.000142
1805	1.7950e+02	-8.1303	-28.500160	0.000355	3.547056	1.201775	0.000142
1806	1.7960e+02	-8.0982	-28.346749	0.000385	3.851089	1.304784	0.000154
1807	1.7970e+02	-8.0597	-28.229672	0.000294	2.938989	0.995756	0.000118
1808	1.7980e+02	-8.0099	-28.043963	0.000466	4.661845	1.579476	0.000187
1809	1.7990e+02	-7.9730	-27.943035	0.000253	2.533611	0.858411	0.000101
1810	1.8000e+02	-7.9217	-27.789624	0.000385	3.851089	1.304784	0.000154
1811	1.8009e+02	-7.8944	-27.644287	0.000365	3.648400	1.236111	0.000146
1812	1.8019e+02	-7.8495	-27.515099	0.000324	3.243022	1.098766	0.000130
1813	1.8029e+02	-7.8126	-27.373799	0.000355	3.547056	1.201775	0.000142
1814	1.8039e+02	-7.7741	-27.224425	0.000375	3.749745	1.270448	0.000150
1815	1.8049e+02	-7.7372	-27.099274	0.000314	3.141678	1.064429	0.000126
1816	1.8059e+02	-7.6907	-26.921640	0.000446	4.459156	1.510803	0.000179
1817	1.8069e+02	-7.6570	-26.828786	0.000233	2.330922	0.789738	0.000093
1818	1.8079e+02	-7.6089	-26.659226	0.000426	4.256467	1.442130	0.000170
1819	1.8089e+02	-7.5768	-26.513889	0.000365	3.648400	1.236111	0.000146
1820	1.8099e+02	-7.5303	-26.392775	0.000304	3.040334	1.030093	0.000122
1821	1.8109e+02	-7.5014	-26.247438	0.000365	3.648400	1.236111	0.000146
1822	1.8119e+02	-7.4501	-26.106138	0.000355	3.547056	1.201775	0.000142
1823	1.8129e+02	-7.4132	-25.952727	0.000385	3.851089	1.304784	0.000154
1824	1.8139e+02	-7.3698	-25.823539	0.000324	3.243022	1.098766	0.000130
1825	1.8149e+02	-7.3394	-25.690313	0.000334	3.344367	1.133102	0.000134
1826	1.8159e+02	-7.2896	-25.536902	0.000385	3.851089	1.304784	0.000154
1827	1.8169e+02	-7.2592	-25.391565	0.000365	3.648400	1.236111	0.000146
1828	1.8179e+02	-7.2190	-25.197783	0.000486	4.864534	1.648149	0.000195
1829	1.8189e+02	-7.1741	-25.108966	0.000223	2.229578	0.755401	0.000089
1830	1.8199e+02	-7.1388	-24.967666	0.000355	3.547056	1.201775	0.000142
1831	1.8209e+02	-7.0923	-24.798106	0.000426	4.256467	1.442130	0.000170
1832	1.8218e+02	-7.0570	-24.685066	0.000284	2.837645	0.961420	0.000114
1833	1.8228e+02	-7.0105	-24.539730	0.000365	3.648400	1.236111	0.000146
1834	1.8238e+02	-6.9784	-24.406504	0.000334	3.344367	1.133102	0.000134
1835	1.8248e+02	-6.9271	-24.273279	0.000334	3.344367	1.133102	0.000134
1836	1.8258e+02	-6.8966	-24.136016	0.000345	3.445711	1.167439	0.000138
1837	1.8268e+02	-6.8549	-23.970493	0.000416	4.155123	1.407794	0.000166
1838	1.8278e+02	-6.8244	-23.825157	0.000365	3.648400	1.236111	0.000146
1839	1.8288e+02	-6.7731	-23.695968	0.000324	3.243022	1.098766	0.000130
1840	1.8298e+02	-6.7314	-23.550631	0.000365	3.648400	1.236111	0.000146
1841	1.8308e+02	-6.7057	-23.445666	0.000263	2.634956	0.892747	0.000105
1842	1.8318e+02	-6.6624	-23.272069	0.000436	4.357811	1.476466	0.000174
1843	1.8328e+02	-6.6223	-23.150955	0.000304	3.040334	1.030093	0.000122
1844	1.8338e+02	-6.5790	-23.029841	0.000304	3.040334	1.030093	0.000122
1845	1.8348e+02	-6.5405	-22.868355	0.000405	4.053778	1.373457	0.000162
1846	1.8358e+02	-6.5020	-22.714944	0.000385	3.851089	1.304784	0.000154
1847	1.8368e+02	-6.4538	-22.593830	0.000304	3.040334	1.030093	0.000122
1848	1.8378e+02	-6.4217	-22.444456	0.000375	3.749745	1.270448	0.000150
1849	1.8388e+02	-6.3881	-22.323342	0.000304	3.040334	1.030093	0.000122
1850	1.8398e+02	-6.3431	-22.145708	0.000446	4.459156	1.510803	0.000179
1851	1.8407e+02	-6.2982	-22.020557	0.000314	3.141678	1.064429	0.000126
1852	1.8417e+02	-6.2661	-21.903480	0.000294	2.938989	0.995756	0.000118
1853	1.8427e+02	-6.2180	-21.754106	0.000375	3.749745	1.270448	0.000150
1854	1.8437e+02	-6.1747	-21.592620	0.000405	4.053778	1.373457	0.000162
1855	1.8447e+02	-6.1410	-21.463432	0.000324	3.243022	1.098766	0.000130
1856	1.8457e+02	-6.1009	-21.330207	0.000334	3.344367	1.133102	0.000134
1857	1.8467e+02	-6.0560	-21.136424	0.000486	4.864534	1.648149	0.000195
1858	1.8477e+02	-6.0335	-20.962827	0.000436	4.357811	1.476466	0.000174
1859	1.8487e+02	-5.9822	-20.837676	0.000314	3.141678	1.064429	0.000126
1860	1.8497e+02	-5.9389	-20.704451	0.000334	3.344367	1.133102	0.000134
1861	1.8507e+02	-5.9036	-20.599485	0.000263	2.634956	0.892747	0.000105
1862	1.8517e+02	-5.8603	-20.413777	0.000466	4.661845	1.579476	0.000187
1863	1.8527e+02	-5.8250	-20.280551	0.000334	3.344367	1.133102	0.000134
1864	1.8537e+02	-5.7849	-20.110992	0.000426	4.256467	1.442130	0.000170
1865	1.8547e+02	-5.7399	-19.989878	0.000304	3.040334	1.030093	0.000122
1866	1.8557e+02	-5.7030	-19.832429	0.000395	3.952434	1.339121	0.000158
1867	1.8567e+02	-5.6678	-19.691130	0.000355	3.547056	1.201775	0.000142
1868	1.8577e+02	-5.6212	-19.553867	0.000345	3.445711	1.167439	0.000138
1869	1.8587e+02	-5.5875	-19.372196	0.000456	4.560500	1.545139	0.000183
1870	1.8597e+02	-5.5410	-19.238970	0.000334	3.344367	1.133102	0.000134
1871	1.8606e+02	-5.5073	-19.085559	0.000385	3.851089	1.304784	0.000154
1872	1.8616e+02	-5.4624	-18.956371	0.000324	3.243022	1.098766	0.000130
1873	1.8626e+02	-5.4159	-18.811034	0.000365	3.648400	1.236111	0.000146
1874	1.8636e+02	-5.3918	-18.653586	0.000395	3.952434	1.339121	0.000158
1875	1.8646e+02	-5.3421	-18.536509	0.000294	2.938989	0.995756	0.000118
1876	1.8656e+02	-5.3052	-18.338689	0.000497	4.965878	1.682485	0.000199
1877	1.8666e+02	-5.2699	-18.233724	0.000263	2.634956	0.892747	0.000105
1878	1.8676e+02	-5.2282	-18.104535	0.000324	3.243022	1.098766	0.000130
1879	1.8686e+02	-5.1801	-17.934976	0.000426	4.256467	1.442130	0.000170
1880	1.8696e+02	-5.1464	-17.793676	0.000355	3.547056	1.201775	0.000142
1881	1.8706e+02	-5.1063	-17.628153	0.000416	4.155123	1.407794	0.000166
1882	1.8716e+02	-5.0678	-17.470705	0.000395	3.952434	1.339121	0.000158
1883	1.8726e+02	-5.0245	-17.345554	0.000314	3.141678	1.064429	0.000126
1884	1.8736e+02	-4.9940	-17.196180	0.000375	3.749745	1.270448	0.000150
1885	1.8746e+02	-4.9475	-17.054880	0.000355	3.547056	1.201775	0.000142
1886	1.8756e+02	-4.9090	-16.889357	0.000416	4.155123	1.407794	0.000166
1887	1.8766e+02	-4.8737	-16.735946	0.000385	3.851089	1.304784	0.000154
1888	1.8776e+02	-4.8207	-16.574461	0.000405	4.053778	1.373457	0.000162
1889	1.8786e+02	-4.7870	-16.441235	0.000334	3.344367	1.133102	0.000134
1890	1.8796e+02	-4.7566	-16.328195	0.000284	2.837645	0.961420	0.000114
1891	1.8806e+02	-4.7052	-16.118264	0.000527	5.269911	1.785494	0.000211
1892	1.8815e+02	-4.6651	-15.993113	0.000314	3.141678	1.064429	0.000126
1893	1.8825e+02	-4.6282	-15.880073	0.000284	2.837645	0.961420	0.000114
1894	1.8835e+02	-4.5897	-15.702439	0.000446	4.459156	1.510803	0.000179
1895	1.8845e+02	-4.5448	-15.544991	0.000395	3.952434	1.339121	0.000158
1896	1.8855e+02	-4.5015	-15.407729	0.000345	3.445711	1.167439	0.000138
1897	1.8865e+02	-4.4630	-15.250280	0.000395	3.952434	1.339121	0.000158
1898	1.8875e+02	-4.4261	-15.096869	0.000385	3.851089	1.304784	0.000154
1899	1.8885e+02	-4.3908	-14.967681	0.000324	3.243022	1.098766	0.000130
1900	1.8895e+02	-4.3507	-14.826381	0.000355	3.547056	1.201775	0.000142
1901	1.8905e+02	-4.3090	-14.644710	0.000456	4.560500	1.545139	0.000183
1902	1.8915e+02	-4.2673	-14.487262	0.000395	3.952434	1.339121	0.000158
1903	1.8925e+02	-4.2191	-14.349999	0.000345	3.445711	1.167439	0.000138
1904	1.8935e+02	-4.1983	-14.200625	0.000375	3.749745	1.270448	0.000150
1905	1.8945e+02	-4.1502	-14.075474	0.000314	3.141678	1.064429	0.000126
1906	1.8955e+02	-4.1100	-13.877654	0.000497	4.965878	1.682485	0.000199
1907	1.8965e+02	-4.0731	-13.744429	0.000334	3.344367	1.133102	0.000134
1908	1.8975e+02	-4.0234	-13.578906	0.000416	4.155123	1.407794	0.000166
1909	1.8985e+02	-3.9913	-13.429532	0.000375	3.749745	1.270448	0.000150
1910	1.8995e+02	-3.9560	-13.268047	0.000405	4.053778	1.373457	0.000162
1911	1.9004e+02	-3.9111	-13.126747	0.000355	3.547056	1.201775	0.000142
1912	1.9014e+02	-3.8726	-12.965261	0.000405	4.053778	1.373457	0.000162
1913	1.9024e+02	-3.8341	-12.799739	0.000416	4.155123	1.407794	0.000166
1914	1.9034e+02	-3.7892	-12.654402	0.000365	3.648400	1.236111	0.000146
1915	1.9044e+02	-3.7443	-12.460619	0.000486	4.864534	1.648149	0.000195
1916	1.9054e+02	-3.7074	-12.339505	0.000304	3.040334	1.030093	0.000122
1917	1.9064e+02	-3.6705	-12.190131	0.000375	3.749745	1.270448	0.000150
1918	1.9074e+02	-3.6400	-12.044794	0.000365	3.648400	1.236111	0.000146
1919	1.9084e+02	-3.5935	-11.879272	0.000416	4.155123	1.407794	0.000166
1920	1.9094e+02	-3.5598	-11.697601	0.000456	4.560500	1.545139	0.000183
1921	1.9104e+02	-3.5085	-11.544190	0.000385	3.851089	1.304784	0.000154
1922	1.9114e+02	-3.4684	-11.415001	0.000324	3.243022	1.098766	0.000130
1923	1.9124e+02	-3.4331	-11.241404	0.000436	4.357811	1.476466	0.000174
1924	1.9134e+02	-3.3978	-11.079919	0.000405	4.053778	1.373457	0.000162
1925	1.9144e+02	-3.3448	-10.922471	0.000395	3.952434	1.339121	0.000158
1926	1.9154e+02	-3.3063	-10.781171	0.000355	3.547056	1.201775	0.000142
1927	1.9164e+02	-3.2678	-10.639871	0.000355	3.547056	1.201775	0.000142
1928	1.9174e+02	-3.2357	-10.474349	0.000416	4.155123	1.407794	0.000166
1929	1.9184e+02	-3.1940	-10.304789	0.000426	4.256467	1.442130	0.000170
1930	1.9194e+02	-3.1507	-10.139266	0.000416	4.155123	1.407794	0.000166
1931	1.9203e+02	-3.1154	-10.010078	0.000324	3.243022	1.098766	0.000130
1932	1.9213e+02	-3.0689	-9.816296	0.000486	4.864534	1.648149	0.000195
1933	1.9223e+02	-3.0304	-9.679033	0.000345	3.445711	1.167439	0.000138
1934	1.9233e+02	-2.9903	-9.501399	0.000446	4.459156	1.510803	0.000179
1935	1.9243e+02	-2.9438	-9.335876	0.000416	4.155123	1.407794	0.000166
1936	1.9253e+02	-2.9101	-9.190540	0.000365	3.648400	1.236111	0.000146
1937	1.9263e+02	-2.8748	-9.037128	0.000385	3.851089	1.304784	0.000154
1938	1.9273e+02	-2.8315	-8.899866	0.000345	3.445711	1.167439	0.000138
1939	1.9283e+02	-2.7946	-8.746455	0.000385	3.851089	1.304784	0.000154
1940	1.9293e+02	-2.7561	-8.593043	0.000385	3.851089	1.304784	0.000154
1941	1.9303e+02	-2.7128	-8.387149	0.000517	5.168567	1.751158	0.000207
1942	1.9313e+02	-2.6775	-8.261998	0.000314	3.141678	1.064429	0.000126
1943	1.9323e+02	-2.6293	-8.132810	0.000324	3.243022	1.098766	0.000130
1944	1.9333e+02	-2.6021	-7.955176	0.000446	4.459156	1.510803	0.000179
1945	1.9343e+02	-2.5604	-7.813876	0.000355	3.547056	1.201775	0.000142
1946	1.9353e+02	-2.5122	-7.640279	0.000436	4.357811	1.476466	0.000174
1947	1.9363e+02	-2.4801	-7.486868	0.000385	3.851089	1.304784	0.000154
1948	1.9373e+02	-2.4320	-7.345568	0.000355	3.547056	1.201775	0.000142
1949	1.9383e+02	-2.3983	-7.171972	0.000436	4.357811	1.476466	0.000174
1950	1.9393e+02	-2.3566	-6.994338	0.000446	4.459156	1.510803	0.000179
1951	1.9403e+02	-2.3213	-6.840927	0.000385	3.851089	1.304784	0.000154
1952	1.9412e+02	-2.2860	-6.675404	0.000416	4.155123	1.407794	0.000166
1953	1.9422e+02	-2.2299	-6.550253	0.000314	3.141678	1.064429	0.000126
1954	1.9432e+02	-2.1994	-6.400879	0.000375	3.749745	1.270448	0.000150
1955	1.9442e+02	-2.1529	-6.194985	0.000517	5.168567	1.751158	0.000207
1956	1.9452e+02	-2.1240	-6.021388	0.000436	4.357811	1.476466	0.000174
1957	1.9462e+02	-2.0711	-5.924497	0.000243	2.432267	0.824074	0.000097
1958	1.9472e+02	-2.0390	-5.754937	0.000426	4.256467	1.442130	0.000170
1959	1.9482e+02	-2.0021	-5.597489	0.000395	3.952434	1.339121	0.000158
1960	1.9492e+02	-1.9556	-5.448115	0.000375	3.749745	1.270448	0.000150
1961	1.9502e+02	-1.9219	-5.262406	0.000466	4.661845	1.579476	0.000187
1962	1.9512e+02	-1.8802	-5.141292	0.000304	3.040334	1.030093	0.000122
1963	1.9522e+02	-1.8401	-4.939436	0.000507	5.067223	1.716821	0.000203
1964	1.9532e+02	-1.7903	-4.790062	0.000375	3.749745	1.270448	0.000150
1965	1.9542e+02	-1.7711	-4.644725	0.000365	3.648400	1.236111	0.000146
1966	1.9552e+02	-1.7278	-4.471128	0.000436	4.357811	1.476466	0.000174
1967	1.9562e+02	-1.6764	-4.293494	0.000446	4.459156	1.510803	0.000179
1968	1.9572e+02	-1.6315	-4.107786	0.000466	4.661845	1.579476	0.000187
1969	1.9582e+02	-1.6042	-3.990709	0.000294	2.938989	0.995756	0.000118
1970	1.9592e+02	-1.5609	-3.813075	0.000446	4.459156	1.510803	0.000179
1971	1.9601e+02	-1.5192	-3.675812	0.000345	3.445711	1.167439	0.000138
1972	1.9611e+02	-1.4759	-3.506252	0.000426	4.256467	1.442130	0.000170
1973	1.9621e+02	-1.4406	-3.328618	0.000446	4.459156	1.510803	0.000179
1974	1.9631e+02	-1.3957	-3.187319	0.000355	3.547056	1.201775	0.000142
1975	1.9641e+02	-1.3540	-3.066205	0.000304	3.040334	1.030093	0.000122
1976	1.9651e+02	-1.3155	-2.852236	0.000537	5.371256	1.819831	0.000215
1977	1.9661e+02	-1.2866	-2.698825	0.000385	3.851089	1.304784	0.000154
1978	1.9671e+02	-1.2321	-2.525228	0.000436	4.357811	1.476466	0.000174
1979	1.9681e+02	-1.2096	-2.375854	0.000375	3.749745	1.270448	0.000150
1980	1.9691e+02	-1.1599	-2.210332	0.000416	4.155123	1.407794	0.000166
1981	1.9701e+02	-1.1278	-2.060958	0.000375	3.749745	1.270448	0.000150
1982	1.9711e+02	-1.0893	-1.891398	0.000426	4.256467	1.442130	0.000170
1983	1.9721e+02	-1.0492	-1.742024	0.000375	3.749745	1.270448	0.000150
1984	1.9731e+02	-0.9994	-1.584576	0.000395	3.952434	1.339121	0.000158
1985	1.9741e+02	-0.9609	-1.443276	0.000355	3.547056	1.201775	0.000142
1986	1.9751e+02	-0.9160	-1.265642	0.000446	4.459156	1.510803	0.000179
1987	1.9761e+02	-0.8791	-1.120305	0.000365	3.648400	1.236111	0.000146
1988	1.9771e+02	-0.8374	-0.946708	0.000436	4.357811	1.476466	0.000174
1989	1.9781e+02	-0.8101	-0.756963	0.000476	4.763189	1.613812	0.000191
1990	1.9791e+02	-0.7556	-0.587403	0.000426	4.256467	1.442130	0.000170
1991	1.9800e+02	-0.7203	-0.470326	0.000294	2.938989	0.995756	0.000118
1992	1.9810e+02	-0.6818	-0.312878	0.000395	3.952434	1.339121	0.000158
1993	1.9820e+02	-0.6465	-0.123133	0.000476	4.763189	1.613812	0.000191
1994	1.9830e+02	-0.5936	0.042390	0.000416	4.155123	1.407794	0.000166
1995	1.9840e+02	-0.5679	0.159467	0.000294	2.938989	0.995756	0.000118
1996	1.9850e+02	-0.5182	0.300767	0.000355	3.547056	1.201775	0.000142
1997	1.9860e+02	-0.4845	0.514735	0.000537	5.371256	1.819831	0.000215
1998	1.9870e+02	-0.4492	0.660072	0.000365	3.648400	1.236111	0.000146
1999	1.9880e+02	-0.4059	0.813483	0.000385	3.851089	1.304784	0.000154
2000	1.9890e+02	-0.3593	0.983043	0.000426	4.256467	1.442130	0.000170
2001	1.9900e+02	-0.3241	1.128379	0.000365	3.648400	1.236111	0.000146
2002	1.9910e+02	-0.2904	1.289865	0.000405	4.053778	1.373457	0.000162
2003	1.9920e+02	-0.2438	1.463462	0.000436	4.357811	1.476466	0.000174
2004	1.9930e+02	-0.2069	1.620910	0.000395	3.952434	1.339121	0.000158
2005	1.9940e+02	-0.1604	1.770284	0.000375	3.749745	1.270448	0.000150
2006	1.9950e+02	-0.1283	1.903510	0.000334	3.344367	1.133102	0.000134
2007	1.9960e+02	-0.0882	2.105366	0.000507	5.067223	1.716821	0.000203
2008	1.9970e+02	-0.0561	2.222443	0.000294	2.938989	0.995756	0.000118
2009	1.9980e+02	-0.0064	2.396040	0.000294	2.938989	0.995756	0.000174

PMax (uC/cm2):	9.82e+01
Pr (uC/cm2):	5.94e+01
-Pr (uC/cm2):	4.48e+01
PLoss (uC/cm2):	4.48e+01
Vc:	-1.23e+01
-Vc:	-1.57e+01
C (Max-Eff) (nF):	4.91e-01
K (Eff):	1.66e+03
Vert. (+/-Pr) Shift (uC/cm2):	5.21e+01
Horiz. Shift (+/-Vc):	-1.40e+01
Offset (uC/cm2):	4.24e+01

A (Loop Area - uC/cm2·Volts):	-3.24e+00



Hysteresis Version: 5.48.1 - Radiant Technologies, Inc., 1999 - 9/12/24

