»»»»»»»»»»»»»»»»»»»»»»»»»»»»»»»»»»»» Hysteresis ««««««««««««««««««««««««««««««««««««
»»»  Executed Version:	5.48.1
»»»  Vision Version:	5.48.4 (R)
»»»  Vision Compiled:	9/18/24
»»»  Driver Version:	5.47.0
»»»  Windows Version:	Windows 8 or 8.1
»»»  Processor Information:	x86 (AMD or Intel) - 32 Processors
»»»  Tester Name:	PMF21124-494 (100V)
»»»  Tester S/N:	PMF21124-494
»»»  Internal Amp Type:	100V RevK 270k
»»»  Internal Amp S/N:	iAB2-596/K     
»»»  Execution Count:	1
»»»»»»»»»»»»»»»»»»»»»»»»»»»»»»»»»»»»»»»»»»««««««««««««««««««««««««««««««««««««««««««

Stored:	6/17/2025 - 17:44:53
Configured:	06/17/25 10:39:14 AM
Executed:	06/17/25 05:44:11 PM

»»»»»»»»»»»»»»»»»»»»»»»»»»»»»»»»»»» Sample Info ««««««««««««««««««««««««««««««««««««
Sample Name:	
Lot Name:	
Wafer Name:	
Die Row/Column:	0/0
Capacitor Number:	0
Sample Area (cm2):	1.00e-04
Sample Thickness (microns):	3.00e-01

Amplifier:	Internal

»»»»»»»»»»»»»»»»»»»»»»»»»»»»»»»»»»» Tester Info «««««««««««««««««««««««««««««««««««
Tester Name:	PMF21124-494 (100V)
Tester Serial Number:	PMF21124-494
Return Signal Amp. Level:	0.19 [Index: 3]

»»»»»»»»»»»»»»»»»»»»»»»»»»»»»»»» Hysteresis Info ««««««««««««««««««««««««««««««««««
Task Name:	Hyst-180
Volts:	20.00
Field:	666.67 (kV/cm)
DCBias:	0.00
DCField:	0.00 (kV/cm)
Hysteresis Period (ms):	1.00e+00
Preset:	Enabled
Preset Delay (ms):	1.00e+03
Profile:	Standard Bipolar

»»»»»»»»»»»»»»»»»»»»»»»»»»»»»»»»»»»»»» Data «««««««««««««««««««««««««««««««««««««««
Points:	2001

Valid Data

Point	Time (ms)	Drive Voltage	Measured Polarization (uC/cm2)	Capacitance (uF)	Normalized Capacitance (uF/cm2)	Dielectric Constant	Instantaneous Current (mA)
   1	0.0000e+00	0.0241	-5.686669	0.000697	6.972486	2.362342	0.055657
   2	5.0000e-04	0.0305	-5.408385	0.000697	6.972486	2.362342	0.055657
   3	1.0000e-03	0.0594	-5.573742	-0.000414	-4.143071	-1.403710	-0.033071
   4	1.5000e-03	0.0930	-5.166399	0.001021	10.206102	3.457921	0.081469
   5	2.0000e-03	0.1299	-4.972811	0.000485	4.850425	1.643368	0.038718
   6	2.5000e-03	0.1668	-4.835685	0.000344	3.435718	1.164053	0.027425
   7	3.0000e-03	0.2021	-4.513037	0.000808	8.084041	2.738947	0.064530
   8	3.5000e-03	0.2487	-4.343647	0.000424	4.244122	1.437947	0.033878
   9	4.0000e-03	0.2952	-4.170224	0.000435	4.345172	1.472184	0.034685
  10	4.5000e-03	0.3321	-3.867742	0.000758	7.578789	2.567763	0.060496
  11	5.0000e-03	0.3706	-3.686252	0.000455	4.547273	1.540658	0.036298
  12	5.5000e-03	0.4187	-3.597524	0.000222	2.223111	0.753211	0.017746
  13	6.0000e-03	0.4572	-3.403935	0.000485	4.850425	1.643368	0.038718
  14	6.5000e-03	0.4973	-3.129685	0.000687	6.871435	2.328105	0.054850
  15	7.0000e-03	0.5262	-2.819136	0.000778	7.780890	2.636237	0.062110
  16	7.5000e-03	0.5727	-2.597315	0.000556	5.557778	1.883026	0.044364
  17	8.0000e-03	0.6128	-2.335164	0.000657	6.568283	2.225395	0.052430
  18	8.5000e-03	0.6417	-2.105277	0.000576	5.759879	1.951500	0.045977
  19	9.0000e-03	0.6882	-1.996384	0.000273	2.728364	0.924395	0.021779
  20	9.5000e-03	0.7267	-1.677769	0.000798	7.982991	2.704710	0.063723
  21	1.0000e-02	0.7652	-1.439816	0.000596	5.961980	2.019974	0.047591
  22	1.0500e-02	0.8117	-1.347055	0.000232	2.324162	0.787447	0.018552
  23	1.1000e-02	0.8502	-1.076837	0.000677	6.770385	2.293868	0.054044
  24	1.1500e-02	0.9016	-0.887282	0.000475	4.749374	1.609132	0.037911
  25	1.2000e-02	0.9337	-0.528336	0.000899	8.993496	3.047079	0.071789
  26	1.2500e-02	0.9593	-0.516237	0.000030	0.303152	0.102711	0.002420
  27	1.3000e-02	1.0107	-0.314582	0.000505	5.052526	1.711842	0.040331
  28	1.3500e-02	1.0540	-0.032265	0.000707	7.073536	2.396579	0.056463
  29	1.4000e-02	1.0893	0.028232	0.000152	1.515758	0.513553	0.012099
  30	1.4500e-02	1.1342	0.371045	0.000859	8.589294	2.910132	0.068563
  31	1.5000e-02	1.1695	0.705792	0.000839	8.387193	2.841658	0.066949
  32	1.5500e-02	1.2192	0.717892	0.000030	0.303152	0.102711	0.002420
  33	1.6000e-02	1.2545	0.943745	0.000566	5.658829	1.917263	0.045171
  34	1.6500e-02	1.2898	1.213963	0.000677	6.770385	2.293868	0.054044
  35	1.7000e-02	1.3299	1.512412	0.000748	7.477738	2.533526	0.059690
  36	1.7500e-02	1.3732	1.919755	0.001021	10.206102	3.457921	0.081469
  37	1.8000e-02	1.4053	1.891523	-0.000071	-0.707354	-0.239658	-0.005646
  38	1.8500e-02	1.4470	2.169807	0.000697	6.972486	2.362342	0.055657
  39	1.9000e-02	1.5000	2.480356	0.000778	7.780890	2.636237	0.062110
  40	1.9500e-02	1.5465	2.520687	0.000101	1.010505	0.342368	0.008066
  41	2.0000e-02	1.5738	2.677977	0.000394	3.940970	1.335237	0.031458
  42	2.0500e-02	1.6042	3.242611	0.001415	14.147072	4.793158	0.112927
  43	2.1000e-02	1.6443	3.500730	0.000647	6.467233	2.191158	0.051624
  44	2.1500e-02	1.6877	3.504763	0.000010	0.101051	0.034237	0.000807
  45	2.2000e-02	1.7342	3.649954	0.000364	3.637819	1.232526	0.029038
  46	2.2500e-02	1.7582	3.916139	0.000667	6.669334	2.259632	0.053237
  47	2.3000e-02	1.8144	4.432375	0.001293	12.934466	4.382316	0.103247
  48	2.3500e-02	1.8545	4.529170	0.000243	2.425212	0.821684	0.019359
  49	2.4000e-02	1.8962	4.642096	0.000283	2.829414	0.958632	0.022585
  50	2.4500e-02	1.9235	4.855851	0.000536	5.355677	1.814553	0.042751
  51	2.5000e-02	1.9700	5.029274	0.000435	4.345172	1.472184	0.034685
  52	2.5500e-02	2.0213	5.347889	0.000798	7.982991	2.704710	0.063723
  53	2.6000e-02	2.0550	5.658437	0.000778	7.780890	2.636237	0.062110
  54	2.6500e-02	2.0983	5.956887	0.000748	7.477738	2.533526	0.059690
  55	2.7000e-02	2.1352	6.049648	0.000232	2.324162	0.787447	0.018552
  56	2.7500e-02	2.1737	6.158542	0.000273	2.728364	0.924395	0.021779
  57	2.8000e-02	2.2106	6.452958	0.000738	7.376688	2.499289	0.058883
  58	2.8500e-02	2.2604	6.795771	0.000859	8.589294	2.910132	0.068563
  59	2.9000e-02	2.2876	7.041790	0.000616	6.164081	2.088447	0.049204
  60	2.9500e-02	2.3293	7.291842	0.000627	6.265132	2.122684	0.050010
  61	3.0000e-02	2.3678	7.501563	0.000525	5.254627	1.780316	0.041944
  62	3.0500e-02	2.4192	7.618523	0.000293	2.930465	0.992868	0.023392
  63	3.1000e-02	2.4481	7.916973	0.000748	7.477738	2.533526	0.059690
  64	3.1500e-02	2.4962	8.134760	0.000546	5.456728	1.848789	0.043557
  65	3.2000e-02	2.5267	8.247687	0.000283	2.829414	0.958632	0.022585
  66	3.2500e-02	2.5732	8.594533	0.000869	8.690344	2.944368	0.069369
  67	3.3000e-02	2.6053	8.796188	0.000505	5.052526	1.711842	0.040331
  68	3.3500e-02	2.6550	8.864751	0.000172	1.717859	0.582026	0.013713
  69	3.4000e-02	2.6823	9.215630	0.000879	8.791395	2.978605	0.070176
  70	3.4500e-02	2.7256	9.477782	0.000657	6.568283	2.225395	0.052430
  71	3.5000e-02	2.7753	9.639106	0.000404	4.042021	1.369474	0.032265
  72	3.5500e-02	2.8122	9.921423	0.000707	7.073536	2.396579	0.056463
  73	3.6000e-02	2.8539	9.977886	0.000141	1.414707	0.479316	0.011293
  74	3.6500e-02	2.8860	10.207773	0.000576	5.759879	1.951500	0.045977
  75	3.7000e-02	2.9325	10.574785	0.000920	9.195597	3.115553	0.073402
  76	3.7500e-02	2.9775	10.768373	0.000485	4.850425	1.643368	0.038718
  77	3.8000e-02	3.0079	11.272511	0.001263	12.631314	4.279605	0.100827
  78	3.8500e-02	3.0416	11.421735	0.000374	3.738869	1.266763	0.029845
  79	3.9000e-02	3.0865	11.470132	0.000121	1.212606	0.410842	0.009679
  80	3.9500e-02	3.1266	11.853277	0.000960	9.599799	3.252500	0.076629
  81	4.0000e-02	3.1619	11.994435	0.000354	3.536768	1.198289	0.028232
  82	4.0500e-02	3.2197	12.417911	0.001061	10.610304	3.594868	0.084695
  83	4.1000e-02	3.2438	12.667963	0.000627	6.265132	2.122684	0.050010
  84	4.1500e-02	3.2951	12.696194	0.000071	0.707354	0.239658	0.005646
  85	4.2000e-02	3.3320	12.829287	0.000333	3.334667	1.129816	0.026618
  86	4.2500e-02	3.3705	13.216464	0.000970	9.700849	3.286737	0.077435
  87	4.3000e-02	3.4138	13.305192	0.000222	2.223111	0.753211	0.017746
  88	4.3500e-02	3.4635	13.611708	0.000768	7.679839	2.602000	0.061303
  89	4.4000e-02	3.4972	13.684304	0.000182	1.818909	0.616263	0.014519
  90	4.4500e-02	3.5261	13.938389	0.000637	6.366182	2.156921	0.050817
  91	4.5000e-02	3.5774	14.248937	0.000778	7.780890	2.636237	0.062110
  92	4.5500e-02	3.6095	14.664347	0.001041	10.408203	3.526395	0.083082
  93	4.6000e-02	3.6593	14.906332	0.000606	6.063031	2.054210	0.048397
  94	4.6500e-02	3.6849	14.946663	0.000101	1.010505	0.342368	0.008066
  95	4.7000e-02	3.7314	15.204782	0.000647	6.467233	2.191158	0.051624
  96	4.7500e-02	3.7732	15.414503	0.000525	5.254627	1.780316	0.041944
  97	4.8000e-02	3.8101	15.757316	0.000859	8.589294	2.910132	0.068563
  98	4.8500e-02	3.8453	16.120295	0.000909	9.094546	3.081316	0.072596
  99	4.9000e-02	3.8855	16.249354	0.000323	3.233616	1.095579	0.025812
 100	4.9500e-02	3.9336	16.269520	0.000051	0.505253	0.171184	0.004033
 101	5.0000e-02	3.9721	16.608300	0.000849	8.488243	2.875895	0.067756
 102	5.0500e-02	4.0090	16.939014	0.000829	8.286142	2.807421	0.066143
 103	5.1000e-02	4.0475	17.217298	0.000697	6.972486	2.362342	0.055657
 104	5.1500e-02	4.0860	17.560111	0.000859	8.589294	2.910132	0.068563
 105	5.2000e-02	4.1277	17.604475	0.000111	1.111556	0.376605	0.008873
 106	5.2500e-02	4.1726	17.927123	0.000808	8.084041	2.738947	0.064530
 107	5.3000e-02	4.2159	17.862594	-0.000162	-1.616808	-0.547789	-0.012906
 108	5.3500e-02	4.2432	18.116679	0.000637	6.366182	2.156921	0.050817
 109	5.4000e-02	4.2977	18.544187	0.001071	10.711355	3.629105	0.085502
 110	5.4500e-02	4.3282	18.850703	0.000768	7.679839	2.602000	0.061303
 111	5.5000e-02	4.3731	18.911199	0.000152	1.515758	0.513553	0.012099
 112	5.5500e-02	4.4213	19.169318	0.000647	6.467233	2.191158	0.051624
 113	5.6000e-02	4.4453	19.495999	0.000819	8.185092	2.773184	0.065336
 114	5.6500e-02	4.4902	19.774282	0.000697	6.972486	2.362342	0.055657
 115	5.7000e-02	4.5287	19.923507	0.000374	3.738869	1.266763	0.029845
 116	5.7500e-02	4.5705	20.153394	0.000576	5.759879	1.951500	0.045977
 117	5.8000e-02	4.6122	20.375214	0.000556	5.557778	1.883026	0.044364
 118	5.8500e-02	4.6571	20.641399	0.000667	6.669334	2.259632	0.053237
 119	5.9000e-02	4.7020	20.697862	0.000141	1.414707	0.479316	0.011293
 120	5.9500e-02	4.7293	21.189900	0.001233	12.328163	4.176895	0.098408
 121	6.0000e-02	4.7646	21.504482	0.000788	7.881940	2.670474	0.062916
 122	6.0500e-02	4.8063	21.673872	0.000424	4.244122	1.437947	0.033878
 123	6.1000e-02	4.8432	21.976354	0.000758	7.578789	2.567763	0.060496
 124	6.1500e-02	4.8977	22.065082	0.000222	2.223111	0.753211	0.017746
 125	6.2000e-02	4.9218	22.105413	0.000101	1.010505	0.342368	0.008066
 126	6.2500e-02	4.9635	22.444194	0.000849	8.488243	2.875895	0.067756
 127	6.3000e-02	5.0084	22.795073	0.000879	8.791395	2.978605	0.070176
 128	6.3500e-02	5.0565	22.908000	0.000283	2.829414	0.958632	0.022585
 129	6.4000e-02	5.0870	23.149986	0.000606	6.063031	2.054210	0.048397
 130	6.4500e-02	5.1271	23.593627	0.001112	11.115557	3.766053	0.088728
 131	6.5000e-02	5.1704	23.843679	0.000627	6.265132	2.122684	0.050010
 132	6.5500e-02	5.2218	23.936440	0.000232	2.324162	0.787447	0.018552
 133	6.6000e-02	5.2523	24.186492	0.000627	6.265132	2.122684	0.050010
 134	6.6500e-02	5.2876	24.480909	0.000738	7.376688	2.499289	0.058883
 135	6.7000e-02	5.3325	24.771292	0.000728	7.275637	2.465053	0.058077
 136	6.7500e-02	5.3726	25.001178	0.000576	5.759879	1.951500	0.045977
 137	6.8000e-02	5.4031	25.049575	0.000121	1.212606	0.410842	0.009679
 138	6.8500e-02	5.4432	25.364157	0.000788	7.881940	2.670474	0.062916
 139	6.9000e-02	5.4881	25.489183	0.000313	3.132566	1.061342	0.025005
 140	6.9500e-02	5.5330	25.840063	0.000879	8.791395	2.978605	0.070176
 141	7.0000e-02	5.5699	26.102214	0.000657	6.568283	2.225395	0.052430
 142	7.0500e-02	5.6148	26.283704	0.000455	4.547273	1.540658	0.036298
 143	7.1000e-02	5.6421	26.727344	0.001112	11.115557	3.766053	0.088728
 144	7.1500e-02	5.7014	26.787841	0.000152	1.515758	0.513553	0.012099
 145	7.2000e-02	5.7287	27.207283	0.001051	10.509254	3.560631	0.083888
 146	7.2500e-02	5.7752	27.251647	0.000111	1.111556	0.376605	0.008873
 147	7.3000e-02	5.8105	27.485567	0.000586	5.860930	1.985737	0.046784
 148	7.3500e-02	5.8522	27.784016	0.000748	7.477738	2.533526	0.059690
 149	7.4000e-02	5.9004	28.175227	0.000980	9.801900	3.320974	0.078242
 150	7.4500e-02	5.9292	28.146995	-0.000071	-0.707354	-0.239658	-0.005646
 151	7.5000e-02	5.9774	28.562404	0.001041	10.408203	3.526395	0.083082
 152	7.5500e-02	6.0062	28.840688	0.000697	6.972486	2.362342	0.055657
 153	7.6000e-02	6.0431	29.082674	0.000606	6.063031	2.054210	0.048397
 154	7.6500e-02	6.0881	29.377090	0.000738	7.376688	2.499289	0.058883
 155	7.7000e-02	6.1394	29.566646	0.000475	4.749374	1.609132	0.037911
 156	7.7500e-02	6.1715	29.727970	0.000404	4.042021	1.369474	0.032265
 157	7.8000e-02	6.2180	30.042551	0.000788	7.881940	2.670474	0.062916
 158	7.8500e-02	6.2549	30.353100	0.000778	7.780890	2.636237	0.062110
 159	7.9000e-02	6.2950	30.300670	-0.000131	-1.313657	-0.445079	-0.010486
 160	7.9500e-02	6.3319	30.655582	0.000889	8.892445	3.012842	0.070983
 161	8.0000e-02	6.3720	30.849171	0.000485	4.850425	1.643368	0.038718
 162	8.0500e-02	6.4185	31.248448	0.001000	10.004001	3.389447	0.079855
 163	8.1000e-02	6.4538	31.825181	0.001445	14.450224	4.895868	0.115347
 164	8.1500e-02	6.4859	31.893744	0.000172	1.717859	0.582026	0.013713
 165	8.2000e-02	6.5340	31.861479	-0.000081	-0.808404	-0.273895	-0.006453
 166	8.2500e-02	6.5677	31.946174	0.000212	2.122061	0.718974	0.016939
 167	8.3000e-02	6.6094	32.268822	0.000808	8.084041	2.738947	0.064530
 168	8.3500e-02	6.6463	32.583404	0.000788	7.881940	2.670474	0.062916
 169	8.4000e-02	6.6897	32.631801	0.000121	1.212606	0.410842	0.009679
 170	8.4500e-02	6.7394	32.942349	0.000778	7.780890	2.636237	0.062110
 171	8.5000e-02	6.7667	33.277097	0.000839	8.387193	2.841658	0.066949
 172	8.5500e-02	6.8100	33.450520	0.000435	4.345172	1.472184	0.034685
 173	8.6000e-02	6.8501	33.805432	0.000889	8.892445	3.012842	0.070983
 174	8.6500e-02	6.8854	34.015154	0.000525	5.254627	1.780316	0.041944
 175	8.7000e-02	6.9303	34.281338	0.000667	6.669334	2.259632	0.053237
 176	8.7500e-02	6.9784	34.462828	0.000455	4.547273	1.540658	0.036298
 177	8.8000e-02	7.0121	34.729012	0.000667	6.669334	2.259632	0.053237
 178	8.8500e-02	7.0458	34.975031	0.000616	6.164081	2.088447	0.049204
 179	8.9000e-02	7.1003	35.217017	0.000606	6.063031	2.054210	0.048397
 180	8.9500e-02	7.1292	35.543698	0.000819	8.185092	2.773184	0.065336
 181	9.0000e-02	7.1741	35.656625	0.000283	2.829414	0.958632	0.022585
 182	9.0500e-02	7.1998	35.914743	0.000647	6.467233	2.191158	0.051624
 183	9.1000e-02	7.2495	35.999438	0.000212	2.122061	0.718974	0.016939
 184	9.1500e-02	7.2961	36.330152	0.000829	8.286142	2.807421	0.066143
 185	9.2000e-02	7.3329	36.806058	0.001192	11.923961	4.039947	0.095181
 186	9.2500e-02	7.3747	36.693131	-0.000283	-2.829414	-0.958632	-0.022585
 187	9.3000e-02	7.4180	36.979481	0.000717	7.174587	2.430816	0.057270
 188	9.3500e-02	7.4485	37.314228	0.000839	8.387193	2.841658	0.066949
 189	9.4000e-02	7.4870	37.653009	0.000849	8.488243	2.875895	0.067756
 190	9.4500e-02	7.5239	37.923226	0.000677	6.770385	2.293868	0.054044
 191	9.5000e-02	7.5688	38.141013	0.000546	5.456728	1.848789	0.043557
 192	9.5500e-02	7.6057	38.423330	0.000707	7.073536	2.396579	0.056463
 193	9.6000e-02	7.6506	38.516092	0.000232	2.324162	0.787447	0.018552
 194	9.6500e-02	7.6971	38.620952	0.000263	2.627313	0.890158	0.020972
 195	9.7000e-02	7.7372	39.040394	0.001051	10.509254	3.560631	0.083888
 196	9.7500e-02	7.7709	39.310612	0.000677	6.770385	2.293868	0.054044
 197	9.8000e-02	7.8110	39.346910	0.000091	0.909455	0.308132	0.007260
 198	9.8500e-02	7.8511	39.814749	0.001172	11.721860	3.971474	0.093568
 199	9.9000e-02	7.8864	40.028504	0.000536	5.355677	1.814553	0.042751
 200	9.9500e-02	7.9313	40.335019	0.000768	7.679839	2.602000	0.061303
 201	1.0000e-01	7.9795	40.371317	0.000091	0.909455	0.308132	0.007260
 202	1.0050e-01	8.0099	40.657667	0.000717	7.174587	2.430816	0.057270
 203	1.0100e-01	8.0484	40.944017	0.000717	7.174587	2.430816	0.057270
 204	1.0150e-01	8.0950	41.153738	0.000525	5.254627	1.780316	0.041944
 205	1.0200e-01	8.1303	41.173904	0.000051	0.505253	0.171184	0.004033
 206	1.0250e-01	8.1752	41.500585	0.000819	8.185092	2.773184	0.065336
 207	1.0300e-01	8.2073	41.682074	0.000455	4.547273	1.540658	0.036298
 208	1.0350e-01	8.2506	41.915994	0.000586	5.860930	1.985737	0.046784
 209	1.0400e-01	8.2859	42.291072	0.000940	9.397698	3.184026	0.075016
 210	1.0450e-01	8.3340	42.690349	0.001000	10.004001	3.389447	0.079855
 211	1.0500e-01	8.3661	42.754878	0.000162	1.616808	0.547789	0.012906
 212	1.0550e-01	8.4142	43.045261	0.000728	7.275637	2.465053	0.058077
 213	1.0600e-01	8.4479	43.234817	0.000475	4.749374	1.609132	0.037911
 214	1.0650e-01	8.4928	43.585697	0.000879	8.791395	2.978605	0.070176
 215	1.0700e-01	8.5281	43.803484	0.000546	5.456728	1.848789	0.043557
 216	1.0750e-01	8.5666	44.206794	0.001011	10.105052	3.423684	0.080662
 217	1.0800e-01	8.6099	44.343919	0.000344	3.435718	1.164053	0.027425
 218	1.0850e-01	8.6548	44.537508	0.000485	4.850425	1.643368	0.038718
 219	1.0900e-01	8.6949	44.585905	0.000121	1.212606	0.410842	0.009679
 220	1.0950e-01	8.7318	44.767394	0.000455	4.547273	1.540658	0.036298
 221	1.1000e-01	8.7671	45.142473	0.000940	9.397698	3.184026	0.075016
 222	1.1050e-01	8.8137	45.134406	-0.000020	-0.202101	-0.068474	-0.001613
 223	1.1100e-01	8.8618	45.215068	0.000202	2.021010	0.684737	0.016132
 224	1.1150e-01	8.8939	45.727272	0.001283	12.833415	4.348079	0.102441
 225	1.1200e-01	8.9308	45.836166	0.000273	2.728364	0.924395	0.021779
 226	1.1250e-01	8.9789	46.263674	0.001071	10.711355	3.629105	0.085502
 227	1.1300e-01	9.0222	46.348369	0.000212	2.122061	0.718974	0.016939
 228	1.1350e-01	9.0655	46.634719	0.000717	7.174587	2.430816	0.057270
 229	1.1400e-01	9.0944	46.900904	0.000667	6.669334	2.259632	0.053237
 230	1.1450e-01	9.1313	47.154989	0.000637	6.366182	2.156921	0.050817
 231	1.1500e-01	9.1730	47.280015	0.000313	3.132566	1.061342	0.025005
 232	1.1550e-01	9.2051	47.727689	0.001122	11.216607	3.800289	0.089535
 233	1.1600e-01	9.2484	48.034204	0.000768	7.679839	2.602000	0.061303
 234	1.1650e-01	9.2965	48.175363	0.000354	3.536768	1.198289	0.028232
 235	1.1700e-01	9.3286	48.300389	0.000313	3.132566	1.061342	0.025005
 236	1.1750e-01	9.3767	48.586739	0.000717	7.174587	2.430816	0.057270
 237	1.1800e-01	9.4168	48.719831	0.000333	3.334667	1.129816	0.026618
 238	1.1850e-01	9.4521	49.046512	0.000819	8.185092	2.773184	0.065336
 239	1.1900e-01	9.4938	49.324796	0.000697	6.972486	2.362342	0.055657
 240	1.1950e-01	9.5275	49.526451	0.000505	5.052526	1.711842	0.040331
 241	1.2000e-01	9.5789	49.724073	0.000495	4.951475	1.677605	0.039524
 242	1.2050e-01	9.6126	50.187879	0.001162	11.620809	3.937237	0.092761
 243	1.2100e-01	9.6607	50.518593	0.000829	8.286142	2.807421	0.066143
 244	1.2150e-01	9.6848	50.518593	0.000000	0.000000	0.000000	0.000000
 245	1.2200e-01	9.7313	50.736380	0.000546	5.456728	1.848789	0.043557
 246	1.2250e-01	9.7794	50.982399	0.000616	6.164081	2.088447	0.049204
 247	1.2300e-01	9.8051	50.853340	-0.000323	-3.233616	-1.095579	-0.025812
 248	1.2350e-01	9.8660	51.325213	0.001182	11.822910	4.005710	0.094375
 249	1.2400e-01	9.8853	51.510735	0.000465	4.648324	1.574895	0.037105
 250	1.2450e-01	9.9302	51.918078	0.001021	10.206102	3.457921	0.081469
 251	1.2500e-01	9.9655	52.160064	0.000606	6.063031	2.054210	0.048397
 252	1.2550e-01	10.0088	52.317355	0.000394	3.940970	1.335237	0.031458
 253	1.2600e-01	10.0601	52.575473	0.000647	6.467233	2.191158	0.051624
 254	1.2650e-01	10.0986	52.789228	0.000536	5.355677	1.814553	0.042751
 255	1.2700e-01	10.1291	53.119942	0.000829	8.286142	2.807421	0.066143
 256	1.2750e-01	10.1692	53.406292	0.000717	7.174587	2.430816	0.057270
 257	1.2800e-01	10.2142	53.261100	-0.000364	-3.637819	-1.232526	-0.029038
 258	1.2850e-01	10.2559	53.563583	0.000758	7.578789	2.567763	0.060496
 259	1.2900e-01	10.2960	53.741039	0.000445	4.446223	1.506421	0.035491
 260	1.2950e-01	10.3329	54.095952	0.000889	8.892445	3.012842	0.070983
 261	1.3000e-01	10.3762	54.269375	0.000435	4.345172	1.472184	0.034685
 262	1.3050e-01	10.3970	54.563791	0.000738	7.376688	2.499289	0.058883
 263	1.3100e-01	10.4452	54.721082	0.000394	3.940970	1.335237	0.031458
 264	1.3150e-01	10.4949	54.926770	0.000515	5.153576	1.746079	0.041138
 265	1.3200e-01	10.5254	55.289749	0.000909	9.094546	3.081316	0.072596
 266	1.3250e-01	10.5671	55.503503	0.000536	5.355677	1.814553	0.042751
 267	1.3300e-01	10.6248	55.660794	0.000394	3.940970	1.335237	0.031458
 268	1.3350e-01	10.6601	55.858416	0.000495	4.951475	1.677605	0.039524
 269	1.3400e-01	10.6826	56.060071	0.000505	5.052526	1.711842	0.040331
 270	1.3450e-01	10.7275	56.362553	0.000758	7.578789	2.567763	0.060496
 271	1.3500e-01	10.7660	56.531943	0.000424	4.244122	1.437947	0.033878
 272	1.3550e-01	10.8206	56.781995	0.000627	6.265132	2.122684	0.050010
 273	1.3600e-01	10.8574	56.975584	0.000485	4.850425	1.643368	0.038718
 274	1.3650e-01	10.9056	57.310331	0.000839	8.387193	2.841658	0.066949
 275	1.3700e-01	10.9345	57.419225	0.000273	2.728364	0.924395	0.021779
 276	1.3750e-01	10.9697	57.637012	0.000546	5.456728	1.848789	0.043557
 277	1.3800e-01	11.0098	57.850766	0.000536	5.355677	1.814553	0.042751
 278	1.3850e-01	11.0580	58.096785	0.000616	6.164081	2.088447	0.049204
 279	1.3900e-01	11.0917	58.217778	0.000303	3.031515	1.027105	0.024199
 280	1.3950e-01	11.1302	58.564625	0.000869	8.690344	2.944368	0.069369
 281	1.4000e-01	11.1735	58.927604	0.000909	9.094546	3.081316	0.072596
 282	1.4050e-01	11.2200	59.169590	0.000606	6.063031	2.054210	0.048397
 283	1.4100e-01	11.2553	59.391410	0.000556	5.557778	1.883026	0.044364
 284	1.4150e-01	11.2970	59.556767	0.000414	4.143071	1.403710	0.033071
 285	1.4200e-01	11.3419	59.794720	0.000596	5.961980	2.019974	0.047591
 286	1.4250e-01	11.3660	60.093169	0.000748	7.477738	2.533526	0.059690
 287	1.4300e-01	11.4125	60.101235	0.000020	0.202101	0.068474	0.001613
 288	1.4350e-01	11.4446	60.440016	0.000849	8.488243	2.875895	0.067756
 289	1.4400e-01	11.4847	60.609406	0.000424	4.244122	1.437947	0.033878
 290	1.4450e-01	11.5344	60.919954	0.000778	7.780890	2.636237	0.062110
 291	1.4500e-01	11.5697	61.198238	0.000697	6.972486	2.362342	0.055657
 292	1.4550e-01	11.6114	61.258735	0.000152	1.515758	0.513553	0.012099
 293	1.4600e-01	11.6548	61.516853	0.000647	6.467233	2.191158	0.051624
 294	1.4650e-01	11.6916	61.609614	0.000232	2.324162	0.787447	0.018552
 295	1.4700e-01	11.7398	61.762872	0.000384	3.839920	1.301000	0.030652
 296	1.4750e-01	11.7703	62.206513	0.001112	11.115557	3.766053	0.088728
 297	1.4800e-01	11.8136	62.601757	0.000990	9.902950	3.355210	0.079049
 298	1.4850e-01	11.8457	62.795345	0.000485	4.850425	1.643368	0.038718
 299	1.4900e-01	11.8858	63.073629	0.000697	6.972486	2.362342	0.055657
 300	1.4950e-01	11.9323	63.150258	0.000192	1.919960	0.650500	0.015326
 301	1.5000e-01	11.9724	63.319648	0.000424	4.244122	1.437947	0.033878
 302	1.5050e-01	12.0157	63.541468	0.000556	5.557778	1.883026	0.044364
 303	1.5100e-01	12.0446	63.977043	0.001091	10.913456	3.697579	0.087115
 304	1.5150e-01	12.0911	64.118202	0.000354	3.536768	1.198289	0.028232
 305	1.5200e-01	12.1328	64.194830	0.000192	1.919960	0.650500	0.015326
 306	1.5250e-01	12.1761	64.303724	0.000273	2.728364	0.924395	0.021779
 307	1.5300e-01	12.2130	64.715100	0.001031	10.307153	3.492158	0.082275
 308	1.5350e-01	12.2451	64.969185	0.000637	6.366182	2.156921	0.050817
 309	1.5400e-01	12.2916	65.162774	0.000485	4.850425	1.643368	0.038718
 310	1.5450e-01	12.3382	65.356363	0.000485	4.850425	1.643368	0.038718
 311	1.5500e-01	12.3751	65.408793	0.000131	1.313657	0.445079	0.010486
 312	1.5550e-01	12.4280	65.783871	0.000940	9.397698	3.184026	0.075016
 313	1.5600e-01	12.4488	65.993592	0.000525	5.254627	1.780316	0.041944
 314	1.5650e-01	12.4954	66.267843	0.000687	6.871435	2.328105	0.054850
 315	1.5700e-01	12.5291	66.562259	0.000738	7.376688	2.499289	0.058883
 316	1.5750e-01	12.5804	66.683252	0.000303	3.031515	1.027105	0.024199
 317	1.5800e-01	12.6141	66.719550	0.000091	0.909455	0.308132	0.007260
 318	1.5850e-01	12.6654	66.659054	-0.000152	-1.515758	-0.513553	-0.012099
 319	1.5900e-01	12.6943	67.090595	0.001081	10.812405	3.663342	0.086308
 320	1.5950e-01	12.7248	67.493905	0.001011	10.105052	3.423684	0.080662
 321	1.6000e-01	12.7729	67.590699	0.000243	2.425212	0.821684	0.019359
 322	1.6050e-01	12.8098	67.860917	0.000677	6.770385	2.293868	0.054044
 323	1.6100e-01	12.8547	68.207764	0.000869	8.690344	2.944368	0.069369
 324	1.6150e-01	12.8916	68.792563	0.001465	14.652325	4.964342	0.116960
 325	1.6200e-01	12.9317	68.711901	-0.000202	-2.021010	-0.684737	-0.016132
 326	1.6250e-01	12.9718	68.828861	0.000293	2.930465	0.992868	0.023392
 327	1.6300e-01	13.0151	68.937754	0.000273	2.728364	0.924395	0.021779
 328	1.6350e-01	13.0536	69.078913	0.000354	3.536768	1.198289	0.028232
 329	1.6400e-01	13.0921	69.429792	0.000879	8.791395	2.978605	0.070176
 330	1.6450e-01	13.1322	69.756473	0.000819	8.185092	2.773184	0.065336
 331	1.6500e-01	13.1708	69.913764	0.000394	3.940970	1.335237	0.031458
 332	1.6550e-01	13.2012	70.014592	0.000253	2.526263	0.855921	0.020165
 333	1.6600e-01	13.2478	70.417902	0.001011	10.105052	3.423684	0.080662
 334	1.6650e-01	13.3007	70.272710	-0.000364	-3.637819	-1.232526	-0.029038
 335	1.6700e-01	13.3360	70.712318	0.001101	11.014506	3.731816	0.087922
 336	1.6750e-01	13.3633	70.768781	0.000141	1.414707	0.479316	0.011293
 337	1.6800e-01	13.4082	71.184190	0.001041	10.408203	3.526395	0.083082
 338	1.6850e-01	13.4579	71.434242	0.000627	6.265132	2.122684	0.050010
 339	1.6900e-01	13.4884	71.696394	0.000657	6.568283	2.225395	0.052430
 340	1.6950e-01	13.5349	71.918214	0.000556	5.557778	1.883026	0.044364
 341	1.7000e-01	13.5638	72.140035	0.000556	5.557778	1.883026	0.044364
 342	1.7050e-01	13.6087	72.317491	0.000445	4.446223	1.506421	0.035491
 343	1.7100e-01	13.6536	72.309425	-0.000020	-0.202101	-0.068474	-0.001613
 344	1.7150e-01	13.6873	72.567543	0.000647	6.467233	2.191158	0.051624
 345	1.7200e-01	13.7306	72.857926	0.000728	7.275637	2.465053	0.058077
 346	1.7250e-01	13.7707	73.091846	0.000586	5.860930	1.985737	0.046784
 347	1.7300e-01	13.8124	73.212839	0.000303	3.031515	1.027105	0.024199
 348	1.7350e-01	13.8493	73.487090	0.000687	6.871435	2.328105	0.054850
 349	1.7400e-01	13.8959	73.785539	0.000748	7.477738	2.533526	0.059690
 350	1.7450e-01	13.9328	73.882333	0.000243	2.425212	0.821684	0.019359
 351	1.7500e-01	13.9632	74.067856	0.000465	4.648324	1.574895	0.037105
 352	1.7550e-01	14.0146	74.160617	0.000232	2.324162	0.787447	0.018552
 353	1.7600e-01	14.0418	74.620390	0.001152	11.519759	3.903000	0.091955
 354	1.7650e-01	14.0980	74.692986	0.000182	1.818909	0.616263	0.014519
 355	1.7700e-01	14.1205	74.914807	0.000556	5.557778	1.883026	0.044364
 356	1.7750e-01	14.1734	75.253587	0.000849	8.488243	2.875895	0.067756
 357	1.7800e-01	14.2119	75.604466	0.000879	8.791395	2.978605	0.070176
 358	1.7850e-01	14.2520	75.915015	0.000778	7.780890	2.636237	0.062110
 359	1.7900e-01	14.2921	76.011809	0.000243	2.425212	0.821684	0.019359
 360	1.7950e-01	14.3322	76.088438	0.000192	1.919960	0.650500	0.015326
 361	1.8000e-01	14.3643	76.277994	0.000475	4.749374	1.609132	0.037911
 362	1.8050e-01	14.4108	76.382854	0.000263	2.627313	0.890158	0.020972
 363	1.8100e-01	14.4493	76.564344	0.000455	4.547273	1.540658	0.036298
 364	1.8150e-01	14.4862	76.911190	0.000869	8.690344	2.944368	0.069369
 365	1.8200e-01	14.5360	77.266103	0.000889	8.892445	3.012842	0.070983
 366	1.8250e-01	14.5729	77.508089	0.000606	6.063031	2.054210	0.048397
 367	1.8300e-01	14.6033	77.665380	0.000394	3.940970	1.335237	0.031458
 368	1.8350e-01	14.6499	77.959796	0.000738	7.376688	2.499289	0.058883
 369	1.8400e-01	14.6851	78.149352	0.000475	4.749374	1.609132	0.037911
 370	1.8450e-01	14.7269	78.209848	0.000152	1.515758	0.513553	0.012099
 371	1.8500e-01	14.7750	78.399404	0.000475	4.749374	1.609132	0.037911
 372	1.8550e-01	14.8087	78.556695	0.000394	3.940970	1.335237	0.031458
 373	1.8600e-01	14.8504	78.661555	0.000263	2.627313	0.890158	0.020972
 374	1.8650e-01	14.8889	78.907574	0.000616	6.164081	2.088447	0.049204
 375	1.8700e-01	14.9274	79.262487	0.000889	8.892445	3.012842	0.070983
 376	1.8750e-01	14.9707	79.443976	0.000455	4.547273	1.540658	0.036298
 377	1.8800e-01	15.0092	79.847286	0.001011	10.105052	3.423684	0.080662
 378	1.8850e-01	15.0541	79.996511	0.000374	3.738869	1.266763	0.029845
 379	1.8900e-01	15.0894	80.230430	0.000586	5.860930	1.985737	0.046784
 380	1.8950e-01	15.1231	80.347390	0.000293	2.930465	0.992868	0.023392
 381	1.9000e-01	15.1664	80.670038	0.000808	8.084041	2.738947	0.064530
 382	1.9050e-01	15.2161	80.791031	0.000303	3.031515	1.027105	0.024199
 383	1.9100e-01	15.2514	80.750700	-0.000101	-1.010505	-0.342368	-0.008066
 384	1.9150e-01	15.2964	80.795064	0.000111	1.111556	0.376605	0.008873
 385	1.9200e-01	15.3284	81.202407	0.001021	10.206102	3.457921	0.081469
 386	1.9250e-01	15.3702	81.234672	0.000081	0.808404	0.273895	0.006453
 387	1.9300e-01	15.4022	81.577485	0.000859	8.589294	2.910132	0.068563
 388	1.9350e-01	15.4504	81.956597	0.000950	9.498748	3.218263	0.075822
 389	1.9400e-01	15.4937	82.142119	0.000465	4.648324	1.574895	0.037105
 390	1.9450e-01	15.5290	82.396204	0.000637	6.366182	2.156921	0.050817
 391	1.9500e-01	15.5675	82.690621	0.000738	7.376688	2.499289	0.058883
 392	1.9550e-01	15.6124	82.827746	0.000344	3.435718	1.164053	0.027425
 393	1.9600e-01	15.6493	83.057633	0.000576	5.759879	1.951500	0.045977
 394	1.9650e-01	15.6862	83.146361	0.000222	2.223111	0.753211	0.017746
 395	1.9700e-01	15.7247	83.392380	0.000616	6.164081	2.088447	0.049204
 396	1.9750e-01	15.7712	83.545638	0.000384	3.839920	1.301000	0.030652
 397	1.9800e-01	15.8065	83.892484	0.000869	8.690344	2.944368	0.069369
 398	1.9850e-01	15.8546	84.082040	0.000475	4.749374	1.609132	0.037911
 399	1.9900e-01	15.9028	84.146569	0.000162	1.616808	0.547789	0.012906
 400	1.9950e-01	15.9348	84.263529	0.000293	2.930465	0.992868	0.023392
 401	2.0000e-01	15.9750	84.574078	0.000778	7.780890	2.636237	0.062110
 402	2.0050e-01	16.0102	84.642640	0.000172	1.717859	0.582026	0.013713
 403	2.0100e-01	16.0568	85.049983	0.001021	10.206102	3.457921	0.081469
 404	2.0150e-01	16.0953	85.300035	0.000627	6.265132	2.122684	0.050010
 405	2.0200e-01	16.1274	85.457326	0.000394	3.940970	1.335237	0.031458
 406	2.0250e-01	16.1642	85.505723	0.000121	1.212606	0.410842	0.009679
 407	2.0300e-01	16.2092	85.965497	0.001152	11.519759	3.903000	0.091955
 408	2.0350e-01	16.2525	86.308310	0.000859	8.589294	2.910132	0.068563
 409	2.0400e-01	16.2878	86.421237	0.000283	2.829414	0.958632	0.022585
 410	2.0450e-01	16.3247	86.647090	0.000566	5.658829	1.917263	0.045171
 411	2.0500e-01	16.3680	86.824547	0.000445	4.446223	1.506421	0.035491
 412	2.0550e-01	16.4161	87.054433	0.000576	5.759879	1.951500	0.045977
 413	2.0600e-01	16.4482	87.114930	0.000152	1.515758	0.513553	0.012099
 414	2.0650e-01	16.4979	87.159294	0.000111	1.111556	0.376605	0.008873
 415	2.0700e-01	16.5396	87.550504	0.000980	9.801900	3.320974	0.078242
 416	2.0750e-01	16.5717	87.671497	0.000303	3.031515	1.027105	0.024199
 417	2.0800e-01	16.6182	87.909450	0.000596	5.961980	2.019974	0.047591
 418	2.0850e-01	16.6519	88.207900	0.000748	7.477738	2.533526	0.059690
 419	2.0900e-01	16.6872	88.413588	0.000515	5.153576	1.746079	0.041138
 420	2.0950e-01	16.7402	88.566845	0.000384	3.839920	1.301000	0.030652
 421	2.1000e-01	16.7723	88.744302	0.000445	4.446223	1.506421	0.035491
 422	2.1050e-01	16.8124	88.917725	0.000435	4.345172	1.472184	0.034685
 423	2.1100e-01	16.8428	89.058883	0.000354	3.536768	1.198289	0.028232
 424	2.1150e-01	16.8894	89.107281	0.000121	1.212606	0.410842	0.009679
 425	2.1200e-01	16.9279	89.308935	0.000505	5.052526	1.711842	0.040331
 426	2.1250e-01	16.9696	89.627550	0.000798	7.982991	2.704710	0.063723
 427	2.1300e-01	17.0065	89.930033	0.000758	7.578789	2.567763	0.060496
 428	2.1350e-01	17.0466	89.926000	-0.000010	-0.101051	-0.034237	-0.000807
 429	2.1400e-01	17.0803	90.397872	0.001182	11.822910	4.005710	0.094375
 430	2.1450e-01	17.1284	90.470468	0.000182	1.818909	0.616263	0.014519
 431	2.1500e-01	17.1749	90.692288	0.000556	5.557778	1.883026	0.044364
 432	2.1550e-01	17.2166	90.813281	0.000303	3.031515	1.027105	0.024199
 433	2.1600e-01	17.2567	91.148028	0.000839	8.387193	2.841658	0.066949
 434	2.1650e-01	17.2920	91.357750	0.000525	5.254627	1.780316	0.041944
 435	2.1700e-01	17.3402	91.547305	0.000475	4.749374	1.609132	0.037911
 436	2.1750e-01	17.3803	91.619901	0.000182	1.818909	0.616263	0.014519
 437	2.1800e-01	17.4123	91.873986	0.000637	6.366182	2.156921	0.050817
 438	2.1850e-01	17.4573	92.063542	0.000475	4.749374	1.609132	0.037911
 439	2.1900e-01	17.4877	92.325693	0.000657	6.568283	2.225395	0.052430
 440	2.1950e-01	17.5359	92.446686	0.000303	3.031515	1.027105	0.024199
 441	2.2000e-01	17.5696	92.684639	0.000596	5.961980	2.019974	0.047591
 442	2.2050e-01	17.6129	92.950823	0.000667	6.669334	2.259632	0.053237
 443	2.2100e-01	17.6530	93.063750	0.000283	2.829414	0.958632	0.022585
 444	2.2150e-01	17.6915	93.241207	0.000445	4.446223	1.506421	0.035491
 445	2.2200e-01	17.7332	93.563854	0.000808	8.084041	2.738947	0.064530
 446	2.2250e-01	17.7685	93.652583	0.000222	2.223111	0.753211	0.017746
 447	2.2300e-01	17.8102	93.725178	0.000182	1.818909	0.616263	0.014519
 448	2.2350e-01	17.8487	94.132521	0.001021	10.206102	3.457921	0.081469
 449	2.2400e-01	17.8840	94.297878	0.000414	4.143071	1.403710	0.033071
 450	2.2450e-01	17.9401	94.293845	-0.000010	-0.101051	-0.034237	-0.000807
 451	2.2500e-01	17.9738	94.515666	0.000556	5.557778	1.883026	0.044364
 452	2.2550e-01	18.0139	94.902843	0.000970	9.700849	3.286737	0.077435
 453	2.2600e-01	18.0508	95.052068	0.000374	3.738869	1.266763	0.029845
 454	2.2650e-01	18.1006	95.197259	0.000364	3.637819	1.232526	0.029038
 455	2.2700e-01	18.1262	95.217425	0.000051	0.505253	0.171184	0.004033
 456	2.2750e-01	18.1776	95.507808	0.000728	7.275637	2.465053	0.058077
 457	2.2800e-01	18.2096	95.729628	0.000556	5.557778	1.883026	0.044364
 458	2.2850e-01	18.2514	95.999846	0.000677	6.770385	2.293868	0.054044
 459	2.2900e-01	18.2915	96.221666	0.000556	5.557778	1.883026	0.044364
 460	2.2950e-01	18.3380	96.508016	0.000717	7.174587	2.430816	0.057270
 461	2.3000e-01	18.3765	96.624976	0.000293	2.930465	0.992868	0.023392
 462	2.3050e-01	18.4070	96.834697	0.000525	5.254627	1.780316	0.041944
 463	2.3100e-01	18.4503	96.967790	0.000333	3.334667	1.129816	0.026618
 464	2.3150e-01	18.4920	97.004088	0.000091	0.909455	0.308132	0.007260
 465	2.3200e-01	18.5321	97.334802	0.000829	8.286142	2.807421	0.066143
 466	2.3250e-01	18.5722	97.790542	0.001142	11.418708	3.868763	0.091148
 467	2.3300e-01	18.6091	98.000263	0.000525	5.254627	1.780316	0.041944
 468	2.3350e-01	18.6540	98.012362	0.000030	0.303152	0.102711	0.002420
 469	2.3400e-01	18.6925	98.222083	0.000525	5.254627	1.780316	0.041944
 470	2.3450e-01	18.7326	98.262414	0.000101	1.010505	0.342368	0.008066
 471	2.3500e-01	18.7695	98.673790	0.001031	10.307153	3.492158	0.082275
 472	2.3550e-01	18.8193	98.814949	0.000354	3.536768	1.198289	0.028232
 473	2.3600e-01	18.8465	98.988372	0.000435	4.345172	1.472184	0.034685
 474	2.3650e-01	18.8963	99.097266	0.000273	2.728364	0.924395	0.021779
 475	2.3700e-01	18.9380	99.383616	0.000717	7.174587	2.430816	0.057270
 476	2.3750e-01	18.9749	99.641734	0.000647	6.467233	2.191158	0.051624
 477	2.3800e-01	19.0070	99.790959	0.000374	3.738869	1.266763	0.029845
 478	2.3850e-01	19.0567	100.016812	0.000566	5.658829	1.917263	0.045171
 479	2.3900e-01	19.0920	100.162004	0.000364	3.637819	1.232526	0.029038
 480	2.3950e-01	19.1257	100.395924	0.000586	5.860930	1.985737	0.046784
 481	2.4000e-01	19.1674	100.682274	0.000717	7.174587	2.430816	0.057270
 482	2.4050e-01	19.2123	100.887962	0.000515	5.153576	1.746079	0.041138
 483	2.4100e-01	19.2540	101.008954	0.000303	3.031515	1.027105	0.024199
 484	2.4150e-01	19.2989	101.133981	0.000313	3.132566	1.061342	0.025005
 485	2.4200e-01	19.3326	101.533257	0.001000	10.004001	3.389447	0.079855
 486	2.4250e-01	19.3647	102.150321	0.001546	15.460729	5.238237	0.123413
 487	2.4300e-01	19.4096	102.029328	-0.000303	-3.031515	-1.027105	-0.024199
 488	2.4350e-01	19.4433	101.763144	-0.000667	-6.669334	-2.259632	-0.053237
 489	2.4400e-01	19.4834	102.073693	0.000778	7.780890	2.636237	0.062110
 490	2.4450e-01	19.5331	102.424572	0.000879	8.791395	2.978605	0.070176
 491	2.4500e-01	19.5716	102.606062	0.000455	4.547273	1.540658	0.036298
 492	2.4550e-01	19.6198	102.541532	-0.000162	-1.616808	-0.547789	-0.012906
 493	2.4600e-01	19.6502	102.694790	0.000384	3.839920	1.301000	0.030652
 494	2.4650e-01	19.6887	103.154563	0.001152	11.519759	3.903000	0.091955
 495	2.4700e-01	19.7369	103.114232	-0.000101	-1.010505	-0.342368	-0.008066
 496	2.4750e-01	19.7722	103.586105	0.001182	11.822910	4.005710	0.094375
 497	2.4800e-01	19.8059	103.654667	0.000172	1.717859	0.582026	0.013713
 498	2.4850e-01	19.8524	103.791793	0.000344	3.435718	1.164053	0.027425
 499	2.4900e-01	19.8877	104.074109	0.000707	7.073536	2.396579	0.056463
 500	2.4950e-01	19.9358	104.219301	0.000364	3.637819	1.232526	0.029038
 501	2.5000e-01	19.9679	104.481452	0.000657	6.568283	2.225395	0.052430
 502	2.5050e-01	19.9791	104.622611	0.000354	3.536768	1.198289	0.028232
 503	2.5100e-01	19.9567	104.340294	0.000707	7.073536	2.396579	-0.056463
 504	2.5150e-01	19.9214	104.150738	0.000475	4.749374	1.609132	-0.037911
 505	2.5200e-01	19.8764	103.957150	0.000485	4.850425	1.643368	-0.038718
 506	2.5250e-01	19.8428	103.815991	0.000354	3.536768	1.198289	-0.028232
 507	2.5300e-01	19.7978	103.686932	0.000323	3.233616	1.095579	-0.025812
 508	2.5350e-01	19.7561	103.594171	0.000232	2.324162	0.787447	-0.018552
 509	2.5400e-01	19.7128	103.574005	0.000051	0.505253	0.171184	-0.004033
 510	2.5450e-01	19.6759	103.356218	0.000546	5.456728	1.848789	-0.043557
 511	2.5500e-01	19.6406	103.267490	0.000222	2.223111	0.753211	-0.017746
 512	2.5550e-01	19.5909	102.900478	0.000920	9.195597	3.115553	-0.073402
 513	2.5600e-01	19.5572	102.791584	0.000273	2.728364	0.924395	-0.021779
 514	2.5650e-01	19.5155	102.759319	0.000081	0.808404	0.273895	-0.006453
 515	2.5700e-01	19.4818	102.444738	0.000788	7.881940	2.670474	-0.062916
 516	2.5750e-01	19.4369	102.319712	0.000313	3.132566	1.061342	-0.025005
 517	2.5800e-01	19.3984	101.980931	0.000849	8.488243	2.875895	-0.067756
 518	2.5850e-01	19.3647	101.988997	-0.000020	-0.202101	-0.068474	0.001613
 519	2.5900e-01	19.3230	101.658283	0.000829	8.286142	2.807421	-0.066143
 520	2.5950e-01	19.2813	101.670383	-0.000030	-0.303152	-0.102711	0.002420
 521	2.6000e-01	19.2412	101.593754	0.000192	1.919960	0.650500	-0.015326
 522	2.6050e-01	19.2091	101.456628	0.000344	3.435718	1.164053	-0.027425
 523	2.6100e-01	19.1497	101.158179	0.000748	7.477738	2.533526	-0.059690
 524	2.6150e-01	19.1209	101.021054	0.000344	3.435718	1.164053	-0.027425
 525	2.6200e-01	19.0711	100.779068	0.000606	6.063031	2.054210	-0.048397
 526	2.6250e-01	19.0374	100.650009	0.000323	3.233616	1.095579	-0.025812
 527	2.6300e-01	18.9893	100.504817	0.000364	3.637819	1.232526	-0.029038
 528	2.6350e-01	18.9652	100.408023	0.000243	2.425212	0.821684	-0.019359
 529	2.6400e-01	18.9171	100.270897	0.000344	3.435718	1.164053	-0.027425
 530	2.6450e-01	18.8802	100.141838	0.000323	3.233616	1.095579	-0.025812
 531	2.6500e-01	18.8449	99.807091	0.000839	8.387193	2.841658	-0.066949
 532	2.6550e-01	18.7952	99.678032	0.000323	3.233616	1.095579	-0.025812
 533	2.6600e-01	18.7583	99.742562	-0.000162	-1.616808	-0.547789	0.012906
 534	2.6650e-01	18.7166	99.379583	0.000909	9.094546	3.081316	-0.072596
 535	2.6700e-01	18.6749	99.423947	-0.000111	-1.111556	-0.376605	0.008873
 536	2.6750e-01	18.6412	99.262623	0.000404	4.042021	1.369474	-0.032265
 537	2.6800e-01	18.6027	99.024670	0.000596	5.961980	2.019974	-0.047591
 538	2.6850e-01	18.5610	98.738320	0.000717	7.174587	2.430816	-0.057270
 539	2.6900e-01	18.5209	98.556831	0.000455	4.547273	1.540658	-0.036298
 540	2.6950e-01	18.4840	98.326944	0.000576	5.759879	1.951500	-0.045977
 541	2.7000e-01	18.4310	98.335010	-0.000020	-0.202101	-0.068474	0.001613
 542	2.7050e-01	18.3941	97.967998	0.000920	9.195597	3.115553	-0.073402
 543	2.7100e-01	18.3588	97.863138	0.000263	2.627313	0.890158	-0.020972
 544	2.7150e-01	18.3203	97.645350	0.000546	5.456728	1.848789	-0.043557
 545	2.7200e-01	18.2786	97.379166	0.000667	6.669334	2.259632	-0.053237
 546	2.7250e-01	18.2305	97.463861	-0.000212	-2.122061	-0.718974	0.016939
 547	2.7300e-01	18.2032	97.282371	0.000455	4.547273	1.540658	-0.036298
 548	2.7350e-01	18.1567	97.084750	0.000495	4.951475	1.677605	-0.039524
 549	2.7400e-01	18.1150	96.935525	0.000374	3.738869	1.266763	-0.029845
 550	2.7450e-01	18.0797	96.733870	0.000505	5.052526	1.711842	-0.040331
 551	2.7500e-01	18.0428	96.596745	0.000344	3.435718	1.164053	-0.027425
 552	2.7550e-01	17.9979	96.435421	0.000404	4.042021	1.369474	-0.032265
 553	2.7600e-01	17.9594	96.201501	0.000586	5.860930	1.985737	-0.046784
 554	2.7650e-01	17.9064	95.894985	0.000768	7.679839	2.602000	-0.061303
 555	2.7700e-01	17.8824	95.681231	0.000536	5.355677	1.814553	-0.042751
 556	2.7750e-01	17.8455	95.757860	-0.000192	-1.919960	-0.650500	0.015326
 557	2.7800e-01	17.7845	95.572338	0.000465	4.648324	1.574895	-0.037105
 558	2.7850e-01	17.7508	95.350517	0.000556	5.557778	1.883026	-0.044364
 559	2.7900e-01	17.7155	95.261789	0.000222	2.223111	0.753211	-0.017746
 560	2.7950e-01	17.6835	95.201293	0.000152	1.515758	0.513553	-0.012099
 561	2.8000e-01	17.6369	94.850413	0.000879	8.791395	2.978605	-0.070176
 562	2.8050e-01	17.6016	94.608427	0.000606	6.063031	2.054210	-0.048397
 563	2.8100e-01	17.5567	94.314011	0.000738	7.376688	2.499289	-0.058883
 564	2.8150e-01	17.5166	94.217216	0.000243	2.425212	0.821684	-0.019359
 565	2.8200e-01	17.4861	94.193018	0.000061	0.606303	0.205421	-0.004840
 566	2.8250e-01	17.4396	94.072025	0.000303	3.031515	1.027105	-0.024199
 567	2.8300e-01	17.4075	93.688881	0.000960	9.599799	3.252500	-0.076629
 568	2.8350e-01	17.3578	93.483193	0.000515	5.153576	1.746079	-0.041138
 569	2.8400e-01	17.3225	93.467060	0.000040	0.404202	0.136947	-0.003226
 570	2.8450e-01	17.2840	93.301703	0.000414	4.143071	1.403710	-0.033071
 571	2.8500e-01	17.2391	92.845963	0.001142	11.418708	3.868763	-0.091148
 572	2.8550e-01	17.2054	92.979055	-0.000333	-3.334667	-1.129816	0.026618
 573	2.8600e-01	17.1637	92.636242	0.000859	8.589294	2.910132	-0.068563
 574	2.8650e-01	17.1220	92.684639	-0.000121	-1.212606	-0.410842	0.009679
 575	2.8700e-01	17.0867	92.317627	0.000920	9.195597	3.115553	-0.073402
 576	2.8750e-01	17.0337	92.442653	-0.000313	-3.132566	-1.061342	0.025005
 577	2.8800e-01	16.9904	92.140171	0.000758	7.578789	2.567763	-0.060496
 578	2.8850e-01	16.9632	91.970781	0.000424	4.244122	1.437947	-0.033878
 579	2.8900e-01	16.9214	91.555371	0.001041	10.408203	3.526395	-0.083082
 580	2.8950e-01	16.8781	91.426312	0.000323	3.233616	1.095579	-0.025812
 581	2.9000e-01	16.8300	91.208525	0.000546	5.456728	1.848789	-0.043557
 582	2.9050e-01	16.8027	91.018969	0.000475	4.749374	1.609132	-0.037911
 583	2.9100e-01	16.7530	90.813281	0.000515	5.153576	1.746079	-0.041138
 584	2.9150e-01	16.7225	90.623726	0.000475	4.749374	1.609132	-0.037911
 585	2.9200e-01	16.6760	90.547097	0.000192	1.919960	0.650500	-0.015326
 586	2.9250e-01	16.6391	90.426104	0.000303	3.031515	1.027105	-0.024199
 587	2.9300e-01	16.5910	90.252681	0.000435	4.345172	1.472184	-0.034685
 588	2.9350e-01	16.5637	90.143787	0.000273	2.728364	0.924395	-0.021779
 589	2.9400e-01	16.5140	90.022794	0.000303	3.031515	1.027105	-0.024199
 590	2.9450e-01	16.4771	89.675947	0.000869	8.690344	2.944368	-0.069369
 591	2.9500e-01	16.4354	89.333134	0.000859	8.589294	2.910132	-0.068563
 592	2.9550e-01	16.3985	89.191976	0.000354	3.536768	1.198289	-0.028232
 593	2.9600e-01	16.3568	89.196009	-0.000010	-0.101051	-0.034237	0.000807
 594	2.9650e-01	16.3183	89.038718	0.000394	3.940970	1.335237	-0.031458
 595	2.9700e-01	16.2798	88.828997	0.000525	5.254627	1.780316	-0.041944
 596	2.9750e-01	16.2364	88.542647	0.000717	7.174587	2.430816	-0.057270
 597	2.9800e-01	16.1947	88.272429	0.000677	6.770385	2.293868	-0.054044
 598	2.9850e-01	16.1642	88.191767	0.000202	2.021010	0.684737	-0.016132
 599	2.9900e-01	16.1209	87.953814	0.000596	5.961980	2.019974	-0.047591
 600	2.9950e-01	16.0824	87.744093	0.000525	5.254627	1.780316	-0.041944
 601	3.0000e-01	16.0391	87.598902	0.000364	3.637819	1.232526	-0.029038
 602	3.0050e-01	15.9942	87.566637	0.000081	0.808404	0.273895	-0.006453
 603	3.0100e-01	15.9637	87.324651	0.000606	6.063031	2.054210	-0.048397
 604	3.0150e-01	15.9268	87.260121	0.000162	1.616808	0.547789	-0.012906
 605	3.0200e-01	15.8787	87.086698	0.000435	4.345172	1.472184	-0.034685
 606	3.0250e-01	15.8386	86.856811	0.000576	5.759879	1.951500	-0.045977
 607	3.0300e-01	15.8049	86.626925	0.000576	5.759879	1.951500	-0.045977
 608	3.0350e-01	15.7552	86.348641	0.000697	6.972486	2.362342	-0.055657
 609	3.0400e-01	15.7199	86.042126	0.000768	7.679839	2.602000	-0.061303
 610	3.0450e-01	15.6750	85.852570	0.000475	4.749374	1.609132	-0.037911
 611	3.0500e-01	15.6429	85.727544	0.000313	3.132566	1.061342	-0.025005
 612	3.0550e-01	15.5964	85.715445	0.000030	0.303152	0.102711	-0.002420
 613	3.0600e-01	15.5611	85.356499	0.000899	8.993496	3.047079	-0.071789
 614	3.0650e-01	15.5226	85.239539	0.000293	2.930465	0.992868	-0.023392
 615	3.0700e-01	15.4760	85.195175	0.000111	1.111556	0.376605	-0.008873
 616	3.0750e-01	15.4375	85.138711	0.000141	1.414707	0.479316	-0.011293
 617	3.0800e-01	15.4022	84.779766	0.000899	8.993496	3.047079	-0.071789
 618	3.0850e-01	15.3557	84.384522	0.000990	9.902950	3.355210	-0.079049
 619	3.0900e-01	15.3172	84.231264	0.000384	3.839920	1.301000	-0.030652
 620	3.0950e-01	15.2803	84.372423	-0.000354	-3.536768	-1.198289	0.028232
 621	3.1000e-01	15.2354	84.045742	0.000819	8.185092	2.773184	-0.065336
 622	3.1050e-01	15.1985	83.868285	0.000445	4.446223	1.506421	-0.035491
 623	3.1100e-01	15.1568	83.682763	0.000465	4.648324	1.574895	-0.037105
 624	3.1150e-01	15.1215	83.497240	0.000465	4.648324	1.574895	-0.037105
 625	3.1200e-01	15.0814	83.283486	0.000536	5.355677	1.814553	-0.042751
 626	3.1250e-01	15.0381	82.989070	0.000738	7.376688	2.499289	-0.058883
 627	3.1300e-01	14.9932	82.835812	0.000384	3.839920	1.301000	-0.030652
 628	3.1350e-01	14.9531	82.791448	0.000111	1.111556	0.376605	-0.008873
 629	3.1400e-01	14.9242	82.303443	0.001223	12.227112	4.142658	-0.097601
 630	3.1450e-01	14.8761	82.263112	0.000101	1.010505	0.342368	-0.008066
 631	3.1500e-01	14.8359	82.105821	0.000394	3.940970	1.335237	-0.031458
 632	3.1550e-01	14.7894	82.053391	0.000131	1.313657	0.445079	-0.010486
 633	3.1600e-01	14.7605	81.678313	0.000940	9.397698	3.184026	-0.075016
 634	3.1650e-01	14.7172	81.601684	0.000192	1.919960	0.650500	-0.015326
 635	3.1700e-01	14.6819	81.504890	0.000243	2.425212	0.821684	-0.019359
 636	3.1750e-01	14.6402	81.299202	0.000515	5.153576	1.746079	-0.041138
 637	3.1800e-01	14.6001	80.912024	0.000970	9.700849	3.286737	-0.077435
 638	3.1850e-01	14.5616	80.617608	0.000738	7.376688	2.499289	-0.058883
 639	3.1900e-01	14.5151	80.561145	0.000141	1.414707	0.479316	-0.011293
 640	3.1950e-01	14.4814	80.323192	0.000596	5.961980	2.019974	-0.047591
 641	3.2000e-01	14.4317	80.218331	0.000263	2.627313	0.890158	-0.020972
 642	3.2050e-01	14.4092	79.903750	0.000788	7.881940	2.670474	-0.062916
 643	3.2100e-01	14.3643	79.734359	0.000424	4.244122	1.437947	-0.033878
 644	3.2150e-01	14.3242	79.472208	0.000657	6.568283	2.225395	-0.052430
 645	3.2200e-01	14.2841	79.419778	0.000131	1.313657	0.445079	-0.010486
 646	3.2250e-01	14.2456	79.121328	0.000748	7.477738	2.533526	-0.059690
 647	3.2300e-01	14.1943	78.855144	0.000667	6.669334	2.259632	-0.053237
 648	3.2350e-01	14.1590	78.778515	0.000192	1.919960	0.650500	-0.015326
 649	3.2400e-01	14.1237	78.726085	0.000131	1.313657	0.445079	-0.010486
 650	3.2450e-01	14.0868	78.403437	0.000808	8.084041	2.738947	-0.064530
 651	3.2500e-01	14.0386	78.141285	0.000657	6.568283	2.225395	-0.052430
 652	3.2550e-01	13.9985	77.838803	0.000758	7.578789	2.567763	-0.060496
 653	3.2600e-01	13.9568	77.959796	-0.000303	-3.031515	-1.027105	0.024199
 654	3.2650e-01	13.9215	77.665380	0.000738	7.376688	2.499289	-0.058883
 655	3.2700e-01	13.8734	77.725876	-0.000152	-1.515758	-0.513553	0.012099
 656	3.2750e-01	13.8397	77.233838	0.001233	12.328163	4.176895	-0.098408
 657	3.2800e-01	13.7948	77.044283	0.000475	4.749374	1.609132	-0.037911
 658	3.2850e-01	13.7595	76.782131	0.000657	6.568283	2.225395	-0.052430
 659	3.2900e-01	13.7130	76.398987	0.000960	9.599799	3.252500	-0.076629
 660	3.2950e-01	13.6825	76.423185	-0.000061	-0.606303	-0.205421	0.004840
 661	3.3000e-01	13.6280	76.265895	0.000394	3.940970	1.335237	-0.031458
 662	3.3050e-01	13.6039	75.995677	0.000677	6.770385	2.293868	-0.054044
 663	3.3100e-01	13.5494	75.810154	0.000465	4.648324	1.574895	-0.037105
 664	3.3150e-01	13.5108	75.794022	0.000040	0.404202	0.136947	-0.003226
 665	3.3200e-01	13.4804	75.608499	0.000465	4.648324	1.574895	-0.037105
 666	3.3250e-01	13.4387	75.459275	0.000374	3.738869	1.266763	-0.029845
 667	3.3300e-01	13.3953	75.185024	0.000687	6.871435	2.328105	-0.054850
 668	3.3350e-01	13.3568	75.072097	0.000283	2.829414	0.958632	-0.022585
 669	3.3400e-01	13.3183	74.894641	0.000445	4.446223	1.506421	-0.035491
 670	3.3450e-01	13.2863	74.467133	0.001071	10.711355	3.629105	-0.085502
 671	3.3500e-01	13.2333	74.354206	0.000283	2.829414	0.958632	-0.022585
 672	3.3550e-01	13.1964	74.293709	0.000152	1.515758	0.513553	-0.012099
 673	3.3600e-01	13.1547	74.124319	0.000424	4.244122	1.437947	-0.033878
 674	3.3650e-01	13.1226	73.769407	0.000889	8.892445	3.012842	-0.070983
 675	3.3700e-01	13.0809	73.765373	0.000010	0.101051	0.034237	-0.000807
 676	3.3750e-01	13.0312	73.479023	0.000717	7.174587	2.430816	-0.057270
 677	3.3800e-01	12.9927	73.390295	0.000222	2.223111	0.753211	-0.017746
 678	3.3850e-01	12.9478	73.148309	0.000606	6.063031	2.054210	-0.048397
 679	3.3900e-01	12.9173	72.563510	0.001465	14.652325	4.964342	-0.116960
 680	3.3950e-01	12.8724	72.486881	0.000192	1.919960	0.650500	-0.015326
 681	3.4000e-01	12.8371	72.373954	0.000283	2.829414	0.958632	-0.022585
 682	3.4050e-01	12.8018	72.430418	-0.000141	-1.414707	-0.479316	0.011293
 683	3.4100e-01	12.7553	72.039207	0.000980	9.801900	3.320974	-0.078242
 684	3.4150e-01	12.7119	71.853685	0.000465	4.648324	1.574895	-0.037105
 685	3.4200e-01	12.6750	71.777056	0.000192	1.919960	0.650500	-0.015326
 686	3.4250e-01	12.6365	71.591533	0.000465	4.648324	1.574895	-0.037105
 687	3.4300e-01	12.6012	71.123694	0.001172	11.721860	3.971474	-0.093568
 688	3.4350e-01	12.5611	71.180157	-0.000141	-1.414707	-0.479316	0.011293
 689	3.4400e-01	12.5226	70.732483	0.001122	11.216607	3.800289	-0.089535
 690	3.4450e-01	12.4841	70.494530	0.000596	5.961980	2.019974	-0.047591
 691	3.4500e-01	12.4456	70.300942	0.000485	4.850425	1.643368	-0.038718
 692	3.4550e-01	12.4007	70.200114	0.000253	2.526263	0.855921	-0.020165
 693	3.4600e-01	12.3622	69.841168	0.000899	8.993496	3.047079	-0.071789
 694	3.4650e-01	12.3221	69.631447	0.000525	5.254627	1.780316	-0.041944
 695	3.4700e-01	12.2804	69.611282	0.000051	0.505253	0.171184	-0.004033
 696	3.4750e-01	12.2387	69.405594	0.000515	5.153576	1.746079	-0.041138
 697	3.4800e-01	12.1986	69.248303	0.000394	3.940970	1.335237	-0.031458
 698	3.4850e-01	12.1681	69.054714	0.000485	4.850425	1.643368	-0.038718
 699	3.4900e-01	12.1168	68.776430	0.000697	6.972486	2.362342	-0.055657
 700	3.4950e-01	12.0831	68.667537	0.000273	2.728364	0.924395	-0.021779
 701	3.5000e-01	12.0430	68.284392	0.000960	9.599799	3.252500	-0.076629
 702	3.5050e-01	11.9965	68.183565	0.000253	2.526263	0.855921	-0.020165
 703	3.5100e-01	11.9628	68.018208	0.000414	4.143071	1.403710	-0.033071
 704	3.5150e-01	11.9211	67.772189	0.000616	6.164081	2.088447	-0.049204
 705	3.5200e-01	11.8809	67.465673	0.000768	7.679839	2.602000	-0.061303
 706	3.5250e-01	11.8408	67.280151	0.000465	4.648324	1.574895	-0.037105
 707	3.5300e-01	11.7879	67.195456	0.000212	2.122061	0.718974	-0.016939
 708	3.5350e-01	11.7510	66.892973	0.000758	7.578789	2.567763	-0.060496
 709	3.5400e-01	11.7125	66.796179	0.000243	2.425212	0.821684	-0.019359
 710	3.5450e-01	11.6788	66.663087	0.000333	3.334667	1.129816	-0.026618
 711	3.5500e-01	11.6355	66.562259	0.000253	2.526263	0.855921	-0.020165
 712	3.5550e-01	11.6002	66.223479	0.000849	8.488243	2.875895	-0.067756
 713	3.5600e-01	11.5617	65.965361	0.000647	6.467233	2.191158	-0.051624
 714	3.5650e-01	11.5200	65.759673	0.000515	5.153576	1.746079	-0.041138
 715	3.5700e-01	11.4799	65.679011	0.000202	2.021010	0.684737	-0.016132
 716	3.5750e-01	11.4382	65.344264	0.000839	8.387193	2.841658	-0.066949
 717	3.5800e-01	11.3997	65.142609	0.000505	5.052526	1.711842	-0.040331
 718	3.5850e-01	11.3564	64.977252	0.000414	4.143071	1.403710	-0.033071
 719	3.5900e-01	11.3179	64.791729	0.000465	4.648324	1.574895	-0.037105
 720	3.5950e-01	11.2778	64.465048	0.000819	8.185092	2.773184	-0.065336
 721	3.6000e-01	11.2360	64.356154	0.000273	2.728364	0.924395	-0.021779
 722	3.6050e-01	11.1895	63.973010	0.000960	9.599799	3.252500	-0.076629
 723	3.6100e-01	11.1606	63.968977	0.000010	0.101051	0.034237	-0.000807
 724	3.6150e-01	11.1189	63.783454	0.000465	4.648324	1.574895	-0.037105
 725	3.6200e-01	11.0772	63.368045	0.001041	10.408203	3.526395	-0.083082
 726	3.6250e-01	11.0403	63.198655	0.000424	4.244122	1.437947	-0.033878
 727	3.6300e-01	11.0098	62.992967	0.000515	5.153576	1.746079	-0.041138
 728	3.6350e-01	10.9665	62.714683	0.000697	6.972486	2.362342	-0.055657
 729	3.6400e-01	10.9200	62.609823	0.000263	2.627313	0.890158	-0.020972
 730	3.6450e-01	10.8799	62.557392	0.000131	1.313657	0.445079	-0.010486
 731	3.6500e-01	10.8430	62.311373	0.000616	6.164081	2.088447	-0.049204
 732	3.6550e-01	10.7997	61.960494	0.000879	8.791395	2.978605	-0.070176
 733	3.6600e-01	10.7596	61.706409	0.000637	6.366182	2.156921	-0.050817
 734	3.6650e-01	10.7163	61.585416	0.000303	3.031515	1.027105	-0.024199
 735	3.6700e-01	10.6890	61.327297	0.000647	6.467233	2.191158	-0.051624
 736	3.6750e-01	10.6329	61.230503	0.000243	2.425212	0.821684	-0.019359
 737	3.6800e-01	10.5960	60.960285	0.000677	6.770385	2.293868	-0.054044
 738	3.6850e-01	10.5591	60.907855	0.000131	1.313657	0.445079	-0.010486
 739	3.6900e-01	10.5206	60.593273	0.000788	7.881940	2.670474	-0.062916
 740	3.6950e-01	10.4740	60.282725	0.000778	7.780890	2.636237	-0.062110
 741	3.7000e-01	10.4403	60.274659	0.000020	0.202101	0.068474	-0.001613
 742	3.7050e-01	10.3874	60.165765	0.000273	2.728364	0.924395	-0.021779
 743	3.7100e-01	10.3649	59.802786	0.000909	9.094546	3.081316	-0.072596
 744	3.7150e-01	10.3200	59.363178	0.001101	11.014506	3.731816	-0.087922
 745	3.7200e-01	10.2719	59.343013	0.000051	0.505253	0.171184	-0.004033
 746	3.7250e-01	10.2430	59.149424	0.000485	4.850425	1.643368	-0.038718
 747	3.7300e-01	10.2013	58.895339	0.000637	6.366182	2.156921	-0.050817
 748	3.7350e-01	10.1564	58.750147	0.000364	3.637819	1.232526	-0.029038
 749	3.7400e-01	10.1115	58.556559	0.000485	4.850425	1.643368	-0.038718
 750	3.7450e-01	10.0762	58.391202	0.000414	4.143071	1.403710	-0.033071
 751	3.7500e-01	10.0393	58.181480	0.000525	5.254627	1.780316	-0.041944
 752	3.7550e-01	10.0008	57.665244	0.001293	12.934466	4.382316	-0.103247
 753	3.7600e-01	9.9591	57.592648	0.000182	1.818909	0.616263	-0.014519
 754	3.7650e-01	9.9190	57.366795	0.000566	5.658829	1.917263	-0.045171
 755	3.7700e-01	9.8724	57.290166	0.000192	1.919960	0.650500	-0.015326
 756	3.7750e-01	9.8372	57.076411	0.000536	5.355677	1.814553	-0.042751
 757	3.7800e-01	9.7987	56.705366	0.000930	9.296647	3.149789	-0.074209
 758	3.7850e-01	9.7569	56.548076	0.000394	3.940970	1.335237	-0.031458
 759	3.7900e-01	9.7120	56.398851	0.000374	3.738869	1.266763	-0.029845
 760	3.7950e-01	9.6751	56.261726	0.000344	3.435718	1.164053	-0.027425
 761	3.8000e-01	9.6495	55.858416	0.001011	10.105052	3.423684	-0.080662
 762	3.8050e-01	9.5997	55.680959	0.000445	4.446223	1.506421	-0.035491
 763	3.8100e-01	9.5692	55.459139	0.000556	5.557778	1.883026	-0.044364
 764	3.8150e-01	9.5147	55.237318	0.000556	5.557778	1.883026	-0.044364
 765	3.8200e-01	9.4762	55.080028	0.000394	3.940970	1.335237	-0.031458
 766	3.8250e-01	9.4329	54.753347	0.000819	8.185092	2.773184	-0.065336
 767	3.8300e-01	9.3912	54.608155	0.000364	3.637819	1.232526	-0.029038
 768	3.8350e-01	9.3527	54.644453	-0.000091	-0.909455	-0.308132	0.007260
 769	3.8400e-01	9.3206	54.309706	0.000839	8.387193	2.841658	-0.066949
 770	3.8450e-01	9.2789	53.813635	0.001243	12.429213	4.211131	-0.099214
 771	3.8500e-01	9.2372	53.712807	0.000253	2.526263	0.855921	-0.020165
 772	3.8550e-01	9.2019	53.753138	-0.000101	-1.010505	-0.342368	0.008066
 773	3.8600e-01	9.1618	53.490987	0.000657	6.568283	2.225395	-0.052430
 774	3.8650e-01	9.1201	53.035247	0.001142	11.418708	3.868763	-0.091148
 775	3.8700e-01	9.0800	52.890055	0.000364	3.637819	1.232526	-0.029038
 776	3.8750e-01	9.0350	52.648069	0.000606	6.063031	2.054210	-0.048397
 777	3.8800e-01	8.9885	52.490778	0.000394	3.940970	1.335237	-0.031458
 778	3.8850e-01	8.9661	52.381885	0.000273	2.728364	0.924395	-0.021779
 779	3.8900e-01	8.9163	52.232660	0.000374	3.738869	1.266763	-0.029845
 780	3.8950e-01	8.8778	51.938244	0.000738	7.376688	2.499289	-0.058883
 781	3.9000e-01	8.8393	51.522835	0.001041	10.408203	3.526395	-0.083082
 782	3.9050e-01	8.7960	51.510735	0.000030	0.303152	0.102711	-0.002420
 783	3.9100e-01	8.7655	51.175988	0.000839	8.387193	2.841658	-0.066949
 784	3.9150e-01	8.7142	51.228418	-0.000131	-1.313657	-0.445079	0.010486
 785	3.9200e-01	8.6805	50.825109	0.001011	10.105052	3.423684	-0.080662
 786	3.9250e-01	8.6388	50.530692	0.000738	7.376688	2.499289	-0.058883
 787	3.9300e-01	8.5955	50.308872	0.000556	5.557778	1.883026	-0.044364
 788	3.9350e-01	8.5602	50.034621	0.000687	6.871435	2.328105	-0.054850
 789	3.9400e-01	8.5121	50.095118	-0.000152	-1.515758	-0.513553	0.012099
 790	3.9450e-01	8.4752	49.913628	0.000455	4.547273	1.540658	-0.036298
 791	3.9500e-01	8.4447	49.514352	0.001000	10.004001	3.389447	-0.079855
 792	3.9550e-01	8.4014	49.058611	0.001142	11.418708	3.868763	-0.091148
 793	3.9600e-01	8.3581	49.107009	-0.000121	-1.212606	-0.410842	0.009679
 794	3.9650e-01	8.3131	48.788394	0.000798	7.982991	2.704710	-0.063723
 795	3.9700e-01	8.2794	48.558507	0.000576	5.759879	1.951500	-0.045977
 796	3.9750e-01	8.2442	48.316521	0.000606	6.063031	2.054210	-0.048397
 797	3.9800e-01	8.1992	47.961609	0.000889	8.892445	3.012842	-0.070983
 798	3.9850e-01	8.1591	47.844649	0.000293	2.930465	0.992868	-0.023392
 799	3.9900e-01	8.1094	47.659126	0.000465	4.648324	1.574895	-0.037105
 800	3.9950e-01	8.0805	47.461504	0.000495	4.951475	1.677605	-0.039524
 801	4.0000e-01	8.0324	47.392942	0.000172	1.717859	0.582026	-0.013713
 802	4.0050e-01	8.0019	47.207419	0.000465	4.648324	1.574895	-0.037105
 803	4.0100e-01	7.9634	46.929135	0.000697	6.972486	2.362342	-0.055657
 804	4.0150e-01	7.9169	46.594388	0.000839	8.387193	2.841658	-0.066949
 805	4.0200e-01	7.8784	46.533892	0.000152	1.515758	0.513553	-0.012099
 806	4.0250e-01	7.8415	46.299972	0.000586	5.860930	1.985737	-0.046784
 807	4.0300e-01	7.8078	45.936993	0.000909	9.094546	3.081316	-0.072596
 808	4.0350e-01	7.7565	45.908761	0.000071	0.707354	0.239658	-0.005646
 809	4.0400e-01	7.7260	45.517551	0.000980	9.801900	3.320974	-0.078242
 810	4.0450e-01	7.6811	45.231201	0.000717	7.174587	2.430816	-0.057270
 811	4.0500e-01	7.6265	45.211035	0.000051	0.505253	0.171184	-0.004033
 812	4.0550e-01	7.5976	45.021480	0.000475	4.749374	1.609132	-0.037911
 813	4.0600e-01	7.5591	44.698832	0.000808	8.084041	2.738947	-0.064530
 814	4.0650e-01	7.5190	44.396349	0.000758	7.578789	2.567763	-0.060496
 815	4.0700e-01	7.4805	44.206794	0.000475	4.749374	1.609132	-0.037911
 816	4.0750e-01	7.4356	43.908344	0.000748	7.477738	2.533526	-0.059690
 817	4.0800e-01	7.3987	43.726855	0.000455	4.547273	1.540658	-0.036298
 818	4.0850e-01	7.3586	43.496968	0.000576	5.759879	1.951500	-0.045977
 819	4.0900e-01	7.3201	43.339678	0.000394	3.940970	1.335237	-0.031458
 820	4.0950e-01	7.2784	42.952500	0.000970	9.700849	3.286737	-0.077435
 821	4.1000e-01	7.2415	42.766978	0.000465	4.648324	1.574895	-0.037105
 822	4.1050e-01	7.2046	42.359635	0.001021	10.206102	3.457921	-0.081469
 823	4.1100e-01	7.1645	42.339469	0.000051	0.505253	0.171184	-0.004033
 824	4.1150e-01	7.1116	42.351568	-0.000030	-0.303152	-0.102711	0.002420
 825	4.1200e-01	7.0827	41.907928	0.001112	11.115557	3.766053	-0.088728
 826	4.1250e-01	7.0314	41.903894	0.000010	0.101051	0.034237	-0.000807
 827	4.1300e-01	6.9993	41.629644	0.000687	6.871435	2.328105	-0.054850
 828	4.1350e-01	6.9560	41.222301	0.001021	10.206102	3.457921	-0.081469
 829	4.1400e-01	6.9223	41.016613	0.000515	5.153576	1.746079	-0.041138
 830	4.1450e-01	6.8838	40.685899	0.000829	8.286142	2.807421	-0.066143
 831	4.1500e-01	6.8453	40.661700	0.000061	0.606303	0.205421	-0.004840
 832	4.1550e-01	6.7971	40.415681	0.000616	6.164081	2.088447	-0.049204
 833	4.1600e-01	6.7554	40.242258	0.000435	4.345172	1.472184	-0.034685
 834	4.1650e-01	6.7169	39.907511	0.000839	8.387193	2.841658	-0.066949
 835	4.1700e-01	6.6688	39.810716	0.000243	2.425212	0.821684	-0.019359
 836	4.1750e-01	6.6383	39.645359	0.000414	4.143071	1.403710	-0.033071
 837	4.1800e-01	6.5998	39.346910	0.000748	7.477738	2.533526	-0.059690
 838	4.1850e-01	6.5613	38.871004	0.001192	11.923961	4.039947	-0.095181
 839	4.1900e-01	6.5100	38.673382	0.000495	4.951475	1.677605	-0.039524
 840	4.1950e-01	6.4779	38.326536	0.000869	8.690344	2.944368	-0.069369
 841	4.2000e-01	6.4394	38.141013	0.000465	4.648324	1.574895	-0.037105
 842	4.2050e-01	6.3993	38.181344	-0.000101	-1.010505	-0.342368	0.008066
 843	4.2100e-01	6.3576	37.979690	0.000505	5.052526	1.711842	-0.040331
 844	4.2150e-01	6.3255	37.657042	0.000808	8.084041	2.738947	-0.064530
 845	4.2200e-01	6.2790	37.499751	0.000394	3.940970	1.335237	-0.031458
 846	4.2250e-01	6.2324	37.112573	0.000970	9.700849	3.286737	-0.077435
 847	4.2300e-01	6.2020	36.914952	0.000495	4.951475	1.677605	-0.039524
 848	4.2350e-01	6.1490	36.834290	0.000202	2.021010	0.684737	-0.016132
 849	4.2400e-01	6.1282	36.608436	0.000566	5.658829	1.917263	-0.045171
 850	4.2450e-01	6.0929	36.261590	0.000869	8.690344	2.944368	-0.069369
 851	4.2500e-01	6.0351	35.979273	0.000707	7.073536	2.396579	-0.056463
 852	4.2550e-01	5.9982	35.769552	0.000525	5.254627	1.780316	-0.041944
 853	4.2600e-01	5.9629	35.531599	0.000596	5.961980	2.019974	-0.047591
 854	4.2650e-01	5.9212	35.317844	0.000536	5.355677	1.814553	-0.042751
 855	4.2700e-01	5.8763	35.253315	0.000162	1.616808	0.547789	-0.012906
 856	4.2750e-01	5.8330	34.837906	0.001041	10.408203	3.526395	-0.083082
 857	4.2800e-01	5.8073	34.438629	0.001000	10.004001	3.389447	-0.079855
 858	4.2850e-01	5.7656	34.390232	0.000121	1.212606	0.410842	-0.009679
 859	4.2900e-01	5.7207	34.003054	0.000970	9.700849	3.286737	-0.077435
 860	4.2950e-01	5.6806	33.910293	0.000232	2.324162	0.787447	-0.018552
 861	4.3000e-01	5.6405	33.563447	0.000869	8.690344	2.944368	-0.069369
 862	4.3050e-01	5.5972	33.519082	0.000111	1.111556	0.376605	-0.008873
 863	4.3100e-01	5.5522	33.369858	0.000374	3.738869	1.266763	-0.029845
 864	4.3150e-01	5.5121	33.107706	0.000657	6.568283	2.225395	-0.052430
 865	4.3200e-01	5.4769	32.861687	0.000616	6.164081	2.088447	-0.049204
 866	4.3250e-01	5.4496	32.720529	0.000354	3.536768	1.198289	-0.028232
 867	4.3300e-01	5.3982	32.365616	0.000889	8.892445	3.012842	-0.070983
 868	4.3350e-01	5.3533	32.212359	0.000384	3.839920	1.301000	-0.030652
 869	4.3400e-01	5.3164	32.042968	0.000424	4.244122	1.437947	-0.033878
 870	4.3450e-01	5.2779	31.675956	0.000920	9.195597	3.115553	-0.073402
 871	4.3500e-01	5.2410	31.244415	0.001081	10.812405	3.663342	-0.086308
 872	4.3550e-01	5.1977	30.877403	0.000920	9.195597	3.115553	-0.073402
 873	4.3600e-01	5.1656	30.845138	0.000081	0.808404	0.273895	-0.006453
 874	4.3650e-01	5.1207	30.623318	0.000556	5.557778	1.883026	-0.044364
 875	4.3700e-01	5.0742	30.607185	0.000040	0.404202	0.136947	-0.003226
 876	4.3750e-01	5.0341	30.441828	0.000414	4.143071	1.403710	-0.033071
 877	4.3800e-01	4.9972	30.050618	0.000980	9.801900	3.320974	-0.078242
 878	4.3850e-01	4.9539	29.792499	0.000647	6.467233	2.191158	-0.051624
 879	4.3900e-01	4.9234	29.606977	0.000465	4.648324	1.574895	-0.037105
 880	4.3950e-01	4.8721	29.256097	0.000879	8.791395	2.978605	-0.070176
 881	4.4000e-01	4.8480	29.050409	0.000515	5.153576	1.746079	-0.041138
 882	4.4050e-01	4.8031	28.885052	0.000414	4.143071	1.403710	-0.033071
 883	4.4100e-01	4.7614	28.707596	0.000445	4.446223	1.506421	-0.035491
 884	4.4150e-01	4.7229	28.445444	0.000657	6.568283	2.225395	-0.052430
 885	4.4200e-01	4.6763	28.231690	0.000536	5.355677	1.814553	-0.042751
 886	4.4250e-01	4.6410	28.054234	0.000445	4.446223	1.506421	-0.035491
 887	4.4300e-01	4.5961	27.586394	0.001172	11.721860	3.971474	-0.093568
 888	4.4350e-01	4.5592	27.239548	0.000869	8.690344	2.944368	-0.069369
 889	4.4400e-01	4.5175	27.162919	0.000192	1.919960	0.650500	-0.015326
 890	4.4450e-01	4.4726	26.961264	0.000505	5.052526	1.711842	-0.040331
 891	4.4500e-01	4.4341	26.892701	0.000172	1.717859	0.582026	-0.013713
 892	4.4550e-01	4.3908	26.606351	0.000717	7.174587	2.430816	-0.057270
 893	4.4600e-01	4.3651	26.328068	0.000697	6.972486	2.362342	-0.055657
 894	4.4650e-01	4.3170	26.086082	0.000606	6.063031	2.054210	-0.048397
 895	4.4700e-01	4.2801	25.848129	0.000596	5.961980	2.019974	-0.047591
 896	4.4750e-01	4.2336	25.614209	0.000586	5.860930	1.985737	-0.046784
 897	4.4800e-01	4.1951	25.501282	0.000283	2.829414	0.958632	-0.022585
 898	4.4850e-01	4.1534	25.218966	0.000707	7.073536	2.396579	-0.056463
 899	4.4900e-01	4.1197	24.767259	0.001132	11.317658	3.834526	-0.090341
 900	4.4950e-01	4.0764	24.686597	0.000202	2.021010	0.684737	-0.016132
 901	4.5000e-01	4.0346	24.569637	0.000293	2.930465	0.992868	-0.023392
 902	4.5050e-01	4.0026	24.323618	0.000616	6.164081	2.088447	-0.049204
 903	4.5100e-01	3.9512	23.851745	0.001182	11.822910	4.005710	-0.094375
 904	4.5150e-01	3.9143	23.633958	0.000546	5.456728	1.848789	-0.043557
 905	4.5200e-01	3.8694	23.549263	0.000212	2.122061	0.718974	-0.016939
 906	4.5250e-01	3.8357	23.218549	0.000829	8.286142	2.807421	-0.066143
 907	4.5300e-01	3.7972	23.178218	0.000101	1.010505	0.342368	-0.008066
 908	4.5350e-01	3.7539	23.000761	0.000445	4.446223	1.506421	-0.035491
 909	4.5400e-01	3.7202	22.617617	0.000960	9.599799	3.252500	-0.076629
 910	4.5450e-01	3.6769	22.492591	0.000313	3.132566	1.061342	-0.025005
 911	4.5500e-01	3.6384	22.085248	0.001021	10.206102	3.457921	-0.081469
 912	4.5550e-01	3.5935	22.036851	0.000121	1.212606	0.410842	-0.009679
 913	4.5600e-01	3.5534	21.685971	0.000879	8.791395	2.978605	-0.070176
 914	4.5650e-01	3.5229	21.435919	0.000627	6.265132	2.122684	-0.050010
 915	4.5700e-01	3.4748	21.282661	0.000384	3.839920	1.301000	-0.030652
 916	4.5750e-01	3.4411	21.105205	0.000445	4.446223	1.506421	-0.035491
 917	4.5800e-01	3.3913	20.754325	0.000879	8.791395	2.978605	-0.070176
 918	4.5850e-01	3.3464	20.443777	0.000778	7.780890	2.636237	-0.062110
 919	4.5900e-01	3.3127	20.242122	0.000505	5.052526	1.711842	-0.040331
 920	4.5950e-01	3.2871	19.883176	0.000899	8.993496	3.047079	-0.071789
 921	4.6000e-01	3.2438	19.439535	0.001112	11.115557	3.766053	-0.088728
 922	4.6050e-01	3.1956	19.403237	0.000091	0.909455	0.308132	-0.007260
 923	4.6100e-01	3.1635	19.173351	0.000576	5.759879	1.951500	-0.045977
 924	4.6150e-01	3.1283	18.790206	0.000960	9.599799	3.252500	-0.076629
 925	4.6200e-01	3.0785	18.673247	0.000293	2.930465	0.992868	-0.023392
 926	4.6250e-01	3.0352	18.419161	0.000637	6.366182	2.156921	-0.050817
 927	4.6300e-01	3.0031	18.269937	0.000374	3.738869	1.266763	-0.029845
 928	4.6350e-01	2.9678	17.955355	0.000788	7.881940	2.670474	-0.062916
 929	4.6400e-01	2.9213	17.673038	0.000707	7.073536	2.396579	-0.056463
 930	4.6450e-01	2.8716	17.370556	0.000758	7.578789	2.567763	-0.060496
 931	4.6500e-01	2.8363	17.301993	0.000172	1.717859	0.582026	-0.013713
 932	4.6550e-01	2.7978	17.209232	0.000232	2.324162	0.787447	-0.018552
 933	4.6600e-01	2.7561	16.995478	0.000536	5.355677	1.814553	-0.042751
 934	4.6650e-01	2.7176	16.523605	0.001182	11.822910	4.005710	-0.094375
 935	4.6700e-01	2.6791	16.374380	0.000374	3.738869	1.266763	-0.029845
 936	4.6750e-01	2.6293	16.225156	0.000374	3.738869	1.266763	-0.029845
 937	4.6800e-01	2.5989	15.902508	0.000808	8.084041	2.738947	-0.064530
 938	4.6850e-01	2.5604	15.579860	0.000808	8.084041	2.738947	-0.064530
 939	4.6900e-01	2.5170	15.434668	0.000364	3.637819	1.232526	-0.029038
 940	4.6950e-01	2.4914	15.249146	0.000465	4.648324	1.574895	-0.037105
 941	4.7000e-01	2.4352	14.991028	0.000647	6.467233	2.191158	-0.051624
 942	4.7050e-01	2.3935	14.724843	0.000667	6.669334	2.259632	-0.053237
 943	4.7100e-01	2.3614	14.390096	0.000839	8.387193	2.841658	-0.066949
 944	4.7150e-01	2.3245	14.071481	0.000798	7.982991	2.704710	-0.063723
 945	4.7200e-01	2.2716	14.043249	0.000071	0.707354	0.239658	-0.005646
 946	4.7250e-01	2.2331	14.015018	0.000071	0.707354	0.239658	-0.005646
 947	4.7300e-01	2.2026	13.688337	0.000819	8.185092	2.773184	-0.065336
 948	4.7350e-01	2.1577	13.365689	0.000808	8.084041	2.738947	-0.064530
 949	4.7400e-01	2.1144	13.337457	0.000071	0.707354	0.239658	-0.005646
 950	4.7450e-01	2.0775	12.958346	0.000950	9.498748	3.218263	-0.075822
 951	4.7500e-01	2.0310	12.809121	0.000374	3.738869	1.266763	-0.029845
 952	4.7550e-01	1.9973	12.518738	0.000728	7.275637	2.465053	-0.058077
 953	4.7600e-01	1.9620	12.179958	0.000849	8.488243	2.875895	-0.067756
 954	4.7650e-01	1.9203	11.986369	0.000485	4.850425	1.643368	-0.038718
 955	4.7700e-01	1.8802	11.752449	0.000586	5.860930	1.985737	-0.046784
 956	4.7750e-01	1.8449	11.599192	0.000384	3.839920	1.301000	-0.030652
 957	4.7800e-01	1.8096	11.320908	0.000697	6.972486	2.362342	-0.055657
 958	4.7850e-01	1.7582	10.945830	0.000940	9.397698	3.184026	-0.075016
 959	4.7900e-01	1.7117	10.808704	0.000344	3.435718	1.164053	-0.027425
 960	4.7950e-01	1.6796	10.344898	0.001162	11.620809	3.937237	-0.092761
 961	4.8000e-01	1.6347	10.159375	0.000465	4.648324	1.574895	-0.037105
 962	4.8050e-01	1.5930	9.945621	0.000536	5.355677	1.814553	-0.042751
 963	4.8100e-01	1.5497	9.776231	0.000424	4.244122	1.437947	-0.033878
 964	4.8150e-01	1.5192	9.566510	0.000525	5.254627	1.780316	-0.041944
 965	4.8200e-01	1.4807	9.304358	0.000657	6.568283	2.225395	-0.052430
 966	4.8250e-01	1.4358	8.901049	0.001011	10.105052	3.423684	-0.080662
 967	4.8300e-01	1.4037	8.735692	0.000414	4.143071	1.403710	-0.033071
 968	4.8350e-01	1.3572	8.614699	0.000303	3.031515	1.027105	-0.024199
 969	4.8400e-01	1.3171	8.332382	0.000707	7.073536	2.396579	-0.056463
 970	4.8450e-01	1.2818	8.267852	0.000162	1.616808	0.547789	-0.012906
 971	4.8500e-01	1.2401	7.832277	0.001091	10.913456	3.697579	-0.087115
 972	4.8550e-01	1.1952	7.586258	0.000616	6.164081	2.088447	-0.049204
 973	4.8600e-01	1.1518	7.259577	0.000819	8.185092	2.773184	-0.065336
 974	4.8650e-01	1.1262	7.033724	0.000566	5.658829	1.917263	-0.045171
 975	4.8700e-01	1.0732	6.944996	0.000222	2.223111	0.753211	-0.017746
 976	4.8750e-01	1.0379	6.949029	-0.000010	-0.101051	-0.034237	0.000807
 977	4.8800e-01	0.9962	6.376329	0.001435	14.349173	4.861631	-0.114540
 978	4.8850e-01	0.9561	6.029482	0.000869	8.690344	2.944368	-0.069369
 979	4.8900e-01	0.9112	5.952854	0.000192	1.919960	0.650500	-0.015326
 980	4.8950e-01	0.8775	5.751199	0.000505	5.052526	1.711842	-0.040331
 981	4.9000e-01	0.8374	5.505180	0.000616	6.164081	2.088447	-0.049204
 982	4.9050e-01	0.7973	5.230929	0.000687	6.871435	2.328105	-0.054850
 983	4.9100e-01	0.7476	5.005075	0.000566	5.658829	1.917263	-0.045171
 984	4.9150e-01	0.7139	4.839718	0.000414	4.143071	1.403710	-0.033071
 985	4.9200e-01	0.6754	4.492872	0.000869	8.690344	2.944368	-0.069369
 986	4.9250e-01	0.6465	4.186356	0.000768	7.679839	2.602000	-0.061303
 987	4.9300e-01	0.5968	3.976635	0.000525	5.254627	1.780316	-0.041944
 988	4.9350e-01	0.5567	3.815311	0.000404	4.042021	1.369474	-0.032265
 989	4.9400e-01	0.5198	3.545094	0.000677	6.770385	2.293868	-0.054044
 990	4.9450e-01	0.4700	3.343439	0.000505	5.052526	1.711842	-0.040331
 991	4.9500e-01	0.4364	3.153883	0.000475	4.749374	1.609132	-0.037911
 992	4.9550e-01	0.3962	2.903831	0.000627	6.265132	2.122684	-0.050010
 993	4.9600e-01	0.3529	2.782838	0.000303	3.031515	1.027105	-0.024199
 994	4.9650e-01	0.3160	2.472289	0.000778	7.780890	2.636237	-0.062110
 995	4.9700e-01	0.2839	2.020582	0.001132	11.317658	3.834526	-0.090341
 996	4.9750e-01	0.2519	1.689868	0.000829	8.286142	2.807421	-0.066143
 997	4.9800e-01	0.1877	1.451915	0.000596	5.961980	2.019974	-0.047591
 998	4.9850e-01	0.1572	1.395452	0.000141	1.414707	0.479316	-0.011293
 999	4.9900e-01	0.1123	1.145400	0.000627	6.265132	2.122684	-0.050010
1000	4.9950e-01	0.0738	0.871149	0.000687	6.871435	2.328105	-0.054850
1001	5.0000e-01	0.0433	0.294416	0.001445	14.450224	4.895868	-0.115347
1002	5.0050e-01	0.0112	0.254085	0.000101	1.010505	0.342368	-0.008066
1003	5.0100e-01	-0.0417	0.145192	0.000273	2.728364	0.924395	-0.021779
1004	5.0150e-01	-0.0738	-0.125026	0.000677	6.770385	2.293868	-0.054044
1005	5.0200e-01	-0.1187	-0.266185	0.000354	3.536768	1.198289	-0.028232
1006	5.0250e-01	-0.1572	-0.512204	0.000616	6.164081	2.088447	-0.049204
1007	5.0300e-01	-0.1973	-0.887282	0.000940	9.397698	3.184026	-0.075016
1008	5.0350e-01	-0.2342	-1.185731	0.000748	7.477738	2.533526	-0.059690
1009	5.0400e-01	-0.2775	-1.419651	0.000586	5.860930	1.985737	-0.046784
1010	5.0450e-01	-0.3176	-1.560809	0.000354	3.536768	1.198289	-0.028232
1011	5.0500e-01	-0.3545	-1.597107	0.000091	0.909455	0.308132	-0.007260
1012	5.0550e-01	-0.3962	-1.774563	0.000445	4.446223	1.506421	-0.035491
1013	5.0600e-01	-0.4380	-2.117377	0.000859	8.589294	2.910132	-0.068563
1014	5.0650e-01	-0.4845	-2.407760	0.000728	7.275637	2.465053	-0.058077
1015	5.0700e-01	-0.5134	-2.544885	0.000344	3.435718	1.164053	-0.027425
1016	5.0750e-01	-0.5551	-2.770739	0.000566	5.658829	1.917263	-0.045171
1017	5.0800e-01	-0.5984	-3.012725	0.000606	6.063031	2.054210	-0.048397
1018	5.0850e-01	-0.6385	-3.343439	0.000829	8.286142	2.807421	-0.066143
1019	5.0900e-01	-0.6770	-3.617689	0.000687	6.871435	2.328105	-0.054850
1020	5.0950e-01	-0.7139	-3.686252	0.000172	1.717859	0.582026	-0.013713
1021	5.1000e-01	-0.7556	-3.835477	0.000374	3.738869	1.266763	-0.029845
1022	5.1050e-01	-0.7957	-4.331548	0.001243	12.429213	4.211131	-0.099214
1023	5.1100e-01	-0.8454	-4.646130	0.000788	7.881940	2.670474	-0.062916
1024	5.1150e-01	-0.8775	-4.726792	0.000202	2.021010	0.684737	-0.016132
1025	5.1200e-01	-0.9112	-4.863917	0.000344	3.435718	1.164053	-0.027425
1026	5.1250e-01	-0.9513	-5.218830	0.000889	8.892445	3.012842	-0.070983
1027	5.1300e-01	-0.9978	-5.593908	0.000940	9.397698	3.184026	-0.075016
1028	5.1350e-01	-1.0315	-5.811695	0.000546	5.456728	1.848789	-0.043557
1029	5.1400e-01	-1.0748	-5.928655	0.000293	2.930465	0.992868	-0.023392
1030	5.1450e-01	-1.1117	-6.190806	0.000657	6.568283	2.225395	-0.052430
1031	5.1500e-01	-1.1518	-6.517487	0.000819	8.185092	2.773184	-0.065336
1032	5.1550e-01	-1.1984	-6.783672	0.000667	6.669334	2.259632	-0.053237
1033	5.1600e-01	-1.2385	-6.787705	0.000010	0.101051	0.034237	-0.000807
1034	5.1650e-01	-1.2818	-7.231346	0.001112	11.115557	3.766053	-0.088728
1035	5.1700e-01	-1.3171	-7.469299	0.000596	5.961980	2.019974	-0.047591
1036	5.1750e-01	-1.3556	-7.473332	0.000010	0.101051	0.034237	-0.000807
1037	5.1800e-01	-1.3909	-7.775814	0.000758	7.578789	2.567763	-0.060496
1038	5.1850e-01	-1.4406	-7.832277	0.000141	1.414707	0.479316	-0.011293
1039	5.1900e-01	-1.4775	-8.094429	0.000657	6.568283	2.225395	-0.052430
1040	5.1950e-01	-1.5224	-8.574368	0.001203	12.025011	4.074184	-0.095988
1041	5.2000e-01	-1.5577	-8.743758	0.000424	4.244122	1.437947	-0.033878
1042	5.2050e-01	-1.6026	-9.126902	0.000960	9.599799	3.252500	-0.076629
1043	5.2100e-01	-1.6395	-9.304358	0.000445	4.446223	1.506421	-0.035491
1044	5.2150e-01	-1.6893	-9.586675	0.000707	7.073536	2.396579	-0.056463
1045	5.2200e-01	-1.7181	-9.602808	0.000040	0.404202	0.136947	-0.003226
1046	5.2250e-01	-1.7534	-10.014184	0.001031	10.307153	3.492158	-0.082275
1047	5.2300e-01	-1.7935	-10.304567	0.000728	7.275637	2.465053	-0.058077
1048	5.2350e-01	-1.8352	-10.558652	0.000637	6.366182	2.156921	-0.050817
1049	5.2400e-01	-1.8737	-10.788539	0.000576	5.759879	1.951500	-0.045977
1050	5.2450e-01	-1.9187	-10.961962	0.000435	4.345172	1.472184	-0.034685
1051	5.2500e-01	-1.9636	-11.179749	0.000546	5.456728	1.848789	-0.043557
1052	5.2550e-01	-1.9941	-11.474166	0.000738	7.376688	2.499289	-0.058883
1053	5.2600e-01	-2.0342	-11.651622	0.000445	4.446223	1.506421	-0.035491
1054	5.2650e-01	-2.0775	-11.865376	0.000536	5.355677	1.814553	-0.042751
1055	5.2700e-01	-2.1176	-12.099296	0.000586	5.860930	1.985737	-0.046784
1056	5.2750e-01	-2.1545	-12.583268	0.001213	12.126062	4.108421	-0.096794
1057	5.2800e-01	-2.1994	-12.659897	0.000192	1.919960	0.650500	-0.015326
1058	5.2850e-01	-2.2379	-12.873651	0.000536	5.355677	1.814553	-0.042751
1059	5.2900e-01	-2.2828	-13.039008	0.000414	4.143071	1.403710	-0.033071
1060	5.2950e-01	-2.3101	-13.208398	0.000424	4.244122	1.437947	-0.033878
1061	5.3000e-01	-2.3550	-13.478616	0.000677	6.770385	2.293868	-0.054044
1062	5.3050e-01	-2.3919	-13.873859	0.000990	9.902950	3.355210	-0.079049
1063	5.3100e-01	-2.4368	-13.946455	0.000182	1.818909	0.616263	-0.014519
1064	5.3150e-01	-2.4721	-14.119878	0.000435	4.345172	1.472184	-0.034685
1065	5.3200e-01	-2.5090	-14.390096	0.000677	6.770385	2.293868	-0.054044
1066	5.3250e-01	-2.5555	-14.765174	0.000940	9.397698	3.184026	-0.075016
1067	5.3300e-01	-2.5892	-14.825670	0.000152	1.515758	0.513553	-0.012099
1068	5.3350e-01	-2.6325	-15.160418	0.000839	8.387193	2.841658	-0.066949
1069	5.3400e-01	-2.6775	-15.394337	0.000586	5.860930	1.985737	-0.046784
1070	5.3450e-01	-2.7160	-15.636323	0.000606	6.063031	2.054210	-0.048397
1071	5.3500e-01	-2.7609	-15.721018	0.000212	2.122061	0.718974	-0.016939
1072	5.3550e-01	-2.8010	-16.031567	0.000778	7.780890	2.636237	-0.062110
1073	5.3600e-01	-2.8411	-16.261454	0.000576	5.759879	1.951500	-0.045977
1074	5.3650e-01	-2.8860	-16.495373	0.000586	5.860930	1.985737	-0.046784
1075	5.3700e-01	-2.9165	-16.769624	0.000687	6.871435	2.328105	-0.054850
1076	5.3750e-01	-2.9534	-16.939014	0.000424	4.244122	1.437947	-0.033878
1077	5.3800e-01	-2.9903	-17.241497	0.000758	7.578789	2.567763	-0.060496
1078	5.3850e-01	-3.0272	-17.439118	0.000495	4.951475	1.677605	-0.039524
1079	5.3900e-01	-3.0769	-17.814197	0.000940	9.397698	3.184026	-0.075016
1080	5.3950e-01	-3.1170	-17.838395	0.000061	0.606303	0.205421	-0.004840
1081	5.4000e-01	-3.1523	-18.088447	0.000627	6.265132	2.122684	-0.050010
1082	5.4050e-01	-3.1988	-18.596618	0.001273	12.732365	4.313842	-0.101634
1083	5.4100e-01	-3.2373	-18.612750	0.000040	0.404202	0.136947	-0.003226
1084	5.4150e-01	-3.2742	-18.891034	0.000697	6.972486	2.362342	-0.055657
1085	5.4200e-01	-3.3127	-19.100755	0.000525	5.254627	1.780316	-0.041944
1086	5.4250e-01	-3.3545	-19.354840	0.000637	6.366182	2.156921	-0.050817
1087	5.4300e-01	-3.4042	-19.572628	0.000546	5.456728	1.848789	-0.043557
1088	5.4350e-01	-3.4347	-19.633124	0.000152	1.515758	0.513553	-0.012099
1089	5.4400e-01	-3.4796	-20.004169	0.000930	9.296647	3.149789	-0.074209
1090	5.4450e-01	-3.5117	-20.238089	0.000586	5.860930	1.985737	-0.046784
1091	5.4500e-01	-3.5438	-20.528472	0.000728	7.275637	2.465053	-0.058077
1092	5.4550e-01	-3.5935	-20.774491	0.000616	6.164081	2.088447	-0.049204
1093	5.4600e-01	-3.6272	-20.891451	0.000293	2.930465	0.992868	-0.023392
1094	5.4650e-01	-3.6689	-21.359290	0.001172	11.721860	3.971474	-0.093568
1095	5.4700e-01	-3.7170	-21.387522	0.000071	0.707354	0.239658	-0.005646
1096	5.4750e-01	-3.7555	-21.698070	0.000778	7.780890	2.636237	-0.062110
1097	5.4800e-01	-3.7956	-22.020718	0.000808	8.084041	2.738947	-0.064530
1098	5.4850e-01	-3.8405	-21.960222	-0.000152	-1.515758	-0.513553	0.012099
1099	5.4900e-01	-3.8710	-22.061049	0.000253	2.526263	0.855921	-0.020165
1100	5.4950e-01	-3.9111	-22.512756	0.001132	11.317658	3.834526	-0.090341
1101	5.5000e-01	-3.9576	-22.778941	0.000667	6.669334	2.259632	-0.053237
1102	5.5050e-01	-3.9961	-23.049159	0.000677	6.770385	2.293868	-0.054044
1103	5.5100e-01	-4.0362	-23.404071	0.000889	8.892445	3.012842	-0.070983
1104	5.5150e-01	-4.0715	-23.512965	0.000273	2.728364	0.924395	-0.021779
1105	5.5200e-01	-4.1213	-23.609759	0.000243	2.425212	0.821684	-0.019359
1106	5.5250e-01	-4.1518	-23.698487	0.000222	2.223111	0.753211	-0.017746
1107	5.5300e-01	-4.1951	-24.182459	0.001213	12.126062	4.108421	-0.096794
1108	5.5350e-01	-4.2448	-24.412346	0.000576	5.759879	1.951500	-0.045977
1109	5.5400e-01	-4.2705	-24.557537	0.000364	3.637819	1.232526	-0.029038
1110	5.5450e-01	-4.3154	-24.658365	0.000253	2.526263	0.855921	-0.020165
1111	5.5500e-01	-4.3539	-24.948748	0.000728	7.275637	2.465053	-0.058077
1112	5.5550e-01	-4.3924	-25.065708	0.000293	2.930465	0.992868	-0.023392
1113	5.5600e-01	-4.4373	-25.343992	0.000697	6.972486	2.362342	-0.055657
1114	5.5650e-01	-4.4919	-25.513382	0.000424	4.244122	1.437947	-0.033878
1115	5.5700e-01	-4.5047	-25.852162	0.000849	8.488243	2.875895	-0.067756
1116	5.5750e-01	-4.5528	-26.182876	0.000829	8.286142	2.807421	-0.066143
1117	5.5800e-01	-4.5945	-26.489392	0.000768	7.679839	2.602000	-0.061303
1118	5.5850e-01	-4.6346	-26.836238	0.000869	8.690344	2.944368	-0.069369
1119	5.5900e-01	-4.6828	-27.082257	0.000616	6.164081	2.088447	-0.049204
1120	5.5950e-01	-4.7132	-27.211316	0.000323	3.233616	1.095579	-0.025812
1121	5.6000e-01	-4.7549	-27.308111	0.000243	2.425212	0.821684	-0.019359
1122	5.6050e-01	-4.8047	-27.537997	0.000576	5.759879	1.951500	-0.045977
1123	5.6100e-01	-4.8384	-27.735619	0.000495	4.951475	1.677605	-0.039524
1124	5.6150e-01	-4.8721	-28.005837	0.000677	6.770385	2.293868	-0.054044
1125	5.6200e-01	-4.9122	-28.288154	0.000707	7.073536	2.396579	-0.056463
1126	5.6250e-01	-4.9587	-28.441411	0.000384	3.839920	1.301000	-0.030652
1127	5.6300e-01	-5.0068	-28.554338	0.000283	2.829414	0.958632	-0.022585
1128	5.6350e-01	-5.0341	-28.929416	0.000940	9.397698	3.184026	-0.075016
1129	5.6400e-01	-5.0806	-29.106873	0.000445	4.446223	1.506421	-0.035491
1130	5.6450e-01	-5.1111	-29.219799	0.000283	2.829414	0.958632	-0.022585
1131	5.6500e-01	-5.1592	-29.590844	0.000930	9.296647	3.149789	-0.074209
1132	5.6550e-01	-5.1865	-29.812665	0.000556	5.557778	1.883026	-0.044364
1133	5.6600e-01	-5.2394	-29.921559	0.000273	2.728364	0.924395	-0.021779
1134	5.6650e-01	-5.2892	-30.066750	0.000364	3.637819	1.232526	-0.029038
1135	5.6700e-01	-5.3164	-30.453928	0.000970	9.700849	3.286737	-0.077435
1136	5.6750e-01	-5.3565	-30.724145	0.000677	6.770385	2.293868	-0.054044
1137	5.6800e-01	-5.3902	-30.905635	0.000455	4.547273	1.540658	-0.036298
1138	5.6850e-01	-5.4271	-31.131488	0.000566	5.658829	1.917263	-0.045171
1139	5.6900e-01	-5.4752	-31.268613	0.000344	3.435718	1.164053	-0.027425
1140	5.6950e-01	-5.5121	-31.571096	0.000758	7.578789	2.567763	-0.060496
1141	5.7000e-01	-5.5474	-32.026836	0.001142	11.418708	3.868763	-0.091148
1142	5.7050e-01	-5.6004	-32.240590	0.000536	5.355677	1.814553	-0.042751
1143	5.7100e-01	-5.6389	-32.345451	0.000263	2.627313	0.890158	-0.020972
1144	5.7150e-01	-5.6726	-32.482576	0.000344	3.435718	1.164053	-0.027425
1145	5.7200e-01	-5.7111	-32.651966	0.000424	4.244122	1.437947	-0.033878
1146	5.7250e-01	-5.7624	-32.881853	0.000576	5.759879	1.951500	-0.045977
1147	5.7300e-01	-5.8041	-32.946382	0.000162	1.616808	0.547789	-0.012906
1148	5.7350e-01	-5.8282	-33.277097	0.000829	8.286142	2.807421	-0.066143
1149	5.7400e-01	-5.8747	-33.744936	0.001172	11.721860	3.971474	-0.093568
1150	5.7450e-01	-5.9180	-33.829631	0.000212	2.122061	0.718974	-0.016939
1151	5.7500e-01	-5.9565	-33.999021	0.000424	4.244122	1.437947	-0.033878
1152	5.7550e-01	-5.9902	-34.107915	0.000273	2.728364	0.924395	-0.021779
1153	5.7600e-01	-6.0319	-34.349901	0.000606	6.063031	2.054210	-0.048397
1154	5.7650e-01	-6.0881	-34.551556	0.000505	5.052526	1.711842	-0.040331
1155	5.7700e-01	-6.1105	-34.765310	0.000536	5.355677	1.814553	-0.042751
1156	5.7750e-01	-6.1538	-35.007296	0.000606	6.063031	2.054210	-0.048397
1157	5.7800e-01	-6.2020	-35.249282	0.000606	6.063031	2.054210	-0.048397
1158	5.7850e-01	-6.2308	-35.454970	0.000515	5.153576	1.746079	-0.041138
1159	5.7900e-01	-6.2822	-35.660658	0.000515	5.153576	1.746079	-0.041138
1160	5.7950e-01	-6.3127	-36.237391	0.001445	14.450224	4.895868	-0.115347
1161	5.8000e-01	-6.3592	-36.205126	-0.000081	-0.808404	-0.273895	0.006453
1162	5.8050e-01	-6.3993	-36.422913	0.000546	5.456728	1.848789	-0.043557
1163	5.8100e-01	-6.4362	-36.918985	0.001243	12.429213	4.211131	-0.099214
1164	5.8150e-01	-6.4795	-36.838323	-0.000202	-2.021010	-0.684737	0.016132
1165	5.8200e-01	-6.5212	-37.076275	0.000596	5.961980	2.019974	-0.047591
1166	5.8250e-01	-6.5469	-37.273897	0.000495	4.951475	1.677605	-0.039524
1167	5.8300e-01	-6.5918	-37.673174	0.001000	10.004001	3.389447	-0.079855
1168	5.8350e-01	-6.6335	-37.890961	0.000546	5.456728	1.848789	-0.043557
1169	5.8400e-01	-6.6656	-38.084550	0.000485	4.850425	1.643368	-0.038718
1170	5.8450e-01	-6.7105	-38.036153	-0.000121	-1.212606	-0.410842	0.009679
1171	5.8500e-01	-6.7650	-38.217642	0.000455	4.547273	1.540658	-0.036298
1172	5.8550e-01	-6.7843	-38.564489	0.000869	8.690344	2.944368	-0.069369
1173	5.8600e-01	-6.8276	-38.750011	0.000465	4.648324	1.574895	-0.037105
1174	5.8650e-01	-6.8822	-38.887137	0.000344	3.435718	1.164053	-0.027425
1175	5.8700e-01	-6.9207	-39.092825	0.000515	5.153576	1.746079	-0.041138
1176	5.8750e-01	-6.9463	-39.459837	0.000920	9.195597	3.115553	-0.073402
1177	5.8800e-01	-6.9945	-39.588896	0.000323	3.233616	1.095579	-0.025812
1178	5.8850e-01	-7.0281	-39.855080	0.000667	6.669334	2.259632	-0.053237
1179	5.8900e-01	-7.0666	-40.153530	0.000748	7.477738	2.533526	-0.059690
1180	5.8950e-01	-7.1180	-40.343085	0.000475	4.749374	1.609132	-0.037911
1181	5.9000e-01	-7.1436	-40.411648	0.000172	1.717859	0.582026	-0.013713
1182	5.9050e-01	-7.1934	-40.653634	0.000606	6.063031	2.054210	-0.048397
1183	5.9100e-01	-7.2303	-40.835123	0.000455	4.547273	1.540658	-0.036298
1184	5.9150e-01	-7.2768	-41.004513	0.000424	4.244122	1.437947	-0.033878
1185	5.9200e-01	-7.3153	-41.278764	0.000687	6.871435	2.328105	-0.054850
1186	5.9250e-01	-7.3506	-41.427989	0.000374	3.738869	1.266763	-0.029845
1187	5.9300e-01	-7.3955	-41.544949	0.000293	2.930465	0.992868	-0.023392
1188	5.9350e-01	-7.4340	-41.738537	0.000485	4.850425	1.643368	-0.038718
1189	5.9400e-01	-7.4773	-42.121682	0.000960	9.599799	3.252500	-0.076629
1190	5.9450e-01	-7.5094	-42.359635	0.000596	5.961980	2.019974	-0.047591
1191	5.9500e-01	-7.5495	-42.625819	0.000667	6.669334	2.259632	-0.053237
1192	5.9550e-01	-7.5944	-42.754878	0.000323	3.233616	1.095579	-0.025812
1193	5.9600e-01	-7.6345	-43.017030	0.000657	6.568283	2.225395	-0.052430
1194	5.9650e-01	-7.6795	-43.033162	0.000040	0.404202	0.136947	-0.003226
1195	5.9700e-01	-7.7164	-43.468737	0.001091	10.913456	3.697579	-0.087115
1196	5.9750e-01	-7.7500	-43.440505	-0.000071	-0.707354	-0.239658	0.005646
1197	5.9800e-01	-7.7886	-43.775252	0.000839	8.387193	2.841658	-0.066949
1198	5.9850e-01	-7.8254	-43.839782	0.000162	1.616808	0.547789	-0.012906
1199	5.9900e-01	-7.8720	-44.259224	0.001051	10.509254	3.560631	-0.083888
1200	5.9950e-01	-7.9089	-44.485078	0.000566	5.658829	1.917263	-0.045171
1201	6.0000e-01	-7.9554	-44.517342	0.000081	0.808404	0.273895	-0.006453
1202	6.0050e-01	-7.9827	-44.827891	0.000778	7.780890	2.636237	-0.062110
1203	6.0100e-01	-8.0260	-44.989215	0.000404	4.042021	1.369474	-0.032265
1204	6.0150e-01	-8.0677	-45.368326	0.000950	9.498748	3.218263	-0.075822
1205	6.0200e-01	-8.1046	-45.678875	0.000778	7.780890	2.636237	-0.062110
1206	6.0250e-01	-8.1607	-45.711140	0.000081	0.808404	0.273895	-0.006453
1207	6.0300e-01	-8.1960	-45.807934	0.000243	2.425212	0.821684	-0.019359
1208	6.0350e-01	-8.2281	-46.106383	0.000748	7.477738	2.533526	-0.059690
1209	6.0400e-01	-8.2794	-46.360468	0.000637	6.366182	2.156921	-0.050817
1210	6.0450e-01	-8.3147	-46.594388	0.000586	5.860930	1.985737	-0.046784
1211	6.0500e-01	-8.3564	-46.755712	0.000404	4.042021	1.369474	-0.032265
1212	6.0550e-01	-8.3933	-46.804109	0.000121	1.212606	0.410842	-0.009679
1213	6.0600e-01	-8.4286	-47.106592	0.000758	7.578789	2.567763	-0.060496
1214	6.0650e-01	-8.4768	-47.211452	0.000263	2.627313	0.890158	-0.020972
1215	6.0700e-01	-8.5153	-47.392942	0.000455	4.547273	1.540658	-0.036298
1216	6.0750e-01	-8.5522	-47.707523	0.000788	7.881940	2.670474	-0.062916
1217	6.0800e-01	-8.5923	-48.046304	0.000849	8.488243	2.875895	-0.067756
1218	6.0850e-01	-8.6308	-48.167297	0.000303	3.031515	1.027105	-0.024199
1219	6.0900e-01	-8.6773	-48.264091	0.000243	2.425212	0.821684	-0.019359
1220	6.0950e-01	-8.7126	-48.360885	0.000243	2.425212	0.821684	-0.019359
1221	6.1000e-01	-8.7543	-48.643202	0.000707	7.073536	2.396579	-0.056463
1222	6.1050e-01	-8.7848	-49.070711	0.001071	10.711355	3.629105	-0.085502
1223	6.1100e-01	-8.8377	-49.115075	0.000111	1.111556	0.376605	-0.008873
1224	6.1150e-01	-8.8730	-49.316730	0.000505	5.052526	1.711842	-0.040331
1225	6.1200e-01	-8.9211	-49.530484	0.000536	5.355677	1.814553	-0.042751
1226	6.1250e-01	-8.9516	-49.707940	0.000445	4.446223	1.506421	-0.035491
1227	6.1300e-01	-8.9981	-50.034621	0.000819	8.185092	2.773184	-0.065336
1228	6.1350e-01	-9.0350	-49.982191	-0.000131	-1.313657	-0.445079	0.010486
1229	6.1400e-01	-9.0719	-50.276607	0.000738	7.376688	2.499289	-0.058883
1230	6.1450e-01	-9.1136	-50.349203	0.000182	1.818909	0.616263	-0.014519
1231	6.1500e-01	-9.1570	-50.712182	0.000909	9.094546	3.081316	-0.072596
1232	6.1550e-01	-9.1971	-50.829142	0.000293	2.930465	0.992868	-0.023392
1233	6.1600e-01	-9.2388	-51.151790	0.000808	8.084041	2.738947	-0.064530
1234	6.1650e-01	-9.2805	-51.248584	0.000243	2.425212	0.821684	-0.019359
1235	6.1700e-01	-9.3126	-51.655927	0.001021	10.206102	3.457921	-0.081469
1236	6.1750e-01	-9.3591	-51.853549	0.000495	4.951475	1.677605	-0.039524
1237	6.1800e-01	-9.3960	-51.857582	0.000010	0.101051	0.034237	-0.000807
1238	6.1850e-01	-9.4313	-52.079402	0.000556	5.557778	1.883026	-0.044364
1239	6.1900e-01	-9.4778	-52.139899	0.000152	1.515758	0.513553	-0.012099
1240	6.1950e-01	-9.5195	-52.337521	0.000495	4.951475	1.677605	-0.039524
1241	6.2000e-01	-9.5500	-52.700499	0.000909	9.094546	3.081316	-0.072596
1242	6.2050e-01	-9.5869	-52.777128	0.000192	1.919960	0.650500	-0.015326
1243	6.2100e-01	-9.6463	-53.115909	0.000849	8.488243	2.875895	-0.067756
1244	6.2150e-01	-9.6671	-53.261100	0.000364	3.637819	1.232526	-0.029038
1245	6.2200e-01	-9.7184	-53.390159	0.000323	3.233616	1.095579	-0.025812
1246	6.2250e-01	-9.7521	-53.692642	0.000758	7.578789	2.567763	-0.060496
1247	6.2300e-01	-9.7970	-53.898330	0.000515	5.153576	1.746079	-0.041138
1248	6.2350e-01	-9.8420	-54.091918	0.000485	4.850425	1.643368	-0.038718
1249	6.2400e-01	-9.8660	-54.229044	0.000344	3.435718	1.164053	-0.027425
1250	6.2450e-01	-9.9206	-54.410533	0.000455	4.547273	1.540658	-0.036298
1251	6.2500e-01	-9.9543	-54.696883	0.000717	7.174587	2.430816	-0.057270
1252	6.2550e-01	-9.9831	-55.043730	0.000869	8.690344	2.944368	-0.069369
1253	6.2600e-01	-10.0377	-55.180855	0.000344	3.435718	1.164053	-0.027425
1254	6.2650e-01	-10.0682	-55.201021	0.000051	0.505253	0.171184	-0.004033
1255	6.2700e-01	-10.1035	-55.600297	0.001000	10.004001	3.389447	-0.079855
1256	6.2750e-01	-10.1548	-55.705158	0.000263	2.627313	0.890158	-0.020972
1257	6.2800e-01	-10.1917	-55.943111	0.000596	5.961980	2.019974	-0.047591
1258	6.2850e-01	-10.2350	-56.076203	0.000333	3.334667	1.129816	-0.026618
1259	6.2900e-01	-10.2783	-56.225428	0.000374	3.738869	1.266763	-0.029845
1260	6.2950e-01	-10.3120	-56.382718	0.000394	3.940970	1.335237	-0.031458
1261	6.3000e-01	-10.3521	-56.584373	0.000505	5.052526	1.711842	-0.040331
1262	6.3050e-01	-10.3890	-56.854591	0.000677	6.770385	2.293868	-0.054044
1263	6.3100e-01	-10.4291	-57.128842	0.000687	6.871435	2.328105	-0.054850
1264	6.3150e-01	-10.4740	-57.431324	0.000758	7.578789	2.567763	-0.060496
1265	6.3200e-01	-10.5141	-57.511986	0.000202	2.021010	0.684737	-0.016132
1266	6.3250e-01	-10.5575	-57.850766	0.000849	8.488243	2.875895	-0.067756
1267	6.3300e-01	-10.5960	-58.040322	0.000475	4.749374	1.609132	-0.037911
1268	6.3350e-01	-10.6377	-57.830601	-0.000525	-5.254627	-1.780316	0.041944
1269	6.3400e-01	-10.6714	-58.145183	0.000788	7.881940	2.670474	-0.062916
1270	6.3450e-01	-10.7099	-58.455731	0.000778	7.780890	2.636237	-0.062110
1271	6.3500e-01	-10.7596	-58.471864	0.000040	0.404202	0.136947	-0.003226
1272	6.3550e-01	-10.7869	-58.838876	0.000920	9.195597	3.115553	-0.073402
1273	6.3600e-01	-10.8270	-59.217987	0.000950	9.498748	3.218263	-0.075822
1274	6.3650e-01	-10.8719	-59.185722	-0.000081	-0.808404	-0.273895	0.006453
1275	6.3700e-01	-10.9232	-59.552734	0.000920	9.195597	3.115553	-0.073402
1276	6.3750e-01	-10.9473	-59.572899	0.000051	0.505253	0.171184	-0.004033
1277	6.3800e-01	-10.9922	-59.714058	0.000354	3.536768	1.198289	-0.028232
1278	6.3850e-01	-11.0371	-60.004441	0.000728	7.275637	2.465053	-0.058077
1279	6.3900e-01	-11.0788	-60.282725	0.000697	6.972486	2.362342	-0.055657
1280	6.3950e-01	-11.1205	-60.262559	-0.000051	-0.505253	-0.171184	0.004033
1281	6.4000e-01	-11.1574	-60.577141	0.000788	7.881940	2.670474	-0.062916
1282	6.4050e-01	-11.2056	-60.690068	0.000283	2.829414	0.958632	-0.022585
1283	6.4100e-01	-11.2312	-60.879623	0.000475	4.749374	1.609132	-0.037911
1284	6.4150e-01	-11.2681	-61.182106	0.000758	7.578789	2.567763	-0.060496
1285	6.4200e-01	-11.3147	-61.371661	0.000475	4.749374	1.609132	-0.037911
1286	6.4250e-01	-11.3387	-61.658011	0.000717	7.174587	2.430816	-0.057270
1287	6.4300e-01	-11.3917	-61.754806	0.000243	2.425212	0.821684	-0.019359
1288	6.4350e-01	-11.4318	-61.879832	0.000313	3.132566	1.061342	-0.025005
1289	6.4400e-01	-11.4719	-62.049222	0.000424	4.244122	1.437947	-0.033878
1290	6.4450e-01	-11.5136	-62.262976	0.000536	5.355677	1.814553	-0.042751
1291	6.4500e-01	-11.5489	-62.347671	0.000212	2.122061	0.718974	-0.016939
1292	6.4550e-01	-11.5922	-62.617889	0.000677	6.770385	2.293868	-0.054044
1293	6.4600e-01	-11.6355	-62.863908	0.000616	6.164081	2.088447	-0.049204
1294	6.4650e-01	-11.6772	-63.005066	0.000354	3.536768	1.198289	-0.028232
1295	6.4700e-01	-11.7221	-63.412409	0.001021	10.206102	3.457921	-0.081469
1296	6.4750e-01	-11.7446	-63.480972	0.000172	1.717859	0.582026	-0.013713
1297	6.4800e-01	-11.7959	-63.630197	0.000374	3.738869	1.266763	-0.029845
1298	6.4850e-01	-11.8296	-63.932679	0.000758	7.578789	2.567763	-0.060496
1299	6.4900e-01	-11.8697	-64.065771	0.000333	3.334667	1.129816	-0.026618
1300	6.4950e-01	-11.9098	-64.150466	0.000212	2.122061	0.718974	-0.016939
1301	6.5000e-01	-11.9580	-64.299691	0.000374	3.738869	1.266763	-0.029845
1302	6.5050e-01	-11.9965	-64.529578	0.000576	5.759879	1.951500	-0.045977
1303	6.5100e-01	-12.0334	-64.533611	0.000010	0.101051	0.034237	-0.000807
1304	6.5150e-01	-12.0735	-64.848192	0.000788	7.881940	2.670474	-0.062916
1305	6.5200e-01	-12.1168	-65.041781	0.000485	4.850425	1.643368	-0.038718
1306	6.5250e-01	-12.1537	-65.352330	0.000778	7.780890	2.636237	-0.062110
1307	6.5300e-01	-12.1954	-65.428959	0.000192	1.919960	0.650500	-0.015326
1308	6.5350e-01	-12.2307	-65.727408	0.000748	7.477738	2.533526	-0.059690
1309	6.5400e-01	-12.2660	-65.852434	0.000313	3.132566	1.061342	-0.025005
1310	6.5450e-01	-12.3061	-66.070221	0.000546	5.456728	1.848789	-0.043557
1311	6.5500e-01	-12.3542	-66.158949	0.000222	2.223111	0.753211	-0.017746
1312	6.5550e-01	-12.3943	-66.275909	0.000293	2.930465	0.992868	-0.023392
1313	6.5600e-01	-12.4408	-66.461432	0.000465	4.648324	1.574895	-0.037105
1314	6.5650e-01	-12.4761	-66.667120	0.000515	5.153576	1.746079	-0.041138
1315	6.5700e-01	-12.5162	-66.973635	0.000768	7.679839	2.602000	-0.061303
1316	6.5750e-01	-12.5547	-67.070430	0.000243	2.425212	0.821684	-0.019359
1317	6.5800e-01	-12.5852	-67.352747	0.000707	7.073536	2.396579	-0.056463
1318	6.5850e-01	-12.6285	-67.469707	0.000293	2.930465	0.992868	-0.023392
1319	6.5900e-01	-12.6766	-67.578600	0.000273	2.728364	0.924395	-0.021779
1320	6.5950e-01	-12.7168	-67.731858	0.000384	3.839920	1.301000	-0.030652
1321	6.6000e-01	-12.7537	-67.949645	0.000546	5.456728	1.848789	-0.043557
1322	6.6050e-01	-12.7954	-68.147267	0.000495	4.951475	1.677605	-0.039524
1323	6.6100e-01	-12.8387	-68.373121	0.000566	5.658829	1.917263	-0.045171
1324	6.6150e-01	-12.8836	-68.800629	0.001071	10.711355	3.629105	-0.085502
1325	6.6200e-01	-12.9141	-68.820795	0.000051	0.505253	0.171184	-0.004033
1326	6.6250e-01	-12.9542	-69.006317	0.000465	4.648324	1.574895	-0.037105
1327	6.6300e-01	-12.9879	-69.191840	0.000465	4.648324	1.574895	-0.037105
1328	6.6350e-01	-13.0280	-69.365263	0.000435	4.345172	1.472184	-0.034685
1329	6.6400e-01	-13.0713	-69.389461	0.000061	0.606303	0.205421	-0.004840
1330	6.6450e-01	-13.1130	-69.401561	0.000030	0.303152	0.102711	-0.002420
1331	6.6500e-01	-13.1451	-69.837135	0.001091	10.913456	3.697579	-0.087115
1332	6.6550e-01	-13.1980	-69.966195	0.000323	3.233616	1.095579	-0.025812
1333	6.6600e-01	-13.2397	-70.224313	0.000647	6.467233	2.191158	-0.051624
1334	6.6650e-01	-13.2686	-70.466299	0.000606	6.063031	2.054210	-0.048397
1335	6.6700e-01	-13.3151	-70.627623	0.000404	4.042021	1.369474	-0.032265
1336	6.6750e-01	-13.3633	-70.619557	-0.000020	-0.202101	-0.068474	0.001613
1337	6.6800e-01	-13.3889	-70.901873	0.000707	7.073536	2.396579	-0.056463
1338	6.6850e-01	-13.4258	-71.018833	0.000293	2.930465	0.992868	-0.023392
1339	6.6900e-01	-13.4788	-71.414077	0.000990	9.902950	3.355210	-0.079049
1340	6.6950e-01	-13.5221	-71.591533	0.000445	4.446223	1.506421	-0.035491
1341	6.7000e-01	-13.5558	-71.708493	0.000293	2.930465	0.992868	-0.023392
1342	6.7050e-01	-13.5991	-71.825453	0.000293	2.930465	0.992868	-0.023392
1343	6.7100e-01	-13.6280	-72.095671	0.000677	6.770385	2.293868	-0.054044
1344	6.7150e-01	-13.6761	-72.305392	0.000525	5.254627	1.780316	-0.041944
1345	6.7200e-01	-13.7130	-72.329590	0.000061	0.606303	0.205421	-0.004840
1346	6.7250e-01	-13.7547	-72.450583	0.000303	3.031515	1.027105	-0.024199
1347	6.7300e-01	-13.7900	-72.769198	0.000798	7.982991	2.704710	-0.063723
1348	6.7350e-01	-13.8317	-73.075714	0.000768	7.679839	2.602000	-0.061303
1349	6.7400e-01	-13.8798	-72.995052	-0.000202	-2.021010	-0.684737	0.016132
1350	6.7450e-01	-13.9167	-73.450792	0.001142	11.418708	3.868763	-0.091148
1351	6.7500e-01	-13.9424	-73.672612	0.000556	5.557778	1.883026	-0.044364
1352	6.7550e-01	-13.9937	-73.829903	0.000394	3.940970	1.335237	-0.031458
1353	6.7600e-01	-14.0322	-73.874267	0.000111	1.111556	0.376605	-0.008873
1354	6.7650e-01	-14.0771	-74.027525	0.000384	3.839920	1.301000	-0.030652
1355	6.7700e-01	-14.1140	-74.350173	0.000808	8.084041	2.738947	-0.064530
1356	6.7750e-01	-14.1493	-74.499397	0.000374	3.738869	1.266763	-0.029845
1357	6.7800e-01	-14.1910	-74.636523	0.000344	3.435718	1.164053	-0.027425
1358	6.7850e-01	-14.2279	-74.906740	0.000677	6.770385	2.293868	-0.054044
1359	6.7900e-01	-14.2761	-74.979336	0.000182	1.818909	0.616263	-0.014519
1360	6.7950e-01	-14.3049	-75.055965	0.000192	1.919960	0.650500	-0.015326
1361	6.8000e-01	-14.3450	-75.059998	0.000010	0.101051	0.034237	-0.000807
1362	6.8050e-01	-14.3932	-75.410878	0.000879	8.791395	2.978605	-0.070176
1363	6.8100e-01	-14.4365	-75.515738	0.000263	2.627313	0.890158	-0.020972
1364	6.8150e-01	-14.4702	-75.915015	0.001000	10.004001	3.389447	-0.079855
1365	6.8200e-01	-14.5199	-75.923081	0.000020	0.202101	0.068474	-0.001613
1366	6.8250e-01	-14.5488	-76.044074	0.000303	3.031515	1.027105	-0.024199
1367	6.8300e-01	-14.5953	-76.282027	0.000596	5.961980	2.019974	-0.047591
1368	6.8350e-01	-14.6242	-76.640973	0.000899	8.993496	3.047079	-0.071789
1369	6.8400e-01	-14.6707	-76.874892	0.000586	5.860930	1.985737	-0.046784
1370	6.8450e-01	-14.7140	-77.007985	0.000333	3.334667	1.129816	-0.026618
1371	6.8500e-01	-14.7638	-76.878926	-0.000323	-3.233616	-1.095579	0.025812
1372	6.8550e-01	-14.7926	-77.137044	0.000647	6.467233	2.191158	-0.051624
1373	6.8600e-01	-14.8295	-77.419361	0.000707	7.073536	2.396579	-0.056463
1374	6.8650e-01	-14.8761	-77.612950	0.000485	4.850425	1.643368	-0.038718
1375	6.8700e-01	-14.9146	-77.903333	0.000728	7.275637	2.465053	-0.058077
1376	6.8750e-01	-14.9563	-77.988028	0.000212	2.122061	0.718974	-0.016939
1377	6.8800e-01	-14.9932	-78.342940	0.000889	8.892445	3.012842	-0.070983
1378	6.8850e-01	-15.0349	-78.520397	0.000445	4.446223	1.506421	-0.035491
1379	6.8900e-01	-15.0782	-78.532496	0.000030	0.303152	0.102711	-0.002420
1380	6.8950e-01	-15.1199	-78.742217	0.000525	5.254627	1.780316	-0.041944
1381	6.9000e-01	-15.1536	-78.911607	0.000424	4.244122	1.437947	-0.033878
1382	6.9050e-01	-15.1921	-79.105196	0.000485	4.850425	1.643368	-0.038718
1383	6.9100e-01	-15.2322	-79.250388	0.000364	3.637819	1.232526	-0.029038
1384	6.9150e-01	-15.2659	-79.593201	0.000859	8.589294	2.910132	-0.068563
1385	6.9200e-01	-15.3108	-79.673863	0.000202	2.021010	0.684737	-0.016132
1386	6.9250e-01	-15.3477	-79.839220	0.000414	4.143071	1.403710	-0.033071
1387	6.9300e-01	-15.3878	-79.968279	0.000323	3.233616	1.095579	-0.025812
1388	6.9350e-01	-15.4375	-80.125570	0.000394	3.940970	1.335237	-0.031458
1389	6.9400e-01	-15.4712	-80.347390	0.000556	5.557778	1.883026	-0.044364
1390	6.9450e-01	-15.5145	-80.484516	0.000344	3.435718	1.164053	-0.027425
1391	6.9500e-01	-15.5530	-80.855561	0.000930	9.296647	3.149789	-0.074209
1392	6.9550e-01	-15.5980	-81.037050	0.000455	4.547273	1.540658	-0.036298
1393	6.9600e-01	-15.6268	-81.190308	0.000384	3.839920	1.301000	-0.030652
1394	6.9650e-01	-15.6701	-81.250804	0.000152	1.515758	0.513553	-0.012099
1395	6.9700e-01	-15.7199	-81.351632	0.000253	2.526263	0.855921	-0.020165
1396	6.9750e-01	-15.7488	-81.617816	0.000667	6.669334	2.259632	-0.053237
1397	6.9800e-01	-15.7921	-81.714611	0.000243	2.425212	0.821684	-0.019359
1398	6.9850e-01	-15.8322	-82.065490	0.000879	8.791395	2.978605	-0.070176
1399	6.9900e-01	-15.8819	-82.146152	0.000202	2.021010	0.684737	-0.016132
1400	6.9950e-01	-15.9156	-82.472833	0.000819	8.185092	2.773184	-0.065336
1401	7.0000e-01	-15.9573	-82.448635	-0.000061	-0.606303	-0.205421	0.004840
1402	7.0050e-01	-15.9926	-82.743051	0.000738	7.376688	2.499289	-0.058883
1403	7.0100e-01	-16.0375	-82.860011	0.000293	2.930465	0.992868	-0.023392
1404	7.0150e-01	-16.0760	-83.186692	0.000819	8.185092	2.773184	-0.065336
1405	7.0200e-01	-16.1161	-83.388347	0.000505	5.052526	1.711842	-0.040331
1406	7.0250e-01	-16.1482	-83.319784	-0.000172	-1.717859	-0.582026	0.013713
1407	7.0300e-01	-16.1883	-83.706961	0.000970	9.700849	3.286737	-0.077435
1408	7.0350e-01	-16.2348	-83.872319	0.000414	4.143071	1.403710	-0.033071
1409	7.0400e-01	-16.2701	-83.993311	0.000303	3.031515	1.027105	-0.024199
1410	7.0450e-01	-16.3102	-84.138503	0.000364	3.637819	1.232526	-0.029038
1411	7.0500e-01	-16.3471	-84.372423	0.000586	5.860930	1.985737	-0.046784
1412	7.0550e-01	-16.3840	-84.602309	0.000576	5.759879	1.951500	-0.045977
1413	7.0600e-01	-16.4338	-84.658773	0.000141	1.414707	0.479316	-0.011293
1414	7.0650e-01	-16.4658	-84.707170	0.000121	1.212606	0.410842	-0.009679
1415	7.0700e-01	-16.5140	-85.041917	0.000839	8.387193	2.841658	-0.066949
1416	7.0750e-01	-16.5525	-85.380697	0.000849	8.488243	2.875895	-0.067756
1417	7.0800e-01	-16.5974	-85.610584	0.000576	5.759879	1.951500	-0.045977
1418	7.0850e-01	-16.6343	-85.679147	0.000172	1.717859	0.582026	-0.013713
1419	7.0900e-01	-16.6712	-85.985662	0.000768	7.679839	2.602000	-0.061303
1420	7.0950e-01	-16.7113	-86.336542	0.000879	8.791395	2.978605	-0.070176
1421	7.1000e-01	-16.7546	-86.413171	0.000192	1.919960	0.650500	-0.015326
1422	7.1050e-01	-16.7883	-86.586594	0.000435	4.345172	1.472184	-0.034685
1423	7.1100e-01	-16.8284	-86.497866	-0.000222	-2.223111	-0.753211	0.017746
1424	7.1150e-01	-16.8733	-86.844712	0.000869	8.690344	2.944368	-0.069369
1425	7.1200e-01	-16.9134	-87.155261	0.000778	7.780890	2.636237	-0.062110
1426	7.1250e-01	-16.9519	-87.207691	0.000131	1.313657	0.445079	-0.010486
1427	7.1300e-01	-16.9904	-87.421445	0.000536	5.355677	1.814553	-0.042751
1428	7.1350e-01	-17.0337	-87.651332	0.000576	5.759879	1.951500	-0.045977
1429	7.1400e-01	-17.0819	-87.869119	0.000546	5.456728	1.848789	-0.043557
1430	7.1450e-01	-17.1172	-88.026410	0.000394	3.940970	1.335237	-0.031458
1431	7.1500e-01	-17.1541	-88.143370	0.000293	2.930465	0.992868	-0.023392
1432	7.1550e-01	-17.1958	-88.397455	0.000637	6.366182	2.156921	-0.050817
1433	7.1600e-01	-17.2343	-88.498283	0.000253	2.526263	0.855921	-0.020165
1434	7.1650e-01	-17.2808	-88.712037	0.000536	5.355677	1.814553	-0.042751
1435	7.1700e-01	-17.3113	-88.990321	0.000697	6.972486	2.362342	-0.055657
1436	7.1750e-01	-17.3578	-89.228273	0.000596	5.961980	2.019974	-0.047591
1437	7.1800e-01	-17.3963	-89.244406	0.000040	0.404202	0.136947	-0.003226
1438	7.1850e-01	-17.4364	-89.567054	0.000808	8.084041	2.738947	-0.064530
1439	7.1900e-01	-17.4685	-89.813073	0.000616	6.164081	2.088447	-0.049204
1440	7.1950e-01	-17.5230	-90.046992	0.000586	5.860930	1.985737	-0.046784
1441	7.2000e-01	-17.5487	-90.341409	0.000738	7.376688	2.499289	-0.058883
1442	7.2050e-01	-17.5920	-90.555163	0.000536	5.355677	1.814553	-0.042751
1443	7.2100e-01	-17.6273	-90.623726	0.000172	1.717859	0.582026	-0.013713
1444	7.2150e-01	-17.6738	-90.861678	0.000596	5.961980	2.019974	-0.047591
1445	7.2200e-01	-17.7075	-91.180293	0.000798	7.982991	2.704710	-0.063723
1446	7.2250e-01	-17.7573	-91.232723	0.000131	1.313657	0.445079	-0.010486
1447	7.2300e-01	-17.7861	-91.490842	0.000647	6.467233	2.191158	-0.051624
1448	7.2350e-01	-17.8310	-91.882052	0.000980	9.801900	3.320974	-0.078242
1449	7.2400e-01	-17.8728	-92.007078	0.000313	3.132566	1.061342	-0.025005
1450	7.2450e-01	-17.9177	-92.132104	0.000313	3.132566	1.061342	-0.025005
1451	7.2500e-01	-17.9530	-91.970781	-0.000404	-4.042021	-1.369474	0.032265
1452	7.2550e-01	-17.9963	-92.547514	0.001445	14.450224	4.895868	-0.115347
1453	7.2600e-01	-18.0332	-92.765301	0.000546	5.456728	1.848789	-0.043557
1454	7.2650e-01	-18.0717	-92.922592	0.000394	3.940970	1.335237	-0.031458
1455	7.2700e-01	-18.1134	-93.148445	0.000566	5.658829	1.917263	-0.045171
1456	7.2750e-01	-18.1535	-93.358166	0.000525	5.254627	1.780316	-0.041944
1457	7.2800e-01	-18.1904	-93.741311	0.000960	9.599799	3.252500	-0.076629
1458	7.2850e-01	-18.2321	-93.975231	0.000586	5.860930	1.985737	-0.046784
1459	7.2900e-01	-18.2786	-94.055893	0.000202	2.021010	0.684737	-0.016132
1460	7.2950e-01	-18.3187	-94.334176	0.000697	6.972486	2.362342	-0.055657
1461	7.3000e-01	-18.3604	-94.439037	0.000263	2.627313	0.890158	-0.020972
1462	7.3050e-01	-18.3989	-94.616493	0.000445	4.446223	1.506421	-0.035491
1463	7.3100e-01	-18.4342	-94.668923	0.000131	1.313657	0.445079	-0.010486
1464	7.3150e-01	-18.4711	-95.197259	0.001324	13.237617	4.485026	-0.105667
1465	7.3200e-01	-18.5145	-95.540073	0.000859	8.589294	2.910132	-0.068563
1466	7.3250e-01	-18.5562	-95.846588	0.000768	7.679839	2.602000	-0.061303
1467	7.3300e-01	-18.5995	-95.939350	0.000232	2.324162	0.787447	-0.018552
1468	7.3350e-01	-18.6316	-95.995813	0.000141	1.414707	0.479316	-0.011293
1469	7.3400e-01	-18.6765	-96.282163	0.000717	7.174587	2.430816	-0.057270
1470	7.3450e-01	-18.7166	-96.479785	0.000495	4.951475	1.677605	-0.039524
1471	7.3500e-01	-18.7535	-96.822598	0.000859	8.589294	2.910132	-0.068563
1472	7.3550e-01	-18.7968	-97.036352	0.000536	5.355677	1.814553	-0.042751
1473	7.3600e-01	-18.8353	-97.141213	0.000263	2.627313	0.890158	-0.020972
1474	7.3650e-01	-18.8786	-97.532423	0.000980	9.801900	3.320974	-0.078242
1475	7.3700e-01	-18.9107	-97.790542	0.000647	6.467233	2.191158	-0.051624
1476	7.3750e-01	-18.9540	-98.113190	0.000808	8.084041	2.738947	-0.064530
1477	7.3800e-01	-18.9893	-98.290646	0.000445	4.446223	1.506421	-0.035491
1478	7.3850e-01	-19.0374	-98.363242	0.000182	1.818909	0.616263	-0.014519
1479	7.3900e-01	-19.0823	-98.597162	0.000586	5.860930	1.985737	-0.046784
1480	7.3950e-01	-19.1144	-98.823015	0.000566	5.658829	1.917263	-0.045171
1481	7.4000e-01	-19.1513	-99.141630	0.000798	7.982991	2.704710	-0.063723
1482	7.4050e-01	-19.1979	-99.363450	0.000556	5.557778	1.883026	-0.044364
1483	7.4100e-01	-19.2331	-99.589304	0.000566	5.658829	1.917263	-0.045171
1484	7.4150e-01	-19.2716	-99.706264	0.000293	2.930465	0.992868	-0.023392
1485	7.4200e-01	-19.3166	-100.327361	0.001556	15.561779	5.272474	-0.124219
1486	7.4250e-01	-19.3551	-100.496751	0.000424	4.244122	1.437947	-0.033878
1487	7.4300e-01	-19.4000	-100.823432	0.000819	8.185092	2.773184	-0.065336
1488	7.4350e-01	-19.4289	-100.916193	0.000232	2.324162	0.787447	-0.018552
1489	7.4400e-01	-19.4722	-101.186411	0.000677	6.770385	2.293868	-0.054044
1490	7.4450e-01	-19.5107	-101.271106	0.000212	2.122061	0.718974	-0.016939
1491	7.4500e-01	-19.5492	-101.561489	0.000728	7.275637	2.465053	-0.058077
1492	7.4550e-01	-19.5925	-101.908335	0.000869	8.690344	2.944368	-0.069369
1493	7.4600e-01	-19.6294	-102.235016	0.000819	8.185092	2.773184	-0.065336
1494	7.4650e-01	-19.6695	-102.380208	0.000364	3.637819	1.232526	-0.029038
1495	7.4700e-01	-19.7128	-102.606062	0.000566	5.658829	1.917263	-0.045171
1496	7.4750e-01	-19.7497	-102.981140	0.000940	9.397698	3.184026	-0.075016
1497	7.4800e-01	-19.7914	-103.267490	0.000717	7.174587	2.430816	-0.057270
1498	7.4850e-01	-19.8299	-103.473178	0.000515	5.153576	1.746079	-0.041138
1499	7.4900e-01	-19.8716	-103.666766	0.000485	4.850425	1.643368	-0.038718
1500	7.4950e-01	-19.9053	-103.989414	0.000808	8.084041	2.738947	-0.064530
1501	7.5000e-01	-19.9470	-104.255599	0.000667	6.669334	2.259632	-0.053237
1502	7.5050e-01	-19.9551	-104.622611	0.000920	9.195597	3.115553	-0.073402
1503	7.5100e-01	-19.9358	-104.489519	0.000333	3.334667	1.129816	0.026618
1504	7.5150e-01	-19.9021	-104.489519	0.000000	0.000000	0.000000	0.000000
1505	7.5200e-01	-19.8620	-104.412890	0.000192	1.919960	0.650500	0.015326
1506	7.5250e-01	-19.8219	-104.408857	0.000010	0.101051	0.034237	0.000807
1507	7.5300e-01	-19.7802	-104.497585	-0.000222	-2.223111	-0.753211	-0.017746
1508	7.5350e-01	-19.7497	-104.384658	0.000283	2.829414	0.958632	0.022585
1509	7.5400e-01	-19.7000	-104.344327	0.000101	1.010505	0.342368	0.008066
1510	7.5450e-01	-19.6567	-104.501618	-0.000394	-3.940970	-1.335237	-0.031458
1511	7.5500e-01	-19.6150	-104.441121	0.000152	1.515758	0.513553	0.012099
1512	7.5550e-01	-19.5732	-104.328195	0.000283	2.829414	0.958632	0.022585
1513	7.5600e-01	-19.5331	-104.178970	0.000374	3.738869	1.266763	0.029845
1514	7.5650e-01	-19.4994	-104.372559	-0.000485	-4.850425	-1.643368	-0.038718
1515	7.5700e-01	-19.4577	-104.360459	0.000030	0.303152	0.102711	0.002420
1516	7.5750e-01	-19.4176	-104.420956	-0.000152	-1.515758	-0.513553	-0.012099
1517	7.5800e-01	-19.3759	-104.215268	0.000515	5.153576	1.746079	0.041138
1518	7.5850e-01	-19.3438	-103.759528	0.001142	11.418708	3.868763	0.091148
1519	7.5900e-01	-19.3037	-103.945050	-0.000465	-4.648324	-1.574895	-0.037105
1520	7.5950e-01	-19.2556	-103.961183	-0.000040	-0.404202	-0.136947	-0.003226
1521	7.6000e-01	-19.2187	-103.864388	0.000243	2.425212	0.821684	0.019359
1522	7.6050e-01	-19.1818	-103.832124	0.000081	0.808404	0.273895	0.006453
1523	7.6100e-01	-19.1401	-103.791793	0.000101	1.010505	0.342368	0.008066
1524	7.6150e-01	-19.0872	-103.731296	0.000152	1.515758	0.513553	0.012099
1525	7.6200e-01	-19.0631	-103.763561	-0.000081	-0.808404	-0.273895	-0.006453
1526	7.6250e-01	-19.0198	-103.690965	0.000182	1.818909	0.616263	0.014519
1527	7.6300e-01	-18.9749	-103.582071	0.000273	2.728364	0.924395	0.021779
1528	7.6350e-01	-18.9380	-103.465112	0.000293	2.930465	0.992868	0.023392
1529	7.6400e-01	-18.8995	-103.372350	0.000232	2.324162	0.787447	0.018552
1530	7.6450e-01	-18.8529	-103.404615	-0.000081	-0.808404	-0.273895	-0.006453
1531	7.6500e-01	-18.8209	-103.489310	-0.000212	-2.122061	-0.718974	-0.016939
1532	7.6550e-01	-18.7791	-103.323953	0.000414	4.143071	1.403710	0.033071
1533	7.6600e-01	-18.7374	-103.299755	0.000061	0.606303	0.205421	0.004840
1534	7.6650e-01	-18.7021	-103.416714	-0.000293	-2.930465	-0.992868	-0.023392
1535	7.6700e-01	-18.6572	-103.130364	0.000717	7.174587	2.430816	0.057270
1536	7.6750e-01	-18.6235	-103.001305	0.000323	3.233616	1.095579	0.025812
1537	7.6800e-01	-18.5802	-102.973074	0.000071	0.707354	0.239658	0.005646
1538	7.6850e-01	-18.5321	-102.880312	0.000232	2.324162	0.787447	0.018552
1539	7.6900e-01	-18.4968	-102.727054	0.000384	3.839920	1.301000	0.030652
1540	7.6950e-01	-18.4663	-102.537499	0.000475	4.749374	1.609132	0.037911
1541	7.7000e-01	-18.4150	-102.714955	-0.000445	-4.446223	-1.506421	-0.035491
1542	7.7050e-01	-18.3813	-102.533466	0.000455	4.547273	1.540658	0.036298
1543	7.7100e-01	-18.3396	-102.364076	0.000424	4.244122	1.437947	0.033878
1544	7.7150e-01	-18.2979	-102.347943	0.000040	0.404202	0.136947	0.003226
1545	7.7200e-01	-18.2770	-102.154354	0.000485	4.850425	1.643368	0.038718
1546	7.7250e-01	-18.2241	-101.956733	0.000495	4.951475	1.677605	0.039524
1547	7.7300e-01	-18.1808	-102.130156	-0.000435	-4.345172	-1.472184	-0.034685
1548	7.7350e-01	-18.1375	-101.831707	0.000748	7.477738	2.533526	0.059690
1549	7.7400e-01	-18.1006	-101.783309	0.000121	1.212606	0.410842	0.009679
1550	7.7450e-01	-18.0556	-101.500993	0.000707	7.073536	2.396579	0.056463
1551	7.7500e-01	-18.0300	-101.609886	-0.000273	-2.728364	-0.924395	-0.021779
1552	7.7550e-01	-17.9802	-101.496959	0.000283	2.829414	0.958632	0.022585
1553	7.7600e-01	-17.9482	-101.650217	-0.000384	-3.839920	-1.301000	-0.030652
1554	7.7650e-01	-17.9016	-101.521158	0.000323	3.233616	1.095579	0.025812
1555	7.7700e-01	-17.8663	-101.061385	0.001152	11.519759	3.903000	0.091955
1556	7.7750e-01	-17.8214	-100.867796	0.000485	4.850425	1.643368	0.038718
1557	7.7800e-01	-17.7797	-100.758902	0.000273	2.728364	0.924395	0.021779
1558	7.7850e-01	-17.7396	-100.726638	0.000081	0.808404	0.273895	0.006453
1559	7.7900e-01	-17.6931	-100.706472	0.000051	0.505253	0.171184	0.004033
1560	7.7950e-01	-17.6642	-100.686307	0.000051	0.505253	0.171184	0.004033
1561	7.8000e-01	-17.6193	-100.666141	0.000051	0.505253	0.171184	0.004033
1562	7.8050e-01	-17.5856	-100.339460	0.000819	8.185092	2.773184	0.065336
1563	7.8100e-01	-17.5375	-100.432221	-0.000232	-2.324162	-0.787447	-0.018552
1564	7.8150e-01	-17.5038	-100.416089	0.000040	0.404202	0.136947	0.003226
1565	7.8200e-01	-17.4621	-100.089408	0.000819	8.185092	2.773184	0.065336
1566	7.8250e-01	-17.4107	-100.129739	-0.000101	-1.010505	-0.342368	-0.008066
1567	7.8300e-01	-17.3787	-99.859521	0.000677	6.770385	2.293868	0.054044
1568	7.8350e-01	-17.3434	-99.548973	0.000778	7.780890	2.636237	0.062110
1569	7.8400e-01	-17.3049	-99.565105	-0.000040	-0.404202	-0.136947	-0.003226
1570	7.8450e-01	-17.2567	-99.782893	-0.000546	-5.456728	-1.848789	-0.043557
1571	7.8500e-01	-17.2214	-99.585271	0.000495	4.951475	1.677605	0.039524
1572	7.8550e-01	-17.1765	-99.399748	0.000465	4.648324	1.574895	0.037105
1573	7.8600e-01	-17.1412	-99.149696	0.000627	6.265132	2.122684	0.050010
1574	7.8650e-01	-17.1043	-99.004504	0.000364	3.637819	1.232526	0.029038
1575	7.8700e-01	-17.0530	-99.278755	-0.000687	-6.871435	-2.328105	-0.054850
1576	7.8750e-01	-17.0161	-98.827048	0.001132	11.317658	3.834526	0.090341
1577	7.8800e-01	-16.9792	-98.693956	0.000333	3.334667	1.129816	0.026618
1578	7.8850e-01	-16.9423	-98.697989	-0.000010	-0.101051	-0.034237	-0.000807
1579	7.8900e-01	-16.9022	-98.589095	0.000273	2.728364	0.924395	0.021779
1580	7.8950e-01	-16.8685	-98.318878	0.000677	6.770385	2.293868	0.054044
1581	7.9000e-01	-16.8204	-98.359209	-0.000101	-1.010505	-0.342368	-0.008066
1582	7.9050e-01	-16.7787	-98.193852	0.000414	4.143071	1.403710	0.033071
1583	7.9100e-01	-16.7354	-97.984131	0.000525	5.254627	1.780316	0.041944
1584	7.9150e-01	-16.7001	-97.903469	0.000202	2.021010	0.684737	0.016132
1585	7.9200e-01	-16.6616	-97.883303	0.000051	0.505253	0.171184	0.004033
1586	7.9250e-01	-16.6199	-97.621152	0.000657	6.568283	2.225395	0.052430
1587	7.9300e-01	-16.5781	-97.552589	0.000172	1.717859	0.582026	0.013713
1588	7.9350e-01	-16.5380	-97.431596	0.000303	3.031515	1.027105	0.024199
1589	7.9400e-01	-16.4995	-97.306570	0.000313	3.132566	1.061342	0.025005
1590	7.9450e-01	-16.4610	-96.887128	0.001051	10.509254	3.560631	0.083888
1591	7.9500e-01	-16.4177	-96.939558	-0.000131	-1.313657	-0.445079	-0.010486
1592	7.9550e-01	-16.3824	-96.758069	0.000455	4.547273	1.540658	0.036298
1593	7.9600e-01	-16.3375	-96.584645	0.000435	4.345172	1.472184	0.034685
1594	7.9650e-01	-16.3006	-96.459619	0.000313	3.132566	1.061342	0.025005
1595	7.9700e-01	-16.2541	-96.431388	0.000071	0.707354	0.239658	0.005646
1596	7.9750e-01	-16.2236	-96.322494	0.000273	2.728364	0.924395	0.021779
1597	7.9800e-01	-16.1787	-96.201501	0.000303	3.031515	1.027105	0.024199
1598	7.9850e-01	-16.1386	-95.834489	0.000920	9.195597	3.115553	0.073402
1599	7.9900e-01	-16.1001	-96.092607	-0.000647	-6.467233	-2.191158	-0.051624
1600	7.9950e-01	-16.0503	-96.003879	0.000222	2.223111	0.753211	0.017746
1601	8.0000e-01	-16.0135	-95.701397	0.000758	7.578789	2.567763	0.060496
1602	8.0050e-01	-15.9798	-95.632834	0.000172	1.717859	0.582026	0.013713
1603	8.0100e-01	-15.9397	-95.415047	0.000546	5.456728	1.848789	0.043557
1604	8.0150e-01	-15.9044	-95.402947	0.000030	0.303152	0.102711	0.002420
1605	8.0200e-01	-15.8498	-95.193226	0.000525	5.254627	1.780316	0.041944
1606	8.0250e-01	-15.8193	-94.846380	0.000869	8.690344	2.944368	0.069369
1607	8.0300e-01	-15.7824	-94.689089	0.000394	3.940970	1.335237	0.031458
1608	8.0350e-01	-15.7455	-94.495500	0.000485	4.850425	1.643368	0.038718
1609	8.0400e-01	-15.7022	-94.459202	0.000091	0.909455	0.308132	0.007260
1610	8.0450e-01	-15.6621	-94.301912	0.000394	3.940970	1.335237	0.031458
1611	8.0500e-01	-15.6220	-94.213183	0.000222	2.223111	0.753211	0.017746
1612	8.0550e-01	-15.5803	-94.039760	0.000435	4.345172	1.472184	0.034685
1613	8.0600e-01	-15.5402	-93.967164	0.000182	1.818909	0.616263	0.014519
1614	8.0650e-01	-15.4953	-93.741311	0.000566	5.658829	1.917263	0.045171
1615	8.0700e-01	-15.4616	-93.676781	0.000162	1.616808	0.547789	0.012906
1616	8.0750e-01	-15.4231	-93.467060	0.000525	5.254627	1.780316	0.041944
1617	8.0800e-01	-15.3894	-93.338001	0.000323	3.233616	1.095579	0.025812
1618	8.0850e-01	-15.3333	-93.333968	0.000010	0.101051	0.034237	0.000807
1619	8.0900e-01	-15.2964	-93.011320	0.000808	8.084041	2.738947	0.064530
1620	8.0950e-01	-15.2595	-93.063750	-0.000131	-1.313657	-0.445079	-0.010486
1621	8.1000e-01	-15.2226	-92.962923	0.000253	2.526263	0.855921	0.020165
1622	8.1050e-01	-15.1793	-92.854029	0.000273	2.728364	0.924395	0.021779
1623	8.1100e-01	-15.1343	-92.765301	0.000222	2.223111	0.753211	0.017746
1624	8.1150e-01	-15.1071	-92.616076	0.000374	3.738869	1.266763	0.029845
1625	8.1200e-01	-15.0573	-92.366024	0.000627	6.265132	2.122684	0.050010
1626	8.1250e-01	-15.0156	-92.055476	0.000778	7.780890	2.636237	0.062110
1627	8.1300e-01	-14.9835	-91.934483	0.000303	3.031515	1.027105	0.024199
1628	8.1350e-01	-14.9338	-91.841721	0.000232	2.324162	0.787447	0.018552
1629	8.1400e-01	-14.8969	-91.878019	-0.000091	-0.909455	-0.308132	-0.007260
1630	8.1450e-01	-14.8600	-91.527140	0.000879	8.791395	2.978605	0.070176
1631	8.1500e-01	-14.8199	-91.252889	0.000687	6.871435	2.328105	0.054850
1632	8.1550e-01	-14.7798	-91.075433	0.000445	4.446223	1.506421	0.035491
1633	8.1600e-01	-14.7365	-90.986704	0.000222	2.223111	0.753211	0.017746
1634	8.1650e-01	-14.7028	-91.002837	-0.000040	-0.404202	-0.136947	-0.003226
1635	8.1700e-01	-14.6579	-91.010903	-0.000020	-0.202101	-0.068474	-0.001613
1636	8.1750e-01	-14.6226	-90.914109	0.000243	2.425212	0.821684	0.019359
1637	8.1800e-01	-14.5889	-90.688255	0.000566	5.658829	1.917263	0.045171
1638	8.1850e-01	-14.5392	-90.426104	0.000657	6.568283	2.225395	0.052430
1639	8.1900e-01	-14.5039	-90.188151	0.000596	5.961980	2.019974	0.047591
1640	8.1950e-01	-14.4590	-90.067158	0.000303	3.031515	1.027105	0.024199
1641	8.2000e-01	-14.4285	-89.962297	0.000263	2.627313	0.890158	0.020972
1642	8.2050e-01	-14.3755	-89.776775	0.000465	4.648324	1.574895	0.037105
1643	8.2100e-01	-14.3402	-89.679981	0.000243	2.425212	0.821684	0.019359
1644	8.2150e-01	-14.3049	-89.627550	0.000131	1.313657	0.445079	0.010486
1645	8.2200e-01	-14.2648	-89.482359	0.000364	3.637819	1.232526	0.029038
1646	8.2250e-01	-14.2279	-89.151645	0.000829	8.286142	2.807421	0.066143
1647	8.2300e-01	-14.1782	-88.974188	0.000445	4.446223	1.506421	0.035491
1648	8.2350e-01	-14.1413	-88.974188	0.000000	0.000000	0.000000	0.000000
1649	8.2400e-01	-14.0996	-88.695904	0.000697	6.972486	2.362342	0.055657
1650	8.2450e-01	-14.0611	-88.663640	0.000081	0.808404	0.273895	0.006453
1651	8.2500e-01	-14.0146	-88.381323	0.000707	7.073536	2.396579	0.056463
1652	8.2550e-01	-13.9825	-88.409554	-0.000071	-0.707354	-0.239658	-0.005646
1653	8.2600e-01	-13.9344	-88.211933	0.000495	4.951475	1.677605	0.039524
1654	8.2650e-01	-13.9023	-87.756192	0.001142	11.418708	3.868763	0.091148
1655	8.2700e-01	-13.8542	-87.780391	-0.000061	-0.606303	-0.205421	-0.004840
1656	8.2750e-01	-13.8253	-87.731994	0.000121	1.212606	0.410842	0.009679
1657	8.2800e-01	-13.7804	-87.409346	0.000808	8.084041	2.738947	0.064530
1658	8.2850e-01	-13.7338	-87.336750	0.000182	1.818909	0.616263	0.014519
1659	8.2900e-01	-13.6889	-87.272221	0.000162	1.616808	0.547789	0.012906
1660	8.2950e-01	-13.6536	-87.139128	0.000333	3.334667	1.129816	0.026618
1661	8.3000e-01	-13.6215	-86.856811	0.000707	7.073536	2.396579	0.056463
1662	8.3050e-01	-13.5782	-86.945540	-0.000222	-2.223111	-0.753211	-0.017746
1663	8.3100e-01	-13.5477	-86.530131	0.001041	10.408203	3.526395	0.083082
1664	8.3150e-01	-13.4964	-86.425270	0.000263	2.627313	0.890158	0.020972
1665	8.3200e-01	-13.4547	-86.308310	0.000293	2.930465	0.992868	0.023392
1666	8.3250e-01	-13.4162	-86.155052	0.000384	3.839920	1.301000	0.030652
1667	8.3300e-01	-13.3649	-86.159085	-0.000010	-0.101051	-0.034237	-0.000807
1668	8.3350e-01	-13.3392	-85.900967	0.000647	6.467233	2.191158	0.051624
1669	8.3400e-01	-13.2991	-85.586385	0.000788	7.881940	2.670474	0.062916
1670	8.3450e-01	-13.2622	-85.521856	0.000162	1.616808	0.547789	0.012906
1671	8.3500e-01	-13.2189	-85.320201	0.000505	5.052526	1.711842	0.040331
1672	8.3550e-01	-13.1836	-85.215340	0.000263	2.627313	0.890158	0.020972
1673	8.3600e-01	-13.1387	-84.856395	0.000899	8.993496	3.047079	0.071789
1674	8.3650e-01	-13.1050	-84.678938	0.000445	4.446223	1.506421	0.035491
1675	8.3700e-01	-13.0552	-84.606342	0.000182	1.818909	0.616263	0.014519
1676	8.3750e-01	-13.0216	-84.356290	0.000627	6.265132	2.122684	0.050010
1677	8.3800e-01	-12.9766	-84.235297	0.000303	3.031515	1.027105	0.024199
1678	8.3850e-01	-12.9301	-84.057841	0.000445	4.446223	1.506421	0.035491
1679	8.3900e-01	-12.8948	-83.807789	0.000627	6.265132	2.122684	0.050010
1680	8.3950e-01	-12.8547	-83.936848	-0.000323	-3.233616	-1.095579	-0.025812
1681	8.4000e-01	-12.8130	-83.779557	0.000394	3.940970	1.335237	0.031458
1682	8.4050e-01	-12.7777	-83.706961	0.000182	1.818909	0.616263	0.014519
1683	8.4100e-01	-12.7456	-83.436744	0.000677	6.770385	2.293868	0.054044
1684	8.4150e-01	-12.7023	-83.368181	0.000172	1.717859	0.582026	0.013713
1685	8.4200e-01	-12.6622	-83.194758	0.000435	4.345172	1.472184	0.034685
1686	8.4250e-01	-12.6221	-83.085864	0.000273	2.728364	0.924395	0.021779
1687	8.4300e-01	-12.5868	-82.835812	0.000627	6.265132	2.122684	0.050010
1688	8.4350e-01	-12.5387	-82.650290	0.000465	4.648324	1.574895	0.037105
1689	8.4400e-01	-12.5098	-82.497032	0.000384	3.839920	1.301000	0.030652
1690	8.4450e-01	-12.4665	-82.206649	0.000728	7.275637	2.465053	0.058077
1691	8.4500e-01	-12.4136	-82.121954	0.000212	2.122061	0.718974	0.016939
1692	8.4550e-01	-12.3799	-81.964663	0.000394	3.940970	1.335237	0.031458
1693	8.4600e-01	-12.3494	-81.758975	0.000515	5.153576	1.746079	0.041138
1694	8.4650e-01	-12.2916	-81.629916	0.000323	3.233616	1.095579	0.025812
1695	8.4700e-01	-12.2579	-81.480691	0.000374	3.738869	1.266763	0.029845
1696	8.4750e-01	-12.2194	-81.226606	0.000637	6.366182	2.156921	0.050817
1697	8.4800e-01	-12.1761	-81.194341	0.000081	0.808404	0.273895	0.006453
1698	8.4850e-01	-12.1408	-81.065282	0.000323	3.233616	1.095579	0.025812
1699	8.4900e-01	-12.0959	-80.883792	0.000455	4.547273	1.540658	0.036298
1700	8.4950e-01	-12.0574	-80.674071	0.000525	5.254627	1.780316	0.041944
1701	8.5000e-01	-12.0093	-80.645840	0.000071	0.707354	0.239658	0.005646
1702	8.5050e-01	-11.9724	-80.536946	0.000273	2.728364	0.924395	0.021779
1703	8.5100e-01	-11.9403	-80.210265	0.000819	8.185092	2.773184	0.065336
1704	8.5150e-01	-11.8938	-79.984411	0.000566	5.658829	1.917263	0.045171
1705	8.5200e-01	-11.8553	-79.964246	0.000051	0.505253	0.171184	0.004033
1706	8.5250e-01	-11.8184	-79.710161	0.000637	6.366182	2.156921	0.050817
1707	8.5300e-01	-11.7815	-79.488340	0.000556	5.557778	1.883026	0.044364
1708	8.5350e-01	-11.7414	-79.399612	0.000222	2.223111	0.753211	0.017746
1709	8.5400e-01	-11.6965	-79.076964	0.000808	8.084041	2.738947	0.064530
1710	8.5450e-01	-11.6467	-79.060832	0.000040	0.404202	0.136947	0.003226
1711	8.5500e-01	-11.6227	-78.911607	0.000374	3.738869	1.266763	0.029845
1712	8.5550e-01	-11.5794	-78.592992	0.000798	7.982991	2.704710	0.063723
1713	8.5600e-01	-11.5473	-78.516364	0.000192	1.919960	0.650500	0.015326
1714	8.5650e-01	-11.4975	-78.488132	0.000071	0.707354	0.239658	0.005646
1715	8.5700e-01	-11.4542	-78.367139	0.000303	3.031515	1.027105	0.024199
1716	8.5750e-01	-11.4109	-78.181616	0.000465	4.648324	1.574895	0.037105
1717	8.5800e-01	-11.3772	-77.814604	0.000920	9.195597	3.115553	0.073402
1718	8.5850e-01	-11.3403	-77.689578	0.000313	3.132566	1.061342	0.025005
1719	8.5900e-01	-11.3002	-77.366930	0.000808	8.084041	2.738947	0.064530
1720	8.5950e-01	-11.2569	-77.439526	-0.000182	-1.818909	-0.616263	-0.014519
1721	8.6000e-01	-11.2296	-77.161242	0.000697	6.972486	2.362342	0.055657
1722	8.6050e-01	-11.1751	-77.024117	0.000344	3.435718	1.164053	0.027425
1723	8.6100e-01	-11.1430	-76.761966	0.000657	6.568283	2.225395	0.052430
1724	8.6150e-01	-11.0981	-76.443351	0.000798	7.982991	2.704710	0.063723
1725	8.6200e-01	-11.0580	-76.294126	0.000374	3.738869	1.266763	0.029845
1726	8.6250e-01	-11.0179	-76.177166	0.000293	2.930465	0.992868	0.023392
1727	8.6300e-01	-10.9697	-76.221530	-0.000111	-1.111556	-0.376605	-0.008873
1728	8.6350e-01	-10.9409	-76.064240	0.000394	3.940970	1.335237	0.031458
1729	8.6400e-01	-10.9008	-75.850485	0.000536	5.355677	1.814553	0.042751
1730	8.6450e-01	-10.8607	-75.785956	0.000162	1.616808	0.547789	0.012906
1731	8.6500e-01	-10.8157	-75.531871	0.000637	6.366182	2.156921	0.050817
1732	8.6550e-01	-10.7820	-75.273752	0.000647	6.467233	2.191158	0.051624
1733	8.6600e-01	-10.7452	-74.906740	0.000920	9.195597	3.115553	0.073402
1734	8.6650e-01	-10.7002	-74.934972	-0.000071	-0.707354	-0.239658	-0.005646
1735	8.6700e-01	-10.6601	-74.592159	0.000859	8.589294	2.910132	0.068563
1736	8.6750e-01	-10.6232	-74.620390	-0.000071	-0.707354	-0.239658	-0.005646
1737	8.6800e-01	-10.5783	-74.471166	0.000374	3.738869	1.266763	0.029845
1738	8.6850e-01	-10.5382	-74.317908	0.000384	3.839920	1.301000	0.030652
1739	8.6900e-01	-10.5061	-74.293709	0.000061	0.606303	0.205421	0.004840
1740	8.6950e-01	-10.4596	-74.055757	0.000596	5.961980	2.019974	0.047591
1741	8.7000e-01	-10.4179	-73.813771	0.000606	6.063031	2.054210	0.048397
1742	8.7050e-01	-10.3794	-73.406428	0.001021	10.206102	3.457921	0.081469
1743	8.7100e-01	-10.3457	-73.362064	0.000111	1.111556	0.376605	0.008873
1744	8.7150e-01	-10.2928	-73.148309	0.000536	5.355677	1.814553	0.042751
1745	8.7200e-01	-10.2591	-72.966820	0.000455	4.547273	1.540658	0.036298
1746	8.7250e-01	-10.2174	-72.797430	0.000424	4.244122	1.437947	0.033878
1747	8.7300e-01	-10.1821	-72.757099	0.000101	1.010505	0.342368	0.008066
1748	8.7350e-01	-10.1371	-72.563510	0.000485	4.850425	1.643368	0.038718
1749	8.7400e-01	-10.0970	-72.341690	0.000556	5.557778	1.883026	0.044364
1750	8.7450e-01	-10.0553	-72.168266	0.000435	4.345172	1.472184	0.034685
1751	8.7500e-01	-10.0216	-71.889983	0.000697	6.972486	2.362342	0.055657
1752	8.7550e-01	-9.9783	-71.676228	0.000536	5.355677	1.814553	0.042751
1753	8.7600e-01	-9.9382	-71.510871	0.000414	4.143071	1.403710	0.033071
1754	8.7650e-01	-9.9029	-71.611699	-0.000253	-2.526263	-0.855921	-0.020165
1755	8.7700e-01	-9.8628	-71.248720	0.000909	9.094546	3.081316	0.072596
1756	8.7750e-01	-9.8163	-71.313249	-0.000162	-1.616808	-0.547789	-0.012906
1757	8.7800e-01	-9.7778	-71.010767	0.000758	7.578789	2.567763	0.060496
1758	8.7850e-01	-9.7393	-70.704252	0.000768	7.679839	2.602000	0.061303
1759	8.7900e-01	-9.7056	-70.474365	0.000576	5.759879	1.951500	0.045977
1760	8.7950e-01	-9.6591	-70.409835	0.000162	1.616808	0.547789	0.012906
1761	8.8000e-01	-9.6238	-70.321107	0.000222	2.223111	0.753211	0.017746
1762	8.8050e-01	-9.5741	-70.014592	0.000768	7.679839	2.602000	0.061303
1763	8.8100e-01	-9.5404	-69.958128	0.000141	1.414707	0.479316	0.011293
1764	8.8150e-01	-9.5051	-69.748407	0.000525	5.254627	1.780316	0.041944
1765	8.8200e-01	-9.4602	-69.623381	0.000313	3.132566	1.061342	0.025005
1766	8.8250e-01	-9.4249	-69.240237	0.000960	9.599799	3.252500	0.076629
1767	8.8300e-01	-9.3719	-69.216038	0.000061	0.606303	0.205421	0.004840
1768	8.8350e-01	-9.3414	-68.998251	0.000546	5.456728	1.848789	0.043557
1769	8.8400e-01	-9.3029	-68.728033	0.000677	6.770385	2.293868	0.054044
1770	8.8450e-01	-9.2580	-68.429584	0.000748	7.477738	2.533526	0.059690
1771	8.8500e-01	-9.2163	-68.344889	0.000212	2.122061	0.718974	0.016939
1772	8.8550e-01	-9.1778	-68.280359	0.000162	1.616808	0.547789	0.012906
1773	8.8600e-01	-9.1425	-67.965778	0.000788	7.881940	2.670474	0.062916
1774	8.8650e-01	-9.0912	-67.764123	0.000505	5.052526	1.711842	0.040331
1775	8.8700e-01	-9.0511	-67.598766	0.000414	4.143071	1.403710	0.033071
1776	8.8750e-01	-9.0190	-67.550368	0.000121	1.212606	0.410842	0.009679
1777	8.8800e-01	-8.9789	-67.304349	0.000616	6.164081	2.088447	0.049204
1778	8.8850e-01	-8.9372	-67.070430	0.000586	5.860930	1.985737	0.046784
1779	8.8900e-01	-8.9051	-66.941371	0.000323	3.233616	1.095579	0.025812
1780	8.8950e-01	-8.8634	-66.776014	0.000414	4.143071	1.403710	0.033071
1781	8.9000e-01	-8.8153	-66.800212	-0.000061	-0.606303	-0.205421	-0.004840
1782	8.9050e-01	-8.7800	-66.638888	0.000404	4.042021	1.369474	0.032265
1783	8.9100e-01	-8.7399	-66.243645	0.000990	9.902950	3.355210	0.079049
1784	8.9150e-01	-8.7126	-65.961328	0.000707	7.073536	2.396579	0.056463
1785	8.9200e-01	-8.6532	-65.945195	0.000040	0.404202	0.136947	0.003226
1786	8.9250e-01	-8.6260	-65.658845	0.000717	7.174587	2.430816	0.057270
1787	8.9300e-01	-8.5746	-65.493488	0.000414	4.143071	1.403710	0.033071
1788	8.9350e-01	-8.5425	-65.316032	0.000445	4.446223	1.506421	0.035491
1789	8.9400e-01	-8.5024	-65.174873	0.000354	3.536768	1.198289	0.028232
1790	8.9450e-01	-8.4623	-65.053880	0.000303	3.031515	1.027105	0.024199
1791	8.9500e-01	-8.4174	-64.791729	0.000657	6.568283	2.225395	0.052430
1792	8.9550e-01	-8.3805	-64.670736	0.000303	3.031515	1.027105	0.024199
1793	8.9600e-01	-8.3356	-64.368254	0.000758	7.578789	2.567763	0.060496
1794	8.9650e-01	-8.2987	-64.263393	0.000263	2.627313	0.890158	0.020972
1795	8.9700e-01	-8.2602	-63.751190	0.001283	12.833415	4.348079	0.102441
1796	8.9750e-01	-8.2265	-63.614064	0.000344	3.435718	1.164053	0.027425
1797	8.9800e-01	-8.1768	-63.392244	0.000556	5.557778	1.883026	0.044364
1798	8.9850e-01	-8.1367	-63.380145	0.000030	0.303152	0.102711	0.002420
1799	8.9900e-01	-8.0950	-63.202688	0.000445	4.446223	1.506421	0.035491
1800	8.9950e-01	-8.0645	-62.997000	0.000515	5.153576	1.746079	0.041138
1801	9.0000e-01	-8.0228	-62.750981	0.000616	6.164081	2.088447	0.049204
1802	9.0050e-01	-7.9875	-62.694518	0.000141	1.414707	0.479316	0.011293
1803	9.0100e-01	-7.9377	-62.521095	0.000435	4.345172	1.472184	0.034685
1804	9.0150e-01	-7.8992	-62.262976	0.000647	6.467233	2.191158	0.051624
1805	9.0200e-01	-7.8672	-61.895964	0.000920	9.195597	3.115553	0.073402
1806	9.0250e-01	-7.8094	-61.956461	-0.000152	-1.515758	-0.513553	-0.012099
1807	9.0300e-01	-7.7757	-61.855633	0.000253	2.526263	0.855921	0.020165
1808	9.0350e-01	-7.7404	-61.528952	0.000819	8.185092	2.773184	0.065336
1809	9.0400e-01	-7.7115	-61.238569	0.000728	7.275637	2.465053	0.058077
1810	9.0450e-01	-7.6570	-61.145808	0.000232	2.324162	0.787447	0.018552
1811	9.0500e-01	-7.6185	-60.952219	0.000485	4.850425	1.643368	0.038718
1812	9.0550e-01	-7.5800	-60.673935	0.000697	6.972486	2.362342	0.055657
1813	9.0600e-01	-7.5447	-60.512611	0.000404	4.042021	1.369474	0.032265
1814	9.0650e-01	-7.5014	-60.359354	0.000384	3.839920	1.301000	0.030652
1815	9.0700e-01	-7.4645	-60.262559	0.000243	2.425212	0.821684	0.019359
1816	9.0750e-01	-7.4276	-60.028640	0.000586	5.860930	1.985737	0.046784
1817	9.0800e-01	-7.3827	-59.689859	0.000849	8.488243	2.875895	0.067756
1818	9.0850e-01	-7.3410	-59.661628	0.000071	0.707354	0.239658	0.005646
1819	9.0900e-01	-7.3073	-59.605164	0.000141	1.414707	0.479316	0.011293
1820	9.0950e-01	-7.2543	-59.117159	0.001223	12.227112	4.142658	0.097601
1821	9.1000e-01	-7.2190	-59.286549	-0.000424	-4.244122	-1.437947	-0.033878
1822	9.1050e-01	-7.1854	-58.919537	0.000920	9.195597	3.115553	0.073402
1823	9.1100e-01	-7.1436	-58.770313	0.000374	3.738869	1.266763	0.029845
1824	9.1150e-01	-7.0955	-58.379102	0.000980	9.801900	3.320974	0.078242
1825	9.1200e-01	-7.0618	-58.310540	0.000172	1.717859	0.582026	0.013713
1826	9.1250e-01	-7.0233	-58.012090	0.000748	7.477738	2.533526	0.059690
1827	9.1300e-01	-6.9720	-57.919329	0.000232	2.324162	0.787447	0.018552
1828	9.1350e-01	-6.9399	-57.709608	0.000525	5.254627	1.780316	0.041944
1829	9.1400e-01	-6.9094	-57.471655	0.000596	5.961980	2.019974	0.047591
1830	9.1450e-01	-6.8629	-57.475688	-0.000010	-0.101051	-0.034237	-0.000807
1831	9.1500e-01	-6.8244	-57.378894	0.000243	2.425212	0.821684	0.019359
1832	9.1550e-01	-6.7763	-57.056246	0.000808	8.084041	2.738947	0.064530
1833	9.1600e-01	-6.7442	-56.834426	0.000556	5.557778	1.883026	0.044364
1834	9.1650e-01	-6.7025	-56.628737	0.000515	5.153576	1.746079	0.041138
1835	9.1700e-01	-6.6592	-56.459347	0.000424	4.244122	1.437947	0.033878
1836	9.1750e-01	-6.6223	-55.922945	0.001344	13.439718	4.553500	0.107280
1837	9.1800e-01	-6.5806	-55.963276	-0.000101	-1.010505	-0.342368	-0.008066
1838	9.1850e-01	-6.5389	-55.797919	0.000414	4.143071	1.403710	0.033071
1839	9.1900e-01	-6.5020	-55.600297	0.000495	4.951475	1.677605	0.039524
1840	9.1950e-01	-6.4506	-55.092127	0.001273	12.732365	4.313842	0.101634
1841	9.2000e-01	-6.4233	-55.011465	0.000202	2.021010	0.684737	0.016132
1842	9.2050e-01	-6.3800	-54.838042	0.000435	4.345172	1.472184	0.034685
1843	9.2100e-01	-6.3383	-54.725115	0.000283	2.829414	0.958632	0.022585
1844	9.2150e-01	-6.2982	-54.507328	0.000546	5.456728	1.848789	0.043557
1845	9.2200e-01	-6.2613	-54.370202	0.000344	3.435718	1.164053	0.027425
1846	9.2250e-01	-6.2276	-54.180647	0.000475	4.749374	1.609132	0.037911
1847	9.2300e-01	-6.1795	-53.769271	0.001031	10.307153	3.492158	0.082275
1848	9.2350e-01	-6.1506	-53.700708	0.000172	1.717859	0.582026	0.013713
1849	9.2400e-01	-6.1073	-53.616013	0.000212	2.122061	0.718974	0.016939
1850	9.2450e-01	-6.0656	-53.293365	0.000808	8.084041	2.738947	0.064530
1851	9.2500e-01	-6.0287	-53.261100	0.000081	0.808404	0.273895	0.006453
1852	9.2550e-01	-5.9806	-53.111875	0.000374	3.738869	1.266763	0.029845
1853	9.2600e-01	-5.9501	-52.926353	0.000465	4.648324	1.574895	0.037105
1854	9.2650e-01	-5.8972	-52.482712	0.001112	11.115557	3.766053	0.088728
1855	9.2700e-01	-5.8619	-52.289123	0.000485	4.850425	1.643368	0.038718
1856	9.2750e-01	-5.8137	-52.297190	-0.000020	-0.202101	-0.068474	-0.001613
1857	9.2800e-01	-5.7849	-52.031005	0.000667	6.669334	2.259632	0.053237
1858	9.2850e-01	-5.7383	-51.833383	0.000495	4.951475	1.677605	0.039524
1859	9.2900e-01	-5.7014	-51.514768	0.000798	7.982991	2.704710	0.063723
1860	9.2950e-01	-5.6662	-51.212286	0.000758	7.578789	2.567763	0.060496
1861	9.3000e-01	-5.6228	-51.018697	0.000485	4.850425	1.643368	0.038718
1862	9.3050e-01	-5.5827	-51.038863	-0.000051	-0.505253	-0.171184	-0.004033
1863	9.3100e-01	-5.5426	-50.764612	0.000687	6.871435	2.328105	0.054850
1864	9.3150e-01	-5.5025	-50.591189	0.000435	4.345172	1.472184	0.034685
1865	9.3200e-01	-5.4656	-50.385501	0.000515	5.153576	1.746079	0.041138
1866	9.3250e-01	-5.4287	-50.002356	0.000960	9.599799	3.252500	0.076629
1867	9.3300e-01	-5.3918	-49.877330	0.000313	3.132566	1.061342	0.025005
1868	9.3350e-01	-5.3437	-49.586947	0.000728	7.275637	2.465053	0.058077
1869	9.3400e-01	-5.3052	-49.482087	0.000263	2.627313	0.890158	0.020972
1870	9.3450e-01	-5.2635	-49.413524	0.000172	1.717859	0.582026	0.013713
1871	9.3500e-01	-5.2234	-49.191704	0.000556	5.557778	1.883026	0.044364
1872	9.3550e-01	-5.1753	-48.994082	0.000495	4.951475	1.677605	0.039524
1873	9.3600e-01	-5.1416	-48.836791	0.000394	3.940970	1.335237	0.031458
1874	9.3650e-01	-5.0983	-48.526242	0.000778	7.780890	2.636237	0.062110
1875	9.3700e-01	-5.0581	-48.276190	0.000627	6.265132	2.122684	0.050010
1876	9.3750e-01	-5.0277	-48.159230	0.000293	2.930465	0.992868	0.023392
1877	9.3800e-01	-4.9779	-48.001940	0.000394	3.940970	1.335237	0.031458
1878	9.3850e-01	-4.9475	-47.772053	0.000576	5.759879	1.951500	0.045977
1879	9.3900e-01	-4.9025	-47.461504	0.000778	7.780890	2.636237	0.062110
1880	9.3950e-01	-4.8721	-47.183221	0.000697	6.972486	2.362342	0.055657
1881	9.4000e-01	-4.8191	-46.977533	0.000515	5.153576	1.746079	0.041138
1882	9.4050e-01	-4.7726	-47.094492	-0.000293	-2.930465	-0.992868	-0.023392
1883	9.4100e-01	-4.7469	-46.562123	0.001334	13.338668	4.519263	0.106474
1884	9.4150e-01	-4.7020	-46.525825	0.000091	0.909455	0.308132	0.007260
1885	9.4200e-01	-4.6667	-46.146714	0.000950	9.498748	3.218263	0.075822
1886	9.4250e-01	-4.6170	-45.908761	0.000596	5.961980	2.019974	0.047591
1887	9.4300e-01	-4.5769	-45.811967	0.000243	2.425212	0.821684	0.019359
1888	9.4350e-01	-4.5400	-45.440922	0.000930	9.296647	3.149789	0.074209
1889	9.4400e-01	-4.5015	-45.271532	0.000424	4.244122	1.437947	0.033878
1890	9.4450e-01	-4.4678	-44.997281	0.000687	6.871435	2.328105	0.054850
1891	9.4500e-01	-4.4277	-44.839990	0.000394	3.940970	1.335237	0.031458
1892	9.4550e-01	-4.3860	-44.682699	0.000394	3.940970	1.335237	0.031458
1893	9.4600e-01	-4.3394	-44.642368	0.000101	1.010505	0.342368	0.008066
1894	9.4650e-01	-4.2977	-44.412482	0.000576	5.759879	1.951500	0.045977
1895	9.4700e-01	-4.2624	-44.085801	0.000819	8.185092	2.773184	0.065336
1896	9.4750e-01	-4.2223	-44.089834	-0.000010	-0.101051	-0.034237	-0.000807
1897	9.4800e-01	-4.1838	-43.831716	0.000647	6.467233	2.191158	0.051624
1898	9.4850e-01	-4.1469	-43.642160	0.000475	4.749374	1.609132	0.037911
1899	9.4900e-01	-4.0988	-43.303380	0.000849	8.488243	2.875895	0.067756
1900	9.4950e-01	-4.0603	-43.202552	0.000253	2.526263	0.855921	0.020165
1901	9.5000e-01	-4.0266	-42.940401	0.000657	6.568283	2.225395	0.052430
1902	9.5050e-01	-3.9913	-42.524992	0.001041	10.408203	3.526395	0.083082
1903	9.5100e-01	-3.9464	-42.266873	0.000647	6.467233	2.191158	0.051624
1904	9.5150e-01	-3.9063	-42.202344	0.000162	1.616808	0.547789	0.012906
1905	9.5200e-01	-3.8646	-42.117649	0.000212	2.122061	0.718974	0.016939
1906	9.5250e-01	-3.8309	-41.823233	0.000738	7.376688	2.499289	0.058883
1907	9.5300e-01	-3.7876	-41.577213	0.000616	6.164081	2.088447	0.049204
1908	9.5350e-01	-3.7427	-41.395724	0.000455	4.547273	1.540658	0.036298
1909	9.5400e-01	-3.7074	-41.206168	0.000475	4.749374	1.609132	0.037911
1910	9.5450e-01	-3.6496	-41.121473	0.000212	2.122061	0.718974	0.016939
1911	9.5500e-01	-3.6143	-41.020646	0.000253	2.526263	0.855921	0.020165
1912	9.5550e-01	-3.5790	-40.758494	0.000657	6.568283	2.225395	0.052430
1913	9.5600e-01	-3.5421	-40.145463	0.001536	15.359678	5.204000	0.122606
1914	9.5650e-01	-3.5069	-39.899444	0.000616	6.164081	2.088447	0.049204
1915	9.5700e-01	-3.4667	-39.927676	-0.000071	-0.707354	-0.239658	-0.005646
1916	9.5750e-01	-3.4234	-39.609061	0.000798	7.982991	2.704710	0.063723
1917	9.5800e-01	-3.3849	-39.435638	0.000435	4.345172	1.472184	0.034685
1918	9.5850e-01	-3.3416	-39.363042	0.000182	1.818909	0.616263	0.014519
1919	9.5900e-01	-3.3015	-39.112990	0.000627	6.265132	2.122684	0.050010
1920	9.5950e-01	-3.2694	-38.879071	0.000586	5.860930	1.985737	0.046784
1921	9.6000e-01	-3.2213	-38.568522	0.000778	7.780890	2.636237	0.062110
1922	9.6050e-01	-3.1812	-38.318470	0.000627	6.265132	2.122684	0.050010
1923	9.6100e-01	-3.1443	-38.290238	0.000071	0.707354	0.239658	0.005646
1924	9.6150e-01	-3.1026	-38.181344	0.000273	2.728364	0.924395	0.021779
1925	9.6200e-01	-3.0529	-37.822399	0.000899	8.993496	3.047079	0.071789
1926	9.6250e-01	-3.0208	-37.483618	0.000849	8.488243	2.875895	0.067756
1927	9.6300e-01	-2.9839	-37.148871	0.000839	8.387193	2.841658	0.066949
1928	9.6350e-01	-2.9438	-36.947216	0.000505	5.052526	1.711842	0.040331
1929	9.6400e-01	-2.9021	-36.660866	0.000717	7.174587	2.430816	0.057270
1930	9.6450e-01	-2.8587	-36.499542	0.000404	4.042021	1.369474	0.032265
1931	9.6500e-01	-2.8234	-36.253523	0.000616	6.164081	2.088447	0.049204
1932	9.6550e-01	-2.7833	-36.217225	0.000091	0.909455	0.308132	0.007260
1933	9.6600e-01	-2.7416	-35.971206	0.000616	6.164081	2.088447	0.049204
1934	9.6650e-01	-2.7047	-35.838114	0.000333	3.334667	1.129816	0.026618
1935	9.6700e-01	-2.6582	-35.418672	0.001051	10.509254	3.560631	0.083888
1936	9.6750e-01	-2.6245	-35.329944	0.000222	2.223111	0.753211	0.017746
1937	9.6800e-01	-2.5844	-35.124256	0.000515	5.153576	1.746079	0.041138
1938	9.6850e-01	-2.5379	-34.870171	0.000637	6.366182	2.156921	0.050817
1939	9.6900e-01	-2.5042	-34.797575	0.000182	1.818909	0.616263	0.014519
1940	9.6950e-01	-2.4657	-34.462828	0.000839	8.387193	2.841658	0.066949
1941	9.7000e-01	-2.4240	-34.083716	0.000950	9.498748	3.218263	0.075822
1942	9.7050e-01	-2.3823	-33.930459	0.000384	3.839920	1.301000	0.030652
1943	9.7100e-01	-2.3438	-33.841730	0.000222	2.223111	0.753211	0.017746
1944	9.7150e-01	-2.3021	-33.627976	0.000536	5.355677	1.814553	0.042751
1945	9.7200e-01	-2.2652	-33.547314	0.000202	2.021010	0.684737	0.016132
1946	9.7250e-01	-2.2154	-32.986713	0.001405	14.046022	4.758921	0.112120
1947	9.7300e-01	-2.1866	-33.010912	-0.000061	-0.606303	-0.205421	-0.004840
1948	9.7350e-01	-2.1433	-32.655999	0.000889	8.892445	3.012842	0.070983
1949	9.7400e-01	-2.0967	-32.660032	-0.000010	-0.101051	-0.034237	-0.000807
1950	9.7450e-01	-2.0582	-32.357550	0.000758	7.578789	2.567763	0.060496
1951	9.7500e-01	-2.0181	-31.994571	0.000909	9.094546	3.081316	0.072596
1952	9.7550e-01	-1.9812	-31.635625	0.000899	8.993496	3.047079	0.071789
1953	9.7600e-01	-1.9411	-31.518666	0.000293	2.930465	0.992868	0.023392
1954	9.7650e-01	-1.9026	-31.240382	0.000697	6.972486	2.362342	0.055657
1955	9.7700e-01	-1.8545	-31.252481	-0.000030	-0.303152	-0.102711	-0.002420
1956	9.7750e-01	-1.8240	-30.849171	0.001011	10.105052	3.423684	0.080662
1957	9.7800e-01	-1.7823	-30.595086	0.000637	6.366182	2.156921	0.050817
1958	9.7850e-01	-1.7454	-30.304703	0.000728	7.275637	2.465053	0.058077
1959	9.7900e-01	-1.6957	-30.143379	0.000404	4.042021	1.369474	0.032265
1960	9.7950e-01	-1.6588	-30.066750	0.000192	1.919960	0.650500	0.015326
1961	9.8000e-01	-1.6251	-29.623109	0.001112	11.115557	3.766053	0.088728
1962	9.8050e-01	-1.5738	-29.377090	0.000616	6.164081	2.088447	0.049204
1963	9.8100e-01	-1.5417	-29.252064	0.000313	3.132566	1.061342	0.025005
1964	9.8150e-01	-1.4919	-29.058475	0.000485	4.850425	1.643368	0.038718
1965	9.8200e-01	-1.4518	-28.921350	0.000344	3.435718	1.164053	0.027425
1966	9.8250e-01	-1.4214	-28.586603	0.000839	8.387193	2.841658	0.066949
1967	9.8300e-01	-1.3812	-28.445444	0.000354	3.536768	1.198289	0.028232
1968	9.8350e-01	-1.3411	-28.171194	0.000687	6.871435	2.328105	0.054850
1969	9.8400e-01	-1.3074	-27.933241	0.000596	5.961980	2.019974	0.047591
1970	9.8450e-01	-1.2561	-27.888877	0.000111	1.111556	0.376605	0.008873
1971	9.8500e-01	-1.2224	-27.594461	0.000738	7.376688	2.499289	0.058883
1972	9.8550e-01	-1.1791	-27.344409	0.000627	6.265132	2.122684	0.050010
1973	9.8600e-01	-1.1358	-27.344409	0.000000	0.000000	0.000000	0.000000
1974	9.8650e-01	-1.1085	-26.900768	0.001112	11.115557	3.766053	0.088728
1975	9.8700e-01	-1.0620	-26.739444	0.000404	4.042021	1.369474	0.032265
1976	9.8750e-01	-1.0187	-26.424862	0.000788	7.881940	2.670474	0.062916
1977	9.8800e-01	-0.9850	-26.279670	0.000364	3.637819	1.232526	0.029038
1978	9.8850e-01	-0.9513	-26.005420	0.000687	6.871435	2.328105	0.054850
1979	9.8900e-01	-0.8984	-25.811831	0.000485	4.850425	1.643368	0.038718
1980	9.8950e-01	-0.8567	-25.497249	0.000788	7.881940	2.670474	0.062916
1981	9.9000e-01	-0.8214	-25.102006	0.000990	9.902950	3.355210	0.079049
1982	9.9050e-01	-0.7813	-25.106039	-0.000010	-0.101051	-0.034237	-0.000807
1983	9.9100e-01	-0.7412	-24.968913	0.000344	3.435718	1.164053	0.027425
1984	9.9150e-01	-0.6978	-24.698696	0.000677	6.770385	2.293868	0.054044
1985	9.9200e-01	-0.6690	-24.315551	0.000960	9.599799	3.252500	0.076629
1986	9.9250e-01	-0.6273	-23.924341	0.000980	9.801900	3.320974	0.078242
1987	9.9300e-01	-0.5791	-23.791249	0.000333	3.334667	1.129816	0.026618
1988	9.9350e-01	-0.5454	-23.525064	0.000667	6.669334	2.259632	0.053237
1989	9.9400e-01	-0.4989	-23.371806	0.000384	3.839920	1.301000	0.030652
1990	9.9450e-01	-0.4636	-23.210482	0.000404	4.042021	1.369474	0.032265
1991	9.9500e-01	-0.4219	-22.895901	0.000788	7.881940	2.670474	0.062916
1992	9.9550e-01	-0.3786	-22.766842	0.000323	3.233616	1.095579	0.025812
1993	9.9600e-01	-0.3417	-22.415962	0.000879	8.791395	2.978605	0.070176
1994	9.9650e-01	-0.3064	-22.121546	0.000738	7.376688	2.499289	0.058883
1995	9.9700e-01	-0.2615	-21.899725	0.000556	5.557778	1.883026	0.044364
1996	9.9750e-01	-0.2246	-21.871494	0.000071	0.707354	0.239658	0.005646
1997	9.9800e-01	-0.1797	-21.552879	0.000798	7.982991	2.704710	0.063723
1998	9.9850e-01	-0.1412	-21.520614	0.000081	0.808404	0.273895	0.006453
1999	9.9900e-01	-0.1011	-21.218132	0.000758	7.578789	2.567763	0.060496
2000	9.9950e-01	-0.0561	-20.774491	0.001112	11.115557	3.766053	0.088728
2001	1.0000e+00	-0.0209	-20.657531	0.001112	11.115557	3.766053	0.023392

PMax (uC/cm2):	1.10e+02
Pr (uC/cm2):	5.80e+00
-Pr (uC/cm2):	-1.51e+01
PLoss (uC/cm2):	-1.50e+01
-Vc:	-9.94e-01
C (Max-Eff) (nF):	5.52e-01
K (Eff):	1.87e+03
Vert. (+/-Pr) Shift (uC/cm2):	-4.65e+00
Offset (uC/cm2):	5.57e+00

A (Loop Area - uC/cm2·Volts):	-4.16e-01



Hysteresis Version: 5.48.1 - Radiant Technologies, Inc., 1999 - 9/12/24

