»»»»»»»»»»»»»»»»»»»»»»»»»»»»»»»»»»»» Hysteresis ««««««««««««««««««««««««««««««««««««
»»»  Executed Version:	5.48.1
»»»  Vision Version:	5.48.4 (R)
»»»  Vision Compiled:	9/18/24
»»»  Driver Version:	5.47.0
»»»  Windows Version:	Windows 8 or 8.1
»»»  Processor Information:	x86 (AMD or Intel) - 32 Processors
»»»  Tester Name:	PMF21124-494 (100V)
»»»  Tester S/N:	PMF21124-494
»»»  Internal Amp Type:	100V RevK 270k
»»»  Internal Amp S/N:	iAB2-596/K     
»»»  Execution Count:	1
»»»»»»»»»»»»»»»»»»»»»»»»»»»»»»»»»»»»»»»»»»««««««««««««««««««««««««««««««««««««««««««

Stored:	6/17/2025 - 18:3:16
Configured:	06/17/25 10:39:14 AM
Executed:	06/17/25 06:02:44 PM

»»»»»»»»»»»»»»»»»»»»»»»»»»»»»»»»»»» Sample Info ««««««««««««««««««««««««««««««««««««
Sample Name:	
Lot Name:	
Wafer Name:	
Die Row/Column:	0/0
Capacitor Number:	0
Sample Area (cm2):	1.00e-04
Sample Thickness (microns):	3.00e-01

Amplifier:	Internal

»»»»»»»»»»»»»»»»»»»»»»»»»»»»»»»»»»» Tester Info «««««««««««««««««««««««««««««««««««
Tester Name:	PMF21124-494 (100V)
Tester Serial Number:	PMF21124-494
Return Signal Amp. Level:	0.19 [Index: 3]

»»»»»»»»»»»»»»»»»»»»»»»»»»»»»»»» Hysteresis Info ««««««««««««««««««««««««««««««««««
Task Name:	Hyst-180
Volts:	20.00
Field:	666.67 (kV/cm)
DCBias:	0.00
DCField:	0.00 (kV/cm)
Hysteresis Period (ms):	2.00e+02
Preset:	Enabled
Preset Delay (ms):	1.00e+03
Profile:	Standard Bipolar

»»»»»»»»»»»»»»»»»»»»»»»»»»»»»»»»»»»»»» Data «««««««««««««««««««««««««««««««««««««««
Points:	2009

Valid Data

Point	Time (ms)	Drive Voltage	Measured Polarization (uC/cm2)	Capacitance (uF)	Normalized Capacitance (uF/cm2)	Dielectric Constant	Instantaneous Current (mA)
   1	0.0000e+00	-0.0016	-16.495737	0.000537	5.371471	1.819904	0.000215
   2	9.9500e-02	0.0353	-16.281768	0.000537	5.371471	1.819904	0.000215
   3	1.9900e-01	0.0706	-16.104134	0.000446	4.459335	1.510864	0.000179
   4	2.9850e-01	0.1155	-15.942649	0.000405	4.053941	1.373512	0.000162
   5	3.9800e-01	0.1620	-15.752904	0.000476	4.763380	1.613877	0.000191
   6	4.9750e-01	0.1989	-15.522787	0.000578	5.776865	1.957255	0.000231
   7	5.9700e-01	0.2294	-15.341116	0.000456	4.560683	1.545201	0.000183
   8	6.9650e-01	0.2759	-15.151370	0.000476	4.763380	1.613877	0.000191
   9	7.9600e-01	0.3144	-14.965662	0.000466	4.662032	1.579539	0.000187
  10	8.9550e-01	0.3465	-14.731508	0.000588	5.878214	1.991593	0.000235
  11	9.9500e-01	0.3930	-14.533689	0.000497	4.966077	1.682553	0.000199
  12	1.0945e+00	0.4299	-14.307609	0.000568	5.675517	1.922917	0.000227
  13	1.1940e+00	0.4797	-14.121901	0.000466	4.662032	1.579539	0.000187
  14	1.2935e+00	0.5085	-13.899858	0.000557	5.574168	1.888579	0.000223
  15	1.3930e+00	0.5519	-13.722224	0.000446	4.459335	1.510864	0.000179
  16	1.4925e+00	0.5871	-13.560739	0.000405	4.053941	1.373512	0.000162
  17	1.5920e+00	0.6321	-13.294288	0.000669	6.689002	2.266295	0.000268
  18	1.6915e+00	0.6802	-13.128765	0.000416	4.155289	1.407850	0.000166
  19	1.7910e+00	0.6994	-12.906723	0.000557	5.574168	1.888579	0.000223
  20	1.8905e+00	0.7540	-12.700829	0.000517	5.168774	1.751228	0.000207
  21	1.9900e+00	0.7909	-12.519158	0.000456	4.560683	1.545201	0.000183
  22	2.0895e+00	0.8358	-12.317301	0.000507	5.067426	1.716890	0.000203
  23	2.1890e+00	0.8711	-12.087184	0.000578	5.776865	1.957255	0.000231
  24	2.2885e+00	0.9128	-11.925699	0.000405	4.053941	1.373512	0.000162
  25	2.3880e+00	0.9481	-11.739991	0.000466	4.662032	1.579539	0.000187
  26	2.4875e+00	0.9962	-11.530060	0.000527	5.270123	1.785566	0.000211
  27	2.5870e+00	1.0283	-11.320129	0.000527	5.270123	1.785566	0.000211
  28	2.6865e+00	1.0700	-11.126346	0.000486	4.864729	1.648215	0.000195
  29	2.7860e+00	1.1117	-10.884118	0.000608	6.080911	2.060268	0.000243
  30	2.8855e+00	1.1502	-10.694373	0.000476	4.763380	1.613877	0.000191
  31	2.9850e+00	1.1952	-10.488479	0.000517	5.168774	1.751228	0.000207
  32	3.0845e+00	1.2385	-10.318919	0.000426	4.256638	1.442188	0.000170
  33	3.1840e+00	1.2706	-10.084765	0.000588	5.878214	1.991593	0.000235
  34	3.2835e+00	1.3171	-9.858685	0.000568	5.675517	1.922917	0.000227
  35	3.3830e+00	1.3556	-9.713349	0.000365	3.648547	1.236161	0.000146
  36	3.4825e+00	1.3877	-9.491306	0.000557	5.574168	1.888579	0.000223
  37	3.5820e+00	1.4294	-9.265227	0.000568	5.675517	1.922917	0.000227
  38	3.6815e+00	1.4679	-9.063370	0.000507	5.067426	1.716890	0.000203
  39	3.7810e+00	1.5208	-8.885736	0.000446	4.459335	1.510864	0.000179
  40	3.8805e+00	1.5529	-8.655619	0.000578	5.776865	1.957255	0.000231
  41	3.9800e+00	1.5802	-8.461837	0.000486	4.864729	1.648215	0.000195
  42	4.0795e+00	1.6347	-8.251905	0.000527	5.270123	1.785566	0.000211
  43	4.1790e+00	1.6652	-8.058123	0.000486	4.864729	1.648215	0.000195
  44	4.2785e+00	1.7085	-7.844155	0.000537	5.371471	1.819904	0.000215
  45	4.3780e+00	1.7502	-7.610001	0.000588	5.878214	1.991593	0.000235
  46	4.4775e+00	1.7823	-7.420255	0.000476	4.763380	1.613877	0.000191
  47	4.5770e+00	1.8272	-7.250696	0.000426	4.256638	1.442188	0.000170
  48	4.6765e+00	1.8641	-7.028653	0.000557	5.574168	1.888579	0.000223
  49	4.7760e+00	1.9187	-6.782388	0.000618	6.182260	2.094606	0.000248
  50	4.8755e+00	1.9459	-6.612828	0.000426	4.256638	1.442188	0.000170
  51	4.9750e+00	1.9909	-6.423083	0.000476	4.763380	1.613877	0.000191
  52	5.0745e+00	2.0213	-6.237375	0.000466	4.662032	1.579539	0.000187
  53	5.1740e+00	2.0679	-6.007258	0.000578	5.776865	1.957255	0.000231
  54	5.2735e+00	2.0983	-5.781178	0.000568	5.675517	1.922917	0.000227
  55	5.3730e+00	2.1449	-5.607582	0.000436	4.357986	1.476526	0.000174
  56	5.4725e+00	2.1866	-5.377465	0.000578	5.776865	1.957255	0.000231
  57	5.5720e+00	2.2219	-5.159459	0.000547	5.472820	1.854242	0.000219
  58	5.6715e+00	2.2636	-4.953566	0.000517	5.168774	1.751228	0.000207
  59	5.7710e+00	2.3085	-4.779969	0.000436	4.357986	1.476526	0.000174
  60	5.8705e+00	2.3502	-4.529666	0.000628	6.283608	2.128944	0.000252
  61	5.9700e+00	2.3807	-4.339921	0.000476	4.763380	1.613877	0.000191
  62	6.0695e+00	2.4320	-4.121916	0.000547	5.472820	1.854242	0.000219
  63	6.1690e+00	2.4641	-3.928133	0.000486	4.864729	1.648215	0.000195
  64	6.2685e+00	2.5090	-3.726276	0.000507	5.067426	1.716890	0.000203
  65	6.3680e+00	2.5459	-3.500197	0.000568	5.675517	1.922917	0.000227
  66	6.4675e+00	2.5892	-3.286228	0.000537	5.371471	1.819904	0.000215
  67	6.5670e+00	2.6229	-3.052075	0.000588	5.878214	1.991593	0.000235
  68	6.6665e+00	2.6694	-2.898663	0.000385	3.851244	1.304837	0.000154
  69	6.7660e+00	2.6967	-2.648361	0.000628	6.283608	2.128944	0.000252
  70	6.8655e+00	2.7432	-2.474764	0.000436	4.357986	1.476526	0.000174
  71	6.9650e+00	2.7833	-2.220425	0.000638	6.384957	2.163282	0.000256
  72	7.0645e+00	2.8283	-2.071051	0.000375	3.749895	1.270499	0.000150
  73	7.1640e+00	2.8587	-1.865157	0.000517	5.168774	1.751228	0.000207
  74	7.2635e+00	2.9053	-1.639077	0.000568	5.675517	1.922917	0.000227
  75	7.3630e+00	2.9534	-1.437220	0.000507	5.067426	1.716890	0.000203
  76	7.4625e+00	2.9855	-1.182881	0.000638	6.384957	2.163282	0.000256
  77	7.5620e+00	3.0192	-1.045618	0.000345	3.445850	1.167485	0.000138
  78	7.6615e+00	3.0609	-0.823576	0.000557	5.574168	1.888579	0.000223
  79	7.7610e+00	3.0946	-0.593459	0.000578	5.776865	1.957255	0.000231
  80	7.8605e+00	3.1299	-0.367379	0.000568	5.675517	1.922917	0.000227
  81	7.9600e+00	3.1812	-0.209931	0.000395	3.952592	1.339174	0.000158
  82	8.0595e+00	3.2309	0.024223	0.000588	5.878214	1.991593	0.000235
  83	8.1590e+00	3.2630	0.270488	0.000618	6.182260	2.094606	0.000248
  84	8.2585e+00	3.3111	0.411788	0.000355	3.547198	1.201823	0.000142
  85	8.3580e+00	3.3432	0.658053	0.000618	6.182260	2.094606	0.000248
  86	8.4575e+00	3.3673	0.831650	0.000436	4.357986	1.476526	0.000174
  87	8.5570e+00	3.4250	1.057730	0.000568	5.675517	1.922917	0.000227
  88	8.6565e+00	3.4587	1.275735	0.000547	5.472820	1.854242	0.000219
  89	8.7560e+00	3.5036	1.509889	0.000588	5.878214	1.991593	0.000235
  90	8.8555e+00	3.5438	1.663300	0.000385	3.851244	1.304837	0.000154
  91	8.9550e+00	3.5790	1.897454	0.000588	5.878214	1.991593	0.000235
  92	9.0545e+00	3.6256	2.071051	0.000436	4.357986	1.476526	0.000174
  93	9.1540e+00	3.6625	2.337502	0.000669	6.689002	2.266295	0.000268
  94	9.2535e+00	3.7010	2.551470	0.000537	5.371471	1.819904	0.000215
  95	9.3530e+00	3.7347	2.749289	0.000497	4.966077	1.682553	0.000199
  96	9.4525e+00	3.7796	2.951146	0.000507	5.067426	1.716890	0.000203
  97	9.5520e+00	3.8213	3.217597	0.000669	6.689002	2.266295	0.000268
  98	9.6515e+00	3.8694	3.354860	0.000345	3.445850	1.167485	0.000138
  99	9.7510e+00	3.8951	3.576902	0.000557	5.574168	1.888579	0.000223
 100	9.8505e+00	3.9400	3.770685	0.000486	4.864729	1.648215	0.000195
 101	9.9500e+00	3.9785	4.016950	0.000618	6.182260	2.094606	0.000248
 102	1.0050e+01	4.0218	4.218807	0.000507	5.067426	1.716890	0.000203
 103	1.0149e+01	4.0603	4.432775	0.000537	5.371471	1.819904	0.000215
 104	1.0248e+01	4.0988	4.622520	0.000476	4.763380	1.613877	0.000191
 105	1.0348e+01	4.1421	4.864749	0.000608	6.080911	2.060268	0.000243
 106	1.0447e+01	4.1822	5.022197	0.000395	3.952592	1.339174	0.000158
 107	1.0547e+01	4.2159	5.276536	0.000638	6.384957	2.163282	0.000256
 108	1.0646e+01	4.2480	5.498579	0.000557	5.574168	1.888579	0.000223
 109	1.0746e+01	4.2977	5.704473	0.000517	5.168774	1.751228	0.000207
 110	1.0845e+01	4.3378	5.894218	0.000476	4.763380	1.613877	0.000191
 111	1.0945e+01	4.3828	6.156632	0.000659	6.587654	2.231957	0.000264
 112	1.1044e+01	4.4277	6.350415	0.000486	4.864729	1.648215	0.000195
 113	1.1144e+01	4.4678	6.536123	0.000466	4.662032	1.579539	0.000187
 114	1.1243e+01	4.5015	6.774314	0.000598	5.979562	2.025931	0.000239
 115	1.1343e+01	4.5464	6.972133	0.000497	4.966077	1.682553	0.000199
 116	1.1443e+01	4.5769	7.202250	0.000578	5.776865	1.957255	0.000231
 117	1.1542e+01	4.6218	7.420255	0.000547	5.472820	1.854242	0.000219
 118	1.1642e+01	4.6635	7.622112	0.000507	5.067426	1.716890	0.000203
 119	1.1741e+01	4.7020	7.860303	0.000598	5.979562	2.025931	0.000239
 120	1.1841e+01	4.7485	8.074271	0.000537	5.371471	1.819904	0.000215
 121	1.1940e+01	4.7742	8.276128	0.000507	5.067426	1.716890	0.000203
 122	1.2040e+01	4.8175	8.490096	0.000537	5.371471	1.819904	0.000215
 123	1.2139e+01	4.8608	8.724250	0.000588	5.878214	1.991593	0.000235
 124	1.2239e+01	4.9009	8.954367	0.000578	5.776865	1.957255	0.000231
 125	1.2338e+01	4.9426	9.152187	0.000497	4.966077	1.682553	0.000199
 126	1.2438e+01	4.9844	9.370192	0.000547	5.472820	1.854242	0.000219
 127	1.2537e+01	5.0245	9.568012	0.000497	4.966077	1.682553	0.000199
 128	1.2636e+01	5.0517	9.765831	0.000497	4.966077	1.682553	0.000199
 129	1.2736e+01	5.1031	9.999985	0.000588	5.878214	1.991593	0.000235
 130	1.2835e+01	5.1416	10.217991	0.000547	5.472820	1.854242	0.000219
 131	1.2935e+01	5.1737	10.423884	0.000517	5.168774	1.751228	0.000207
 132	1.3034e+01	5.2154	10.670150	0.000618	6.182260	2.094606	0.000248
 133	1.3134e+01	5.2635	10.896229	0.000568	5.675517	1.922917	0.000227
 134	1.3233e+01	5.2859	11.118272	0.000557	5.574168	1.888579	0.000223
 135	1.3333e+01	5.3341	11.275720	0.000395	3.952592	1.339174	0.000158
 136	1.3432e+01	5.3806	11.550245	0.000689	6.891699	2.334971	0.000276
 137	1.3532e+01	5.4143	11.723842	0.000436	4.357986	1.476526	0.000174
 138	1.3632e+01	5.4528	11.929736	0.000517	5.168774	1.751228	0.000207
 139	1.3731e+01	5.4929	12.155816	0.000568	5.675517	1.922917	0.000227
 140	1.3831e+01	5.5378	12.377858	0.000557	5.574168	1.888579	0.000223
 141	1.3930e+01	5.5747	12.591826	0.000537	5.371471	1.819904	0.000215
 142	1.4030e+01	5.6116	12.805795	0.000537	5.371471	1.819904	0.000215
 143	1.4129e+01	5.6549	13.015726	0.000527	5.270123	1.785566	0.000211
 144	1.4229e+01	5.6822	13.189322	0.000436	4.357986	1.476526	0.000174
 145	1.4328e+01	5.7351	13.439625	0.000628	6.283608	2.128944	0.000252
 146	1.4428e+01	5.7720	13.685890	0.000618	6.182260	2.094606	0.000248
 147	1.4527e+01	5.8057	13.875636	0.000476	4.763380	1.613877	0.000191
 148	1.4627e+01	5.8522	14.101715	0.000568	5.675517	1.922917	0.000227
 149	1.4726e+01	5.8988	14.311646	0.000527	5.270123	1.785566	0.000211
 150	1.4825e+01	5.9421	14.537726	0.000568	5.675517	1.922917	0.000227
 151	1.4925e+01	5.9710	14.751694	0.000537	5.371471	1.819904	0.000215
 152	1.5024e+01	6.0095	14.965662	0.000537	5.371471	1.819904	0.000215
 153	1.5124e+01	6.0496	15.167519	0.000507	5.067426	1.716890	0.000203
 154	1.5223e+01	6.0913	15.409747	0.000608	6.080911	2.060268	0.000243
 155	1.5323e+01	6.1410	15.631790	0.000557	5.574168	1.888579	0.000223
 156	1.5422e+01	6.1795	15.853832	0.000557	5.574168	1.888579	0.000223
 157	1.5522e+01	6.2164	16.067800	0.000537	5.371471	1.819904	0.000215
 158	1.5621e+01	6.2517	16.285806	0.000547	5.472820	1.854242	0.000219
 159	1.5721e+01	6.2934	16.483625	0.000497	4.966077	1.682553	0.000199
 160	1.5820e+01	6.3303	16.713742	0.000578	5.776865	1.957255	0.000231
 161	1.5920e+01	6.3656	16.931747	0.000547	5.472820	1.854242	0.000219
 162	1.6020e+01	6.4169	17.173975	0.000608	6.080911	2.060268	0.000243
 163	1.6119e+01	6.4570	17.339498	0.000416	4.155289	1.407850	0.000166
 164	1.6218e+01	6.4939	17.529243	0.000476	4.763380	1.613877	0.000191
 165	1.6318e+01	6.5276	17.775509	0.000618	6.182260	2.094606	0.000248
 166	1.6418e+01	6.5709	17.981403	0.000517	5.168774	1.751228	0.000207
 167	1.6517e+01	6.6094	18.211519	0.000578	5.776865	1.957255	0.000231
 168	1.6616e+01	6.6576	18.437599	0.000568	5.675517	1.922917	0.000227
 169	1.6716e+01	6.6864	18.623307	0.000466	4.662032	1.579539	0.000187
 170	1.6816e+01	6.7282	18.877647	0.000638	6.384957	2.163282	0.000256
 171	1.6915e+01	6.7763	19.055281	0.000446	4.459335	1.510864	0.000179
 172	1.7015e+01	6.8148	19.293472	0.000598	5.979562	2.025931	0.000239
 173	1.7114e+01	6.8501	19.519551	0.000568	5.675517	1.922917	0.000227
 174	1.7213e+01	6.8902	19.765817	0.000618	6.182260	2.094606	0.000248
 175	1.7313e+01	6.9303	19.935376	0.000426	4.256638	1.442188	0.000170
 176	1.7413e+01	6.9688	20.157419	0.000557	5.574168	1.888579	0.000223
 177	1.7512e+01	7.0073	20.391573	0.000588	5.878214	1.991593	0.000235
 178	1.7611e+01	7.0490	20.609578	0.000547	5.472820	1.854242	0.000219
 179	1.7711e+01	7.0891	20.799323	0.000476	4.763380	1.613877	0.000191
 180	1.7811e+01	7.1244	20.989069	0.000476	4.763380	1.613877	0.000191
 181	1.7910e+01	7.1597	21.223223	0.000588	5.878214	1.991593	0.000235
 182	1.8009e+01	7.2110	21.453339	0.000578	5.776865	1.957255	0.000231
 183	1.8109e+01	7.2463	21.667308	0.000537	5.371471	1.819904	0.000215
 184	1.8209e+01	7.2816	21.865127	0.000497	4.966077	1.682553	0.000199
 185	1.8308e+01	7.3233	22.123504	0.000649	6.486305	2.197620	0.000260
 186	1.8407e+01	7.3650	22.301138	0.000446	4.459335	1.510864	0.000179
 187	1.8507e+01	7.4051	22.519143	0.000547	5.472820	1.854242	0.000219
 188	1.8607e+01	7.4549	22.745223	0.000568	5.675517	1.922917	0.000227
 189	1.8706e+01	7.4789	22.939005	0.000486	4.864729	1.648215	0.000195
 190	1.8805e+01	7.5239	23.165085	0.000568	5.675517	1.922917	0.000227
 191	1.8905e+01	7.5688	23.387127	0.000557	5.574168	1.888579	0.000223
 192	1.9005e+01	7.6041	23.572836	0.000466	4.662032	1.579539	0.000187
 193	1.9104e+01	7.6426	23.819101	0.000618	6.182260	2.094606	0.000248
 194	1.9203e+01	7.6827	24.024995	0.000517	5.168774	1.751228	0.000207
 195	1.9303e+01	7.7228	24.238963	0.000537	5.371471	1.819904	0.000215
 196	1.9402e+01	7.7645	24.448894	0.000527	5.270123	1.785566	0.000211
 197	1.9502e+01	7.8094	24.654788	0.000517	5.168774	1.751228	0.000207
 198	1.9602e+01	7.8399	24.872793	0.000547	5.472820	1.854242	0.000219
 199	1.9701e+01	7.8880	25.090799	0.000547	5.472820	1.854242	0.000219
 200	1.9800e+01	7.9281	25.280544	0.000476	4.763380	1.613877	0.000191
 201	1.9900e+01	7.9730	25.502586	0.000557	5.574168	1.888579	0.000223
 202	2.0000e+01	8.0019	25.724629	0.000557	5.574168	1.888579	0.000223
 203	2.0099e+01	8.0420	25.930523	0.000517	5.168774	1.751228	0.000207
 204	2.0198e+01	8.0885	26.140454	0.000527	5.270123	1.785566	0.000211
 205	2.0298e+01	8.1206	26.305976	0.000416	4.155289	1.407850	0.000166
 206	2.0398e+01	8.1607	26.544167	0.000598	5.979562	2.025931	0.000239
 207	2.0497e+01	8.2024	26.766210	0.000557	5.574168	1.888579	0.000223
 208	2.0596e+01	8.2425	26.931733	0.000416	4.155289	1.407850	0.000166
 209	2.0696e+01	8.2907	27.202221	0.000679	6.790351	2.300633	0.000272
 210	2.0796e+01	8.3228	27.396003	0.000486	4.864729	1.648215	0.000195
 211	2.0895e+01	8.3581	27.577674	0.000456	4.560683	1.545201	0.000183
 212	2.0994e+01	8.3998	27.811828	0.000588	5.878214	1.991593	0.000235
 213	2.1094e+01	8.4463	27.981388	0.000426	4.256638	1.442188	0.000170
 214	2.1194e+01	8.4800	28.219579	0.000598	5.979562	2.025931	0.000239
 215	2.1293e+01	8.5201	28.429510	0.000527	5.270123	1.785566	0.000211
 216	2.1392e+01	8.5650	28.647515	0.000547	5.472820	1.854242	0.000219
 217	2.1492e+01	8.5971	28.837261	0.000476	4.763380	1.613877	0.000191
 218	2.1591e+01	8.6356	29.059303	0.000557	5.574168	1.888579	0.000223
 219	2.1691e+01	8.6837	29.285383	0.000568	5.675517	1.922917	0.000227
 220	2.1791e+01	8.7190	29.507425	0.000557	5.574168	1.888579	0.000223
 221	2.1890e+01	8.7559	29.701208	0.000486	4.864729	1.648215	0.000195
 222	2.1989e+01	8.7928	29.899027	0.000497	4.966077	1.682553	0.000199
 223	2.2089e+01	8.8329	30.108958	0.000527	5.270123	1.785566	0.000211
 224	2.2189e+01	8.8810	30.331001	0.000557	5.574168	1.888579	0.000223
 225	2.2288e+01	8.9260	30.520746	0.000476	4.763380	1.613877	0.000191
 226	2.2387e+01	8.9612	30.742789	0.000557	5.574168	1.888579	0.000223
 227	2.2487e+01	9.0014	30.952720	0.000527	5.270123	1.785566	0.000211
 228	2.2587e+01	9.0463	31.138428	0.000466	4.662032	1.579539	0.000187
 229	2.2686e+01	9.0751	31.352396	0.000537	5.371471	1.819904	0.000215
 230	2.2785e+01	9.1201	31.538104	0.000466	4.662032	1.579539	0.000187
 231	2.2885e+01	9.1586	31.792444	0.000638	6.384957	2.163282	0.000256
 232	2.2985e+01	9.2051	31.978152	0.000466	4.662032	1.579539	0.000187
 233	2.3084e+01	9.2420	32.200195	0.000557	5.574168	1.888579	0.000223
 234	2.3183e+01	9.2853	32.393977	0.000486	4.864729	1.648215	0.000195
 235	2.3283e+01	9.3142	32.583723	0.000476	4.763380	1.613877	0.000191
 236	2.3383e+01	9.3543	32.813839	0.000578	5.776865	1.957255	0.000231
 237	2.3482e+01	9.4024	32.999548	0.000466	4.662032	1.579539	0.000187
 238	2.3581e+01	9.4489	33.209479	0.000527	5.270123	1.785566	0.000211
 239	2.3681e+01	9.4810	33.427484	0.000547	5.472820	1.854242	0.000219
 240	2.3780e+01	9.5211	33.601081	0.000436	4.357986	1.476526	0.000174
 241	2.3880e+01	9.5596	33.847346	0.000618	6.182260	2.094606	0.000248
 242	2.3980e+01	9.5965	34.057277	0.000527	5.270123	1.785566	0.000211
 243	2.4079e+01	9.6382	34.230874	0.000436	4.357986	1.476526	0.000174
 244	2.4178e+01	9.6831	34.452916	0.000557	5.574168	1.888579	0.000223
 245	2.4278e+01	9.7136	34.662847	0.000527	5.270123	1.785566	0.000211
 246	2.4378e+01	9.7618	34.864704	0.000507	5.067426	1.716890	0.000203
 247	2.4477e+01	9.7890	35.054450	0.000476	4.763380	1.613877	0.000191
 248	2.4576e+01	9.8307	35.240158	0.000466	4.662032	1.579539	0.000187
 249	2.4676e+01	9.8837	35.502572	0.000659	6.587654	2.231957	0.000264
 250	2.4776e+01	9.9126	35.696354	0.000486	4.864729	1.648215	0.000195
 251	2.4875e+01	9.9591	35.873988	0.000446	4.459335	1.510864	0.000179
 252	2.4974e+01	9.9992	36.079882	0.000517	5.168774	1.751228	0.000207
 253	2.5074e+01	10.0409	36.241368	0.000405	4.053941	1.373512	0.000162
 254	2.5174e+01	10.0666	36.463410	0.000557	5.574168	1.888579	0.000223
 255	2.5273e+01	10.1179	36.677378	0.000537	5.371471	1.819904	0.000215
 256	2.5372e+01	10.1612	36.895384	0.000547	5.472820	1.854242	0.000219
 257	2.5472e+01	10.2029	37.097240	0.000507	5.067426	1.716890	0.000203
 258	2.5572e+01	10.2334	37.315246	0.000547	5.472820	1.854242	0.000219
 259	2.5671e+01	10.2783	37.500954	0.000466	4.662032	1.579539	0.000187
 260	2.5770e+01	10.3136	37.739145	0.000598	5.979562	2.025931	0.000239
 261	2.5870e+01	10.3537	37.945039	0.000517	5.168774	1.751228	0.000207
 262	2.5970e+01	10.4002	38.114599	0.000426	4.256638	1.442188	0.000170
 263	2.6069e+01	10.4275	38.324530	0.000527	5.270123	1.785566	0.000211
 264	2.6169e+01	10.4740	38.530423	0.000517	5.168774	1.751228	0.000207
 265	2.6268e+01	10.5141	38.752466	0.000557	5.574168	1.888579	0.000223
 266	2.6367e+01	10.5526	38.950286	0.000497	4.966077	1.682553	0.000199
 267	2.6467e+01	10.5863	39.164254	0.000537	5.371471	1.819904	0.000215
 268	2.6567e+01	10.6313	39.362073	0.000497	4.966077	1.682553	0.000199
 269	2.6666e+01	10.6681	39.572005	0.000527	5.270123	1.785566	0.000211
 270	2.6765e+01	10.7179	39.757713	0.000466	4.662032	1.579539	0.000187
 271	2.6865e+01	10.7484	39.935347	0.000446	4.459335	1.510864	0.000179
 272	2.6965e+01	10.7933	40.185649	0.000628	6.283608	2.128944	0.000252
 273	2.7064e+01	10.8206	40.355209	0.000426	4.256638	1.442188	0.000170
 274	2.7163e+01	10.8783	40.597437	0.000608	6.080911	2.060268	0.000243
 275	2.7263e+01	10.9104	40.754885	0.000395	3.952592	1.339174	0.000158
 276	2.7363e+01	10.9521	41.017299	0.000659	6.587654	2.231957	0.000264
 277	2.7462e+01	10.9938	41.198970	0.000456	4.560683	1.545201	0.000183
 278	2.7561e+01	11.0339	41.416976	0.000547	5.472820	1.854242	0.000219
 279	2.7661e+01	11.0692	41.598647	0.000456	4.560683	1.545201	0.000183
 280	2.7761e+01	11.1109	41.812615	0.000537	5.371471	1.819904	0.000215
 281	2.7860e+01	11.1430	42.034657	0.000557	5.574168	1.888579	0.000223
 282	2.7959e+01	11.1943	42.208254	0.000436	4.357986	1.476526	0.000174
 283	2.8059e+01	11.2377	42.442408	0.000588	5.878214	1.991593	0.000235
 284	2.8159e+01	11.2681	42.656376	0.000537	5.371471	1.819904	0.000215
 285	2.8258e+01	11.3082	42.838047	0.000456	4.560683	1.545201	0.000183
 286	2.8358e+01	11.3564	43.112573	0.000689	6.891699	2.334971	0.000276
 287	2.8457e+01	11.3965	43.257909	0.000365	3.648547	1.236161	0.000146
 288	2.8556e+01	11.4270	43.455729	0.000497	4.966077	1.682553	0.000199
 289	2.8656e+01	11.4767	43.677772	0.000557	5.574168	1.888579	0.000223
 290	2.8756e+01	11.5104	43.867517	0.000476	4.763380	1.613877	0.000191
 291	2.8855e+01	11.5505	44.113782	0.000618	6.182260	2.094606	0.000248
 292	2.8954e+01	11.5890	44.275268	0.000405	4.053941	1.373512	0.000162
 293	2.9054e+01	11.6435	44.485199	0.000527	5.270123	1.785566	0.000211
 294	2.9154e+01	11.6740	44.683018	0.000497	4.966077	1.682553	0.000199
 295	2.9253e+01	11.7157	44.884875	0.000507	5.067426	1.716890	0.000203
 296	2.9352e+01	11.7526	45.123066	0.000598	5.979562	2.025931	0.000239
 297	2.9452e+01	11.7895	45.341071	0.000547	5.472820	1.854242	0.000219
 298	2.9552e+01	11.8328	45.542928	0.000507	5.067426	1.716890	0.000203
 299	2.9651e+01	11.8697	45.785156	0.000608	6.080911	2.060268	0.000243
 300	2.9750e+01	11.9034	45.970865	0.000466	4.662032	1.579539	0.000187
 301	2.9850e+01	11.9499	46.172721	0.000507	5.067426	1.716890	0.000203
 302	2.9950e+01	11.9804	46.362467	0.000476	4.763380	1.613877	0.000191
 303	3.0049e+01	12.0382	46.588546	0.000568	5.675517	1.922917	0.000227
 304	3.0148e+01	12.0670	46.802515	0.000537	5.371471	1.819904	0.000215
 305	3.0248e+01	12.1039	46.992260	0.000476	4.763380	1.613877	0.000191
 306	3.0348e+01	12.1553	47.198154	0.000517	5.168774	1.751228	0.000207
 307	3.0447e+01	12.1745	47.400011	0.000507	5.067426	1.716890	0.000203
 308	3.0547e+01	12.2162	47.654350	0.000638	6.384957	2.163282	0.000256
 309	3.0646e+01	12.2708	47.856207	0.000507	5.067426	1.716890	0.000203
 310	3.0745e+01	12.3093	48.041915	0.000466	4.662032	1.579539	0.000187
 311	3.0845e+01	12.3478	48.239735	0.000497	4.966077	1.682553	0.000199
 312	3.0945e+01	12.3879	48.510223	0.000679	6.790351	2.300633	0.000272
 313	3.1044e+01	12.4376	48.699968	0.000476	4.763380	1.613877	0.000191
 314	3.1143e+01	12.4633	48.901825	0.000507	5.067426	1.716890	0.000203
 315	3.1243e+01	12.5002	49.099645	0.000497	4.966077	1.682553	0.000199
 316	3.1343e+01	12.5435	49.329762	0.000578	5.776865	1.957255	0.000231
 317	3.1442e+01	12.5932	49.515470	0.000466	4.662032	1.579539	0.000187
 318	3.1541e+01	12.6221	49.713289	0.000497	4.966077	1.682553	0.000199
 319	3.1641e+01	12.6670	49.947443	0.000588	5.878214	1.991593	0.000235
 320	3.1741e+01	12.7055	50.133152	0.000466	4.662032	1.579539	0.000187
 321	3.1840e+01	12.7504	50.371343	0.000598	5.979562	2.025931	0.000239
 322	3.1939e+01	12.7825	50.581274	0.000527	5.270123	1.785566	0.000211
 323	3.2039e+01	12.8290	50.815428	0.000588	5.878214	1.991593	0.000235
 324	3.2139e+01	12.8724	50.997099	0.000456	4.560683	1.545201	0.000183
 325	3.2238e+01	12.8932	51.211067	0.000537	5.371471	1.819904	0.000215
 326	3.2337e+01	12.9494	51.449258	0.000598	5.979562	2.025931	0.000239
 327	3.2437e+01	12.9798	51.598632	0.000375	3.749895	1.270499	0.000150
 328	3.2536e+01	13.0280	51.836823	0.000598	5.979562	2.025931	0.000239
 329	3.2636e+01	13.0585	52.022531	0.000466	4.662032	1.579539	0.000187
 330	3.2736e+01	13.0970	52.220351	0.000497	4.966077	1.682553	0.000199
 331	3.2835e+01	13.1435	52.462579	0.000608	6.080911	2.060268	0.000243
 332	3.2934e+01	13.1772	52.700770	0.000598	5.979562	2.025931	0.000239
 333	3.3034e+01	13.2301	52.930887	0.000578	5.776865	1.957255	0.000231
 334	3.3133e+01	13.2622	53.084298	0.000385	3.851244	1.304837	0.000154
 335	3.3233e+01	13.3039	53.330563	0.000618	6.182260	2.094606	0.000248
 336	3.3333e+01	13.3408	53.544531	0.000537	5.371471	1.819904	0.000215
 337	3.3432e+01	13.3841	53.734277	0.000476	4.763380	1.613877	0.000191
 338	3.3532e+01	13.4258	53.944208	0.000527	5.270123	1.785566	0.000211
 339	3.3631e+01	13.4579	54.166250	0.000557	5.574168	1.888579	0.000223
 340	3.3730e+01	13.5012	54.380218	0.000537	5.371471	1.819904	0.000215
 341	3.3830e+01	13.5429	54.634558	0.000638	6.384957	2.163282	0.000256
 342	3.3929e+01	13.5862	54.812192	0.000446	4.459335	1.510864	0.000179
 343	3.4029e+01	13.6119	55.062494	0.000628	6.283608	2.128944	0.000252
 344	3.4129e+01	13.6616	55.240128	0.000446	4.459335	1.510864	0.000179
 345	3.4228e+01	13.7066	55.478319	0.000598	5.979562	2.025931	0.000239
 346	3.4328e+01	13.7403	55.672102	0.000486	4.864729	1.648215	0.000195
 347	3.4427e+01	13.7820	55.890107	0.000547	5.472820	1.854242	0.000219
 348	3.4526e+01	13.8173	56.112150	0.000557	5.574168	1.888579	0.000223
 349	3.4626e+01	13.8558	56.309969	0.000497	4.966077	1.682553	0.000199
 350	3.4725e+01	13.8894	56.544123	0.000588	5.878214	1.991593	0.000235
 351	3.4825e+01	13.9456	56.750017	0.000517	5.168774	1.751228	0.000207
 352	3.4925e+01	13.9729	56.943800	0.000486	4.864729	1.648215	0.000195
 353	3.5024e+01	14.0226	57.177953	0.000588	5.878214	1.991593	0.000235
 354	3.5123e+01	14.0515	57.395959	0.000547	5.472820	1.854242	0.000219
 355	3.5223e+01	14.1012	57.589741	0.000486	4.864729	1.648215	0.000195
 356	3.5322e+01	14.1477	57.815821	0.000568	5.675517	1.922917	0.000227
 357	3.5422e+01	14.1814	58.049975	0.000588	5.878214	1.991593	0.000235
 358	3.5522e+01	14.2103	58.243757	0.000486	4.864729	1.648215	0.000195
 359	3.5621e+01	14.2552	58.429466	0.000466	4.662032	1.579539	0.000187
 360	3.5721e+01	14.3114	58.663619	0.000588	5.878214	1.991593	0.000235
 361	3.5820e+01	14.3306	58.909885	0.000618	6.182260	2.094606	0.000248
 362	3.5919e+01	14.3771	59.107704	0.000497	4.966077	1.682553	0.000199
 363	3.6019e+01	14.4140	59.349932	0.000608	6.080911	2.060268	0.000243
 364	3.6118e+01	14.4541	59.519492	0.000426	4.256638	1.442188	0.000170
 365	3.6218e+01	14.4942	59.773832	0.000638	6.384957	2.163282	0.000256
 366	3.6318e+01	14.5311	59.979726	0.000517	5.168774	1.751228	0.000207
 367	3.6417e+01	14.5729	60.193694	0.000537	5.371471	1.819904	0.000215
 368	3.6517e+01	14.6226	60.415736	0.000557	5.574168	1.888579	0.000223
 369	3.6616e+01	14.6515	60.617593	0.000507	5.067426	1.716890	0.000203
 370	3.6715e+01	14.6948	60.855784	0.000598	5.979562	2.025931	0.000239
 371	3.6815e+01	14.7349	61.061678	0.000517	5.168774	1.751228	0.000207
 372	3.6914e+01	14.7702	61.247386	0.000466	4.662032	1.579539	0.000187
 373	3.7014e+01	14.8199	61.505763	0.000649	6.486305	2.197620	0.000260
 374	3.7114e+01	14.8520	61.691471	0.000466	4.662032	1.579539	0.000187
 375	3.7213e+01	14.8969	61.897365	0.000517	5.168774	1.751228	0.000207
 376	3.7313e+01	14.9386	62.147668	0.000628	6.283608	2.128944	0.000252
 377	3.7412e+01	14.9723	62.369710	0.000557	5.574168	1.888579	0.000223
 378	3.7511e+01	15.0156	62.547344	0.000446	4.459335	1.510864	0.000179
 379	3.7611e+01	15.0525	62.757275	0.000527	5.270123	1.785566	0.000211
 380	3.7711e+01	15.0974	63.015652	0.000649	6.486305	2.197620	0.000260
 381	3.7810e+01	15.1327	63.245768	0.000578	5.776865	1.957255	0.000231
 382	3.7910e+01	15.1760	63.435514	0.000476	4.763380	1.613877	0.000191
 383	3.8009e+01	15.2194	63.633334	0.000497	4.966077	1.682553	0.000199
 384	3.8108e+01	15.2514	63.891710	0.000649	6.486305	2.197620	0.000260
 385	3.8208e+01	15.2948	64.117790	0.000568	5.675517	1.922917	0.000227
 386	3.8307e+01	15.3317	64.327721	0.000527	5.270123	1.785566	0.000211
 387	3.8407e+01	15.3750	64.565912	0.000598	5.979562	2.025931	0.000239
 388	3.8507e+01	15.4038	64.767769	0.000507	5.067426	1.716890	0.000203
 389	3.8606e+01	15.4520	64.985774	0.000547	5.472820	1.854242	0.000219
 390	3.8706e+01	15.4921	65.183594	0.000497	4.966077	1.682553	0.000199
 391	3.8805e+01	15.5338	65.450045	0.000669	6.689002	2.266295	0.000268
 392	3.8904e+01	15.5691	65.647864	0.000497	4.966077	1.682553	0.000199
 393	3.9004e+01	15.6140	65.849721	0.000507	5.067426	1.716890	0.000203
 394	3.9103e+01	15.6541	66.116172	0.000669	6.689002	2.266295	0.000268
 395	3.9203e+01	15.6958	66.318029	0.000507	5.067426	1.716890	0.000203
 396	3.9303e+01	15.7407	66.548146	0.000578	5.776865	1.957255	0.000231
 397	3.9402e+01	15.7696	66.766151	0.000547	5.472820	1.854242	0.000219
 398	3.9502e+01	15.8193	66.976082	0.000527	5.270123	1.785566	0.000211
 399	3.9601e+01	15.8482	67.190050	0.000537	5.371471	1.819904	0.000215
 400	3.9700e+01	15.8899	67.436315	0.000618	6.182260	2.094606	0.000248
 401	3.9800e+01	15.9332	67.654321	0.000547	5.472820	1.854242	0.000219
 402	3.9900e+01	15.9685	67.840029	0.000466	4.662032	1.579539	0.000187
 403	3.9999e+01	16.0086	68.078220	0.000598	5.979562	2.025931	0.000239
 404	4.0099e+01	16.0552	68.288151	0.000527	5.270123	1.785566	0.000211
 405	4.0198e+01	16.0969	68.546528	0.000649	6.486305	2.197620	0.000260
 406	4.0297e+01	16.1402	68.764533	0.000547	5.472820	1.854242	0.000219
 407	4.0397e+01	16.1771	68.994650	0.000578	5.776865	1.957255	0.000231
 408	4.0496e+01	16.2124	69.184395	0.000476	4.763380	1.613877	0.000191
 409	4.0596e+01	16.2541	69.406438	0.000557	5.574168	1.888579	0.000223
 410	4.0696e+01	16.2830	69.636554	0.000578	5.776865	1.957255	0.000231
 411	4.0795e+01	16.3279	69.862634	0.000568	5.675517	1.922917	0.000227
 412	4.0895e+01	16.3712	70.080639	0.000547	5.472820	1.854242	0.000219
 413	4.0994e+01	16.4017	70.318830	0.000598	5.979562	2.025931	0.000239
 414	4.1093e+01	16.4562	70.508576	0.000476	4.763380	1.613877	0.000191
 415	4.1193e+01	16.4851	70.762915	0.000638	6.384957	2.163282	0.000256
 416	4.1292e+01	16.5236	71.001106	0.000598	5.979562	2.025931	0.000239
 417	4.1392e+01	16.5733	71.207000	0.000517	5.168774	1.751228	0.000207
 418	4.1492e+01	16.6102	71.408857	0.000507	5.067426	1.716890	0.000203
 419	4.1591e+01	16.6439	71.655122	0.000618	6.182260	2.094606	0.000248
 420	4.1691e+01	16.6856	71.861016	0.000517	5.168774	1.751228	0.000207
 421	4.1790e+01	16.7241	72.111319	0.000628	6.283608	2.128944	0.000252
 422	4.1889e+01	16.7690	72.305101	0.000486	4.864729	1.648215	0.000195
 423	4.1989e+01	16.8124	72.547329	0.000608	6.080911	2.060268	0.000243
 424	4.2089e+01	16.8444	72.777446	0.000578	5.776865	1.957255	0.000231
 425	4.2188e+01	16.8797	72.991414	0.000537	5.371471	1.819904	0.000215
 426	4.2288e+01	16.9295	73.237679	0.000618	6.182260	2.094606	0.000248
 427	4.2387e+01	16.9696	73.447610	0.000527	5.270123	1.785566	0.000211
 428	4.2486e+01	17.0065	73.697913	0.000628	6.283608	2.128944	0.000252
 429	4.2586e+01	17.0450	73.903807	0.000517	5.168774	1.751228	0.000207
 430	4.2685e+01	17.0851	74.129886	0.000568	5.675517	1.922917	0.000227
 431	4.2785e+01	17.1332	74.380189	0.000628	6.283608	2.128944	0.000252
 432	4.2885e+01	17.1637	74.594157	0.000537	5.371471	1.819904	0.000215
 433	4.2984e+01	17.2022	74.852534	0.000649	6.486305	2.197620	0.000260
 434	4.3084e+01	17.2407	75.046316	0.000486	4.864729	1.648215	0.000195
 435	4.3183e+01	17.2888	75.264322	0.000547	5.472820	1.854242	0.000219
 436	4.3282e+01	17.3241	75.482327	0.000547	5.472820	1.854242	0.000219
 437	4.3382e+01	17.3674	75.744741	0.000659	6.587654	2.231957	0.000264
 438	4.3481e+01	17.3979	75.991006	0.000618	6.182260	2.094606	0.000248
 439	4.3581e+01	17.4460	76.217086	0.000568	5.675517	1.922917	0.000227
 440	4.3681e+01	17.4893	76.422980	0.000517	5.168774	1.751228	0.000207
 441	4.3780e+01	17.5230	76.669245	0.000618	6.182260	2.094606	0.000248
 442	4.3880e+01	17.5583	76.895324	0.000568	5.675517	1.922917	0.000227
 443	4.3979e+01	17.5952	77.125441	0.000578	5.776865	1.957255	0.000231
 444	4.4078e+01	17.6482	77.351521	0.000568	5.675517	1.922917	0.000227
 445	4.4178e+01	17.6770	77.557415	0.000517	5.168774	1.751228	0.000207
 446	4.4278e+01	17.7284	77.823866	0.000669	6.689002	2.266295	0.000268
 447	4.4377e+01	17.7669	78.082242	0.000649	6.486305	2.197620	0.000260
 448	4.4477e+01	17.7909	78.304285	0.000557	5.574168	1.888579	0.000223
 449	4.4576e+01	17.8439	78.506142	0.000507	5.067426	1.716890	0.000203
 450	4.4675e+01	17.8792	78.748370	0.000608	6.080911	2.060268	0.000243
 451	4.4775e+01	17.9241	78.994635	0.000618	6.182260	2.094606	0.000248
 452	4.4874e+01	17.9642	79.253012	0.000649	6.486305	2.197620	0.000260
 453	4.4974e+01	18.0059	79.466980	0.000537	5.371471	1.819904	0.000215
 454	4.5074e+01	18.0428	79.672874	0.000517	5.168774	1.751228	0.000207
 455	4.5173e+01	18.0813	79.935288	0.000659	6.587654	2.231957	0.000264
 456	4.5273e+01	18.1278	80.153293	0.000547	5.472820	1.854242	0.000219
 457	4.5372e+01	18.1679	80.395521	0.000608	6.080911	2.060268	0.000243
 458	4.5471e+01	18.2032	80.661972	0.000669	6.689002	2.266295	0.000268
 459	4.5571e+01	18.2433	80.888052	0.000568	5.675517	1.922917	0.000227
 460	4.5670e+01	18.2834	81.122206	0.000588	5.878214	1.991593	0.000235
 461	4.5770e+01	18.3300	81.376545	0.000638	6.384957	2.163282	0.000256
 462	4.5870e+01	18.3572	81.590513	0.000537	5.371471	1.819904	0.000215
 463	4.5969e+01	18.4086	81.844853	0.000638	6.384957	2.163282	0.000256
 464	4.6069e+01	18.4503	82.103230	0.000649	6.486305	2.197620	0.000260
 465	4.6168e+01	18.4727	82.292975	0.000476	4.763380	1.613877	0.000191
 466	4.6267e+01	18.5241	82.583649	0.000730	7.297093	2.472322	0.000292
 467	4.6367e+01	18.5642	82.789543	0.000517	5.168774	1.751228	0.000207
 468	4.6467e+01	18.6075	83.015622	0.000568	5.675517	1.922917	0.000227
 469	4.6566e+01	18.6444	83.249776	0.000588	5.878214	1.991593	0.000235
 470	4.6666e+01	18.6797	83.496041	0.000618	6.182260	2.094606	0.000248
 471	4.6765e+01	18.7230	83.790752	0.000740	7.398442	2.506660	0.000296
 472	4.6864e+01	18.7647	84.012795	0.000557	5.574168	1.888579	0.000223
 473	4.6964e+01	18.8016	84.250986	0.000598	5.979562	2.025931	0.000239
 474	4.7063e+01	18.8401	84.481102	0.000578	5.776865	1.957255	0.000231
 475	4.7163e+01	18.8722	84.715256	0.000588	5.878214	1.991593	0.000235
 476	4.7263e+01	18.9219	84.953447	0.000598	5.979562	2.025931	0.000239
 477	4.7362e+01	18.9556	85.227973	0.000689	6.891699	2.334971	0.000276
 478	4.7462e+01	18.9941	85.450015	0.000557	5.574168	1.888579	0.000223
 479	4.7561e+01	19.0358	85.696280	0.000618	6.182260	2.094606	0.000248
 480	4.7660e+01	19.0807	85.930434	0.000588	5.878214	1.991593	0.000235
 481	4.7760e+01	19.1128	86.204959	0.000689	6.891699	2.334971	0.000276
 482	4.7859e+01	19.1545	86.386631	0.000456	4.560683	1.545201	0.000183
 483	4.7959e+01	19.2027	86.685379	0.000750	7.499790	2.540998	0.000300
 484	4.8059e+01	19.2412	86.943755	0.000649	6.486305	2.197620	0.000260
 485	4.8158e+01	19.2781	87.169835	0.000568	5.675517	1.922917	0.000227
 486	4.8258e+01	19.3182	87.391877	0.000557	5.574168	1.888579	0.000223
 487	4.8357e+01	19.3519	87.678514	0.000720	7.195745	2.437984	0.000288
 488	4.8456e+01	19.4000	87.908631	0.000578	5.776865	1.957255	0.000231
 489	4.8556e+01	19.4305	88.167007	0.000649	6.486305	2.197620	0.000260
 490	4.8656e+01	19.4722	88.405198	0.000598	5.979562	2.025931	0.000239
 491	4.8755e+01	19.5171	88.647427	0.000608	6.080911	2.060268	0.000243
 492	4.8855e+01	19.5540	88.897729	0.000628	6.283608	2.128944	0.000252
 493	4.8954e+01	19.5989	89.143994	0.000618	6.182260	2.094606	0.000248
 494	4.9053e+01	19.6358	89.362000	0.000547	5.472820	1.854242	0.000219
 495	4.9153e+01	19.6791	89.652673	0.000730	7.297093	2.472322	0.000292
 496	4.9252e+01	19.7160	89.902976	0.000628	6.283608	2.128944	0.000252
 497	4.9352e+01	19.7609	90.189612	0.000720	7.195745	2.437984	0.000288
 498	4.9452e+01	19.7930	90.395506	0.000517	5.168774	1.751228	0.000207
 499	4.9551e+01	19.8347	90.589289	0.000486	4.864729	1.648215	0.000195
 500	4.9651e+01	19.8732	90.912260	0.000811	8.107881	2.747025	0.000325
 501	4.9750e+01	19.9214	91.150451	0.000598	5.979562	2.025931	0.000239
 502	4.9849e+01	19.9567	91.364419	0.000537	5.371471	1.819904	0.000215
 503	4.9949e+01	19.9903	91.626833	0.000659	6.587654	2.231957	0.000264
 504	5.0048e+01	19.9502	91.558201	0.000172	1.722925	0.583743	-0.000069
 505	5.0148e+01	19.9101	91.513793	0.000111	1.114834	0.377716	-0.000045
 506	5.0248e+01	19.8797	91.420939	0.000233	2.331016	0.789770	-0.000093
 507	5.0347e+01	19.8315	91.392679	0.000071	0.709440	0.240365	-0.000028
 508	5.0447e+01	19.7994	91.295788	0.000243	2.432364	0.824107	-0.000097
 509	5.0546e+01	19.7593	91.251379	0.000111	1.114834	0.377716	-0.000045
 510	5.0645e+01	19.7160	91.182748	0.000172	1.722925	0.583743	-0.000069
 511	5.0745e+01	19.6871	91.093931	0.000223	2.229667	0.755432	-0.000089
 512	5.0844e+01	19.6278	91.009151	0.000213	2.128319	0.721094	-0.000085
 513	5.0944e+01	19.5957	90.948594	0.000152	1.520228	0.515067	-0.000061
 514	5.1044e+01	19.5508	90.847666	0.000253	2.533713	0.858445	-0.000101
 515	5.1143e+01	19.5155	90.766923	0.000203	2.026970	0.686756	-0.000081
 516	5.1242e+01	19.4834	90.698291	0.000172	1.722925	0.583743	-0.000069
 517	5.1342e+01	19.4353	90.637734	0.000152	1.520228	0.515067	-0.000061
 518	5.1441e+01	19.3920	90.540843	0.000243	2.432364	0.824107	-0.000097
 519	5.1541e+01	19.3631	90.480286	0.000152	1.520228	0.515067	-0.000061
 520	5.1641e+01	19.3166	90.383395	0.000243	2.432364	0.824107	-0.000097
 521	5.1740e+01	19.2797	90.298615	0.000213	2.128319	0.721094	-0.000085
 522	5.1840e+01	19.2380	90.213835	0.000213	2.128319	0.721094	-0.000085
 523	5.1939e+01	19.1962	90.108870	0.000264	2.635061	0.892783	-0.000105
 524	5.2038e+01	19.1561	90.052350	0.000142	1.418879	0.480729	-0.000057
 525	5.2138e+01	19.1257	89.959496	0.000233	2.331016	0.789770	-0.000093
 526	5.2237e+01	19.0807	89.878753	0.000203	2.026970	0.686756	-0.000081
 527	5.2337e+01	19.0438	89.781862	0.000243	2.432364	0.824107	-0.000097
 528	5.2437e+01	18.9941	89.668822	0.000284	2.837758	0.961459	-0.000114
 529	5.2536e+01	18.9620	89.584042	0.000213	2.128319	0.721094	-0.000085
 530	5.2636e+01	18.9283	89.495225	0.000223	2.229667	0.755432	-0.000089
 531	5.2735e+01	18.8850	89.362000	0.000334	3.344501	1.133148	-0.000134
 532	5.2834e+01	18.8385	89.313554	0.000122	1.216182	0.412054	-0.000049
 533	5.2934e+01	18.8032	89.236848	0.000193	1.925622	0.652418	-0.000077
 534	5.3033e+01	18.7631	89.107660	0.000324	3.243153	1.098810	-0.000130
 535	5.3133e+01	18.7198	89.022880	0.000213	2.128319	0.721094	-0.000085
 536	5.3233e+01	18.6877	88.893692	0.000324	3.243153	1.098810	-0.000130
 537	5.3332e+01	18.6348	88.873506	0.000051	0.506743	0.171689	-0.000020
 538	5.3431e+01	18.5915	88.716058	0.000395	3.952592	1.339174	-0.000158
 539	5.3531e+01	18.5674	88.655501	0.000152	1.520228	0.515067	-0.000061
 540	5.3630e+01	18.5161	88.526312	0.000324	3.243153	1.098810	-0.000130
 541	5.3730e+01	18.4759	88.421347	0.000264	2.635061	0.892783	-0.000105
 542	5.3830e+01	18.4407	88.360790	0.000152	1.520228	0.515067	-0.000061
 543	5.3929e+01	18.4038	88.223527	0.000345	3.445850	1.167485	-0.000138
 544	5.4029e+01	18.3685	88.150859	0.000182	1.824273	0.618081	-0.000073
 545	5.4128e+01	18.3235	87.997448	0.000385	3.851244	1.304837	-0.000154
 546	5.4227e+01	18.2802	87.916705	0.000203	2.026970	0.686756	-0.000081
 547	5.4327e+01	18.2498	87.827888	0.000223	2.229667	0.755432	-0.000089
 548	5.4426e+01	18.1984	87.690625	0.000345	3.445850	1.167485	-0.000138
 549	5.4526e+01	18.1631	87.613920	0.000193	1.925622	0.652418	-0.000077
 550	5.4626e+01	18.1278	87.541251	0.000182	1.824273	0.618081	-0.000073
 551	5.4725e+01	18.0813	87.399952	0.000355	3.547198	1.201823	-0.000142
 552	5.4825e+01	18.0428	87.242503	0.000395	3.952592	1.339174	-0.000158
 553	5.4924e+01	18.0059	87.210206	0.000081	0.810788	0.274702	-0.000032
 554	5.5023e+01	17.9674	87.081018	0.000324	3.243153	1.098810	-0.000130
 555	5.5123e+01	17.9273	86.996238	0.000213	2.128319	0.721094	-0.000085
 556	5.5222e+01	17.8824	86.863013	0.000334	3.344501	1.133148	-0.000134
 557	5.5322e+01	17.8439	86.729787	0.000334	3.344501	1.133148	-0.000134
 558	5.5422e+01	17.8086	86.640970	0.000223	2.229667	0.755432	-0.000089
 559	5.5521e+01	17.7717	86.523893	0.000294	2.939107	0.995796	-0.000118
 560	5.5620e+01	17.7236	86.447188	0.000193	1.925622	0.652418	-0.000077
 561	5.5720e+01	17.6851	86.317999	0.000324	3.243153	1.098810	-0.000130
 562	5.5819e+01	17.6401	86.152477	0.000416	4.155289	1.407850	-0.000166
 563	5.5919e+01	17.6049	86.099994	0.000132	1.317531	0.446391	-0.000053
 564	5.6019e+01	17.5696	85.966768	0.000334	3.344501	1.133148	-0.000134
 565	5.6118e+01	17.5327	85.849691	0.000294	2.939107	0.995796	-0.000118
 566	5.6218e+01	17.4813	85.724540	0.000314	3.141804	1.064472	-0.000126
 567	5.6317e+01	17.4508	85.651872	0.000182	1.824273	0.618081	-0.000073
 568	5.6416e+01	17.4091	85.498461	0.000385	3.851244	1.304837	-0.000154
 569	5.6516e+01	17.3658	85.389458	0.000274	2.736410	0.927121	-0.000110
 570	5.6615e+01	17.3257	85.276418	0.000284	2.837758	0.961459	-0.000114
 571	5.6715e+01	17.2872	85.159341	0.000294	2.939107	0.995796	-0.000118
 572	5.6815e+01	17.2519	85.034190	0.000314	3.141804	1.064472	-0.000126
 573	5.6914e+01	17.1974	84.925187	0.000274	2.736410	0.927121	-0.000110
 574	5.7014e+01	17.1653	84.820222	0.000264	2.635061	0.892783	-0.000105
 575	5.7113e+01	17.1268	84.674885	0.000365	3.648547	1.236161	-0.000146
 576	5.7212e+01	17.0835	84.569919	0.000264	2.635061	0.892783	-0.000105
 577	5.7312e+01	17.0434	84.436694	0.000334	3.344501	1.133148	-0.000134
 578	5.7411e+01	17.0033	84.327691	0.000274	2.736410	0.927121	-0.000110
 579	5.7511e+01	16.9616	84.190429	0.000345	3.445850	1.167485	-0.000138
 580	5.7611e+01	16.9343	84.069315	0.000304	3.040456	1.030134	-0.000122
 581	5.7710e+01	16.8781	83.964349	0.000264	2.635061	0.892783	-0.000105
 582	5.7809e+01	16.8509	83.823049	0.000355	3.547198	1.201823	-0.000142
 583	5.7909e+01	16.8092	83.730195	0.000233	2.331016	0.789770	-0.000093
 584	5.8008e+01	16.7642	83.613118	0.000294	2.939107	0.995796	-0.000118
 585	5.8108e+01	16.7305	83.475856	0.000345	3.445850	1.167485	-0.000138
 586	5.8208e+01	16.6840	83.334556	0.000355	3.547198	1.201823	-0.000142
 587	5.8307e+01	16.6439	83.209405	0.000314	3.141804	1.064472	-0.000126
 588	5.8407e+01	16.6086	83.060031	0.000375	3.749895	1.270499	-0.000150
 589	5.8506e+01	16.5749	82.959102	0.000253	2.533713	0.858445	-0.000101
 590	5.8605e+01	16.5236	82.809728	0.000375	3.749895	1.270499	-0.000150
 591	5.8705e+01	16.4979	82.684577	0.000314	3.141804	1.064472	-0.000126
 592	5.8804e+01	16.4546	82.567500	0.000294	2.939107	0.995796	-0.000118
 593	5.8904e+01	16.4097	82.426200	0.000355	3.547198	1.201823	-0.000142
 594	5.9004e+01	16.3744	82.301049	0.000314	3.141804	1.064472	-0.000126
 595	5.9103e+01	16.3295	82.179935	0.000304	3.040456	1.030134	-0.000122
 596	5.9203e+01	16.2926	82.038635	0.000355	3.547198	1.201823	-0.000142
 597	5.9302e+01	16.2477	81.897336	0.000355	3.547198	1.201823	-0.000142
 598	5.9401e+01	16.2076	81.780259	0.000294	2.939107	0.995796	-0.000118
 599	5.9501e+01	16.1610	81.671256	0.000274	2.736410	0.927121	-0.000110
 600	5.9600e+01	16.1322	81.521882	0.000375	3.749895	1.270499	-0.000150
 601	5.9700e+01	16.0921	81.433065	0.000223	2.229667	0.755432	-0.000089
 602	5.9800e+01	16.0536	81.263505	0.000426	4.256638	1.442188	-0.000170
 603	5.9899e+01	16.0086	81.142391	0.000304	3.040456	1.030134	-0.000122
 604	5.9998e+01	15.9766	81.017240	0.000314	3.141804	1.064472	-0.000126
 605	6.0098e+01	15.9332	80.879977	0.000345	3.445850	1.167485	-0.000138
 606	6.0197e+01	15.8899	80.730603	0.000375	3.749895	1.270499	-0.000150
 607	6.0297e+01	15.8578	80.629675	0.000253	2.533713	0.858445	-0.000101
 608	6.0397e+01	15.8161	80.456078	0.000436	4.357986	1.476526	-0.000174
 609	6.0496e+01	15.7712	80.351113	0.000264	2.635061	0.892783	-0.000105
 610	6.0596e+01	15.7263	80.221924	0.000324	3.243153	1.098810	-0.000130
 611	6.0695e+01	15.6926	80.088699	0.000334	3.344501	1.133148	-0.000134
 612	6.0794e+01	15.6477	79.927213	0.000405	4.053941	1.373512	-0.000162
 613	6.0894e+01	15.6108	79.785914	0.000355	3.547198	1.201823	-0.000142
 614	6.0993e+01	15.5755	79.693059	0.000233	2.331016	0.789770	-0.000093
 615	6.1093e+01	15.5354	79.567908	0.000314	3.141804	1.064472	-0.000126
 616	6.1193e+01	15.4873	79.414497	0.000385	3.851244	1.304837	-0.000154
 617	6.1292e+01	15.4520	79.277234	0.000345	3.445850	1.167485	-0.000138
 618	6.1392e+01	15.4103	79.111712	0.000416	4.155289	1.407850	-0.000166
 619	6.1491e+01	15.3766	79.002709	0.000274	2.736410	0.927121	-0.000110
 620	6.1590e+01	15.3220	78.845261	0.000395	3.952592	1.339174	-0.000158
 621	6.1690e+01	15.2867	78.683776	0.000405	4.053941	1.373512	-0.000162
 622	6.1789e+01	15.2611	78.558624	0.000314	3.141804	1.064472	-0.000126
 623	6.1889e+01	15.2210	78.445585	0.000284	2.837758	0.961459	-0.000114
 624	6.1989e+01	15.1744	78.324470	0.000304	3.040456	1.030134	-0.000122
 625	6.2088e+01	15.1263	78.167022	0.000395	3.952592	1.339174	-0.000158
 626	6.2188e+01	15.0814	78.041871	0.000314	3.141804	1.064472	-0.000126
 627	6.2287e+01	15.0621	77.888460	0.000385	3.851244	1.304837	-0.000154
 628	6.2386e+01	15.0108	77.763309	0.000314	3.141804	1.064472	-0.000126
 629	6.2486e+01	14.9739	77.622009	0.000355	3.547198	1.201823	-0.000142
 630	6.2586e+01	14.9402	77.472635	0.000375	3.749895	1.270499	-0.000150
 631	6.2685e+01	14.8953	77.343446	0.000324	3.243153	1.098810	-0.000130
 632	6.2785e+01	14.8584	77.214258	0.000324	3.243153	1.098810	-0.000130
 633	6.2884e+01	14.8103	77.064884	0.000375	3.749895	1.270499	-0.000150
 634	6.2983e+01	14.7814	76.891287	0.000436	4.357986	1.476526	-0.000174
 635	6.3083e+01	14.7461	76.758062	0.000334	3.344501	1.133148	-0.000134
 636	6.3182e+01	14.6996	76.624836	0.000334	3.344501	1.133148	-0.000134
 637	6.3282e+01	14.6515	76.487574	0.000345	3.445850	1.167485	-0.000138
 638	6.3382e+01	14.6097	76.334163	0.000385	3.851244	1.304837	-0.000154
 639	6.3481e+01	14.5761	76.180751	0.000385	3.851244	1.304837	-0.000154
 640	6.3581e+01	14.5343	76.075786	0.000264	2.635061	0.892783	-0.000105
 641	6.3680e+01	14.4991	75.898152	0.000446	4.459335	1.510864	-0.000179
 642	6.3779e+01	14.4590	75.768964	0.000324	3.243153	1.098810	-0.000130
 643	6.3879e+01	14.4124	75.607478	0.000405	4.053941	1.373512	-0.000162
 644	6.3978e+01	14.3852	75.458104	0.000375	3.749895	1.270499	-0.000150
 645	6.4078e+01	14.3386	75.341027	0.000294	2.939107	0.995796	-0.000118
 646	6.4177e+01	14.3082	75.187616	0.000385	3.851244	1.304837	-0.000154
 647	6.4277e+01	14.2616	75.058428	0.000324	3.243153	1.098810	-0.000130
 648	6.4376e+01	14.2183	74.917128	0.000355	3.547198	1.201823	-0.000142
 649	6.4476e+01	14.1782	74.783902	0.000334	3.344501	1.133148	-0.000134
 650	6.4576e+01	14.1429	74.630491	0.000385	3.851244	1.304837	-0.000154
 651	6.4675e+01	14.0996	74.460932	0.000426	4.256638	1.442188	-0.000170
 652	6.4775e+01	14.0579	74.283298	0.000446	4.459335	1.510864	-0.000179
 653	6.4874e+01	14.0210	74.133924	0.000375	3.749895	1.270499	-0.000150
 654	6.4974e+01	13.9793	74.008772	0.000314	3.141804	1.064472	-0.000126
 655	6.5073e+01	13.9408	73.819027	0.000476	4.763380	1.613877	-0.000191
 656	6.5172e+01	13.8927	73.689839	0.000324	3.243153	1.098810	-0.000130
 657	6.5272e+01	13.8509	73.520279	0.000426	4.256638	1.442188	-0.000170
 658	6.5371e+01	13.8189	73.387053	0.000334	3.344501	1.133148	-0.000134
 659	6.5471e+01	13.7868	73.241717	0.000365	3.648547	1.236161	-0.000146
 660	6.5570e+01	13.7386	73.076194	0.000416	4.155289	1.407850	-0.000166
 661	6.5670e+01	13.6985	72.930857	0.000365	3.648547	1.236161	-0.000146
 662	6.5769e+01	13.6649	72.793594	0.000345	3.445850	1.167485	-0.000138
 663	6.5869e+01	13.6199	72.652295	0.000355	3.547198	1.201823	-0.000142
 664	6.5969e+01	13.5879	72.466586	0.000466	4.662032	1.579539	-0.000187
 665	6.6068e+01	13.5429	72.345472	0.000304	3.040456	1.030134	-0.000122
 666	6.6168e+01	13.5060	72.155727	0.000476	4.763380	1.613877	-0.000191
 667	6.6267e+01	13.4659	72.006353	0.000375	3.749895	1.270499	-0.000150
 668	6.6367e+01	13.4114	71.832756	0.000436	4.357986	1.476526	-0.000174
 669	6.6466e+01	13.3777	71.711642	0.000304	3.040456	1.030134	-0.000122
 670	6.6566e+01	13.3360	71.550157	0.000405	4.053941	1.373512	-0.000162
 671	6.6665e+01	13.2991	71.388671	0.000405	4.053941	1.373512	-0.000162
 672	6.6764e+01	13.2574	71.243334	0.000365	3.648547	1.236161	-0.000146
 673	6.6864e+01	13.2157	71.073775	0.000426	4.256638	1.442188	-0.000170
 674	6.6963e+01	13.1836	70.900178	0.000436	4.357986	1.476526	-0.000174
 675	6.7063e+01	13.1435	70.827509	0.000182	1.824273	0.618081	-0.000073
 676	6.7162e+01	13.1002	70.601430	0.000568	5.675517	1.922917	-0.000227
 677	6.7262e+01	13.0633	70.488390	0.000284	2.837758	0.961459	-0.000114
 678	6.7362e+01	13.0264	70.310756	0.000446	4.459335	1.510864	-0.000179
 679	6.7461e+01	12.9798	70.149271	0.000405	4.053941	1.373512	-0.000162
 680	6.7561e+01	12.9413	69.999897	0.000375	3.749895	1.270499	-0.000150
 681	6.7660e+01	12.9109	69.810151	0.000476	4.763380	1.613877	-0.000191
 682	6.7760e+01	12.8595	69.660777	0.000375	3.749895	1.270499	-0.000150
 683	6.7859e+01	12.8290	69.523515	0.000345	3.445850	1.167485	-0.000138
 684	6.7959e+01	12.7889	69.362029	0.000405	4.053941	1.373512	-0.000162
 685	6.8058e+01	12.7520	69.212655	0.000375	3.749895	1.270499	-0.000150
 686	6.8157e+01	12.7055	69.022910	0.000476	4.763380	1.613877	-0.000191
 687	6.8257e+01	12.6590	68.853350	0.000426	4.256638	1.442188	-0.000170
 688	6.8356e+01	12.6285	68.683790	0.000426	4.256638	1.442188	-0.000170
 689	6.8456e+01	12.5820	68.518268	0.000416	4.155289	1.407850	-0.000166
 690	6.8555e+01	12.5563	68.360819	0.000395	3.952592	1.339174	-0.000158
 691	6.8655e+01	12.5130	68.183185	0.000446	4.459335	1.510864	-0.000179
 692	6.8754e+01	12.4665	68.021700	0.000405	4.053941	1.373512	-0.000162
 693	6.8854e+01	12.4264	67.856177	0.000416	4.155289	1.407850	-0.000166
 694	6.8954e+01	12.3863	67.706803	0.000375	3.749895	1.270499	-0.000150
 695	6.9053e+01	12.3446	67.513021	0.000486	4.864729	1.648215	-0.000195
 696	6.9153e+01	12.2997	67.343461	0.000426	4.256638	1.442188	-0.000170
 697	6.9252e+01	12.2676	67.202161	0.000355	3.547198	1.201823	-0.000142
 698	6.9352e+01	12.2243	66.996268	0.000517	5.168774	1.751228	-0.000207
 699	6.9451e+01	12.1922	66.846894	0.000375	3.749895	1.270499	-0.000150
 700	6.9550e+01	12.1505	66.673297	0.000436	4.357986	1.476526	-0.000174
 701	6.9650e+01	12.1087	66.519886	0.000385	3.851244	1.304837	-0.000154
 702	6.9749e+01	12.0735	66.318029	0.000507	5.067426	1.716890	-0.000203
 703	6.9849e+01	12.0253	66.156543	0.000405	4.053941	1.373512	-0.000162
 704	6.9948e+01	11.9884	65.982947	0.000436	4.357986	1.476526	-0.000174
 705	7.0048e+01	11.9435	65.781090	0.000507	5.067426	1.716890	-0.000203
 706	7.0147e+01	11.9018	65.631716	0.000375	3.749895	1.270499	-0.000150
 707	7.0247e+01	11.8713	65.454082	0.000446	4.459335	1.510864	-0.000179
 708	7.0347e+01	11.8248	65.288559	0.000416	4.155289	1.407850	-0.000166
 709	7.0446e+01	11.7847	65.118999	0.000426	4.256638	1.442188	-0.000170
 710	7.0546e+01	11.7542	64.913106	0.000517	5.168774	1.751228	-0.000207
 711	7.0645e+01	11.7077	64.771806	0.000355	3.547198	1.201823	-0.000142
 712	7.0745e+01	11.6628	64.557838	0.000537	5.371471	1.819904	-0.000215
 713	7.0844e+01	11.6323	64.396352	0.000405	4.053941	1.373512	-0.000162
 714	7.0944e+01	11.5874	64.194495	0.000507	5.067426	1.716890	-0.000203
 715	7.1043e+01	11.5537	64.049158	0.000365	3.648547	1.236161	-0.000146
 716	7.1142e+01	11.5104	63.887673	0.000405	4.053941	1.373512	-0.000162
 717	7.1242e+01	11.4735	63.693891	0.000486	4.864729	1.648215	-0.000195
 718	7.1341e+01	11.4286	63.492034	0.000507	5.067426	1.716890	-0.000203
 719	7.1441e+01	11.3933	63.306326	0.000466	4.662032	1.579539	-0.000187
 720	7.1540e+01	11.3532	63.132729	0.000436	4.357986	1.476526	-0.000174
 721	7.1640e+01	11.3114	62.951058	0.000456	4.560683	1.545201	-0.000183
 722	7.1740e+01	11.2681	62.769386	0.000456	4.560683	1.545201	-0.000183
 723	7.1839e+01	11.2232	62.587715	0.000456	4.560683	1.545201	-0.000183
 724	7.1939e+01	11.1975	62.414119	0.000436	4.357986	1.476526	-0.000174
 725	7.2038e+01	11.1494	62.212262	0.000507	5.067426	1.716890	-0.000203
 726	7.2138e+01	11.1013	62.050776	0.000405	4.053941	1.373512	-0.000162
 727	7.2237e+01	11.0676	61.836808	0.000537	5.371471	1.819904	-0.000215
 728	7.2337e+01	11.0323	61.691471	0.000365	3.648547	1.236161	-0.000146
 729	7.2436e+01	10.9922	61.497689	0.000486	4.864729	1.648215	-0.000195
 730	7.2535e+01	10.9601	61.340240	0.000395	3.952592	1.339174	-0.000158
 731	7.2635e+01	10.9104	61.130309	0.000527	5.270123	1.785566	-0.000211
 732	7.2734e+01	10.8783	60.936527	0.000486	4.864729	1.648215	-0.000195
 733	7.2834e+01	10.8382	60.803301	0.000334	3.344501	1.133148	-0.000134
 734	7.2933e+01	10.7965	60.581259	0.000557	5.574168	1.888579	-0.000223
 735	7.3033e+01	10.7532	60.391514	0.000476	4.763380	1.613877	-0.000191
 736	7.3132e+01	10.7179	60.258288	0.000334	3.344501	1.133148	-0.000134
 737	7.3232e+01	10.6746	60.076617	0.000456	4.560683	1.545201	-0.000183
 738	7.3332e+01	10.6313	59.826315	0.000628	6.283608	2.128944	-0.000252
 739	7.3431e+01	10.5911	59.656755	0.000426	4.256638	1.442188	-0.000170
 740	7.3531e+01	10.5526	59.511418	0.000365	3.648547	1.236161	-0.000146
 741	7.3630e+01	10.5109	59.309561	0.000507	5.067426	1.716890	-0.000203
 742	7.3730e+01	10.4788	59.095593	0.000537	5.371471	1.819904	-0.000215
 743	7.3829e+01	10.4355	58.897773	0.000497	4.966077	1.682553	-0.000199
 744	7.3928e+01	10.3922	58.716102	0.000456	4.560683	1.545201	-0.000183
 745	7.4028e+01	10.3585	58.498097	0.000547	5.472820	1.854242	-0.000219
 746	7.4127e+01	10.3184	58.336611	0.000405	4.053941	1.373512	-0.000162
 747	7.4227e+01	10.2703	58.126680	0.000527	5.270123	1.785566	-0.000211
 748	7.4326e+01	10.2286	57.949046	0.000446	4.459335	1.510864	-0.000179
 749	7.4426e+01	10.1949	57.783524	0.000416	4.155289	1.407850	-0.000166
 750	7.4525e+01	10.1628	57.561481	0.000557	5.574168	1.888579	-0.000223
 751	7.4625e+01	10.1163	57.387885	0.000436	4.357986	1.476526	-0.000174
 752	7.4725e+01	10.0698	57.202176	0.000466	4.662032	1.579539	-0.000187
 753	7.4824e+01	10.0409	56.963985	0.000598	5.979562	2.025931	-0.000239
 754	7.4924e+01	9.9944	56.810574	0.000385	3.851244	1.304837	-0.000154
 755	7.5023e+01	9.9559	56.624866	0.000466	4.662032	1.579539	-0.000187
 756	7.5123e+01	9.9126	56.435120	0.000476	4.763380	1.613877	-0.000191
 757	7.5222e+01	9.8741	56.249412	0.000466	4.662032	1.579539	-0.000187
 758	7.5322e+01	9.8404	56.019296	0.000578	5.776865	1.957255	-0.000231
 759	7.5421e+01	9.7938	55.841662	0.000446	4.459335	1.510864	-0.000179
 760	7.5520e+01	9.7650	55.676139	0.000416	4.155289	1.407850	-0.000166
 761	7.5620e+01	9.7281	55.446022	0.000578	5.776865	1.957255	-0.000231
 762	7.5719e+01	9.6767	55.288574	0.000395	3.952592	1.339174	-0.000158
 763	7.5819e+01	9.6479	55.062494	0.000568	5.675517	1.922917	-0.000227
 764	7.5918e+01	9.5901	54.844489	0.000547	5.472820	1.854242	-0.000219
 765	7.6018e+01	9.5548	54.678966	0.000416	4.155289	1.407850	-0.000166
 766	7.6118e+01	9.5115	54.489221	0.000476	4.763380	1.613877	-0.000191
 767	7.6217e+01	9.4730	54.323698	0.000416	4.155289	1.407850	-0.000166
 768	7.6317e+01	9.4473	54.121842	0.000507	5.067426	1.716890	-0.000203
 769	7.6416e+01	9.4056	53.915948	0.000517	5.168774	1.751228	-0.000207
 770	7.6516e+01	9.3575	53.738314	0.000446	4.459335	1.510864	-0.000179
 771	7.6615e+01	9.3174	53.544531	0.000486	4.864729	1.648215	-0.000195
 772	7.6715e+01	9.2885	53.342675	0.000507	5.067426	1.716890	-0.000203
 773	7.6814e+01	9.2356	53.116595	0.000568	5.675517	1.922917	-0.000227
 774	7.6913e+01	9.2003	52.906664	0.000527	5.270123	1.785566	-0.000211
 775	7.7013e+01	9.1618	52.781513	0.000314	3.141804	1.064472	-0.000126
 776	7.7112e+01	9.1169	52.551396	0.000578	5.776865	1.957255	-0.000231
 777	7.7212e+01	9.0784	52.373762	0.000446	4.459335	1.510864	-0.000179
 778	7.7311e+01	9.0415	52.184017	0.000476	4.763380	1.613877	-0.000191
 779	7.7411e+01	8.9997	51.957937	0.000568	5.675517	1.922917	-0.000227
 780	7.7510e+01	8.9628	51.743969	0.000537	5.371471	1.819904	-0.000215
 781	7.7610e+01	8.9195	51.590558	0.000385	3.851244	1.304837	-0.000154
 782	7.7710e+01	8.8842	51.384664	0.000517	5.168774	1.751228	-0.000207
 783	7.7809e+01	8.8345	51.182807	0.000507	5.067426	1.716890	-0.000203
 784	7.7909e+01	8.8008	51.009210	0.000436	4.357986	1.476526	-0.000174
 785	7.8008e+01	8.7703	50.823502	0.000466	4.662032	1.579539	-0.000187
 786	7.8108e+01	8.7206	50.621645	0.000507	5.067426	1.716890	-0.000203
 787	7.8207e+01	8.6789	50.399603	0.000557	5.574168	1.888579	-0.000223
 788	7.8306e+01	8.6404	50.230043	0.000426	4.256638	1.442188	-0.000170
 789	7.8406e+01	8.5939	50.036260	0.000486	4.864729	1.648215	-0.000195
 790	7.8505e+01	8.5730	49.838441	0.000497	4.966077	1.682553	-0.000199
 791	7.8605e+01	8.5185	49.636584	0.000507	5.067426	1.716890	-0.000203
 792	7.8704e+01	8.4832	49.442801	0.000486	4.864729	1.648215	-0.000195
 793	7.8804e+01	8.4367	49.240945	0.000507	5.067426	1.716890	-0.000203
 794	7.8903e+01	8.4078	49.035051	0.000517	5.168774	1.751228	-0.000207
 795	7.9003e+01	8.3597	48.873565	0.000405	4.053941	1.373512	-0.000162
 796	7.9103e+01	8.3292	48.691894	0.000456	4.560683	1.545201	-0.000183
 797	7.9202e+01	8.2875	48.486000	0.000517	5.168774	1.751228	-0.000207
 798	7.9302e+01	8.2409	48.272032	0.000537	5.371471	1.819904	-0.000215
 799	7.9401e+01	8.2040	48.058064	0.000537	5.371471	1.819904	-0.000215
 800	7.9501e+01	8.1704	47.888504	0.000426	4.256638	1.442188	-0.000170
 801	7.9600e+01	8.1174	47.694722	0.000486	4.864729	1.648215	-0.000195
 802	7.9700e+01	8.0837	47.517088	0.000446	4.459335	1.510864	-0.000179
 803	7.9799e+01	8.0549	47.327342	0.000476	4.763380	1.613877	-0.000191
 804	7.9898e+01	8.0019	47.089151	0.000598	5.979562	2.025931	-0.000239
 805	7.9998e+01	7.9682	46.911517	0.000446	4.459335	1.510864	-0.000179
 806	8.0097e+01	7.9297	46.713698	0.000497	4.966077	1.682553	-0.000199
 807	8.0197e+01	7.8848	46.511841	0.000507	5.067426	1.716890	-0.000203
 808	8.0296e+01	7.8399	46.326133	0.000466	4.662032	1.579539	-0.000187
 809	8.0396e+01	7.8062	46.152536	0.000436	4.357986	1.476526	-0.000174
 810	8.0496e+01	7.7677	45.922419	0.000578	5.776865	1.957255	-0.000231
 811	8.0595e+01	7.7260	45.732674	0.000476	4.763380	1.613877	-0.000191
 812	8.0695e+01	7.6827	45.575225	0.000395	3.952592	1.339174	-0.000158
 813	8.0794e+01	7.6394	45.337034	0.000598	5.979562	2.025931	-0.000239
 814	8.0894e+01	7.6057	45.167475	0.000426	4.256638	1.442188	-0.000170
 815	8.0993e+01	7.5624	44.917172	0.000628	6.283608	2.128944	-0.000252
 816	8.1093e+01	7.5287	44.771835	0.000365	3.648547	1.236161	-0.000146
 817	8.1192e+01	7.4886	44.553830	0.000547	5.472820	1.854242	-0.000219
 818	8.1291e+01	7.4452	44.380233	0.000436	4.357986	1.476526	-0.000174
 819	8.1391e+01	7.4067	44.162228	0.000547	5.472820	1.854242	-0.000219
 820	8.1490e+01	7.3666	43.980557	0.000456	4.560683	1.545201	-0.000183
 821	8.1590e+01	7.3233	43.786774	0.000486	4.864729	1.648215	-0.000195
 822	8.1689e+01	7.2944	43.609140	0.000446	4.459335	1.510864	-0.000179
 823	8.1789e+01	7.2399	43.358838	0.000628	6.283608	2.128944	-0.000252
 824	8.1888e+01	7.2078	43.201390	0.000395	3.952592	1.339174	-0.000158
 825	8.1988e+01	7.1549	43.003570	0.000497	4.966077	1.682553	-0.000199
 826	8.2088e+01	7.1228	42.781527	0.000557	5.574168	1.888579	-0.000223
 827	8.2187e+01	7.0859	42.567559	0.000537	5.371471	1.819904	-0.000215
 828	8.2287e+01	7.0522	42.398000	0.000426	4.256638	1.442188	-0.000170
 829	8.2386e+01	7.0041	42.216328	0.000456	4.560683	1.545201	-0.000183
 830	8.2486e+01	6.9576	42.010434	0.000517	5.168774	1.751228	-0.000207
 831	8.2585e+01	6.9271	41.788392	0.000557	5.574168	1.888579	-0.000223
 832	8.2684e+01	6.8966	41.630944	0.000395	3.952592	1.339174	-0.000158
 833	8.2784e+01	6.8501	41.380641	0.000628	6.283608	2.128944	-0.000252
 834	8.2883e+01	6.8084	41.207044	0.000436	4.357986	1.476526	-0.000174
 835	8.2983e+01	6.7699	41.001151	0.000517	5.168774	1.751228	-0.000207
 836	8.3082e+01	6.7346	40.823517	0.000446	4.459335	1.510864	-0.000179
 837	8.3182e+01	6.6897	40.609548	0.000537	5.371471	1.819904	-0.000215
 838	8.3281e+01	6.6479	40.448063	0.000405	4.053941	1.373512	-0.000162
 839	8.3381e+01	6.6062	40.217946	0.000578	5.776865	1.957255	-0.000231
 840	8.3481e+01	6.5677	39.995904	0.000557	5.574168	1.888579	-0.000223
 841	8.3580e+01	6.5260	39.834418	0.000405	4.053941	1.373512	-0.000162
 842	8.3680e+01	6.4971	39.596227	0.000598	5.979562	2.025931	-0.000239
 843	8.3779e+01	6.4490	39.426668	0.000426	4.256638	1.442188	-0.000170
 844	8.3879e+01	6.4089	39.249034	0.000446	4.459335	1.510864	-0.000179
 845	8.3978e+01	6.3736	39.022954	0.000568	5.675517	1.922917	-0.000227
 846	8.4078e+01	6.3303	38.792837	0.000578	5.776865	1.957255	-0.000231
 847	8.4177e+01	6.2966	38.647500	0.000365	3.648547	1.236161	-0.000146
 848	8.4276e+01	6.2533	38.457755	0.000476	4.763380	1.613877	-0.000191
 849	8.4376e+01	6.2260	38.251861	0.000517	5.168774	1.751228	-0.000207
 850	8.4475e+01	6.1635	38.005596	0.000618	6.182260	2.094606	-0.000248
 851	8.4575e+01	6.1346	37.852185	0.000385	3.851244	1.304837	-0.000154
 852	8.4674e+01	6.0929	37.654365	0.000497	4.966077	1.682553	-0.000199
 853	8.4774e+01	6.0560	37.412137	0.000608	6.080911	2.060268	-0.000243
 854	8.4874e+01	6.0127	37.210280	0.000507	5.067426	1.716890	-0.000203
 855	8.4973e+01	5.9710	37.016498	0.000486	4.864729	1.648215	-0.000195
 856	8.5073e+01	5.9389	36.834826	0.000456	4.560683	1.545201	-0.000183
 857	8.5172e+01	5.8907	36.637007	0.000497	4.966077	1.682553	-0.000199
 858	8.5272e+01	5.8554	36.423039	0.000537	5.371471	1.819904	-0.000215
 859	8.5371e+01	5.8105	36.229256	0.000486	4.864729	1.648215	-0.000195
 860	8.5471e+01	5.7720	36.003177	0.000568	5.675517	1.922917	-0.000227
 861	8.5570e+01	5.7319	35.845728	0.000395	3.952592	1.339174	-0.000158
 862	8.5669e+01	5.6966	35.599463	0.000618	6.182260	2.094606	-0.000248
 863	8.5769e+01	5.6581	35.405680	0.000486	4.864729	1.648215	-0.000195
 864	8.5868e+01	5.6084	35.179601	0.000568	5.675517	1.922917	-0.000227
 865	8.5968e+01	5.5651	34.997930	0.000456	4.560683	1.545201	-0.000183
 866	8.6067e+01	5.5362	34.771850	0.000568	5.675517	1.922917	-0.000227
 867	8.6167e+01	5.4977	34.614402	0.000395	3.952592	1.339174	-0.000158
 868	8.6266e+01	5.4544	34.416582	0.000497	4.966077	1.682553	-0.000199
 869	8.6366e+01	5.4159	34.194540	0.000557	5.574168	1.888579	-0.000223
 870	8.6466e+01	5.3726	33.964423	0.000578	5.776865	1.957255	-0.000231
 871	8.6565e+01	5.3373	33.786789	0.000446	4.459335	1.510864	-0.000179
 872	8.6665e+01	5.3036	33.576858	0.000527	5.270123	1.785566	-0.000211
 873	8.6764e+01	5.2523	33.342704	0.000588	5.878214	1.991593	-0.000235
 874	8.6864e+01	5.2170	33.189293	0.000385	3.851244	1.304837	-0.000154
 875	8.6963e+01	5.1769	32.959176	0.000578	5.776865	1.957255	-0.000231
 876	8.7063e+01	5.1464	32.737134	0.000557	5.574168	1.888579	-0.000223
 877	8.7162e+01	5.0902	32.502980	0.000588	5.878214	1.991593	-0.000235
 878	8.7261e+01	5.0565	32.341494	0.000405	4.053941	1.373512	-0.000162
 879	8.7361e+01	5.0068	32.131563	0.000527	5.270123	1.785566	-0.000211
 880	8.7460e+01	4.9827	31.905484	0.000568	5.675517	1.922917	-0.000227
 881	8.7560e+01	4.9330	31.711701	0.000486	4.864729	1.648215	-0.000195
 882	8.7659e+01	4.8913	31.505807	0.000517	5.168774	1.751228	-0.000207
 883	8.7759e+01	4.8592	31.299913	0.000517	5.168774	1.751228	-0.000207
 884	8.7859e+01	4.8175	31.081908	0.000547	5.472820	1.854242	-0.000219
 885	8.7958e+01	4.7758	30.855828	0.000568	5.675517	1.922917	-0.000227
 886	8.8058e+01	4.7453	30.690306	0.000416	4.155289	1.407850	-0.000166
 887	8.8157e+01	4.6892	30.488449	0.000507	5.067426	1.716890	-0.000203
 888	8.8257e+01	4.6555	30.258332	0.000578	5.776865	1.957255	-0.000231
 889	8.8356e+01	4.6138	30.040327	0.000547	5.472820	1.854242	-0.000219
 890	8.8456e+01	4.5753	29.862693	0.000446	4.459335	1.510864	-0.000179
 891	8.8555e+01	4.5304	29.656799	0.000517	5.168774	1.751228	-0.000207
 892	8.8654e+01	4.5063	29.454942	0.000507	5.067426	1.716890	-0.000203
 893	8.8754e+01	4.4469	29.245011	0.000527	5.270123	1.785566	-0.000211
 894	8.8853e+01	4.4165	29.027006	0.000547	5.472820	1.854242	-0.000219
 895	8.8953e+01	4.3780	28.804963	0.000557	5.574168	1.888579	-0.000223
 896	8.9052e+01	4.3427	28.615218	0.000476	4.763380	1.613877	-0.000191
 897	8.9152e+01	4.3042	28.437584	0.000446	4.459335	1.510864	-0.000179
 898	8.9251e+01	4.2608	28.171133	0.000669	6.689002	2.266295	-0.000268
 899	8.9351e+01	4.2175	27.941016	0.000578	5.776865	1.957255	-0.000231
 900	8.9451e+01	4.1838	27.775494	0.000416	4.155289	1.407850	-0.000166
 901	8.9550e+01	4.1405	27.569600	0.000517	5.168774	1.751228	-0.000207
 902	8.9650e+01	4.0956	27.363706	0.000517	5.168774	1.751228	-0.000207
 903	8.9749e+01	4.0619	27.133589	0.000578	5.776865	1.957255	-0.000231
 904	8.9849e+01	4.0170	26.911547	0.000557	5.574168	1.888579	-0.000223
 905	8.9948e+01	3.9865	26.713727	0.000497	4.966077	1.682553	-0.000199
 906	9.0047e+01	3.9384	26.503796	0.000527	5.270123	1.785566	-0.000211
 907	9.0147e+01	3.9015	26.310014	0.000486	4.864729	1.648215	-0.000195
 908	9.0246e+01	3.8630	26.096045	0.000537	5.371471	1.819904	-0.000215
 909	9.0346e+01	3.8181	25.882077	0.000537	5.371471	1.819904	-0.000215
 910	9.0445e+01	3.7780	25.676183	0.000517	5.168774	1.751228	-0.000207
 911	9.0545e+01	3.7443	25.486438	0.000476	4.763380	1.613877	-0.000191
 912	9.0644e+01	3.6994	25.240173	0.000618	6.182260	2.094606	-0.000248
 913	9.0744e+01	3.6609	25.010056	0.000578	5.776865	1.957255	-0.000231
 914	9.0844e+01	3.6224	24.840496	0.000426	4.256638	1.442188	-0.000170
 915	9.0943e+01	3.5806	24.646714	0.000486	4.864729	1.648215	-0.000195
 916	9.1043e+01	3.5421	24.400448	0.000618	6.182260	2.094606	-0.000248
 917	9.1142e+01	3.5036	24.190517	0.000527	5.270123	1.785566	-0.000211
 918	9.1242e+01	3.4539	23.964438	0.000568	5.675517	1.922917	-0.000227
 919	9.1341e+01	3.4154	23.774692	0.000476	4.763380	1.613877	-0.000191
 920	9.1441e+01	3.3785	23.576873	0.000497	4.966077	1.682553	-0.000199
 921	9.1540e+01	3.3448	23.375016	0.000507	5.067426	1.716890	-0.000203
 922	9.1639e+01	3.3047	23.124714	0.000628	6.283608	2.128944	-0.000252
 923	9.1739e+01	3.2726	22.959191	0.000416	4.155289	1.407850	-0.000166
 924	9.1838e+01	3.2213	22.761371	0.000497	4.966077	1.682553	-0.000199
 925	9.1938e+01	3.1812	22.551440	0.000527	5.270123	1.785566	-0.000211
 926	9.2037e+01	3.1443	22.317286	0.000588	5.878214	1.991593	-0.000235
 927	9.2137e+01	3.0994	22.115430	0.000507	5.067426	1.716890	-0.000203
 928	9.2237e+01	3.0609	21.861090	0.000638	6.384957	2.163282	-0.000256
 929	9.2336e+01	3.0256	21.626936	0.000588	5.878214	1.991593	-0.000235
 930	9.2436e+01	2.9903	21.437191	0.000476	4.763380	1.613877	-0.000191
 931	9.2535e+01	2.9422	21.279742	0.000395	3.952592	1.339174	-0.000158
 932	9.2635e+01	2.9117	21.061737	0.000547	5.472820	1.854242	-0.000219
 933	9.2734e+01	2.8539	20.835658	0.000568	5.675517	1.922917	-0.000227
 934	9.2834e+01	2.8283	20.593429	0.000608	6.080911	2.060268	-0.000243
 935	9.2933e+01	2.7801	20.383498	0.000527	5.270123	1.785566	-0.000211
 936	9.3032e+01	2.7464	20.177604	0.000517	5.168774	1.751228	-0.000207
 937	9.3132e+01	2.7079	19.939413	0.000598	5.979562	2.025931	-0.000239
 938	9.3231e+01	2.6598	19.765817	0.000436	4.357986	1.476526	-0.000174
 939	9.3331e+01	2.6277	19.596257	0.000426	4.256638	1.442188	-0.000170
 940	9.3430e+01	2.5924	19.345954	0.000628	6.283608	2.128944	-0.000252
 941	9.3530e+01	2.5459	19.136023	0.000527	5.270123	1.785566	-0.000211
 942	9.3629e+01	2.5090	18.942241	0.000486	4.864729	1.648215	-0.000195
 943	9.3729e+01	2.4705	18.691938	0.000628	6.283608	2.128944	-0.000252
 944	9.3829e+01	2.4208	18.498156	0.000486	4.864729	1.648215	-0.000195
 945	9.3928e+01	2.3823	18.264002	0.000588	5.878214	1.991593	-0.000235
 946	9.4028e+01	2.3486	18.074257	0.000476	4.763380	1.613877	-0.000191
 947	9.4127e+01	2.3037	17.896623	0.000446	4.459335	1.510864	-0.000179
 948	9.4227e+01	2.2716	17.674580	0.000557	5.574168	1.888579	-0.000223
 949	9.4326e+01	2.2267	17.436389	0.000598	5.979562	2.025931	-0.000239
 950	9.4425e+01	2.1898	17.254718	0.000456	4.560683	1.545201	-0.000183
 951	9.4525e+01	2.1433	17.052861	0.000507	5.067426	1.716890	-0.000203
 952	9.4624e+01	2.1015	16.834856	0.000547	5.472820	1.854242	-0.000219
 953	9.4724e+01	2.0614	16.608776	0.000568	5.675517	1.922917	-0.000227
 954	9.4823e+01	2.0229	16.423068	0.000466	4.662032	1.579539	-0.000187
 955	9.4923e+01	1.9876	16.217174	0.000517	5.168774	1.751228	-0.000207
 956	9.5022e+01	1.9411	15.987058	0.000578	5.776865	1.957255	-0.000231
 957	9.5122e+01	1.9042	15.825572	0.000405	4.053941	1.373512	-0.000162
 958	9.5222e+01	1.8705	15.603530	0.000557	5.574168	1.888579	-0.000223
 959	9.5321e+01	1.8352	15.377450	0.000568	5.675517	1.922917	-0.000227
 960	9.5421e+01	1.7871	15.123110	0.000638	6.384957	2.163282	-0.000256
 961	9.5520e+01	1.7550	14.933365	0.000476	4.763380	1.613877	-0.000191
 962	9.5620e+01	1.7101	14.763805	0.000426	4.256638	1.442188	-0.000170
 963	9.5719e+01	1.6780	14.485243	0.000699	6.993048	2.369309	-0.000280
 964	9.5819e+01	1.6267	14.315683	0.000426	4.256638	1.442188	-0.000170
 965	9.5918e+01	1.5866	14.113827	0.000507	5.067426	1.716890	-0.000203
 966	9.6017e+01	1.5465	13.883710	0.000578	5.776865	1.957255	-0.000231
 967	9.6117e+01	1.5112	13.706076	0.000446	4.459335	1.510864	-0.000179
 968	9.6216e+01	1.4695	13.463848	0.000608	6.080911	2.060268	-0.000243
 969	9.6316e+01	1.4294	13.261991	0.000507	5.067426	1.716890	-0.000203
 970	9.6415e+01	1.3973	13.039948	0.000557	5.574168	1.888579	-0.000223
 971	9.6515e+01	1.3508	12.817906	0.000557	5.574168	1.888579	-0.000223
 972	9.6615e+01	1.3042	12.668532	0.000375	3.749895	1.270499	-0.000150
 973	9.6714e+01	1.2850	12.442452	0.000568	5.675517	1.922917	-0.000227
 974	9.6814e+01	1.2304	12.204261	0.000598	5.979562	2.025931	-0.000239
 975	9.6913e+01	1.1887	12.030664	0.000436	4.357986	1.476526	-0.000174
 976	9.7013e+01	1.1534	11.812659	0.000547	5.472820	1.854242	-0.000219
 977	9.7112e+01	1.1165	11.570431	0.000608	6.080911	2.060268	-0.000243
 978	9.7212e+01	1.0716	11.400871	0.000426	4.256638	1.442188	-0.000170
 979	9.7311e+01	1.0251	11.203052	0.000497	4.966077	1.682553	-0.000199
 980	9.7410e+01	0.9882	10.985046	0.000547	5.472820	1.854242	-0.000219
 981	9.7510e+01	0.9529	10.763004	0.000557	5.574168	1.888579	-0.000223
 982	9.7609e+01	0.9048	10.557110	0.000517	5.168774	1.751228	-0.000207
 983	9.7709e+01	0.8711	10.367365	0.000476	4.763380	1.613877	-0.000191
 984	9.7808e+01	0.8326	10.189731	0.000446	4.459335	1.510864	-0.000179
 985	9.7908e+01	0.7941	9.899057	0.000730	7.297093	2.472322	-0.000292
 986	9.8007e+01	0.7476	9.697200	0.000507	5.067426	1.716890	-0.000203
 987	9.8107e+01	0.7091	9.503418	0.000486	4.864729	1.648215	-0.000195
 988	9.8207e+01	0.6642	9.317709	0.000466	4.662032	1.579539	-0.000187
 989	9.8306e+01	0.6353	9.071444	0.000618	6.182260	2.094606	-0.000248
 990	9.8406e+01	0.5823	8.901884	0.000426	4.256638	1.442188	-0.000170
 991	9.8505e+01	0.5551	8.639470	0.000659	6.587654	2.231957	-0.000264
 992	9.8605e+01	0.5118	8.490096	0.000375	3.749895	1.270499	-0.000150
 993	9.8704e+01	0.4668	8.272091	0.000547	5.472820	1.854242	-0.000219
 994	9.8803e+01	0.4347	8.086383	0.000466	4.662032	1.579539	-0.000187
 995	9.8903e+01	0.3930	7.864340	0.000557	5.574168	1.888579	-0.000223
 996	9.9002e+01	0.3497	7.642298	0.000557	5.574168	1.888579	-0.000223
 997	9.9102e+01	0.3176	7.432367	0.000527	5.270123	1.785566	-0.000211
 998	9.9201e+01	0.2727	7.214362	0.000547	5.472820	1.854242	-0.000219
 999	9.9301e+01	0.2358	7.000393	0.000537	5.371471	1.819904	-0.000215
1000	9.9400e+01	0.1893	6.810648	0.000476	4.763380	1.613877	-0.000191
1001	9.9500e+01	0.1556	6.608791	0.000507	5.067426	1.716890	-0.000203
1002	9.9600e+01	0.1187	6.394823	0.000537	5.371471	1.819904	-0.000215
1003	9.9699e+01	0.0738	6.184892	0.000527	5.270123	1.785566	-0.000211
1004	9.9799e+01	0.0273	5.991109	0.000486	4.864729	1.648215	-0.000195
1005	9.9898e+01	-0.0064	5.825587	0.000416	4.155289	1.407850	-0.000166
1006	9.9998e+01	-0.0529	5.611619	0.000537	5.371471	1.819904	-0.000215
1007	1.0010e+02	-0.0770	5.389576	0.000557	5.574168	1.888579	-0.000223
1008	1.0020e+02	-0.1187	5.195794	0.000486	4.864729	1.648215	-0.000195
1009	1.0030e+02	-0.1572	4.985863	0.000527	5.270123	1.785566	-0.000211
1010	1.0040e+02	-0.1925	4.779969	0.000517	5.168774	1.751228	-0.000207
1011	1.0050e+02	-0.2390	4.590223	0.000476	4.763380	1.613877	-0.000191
1012	1.0059e+02	-0.2743	4.372218	0.000547	5.472820	1.854242	-0.000219
1013	1.0069e+02	-0.3160	4.170361	0.000507	5.067426	1.716890	-0.000203
1014	1.0079e+02	-0.3529	3.972542	0.000497	4.966077	1.682553	-0.000199
1015	1.0089e+02	-0.3995	3.746462	0.000568	5.675517	1.922917	-0.000227
1016	1.0099e+02	-0.4347	3.516345	0.000578	5.776865	1.957255	-0.000231
1017	1.0109e+02	-0.4684	3.326600	0.000476	4.763380	1.613877	-0.000191
1018	1.0119e+02	-0.5150	3.104557	0.000557	5.574168	1.888579	-0.000223
1019	1.0129e+02	-0.5470	2.922886	0.000456	4.560683	1.545201	-0.000183
1020	1.0139e+02	-0.5936	2.708918	0.000537	5.371471	1.819904	-0.000215
1021	1.0149e+02	-0.6353	2.490913	0.000547	5.472820	1.854242	-0.000219
1022	1.0159e+02	-0.6754	2.272907	0.000547	5.472820	1.854242	-0.000219
1023	1.0169e+02	-0.7139	2.087199	0.000466	4.662032	1.579539	-0.000187
1024	1.0179e+02	-0.7444	1.853045	0.000588	5.878214	1.991593	-0.000235
1025	1.0189e+02	-0.7957	1.687523	0.000416	4.155289	1.407850	-0.000166
1026	1.0199e+02	-0.8406	1.465480	0.000557	5.574168	1.888579	-0.000223
1027	1.0209e+02	-0.8727	1.231326	0.000588	5.878214	1.991593	-0.000235
1028	1.0219e+02	-0.9112	1.081952	0.000375	3.749895	1.270499	-0.000150
1029	1.0229e+02	-0.9657	0.787241	0.000740	7.398442	2.506660	-0.000296
1030	1.0239e+02	-0.9994	0.633830	0.000385	3.851244	1.304837	-0.000154
1031	1.0248e+02	-1.0347	0.436011	0.000497	4.966077	1.682553	-0.000199
1032	1.0258e+02	-1.0764	0.205894	0.000578	5.776865	1.957255	-0.000231
1033	1.0268e+02	-1.1198	0.004037	0.000507	5.067426	1.716890	-0.000203
1034	1.0278e+02	-1.1534	-0.209931	0.000537	5.371471	1.819904	-0.000215
1035	1.0288e+02	-1.1823	-0.436011	0.000568	5.675517	1.922917	-0.000227
1036	1.0298e+02	-1.2304	-0.613645	0.000446	4.459335	1.510864	-0.000179
1037	1.0308e+02	-1.2754	-0.839724	0.000568	5.675517	1.922917	-0.000227
1038	1.0318e+02	-1.3187	-1.033507	0.000486	4.864729	1.648215	-0.000195
1039	1.0328e+02	-1.3492	-1.243438	0.000527	5.270123	1.785566	-0.000211
1040	1.0338e+02	-1.3973	-1.485666	0.000608	6.080911	2.060268	-0.000243
1041	1.0348e+02	-1.4294	-1.675411	0.000476	4.763380	1.613877	-0.000191
1042	1.0358e+02	-1.4727	-1.905528	0.000578	5.776865	1.957255	-0.000231
1043	1.0368e+02	-1.5160	-2.107385	0.000507	5.067426	1.716890	-0.000203
1044	1.0378e+02	-1.5513	-2.309242	0.000507	5.067426	1.716890	-0.000203
1045	1.0388e+02	-1.5898	-2.486876	0.000446	4.459335	1.510864	-0.000179
1046	1.0398e+02	-1.6379	-2.704881	0.000547	5.472820	1.854242	-0.000219
1047	1.0408e+02	-1.6700	-2.918849	0.000537	5.371471	1.819904	-0.000215
1048	1.0418e+02	-1.7085	-3.128780	0.000527	5.270123	1.785566	-0.000211
1049	1.0428e+02	-1.7518	-3.346786	0.000547	5.472820	1.854242	-0.000219
1050	1.0438e+02	-1.7919	-3.572865	0.000568	5.675517	1.922917	-0.000227
1051	1.0447e+02	-1.8433	-3.778759	0.000517	5.168774	1.751228	-0.000207
1052	1.0457e+02	-1.8705	-3.944282	0.000416	4.155289	1.407850	-0.000166
1053	1.0467e+02	-1.9138	-4.194584	0.000628	6.283608	2.128944	-0.000252
1054	1.0477e+02	-1.9604	-4.412589	0.000547	5.472820	1.854242	-0.000219
1055	1.0487e+02	-1.9941	-4.590223	0.000446	4.459335	1.510864	-0.000179
1056	1.0497e+02	-2.0165	-4.844563	0.000638	6.384957	2.163282	-0.000256
1057	1.0507e+02	-2.0695	-5.026234	0.000456	4.560683	1.545201	-0.000183
1058	1.0517e+02	-2.1160	-5.228091	0.000507	5.067426	1.716890	-0.000203
1059	1.0527e+02	-2.1449	-5.454170	0.000568	5.675517	1.922917	-0.000227
1060	1.0537e+02	-2.1914	-5.639879	0.000466	4.662032	1.579539	-0.000187
1061	1.0547e+02	-2.2331	-5.874032	0.000588	5.878214	1.991593	-0.000235
1062	1.0557e+02	-2.2700	-6.063778	0.000476	4.763380	1.613877	-0.000191
1063	1.0567e+02	-2.3101	-6.285820	0.000557	5.574168	1.888579	-0.000223
1064	1.0577e+02	-2.3550	-6.475566	0.000476	4.763380	1.613877	-0.000191
1065	1.0587e+02	-2.3839	-6.685497	0.000527	5.270123	1.785566	-0.000211
1066	1.0597e+02	-2.4304	-6.907539	0.000557	5.574168	1.888579	-0.000223
1067	1.0607e+02	-2.4689	-7.089210	0.000456	4.560683	1.545201	-0.000183
1068	1.0617e+02	-2.5154	-7.323364	0.000588	5.878214	1.991593	-0.000235
1069	1.0627e+02	-2.5507	-7.561555	0.000598	5.979562	2.025931	-0.000239
1070	1.0637e+02	-2.5940	-7.723041	0.000405	4.053941	1.373512	-0.000162
1071	1.0647e+02	-2.6245	-7.941046	0.000547	5.472820	1.854242	-0.000219
1072	1.0656e+02	-2.6646	-8.150977	0.000527	5.270123	1.785566	-0.000211
1073	1.0666e+02	-2.7079	-8.356871	0.000517	5.168774	1.751228	-0.000207
1074	1.0676e+02	-2.7464	-8.558728	0.000507	5.067426	1.716890	-0.000203
1075	1.0686e+02	-2.7882	-8.748473	0.000476	4.763380	1.613877	-0.000191
1076	1.0696e+02	-2.8251	-8.974553	0.000568	5.675517	1.922917	-0.000227
1077	1.0706e+02	-2.8587	-9.249078	0.000689	6.891699	2.334971	-0.000276
1078	1.0716e+02	-2.9053	-9.426712	0.000446	4.459335	1.510864	-0.000179
1079	1.0726e+02	-2.9454	-9.648754	0.000557	5.574168	1.888579	-0.000223
1080	1.0736e+02	-2.9903	-9.794091	0.000365	3.648547	1.236161	-0.000146
1081	1.0746e+02	-3.0240	-10.044394	0.000628	6.283608	2.128944	-0.000252
1082	1.0756e+02	-3.0721	-10.270473	0.000568	5.675517	1.922917	-0.000227
1083	1.0766e+02	-3.1058	-10.452144	0.000456	4.560683	1.545201	-0.000183
1084	1.0776e+02	-3.1411	-10.678224	0.000568	5.675517	1.922917	-0.000227
1085	1.0786e+02	-3.1828	-10.884118	0.000517	5.168774	1.751228	-0.000207
1086	1.0796e+02	-3.2277	-11.085975	0.000507	5.067426	1.716890	-0.000203
1087	1.0806e+02	-3.2582	-11.271683	0.000466	4.662032	1.579539	-0.000187
1088	1.0816e+02	-3.3079	-11.497763	0.000568	5.675517	1.922917	-0.000227
1089	1.0826e+02	-3.3352	-11.707694	0.000527	5.270123	1.785566	-0.000211
1090	1.0836e+02	-3.3817	-11.933773	0.000568	5.675517	1.922917	-0.000227
1091	1.0845e+02	-3.4298	-12.127556	0.000486	4.864729	1.648215	-0.000195
1092	1.0855e+02	-3.4635	-12.321338	0.000486	4.864729	1.648215	-0.000195
1093	1.0865e+02	-3.5036	-12.507047	0.000466	4.662032	1.579539	-0.000187
1094	1.0875e+02	-3.5438	-12.769460	0.000659	6.587654	2.231957	-0.000264
1095	1.0885e+02	-3.5774	-12.947094	0.000446	4.459335	1.510864	-0.000179
1096	1.0895e+02	-3.6256	-13.185285	0.000598	5.979562	2.025931	-0.000239
1097	1.0905e+02	-3.6657	-13.403291	0.000547	5.472820	1.854242	-0.000219
1098	1.0915e+02	-3.6994	-13.588999	0.000466	4.662032	1.579539	-0.000187
1099	1.0925e+02	-3.7395	-13.786819	0.000497	4.966077	1.682553	-0.000199
1100	1.0935e+02	-3.7860	-13.968490	0.000456	4.560683	1.545201	-0.000183
1101	1.0945e+02	-3.8293	-14.210718	0.000608	6.080911	2.060268	-0.000243
1102	1.0955e+02	-3.8582	-14.408537	0.000497	4.966077	1.682553	-0.000199
1103	1.0965e+02	-3.9111	-14.610394	0.000507	5.067426	1.716890	-0.000203
1104	1.0975e+02	-3.9432	-14.804177	0.000486	4.864729	1.648215	-0.000195
1105	1.0985e+02	-3.9833	-15.018145	0.000537	5.371471	1.819904	-0.000215
1106	1.0995e+02	-4.0266	-15.256336	0.000598	5.979562	2.025931	-0.000239
1107	1.1005e+02	-4.0587	-15.389561	0.000334	3.344501	1.133148	-0.000134
1108	1.1015e+02	-4.1068	-15.643901	0.000638	6.384957	2.163282	-0.000256
1109	1.1025e+02	-4.1405	-15.878055	0.000588	5.878214	1.991593	-0.000235
1110	1.1035e+02	-4.1822	-16.059726	0.000456	4.560683	1.545201	-0.000183
1111	1.1044e+02	-4.2175	-16.273694	0.000537	5.371471	1.819904	-0.000215
1112	1.1054e+02	-4.2657	-16.451328	0.000446	4.459335	1.510864	-0.000179
1113	1.1064e+02	-4.2945	-16.653185	0.000507	5.067426	1.716890	-0.000203
1114	1.1074e+02	-4.3475	-16.863116	0.000527	5.270123	1.785566	-0.000211
1115	1.1084e+02	-4.3796	-17.089196	0.000568	5.675517	1.922917	-0.000227
1116	1.1094e+02	-4.4181	-17.262792	0.000436	4.357986	1.476526	-0.000174
1117	1.1104e+02	-4.4630	-17.436389	0.000436	4.357986	1.476526	-0.000174
1118	1.1114e+02	-4.5031	-17.670543	0.000588	5.878214	1.991593	-0.000235
1119	1.1124e+02	-4.5400	-17.848177	0.000446	4.459335	1.510864	-0.000179
1120	1.1134e+02	-4.5817	-18.078294	0.000578	5.776865	1.957255	-0.000231
1121	1.1144e+02	-4.6218	-18.308411	0.000578	5.776865	1.957255	-0.000231
1122	1.1154e+02	-4.6523	-18.477970	0.000426	4.256638	1.442188	-0.000170
1123	1.1164e+02	-4.7004	-18.667716	0.000476	4.763380	1.613877	-0.000191
1124	1.1174e+02	-4.7453	-18.885721	0.000547	5.472820	1.854242	-0.000219
1125	1.1184e+02	-4.7854	-19.079503	0.000486	4.864729	1.648215	-0.000195
1126	1.1194e+02	-4.8143	-19.297509	0.000547	5.472820	1.854242	-0.000219
1127	1.1204e+02	-4.8480	-19.463031	0.000416	4.155289	1.407850	-0.000166
1128	1.1214e+02	-4.9090	-19.685074	0.000557	5.574168	1.888579	-0.000223
1129	1.1224e+02	-4.9362	-19.903079	0.000547	5.472820	1.854242	-0.000219
1130	1.1234e+02	-4.9795	-20.052453	0.000375	3.749895	1.270499	-0.000150
1131	1.1244e+02	-5.0261	-20.282570	0.000578	5.776865	1.957255	-0.000231
1132	1.1253e+02	-5.0453	-20.480390	0.000497	4.966077	1.682553	-0.000199
1133	1.1263e+02	-5.0918	-20.690321	0.000527	5.270123	1.785566	-0.000211
1134	1.1273e+02	-5.1416	-20.876029	0.000466	4.662032	1.579539	-0.000187
1135	1.1283e+02	-5.1737	-21.077886	0.000507	5.067426	1.716890	-0.000203
1136	1.1293e+02	-5.2122	-21.251483	0.000436	4.357986	1.476526	-0.000174
1137	1.1303e+02	-5.2571	-21.465451	0.000537	5.371471	1.819904	-0.000215
1138	1.1313e+02	-5.3068	-21.683456	0.000547	5.472820	1.854242	-0.000219
1139	1.1323e+02	-5.3373	-21.865127	0.000456	4.560683	1.545201	-0.000183
1140	1.1333e+02	-5.3790	-22.062947	0.000497	4.966077	1.682553	-0.000199
1141	1.1343e+02	-5.4207	-22.272878	0.000527	5.270123	1.785566	-0.000211
1142	1.1353e+02	-5.4592	-22.494920	0.000557	5.574168	1.888579	-0.000223
1143	1.1363e+02	-5.4897	-22.672554	0.000446	4.459335	1.510864	-0.000179
1144	1.1373e+02	-5.5394	-22.821928	0.000375	3.749895	1.270499	-0.000150
1145	1.1383e+02	-5.5779	-23.076268	0.000638	6.384957	2.163282	-0.000256
1146	1.1393e+02	-5.6212	-23.225642	0.000375	3.749895	1.270499	-0.000150
1147	1.1403e+02	-5.6645	-23.427499	0.000507	5.067426	1.716890	-0.000203
1148	1.1413e+02	-5.6966	-23.601096	0.000436	4.357986	1.476526	-0.000174
1149	1.1423e+02	-5.7319	-23.859472	0.000649	6.486305	2.197620	-0.000260
1150	1.1433e+02	-5.7768	-24.045180	0.000466	4.662032	1.579539	-0.000187
1151	1.1442e+02	-5.8089	-24.259149	0.000537	5.371471	1.819904	-0.000215
1152	1.1452e+02	-5.8506	-24.469080	0.000527	5.270123	1.785566	-0.000211
1153	1.1462e+02	-5.8972	-24.630565	0.000405	4.053941	1.373512	-0.000162
1154	1.1472e+02	-5.9373	-24.820311	0.000476	4.763380	1.613877	-0.000191
1155	1.1482e+02	-5.9774	-25.030242	0.000527	5.270123	1.785566	-0.000211
1156	1.1492e+02	-6.0095	-25.211913	0.000456	4.560683	1.545201	-0.000183
1157	1.1502e+02	-6.0592	-25.417807	0.000517	5.168774	1.751228	-0.000207
1158	1.1512e+02	-6.0945	-25.635812	0.000547	5.472820	1.854242	-0.000219
1159	1.1522e+02	-6.1362	-25.797297	0.000405	4.053941	1.373512	-0.000162
1160	1.1532e+02	-6.1811	-25.974931	0.000446	4.459335	1.510864	-0.000179
1161	1.1542e+02	-6.2148	-26.192937	0.000547	5.472820	1.854242	-0.000219
1162	1.1552e+02	-6.2581	-26.366534	0.000436	4.357986	1.476526	-0.000174
1163	1.1562e+02	-6.2950	-26.568390	0.000507	5.067426	1.716890	-0.000203
1164	1.1572e+02	-6.3367	-26.758136	0.000476	4.763380	1.613877	-0.000191
1165	1.1582e+02	-6.3768	-26.951918	0.000486	4.864729	1.648215	-0.000195
1166	1.1592e+02	-6.4121	-27.153775	0.000507	5.067426	1.716890	-0.000203
1167	1.1602e+02	-6.4442	-27.335446	0.000456	4.560683	1.545201	-0.000183
1168	1.1612e+02	-6.4923	-27.513080	0.000446	4.459335	1.510864	-0.000179
1169	1.1622e+02	-6.5292	-27.686677	0.000436	4.357986	1.476526	-0.000174
1170	1.1632e+02	-6.5822	-27.916794	0.000578	5.776865	1.957255	-0.000231
1171	1.1642e+02	-6.6078	-28.094428	0.000446	4.459335	1.510864	-0.000179
1172	1.1651e+02	-6.6528	-28.296284	0.000507	5.067426	1.716890	-0.000203
1173	1.1661e+02	-6.6848	-28.453733	0.000395	3.952592	1.339174	-0.000158
1174	1.1671e+02	-6.7298	-28.639441	0.000466	4.662032	1.579539	-0.000187
1175	1.1681e+02	-6.7715	-28.837261	0.000497	4.966077	1.682553	-0.000199
1176	1.1691e+02	-6.8116	-29.051229	0.000537	5.371471	1.819904	-0.000215
1177	1.1701e+02	-6.8469	-29.245011	0.000486	4.864729	1.648215	-0.000195
1178	1.1711e+02	-6.8902	-29.442831	0.000497	4.966077	1.682553	-0.000199
1179	1.1721e+02	-6.9207	-29.644688	0.000507	5.067426	1.716890	-0.000203
1180	1.1731e+02	-6.9752	-29.814247	0.000426	4.256638	1.442188	-0.000170
1181	1.1741e+02	-7.0121	-29.979770	0.000416	4.155289	1.407850	-0.000166
1182	1.1751e+02	-7.0474	-30.157404	0.000446	4.459335	1.510864	-0.000179
1183	1.1761e+02	-7.0779	-30.431929	0.000689	6.891699	2.334971	-0.000276
1184	1.1771e+02	-7.1292	-30.569192	0.000345	3.445850	1.167485	-0.000138
1185	1.1781e+02	-7.1822	-30.767011	0.000497	4.966077	1.682553	-0.000199
1186	1.1791e+02	-7.2158	-30.993091	0.000568	5.675517	1.922917	-0.000227
1187	1.1801e+02	-7.2479	-31.122279	0.000324	3.243153	1.098810	-0.000130
1188	1.1811e+02	-7.2832	-31.352396	0.000578	5.776865	1.957255	-0.000231
1189	1.1821e+02	-7.3281	-31.550216	0.000497	4.966077	1.682553	-0.000199
1190	1.1831e+02	-7.3714	-31.723813	0.000436	4.357986	1.476526	-0.000174
1191	1.1841e+02	-7.4116	-31.913558	0.000476	4.763380	1.613877	-0.000191
1192	1.1850e+02	-7.4404	-32.087155	0.000436	4.357986	1.476526	-0.000174
1193	1.1860e+02	-7.4902	-32.289012	0.000507	5.067426	1.716890	-0.000203
1194	1.1870e+02	-7.5271	-32.466646	0.000446	4.459335	1.510864	-0.000179
1195	1.1880e+02	-7.5624	-32.664465	0.000497	4.966077	1.682553	-0.000199
1196	1.1890e+02	-7.6121	-32.846136	0.000456	4.560683	1.545201	-0.000183
1197	1.1900e+02	-7.6426	-33.068179	0.000557	5.574168	1.888579	-0.000223
1198	1.1910e+02	-7.6859	-33.241776	0.000436	4.357986	1.476526	-0.000174
1199	1.1920e+02	-7.7164	-33.419410	0.000446	4.459335	1.510864	-0.000179
1200	1.1930e+02	-7.7613	-33.641452	0.000557	5.574168	1.888579	-0.000223
1201	1.1940e+02	-7.8046	-33.794863	0.000385	3.851244	1.304837	-0.000154
1202	1.1950e+02	-7.8527	-34.024980	0.000578	5.776865	1.957255	-0.000231
1203	1.1960e+02	-7.8848	-34.194540	0.000426	4.256638	1.442188	-0.000170
1204	1.1970e+02	-7.9329	-34.384285	0.000476	4.763380	1.613877	-0.000191
1205	1.1980e+02	-7.9602	-34.565956	0.000456	4.560683	1.545201	-0.000183
1206	1.1990e+02	-8.0067	-34.796073	0.000578	5.776865	1.957255	-0.000231
1207	1.2000e+02	-8.0372	-34.957558	0.000405	4.053941	1.373512	-0.000162
1208	1.2010e+02	-8.0805	-35.123081	0.000416	4.155289	1.407850	-0.000166
1209	1.2020e+02	-8.1190	-35.337049	0.000537	5.371471	1.819904	-0.000215
1210	1.2030e+02	-8.1639	-35.522757	0.000466	4.662032	1.579539	-0.000187
1211	1.2039e+02	-8.2121	-35.688280	0.000416	4.155289	1.407850	-0.000166
1212	1.2049e+02	-8.2329	-35.890137	0.000507	5.067426	1.716890	-0.000203
1213	1.2059e+02	-8.2778	-36.035474	0.000365	3.648547	1.236161	-0.000146
1214	1.2069e+02	-8.3260	-36.289813	0.000638	6.384957	2.163282	-0.000256
1215	1.2079e+02	-8.3629	-36.447261	0.000395	3.952592	1.339174	-0.000158
1216	1.2089e+02	-8.3933	-36.689490	0.000608	6.080911	2.060268	-0.000243
1217	1.2099e+02	-8.4431	-36.842901	0.000385	3.851244	1.304837	-0.000154
1218	1.2109e+02	-8.4832	-37.064943	0.000557	5.574168	1.888579	-0.000223
1219	1.2119e+02	-8.5201	-37.206243	0.000355	3.547198	1.201823	-0.000142
1220	1.2129e+02	-8.5730	-37.448471	0.000608	6.080911	2.060268	-0.000243
1221	1.2139e+02	-8.5939	-37.618031	0.000426	4.256638	1.442188	-0.000170
1222	1.2149e+02	-8.6372	-37.787591	0.000426	4.256638	1.442188	-0.000170
1223	1.2159e+02	-8.6869	-37.981373	0.000486	4.864729	1.648215	-0.000195
1224	1.2169e+02	-8.7142	-38.138821	0.000395	3.952592	1.339174	-0.000158
1225	1.2179e+02	-8.7607	-38.360864	0.000557	5.574168	1.888579	-0.000223
1226	1.2189e+02	-8.8056	-38.534461	0.000436	4.357986	1.476526	-0.000174
1227	1.2199e+02	-8.8425	-38.724206	0.000476	4.763380	1.613877	-0.000191
1228	1.2209e+02	-8.8826	-38.901840	0.000446	4.459335	1.510864	-0.000179
1229	1.2219e+02	-8.9163	-39.099660	0.000497	4.966077	1.682553	-0.000199
1230	1.2229e+02	-8.9548	-39.297479	0.000497	4.966077	1.682553	-0.000199
1231	1.2239e+02	-8.9981	-39.483188	0.000466	4.662032	1.579539	-0.000187
1232	1.2248e+02	-9.0334	-39.681007	0.000497	4.966077	1.682553	-0.000199
1233	1.2258e+02	-9.0832	-39.870753	0.000476	4.763380	1.613877	-0.000191
1234	1.2268e+02	-9.1169	-40.056461	0.000466	4.662032	1.579539	-0.000187
1235	1.2278e+02	-9.1505	-40.205835	0.000375	3.749895	1.270499	-0.000150
1236	1.2288e+02	-9.1971	-40.407692	0.000507	5.067426	1.716890	-0.000203
1237	1.2298e+02	-9.2388	-40.585326	0.000446	4.459335	1.510864	-0.000179
1238	1.2308e+02	-9.2821	-40.791219	0.000517	5.168774	1.751228	-0.000207
1239	1.2318e+02	-9.3222	-40.968853	0.000446	4.459335	1.510864	-0.000179
1240	1.2328e+02	-9.3607	-41.154562	0.000466	4.662032	1.579539	-0.000187
1241	1.2338e+02	-9.4008	-41.356419	0.000507	5.067426	1.716890	-0.000203
1242	1.2348e+02	-9.4457	-41.574424	0.000547	5.472820	1.854242	-0.000219
1243	1.2358e+02	-9.4794	-41.707649	0.000334	3.344501	1.133148	-0.000134
1244	1.2368e+02	-9.5243	-41.893358	0.000466	4.662032	1.579539	-0.000187
1245	1.2378e+02	-9.5596	-42.099251	0.000517	5.168774	1.751228	-0.000207
1246	1.2388e+02	-9.5965	-42.297071	0.000497	4.966077	1.682553	-0.000199
1247	1.2398e+02	-9.6398	-42.462594	0.000416	4.155289	1.407850	-0.000166
1248	1.2408e+02	-9.6799	-42.628116	0.000416	4.155289	1.407850	-0.000166
1249	1.2418e+02	-9.7152	-42.866307	0.000598	5.979562	2.025931	-0.000239
1250	1.2428e+02	-9.7505	-43.011644	0.000365	3.648547	1.236161	-0.000146
1251	1.2438e+02	-9.8003	-43.213501	0.000507	5.067426	1.716890	-0.000203
1252	1.2447e+02	-9.8388	-43.407283	0.000486	4.864729	1.648215	-0.000195
1253	1.2457e+02	-9.8708	-43.556657	0.000375	3.749895	1.270499	-0.000150
1254	1.2467e+02	-9.9158	-43.802923	0.000618	6.182260	2.094606	-0.000248
1255	1.2477e+02	-9.9607	-43.976520	0.000436	4.357986	1.476526	-0.000174
1256	1.2487e+02	-9.9944	-44.158191	0.000456	4.560683	1.545201	-0.000183
1257	1.2497e+02	-10.0377	-44.347936	0.000476	4.763380	1.613877	-0.000191
1258	1.2507e+02	-10.0826	-44.509422	0.000405	4.053941	1.373512	-0.000162
1259	1.2517e+02	-10.1163	-44.695130	0.000466	4.662032	1.579539	-0.000187
1260	1.2527e+02	-10.1548	-44.884875	0.000476	4.763380	1.613877	-0.000191
1261	1.2537e+02	-10.2013	-45.046361	0.000405	4.053941	1.373512	-0.000162
1262	1.2547e+02	-10.2446	-45.304737	0.000649	6.486305	2.197620	-0.000260
1263	1.2557e+02	-10.2703	-45.437963	0.000334	3.344501	1.133148	-0.000134
1264	1.2567e+02	-10.3088	-45.603485	0.000416	4.155289	1.407850	-0.000166
1265	1.2577e+02	-10.3553	-45.797268	0.000486	4.864729	1.648215	-0.000195
1266	1.2587e+02	-10.3858	-45.987013	0.000476	4.763380	1.613877	-0.000191
1267	1.2597e+02	-10.4371	-46.160610	0.000436	4.357986	1.476526	-0.000174
1268	1.2607e+02	-10.4692	-46.354393	0.000486	4.864729	1.648215	-0.000195
1269	1.2617e+02	-10.5157	-46.507804	0.000385	3.851244	1.304837	-0.000154
1270	1.2627e+02	-10.5510	-46.729846	0.000557	5.574168	1.888579	-0.000223
1271	1.2636e+02	-10.5911	-46.887294	0.000395	3.952592	1.339174	-0.000158
1272	1.2646e+02	-10.6361	-47.105300	0.000547	5.472820	1.854242	-0.000219
1273	1.2656e+02	-10.6874	-47.282934	0.000446	4.459335	1.510864	-0.000179
1274	1.2666e+02	-10.7147	-47.428271	0.000365	3.648547	1.236161	-0.000146
1275	1.2676e+02	-10.7564	-47.642239	0.000537	5.371471	1.819904	-0.000215
1276	1.2686e+02	-10.7949	-47.779501	0.000345	3.445850	1.167485	-0.000138
1277	1.2696e+02	-10.8398	-47.993470	0.000537	5.371471	1.819904	-0.000215
1278	1.2706e+02	-10.8735	-48.134769	0.000355	3.547198	1.201823	-0.000142
1279	1.2716e+02	-10.9168	-48.372960	0.000598	5.979562	2.025931	-0.000239
1280	1.2726e+02	-10.9569	-48.570780	0.000497	4.966077	1.682553	-0.000199
1281	1.2736e+02	-11.0002	-48.695931	0.000314	3.141804	1.064472	-0.000126
1282	1.2746e+02	-11.0339	-48.893751	0.000497	4.966077	1.682553	-0.000199
1283	1.2756e+02	-11.0724	-49.091571	0.000497	4.966077	1.682553	-0.000199
1284	1.2766e+02	-11.1141	-49.265167	0.000436	4.357986	1.476526	-0.000174
1285	1.2776e+02	-11.1430	-49.454913	0.000476	4.763380	1.613877	-0.000191
1286	1.2786e+02	-11.1863	-49.628510	0.000436	4.357986	1.476526	-0.000174
1287	1.2796e+02	-11.2344	-49.789995	0.000405	4.053941	1.373512	-0.000162
1288	1.2806e+02	-11.2745	-49.963592	0.000436	4.357986	1.476526	-0.000174
1289	1.2816e+02	-11.3179	-50.096817	0.000334	3.344501	1.133148	-0.000134
1290	1.2826e+02	-11.3467	-50.326934	0.000578	5.776865	1.957255	-0.000231
1291	1.2835e+02	-11.3852	-50.480345	0.000385	3.851244	1.304837	-0.000154
1292	1.2845e+02	-11.4334	-50.657979	0.000446	4.459335	1.510864	-0.000179
1293	1.2855e+02	-11.4638	-50.880022	0.000557	5.574168	1.888579	-0.000223
1294	1.2865e+02	-11.5104	-51.021321	0.000355	3.547198	1.201823	-0.000142
1295	1.2875e+02	-11.5441	-51.198955	0.000446	4.459335	1.510864	-0.000179
1296	1.2885e+02	-11.5826	-51.380627	0.000456	4.560683	1.545201	-0.000183
1297	1.2895e+02	-11.6307	-51.546149	0.000416	4.155289	1.407850	-0.000166
1298	1.2905e+02	-11.6692	-51.707635	0.000405	4.053941	1.373512	-0.000162
1299	1.2915e+02	-11.7125	-51.877194	0.000426	4.256638	1.442188	-0.000170
1300	1.2925e+02	-11.7382	-52.034643	0.000395	3.952592	1.339174	-0.000158
1301	1.2935e+02	-11.7959	-52.264759	0.000578	5.776865	1.957255	-0.000231
1302	1.2945e+02	-11.8248	-52.410096	0.000365	3.648547	1.236161	-0.000146
1303	1.2955e+02	-11.8713	-52.591767	0.000456	4.560683	1.545201	-0.000183
1304	1.2965e+02	-11.9066	-52.785550	0.000486	4.864729	1.648215	-0.000195
1305	1.2975e+02	-11.9499	-52.942998	0.000395	3.952592	1.339174	-0.000158
1306	1.2985e+02	-11.9884	-53.136781	0.000486	4.864729	1.648215	-0.000195
1307	1.2995e+02	-12.0253	-53.294229	0.000395	3.952592	1.339174	-0.000158
1308	1.3005e+02	-12.0719	-53.492049	0.000497	4.966077	1.682553	-0.000199
1309	1.3015e+02	-12.1104	-53.665645	0.000436	4.357986	1.476526	-0.000174
1310	1.3025e+02	-12.1537	-53.835205	0.000426	4.256638	1.442188	-0.000170
1311	1.3034e+02	-12.1825	-53.972468	0.000345	3.445850	1.167485	-0.000138
1312	1.3044e+02	-12.2243	-54.170287	0.000497	4.966077	1.682553	-0.000199
1313	1.3054e+02	-12.2724	-54.327736	0.000395	3.952592	1.339174	-0.000158
1314	1.3064e+02	-12.3173	-54.509407	0.000456	4.560683	1.545201	-0.000183
1315	1.3074e+02	-12.3430	-54.707226	0.000497	4.966077	1.682553	-0.000199
1316	1.3084e+02	-12.3895	-54.872749	0.000416	4.155289	1.407850	-0.000166
1317	1.3094e+02	-12.4312	-55.022123	0.000375	3.749895	1.270499	-0.000150
1318	1.3104e+02	-12.4665	-55.191683	0.000426	4.256638	1.442188	-0.000170
1319	1.3114e+02	-12.5050	-55.385465	0.000486	4.864729	1.648215	-0.000195
1320	1.3124e+02	-12.5435	-55.546951	0.000405	4.053941	1.373512	-0.000162
1321	1.3134e+02	-12.5948	-55.732659	0.000466	4.662032	1.579539	-0.000187
1322	1.3144e+02	-12.6317	-55.898181	0.000416	4.155289	1.407850	-0.000166
1323	1.3154e+02	-12.6574	-56.047555	0.000375	3.749895	1.270499	-0.000150
1324	1.3164e+02	-12.7055	-56.245375	0.000497	4.966077	1.682553	-0.000199
1325	1.3174e+02	-12.7440	-56.398786	0.000385	3.851244	1.304837	-0.000154
1326	1.3184e+02	-12.7809	-56.596606	0.000497	4.966077	1.682553	-0.000199
1327	1.3194e+02	-12.8307	-56.717720	0.000304	3.040456	1.030134	-0.000122
1328	1.3204e+02	-12.8643	-56.891317	0.000436	4.357986	1.476526	-0.000174
1329	1.3214e+02	-12.9012	-57.072988	0.000456	4.560683	1.545201	-0.000183
1330	1.3224e+02	-12.9478	-57.258696	0.000466	4.662032	1.579539	-0.000187
1331	1.3234e+02	-12.9702	-57.408070	0.000375	3.749895	1.270499	-0.000150
1332	1.3243e+02	-13.0232	-57.581667	0.000436	4.357986	1.476526	-0.000174
1333	1.3253e+02	-13.0633	-57.751227	0.000426	4.256638	1.442188	-0.000170
1334	1.3263e+02	-13.1002	-57.965195	0.000537	5.371471	1.819904	-0.000215
1335	1.3273e+02	-13.1419	-58.086309	0.000304	3.040456	1.030134	-0.000122
1336	1.3283e+02	-13.1804	-58.267980	0.000456	4.560683	1.545201	-0.000183
1337	1.3293e+02	-13.2237	-58.421391	0.000385	3.851244	1.304837	-0.000154
1338	1.3303e+02	-13.2590	-58.623248	0.000507	5.067426	1.716890	-0.000203
1339	1.3313e+02	-13.2975	-58.764548	0.000355	3.547198	1.201823	-0.000142
1340	1.3323e+02	-13.3360	-58.926033	0.000405	4.053941	1.373512	-0.000162
1341	1.3333e+02	-13.3793	-59.111741	0.000466	4.662032	1.579539	-0.000187
1342	1.3343e+02	-13.4290	-59.293413	0.000456	4.560683	1.545201	-0.000183
1343	1.3353e+02	-13.4595	-59.442787	0.000375	3.749895	1.270499	-0.000150
1344	1.3363e+02	-13.4932	-59.596198	0.000385	3.851244	1.304837	-0.000154
1345	1.3373e+02	-13.5445	-59.773832	0.000446	4.459335	1.510864	-0.000179
1346	1.3383e+02	-13.5798	-59.955503	0.000456	4.560683	1.545201	-0.000183
1347	1.3393e+02	-13.6071	-60.104877	0.000375	3.749895	1.270499	-0.000150
1348	1.3403e+02	-13.6633	-60.250214	0.000365	3.648547	1.236161	-0.000146
1349	1.3413e+02	-13.7018	-60.476293	0.000568	5.675517	1.922917	-0.000227
1350	1.3423e+02	-13.7419	-60.573185	0.000243	2.432364	0.824107	-0.000097
1351	1.3432e+02	-13.7755	-60.754856	0.000456	4.560683	1.545201	-0.000183
1352	1.3442e+02	-13.8189	-60.924415	0.000426	4.256638	1.442188	-0.000170
1353	1.3452e+02	-13.8622	-61.126272	0.000507	5.067426	1.716890	-0.000203
1354	1.3462e+02	-13.9055	-61.275646	0.000375	3.749895	1.270499	-0.000150
1355	1.3472e+02	-13.9408	-61.489614	0.000537	5.371471	1.819904	-0.000215
1356	1.3482e+02	-13.9809	-61.655137	0.000416	4.155289	1.407850	-0.000166
1357	1.3492e+02	-14.0146	-61.796437	0.000355	3.547198	1.201823	-0.000142
1358	1.3502e+02	-14.0611	-61.994256	0.000497	4.966077	1.682553	-0.000199
1359	1.3512e+02	-14.0996	-62.103259	0.000274	2.736410	0.927121	-0.000110
1360	1.3522e+02	-14.1381	-62.313190	0.000527	5.270123	1.785566	-0.000211
1361	1.3532e+02	-14.1750	-62.486787	0.000436	4.357986	1.476526	-0.000174
1362	1.3542e+02	-14.2247	-62.632124	0.000365	3.648547	1.236161	-0.000146
1363	1.3552e+02	-14.2536	-62.797646	0.000416	4.155289	1.407850	-0.000166
1364	1.3562e+02	-14.3049	-63.003540	0.000517	5.168774	1.751228	-0.000207
1365	1.3572e+02	-14.3434	-63.165026	0.000405	4.053941	1.373512	-0.000162
1366	1.3582e+02	-14.3771	-63.338623	0.000436	4.357986	1.476526	-0.000174
1367	1.3592e+02	-14.4204	-63.471848	0.000334	3.344501	1.133148	-0.000134
1368	1.3602e+02	-14.4509	-63.645445	0.000436	4.357986	1.476526	-0.000174
1369	1.3612e+02	-14.4975	-63.831153	0.000466	4.662032	1.579539	-0.000187
1370	1.3622e+02	-14.5424	-64.016861	0.000466	4.662032	1.579539	-0.000187
1371	1.3631e+02	-14.5793	-64.154124	0.000345	3.445850	1.167485	-0.000138
1372	1.3641e+02	-14.6194	-64.311572	0.000395	3.952592	1.339174	-0.000158
1373	1.3651e+02	-14.6563	-64.497281	0.000466	4.662032	1.579539	-0.000187
1374	1.3661e+02	-14.6980	-64.622432	0.000314	3.141804	1.064472	-0.000126
1375	1.3671e+02	-14.7333	-64.852548	0.000578	5.776865	1.957255	-0.000231
1376	1.3681e+02	-14.7702	-64.993848	0.000355	3.547198	1.201823	-0.000142
1377	1.3691e+02	-14.8231	-65.167445	0.000436	4.357986	1.476526	-0.000174
1378	1.3701e+02	-14.8600	-65.361228	0.000486	4.864729	1.648215	-0.000195
1379	1.3711e+02	-14.8969	-65.522713	0.000405	4.053941	1.373512	-0.000162
1380	1.3721e+02	-14.9386	-65.672087	0.000375	3.749895	1.270499	-0.000150
1381	1.3731e+02	-14.9707	-65.877981	0.000517	5.168774	1.751228	-0.000207
1382	1.3741e+02	-15.0172	-66.015244	0.000345	3.445850	1.167485	-0.000138
1383	1.3751e+02	-15.0557	-66.221138	0.000517	5.168774	1.751228	-0.000207
1384	1.3761e+02	-15.0894	-66.346289	0.000314	3.141804	1.064472	-0.000126
1385	1.3771e+02	-15.1359	-66.523923	0.000446	4.459335	1.510864	-0.000179
1386	1.3781e+02	-15.1744	-66.705594	0.000456	4.560683	1.545201	-0.000183
1387	1.3791e+02	-15.2226	-66.883228	0.000446	4.459335	1.510864	-0.000179
1388	1.3801e+02	-15.2466	-67.052787	0.000426	4.256638	1.442188	-0.000170
1389	1.3811e+02	-15.2948	-67.206199	0.000385	3.851244	1.304837	-0.000154
1390	1.3821e+02	-15.3333	-67.367684	0.000405	4.053941	1.373512	-0.000162
1391	1.3831e+02	-15.3798	-67.525132	0.000395	3.952592	1.339174	-0.000158
1392	1.3840e+02	-15.4151	-67.714878	0.000476	4.763380	1.613877	-0.000191
1393	1.3850e+02	-15.4536	-67.884437	0.000426	4.256638	1.442188	-0.000170
1394	1.3860e+02	-15.4937	-68.070146	0.000466	4.662032	1.579539	-0.000187
1395	1.3870e+02	-15.5482	-68.215483	0.000365	3.648547	1.236161	-0.000146
1396	1.3880e+02	-15.5755	-68.405228	0.000476	4.763380	1.613877	-0.000191
1397	1.3890e+02	-15.6092	-68.566713	0.000405	4.053941	1.373512	-0.000162
1398	1.3900e+02	-15.6557	-68.732236	0.000416	4.155289	1.407850	-0.000166
1399	1.3910e+02	-15.6878	-68.909870	0.000446	4.459335	1.510864	-0.000179
1400	1.3920e+02	-15.7359	-69.059244	0.000375	3.749895	1.270499	-0.000150
1401	1.3930e+02	-15.7808	-69.228804	0.000426	4.256638	1.442188	-0.000170
1402	1.3940e+02	-15.8161	-69.402400	0.000436	4.357986	1.476526	-0.000174
1403	1.3950e+02	-15.8546	-69.588109	0.000466	4.662032	1.579539	-0.000187
1404	1.3960e+02	-15.8899	-69.753631	0.000416	4.155289	1.407850	-0.000166
1405	1.3970e+02	-15.9316	-69.955488	0.000507	5.067426	1.716890	-0.000203
1406	1.3980e+02	-15.9653	-70.076602	0.000304	3.040456	1.030134	-0.000122
1407	1.3990e+02	-16.0102	-70.298645	0.000557	5.574168	1.888579	-0.000223
1408	1.4000e+02	-16.0503	-70.395536	0.000243	2.432364	0.824107	-0.000097
1409	1.4010e+02	-16.0872	-70.613541	0.000547	5.472820	1.854242	-0.000219
1410	1.4020e+02	-16.1322	-70.766952	0.000385	3.851244	1.304837	-0.000154
1411	1.4029e+02	-16.1755	-70.932475	0.000416	4.155289	1.407850	-0.000166
1412	1.4039e+02	-16.2108	-71.089923	0.000395	3.952592	1.339174	-0.000158
1413	1.4049e+02	-16.2573	-71.283706	0.000486	4.864729	1.648215	-0.000195
1414	1.4059e+02	-16.2910	-71.461340	0.000446	4.459335	1.510864	-0.000179
1415	1.4069e+02	-16.3279	-71.622825	0.000405	4.053941	1.373512	-0.000162
1416	1.4079e+02	-16.3712	-71.784311	0.000405	4.053941	1.373512	-0.000162
1417	1.4089e+02	-16.4129	-71.986167	0.000507	5.067426	1.716890	-0.000203
1418	1.4099e+02	-16.4546	-72.188024	0.000507	5.067426	1.716890	-0.000203
1419	1.4109e+02	-16.4867	-72.301064	0.000284	2.837758	0.961459	-0.000114
1420	1.4119e+02	-16.5380	-72.519069	0.000547	5.472820	1.854242	-0.000219
1421	1.4129e+02	-16.5733	-72.680555	0.000405	4.053941	1.373512	-0.000162
1422	1.4139e+02	-16.6150	-72.821854	0.000355	3.547198	1.201823	-0.000142
1423	1.4149e+02	-16.6439	-73.039860	0.000547	5.472820	1.854242	-0.000219
1424	1.4159e+02	-16.6856	-73.225568	0.000466	4.662032	1.579539	-0.000187
1425	1.4169e+02	-16.7273	-73.366868	0.000355	3.547198	1.201823	-0.000142
1426	1.4179e+02	-16.7674	-73.564687	0.000497	4.966077	1.682553	-0.000199
1427	1.4189e+02	-16.8059	-73.758470	0.000486	4.864729	1.648215	-0.000195
1428	1.4199e+02	-16.8493	-73.928030	0.000426	4.256638	1.442188	-0.000170
1429	1.4209e+02	-16.8894	-74.081441	0.000385	3.851244	1.304837	-0.000154
1430	1.4219e+02	-16.9407	-74.283298	0.000507	5.067426	1.716890	-0.000203
1431	1.4228e+02	-16.9712	-74.505340	0.000557	5.574168	1.888579	-0.000223
1432	1.4238e+02	-17.0081	-74.590120	0.000213	2.128319	0.721094	-0.000085
1433	1.4248e+02	-17.0514	-74.779865	0.000476	4.763380	1.613877	-0.000191
1434	1.4258e+02	-17.0819	-75.001908	0.000557	5.574168	1.888579	-0.000223
1435	1.4268e+02	-17.1268	-75.151282	0.000375	3.749895	1.270499	-0.000150
1436	1.4278e+02	-17.1637	-75.345064	0.000486	4.864729	1.648215	-0.000195
1437	1.4288e+02	-17.2086	-75.514624	0.000426	4.256638	1.442188	-0.000170
1438	1.4298e+02	-17.2439	-75.704369	0.000476	4.763380	1.613877	-0.000191
1439	1.4308e+02	-17.2920	-75.882003	0.000446	4.459335	1.510864	-0.000179
1440	1.4318e+02	-17.3273	-76.075786	0.000486	4.864729	1.648215	-0.000195
1441	1.4328e+02	-17.3706	-76.273605	0.000497	4.966077	1.682553	-0.000199
1442	1.4338e+02	-17.4091	-76.410868	0.000345	3.445850	1.167485	-0.000138
1443	1.4348e+02	-17.4412	-76.649059	0.000598	5.979562	2.025931	-0.000239
1444	1.4358e+02	-17.4781	-76.786322	0.000345	3.445850	1.167485	-0.000138
1445	1.4368e+02	-17.5246	-76.963956	0.000446	4.459335	1.510864	-0.000179
1446	1.4378e+02	-17.5615	-77.169850	0.000517	5.168774	1.751228	-0.000207
1447	1.4388e+02	-17.6049	-77.363632	0.000486	4.864729	1.648215	-0.000195
1448	1.4398e+02	-17.6417	-77.569526	0.000517	5.168774	1.751228	-0.000207
1449	1.4408e+02	-17.6867	-77.743123	0.000436	4.357986	1.476526	-0.000174
1450	1.4418e+02	-17.7236	-77.949017	0.000517	5.168774	1.751228	-0.000207
1451	1.4428e+02	-17.7717	-78.146836	0.000497	4.966077	1.682553	-0.000199
1452	1.4437e+02	-17.8022	-78.320433	0.000436	4.357986	1.476526	-0.000174
1453	1.4447e+02	-17.8439	-78.506142	0.000466	4.662032	1.579539	-0.000187
1454	1.4457e+02	-17.8856	-78.663590	0.000395	3.952592	1.339174	-0.000158
1455	1.4467e+02	-17.9241	-78.905818	0.000608	6.080911	2.060268	-0.000243
1456	1.4477e+02	-17.9578	-79.095563	0.000476	4.763380	1.613877	-0.000191
1457	1.4487e+02	-18.0139	-79.309532	0.000537	5.371471	1.819904	-0.000215
1458	1.4497e+02	-18.0492	-79.503314	0.000486	4.864729	1.648215	-0.000195
1459	1.4507e+02	-18.0829	-79.684985	0.000456	4.560683	1.545201	-0.000183
1460	1.4517e+02	-18.1198	-79.878768	0.000486	4.864729	1.648215	-0.000195
1461	1.4527e+02	-18.1679	-80.125033	0.000618	6.182260	2.094606	-0.000248
1462	1.4537e+02	-18.1952	-80.322853	0.000497	4.966077	1.682553	-0.000199
1463	1.4547e+02	-18.2498	-80.504524	0.000456	4.560683	1.545201	-0.000183
1464	1.4557e+02	-18.2802	-80.702343	0.000497	4.966077	1.682553	-0.000199
1465	1.4567e+02	-18.3235	-80.924386	0.000557	5.574168	1.888579	-0.000223
1466	1.4577e+02	-18.3653	-81.114131	0.000476	4.763380	1.613877	-0.000191
1467	1.4587e+02	-18.4006	-81.332137	0.000547	5.472820	1.854242	-0.000219
1468	1.4597e+02	-18.4471	-81.562253	0.000578	5.776865	1.957255	-0.000231
1469	1.4607e+02	-18.4872	-81.743924	0.000456	4.560683	1.545201	-0.000183
1470	1.4617e+02	-18.5128	-81.986153	0.000608	6.080911	2.060268	-0.000243
1471	1.4626e+02	-18.5658	-82.171861	0.000466	4.662032	1.579539	-0.000187
1472	1.4636e+02	-18.6043	-82.438312	0.000669	6.689002	2.266295	-0.000268
1473	1.4646e+02	-18.6412	-82.652280	0.000537	5.371471	1.819904	-0.000215
1474	1.4656e+02	-18.6893	-82.878360	0.000568	5.675517	1.922917	-0.000227
1475	1.4666e+02	-18.7150	-83.088291	0.000527	5.270123	1.785566	-0.000211
1476	1.4676e+02	-18.7647	-83.326482	0.000598	5.979562	2.025931	-0.000239
1477	1.4686e+02	-18.8048	-83.516227	0.000476	4.763380	1.613877	-0.000191
1478	1.4696e+02	-18.8433	-83.750381	0.000588	5.878214	1.991593	-0.000235
1479	1.4706e+02	-18.8770	-83.956275	0.000517	5.168774	1.751228	-0.000207
1480	1.4716e+02	-18.9219	-84.198503	0.000608	6.080911	2.060268	-0.000243
1481	1.4726e+02	-18.9604	-84.456880	0.000649	6.486305	2.197620	-0.000260
1482	1.4736e+02	-19.0070	-84.682959	0.000568	5.675517	1.922917	-0.000227
1483	1.4746e+02	-19.0455	-84.909039	0.000568	5.675517	1.922917	-0.000227
1484	1.4756e+02	-19.0840	-85.155304	0.000618	6.182260	2.094606	-0.000248
1485	1.4766e+02	-19.1273	-85.413681	0.000649	6.486305	2.197620	-0.000260
1486	1.4776e+02	-19.1658	-85.672057	0.000649	6.486305	2.197620	-0.000260
1487	1.4786e+02	-19.1979	-85.902174	0.000578	5.776865	1.957255	-0.000231
1488	1.4796e+02	-19.2492	-86.160551	0.000649	6.486305	2.197620	-0.000260
1489	1.4806e+02	-19.2781	-86.398742	0.000598	5.979562	2.025931	-0.000239
1490	1.4816e+02	-19.3214	-86.705564	0.000770	7.702487	2.609673	-0.000308
1491	1.4825e+02	-19.3615	-86.955867	0.000628	6.283608	2.128944	-0.000252
1492	1.4835e+02	-19.3984	-87.194058	0.000598	5.979562	2.025931	-0.000239
1493	1.4845e+02	-19.4385	-87.460509	0.000669	6.689002	2.266295	-0.000268
1494	1.4855e+02	-19.4770	-87.730997	0.000679	6.790351	2.300633	-0.000272
1495	1.4865e+02	-19.5171	-87.985336	0.000638	6.384957	2.163282	-0.000256
1496	1.4875e+02	-19.5476	-88.259862	0.000689	6.891699	2.334971	-0.000276
1497	1.4885e+02	-19.5973	-88.534387	0.000689	6.891699	2.334971	-0.000276
1498	1.4895e+02	-19.6326	-88.821023	0.000720	7.195745	2.437984	-0.000288
1499	1.4905e+02	-19.6743	-89.063252	0.000608	6.080911	2.060268	-0.000243
1500	1.4915e+02	-19.7144	-89.362000	0.000750	7.499790	2.540998	-0.000300
1501	1.4925e+02	-19.7497	-89.636525	0.000689	6.891699	2.334971	-0.000276
1502	1.4935e+02	-19.8010	-89.902976	0.000669	6.689002	2.266295	-0.000268
1503	1.4945e+02	-19.8428	-90.221909	0.000801	8.006533	2.712687	-0.000321
1504	1.4955e+02	-19.8700	-90.500472	0.000699	6.993048	2.369309	-0.000280
1505	1.4965e+02	-19.9149	-90.795183	0.000740	7.398442	2.506660	-0.000296
1506	1.4975e+02	-19.9486	-91.102005	0.000770	7.702487	2.609673	-0.000308
1507	1.4985e+02	-20.0000	-91.388642	0.000720	7.195745	2.437984	-0.000288
1508	1.4995e+02	-19.9534	-91.461310	-0.000182	-1.824273	-0.618081	-0.000073
1509	1.5005e+02	-19.9198	-91.517830	-0.000142	-1.418879	-0.480729	-0.000057
1510	1.5015e+02	-19.8732	-91.521867	-0.000010	-0.101349	-0.034338	-0.000004
1511	1.5025e+02	-19.8379	-91.578387	-0.000142	-1.418879	-0.480729	-0.000057
1512	1.5034e+02	-19.7978	-91.590498	-0.000030	-0.304046	-0.103013	-0.000012
1513	1.5044e+02	-19.7561	-91.614721	-0.000061	-0.608091	-0.206027	-0.000024
1514	1.5054e+02	-19.7160	-91.594536	0.000051	0.506743	0.171689	0.000020
1515	1.5064e+02	-19.6775	-91.618758	-0.000061	-0.608091	-0.206027	-0.000024
1516	1.5074e+02	-19.6342	-91.618758	0.000000	0.000000	0.000000	0.000000
1517	1.5084e+02	-19.6005	-91.626833	-0.000020	-0.202697	-0.068676	-0.000008
1518	1.5094e+02	-19.5540	-91.586461	0.000101	1.013485	0.343378	0.000041
1519	1.5104e+02	-19.5123	-91.554164	0.000081	0.810788	0.274702	0.000032
1520	1.5114e+02	-19.4754	-91.554164	0.000000	0.000000	0.000000	0.000000
1521	1.5124e+02	-19.4401	-91.538016	0.000041	0.405394	0.137351	0.000016
1522	1.5134e+02	-19.4032	-91.465347	0.000182	1.824273	0.618081	0.000073
1523	1.5144e+02	-19.3487	-91.441124	0.000061	0.608091	0.206027	0.000024
1524	1.5154e+02	-19.3182	-91.396716	0.000111	1.114834	0.377716	0.000045
1525	1.5164e+02	-19.2813	-91.360382	0.000091	0.912137	0.309040	0.000037
1526	1.5174e+02	-19.2380	-91.299825	0.000152	1.520228	0.515067	0.000061
1527	1.5184e+02	-19.1995	-91.295788	0.000010	0.101349	0.034338	0.000004
1528	1.5194e+02	-19.1690	-91.219082	0.000193	1.925622	0.652418	0.000077
1529	1.5204e+02	-19.1160	-91.170636	0.000122	1.216182	0.412054	0.000049
1530	1.5214e+02	-19.0856	-91.126228	0.000111	1.114834	0.377716	0.000045
1531	1.5224e+02	-19.0294	-91.065671	0.000152	1.520228	0.515067	0.000061
1532	1.5233e+02	-19.0053	-90.988965	0.000193	1.925622	0.652418	0.000077
1533	1.5243e+02	-18.9620	-90.940520	0.000122	1.216182	0.412054	0.000049
1534	1.5253e+02	-18.9235	-90.871888	0.000172	1.722925	0.583743	0.000069
1535	1.5263e+02	-18.8866	-90.795183	0.000193	1.925622	0.652418	0.000077
1536	1.5273e+02	-18.8417	-90.758849	0.000091	0.912137	0.309040	0.000037
1537	1.5283e+02	-18.8016	-90.617549	0.000355	3.547198	1.201823	0.000142
1538	1.5293e+02	-18.7647	-90.565066	0.000132	1.317531	0.446391	0.000053
1539	1.5303e+02	-18.7166	-90.512583	0.000132	1.317531	0.446391	0.000053
1540	1.5313e+02	-18.6813	-90.423766	0.000223	2.229667	0.755432	0.000089
1541	1.5323e+02	-18.6428	-90.326875	0.000243	2.432364	0.824107	0.000097
1542	1.5333e+02	-18.5995	-90.262281	0.000162	1.621576	0.549405	0.000065
1543	1.5343e+02	-18.5610	-90.185575	0.000193	1.925622	0.652418	0.000077
1544	1.5353e+02	-18.5193	-90.116944	0.000172	1.722925	0.583743	0.000069
1545	1.5363e+02	-18.4856	-89.999867	0.000294	2.939107	0.995796	0.000118
1546	1.5373e+02	-18.4439	-89.927199	0.000182	1.824273	0.618081	0.000073
1547	1.5383e+02	-18.3941	-89.854530	0.000182	1.824273	0.618081	0.000073
1548	1.5393e+02	-18.3653	-89.741490	0.000284	2.837758	0.961459	0.000114
1549	1.5403e+02	-18.3155	-89.648636	0.000233	2.331016	0.789770	0.000093
1550	1.5413e+02	-18.2866	-89.551745	0.000243	2.432364	0.824107	0.000097
1551	1.5422e+02	-18.2449	-89.503299	0.000122	1.216182	0.412054	0.000049
1552	1.5432e+02	-18.2000	-89.357962	0.000365	3.648547	1.236161	0.000146
1553	1.5442e+02	-18.1663	-89.289331	0.000172	1.722925	0.583743	0.000069
1554	1.5452e+02	-18.1294	-89.200514	0.000223	2.229667	0.755432	0.000089
1555	1.5462e+02	-18.0781	-89.091511	0.000274	2.736410	0.927121	0.000110
1556	1.5472e+02	-18.0412	-89.002694	0.000223	2.229667	0.755432	0.000089
1557	1.5482e+02	-18.0107	-88.885618	0.000294	2.939107	0.995796	0.000118
1558	1.5492e+02	-17.9722	-88.784689	0.000253	2.533713	0.858445	0.000101
1559	1.5502e+02	-17.9305	-88.703946	0.000203	2.026970	0.686756	0.000081
1560	1.5512e+02	-17.8744	-88.554572	0.000375	3.749895	1.270499	0.000150
1561	1.5522e+02	-17.8455	-88.485941	0.000172	1.722925	0.583743	0.000069
1562	1.5532e+02	-17.7958	-88.413273	0.000182	1.824273	0.618081	0.000073
1563	1.5542e+02	-17.7669	-88.288121	0.000314	3.141804	1.064472	0.000126
1564	1.5552e+02	-17.7204	-88.150859	0.000345	3.445850	1.167485	0.000138
1565	1.5562e+02	-17.6931	-88.082228	0.000172	1.722925	0.583743	0.000069
1566	1.5572e+02	-17.6417	-87.920742	0.000405	4.053941	1.373512	0.000162
1567	1.5582e+02	-17.6081	-87.880371	0.000101	1.013485	0.343378	0.000041
1568	1.5592e+02	-17.5680	-87.747145	0.000334	3.344501	1.133148	0.000134
1569	1.5602e+02	-17.5295	-87.634105	0.000284	2.837758	0.961459	0.000114
1570	1.5612e+02	-17.4813	-87.504917	0.000324	3.243153	1.098810	0.000130
1571	1.5622e+02	-17.4557	-87.436286	0.000172	1.722925	0.583743	0.000069
1572	1.5631e+02	-17.3931	-87.294986	0.000355	3.547198	1.201823	0.000142
1573	1.5641e+02	-17.3578	-87.173872	0.000304	3.040456	1.030134	0.000122
1574	1.5651e+02	-17.3305	-87.036609	0.000345	3.445850	1.167485	0.000138
1575	1.5661e+02	-17.2920	-86.947792	0.000223	2.229667	0.755432	0.000089
1576	1.5671e+02	-17.2519	-86.838790	0.000274	2.736410	0.927121	0.000110
1577	1.5681e+02	-17.2118	-86.741898	0.000243	2.432364	0.824107	0.000097
1578	1.5691e+02	-17.1717	-86.592524	0.000375	3.749895	1.270499	0.000150
1579	1.5701e+02	-17.1316	-86.540042	0.000132	1.317531	0.446391	0.000053
1580	1.5711e+02	-17.0851	-86.366445	0.000436	4.357986	1.476526	0.000174
1581	1.5721e+02	-17.0498	-86.285702	0.000203	2.026970	0.686756	0.000081
1582	1.5731e+02	-17.0033	-86.192848	0.000233	2.331016	0.789770	0.000093
1583	1.5741e+02	-16.9712	-86.063660	0.000324	3.243153	1.098810	0.000130
1584	1.5751e+02	-16.9311	-85.914286	0.000375	3.749895	1.270499	0.000150
1585	1.5761e+02	-16.8910	-85.801246	0.000284	2.837758	0.961459	0.000114
1586	1.5771e+02	-16.8428	-85.680132	0.000304	3.040456	1.030134	0.000122
1587	1.5781e+02	-16.8092	-85.554981	0.000314	3.141804	1.064472	0.000126
1588	1.5791e+02	-16.7755	-85.425792	0.000324	3.243153	1.098810	0.000130
1589	1.5801e+02	-16.7177	-85.328901	0.000243	2.432364	0.824107	0.000097
1590	1.5811e+02	-16.6856	-85.211824	0.000294	2.939107	0.995796	0.000118
1591	1.5821e+02	-16.6503	-85.090710	0.000304	3.040456	1.030134	0.000122
1592	1.5830e+02	-16.6182	-85.001893	0.000223	2.229667	0.755432	0.000089
1593	1.5840e+02	-16.5733	-84.860593	0.000355	3.547198	1.201823	0.000142
1594	1.5850e+02	-16.5236	-84.731405	0.000324	3.243153	1.098810	0.000130
1595	1.5860e+02	-16.4899	-84.577994	0.000385	3.851244	1.304837	0.000154
1596	1.5870e+02	-16.4418	-84.489177	0.000223	2.229667	0.755432	0.000089
1597	1.5880e+02	-16.4129	-84.380174	0.000274	2.736410	0.927121	0.000110
1598	1.5890e+02	-16.3728	-84.291357	0.000223	2.229667	0.755432	0.000089
1599	1.5900e+02	-16.3279	-84.154094	0.000345	3.445850	1.167485	0.000138
1600	1.5910e+02	-16.2942	-84.008758	0.000365	3.648547	1.236161	0.000146
1601	1.5920e+02	-16.2445	-83.911866	0.000243	2.432364	0.824107	0.000097
1602	1.5930e+02	-16.2124	-83.726158	0.000466	4.662032	1.579539	0.000187
1603	1.5940e+02	-16.1546	-83.641378	0.000213	2.128319	0.721094	0.000085
1604	1.5950e+02	-16.1290	-83.483930	0.000395	3.952592	1.339174	0.000158
1605	1.5960e+02	-16.0905	-83.366853	0.000294	2.939107	0.995796	0.000118
1606	1.5970e+02	-16.0407	-83.221516	0.000365	3.648547	1.236161	0.000146
1607	1.5980e+02	-16.0215	-83.132699	0.000223	2.229667	0.755432	0.000089
1608	1.5990e+02	-15.9766	-83.015622	0.000294	2.939107	0.995796	0.000118
1609	1.6000e+02	-15.9348	-82.866248	0.000375	3.749895	1.270499	0.000150
1610	1.6010e+02	-15.9060	-82.765320	0.000253	2.533713	0.858445	0.000101
1611	1.6019e+02	-15.8594	-82.603834	0.000405	4.053941	1.373512	0.000162
1612	1.6029e+02	-15.8113	-82.506943	0.000243	2.432364	0.824107	0.000097
1613	1.6039e+02	-15.7712	-82.365643	0.000355	3.547198	1.201823	0.000142
1614	1.6049e+02	-15.7343	-82.216269	0.000375	3.749895	1.270499	0.000150
1615	1.6059e+02	-15.6958	-82.119378	0.000243	2.432364	0.824107	0.000097
1616	1.6069e+02	-15.6525	-81.965967	0.000385	3.851244	1.304837	0.000154
1617	1.6079e+02	-15.6156	-81.848890	0.000294	2.939107	0.995796	0.000118
1618	1.6089e+02	-15.5691	-81.679330	0.000426	4.256638	1.442188	0.000170
1619	1.6099e+02	-15.5322	-81.586476	0.000233	2.331016	0.789770	0.000093
1620	1.6109e+02	-15.4969	-81.404805	0.000456	4.560683	1.545201	0.000183
1621	1.6119e+02	-15.4632	-81.328099	0.000193	1.925622	0.652418	0.000077
1622	1.6129e+02	-15.4151	-81.162577	0.000416	4.155289	1.407850	0.000166
1623	1.6139e+02	-15.3766	-81.029351	0.000334	3.344501	1.133148	0.000134
1624	1.6149e+02	-15.3445	-80.900163	0.000324	3.243153	1.098810	0.000130
1625	1.6159e+02	-15.2819	-80.779049	0.000304	3.040456	1.030134	0.000122
1626	1.6169e+02	-15.2563	-80.625638	0.000385	3.851244	1.304837	0.000154
1627	1.6179e+02	-15.2226	-80.500487	0.000314	3.141804	1.064472	0.000126
1628	1.6189e+02	-15.1776	-80.371298	0.000324	3.243153	1.098810	0.000130
1629	1.6199e+02	-15.1359	-80.217887	0.000385	3.851244	1.304837	0.000154
1630	1.6209e+02	-15.0990	-80.064476	0.000385	3.851244	1.304837	0.000154
1631	1.6219e+02	-15.0637	-79.959510	0.000264	2.635061	0.892783	0.000105
1632	1.6228e+02	-15.0124	-79.826285	0.000334	3.344501	1.133148	0.000134
1633	1.6238e+02	-14.9755	-79.705171	0.000304	3.040456	1.030134	0.000122
1634	1.6248e+02	-14.9418	-79.539648	0.000416	4.155289	1.407850	0.000166
1635	1.6258e+02	-14.9001	-79.406423	0.000334	3.344501	1.133148	0.000134
1636	1.6268e+02	-14.8664	-79.244937	0.000405	4.053941	1.373512	0.000162
1637	1.6278e+02	-14.8183	-79.135935	0.000274	2.736410	0.927121	0.000110
1638	1.6288e+02	-14.7638	-78.958301	0.000446	4.459335	1.510864	0.000179
1639	1.6298e+02	-14.7253	-78.853335	0.000264	2.635061	0.892783	0.000105
1640	1.6308e+02	-14.6948	-78.695887	0.000395	3.952592	1.339174	0.000158
1641	1.6318e+02	-14.6675	-78.574773	0.000304	3.040456	1.030134	0.000122
1642	1.6328e+02	-14.6210	-78.445585	0.000324	3.243153	1.098810	0.000130
1643	1.6338e+02	-14.5873	-78.304285	0.000355	3.547198	1.201823	0.000142
1644	1.6348e+02	-14.5360	-78.183171	0.000304	3.040456	1.030134	0.000122
1645	1.6358e+02	-14.5071	-78.033797	0.000375	3.749895	1.270499	0.000150
1646	1.6368e+02	-14.4541	-77.831940	0.000507	5.067426	1.716890	0.000203
1647	1.6378e+02	-14.4140	-77.735049	0.000243	2.432364	0.824107	0.000097
1648	1.6388e+02	-14.3868	-77.613935	0.000304	3.040456	1.030134	0.000122
1649	1.6398e+02	-14.3370	-77.464561	0.000375	3.749895	1.270499	0.000150
1650	1.6408e+02	-14.2985	-77.278852	0.000466	4.662032	1.579539	0.000187
1651	1.6418e+02	-14.2504	-77.161775	0.000294	2.939107	0.995796	0.000118
1652	1.6427e+02	-14.2263	-77.016438	0.000365	3.648547	1.236161	0.000146
1653	1.6437e+02	-14.1766	-76.846879	0.000426	4.256638	1.442188	0.000170
1654	1.6447e+02	-14.1349	-76.758062	0.000223	2.229667	0.755432	0.000089
1655	1.6457e+02	-14.0964	-76.600613	0.000395	3.952592	1.339174	0.000158
1656	1.6467e+02	-14.0579	-76.439128	0.000405	4.053941	1.373512	0.000162
1657	1.6477e+02	-14.0146	-76.293791	0.000365	3.648547	1.236161	0.000146
1658	1.6487e+02	-13.9793	-76.168640	0.000314	3.141804	1.064472	0.000126
1659	1.6497e+02	-13.9360	-75.995043	0.000436	4.357986	1.476526	0.000174
1660	1.6507e+02	-13.9023	-75.882003	0.000284	2.837758	0.961459	0.000114
1661	1.6517e+02	-13.8686	-75.736666	0.000365	3.648547	1.236161	0.000146
1662	1.6527e+02	-13.8140	-75.571144	0.000416	4.155289	1.407850	0.000166
1663	1.6537e+02	-13.7788	-75.450030	0.000304	3.040456	1.030134	0.000122
1664	1.6547e+02	-13.7290	-75.292582	0.000395	3.952592	1.339174	0.000158
1665	1.6557e+02	-13.7050	-75.127059	0.000416	4.155289	1.407850	0.000166
1666	1.6567e+02	-13.6649	-74.961536	0.000416	4.155289	1.407850	0.000166
1667	1.6577e+02	-13.6199	-74.848497	0.000284	2.837758	0.961459	0.000114
1668	1.6587e+02	-13.5798	-74.646640	0.000507	5.067426	1.716890	0.000203
1669	1.6597e+02	-13.5413	-74.537637	0.000274	2.736410	0.927121	0.000110
1670	1.6607e+02	-13.5028	-74.388263	0.000375	3.749895	1.270499	0.000150
1671	1.6616e+02	-13.4531	-74.246963	0.000355	3.547198	1.201823	0.000142
1672	1.6626e+02	-13.4306	-74.093552	0.000385	3.851244	1.304837	0.000154
1673	1.6636e+02	-13.3857	-73.964364	0.000324	3.243153	1.098810	0.000130
1674	1.6646e+02	-13.3408	-73.831138	0.000334	3.344501	1.133148	0.000134
1675	1.6656e+02	-13.2991	-73.605059	0.000568	5.675517	1.922917	0.000227
1676	1.6666e+02	-13.2718	-73.516242	0.000223	2.229667	0.755432	0.000089
1677	1.6676e+02	-13.2253	-73.366868	0.000375	3.749895	1.270499	0.000150
1678	1.6686e+02	-13.1788	-73.177122	0.000476	4.763380	1.613877	0.000191
1679	1.6696e+02	-13.1515	-73.056008	0.000304	3.040456	1.030134	0.000122
1680	1.6706e+02	-13.1002	-72.894523	0.000405	4.053941	1.373512	0.000162
1681	1.6716e+02	-13.0665	-72.733037	0.000405	4.053941	1.373512	0.000162
1682	1.6726e+02	-13.0296	-72.615961	0.000294	2.939107	0.995796	0.000118
1683	1.6736e+02	-12.9798	-72.393918	0.000557	5.574168	1.888579	0.000223
1684	1.6746e+02	-12.9478	-72.292990	0.000253	2.533713	0.858445	0.000101
1685	1.6756e+02	-12.9061	-72.131504	0.000405	4.053941	1.373512	0.000162
1686	1.6766e+02	-12.8676	-72.006353	0.000314	3.141804	1.064472	0.000126
1687	1.6776e+02	-12.8226	-71.848905	0.000395	3.952592	1.339174	0.000158
1688	1.6786e+02	-12.7857	-71.663196	0.000466	4.662032	1.579539	0.000187
1689	1.6796e+02	-12.7520	-71.525934	0.000345	3.445850	1.167485	0.000138
1690	1.6806e+02	-12.7039	-71.384634	0.000355	3.547198	1.201823	0.000142
1691	1.6816e+02	-12.6638	-71.215074	0.000426	4.256638	1.442188	0.000170
1692	1.6825e+02	-12.6269	-71.077812	0.000345	3.445850	1.167485	0.000138
1693	1.6835e+02	-12.5868	-70.928438	0.000375	3.749895	1.270499	0.000150
1694	1.6845e+02	-12.5499	-70.811361	0.000294	2.939107	0.995796	0.000118
1695	1.6855e+02	-12.5018	-70.637764	0.000436	4.357986	1.476526	0.000174
1696	1.6865e+02	-12.4681	-70.460130	0.000446	4.459335	1.510864	0.000179
1697	1.6875e+02	-12.4328	-70.339016	0.000304	3.040456	1.030134	0.000122
1698	1.6885e+02	-12.4007	-70.201753	0.000345	3.445850	1.167485	0.000138
1699	1.6895e+02	-12.3590	-70.007971	0.000486	4.864729	1.648215	0.000195
1700	1.6905e+02	-12.3141	-69.854560	0.000385	3.851244	1.304837	0.000154
1701	1.6915e+02	-12.2660	-69.761706	0.000233	2.331016	0.789770	0.000093
1702	1.6925e+02	-12.2275	-69.551774	0.000527	5.270123	1.785566	0.000211
1703	1.6935e+02	-12.1858	-69.414512	0.000345	3.445850	1.167485	0.000138
1704	1.6945e+02	-12.1392	-69.236878	0.000446	4.459335	1.510864	0.000179
1705	1.6955e+02	-12.1152	-69.111727	0.000314	3.141804	1.064472	0.000126
1706	1.6965e+02	-12.0686	-68.962353	0.000375	3.749895	1.270499	0.000150
1707	1.6975e+02	-12.0366	-68.788756	0.000436	4.357986	1.476526	0.000174
1708	1.6985e+02	-11.9852	-68.619196	0.000426	4.256638	1.442188	0.000170
1709	1.6995e+02	-11.9499	-68.498082	0.000304	3.040456	1.030134	0.000122
1710	1.7005e+02	-11.9307	-68.356782	0.000355	3.547198	1.201823	0.000142
1711	1.7015e+02	-11.8665	-68.187223	0.000426	4.256638	1.442188	0.000170
1712	1.7024e+02	-11.8312	-68.013626	0.000436	4.357986	1.476526	0.000174
1713	1.7034e+02	-11.7831	-67.916735	0.000243	2.432364	0.824107	0.000097
1714	1.7044e+02	-11.7510	-67.755249	0.000405	4.053941	1.373512	0.000162
1715	1.7054e+02	-11.7125	-67.577615	0.000446	4.459335	1.510864	0.000179
1716	1.7064e+02	-11.6596	-67.428241	0.000375	3.749895	1.270499	0.000150
1717	1.7074e+02	-11.6259	-67.254644	0.000436	4.357986	1.476526	0.000174
1718	1.7084e+02	-11.5890	-67.113345	0.000355	3.547198	1.201823	0.000142
1719	1.7094e+02	-11.5473	-66.980119	0.000334	3.344501	1.133148	0.000134
1720	1.7104e+02	-11.5120	-66.818634	0.000405	4.053941	1.373512	0.000162
1721	1.7114e+02	-11.4671	-66.645037	0.000436	4.357986	1.476526	0.000174
1722	1.7124e+02	-11.4253	-66.479514	0.000416	4.155289	1.407850	0.000166
1723	1.7134e+02	-11.4013	-66.326103	0.000385	3.851244	1.304837	0.000154
1724	1.7144e+02	-11.3403	-66.156543	0.000426	4.256638	1.442188	0.000170
1725	1.7154e+02	-11.3098	-66.047541	0.000274	2.736410	0.927121	0.000110
1726	1.7164e+02	-11.2649	-65.825498	0.000557	5.574168	1.888579	0.000223
1727	1.7174e+02	-11.2360	-65.655939	0.000426	4.256638	1.442188	0.000170
1728	1.7184e+02	-11.1831	-65.538862	0.000294	2.939107	0.995796	0.000118
1729	1.7194e+02	-11.1542	-65.397562	0.000355	3.547198	1.201823	0.000142
1730	1.7204e+02	-11.1029	-65.264336	0.000334	3.344501	1.133148	0.000134
1731	1.7213e+02	-11.0772	-65.062480	0.000507	5.067426	1.716890	0.000203
1732	1.7223e+02	-11.0291	-64.945403	0.000294	2.939107	0.995796	0.000118
1733	1.7233e+02	-10.9906	-64.735472	0.000527	5.270123	1.785566	0.000211
1734	1.7243e+02	-10.9505	-64.590135	0.000365	3.648547	1.236161	0.000146
1735	1.7253e+02	-10.9024	-64.440761	0.000375	3.749895	1.270499	0.000150
1736	1.7263e+02	-10.8687	-64.287349	0.000385	3.851244	1.304837	0.000154
1737	1.7273e+02	-10.8286	-64.101641	0.000466	4.662032	1.579539	0.000187
1738	1.7283e+02	-10.7933	-63.988601	0.000284	2.837758	0.961459	0.000114
1739	1.7293e+02	-10.7532	-63.802893	0.000466	4.662032	1.579539	0.000187
1740	1.7303e+02	-10.7163	-63.653519	0.000375	3.749895	1.270499	0.000150
1741	1.7313e+02	-10.6810	-63.504145	0.000375	3.749895	1.270499	0.000150
1742	1.7323e+02	-10.6280	-63.366883	0.000345	3.445850	1.167485	0.000138
1743	1.7333e+02	-10.5992	-63.152914	0.000537	5.371471	1.819904	0.000215
1744	1.7343e+02	-10.5607	-63.031800	0.000304	3.040456	1.030134	0.000122
1745	1.7353e+02	-10.5206	-62.898575	0.000334	3.344501	1.133148	0.000134
1746	1.7363e+02	-10.4740	-62.696718	0.000507	5.067426	1.716890	0.000203
1747	1.7373e+02	-10.4275	-62.559455	0.000345	3.445850	1.167485	0.000138
1748	1.7383e+02	-10.3986	-62.426230	0.000334	3.344501	1.133148	0.000134
1749	1.7393e+02	-10.3601	-62.196113	0.000578	5.776865	1.957255	0.000231
1750	1.7403e+02	-10.3200	-62.087111	0.000274	2.736410	0.927121	0.000110
1751	1.7413e+02	-10.2799	-61.941774	0.000365	3.648547	1.236161	0.000146
1752	1.7422e+02	-10.2350	-61.739917	0.000507	5.067426	1.716890	0.000203
1753	1.7432e+02	-10.2045	-61.598617	0.000355	3.547198	1.201823	0.000142
1754	1.7442e+02	-10.1580	-61.412909	0.000466	4.662032	1.579539	0.000187
1755	1.7452e+02	-10.1163	-61.291795	0.000304	3.040456	1.030134	0.000122
1756	1.7462e+02	-10.0794	-61.142421	0.000375	3.749895	1.270499	0.000150
1757	1.7472e+02	-10.0441	-60.948638	0.000486	4.864729	1.648215	0.000195
1758	1.7482e+02	-9.9896	-60.787153	0.000405	4.053941	1.373512	0.000162
1759	1.7492e+02	-9.9591	-60.637779	0.000375	3.749895	1.270499	0.000150
1760	1.7502e+02	-9.9142	-60.504553	0.000334	3.344501	1.133148	0.000134
1761	1.7512e+02	-9.8805	-60.330956	0.000436	4.357986	1.476526	0.000174
1762	1.7522e+02	-9.8404	-60.161397	0.000426	4.256638	1.442188	0.000170
1763	1.7532e+02	-9.7987	-59.991837	0.000426	4.256638	1.442188	0.000170
1764	1.7542e+02	-9.7618	-59.854574	0.000345	3.445850	1.167485	0.000138
1765	1.7552e+02	-9.7088	-59.664829	0.000476	4.763380	1.613877	0.000191
1766	1.7562e+02	-9.6751	-59.487195	0.000446	4.459335	1.510864	0.000179
1767	1.7572e+02	-9.6318	-59.301487	0.000466	4.662032	1.579539	0.000187
1768	1.7582e+02	-9.6094	-59.184410	0.000294	2.939107	0.995796	0.000118
1769	1.7592e+02	-9.5564	-59.026962	0.000395	3.952592	1.339174	0.000158
1770	1.7602e+02	-9.5163	-58.853365	0.000436	4.357986	1.476526	0.000174
1771	1.7612e+02	-9.4826	-58.708028	0.000365	3.648547	1.236161	0.000146
1772	1.7621e+02	-9.4393	-58.538468	0.000426	4.256638	1.442188	0.000170
1773	1.7631e+02	-9.4008	-58.389094	0.000375	3.749895	1.270499	0.000150
1774	1.7641e+02	-9.3607	-58.199349	0.000476	4.763380	1.613877	0.000191
1775	1.7651e+02	-9.3174	-58.054012	0.000365	3.648547	1.236161	0.000146
1776	1.7661e+02	-9.2821	-57.904638	0.000375	3.749895	1.270499	0.000150
1777	1.7671e+02	-9.2468	-57.682595	0.000557	5.574168	1.888579	0.000223
1778	1.7681e+02	-9.1971	-57.553407	0.000324	3.243153	1.098810	0.000130
1779	1.7691e+02	-9.1570	-57.339439	0.000537	5.371471	1.819904	0.000215
1780	1.7701e+02	-9.1233	-57.181991	0.000395	3.952592	1.339174	0.000158
1781	1.7711e+02	-9.0703	-57.048765	0.000334	3.344501	1.133148	0.000134
1782	1.7721e+02	-9.0399	-56.850945	0.000497	4.966077	1.682553	0.000199
1783	1.7731e+02	-8.9997	-56.669274	0.000456	4.560683	1.545201	0.000183
1784	1.7741e+02	-8.9677	-56.503752	0.000416	4.155289	1.407850	0.000166
1785	1.7751e+02	-8.9179	-56.346303	0.000395	3.952592	1.339174	0.000158
1786	1.7761e+02	-8.8842	-56.188855	0.000395	3.952592	1.339174	0.000158
1787	1.7771e+02	-8.8441	-55.986998	0.000507	5.067426	1.716890	0.000203
1788	1.7781e+02	-8.8040	-55.821476	0.000416	4.155289	1.407850	0.000166
1789	1.7791e+02	-8.7639	-55.676139	0.000365	3.648547	1.236161	0.000146
1790	1.7801e+02	-8.7222	-55.530802	0.000365	3.648547	1.236161	0.000146
1791	1.7810e+02	-8.6661	-55.365280	0.000416	4.155289	1.407850	0.000166
1792	1.7820e+02	-8.6404	-55.110940	0.000638	6.384957	2.163282	0.000256
1793	1.7830e+02	-8.6083	-55.001937	0.000274	2.736410	0.927121	0.000110
1794	1.7840e+02	-8.5634	-54.800081	0.000507	5.067426	1.716890	0.000203
1795	1.7850e+02	-8.5137	-54.630521	0.000426	4.256638	1.442188	0.000170
1796	1.7860e+02	-8.4784	-54.444813	0.000466	4.662032	1.579539	0.000187
1797	1.7870e+02	-8.4431	-54.331773	0.000284	2.837758	0.961459	0.000114
1798	1.7880e+02	-8.4014	-54.146065	0.000466	4.662032	1.579539	0.000187
1799	1.7890e+02	-8.3613	-53.919985	0.000568	5.675517	1.922917	0.000227
1800	1.7900e+02	-8.3260	-53.786759	0.000334	3.344501	1.133148	0.000134
1801	1.7910e+02	-8.2843	-53.592977	0.000486	4.864729	1.648215	0.000195
1802	1.7920e+02	-8.2474	-53.419380	0.000436	4.357986	1.476526	0.000174
1803	1.7930e+02	-8.2024	-53.253858	0.000416	4.155289	1.407850	0.000166
1804	1.7940e+02	-8.1607	-53.072186	0.000456	4.560683	1.545201	0.000183
1805	1.7950e+02	-8.1222	-52.930887	0.000355	3.547198	1.201823	0.000142
1806	1.7960e+02	-8.0805	-52.729030	0.000507	5.067426	1.716890	0.000203
1807	1.7970e+02	-8.0372	-52.551396	0.000446	4.459335	1.510864	0.000179
1808	1.7980e+02	-8.0003	-52.369725	0.000456	4.560683	1.545201	0.000183
1809	1.7990e+02	-7.9698	-52.171905	0.000497	4.966077	1.682553	0.000199
1810	1.8000e+02	-7.9121	-51.994271	0.000446	4.459335	1.510864	0.000179
1811	1.8009e+02	-7.8880	-51.852971	0.000355	3.547198	1.201823	0.000142
1812	1.8019e+02	-7.8463	-51.667263	0.000466	4.662032	1.579539	0.000187
1813	1.8029e+02	-7.8062	-51.481555	0.000466	4.662032	1.579539	0.000187
1814	1.8039e+02	-7.7709	-51.316032	0.000416	4.155289	1.407850	0.000166
1815	1.8049e+02	-7.7212	-51.130324	0.000466	4.662032	1.579539	0.000187
1816	1.8059e+02	-7.6811	-50.936542	0.000486	4.864729	1.648215	0.000195
1817	1.8069e+02	-7.6458	-50.762945	0.000436	4.357986	1.476526	0.000174
1818	1.8079e+02	-7.6089	-50.625682	0.000345	3.445850	1.167485	0.000138
1819	1.8089e+02	-7.5640	-50.427863	0.000497	4.966077	1.682553	0.000199
1820	1.8099e+02	-7.5319	-50.226006	0.000507	5.067426	1.716890	0.000203
1821	1.8109e+02	-7.4886	-50.056446	0.000426	4.256638	1.442188	0.000170
1822	1.8119e+02	-7.4533	-49.915146	0.000355	3.547198	1.201823	0.000142
1823	1.8129e+02	-7.4067	-49.680992	0.000588	5.878214	1.991593	0.000235
1824	1.8139e+02	-7.3634	-49.507396	0.000436	4.357986	1.476526	0.000174
1825	1.8149e+02	-7.3297	-49.366096	0.000355	3.547198	1.201823	0.000142
1826	1.8159e+02	-7.2880	-49.188462	0.000446	4.459335	1.510864	0.000179
1827	1.8169e+02	-7.2527	-48.982568	0.000517	5.168774	1.751228	0.000207
1828	1.8179e+02	-7.2046	-48.804934	0.000446	4.459335	1.510864	0.000179
1829	1.8189e+02	-7.1661	-48.647486	0.000395	3.952592	1.339174	0.000158
1830	1.8199e+02	-7.1276	-48.421406	0.000568	5.675517	1.922917	0.000227
1831	1.8209e+02	-7.0923	-48.259921	0.000405	4.053941	1.373512	0.000162
1832	1.8218e+02	-7.0426	-48.094398	0.000416	4.155289	1.407850	0.000166
1833	1.8228e+02	-7.0073	-47.908690	0.000466	4.662032	1.579539	0.000187
1834	1.8238e+02	-6.9704	-47.694722	0.000537	5.371471	1.819904	0.000215
1835	1.8248e+02	-6.9158	-47.545348	0.000375	3.749895	1.270499	0.000150
1836	1.8258e+02	-6.8918	-47.343491	0.000507	5.067426	1.716890	0.000203
1837	1.8268e+02	-6.8549	-47.133560	0.000527	5.270123	1.785566	0.000211
1838	1.8278e+02	-6.8019	-47.004371	0.000324	3.243153	1.098810	0.000130
1839	1.8288e+02	-6.7747	-46.770218	0.000588	5.878214	1.991593	0.000235
1840	1.8298e+02	-6.7330	-46.616806	0.000385	3.851244	1.304837	0.000154
1841	1.8308e+02	-6.6880	-46.431098	0.000466	4.662032	1.579539	0.000187
1842	1.8318e+02	-6.6495	-46.265576	0.000416	4.155289	1.407850	0.000166
1843	1.8328e+02	-6.6030	-46.043533	0.000557	5.574168	1.888579	0.000223
1844	1.8338e+02	-6.5758	-45.853788	0.000476	4.763380	1.613877	0.000191
1845	1.8348e+02	-6.5292	-45.635782	0.000547	5.472820	1.854242	0.000219
1846	1.8358e+02	-6.4939	-45.494483	0.000355	3.547198	1.201823	0.000142
1847	1.8368e+02	-6.4586	-45.292626	0.000507	5.067426	1.716890	0.000203
1848	1.8378e+02	-6.4105	-45.114992	0.000446	4.459335	1.510864	0.000179
1849	1.8388e+02	-6.3704	-44.961581	0.000385	3.851244	1.304837	0.000154
1850	1.8398e+02	-6.3351	-44.759724	0.000507	5.067426	1.716890	0.000203
1851	1.8407e+02	-6.2982	-44.594201	0.000416	4.155289	1.407850	0.000166
1852	1.8417e+02	-6.2517	-44.432716	0.000405	4.053941	1.373512	0.000162
1853	1.8427e+02	-6.2228	-44.218748	0.000537	5.371471	1.819904	0.000215
1854	1.8437e+02	-6.1811	-44.012854	0.000517	5.168774	1.751228	0.000207
1855	1.8447e+02	-6.1378	-43.839257	0.000436	4.357986	1.476526	0.000174
1856	1.8457e+02	-6.0945	-43.665660	0.000436	4.357986	1.476526	0.000174
1857	1.8467e+02	-6.0512	-43.439581	0.000568	5.675517	1.922917	0.000227
1858	1.8477e+02	-6.0079	-43.237724	0.000507	5.067426	1.716890	0.000203
1859	1.8487e+02	-5.9758	-43.080275	0.000395	3.952592	1.339174	0.000158
1860	1.8497e+02	-5.9228	-42.890530	0.000476	4.763380	1.613877	0.000191
1861	1.8507e+02	-5.8940	-42.708859	0.000456	4.560683	1.545201	0.000183
1862	1.8517e+02	-5.8538	-42.507002	0.000507	5.067426	1.716890	0.000203
1863	1.8527e+02	-5.8186	-42.333405	0.000436	4.357986	1.476526	0.000174
1864	1.8537e+02	-5.7817	-42.143660	0.000476	4.763380	1.613877	0.000191
1865	1.8547e+02	-5.7367	-41.970063	0.000436	4.357986	1.476526	0.000174
1866	1.8557e+02	-5.6966	-41.792429	0.000446	4.459335	1.510864	0.000179
1867	1.8567e+02	-5.6629	-41.582498	0.000527	5.270123	1.785566	0.000211
1868	1.8577e+02	-5.6084	-41.384678	0.000497	4.966077	1.682553	0.000199
1869	1.8587e+02	-5.5763	-41.223193	0.000405	4.053941	1.373512	0.000162
1870	1.8597e+02	-5.5458	-41.013262	0.000527	5.270123	1.785566	0.000211
1871	1.8606e+02	-5.4977	-40.843702	0.000426	4.256638	1.442188	0.000170
1872	1.8616e+02	-5.4544	-40.637808	0.000517	5.168774	1.751228	0.000207
1873	1.8626e+02	-5.4255	-40.456137	0.000456	4.560683	1.545201	0.000183
1874	1.8636e+02	-5.3806	-40.250243	0.000517	5.168774	1.751228	0.000207
1875	1.8646e+02	-5.3389	-40.096832	0.000385	3.851244	1.304837	0.000154
1876	1.8656e+02	-5.2988	-39.890938	0.000517	5.168774	1.751228	0.000207
1877	1.8666e+02	-5.2539	-39.725416	0.000416	4.155289	1.407850	0.000166
1878	1.8676e+02	-5.2138	-39.555856	0.000426	4.256638	1.442188	0.000170
1879	1.8686e+02	-5.1688	-39.309591	0.000618	6.182260	2.094606	0.000248
1880	1.8696e+02	-5.1432	-39.095622	0.000537	5.371471	1.819904	0.000215
1881	1.8706e+02	-5.1031	-38.926063	0.000426	4.256638	1.442188	0.000170
1882	1.8716e+02	-5.0533	-38.784763	0.000355	3.547198	1.201823	0.000142
1883	1.8726e+02	-5.0196	-38.570795	0.000537	5.371471	1.819904	0.000215
1884	1.8736e+02	-4.9860	-38.381049	0.000476	4.763380	1.613877	0.000191
1885	1.8746e+02	-4.9410	-38.142858	0.000598	5.979562	2.025931	0.000239
1886	1.8756e+02	-4.8993	-38.025782	0.000294	2.939107	0.995796	0.000118
1887	1.8766e+02	-4.8592	-37.803739	0.000557	5.574168	1.888579	0.000223
1888	1.8776e+02	-4.8271	-37.618031	0.000466	4.662032	1.579539	0.000187
1889	1.8786e+02	-4.7774	-37.400025	0.000547	5.472820	1.854242	0.000219
1890	1.8796e+02	-4.7485	-37.226429	0.000436	4.357986	1.476526	0.000174
1891	1.8806e+02	-4.7004	-37.060906	0.000416	4.155289	1.407850	0.000166
1892	1.8815e+02	-4.6619	-36.879235	0.000456	4.560683	1.545201	0.000183
1893	1.8825e+02	-4.6138	-36.649118	0.000578	5.776865	1.957255	0.000231
1894	1.8835e+02	-4.5833	-36.471484	0.000446	4.459335	1.510864	0.000179
1895	1.8845e+02	-4.5352	-36.314036	0.000395	3.952592	1.339174	0.000158
1896	1.8855e+02	-4.5063	-36.091993	0.000557	5.574168	1.888579	0.000223
1897	1.8865e+02	-4.4662	-35.878025	0.000537	5.371471	1.819904	0.000215
1898	1.8875e+02	-4.4229	-35.720577	0.000395	3.952592	1.339174	0.000158
1899	1.8885e+02	-4.3828	-35.518720	0.000507	5.067426	1.716890	0.000203
1900	1.8895e+02	-4.3411	-35.292641	0.000568	5.675517	1.922917	0.000227
1901	1.8905e+02	-4.3026	-35.106932	0.000466	4.662032	1.579539	0.000187
1902	1.8915e+02	-4.2592	-34.909113	0.000497	4.966077	1.682553	0.000199
1903	1.8925e+02	-4.2239	-34.747627	0.000405	4.053941	1.373512	0.000162
1904	1.8935e+02	-4.1758	-34.557882	0.000476	4.763380	1.613877	0.000191
1905	1.8945e+02	-4.1502	-34.360062	0.000497	4.966077	1.682553	0.000199
1906	1.8955e+02	-4.0988	-34.146094	0.000537	5.371471	1.819904	0.000215
1907	1.8965e+02	-4.0635	-33.956349	0.000476	4.763380	1.613877	0.000191
1908	1.8975e+02	-4.0186	-33.790826	0.000416	4.155289	1.407850	0.000166
1909	1.8985e+02	-3.9817	-33.601081	0.000476	4.763380	1.613877	0.000191
1910	1.8995e+02	-3.9368	-33.387113	0.000537	5.371471	1.819904	0.000215
1911	1.9004e+02	-3.9079	-33.193330	0.000486	4.864729	1.648215	0.000195
1912	1.9014e+02	-3.8630	-32.987436	0.000517	5.168774	1.751228	0.000207
1913	1.9024e+02	-3.8181	-32.809802	0.000446	4.459335	1.510864	0.000179
1914	1.9034e+02	-3.7876	-32.620057	0.000476	4.763380	1.613877	0.000191
1915	1.9044e+02	-3.7427	-32.406089	0.000537	5.371471	1.819904	0.000215
1916	1.9054e+02	-3.6978	-32.200195	0.000517	5.168774	1.751228	0.000207
1917	1.9064e+02	-3.6657	-32.026598	0.000436	4.357986	1.476526	0.000174
1918	1.9074e+02	-3.6320	-31.844927	0.000456	4.560683	1.545201	0.000183
1919	1.9084e+02	-3.5774	-31.655181	0.000476	4.763380	1.613877	0.000191
1920	1.9094e+02	-3.5502	-31.449287	0.000517	5.168774	1.751228	0.000207
1921	1.9104e+02	-3.5020	-31.235319	0.000537	5.371471	1.819904	0.000215
1922	1.9114e+02	-3.4667	-31.061722	0.000436	4.357986	1.476526	0.000174
1923	1.9124e+02	-3.4347	-30.827568	0.000588	5.878214	1.991593	0.000235
1924	1.9134e+02	-3.3833	-30.682232	0.000365	3.648547	1.236161	0.000146
1925	1.9144e+02	-3.3496	-30.472301	0.000527	5.270123	1.785566	0.000211
1926	1.9154e+02	-3.3031	-30.290629	0.000456	4.560683	1.545201	0.000183
1927	1.9164e+02	-3.2582	-30.137218	0.000385	3.851244	1.304837	0.000154
1928	1.9174e+02	-3.2229	-29.878842	0.000649	6.486305	2.197620	0.000260
1929	1.9184e+02	-3.1796	-29.705245	0.000436	4.357986	1.476526	0.000174
1930	1.9194e+02	-3.1459	-29.503388	0.000507	5.067426	1.716890	0.000203
1931	1.9203e+02	-3.1122	-29.337865	0.000416	4.155289	1.407850	0.000166
1932	1.9213e+02	-3.0753	-29.123897	0.000537	5.371471	1.819904	0.000215
1933	1.9223e+02	-3.0304	-28.885706	0.000598	5.979562	2.025931	0.000239
1934	1.9233e+02	-2.9839	-28.712109	0.000436	4.357986	1.476526	0.000174
1935	1.9243e+02	-2.9470	-28.514290	0.000497	4.966077	1.682553	0.000199
1936	1.9253e+02	-2.9069	-28.340693	0.000436	4.357986	1.476526	0.000174
1937	1.9263e+02	-2.8652	-28.102502	0.000598	5.979562	2.025931	0.000239
1938	1.9273e+02	-2.8331	-27.932942	0.000426	4.256638	1.442188	0.000170
1939	1.9283e+02	-2.7849	-27.718974	0.000537	5.371471	1.819904	0.000215
1940	1.9293e+02	-2.7513	-27.565563	0.000385	3.851244	1.304837	0.000154
1941	1.9303e+02	-2.7079	-27.331409	0.000588	5.878214	1.991593	0.000235
1942	1.9313e+02	-2.6743	-27.117441	0.000537	5.371471	1.819904	0.000215
1943	1.9323e+02	-2.6197	-26.883287	0.000588	5.878214	1.991593	0.000235
1944	1.9333e+02	-2.5924	-26.729876	0.000385	3.851244	1.304837	0.000154
1945	1.9343e+02	-2.5443	-26.532056	0.000497	4.966077	1.682553	0.000199
1946	1.9353e+02	-2.5058	-26.330199	0.000507	5.067426	1.716890	0.000203
1947	1.9363e+02	-2.4753	-26.128342	0.000507	5.067426	1.716890	0.000203
1948	1.9373e+02	-2.4288	-25.906300	0.000557	5.574168	1.888579	0.000223
1949	1.9383e+02	-2.3791	-25.708480	0.000497	4.966077	1.682553	0.000199
1950	1.9393e+02	-2.3486	-25.522772	0.000466	4.662032	1.579539	0.000187
1951	1.9403e+02	-2.3181	-25.337064	0.000466	4.662032	1.579539	0.000187
1952	1.9412e+02	-2.2684	-25.139244	0.000497	4.966077	1.682553	0.000199
1953	1.9422e+02	-2.2251	-24.897016	0.000608	6.080911	2.060268	0.000243
1954	1.9432e+02	-2.1834	-24.727456	0.000426	4.256638	1.442188	0.000170
1955	1.9442e+02	-2.1481	-24.537711	0.000476	4.763380	1.613877	0.000191
1956	1.9452e+02	-2.1128	-24.287409	0.000628	6.283608	2.128944	0.000252
1957	1.9462e+02	-2.0663	-24.089589	0.000497	4.966077	1.682553	0.000199
1958	1.9472e+02	-2.0342	-23.887732	0.000507	5.067426	1.716890	0.000203
1959	1.9482e+02	-1.9989	-23.710098	0.000446	4.459335	1.510864	0.000179
1960	1.9492e+02	-1.9556	-23.467870	0.000608	6.080911	2.060268	0.000243
1961	1.9502e+02	-1.9090	-23.278125	0.000476	4.763380	1.613877	0.000191
1962	1.9512e+02	-1.8721	-23.060119	0.000547	5.472820	1.854242	0.000219
1963	1.9522e+02	-1.8304	-22.862300	0.000497	4.966077	1.682553	0.000199
1964	1.9532e+02	-1.7855	-22.656406	0.000517	5.168774	1.751228	0.000207
1965	1.9542e+02	-1.7470	-22.446475	0.000527	5.270123	1.785566	0.000211
1966	1.9552e+02	-1.7117	-22.260766	0.000466	4.662032	1.579539	0.000187
1967	1.9562e+02	-1.6668	-22.014501	0.000618	6.182260	2.094606	0.000248
1968	1.9572e+02	-1.6299	-21.828793	0.000466	4.662032	1.579539	0.000187
1969	1.9582e+02	-1.5882	-21.635010	0.000486	4.864729	1.648215	0.000195
1970	1.9592e+02	-1.5529	-21.445265	0.000476	4.763380	1.613877	0.000191
1971	1.9601e+02	-1.5112	-21.267631	0.000446	4.459335	1.510864	0.000179
1972	1.9611e+02	-1.4711	-21.005217	0.000659	6.587654	2.231957	0.000264
1973	1.9621e+02	-1.4374	-20.823546	0.000456	4.560683	1.545201	0.000183
1974	1.9631e+02	-1.3796	-20.605541	0.000547	5.472820	1.854242	0.000219
1975	1.9641e+02	-1.3588	-20.359276	0.000618	6.182260	2.094606	0.000248
1976	1.9651e+02	-1.3155	-20.169530	0.000476	4.763380	1.613877	0.000191
1977	1.9661e+02	-1.2818	-19.975748	0.000486	4.864729	1.648215	0.000195
1978	1.9671e+02	-1.2337	-19.741594	0.000588	5.878214	1.991593	0.000235
1979	1.9681e+02	-1.1935	-19.543774	0.000497	4.966077	1.682553	0.000199
1980	1.9691e+02	-1.1567	-19.349992	0.000486	4.864729	1.648215	0.000195
1981	1.9701e+02	-1.1037	-19.131986	0.000547	5.472820	1.854242	0.000219
1982	1.9711e+02	-1.0620	-18.938204	0.000486	4.864729	1.648215	0.000195
1983	1.9721e+02	-1.0428	-18.728273	0.000527	5.270123	1.785566	0.000211
1984	1.9731e+02	-0.9978	-18.522379	0.000517	5.168774	1.751228	0.000207
1985	1.9741e+02	-0.9529	-18.324559	0.000497	4.966077	1.682553	0.000199
1986	1.9751e+02	-0.9144	-18.070220	0.000638	6.384957	2.163282	0.000256
1987	1.9761e+02	-0.8695	-17.864326	0.000517	5.168774	1.751228	0.000207
1988	1.9771e+02	-0.8358	-17.678617	0.000466	4.662032	1.579539	0.000187
1989	1.9781e+02	-0.7925	-17.448501	0.000578	5.776865	1.957255	0.000231
1990	1.9791e+02	-0.7492	-17.230495	0.000547	5.472820	1.854242	0.000219
1991	1.9800e+02	-0.7203	-17.004416	0.000568	5.675517	1.922917	0.000227
1992	1.9810e+02	-0.6706	-16.838893	0.000416	4.155289	1.407850	0.000166
1993	1.9820e+02	-0.6401	-16.641074	0.000497	4.966077	1.682553	0.000199
1994	1.9830e+02	-0.5936	-16.435180	0.000517	5.168774	1.751228	0.000207
1995	1.9840e+02	-0.5551	-16.180840	0.000638	6.384957	2.163282	0.000256
1996	1.9850e+02	-0.5101	-15.978983	0.000507	5.067426	1.716890	0.000203
1997	1.9860e+02	-0.4749	-15.773089	0.000517	5.168774	1.751228	0.000207
1998	1.9870e+02	-0.4299	-15.522787	0.000628	6.283608	2.128944	0.000252
1999	1.9880e+02	-0.3930	-15.329004	0.000486	4.864729	1.648215	0.000195
2000	1.9890e+02	-0.3529	-15.115036	0.000537	5.371471	1.819904	0.000215
2001	1.9900e+02	-0.3128	-14.945477	0.000426	4.256638	1.442188	0.000170
2002	1.9910e+02	-0.2759	-14.715360	0.000578	5.776865	1.957255	0.000231
2003	1.9920e+02	-0.2390	-14.473132	0.000608	6.080911	2.060268	0.000243
2004	1.9930e+02	-0.1973	-14.279349	0.000486	4.864729	1.648215	0.000195
2005	1.9940e+02	-0.1556	-14.045195	0.000588	5.878214	1.991593	0.000235
2006	1.9950e+02	-0.1155	-13.875636	0.000426	4.256638	1.442188	0.000170
2007	1.9960e+02	-0.0722	-13.605147	0.000679	6.790351	2.300633	0.000272
2008	1.9970e+02	-0.0449	-13.435588	0.000426	4.256638	1.442188	0.000170
2009	1.9980e+02	0.0048	-13.169137	0.000426	4.256638	1.442188	0.000268

PMax (uC/cm2):	1.08e+02
Pr (uC/cm2):	2.24e+01
-Pr (uC/cm2):	3.33e+00
PLoss (uC/cm2):	3.33e+00
Vc:	-6.07e-01
-Vc:	-4.27e+00
C (Max-Eff) (nF):	5.41e-01
K (Eff):	1.83e+03
Vert. (+/-Pr) Shift (uC/cm2):	1.28e+01
Horiz. Shift (+/-Vc):	-2.44e+00
Offset (uC/cm2):	1.65e+01

A (Loop Area - uC/cm2·Volts):	-2.42e-01



Hysteresis Version: 5.48.1 - Radiant Technologies, Inc., 1999 - 9/12/24

