»»»»»»»»»»»»»»»»»»»»»»»»»»»»»»»»»»»» Hysteresis ««««««««««««««««««««««««««««««««««««
»»»  Executed Version:	5.48.1
»»»  Vision Version:	5.48.4 (R)
»»»  Vision Compiled:	9/18/24
»»»  Driver Version:	5.47.0
»»»  Windows Version:	Windows 8 or 8.1
»»»  Processor Information:	x86 (AMD or Intel) - 32 Processors
»»»  Tester Name:	PMF21124-494 (100V)
»»»  Tester S/N:	PMF21124-494
»»»  Internal Amp Type:	100V RevK 270k
»»»  Internal Amp S/N:	iAB2-596/K     
»»»  Execution Count:	1
»»»»»»»»»»»»»»»»»»»»»»»»»»»»»»»»»»»»»»»»»»««««««««««««««««««««««««««««««««««««««««««

Stored:	6/18/2025 - 10:32:28
Configured:	06/18/25 09:47:30 AM
Executed:	06/18/25 10:31:23 AM

»»»»»»»»»»»»»»»»»»»»»»»»»»»»»»»»»»» Sample Info ««««««««««««««««««««««««««««««««««««
Sample Name:	
Lot Name:	
Wafer Name:	
Die Row/Column:	0/0
Capacitor Number:	0
Sample Area (cm2):	1.00e-04
Sample Thickness (microns):	3.00e-01

Amplifier:	Internal

»»»»»»»»»»»»»»»»»»»»»»»»»»»»»»»»»»» Tester Info «««««««««««««««««««««««««««««««««««
Tester Name:	PMF21124-494 (100V)
Tester Serial Number:	PMF21124-494
Return Signal Amp. Level:	0.19 [Index: 3]

»»»»»»»»»»»»»»»»»»»»»»»»»»»»»»»» Hysteresis Info ««««««««««««««««««««««««««««««««««
Task Name:	Hyst-554
Volts:	20.00
Field:	666.67 (kV/cm)
DCBias:	0.00
DCField:	0.00 (kV/cm)
Hysteresis Period (ms):	2.00e+02
Preset:	Enabled
Preset Delay (ms):	1.00e+03
Profile:	Standard Bipolar

»»»»»»»»»»»»»»»»»»»»»»»»»»»»»»»»»»»»»» Data «««««««««««««««««««««««««««««««««««««««
Points:	2009

Valid Data

Point	Time (ms)	Drive Voltage	Measured Polarization (uC/cm2)	Capacitance (uF)	Normalized Capacitance (uF/cm2)	Dielectric Constant	Instantaneous Current (mA)
   1	0.0000e+00	-0.0032	-5.670157	0.000253	2.533713	0.858445	0.000101
   2	9.9500e-02	0.0273	-5.569229	0.000253	2.533713	0.858445	0.000101
   3	1.9900e-01	0.0722	-5.407743	0.000405	4.053941	1.373512	0.000162
   4	2.9850e-01	0.1059	-5.145329	0.000659	6.587654	2.231957	0.000264
   5	3.9800e-01	0.1460	-4.927324	0.000547	5.472820	1.854242	0.000219
   6	4.9750e-01	0.1845	-4.749690	0.000446	4.459335	1.510864	0.000179
   7	5.9700e-01	0.2358	-4.559945	0.000476	4.763380	1.613877	0.000191
   8	6.9650e-01	0.2711	-4.370199	0.000476	4.763380	1.613877	0.000191
   9	7.9600e-01	0.3080	-4.212751	0.000395	3.952592	1.339174	0.000158
  10	8.9550e-01	0.3497	-3.962449	0.000628	6.283608	2.128944	0.000252
  11	9.9500e-01	0.3930	-3.776740	0.000466	4.662032	1.579539	0.000187
  12	1.0945e+00	0.4315	-3.578921	0.000497	4.966077	1.682553	0.000199
  13	1.1940e+00	0.4716	-3.385138	0.000486	4.864729	1.648215	0.000195
  14	1.2935e+00	0.5085	-3.195393	0.000476	4.763380	1.613877	0.000191
  15	1.3930e+00	0.5454	-2.985462	0.000527	5.270123	1.785566	0.000211
  16	1.4925e+00	0.5823	-2.771494	0.000537	5.371471	1.819904	0.000215
  17	1.5920e+00	0.6224	-2.545414	0.000568	5.675517	1.922917	0.000227
  18	1.6915e+00	0.6738	-2.335483	0.000527	5.270123	1.785566	0.000211
  19	1.7910e+00	0.7075	-2.194183	0.000355	3.547198	1.201823	0.000142
  20	1.8905e+00	0.7428	-1.951955	0.000608	6.080911	2.060268	0.000243
  21	1.9900e+00	0.7877	-1.778358	0.000436	4.357986	1.476526	0.000174
  22	2.0895e+00	0.8310	-1.560353	0.000547	5.472820	1.854242	0.000219
  23	2.1890e+00	0.8695	-1.358496	0.000507	5.067426	1.716890	0.000203
  24	2.2885e+00	0.8984	-1.148565	0.000527	5.270123	1.785566	0.000211
  25	2.3880e+00	0.9481	-0.962857	0.000466	4.662032	1.579539	0.000187
  26	2.4875e+00	0.9850	-0.692369	0.000679	6.790351	2.300633	0.000272
  27	2.5870e+00	1.0283	-0.526846	0.000416	4.155289	1.407850	0.000166
  28	2.6865e+00	1.0700	-0.324989	0.000507	5.067426	1.716890	0.000203
  29	2.7860e+00	1.0989	-0.111021	0.000537	5.371471	1.819904	0.000215
  30	2.8855e+00	1.1454	0.054501	0.000416	4.155289	1.407850	0.000166
  31	2.9850e+00	1.1952	0.264432	0.000527	5.270123	1.785566	0.000211
  32	3.0845e+00	1.2369	0.494549	0.000578	5.776865	1.957255	0.000231
  33	3.1840e+00	1.2577	0.656035	0.000405	4.053941	1.373512	0.000162
  34	3.2835e+00	1.3042	0.857891	0.000507	5.067426	1.716890	0.000203
  35	3.3830e+00	1.3460	1.120305	0.000659	6.587654	2.231957	0.000264
  36	3.4825e+00	1.3828	1.322162	0.000507	5.067426	1.716890	0.000203
  37	3.5820e+00	1.4214	1.515944	0.000486	4.864729	1.648215	0.000195
  38	3.6815e+00	1.4663	1.729913	0.000537	5.371471	1.819904	0.000215
  39	3.7810e+00	1.5080	1.919658	0.000476	4.763380	1.613877	0.000191
  40	3.8805e+00	1.5449	2.129589	0.000527	5.270123	1.785566	0.000211
  41	3.9800e+00	1.5866	2.363743	0.000588	5.878214	1.991593	0.000235
  42	4.0795e+00	1.6267	2.597897	0.000588	5.878214	1.991593	0.000235
  43	4.1790e+00	1.6636	2.779568	0.000456	4.560683	1.545201	0.000183
  44	4.2785e+00	1.7069	3.025833	0.000618	6.182260	2.094606	0.000248
  45	4.3780e+00	1.7486	3.259987	0.000588	5.878214	1.991593	0.000235
  46	4.4775e+00	1.7823	3.405324	0.000365	3.648547	1.236161	0.000146
  47	4.5770e+00	1.8176	3.599107	0.000486	4.864729	1.648215	0.000195
  48	4.6765e+00	1.8593	3.841335	0.000608	6.080911	2.060268	0.000243
  49	4.7760e+00	1.9026	4.059340	0.000547	5.472820	1.854242	0.000219
  50	4.8755e+00	1.9395	4.305605	0.000618	6.182260	2.094606	0.000248
  51	4.9750e+00	1.9909	4.463054	0.000395	3.952592	1.339174	0.000158
  52	5.0745e+00	2.0197	4.677022	0.000537	5.371471	1.819904	0.000215
  53	5.1740e+00	2.0743	4.907138	0.000578	5.776865	1.957255	0.000231
  54	5.2735e+00	2.1015	5.108995	0.000507	5.067426	1.716890	0.000203
  55	5.3730e+00	2.1384	5.322963	0.000537	5.371471	1.819904	0.000215
  56	5.4725e+00	2.1818	5.528857	0.000517	5.168774	1.751228	0.000207
  57	5.5720e+00	2.2283	5.758974	0.000578	5.776865	1.957255	0.000231
  58	5.6715e+00	2.2620	5.968905	0.000527	5.270123	1.785566	0.000211
  59	5.7710e+00	2.3005	6.154613	0.000466	4.662032	1.579539	0.000187
  60	5.8705e+00	2.3406	6.400879	0.000618	6.182260	2.094606	0.000248
  61	5.9700e+00	2.3887	6.562364	0.000405	4.053941	1.373512	0.000162
  62	6.0695e+00	2.4224	6.764221	0.000507	5.067426	1.716890	0.000203
  63	6.1690e+00	2.4593	6.970115	0.000517	5.168774	1.751228	0.000207
  64	6.2685e+00	2.5090	7.212343	0.000608	6.080911	2.060268	0.000243
  65	6.3680e+00	2.5299	7.446497	0.000588	5.878214	1.991593	0.000235
  66	6.4675e+00	2.5892	7.672576	0.000568	5.675517	1.922917	0.000227
  67	6.5670e+00	2.6213	7.890582	0.000547	5.472820	1.854242	0.000219
  68	6.6665e+00	2.6566	8.048030	0.000395	3.952592	1.339174	0.000158
  69	6.7660e+00	2.7112	8.245850	0.000497	4.966077	1.682553	0.000199
  70	6.8655e+00	2.7384	8.484041	0.000598	5.979562	2.025931	0.000239
  71	6.9650e+00	2.7785	8.689935	0.000517	5.168774	1.751228	0.000207
  72	7.0645e+00	2.8202	8.903903	0.000537	5.371471	1.819904	0.000215
  73	7.1640e+00	2.8539	9.085574	0.000456	4.560683	1.545201	0.000183
  74	7.2635e+00	2.9021	9.356062	0.000679	6.790351	2.300633	0.000272
  75	7.3630e+00	2.9374	9.513510	0.000395	3.952592	1.339174	0.000158
  76	7.4625e+00	2.9759	9.779961	0.000669	6.689002	2.266295	0.000268
  77	7.5620e+00	3.0160	9.945484	0.000416	4.155289	1.407850	0.000166
  78	7.6615e+00	3.0577	10.191749	0.000618	6.182260	2.094606	0.000248
  79	7.7610e+00	3.0930	10.393606	0.000507	5.067426	1.716890	0.000203
  80	7.8605e+00	3.1427	10.635834	0.000608	6.080911	2.060268	0.000243
  81	7.9600e+00	3.1796	10.833654	0.000497	4.966077	1.682553	0.000199
  82	8.0595e+00	3.2197	11.031473	0.000497	4.966077	1.682553	0.000199
  83	8.1590e+00	3.2630	11.241404	0.000527	5.270123	1.785566	0.000211
  84	8.2585e+00	3.2951	11.447298	0.000517	5.168774	1.751228	0.000207
  85	8.3580e+00	3.3432	11.673378	0.000568	5.675517	1.922917	0.000227
  86	8.4575e+00	3.3769	11.859086	0.000466	4.662032	1.579539	0.000187
  87	8.5570e+00	3.4138	12.097277	0.000598	5.979562	2.025931	0.000239
  88	8.6565e+00	3.4635	12.270874	0.000436	4.357986	1.476526	0.000174
  89	8.7560e+00	3.5085	12.553474	0.000709	7.094396	2.403646	0.000284
  90	8.8555e+00	3.5470	12.718996	0.000416	4.155289	1.407850	0.000166
  91	8.9550e+00	3.5806	12.924890	0.000517	5.168774	1.751228	0.000207
  92	9.0545e+00	3.6111	13.138858	0.000537	5.371471	1.819904	0.000215
  93	9.1540e+00	3.6560	13.336678	0.000497	4.966077	1.682553	0.000199
  94	9.2535e+00	3.6881	13.526423	0.000476	4.763380	1.613877	0.000191
  95	9.3530e+00	3.7443	13.776726	0.000628	6.283608	2.128944	0.000252
  96	9.4525e+00	3.7716	14.006842	0.000578	5.776865	1.957255	0.000231
  97	9.5520e+00	3.8309	14.216774	0.000527	5.270123	1.785566	0.000211
  98	9.6515e+00	3.8550	14.430742	0.000537	5.371471	1.819904	0.000215
  99	9.7510e+00	3.8951	14.632598	0.000507	5.067426	1.716890	0.000203
 100	9.8505e+00	3.9336	14.822344	0.000476	4.763380	1.613877	0.000191
 101	9.9500e+00	3.9721	15.044386	0.000557	5.574168	1.888579	0.000223
 102	1.0050e+01	4.0106	15.270466	0.000568	5.675517	1.922917	0.000227
 103	1.0149e+01	4.0539	15.468286	0.000497	4.966077	1.682553	0.000199
 104	1.0248e+01	4.0972	15.674180	0.000517	5.168774	1.751228	0.000207
 105	1.0348e+01	4.1309	15.904296	0.000578	5.776865	1.957255	0.000231
 106	1.0447e+01	4.1758	16.134413	0.000578	5.776865	1.957255	0.000231
 107	1.0547e+01	4.2159	16.324158	0.000476	4.763380	1.613877	0.000191
 108	1.0646e+01	4.2608	16.550238	0.000568	5.675517	1.922917	0.000227
 109	1.0746e+01	4.2929	16.756132	0.000517	5.168774	1.751228	0.000207
 110	1.0845e+01	4.3411	16.982211	0.000568	5.675517	1.922917	0.000227
 111	1.0945e+01	4.3780	17.236551	0.000638	6.384957	2.163282	0.000256
 112	1.1044e+01	4.4165	17.373814	0.000345	3.445850	1.167485	0.000138
 113	1.1144e+01	4.4517	17.616042	0.000608	6.080911	2.060268	0.000243
 114	1.1243e+01	4.4999	17.813861	0.000497	4.966077	1.682553	0.000199
 115	1.1343e+01	4.5320	18.031867	0.000547	5.472820	1.854242	0.000219
 116	1.1443e+01	4.5849	18.205464	0.000436	4.357986	1.476526	0.000174
 117	1.1542e+01	4.6090	18.484026	0.000699	6.993048	2.369309	0.000280
 118	1.1642e+01	4.6523	18.702031	0.000547	5.472820	1.854242	0.000219
 119	1.1741e+01	4.7004	18.895814	0.000486	4.864729	1.648215	0.000195
 120	1.1841e+01	4.7277	19.077485	0.000456	4.560683	1.545201	0.000183
 121	1.1940e+01	4.7694	19.327787	0.000628	6.283608	2.128944	0.000252
 122	1.2040e+01	4.8111	19.529644	0.000507	5.067426	1.716890	0.000203
 123	1.2139e+01	4.8528	19.735538	0.000517	5.168774	1.751228	0.000207
 124	1.2239e+01	4.8897	19.953543	0.000547	5.472820	1.854242	0.000219
 125	1.2338e+01	4.9346	20.167512	0.000537	5.371471	1.819904	0.000215
 126	1.2438e+01	4.9747	20.365331	0.000497	4.966077	1.682553	0.000199
 127	1.2537e+01	5.0212	20.563151	0.000497	4.966077	1.682553	0.000199
 128	1.2636e+01	5.0517	20.793268	0.000578	5.776865	1.957255	0.000231
 129	1.2736e+01	5.0918	20.962827	0.000426	4.256638	1.442188	0.000170
 130	1.2835e+01	5.1368	21.172758	0.000527	5.270123	1.785566	0.000211
 131	1.2935e+01	5.1737	21.390764	0.000547	5.472820	1.854242	0.000219
 132	1.3034e+01	5.2122	21.641066	0.000628	6.283608	2.128944	0.000252
 133	1.3134e+01	5.2555	21.806589	0.000416	4.155289	1.407850	0.000166
 134	1.3233e+01	5.2779	22.056891	0.000628	6.283608	2.128944	0.000252
 135	1.3333e+01	5.3325	22.218377	0.000405	4.053941	1.373512	0.000162
 136	1.3432e+01	5.3822	22.472716	0.000638	6.384957	2.163282	0.000256
 137	1.3532e+01	5.4031	22.682647	0.000527	5.270123	1.785566	0.000211
 138	1.3632e+01	5.4560	22.876430	0.000486	4.864729	1.648215	0.000195
 139	1.3731e+01	5.4929	23.086361	0.000527	5.270123	1.785566	0.000211
 140	1.3831e+01	5.5378	23.324552	0.000598	5.979562	2.025931	0.000239
 141	1.3930e+01	5.5683	23.542557	0.000547	5.472820	1.854242	0.000219
 142	1.4030e+01	5.6052	23.724228	0.000456	4.560683	1.545201	0.000183
 143	1.4129e+01	5.6453	23.946271	0.000557	5.574168	1.888579	0.000223
 144	1.4229e+01	5.6806	24.160239	0.000537	5.371471	1.819904	0.000215
 145	1.4328e+01	5.7287	24.386318	0.000568	5.675517	1.922917	0.000227
 146	1.4428e+01	5.7752	24.604324	0.000547	5.472820	1.854242	0.000219
 147	1.4527e+01	5.8009	24.830403	0.000568	5.675517	1.922917	0.000227
 148	1.4627e+01	5.8635	25.020149	0.000476	4.763380	1.613877	0.000191
 149	1.4726e+01	5.8940	25.234117	0.000537	5.371471	1.819904	0.000215
 150	1.4825e+01	5.9357	25.440011	0.000517	5.168774	1.751228	0.000207
 151	1.4925e+01	5.9629	25.682239	0.000608	6.080911	2.060268	0.000243
 152	1.5024e+01	6.0127	25.871984	0.000476	4.763380	1.613877	0.000191
 153	1.5124e+01	6.0431	26.077878	0.000517	5.168774	1.751228	0.000207
 154	1.5223e+01	6.0897	26.316069	0.000598	5.979562	2.025931	0.000239
 155	1.5323e+01	6.1266	26.538112	0.000557	5.574168	1.888579	0.000223
 156	1.5422e+01	6.1731	26.715746	0.000446	4.459335	1.510864	0.000179
 157	1.5522e+01	6.2116	26.933751	0.000547	5.472820	1.854242	0.000219
 158	1.5621e+01	6.2517	27.155794	0.000557	5.574168	1.888579	0.000223
 159	1.5721e+01	6.2886	27.349576	0.000486	4.864729	1.648215	0.000195
 160	1.5820e+01	6.3351	27.571619	0.000557	5.574168	1.888579	0.000223
 161	1.5920e+01	6.3752	27.809810	0.000598	5.979562	2.025931	0.000239
 162	1.6020e+01	6.4105	27.995518	0.000466	4.662032	1.579539	0.000187
 163	1.6119e+01	6.4490	28.233709	0.000598	5.979562	2.025931	0.000239
 164	1.6218e+01	6.4843	28.463826	0.000578	5.776865	1.957255	0.000231
 165	1.6318e+01	6.5244	28.649534	0.000466	4.662032	1.579539	0.000187
 166	1.6418e+01	6.5549	28.903873	0.000638	6.384957	2.163282	0.000256
 167	1.6517e+01	6.5966	29.089582	0.000466	4.662032	1.579539	0.000187
 168	1.6616e+01	6.6528	29.311624	0.000557	5.574168	1.888579	0.000223
 169	1.6716e+01	6.6800	29.537704	0.000568	5.675517	1.922917	0.000227
 170	1.6816e+01	6.7217	29.727449	0.000476	4.763380	1.613877	0.000191
 171	1.6915e+01	6.7650	29.929306	0.000507	5.067426	1.716890	0.000203
 172	1.7015e+01	6.8052	30.159423	0.000578	5.776865	1.957255	0.000231
 173	1.7114e+01	6.8517	30.389539	0.000578	5.776865	1.957255	0.000231
 174	1.7213e+01	6.8870	30.575248	0.000466	4.662032	1.579539	0.000187
 175	1.7313e+01	6.9255	30.773067	0.000497	4.966077	1.682553	0.000199
 176	1.7413e+01	6.9576	30.970887	0.000497	4.966077	1.682553	0.000199
 177	1.7512e+01	7.0137	31.229264	0.000649	6.486305	2.197620	0.000260
 178	1.7611e+01	7.0410	31.467455	0.000598	5.979562	2.025931	0.000239
 179	1.7711e+01	7.0779	31.653163	0.000466	4.662032	1.579539	0.000187
 180	1.7811e+01	7.1180	31.838871	0.000466	4.662032	1.579539	0.000187
 181	1.7910e+01	7.1629	32.052839	0.000537	5.371471	1.819904	0.000215
 182	1.8009e+01	7.2030	32.311216	0.000649	6.486305	2.197620	0.000260
 183	1.8109e+01	7.2383	32.480776	0.000426	4.256638	1.442188	0.000170
 184	1.8209e+01	7.2880	32.714929	0.000588	5.878214	1.991593	0.000235
 185	1.8308e+01	7.3153	32.945046	0.000578	5.776865	1.957255	0.000231
 186	1.8407e+01	7.3570	33.150940	0.000517	5.168774	1.751228	0.000207
 187	1.8507e+01	7.4083	33.397205	0.000618	6.182260	2.094606	0.000248
 188	1.8607e+01	7.4420	33.599062	0.000507	5.067426	1.716890	0.000203
 189	1.8706e+01	7.4854	33.821105	0.000557	5.574168	1.888579	0.000223
 190	1.8805e+01	7.5335	34.010850	0.000476	4.763380	1.613877	0.000191
 191	1.8905e+01	7.5624	34.224818	0.000537	5.371471	1.819904	0.000215
 192	1.9005e+01	7.6057	34.426675	0.000507	5.067426	1.716890	0.000203
 193	1.9104e+01	7.6458	34.640643	0.000537	5.371471	1.819904	0.000215
 194	1.9203e+01	7.6827	34.858649	0.000547	5.472820	1.854242	0.000219
 195	1.9303e+01	7.7212	35.100877	0.000608	6.080911	2.060268	0.000243
 196	1.9402e+01	7.7533	35.258325	0.000395	3.952592	1.339174	0.000158
 197	1.9502e+01	7.8030	35.500553	0.000608	6.080911	2.060268	0.000243
 198	1.9602e+01	7.8335	35.714521	0.000537	5.371471	1.819904	0.000215
 199	1.9701e+01	7.8880	35.952712	0.000598	5.979562	2.025931	0.000239
 200	1.9800e+01	7.9137	36.126309	0.000436	4.357986	1.476526	0.000174
 201	1.9900e+01	7.9522	36.372574	0.000618	6.182260	2.094606	0.000248
 202	2.0000e+01	7.9987	36.562320	0.000476	4.763380	1.613877	0.000191
 203	2.0099e+01	8.0356	36.808585	0.000618	6.182260	2.094606	0.000248
 204	2.0198e+01	8.0757	37.010442	0.000507	5.067426	1.716890	0.000203
 205	2.0298e+01	8.1126	37.204224	0.000486	4.864729	1.648215	0.000195
 206	2.0398e+01	8.1559	37.381858	0.000446	4.459335	1.510864	0.000179
 207	2.0497e+01	8.2073	37.607938	0.000568	5.675517	1.922917	0.000227
 208	2.0596e+01	8.2345	37.866315	0.000649	6.486305	2.197620	0.000260
 209	2.0696e+01	8.2859	38.043949	0.000446	4.459335	1.510864	0.000179
 210	2.0796e+01	8.3196	38.282140	0.000598	5.979562	2.025931	0.000239
 211	2.0895e+01	8.3597	38.483996	0.000507	5.067426	1.716890	0.000203
 212	2.0994e+01	8.4030	38.734299	0.000628	6.283608	2.128944	0.000252
 213	2.1094e+01	8.4431	38.924044	0.000476	4.763380	1.613877	0.000191
 214	2.1194e+01	8.4768	39.142050	0.000547	5.472820	1.854242	0.000219
 215	2.1293e+01	8.5201	39.327758	0.000466	4.662032	1.579539	0.000187
 216	2.1392e+01	8.5538	39.594209	0.000669	6.689002	2.266295	0.000268
 217	2.1492e+01	8.5923	39.779917	0.000466	4.662032	1.579539	0.000187
 218	2.1591e+01	8.6404	39.977737	0.000497	4.966077	1.682553	0.000199
 219	2.1691e+01	8.6789	40.187668	0.000527	5.270123	1.785566	0.000211
 220	2.1791e+01	8.7126	40.421822	0.000588	5.878214	1.991593	0.000235
 221	2.1890e+01	8.7543	40.639827	0.000547	5.472820	1.854242	0.000219
 222	2.1989e+01	8.7944	40.833609	0.000486	4.864729	1.648215	0.000195
 223	2.2089e+01	8.8345	41.027392	0.000486	4.864729	1.648215	0.000195
 224	2.2189e+01	8.8826	41.281731	0.000638	6.384957	2.163282	0.000256
 225	2.2288e+01	8.9227	41.455328	0.000436	4.357986	1.476526	0.000174
 226	2.2387e+01	8.9580	41.681408	0.000568	5.675517	1.922917	0.000227
 227	2.2487e+01	8.9949	41.927673	0.000618	6.182260	2.094606	0.000248
 228	2.2587e+01	9.0302	42.117419	0.000476	4.763380	1.613877	0.000191
 229	2.2686e+01	9.0784	42.307164	0.000476	4.763380	1.613877	0.000191
 230	2.2785e+01	9.1201	42.513058	0.000517	5.168774	1.751228	0.000207
 231	2.2885e+01	9.1586	42.722989	0.000527	5.270123	1.785566	0.000211
 232	2.2985e+01	9.1939	42.924846	0.000507	5.067426	1.716890	0.000203
 233	2.3084e+01	9.2340	43.138814	0.000537	5.371471	1.819904	0.000215
 234	2.3183e+01	9.2805	43.368931	0.000578	5.776865	1.957255	0.000231
 235	2.3283e+01	9.3174	43.546565	0.000446	4.459335	1.510864	0.000179
 236	2.3383e+01	9.3495	43.752459	0.000517	5.168774	1.751228	0.000207
 237	2.3482e+01	9.3960	44.002761	0.000628	6.283608	2.128944	0.000252
 238	2.3581e+01	9.4345	44.184432	0.000456	4.560683	1.545201	0.000183
 239	2.3681e+01	9.4778	44.382252	0.000497	4.966077	1.682553	0.000199
 240	2.3780e+01	9.4987	44.600257	0.000547	5.472820	1.854242	0.000219
 241	2.3880e+01	9.5484	44.826337	0.000568	5.675517	1.922917	0.000227
 242	2.3980e+01	9.5917	45.003971	0.000446	4.459335	1.510864	0.000179
 243	2.4079e+01	9.6302	45.226013	0.000557	5.574168	1.888579	0.000223
 244	2.4178e+01	9.6783	45.439981	0.000537	5.371471	1.819904	0.000215
 245	2.4278e+01	9.7184	45.645875	0.000517	5.168774	1.751228	0.000207
 246	2.4378e+01	9.7505	45.803324	0.000395	3.952592	1.339174	0.000158
 247	2.4477e+01	9.7987	46.057663	0.000638	6.384957	2.163282	0.000256
 248	2.4576e+01	9.8356	46.259520	0.000507	5.067426	1.716890	0.000203
 249	2.4676e+01	9.8676	46.469451	0.000527	5.270123	1.785566	0.000211
 250	2.4776e+01	9.9126	46.639011	0.000426	4.256638	1.442188	0.000170
 251	2.4875e+01	9.9511	46.848942	0.000527	5.270123	1.785566	0.000211
 252	2.4974e+01	9.9880	47.058873	0.000527	5.270123	1.785566	0.000211
 253	2.5074e+01	10.0329	47.260730	0.000507	5.067426	1.716890	0.000203
 254	2.5174e+01	10.0714	47.450475	0.000476	4.763380	1.613877	0.000191
 255	2.5273e+01	10.1083	47.684629	0.000588	5.878214	1.991593	0.000235
 256	2.5372e+01	10.1532	47.882448	0.000497	4.966077	1.682553	0.000199
 257	2.5472e+01	10.1949	48.112565	0.000578	5.776865	1.957255	0.000231
 258	2.5572e+01	10.2238	48.306348	0.000486	4.864729	1.648215	0.000195
 259	2.5671e+01	10.2719	48.492056	0.000466	4.662032	1.579539	0.000187
 260	2.5770e+01	10.3168	48.697950	0.000517	5.168774	1.751228	0.000207
 261	2.5870e+01	10.3473	48.907881	0.000527	5.270123	1.785566	0.000211
 262	2.5970e+01	10.3986	49.105701	0.000497	4.966077	1.682553	0.000199
 263	2.6069e+01	10.4420	49.323706	0.000547	5.472820	1.854242	0.000219
 264	2.6169e+01	10.4676	49.533637	0.000527	5.270123	1.785566	0.000211
 265	2.6268e+01	10.5125	49.723382	0.000476	4.763380	1.613877	0.000191
 266	2.6367e+01	10.5382	49.921202	0.000497	4.966077	1.682553	0.000199
 267	2.6467e+01	10.5863	50.119022	0.000497	4.966077	1.682553	0.000199
 268	2.6567e+01	10.6329	50.341064	0.000557	5.574168	1.888579	0.000223
 269	2.6666e+01	10.6665	50.502550	0.000405	4.053941	1.373512	0.000162
 270	2.6765e+01	10.7163	50.732666	0.000578	5.776865	1.957255	0.000231
 271	2.6865e+01	10.7484	50.926449	0.000486	4.864729	1.648215	0.000195
 272	2.6965e+01	10.8029	51.124268	0.000497	4.966077	1.682553	0.000199
 273	2.7064e+01	10.8254	51.326125	0.000507	5.067426	1.716890	0.000203
 274	2.7163e+01	10.8639	51.572390	0.000618	6.182260	2.094606	0.000248
 275	2.7263e+01	10.9024	51.733876	0.000405	4.053941	1.373512	0.000162
 276	2.7363e+01	10.9425	51.919584	0.000466	4.662032	1.579539	0.000187
 277	2.7462e+01	10.9906	52.137589	0.000547	5.472820	1.854242	0.000219
 278	2.7561e+01	11.0371	52.339446	0.000507	5.067426	1.716890	0.000203
 279	2.7661e+01	11.0644	52.549377	0.000527	5.270123	1.785566	0.000211
 280	2.7761e+01	11.1205	52.755271	0.000517	5.168774	1.751228	0.000207
 281	2.7860e+01	11.1430	52.945017	0.000476	4.763380	1.613877	0.000191
 282	2.7959e+01	11.1927	53.142836	0.000497	4.966077	1.682553	0.000199
 283	2.8059e+01	11.2232	53.316433	0.000436	4.357986	1.476526	0.000174
 284	2.8159e+01	11.2681	53.582884	0.000669	6.689002	2.266295	0.000268
 285	2.8258e+01	11.3098	53.760518	0.000446	4.459335	1.510864	0.000179
 286	2.8358e+01	11.3451	53.954301	0.000486	4.864729	1.648215	0.000195
 287	2.8457e+01	11.3852	54.160194	0.000517	5.168774	1.751228	0.000207
 288	2.8556e+01	11.4286	54.349940	0.000476	4.763380	1.613877	0.000191
 289	2.8656e+01	11.4671	54.527574	0.000446	4.459335	1.510864	0.000179
 290	2.8756e+01	11.5056	54.765765	0.000598	5.979562	2.025931	0.000239
 291	2.8855e+01	11.5505	54.955510	0.000476	4.763380	1.613877	0.000191
 292	2.8954e+01	11.5858	55.157367	0.000507	5.067426	1.716890	0.000203
 293	2.9054e+01	11.6227	55.318852	0.000405	4.053941	1.373512	0.000162
 294	2.9154e+01	11.6596	55.553006	0.000588	5.878214	1.991593	0.000235
 295	2.9253e+01	11.7077	55.730640	0.000446	4.459335	1.510864	0.000179
 296	2.9352e+01	11.7478	55.912311	0.000456	4.560683	1.545201	0.000183
 297	2.9452e+01	11.7863	56.114168	0.000507	5.067426	1.716890	0.000203
 298	2.9552e+01	11.8248	56.316025	0.000507	5.067426	1.716890	0.000203
 299	2.9651e+01	11.8649	56.517882	0.000507	5.067426	1.716890	0.000203
 300	2.9750e+01	11.9066	56.711664	0.000486	4.864729	1.648215	0.000195
 301	2.9850e+01	11.9435	56.925632	0.000537	5.371471	1.819904	0.000215
 302	2.9950e+01	11.9884	57.091155	0.000416	4.155289	1.407850	0.000166
 303	3.0049e+01	12.0285	57.321272	0.000578	5.776865	1.957255	0.000231
 304	3.0148e+01	12.0622	57.454497	0.000334	3.344501	1.133148	0.000134
 305	3.0248e+01	12.1055	57.684614	0.000578	5.776865	1.957255	0.000231
 306	3.0348e+01	12.1521	57.902619	0.000547	5.472820	1.854242	0.000219
 307	3.0447e+01	12.1906	58.084290	0.000456	4.560683	1.545201	0.000183
 308	3.0547e+01	12.2226	58.269999	0.000466	4.662032	1.579539	0.000187
 309	3.0646e+01	12.2579	58.483967	0.000537	5.371471	1.819904	0.000215
 310	3.0745e+01	12.3029	58.657564	0.000436	4.357986	1.476526	0.000174
 311	3.0845e+01	12.3526	58.887680	0.000578	5.776865	1.957255	0.000231
 312	3.0945e+01	12.3718	59.053203	0.000416	4.155289	1.407850	0.000166
 313	3.1044e+01	12.4200	59.287357	0.000588	5.878214	1.991593	0.000235
 314	3.1143e+01	12.4729	59.481139	0.000486	4.864729	1.648215	0.000195
 315	3.1243e+01	12.5146	59.707219	0.000568	5.675517	1.922917	0.000227
 316	3.1343e+01	12.5403	59.901002	0.000486	4.864729	1.648215	0.000195
 317	3.1442e+01	12.5900	60.070561	0.000426	4.256638	1.442188	0.000170
 318	3.1541e+01	12.6253	60.300678	0.000578	5.776865	1.957255	0.000231
 319	3.1641e+01	12.6638	60.470238	0.000426	4.256638	1.442188	0.000170
 320	3.1741e+01	12.6943	60.639797	0.000426	4.256638	1.442188	0.000170
 321	3.1840e+01	12.7392	60.861840	0.000557	5.574168	1.888579	0.000223
 322	3.1939e+01	12.7873	61.055622	0.000486	4.864729	1.648215	0.000195
 323	3.2039e+01	12.8194	61.261516	0.000517	5.168774	1.751228	0.000207
 324	3.2139e+01	12.8676	61.443187	0.000456	4.560683	1.545201	0.000183
 325	3.2238e+01	12.9109	61.636970	0.000486	4.864729	1.648215	0.000195
 326	3.2337e+01	12.9413	61.859012	0.000557	5.574168	1.888579	0.000223
 327	3.2437e+01	12.9831	62.060869	0.000507	5.067426	1.716890	0.000203
 328	3.2536e+01	13.0167	62.218317	0.000395	3.952592	1.339174	0.000158
 329	3.2636e+01	13.0649	62.464583	0.000618	6.182260	2.094606	0.000248
 330	3.2736e+01	13.0954	62.654328	0.000476	4.763380	1.613877	0.000191
 331	3.2835e+01	13.1355	62.827925	0.000436	4.357986	1.476526	0.000174
 332	3.2934e+01	13.1756	63.013633	0.000466	4.662032	1.579539	0.000187
 333	3.3034e+01	13.2109	63.263936	0.000628	6.283608	2.128944	0.000252
 334	3.3133e+01	13.2622	63.385050	0.000304	3.040456	1.030134	0.000122
 335	3.3233e+01	13.2959	63.615166	0.000578	5.776865	1.957255	0.000231
 336	3.3333e+01	13.3392	63.845283	0.000578	5.776865	1.957255	0.000231
 337	3.3432e+01	13.3745	64.039066	0.000486	4.864729	1.648215	0.000195
 338	3.3532e+01	13.4162	64.228811	0.000476	4.763380	1.613877	0.000191
 339	3.3631e+01	13.4595	64.434705	0.000517	5.168774	1.751228	0.000207
 340	3.3730e+01	13.4916	64.640599	0.000517	5.168774	1.751228	0.000207
 341	3.3830e+01	13.5365	64.826307	0.000466	4.662032	1.579539	0.000187
 342	3.3929e+01	13.5750	64.991830	0.000416	4.155289	1.407850	0.000166
 343	3.4029e+01	13.6135	65.234058	0.000608	6.080911	2.060268	0.000243
 344	3.4129e+01	13.6568	65.419766	0.000466	4.662032	1.579539	0.000187
 345	3.4228e+01	13.6937	65.605474	0.000466	4.662032	1.579539	0.000187
 346	3.4328e+01	13.7290	65.855777	0.000628	6.283608	2.128944	0.000252
 347	3.4427e+01	13.7820	65.993039	0.000345	3.445850	1.167485	0.000138
 348	3.4526e+01	13.8285	66.182785	0.000476	4.763380	1.613877	0.000191
 349	3.4626e+01	13.8558	66.400790	0.000547	5.472820	1.854242	0.000219
 350	3.4725e+01	13.8911	66.598610	0.000497	4.966077	1.682553	0.000199
 351	3.4825e+01	13.9344	66.796429	0.000497	4.966077	1.682553	0.000199
 352	3.4925e+01	13.9793	66.994249	0.000497	4.966077	1.682553	0.000199
 353	3.5024e+01	14.0098	67.204180	0.000527	5.270123	1.785566	0.000211
 354	3.5123e+01	14.0563	67.406037	0.000507	5.067426	1.716890	0.000203
 355	3.5223e+01	14.1028	67.607894	0.000507	5.067426	1.716890	0.000203
 356	3.5322e+01	14.1333	67.785528	0.000446	4.459335	1.510864	0.000179
 357	3.5422e+01	14.1750	67.975273	0.000476	4.763380	1.613877	0.000191
 358	3.5522e+01	14.2151	68.185204	0.000527	5.270123	1.785566	0.000211
 359	3.5621e+01	14.2488	68.391098	0.000517	5.168774	1.751228	0.000207
 360	3.5721e+01	14.3017	68.596992	0.000517	5.168774	1.751228	0.000207
 361	3.5820e+01	14.3386	68.766552	0.000426	4.256638	1.442188	0.000170
 362	3.5919e+01	14.3739	68.992631	0.000568	5.675517	1.922917	0.000227
 363	3.6019e+01	14.4172	69.166228	0.000436	4.357986	1.476526	0.000174
 364	3.6118e+01	14.4590	69.355973	0.000476	4.763380	1.613877	0.000191
 365	3.6218e+01	14.4958	69.561867	0.000517	5.168774	1.751228	0.000207
 366	3.6318e+01	14.5440	69.787947	0.000568	5.675517	1.922917	0.000227
 367	3.6417e+01	14.5777	69.961544	0.000436	4.357986	1.476526	0.000174
 368	3.6517e+01	14.6081	70.203772	0.000608	6.080911	2.060268	0.000243
 369	3.6616e+01	14.6482	70.345072	0.000355	3.547198	1.201823	0.000142
 370	3.6715e+01	14.6964	70.559040	0.000537	5.371471	1.819904	0.000215
 371	3.6815e+01	14.7301	70.756860	0.000497	4.966077	1.682553	0.000199
 372	3.6914e+01	14.7702	70.946605	0.000476	4.763380	1.613877	0.000191
 373	3.7014e+01	14.8071	71.136350	0.000476	4.763380	1.613877	0.000191
 374	3.7114e+01	14.8568	71.293799	0.000395	3.952592	1.339174	0.000158
 375	3.7213e+01	14.8873	71.572361	0.000699	6.993048	2.369309	0.000280
 376	3.7313e+01	14.9274	71.758069	0.000466	4.662032	1.579539	0.000187
 377	3.7412e+01	14.9659	71.939740	0.000456	4.560683	1.545201	0.000183
 378	3.7511e+01	15.0124	72.117374	0.000446	4.459335	1.510864	0.000179
 379	3.7611e+01	15.0413	72.355565	0.000598	5.979562	2.025931	0.000239
 380	3.7711e+01	15.0878	72.549348	0.000486	4.864729	1.648215	0.000195
 381	3.7810e+01	15.1343	72.726982	0.000446	4.459335	1.510864	0.000179
 382	3.7910e+01	15.1712	72.936913	0.000527	5.270123	1.785566	0.000211
 383	3.8009e+01	15.2033	73.126658	0.000476	4.763380	1.613877	0.000191
 384	3.8108e+01	15.2498	73.308329	0.000456	4.560683	1.545201	0.000183
 385	3.8208e+01	15.2915	73.485963	0.000446	4.459335	1.510864	0.000179
 386	3.8307e+01	15.3317	73.728191	0.000608	6.080911	2.060268	0.000243
 387	3.8407e+01	15.3750	73.909863	0.000456	4.560683	1.545201	0.000183
 388	3.8507e+01	15.4151	74.127868	0.000547	5.472820	1.854242	0.000219
 389	3.8606e+01	15.4568	74.305502	0.000446	4.459335	1.510864	0.000179
 390	3.8706e+01	15.4889	74.535619	0.000578	5.776865	1.957255	0.000231
 391	3.8805e+01	15.5210	74.721327	0.000466	4.662032	1.579539	0.000187
 392	3.8904e+01	15.5659	74.902998	0.000456	4.560683	1.545201	0.000183
 393	3.9004e+01	15.6092	75.080632	0.000446	4.459335	1.510864	0.000179
 394	3.9103e+01	15.6429	75.274414	0.000486	4.864729	1.648215	0.000195
 395	3.9203e+01	15.6894	75.472234	0.000497	4.966077	1.682553	0.000199
 396	3.9303e+01	15.7327	75.670054	0.000497	4.966077	1.682553	0.000199
 397	3.9402e+01	15.7696	75.879985	0.000527	5.270123	1.785566	0.000211
 398	3.9502e+01	15.8145	76.081842	0.000507	5.067426	1.716890	0.000203
 399	3.9601e+01	15.8562	76.223141	0.000355	3.547198	1.201823	0.000142
 400	3.9700e+01	15.8851	76.457295	0.000588	5.878214	1.991593	0.000235
 401	3.9800e+01	15.9300	76.614743	0.000395	3.952592	1.339174	0.000158
 402	3.9900e+01	15.9685	76.820637	0.000517	5.168774	1.751228	0.000207
 403	3.9999e+01	15.9990	76.998271	0.000446	4.459335	1.510864	0.000179
 404	4.0099e+01	16.0423	77.216277	0.000547	5.472820	1.854242	0.000219
 405	4.0198e+01	16.0905	77.381799	0.000416	4.155289	1.407850	0.000166
 406	4.0297e+01	16.1241	77.567508	0.000466	4.662032	1.579539	0.000187
 407	4.0397e+01	16.1610	77.789550	0.000557	5.574168	1.888579	0.000223
 408	4.0496e+01	16.2076	77.967184	0.000446	4.459335	1.510864	0.000179
 409	4.0596e+01	16.2380	78.177115	0.000527	5.270123	1.785566	0.000211
 410	4.0696e+01	16.2814	78.378972	0.000507	5.067426	1.716890	0.000203
 411	4.0795e+01	16.3199	78.536420	0.000395	3.952592	1.339174	0.000158
 412	4.0895e+01	16.3696	78.718091	0.000456	4.560683	1.545201	0.000183
 413	4.0994e+01	16.4065	78.911874	0.000486	4.864729	1.648215	0.000195
 414	4.1093e+01	16.4562	79.097582	0.000466	4.662032	1.579539	0.000187
 415	4.1193e+01	16.4723	79.295402	0.000497	4.966077	1.682553	0.000199
 416	4.1292e+01	16.5412	79.505333	0.000527	5.270123	1.785566	0.000211
 417	4.1392e+01	16.5621	79.678929	0.000436	4.357986	1.476526	0.000174
 418	4.1492e+01	16.6150	79.884823	0.000517	5.168774	1.751228	0.000207
 419	4.1591e+01	16.6584	80.074569	0.000476	4.763380	1.613877	0.000191
 420	4.1691e+01	16.6840	80.252203	0.000446	4.459335	1.510864	0.000179
 421	4.1790e+01	16.7289	80.437911	0.000466	4.662032	1.579539	0.000187
 422	4.1889e+01	16.7674	80.659953	0.000557	5.574168	1.888579	0.000223
 423	4.1989e+01	16.8075	80.821439	0.000405	4.053941	1.373512	0.000162
 424	4.2089e+01	16.8573	80.990999	0.000426	4.256638	1.442188	0.000170
 425	4.2188e+01	16.8846	81.192855	0.000507	5.067426	1.716890	0.000203
 426	4.2288e+01	16.9263	81.370489	0.000446	4.459335	1.510864	0.000179
 427	4.2387e+01	16.9696	81.576383	0.000517	5.168774	1.751228	0.000207
 428	4.2486e+01	17.0001	81.737869	0.000405	4.053941	1.373512	0.000162
 429	4.2586e+01	17.0466	81.931651	0.000486	4.864729	1.648215	0.000195
 430	4.2685e+01	17.0899	82.149657	0.000547	5.472820	1.854242	0.000219
 431	4.2785e+01	17.1236	82.319216	0.000426	4.256638	1.442188	0.000170
 432	4.2885e+01	17.1605	82.525110	0.000517	5.168774	1.751228	0.000207
 433	4.2984e+01	17.2038	82.662373	0.000345	3.445850	1.167485	0.000138
 434	4.3084e+01	17.2439	82.900564	0.000598	5.979562	2.025931	0.000239
 435	4.3183e+01	17.2840	83.070124	0.000426	4.256638	1.442188	0.000170
 436	4.3282e+01	17.3257	83.259869	0.000476	4.763380	1.613877	0.000191
 437	4.3382e+01	17.3626	83.441540	0.000456	4.560683	1.545201	0.000183
 438	4.3481e+01	17.4043	83.603025	0.000405	4.053941	1.373512	0.000162
 439	4.3581e+01	17.4412	83.812956	0.000527	5.270123	1.785566	0.000211
 440	4.3681e+01	17.4781	84.006739	0.000486	4.864729	1.648215	0.000195
 441	4.3780e+01	17.5246	84.172262	0.000416	4.155289	1.407850	0.000166
 442	4.3880e+01	17.5696	84.382193	0.000527	5.270123	1.785566	0.000211
 443	4.3979e+01	17.6032	84.559827	0.000446	4.459335	1.510864	0.000179
 444	4.4078e+01	17.6466	84.737461	0.000446	4.459335	1.510864	0.000179
 445	4.4178e+01	17.6786	84.959503	0.000557	5.574168	1.888579	0.000223
 446	4.4278e+01	17.7220	85.133100	0.000436	4.357986	1.476526	0.000174
 447	4.4377e+01	17.7573	85.318808	0.000466	4.662032	1.579539	0.000187
 448	4.4477e+01	17.7958	85.512591	0.000486	4.864729	1.648215	0.000195
 449	4.4576e+01	17.8391	85.698299	0.000466	4.662032	1.579539	0.000187
 450	4.4675e+01	17.8760	85.831524	0.000334	3.344501	1.133148	0.000134
 451	4.4775e+01	17.9097	86.049530	0.000547	5.472820	1.854242	0.000219
 452	4.4874e+01	17.9626	86.227164	0.000446	4.459335	1.510864	0.000179
 453	4.4974e+01	17.9979	86.380575	0.000385	3.851244	1.304837	0.000154
 454	4.5074e+01	18.0476	86.570320	0.000476	4.763380	1.613877	0.000191
 455	4.5173e+01	18.0797	86.792363	0.000557	5.574168	1.888579	0.000223
 456	4.5273e+01	18.1294	86.941737	0.000375	3.749895	1.270499	0.000150
 457	4.5372e+01	18.1615	87.139556	0.000497	4.966077	1.682553	0.000199
 458	4.5471e+01	18.1952	87.317190	0.000446	4.459335	1.510864	0.000179
 459	4.5571e+01	18.2401	87.510973	0.000486	4.864729	1.648215	0.000195
 460	4.5670e+01	18.2802	87.696681	0.000466	4.662032	1.579539	0.000187
 461	4.5770e+01	18.3203	87.870278	0.000436	4.357986	1.476526	0.000174
 462	4.5870e+01	18.3588	88.068098	0.000497	4.966077	1.682553	0.000199
 463	4.5969e+01	18.4070	88.209397	0.000355	3.547198	1.201823	0.000142
 464	4.6069e+01	18.4374	88.358771	0.000375	3.749895	1.270499	0.000150
 465	4.6168e+01	18.4824	88.596962	0.000598	5.979562	2.025931	0.000239
 466	4.6267e+01	18.5096	88.814968	0.000547	5.472820	1.854242	0.000219
 467	4.6367e+01	18.5562	88.936082	0.000304	3.040456	1.030134	0.000122
 468	4.6467e+01	18.6011	89.154087	0.000547	5.472820	1.854242	0.000219
 469	4.6566e+01	18.6380	89.315573	0.000405	4.053941	1.373512	0.000162
 470	4.6666e+01	18.6733	89.481095	0.000416	4.155289	1.407850	0.000166
 471	4.6765e+01	18.7182	89.662766	0.000456	4.560683	1.545201	0.000183
 472	4.6864e+01	18.7519	89.868660	0.000517	5.168774	1.751228	0.000207
 473	4.6964e+01	18.7952	90.038220	0.000426	4.256638	1.442188	0.000170
 474	4.7063e+01	18.8385	90.211817	0.000436	4.357986	1.476526	0.000174
 475	4.7163e+01	18.8770	90.401562	0.000476	4.763380	1.613877	0.000191
 476	4.7263e+01	18.9235	90.607456	0.000517	5.168774	1.751228	0.000207
 477	4.7362e+01	18.9604	90.777016	0.000426	4.256638	1.442188	0.000170
 478	4.7462e+01	19.0037	90.938501	0.000405	4.053941	1.373512	0.000162
 479	4.7561e+01	19.0358	91.156506	0.000547	5.472820	1.854242	0.000219
 480	4.7660e+01	19.0791	91.334140	0.000446	4.459335	1.510864	0.000179
 481	4.7760e+01	19.1096	91.503700	0.000426	4.256638	1.442188	0.000170
 482	4.7859e+01	19.1577	91.701520	0.000497	4.966077	1.682553	0.000199
 483	4.7959e+01	19.1946	91.875117	0.000436	4.357986	1.476526	0.000174
 484	4.8059e+01	19.2364	92.072936	0.000497	4.966077	1.682553	0.000199
 485	4.8158e+01	19.2781	92.238459	0.000416	4.155289	1.407850	0.000166
 486	4.8258e+01	19.3134	92.399944	0.000405	4.053941	1.373512	0.000162
 487	4.8357e+01	19.3519	92.597764	0.000497	4.966077	1.682553	0.000199
 488	4.8456e+01	19.4096	92.755212	0.000395	3.952592	1.339174	0.000158
 489	4.8556e+01	19.4385	92.965143	0.000527	5.270123	1.785566	0.000211
 490	4.8656e+01	19.4674	93.102406	0.000345	3.445850	1.167485	0.000138
 491	4.8755e+01	19.5075	93.292151	0.000476	4.763380	1.613877	0.000191
 492	4.8855e+01	19.5588	93.498045	0.000517	5.168774	1.751228	0.000207
 493	4.8954e+01	19.5941	93.691828	0.000486	4.864729	1.648215	0.000195
 494	4.9053e+01	19.6358	93.877536	0.000466	4.662032	1.579539	0.000187
 495	4.9153e+01	19.6775	94.087467	0.000527	5.270123	1.785566	0.000211
 496	4.9252e+01	19.7080	94.232804	0.000365	3.648547	1.236161	0.000146
 497	4.9352e+01	19.7577	94.418512	0.000466	4.662032	1.579539	0.000187
 498	4.9452e+01	19.7946	94.604220	0.000466	4.662032	1.579539	0.000187
 499	4.9551e+01	19.8315	94.842411	0.000598	5.979562	2.025931	0.000239
 500	4.9651e+01	19.8652	94.975637	0.000334	3.344501	1.133148	0.000134
 501	4.9750e+01	19.9117	95.149234	0.000436	4.357986	1.476526	0.000174
 502	4.9849e+01	19.9502	95.306682	0.000395	3.952592	1.339174	0.000158
 503	4.9949e+01	19.9903	95.536799	0.000578	5.776865	1.957255	0.000231
 504	5.0048e+01	19.9502	95.379350	0.000395	3.952592	1.339174	-0.000158
 505	5.0148e+01	19.9053	95.290533	0.000223	2.229667	0.755432	-0.000089
 506	5.0248e+01	19.8748	95.181531	0.000274	2.736410	0.927121	-0.000110
 507	5.0347e+01	19.8379	95.003897	0.000446	4.459335	1.510864	-0.000179
 508	5.0447e+01	19.7914	94.874708	0.000324	3.243153	1.098810	-0.000130
 509	5.0546e+01	19.7481	94.757631	0.000294	2.939107	0.995796	-0.000118
 510	5.0645e+01	19.7160	94.567886	0.000476	4.763380	1.613877	-0.000191
 511	5.0745e+01	19.6727	94.462921	0.000264	2.635061	0.892783	-0.000105
 512	5.0844e+01	19.6342	94.313547	0.000375	3.749895	1.270499	-0.000150
 513	5.0944e+01	19.6037	94.152061	0.000405	4.053941	1.373512	-0.000162
 514	5.1044e+01	19.5588	94.026910	0.000314	3.141804	1.064472	-0.000126
 515	5.1143e+01	19.5027	93.889647	0.000345	3.445850	1.167485	-0.000138
 516	5.1242e+01	19.4674	93.776607	0.000284	2.837758	0.961459	-0.000114
 517	5.1342e+01	19.4385	93.627233	0.000375	3.749895	1.270499	-0.000150
 518	5.1441e+01	19.3872	93.465748	0.000405	4.053941	1.373512	-0.000162
 519	5.1541e+01	19.3583	93.300225	0.000416	4.155289	1.407850	-0.000166
 520	5.1641e+01	19.3134	93.195260	0.000264	2.635061	0.892783	-0.000105
 521	5.1740e+01	19.2749	93.005515	0.000476	4.763380	1.613877	-0.000191
 522	5.1840e+01	19.2396	92.908623	0.000243	2.432364	0.824107	-0.000097
 523	5.1939e+01	19.1979	92.759249	0.000375	3.749895	1.270499	-0.000150
 524	5.2038e+01	19.1610	92.609875	0.000375	3.749895	1.270499	-0.000150
 525	5.2138e+01	19.1128	92.456464	0.000385	3.851244	1.304837	-0.000154
 526	5.2237e+01	19.0775	92.319201	0.000345	3.445850	1.167485	-0.000138
 527	5.2337e+01	19.0438	92.137530	0.000456	4.560683	1.545201	-0.000183
 528	5.2437e+01	19.0021	92.000268	0.000345	3.445850	1.167485	-0.000138
 529	5.2536e+01	18.9508	91.822634	0.000446	4.459335	1.510864	-0.000179
 530	5.2636e+01	18.9107	91.689408	0.000334	3.344501	1.133148	-0.000134
 531	5.2735e+01	18.8818	91.535997	0.000385	3.851244	1.304837	-0.000154
 532	5.2834e+01	18.8353	91.378549	0.000395	3.952592	1.339174	-0.000158
 533	5.2934e+01	18.7984	91.213026	0.000416	4.155289	1.407850	-0.000166
 534	5.3033e+01	18.7567	91.091912	0.000304	3.040456	1.030134	-0.000122
 535	5.3133e+01	18.7102	90.962724	0.000324	3.243153	1.098810	-0.000130
 536	5.3233e+01	18.6861	90.793164	0.000426	4.256638	1.442188	-0.000170
 537	5.3332e+01	18.6348	90.647827	0.000365	3.648547	1.236161	-0.000146
 538	5.3431e+01	18.6027	90.506528	0.000355	3.547198	1.201823	-0.000142
 539	5.3531e+01	18.5513	90.341005	0.000416	4.155289	1.407850	-0.000166
 540	5.3630e+01	18.5193	90.211817	0.000324	3.243153	1.098810	-0.000130
 541	5.3730e+01	18.4743	90.046294	0.000416	4.155289	1.407850	-0.000166
 542	5.3830e+01	18.4439	89.876734	0.000426	4.256638	1.442188	-0.000170
 543	5.3929e+01	18.4022	89.735435	0.000355	3.547198	1.201823	-0.000142
 544	5.4029e+01	18.3588	89.582023	0.000385	3.851244	1.304837	-0.000154
 545	5.4128e+01	18.3139	89.448798	0.000334	3.344501	1.133148	-0.000134
 546	5.4227e+01	18.2834	89.275201	0.000436	4.357986	1.476526	-0.000174
 547	5.4327e+01	18.2353	89.162161	0.000284	2.837758	0.961459	-0.000114
 548	5.4426e+01	18.1904	88.984527	0.000446	4.459335	1.510864	-0.000179
 549	5.4526e+01	18.1535	88.827079	0.000395	3.952592	1.339174	-0.000158
 550	5.4626e+01	18.1230	88.653482	0.000436	4.357986	1.476526	-0.000174
 551	5.4725e+01	18.0749	88.508145	0.000365	3.648547	1.236161	-0.000146
 552	5.4825e+01	18.0364	88.350697	0.000395	3.952592	1.339174	-0.000158
 553	5.4924e+01	18.0059	88.229583	0.000304	3.040456	1.030134	-0.000122
 554	5.5023e+01	17.9594	88.051949	0.000446	4.459335	1.510864	-0.000179
 555	5.5123e+01	17.9209	87.850092	0.000507	5.067426	1.716890	-0.000203
 556	5.5222e+01	17.8760	87.728978	0.000304	3.040456	1.030134	-0.000122
 557	5.5322e+01	17.8407	87.591716	0.000345	3.445850	1.167485	-0.000138
 558	5.5422e+01	17.8054	87.414082	0.000446	4.459335	1.510864	-0.000179
 559	5.5521e+01	17.7589	87.292967	0.000304	3.040456	1.030134	-0.000122
 560	5.5620e+01	17.7236	87.127445	0.000416	4.155289	1.407850	-0.000166
 561	5.5720e+01	17.6738	86.965960	0.000405	4.053941	1.373512	-0.000162
 562	5.5819e+01	17.6498	86.828697	0.000345	3.445850	1.167485	-0.000138
 563	5.5919e+01	17.6032	86.667211	0.000405	4.053941	1.373512	-0.000162
 564	5.6019e+01	17.5583	86.457280	0.000527	5.270123	1.785566	-0.000211
 565	5.6118e+01	17.5295	86.356352	0.000253	2.533713	0.858445	-0.000101
 566	5.6218e+01	17.4861	86.170644	0.000466	4.662032	1.579539	-0.000187
 567	5.6317e+01	17.4396	86.013195	0.000395	3.952592	1.339174	-0.000158
 568	5.6416e+01	17.4027	85.803264	0.000527	5.270123	1.785566	-0.000211
 569	5.6516e+01	17.3626	85.690225	0.000284	2.837758	0.961459	-0.000114
 570	5.6615e+01	17.3289	85.528739	0.000405	4.053941	1.373512	-0.000162
 571	5.6715e+01	17.2888	85.351105	0.000446	4.459335	1.510864	-0.000179
 572	5.6815e+01	17.2471	85.193657	0.000395	3.952592	1.339174	-0.000158
 573	5.6914e+01	17.2086	85.024097	0.000426	4.256638	1.442188	-0.000170
 574	5.7014e+01	17.1685	84.866649	0.000395	3.952592	1.339174	-0.000158
 575	5.7113e+01	17.1268	84.701126	0.000416	4.155289	1.407850	-0.000166
 576	5.7212e+01	17.0819	84.515418	0.000466	4.662032	1.579539	-0.000187
 577	5.7312e+01	17.0434	84.353933	0.000405	4.053941	1.373512	-0.000162
 578	5.7411e+01	16.9985	84.196484	0.000395	3.952592	1.339174	-0.000158
 579	5.7511e+01	16.9664	84.018850	0.000446	4.459335	1.510864	-0.000179
 580	5.7611e+01	16.9214	83.869476	0.000375	3.749895	1.270499	-0.000150
 581	5.7710e+01	16.8846	83.732214	0.000345	3.445850	1.167485	-0.000138
 582	5.7809e+01	16.8541	83.550543	0.000456	4.560683	1.545201	-0.000183
 583	5.7909e+01	16.8027	83.393094	0.000395	3.952592	1.339174	-0.000158
 584	5.8008e+01	16.7690	83.219498	0.000436	4.357986	1.476526	-0.000174
 585	5.8108e+01	16.7321	83.037826	0.000456	4.560683	1.545201	-0.000183
 586	5.8208e+01	16.6824	82.904601	0.000334	3.344501	1.133148	-0.000134
 587	5.8307e+01	16.6519	82.710818	0.000486	4.864729	1.648215	-0.000195
 588	5.8407e+01	16.6070	82.557407	0.000385	3.851244	1.304837	-0.000154
 589	5.8506e+01	16.5669	82.367662	0.000476	4.763380	1.613877	-0.000191
 590	5.8605e+01	16.5284	82.238474	0.000324	3.243153	1.098810	-0.000130
 591	5.8705e+01	16.4899	82.036617	0.000507	5.067426	1.716890	-0.000203
 592	5.8804e+01	16.4498	81.915503	0.000304	3.040456	1.030134	-0.000122
 593	5.8904e+01	16.4049	81.729794	0.000466	4.662032	1.579539	-0.000187
 594	5.9004e+01	16.3600	81.564272	0.000416	4.155289	1.407850	-0.000166
 595	5.9103e+01	16.3167	81.414898	0.000375	3.749895	1.270499	-0.000150
 596	5.9203e+01	16.2942	81.221115	0.000486	4.864729	1.648215	-0.000195
 597	5.9302e+01	16.2445	81.075778	0.000365	3.648547	1.236161	-0.000146
 598	5.9401e+01	16.2076	80.857773	0.000547	5.472820	1.854242	-0.000219
 599	5.9501e+01	16.1626	80.716473	0.000355	3.547198	1.201823	-0.000142
 600	5.9600e+01	16.1193	80.546914	0.000426	4.256638	1.442188	-0.000170
 601	5.9700e+01	16.0856	80.381391	0.000416	4.155289	1.407850	-0.000166
 602	5.9800e+01	16.0552	80.207794	0.000436	4.357986	1.476526	-0.000174
 603	5.9899e+01	16.0022	80.050346	0.000395	3.952592	1.339174	-0.000158
 604	5.9998e+01	15.9701	79.868675	0.000456	4.560683	1.545201	-0.000183
 605	6.0098e+01	15.9172	79.703152	0.000416	4.155289	1.407850	-0.000166
 606	6.0197e+01	15.8835	79.541667	0.000405	4.053941	1.373512	-0.000162
 607	6.0297e+01	15.8482	79.372107	0.000426	4.256638	1.442188	-0.000170
 608	6.0397e+01	15.8097	79.174288	0.000497	4.966077	1.682553	-0.000199
 609	6.0496e+01	15.7696	79.024914	0.000375	3.749895	1.270499	-0.000150
 610	6.0596e+01	15.7295	78.883614	0.000355	3.547198	1.201823	-0.000142
 611	6.0695e+01	15.6846	78.693868	0.000476	4.763380	1.613877	-0.000191
 612	6.0794e+01	15.6477	78.496049	0.000497	4.966077	1.682553	-0.000199
 613	6.0894e+01	15.6172	78.346675	0.000375	3.749895	1.270499	-0.000150
 614	6.0993e+01	15.5691	78.185189	0.000405	4.053941	1.373512	-0.000162
 615	6.1093e+01	15.5290	78.060038	0.000314	3.141804	1.064472	-0.000126
 616	6.1193e+01	15.4905	77.846070	0.000537	5.371471	1.819904	-0.000215
 617	6.1292e+01	15.4552	77.644213	0.000507	5.067426	1.716890	-0.000203
 618	6.1392e+01	15.4167	77.494839	0.000375	3.749895	1.270499	-0.000150
 619	6.1491e+01	15.3718	77.341428	0.000385	3.851244	1.304837	-0.000154
 620	6.1590e+01	15.3397	77.155720	0.000466	4.662032	1.579539	-0.000187
 621	6.1690e+01	15.2867	76.982123	0.000436	4.357986	1.476526	-0.000174
 622	6.1789e+01	15.2514	76.804489	0.000446	4.459335	1.510864	-0.000179
 623	6.1889e+01	15.2033	76.630892	0.000436	4.357986	1.476526	-0.000174
 624	6.1989e+01	15.1744	76.465369	0.000416	4.155289	1.407850	-0.000166
 625	6.2088e+01	15.1295	76.279661	0.000466	4.662032	1.579539	-0.000187
 626	6.2188e+01	15.0942	76.085879	0.000486	4.864729	1.648215	-0.000195
 627	6.2287e+01	15.0461	75.916319	0.000426	4.256638	1.442188	-0.000170
 628	6.2386e+01	15.0140	75.775019	0.000355	3.547198	1.201823	-0.000142
 629	6.2486e+01	14.9691	75.548940	0.000568	5.675517	1.922917	-0.000227
 630	6.2586e+01	14.9322	75.439937	0.000274	2.736410	0.927121	-0.000110
 631	6.2685e+01	14.8953	75.205783	0.000588	5.878214	1.991593	-0.000235
 632	6.2785e+01	14.8584	75.044298	0.000405	4.053941	1.373512	-0.000162
 633	6.2884e+01	14.8151	74.838404	0.000517	5.168774	1.751228	-0.000207
 634	6.2983e+01	14.7750	74.680955	0.000395	3.952592	1.339174	-0.000158
 635	6.3083e+01	14.7317	74.519470	0.000405	4.053941	1.373512	-0.000162
 636	6.3182e+01	14.6916	74.329725	0.000476	4.763380	1.613877	-0.000191
 637	6.3282e+01	14.6627	74.164202	0.000416	4.155289	1.407850	-0.000166
 638	6.3382e+01	14.6130	73.970420	0.000486	4.864729	1.648215	-0.000195
 639	6.3481e+01	14.5745	73.800860	0.000426	4.256638	1.442188	-0.000170
 640	6.3581e+01	14.5376	73.643412	0.000395	3.952592	1.339174	-0.000158
 641	6.3680e+01	14.4910	73.461740	0.000456	4.560683	1.545201	-0.000183
 642	6.3779e+01	14.4573	73.276032	0.000466	4.662032	1.579539	-0.000187
 643	6.3879e+01	14.4092	73.102435	0.000436	4.357986	1.476526	-0.000174
 644	6.3978e+01	14.3707	72.949024	0.000385	3.851244	1.304837	-0.000154
 645	6.4078e+01	14.3290	72.751205	0.000497	4.966077	1.682553	-0.000199
 646	6.4177e+01	14.2857	72.577608	0.000436	4.357986	1.476526	-0.000174
 647	6.4277e+01	14.2552	72.432271	0.000365	3.648547	1.236161	-0.000146
 648	6.4376e+01	14.2215	72.234451	0.000497	4.966077	1.682553	-0.000199
 649	6.4476e+01	14.1686	72.032594	0.000507	5.067426	1.716890	-0.000203
 650	6.4576e+01	14.1365	71.854960	0.000446	4.459335	1.510864	-0.000179
 651	6.4675e+01	14.0964	71.721735	0.000334	3.344501	1.133148	-0.000134
 652	6.4775e+01	14.0483	71.503730	0.000547	5.472820	1.854242	-0.000219
 653	6.4874e+01	14.0162	71.334170	0.000426	4.256638	1.442188	-0.000170
 654	6.4974e+01	13.9761	71.180759	0.000385	3.851244	1.304837	-0.000154
 655	6.5073e+01	13.9360	71.027348	0.000385	3.851244	1.304837	-0.000154
 656	6.5172e+01	13.8862	70.785119	0.000608	6.080911	2.060268	-0.000243
 657	6.5272e+01	13.8622	70.651894	0.000334	3.344501	1.133148	-0.000134
 658	6.5371e+01	13.8140	70.450037	0.000507	5.067426	1.716890	-0.000203
 659	6.5471e+01	13.7772	70.288552	0.000405	4.053941	1.373512	-0.000162
 660	6.5570e+01	13.7322	70.123029	0.000416	4.155289	1.407850	-0.000166
 661	6.5670e+01	13.6969	69.981729	0.000355	3.547198	1.201823	-0.000142
 662	6.5769e+01	13.6697	69.775836	0.000517	5.168774	1.751228	-0.000207
 663	6.5869e+01	13.6167	69.602239	0.000436	4.357986	1.476526	-0.000174
 664	6.5969e+01	13.5814	69.412493	0.000476	4.763380	1.613877	-0.000191
 665	6.6068e+01	13.5365	69.234859	0.000446	4.459335	1.510864	-0.000179
 666	6.6168e+01	13.4932	69.041077	0.000486	4.864729	1.648215	-0.000195
 667	6.6267e+01	13.4611	68.863443	0.000446	4.459335	1.510864	-0.000179
 668	6.6367e+01	13.4242	68.685809	0.000446	4.459335	1.510864	-0.000179
 669	6.6466e+01	13.3649	68.536435	0.000375	3.749895	1.270499	-0.000150
 670	6.6566e+01	13.3360	68.358801	0.000446	4.459335	1.510864	-0.000179
 671	6.6665e+01	13.2927	68.165018	0.000486	4.864729	1.648215	-0.000195
 672	6.6764e+01	13.2654	67.991422	0.000436	4.357986	1.476526	-0.000174
 673	6.6864e+01	13.2157	67.817825	0.000436	4.357986	1.476526	-0.000174
 674	6.6963e+01	13.1804	67.644228	0.000436	4.357986	1.476526	-0.000174
 675	6.7063e+01	13.1387	67.470631	0.000436	4.357986	1.476526	-0.000174
 676	6.7162e+01	13.1066	67.272811	0.000497	4.966077	1.682553	-0.000199
 677	6.7262e+01	13.0536	67.107289	0.000416	4.155289	1.407850	-0.000166
 678	6.7362e+01	13.0216	66.933692	0.000436	4.357986	1.476526	-0.000174
 679	6.7461e+01	12.9815	66.756058	0.000446	4.459335	1.510864	-0.000179
 680	6.7561e+01	12.9365	66.574387	0.000456	4.560683	1.545201	-0.000183
 681	6.7660e+01	12.9044	66.416939	0.000395	3.952592	1.339174	-0.000158
 682	6.7760e+01	12.8467	66.263527	0.000385	3.851244	1.304837	-0.000154
 683	6.7859e+01	12.8242	66.057634	0.000517	5.168774	1.751228	-0.000207
 684	6.7959e+01	12.7873	65.904222	0.000385	3.851244	1.304837	-0.000154
 685	6.8058e+01	12.7408	65.710440	0.000486	4.864729	1.648215	-0.000195
 686	6.8157e+01	12.6959	65.504546	0.000517	5.168774	1.751228	-0.000207
 687	6.8257e+01	12.6558	65.343060	0.000405	4.053941	1.373512	-0.000162
 688	6.8356e+01	12.6269	65.145241	0.000497	4.966077	1.682553	-0.000199
 689	6.8456e+01	12.5820	64.991830	0.000385	3.851244	1.304837	-0.000154
 690	6.8555e+01	12.5403	64.798047	0.000486	4.864729	1.648215	-0.000195
 691	6.8655e+01	12.4922	64.571968	0.000568	5.675517	1.922917	-0.000227
 692	6.8754e+01	12.4585	64.450853	0.000304	3.040456	1.030134	-0.000122
 693	6.8854e+01	12.4200	64.285331	0.000416	4.155289	1.407850	-0.000166
 694	6.8954e+01	12.3831	64.111734	0.000436	4.357986	1.476526	-0.000174
 695	6.9053e+01	12.3462	63.926026	0.000466	4.662032	1.579539	-0.000187
 696	6.9153e+01	12.3061	63.691872	0.000588	5.878214	1.991593	-0.000235
 697	6.9252e+01	12.2595	63.558646	0.000334	3.344501	1.133148	-0.000134
 698	6.9352e+01	12.2210	63.376975	0.000456	4.560683	1.545201	-0.000183
 699	6.9451e+01	12.1874	63.203379	0.000436	4.357986	1.476526	-0.000174
 700	6.9550e+01	12.1424	63.013633	0.000476	4.763380	1.613877	-0.000191
 701	6.9650e+01	12.1071	62.844073	0.000426	4.256638	1.442188	-0.000170
 702	6.9749e+01	12.0606	62.650291	0.000486	4.864729	1.648215	-0.000195
 703	6.9849e+01	12.0173	62.448434	0.000507	5.067426	1.716890	-0.000203
 704	6.9948e+01	11.9900	62.282912	0.000416	4.155289	1.407850	-0.000166
 705	7.0048e+01	11.9467	62.077018	0.000517	5.168774	1.751228	-0.000207
 706	7.0147e+01	11.9034	61.891309	0.000466	4.662032	1.579539	-0.000187
 707	7.0247e+01	11.8617	61.754047	0.000345	3.445850	1.167485	-0.000138
 708	7.0347e+01	11.8328	61.576413	0.000446	4.459335	1.510864	-0.000179
 709	7.0446e+01	11.7863	61.382630	0.000486	4.864729	1.648215	-0.000195
 710	7.0546e+01	11.7494	61.221145	0.000405	4.053941	1.373512	-0.000162
 711	7.0645e+01	11.7109	61.063697	0.000395	3.952592	1.339174	-0.000158
 712	7.0745e+01	11.6596	60.849728	0.000537	5.371471	1.819904	-0.000215
 713	7.0844e+01	11.6339	60.696317	0.000385	3.851244	1.304837	-0.000154
 714	7.0944e+01	11.5890	60.478312	0.000547	5.472820	1.854242	-0.000219
 715	7.1043e+01	11.5473	60.316826	0.000405	4.053941	1.373512	-0.000162
 716	7.1142e+01	11.5056	60.127081	0.000476	4.763380	1.613877	-0.000191
 717	7.1242e+01	11.4703	59.953484	0.000436	4.357986	1.476526	-0.000174
 718	7.1341e+01	11.4286	59.763739	0.000476	4.763380	1.613877	-0.000191
 719	7.1441e+01	11.3852	59.590142	0.000436	4.357986	1.476526	-0.000174
 720	7.1540e+01	11.3403	59.424619	0.000416	4.155289	1.407850	-0.000166
 721	7.1640e+01	11.3114	59.275245	0.000375	3.749895	1.270499	-0.000150
 722	7.1740e+01	11.2681	59.028980	0.000618	6.182260	2.094606	-0.000248
 723	7.1839e+01	11.2344	58.859420	0.000426	4.256638	1.442188	-0.000170
 724	7.1939e+01	11.1911	58.685824	0.000436	4.357986	1.476526	-0.000174
 725	7.2038e+01	11.1494	58.504153	0.000456	4.560683	1.545201	-0.000183
 726	7.2138e+01	11.1109	58.298259	0.000517	5.168774	1.751228	-0.000207
 727	7.2237e+01	11.0644	58.104476	0.000486	4.864729	1.648215	-0.000195
 728	7.2337e+01	11.0355	57.951065	0.000385	3.851244	1.304837	-0.000154
 729	7.2436e+01	10.9906	57.745171	0.000517	5.168774	1.751228	-0.000207
 730	7.2535e+01	10.9553	57.575611	0.000426	4.256638	1.442188	-0.000170
 731	7.2635e+01	10.9136	57.397977	0.000446	4.459335	1.510864	-0.000179
 732	7.2734e+01	10.8671	57.208232	0.000476	4.763380	1.613877	-0.000191
 733	7.2834e+01	10.8238	57.022524	0.000466	4.662032	1.579539	-0.000187
 734	7.2933e+01	10.7933	56.852964	0.000426	4.256638	1.442188	-0.000170
 735	7.3033e+01	10.7548	56.626884	0.000568	5.675517	1.922917	-0.000227
 736	7.3132e+01	10.7131	56.437139	0.000476	4.763380	1.613877	-0.000191
 737	7.3232e+01	10.6633	56.267579	0.000426	4.256638	1.442188	-0.000170
 738	7.3332e+01	10.6329	56.057648	0.000527	5.270123	1.785566	-0.000211
 739	7.3431e+01	10.5911	55.904237	0.000385	3.851244	1.304837	-0.000154
 740	7.3531e+01	10.5494	55.710455	0.000486	4.864729	1.648215	-0.000195
 741	7.3630e+01	10.5174	55.524746	0.000466	4.662032	1.579539	-0.000187
 742	7.3730e+01	10.4821	55.343075	0.000456	4.560683	1.545201	-0.000183
 743	7.3829e+01	10.4371	55.149293	0.000486	4.864729	1.648215	-0.000195
 744	7.3928e+01	10.3986	54.983770	0.000416	4.155289	1.407850	-0.000166
 745	7.4028e+01	10.3521	54.757691	0.000568	5.675517	1.922917	-0.000227
 746	7.4127e+01	10.3072	54.592168	0.000416	4.155289	1.407850	-0.000166
 747	7.4227e+01	10.2719	54.410497	0.000456	4.560683	1.545201	-0.000183
 748	7.4326e+01	10.2302	54.172306	0.000598	5.979562	2.025931	-0.000239
 749	7.4426e+01	10.1965	53.986598	0.000466	4.662032	1.579539	-0.000187
 750	7.4525e+01	10.1468	53.780704	0.000517	5.168774	1.751228	-0.000207
 751	7.4625e+01	10.1099	53.623255	0.000395	3.952592	1.339174	-0.000158
 752	7.4725e+01	10.0666	53.401213	0.000557	5.574168	1.888579	-0.000223
 753	7.4824e+01	10.0345	53.211468	0.000476	4.763380	1.613877	-0.000191
 754	7.4924e+01	9.9928	53.070168	0.000355	3.547198	1.201823	-0.000142
 755	7.5023e+01	9.9559	52.856200	0.000537	5.371471	1.819904	-0.000215
 756	7.5123e+01	9.9110	52.686640	0.000426	4.256638	1.442188	-0.000170
 757	7.5222e+01	9.8676	52.460560	0.000568	5.675517	1.922917	-0.000227
 758	7.5322e+01	9.8339	52.299075	0.000405	4.053941	1.373512	-0.000162
 759	7.5421e+01	9.7906	52.101255	0.000497	4.966077	1.682553	-0.000199
 760	7.5520e+01	9.7489	51.907473	0.000486	4.864729	1.648215	-0.000195
 761	7.5620e+01	9.7152	51.697542	0.000527	5.270123	1.785566	-0.000211
 762	7.5719e+01	9.6751	51.536056	0.000405	4.053941	1.373512	-0.000162
 763	7.5819e+01	9.6430	51.318051	0.000547	5.472820	1.854242	-0.000219
 764	7.5918e+01	9.5965	51.124268	0.000486	4.864729	1.648215	-0.000195
 765	7.6018e+01	9.5628	50.922412	0.000507	5.067426	1.716890	-0.000203
 766	7.6118e+01	9.5179	50.716518	0.000517	5.168774	1.751228	-0.000207
 767	7.6217e+01	9.4794	50.583292	0.000334	3.344501	1.133148	-0.000134
 768	7.6317e+01	9.4329	50.373361	0.000527	5.270123	1.785566	-0.000211
 769	7.6416e+01	9.4056	50.195727	0.000446	4.459335	1.510864	-0.000179
 770	7.6516e+01	9.3527	49.973685	0.000557	5.574168	1.888579	-0.000223
 771	7.6615e+01	9.3126	49.771828	0.000507	5.067426	1.716890	-0.000203
 772	7.6715e+01	9.2805	49.578045	0.000486	4.864729	1.648215	-0.000195
 773	7.6814e+01	9.2292	49.364077	0.000537	5.371471	1.819904	-0.000215
 774	7.6913e+01	9.2003	49.186443	0.000446	4.459335	1.510864	-0.000179
 775	7.7013e+01	9.1570	49.000735	0.000466	4.662032	1.579539	-0.000187
 776	7.7112e+01	9.1136	48.806953	0.000486	4.864729	1.648215	-0.000195
 777	7.7212e+01	9.0832	48.645467	0.000405	4.053941	1.373512	-0.000162
 778	7.7311e+01	9.0382	48.415350	0.000578	5.776865	1.957255	-0.000231
 779	7.7411e+01	8.9933	48.201382	0.000537	5.371471	1.819904	-0.000215
 780	7.7510e+01	8.9612	47.995488	0.000517	5.168774	1.751228	-0.000207
 781	7.7610e+01	8.9163	47.850151	0.000365	3.648547	1.236161	-0.000146
 782	7.7710e+01	8.8826	47.660406	0.000476	4.763380	1.613877	-0.000191
 783	7.7809e+01	8.8377	47.446438	0.000537	5.371471	1.819904	-0.000215
 784	7.7909e+01	8.7944	47.264767	0.000456	4.560683	1.545201	-0.000183
 785	7.8008e+01	8.7575	47.075021	0.000476	4.763380	1.613877	-0.000191
 786	7.8108e+01	8.7190	46.877202	0.000497	4.966077	1.682553	-0.000199
 787	7.8207e+01	8.6757	46.683419	0.000486	4.864729	1.648215	-0.000195
 788	7.8306e+01	8.6356	46.473488	0.000527	5.270123	1.785566	-0.000211
 789	7.8406e+01	8.5987	46.267594	0.000517	5.168774	1.751228	-0.000207
 790	7.8505e+01	8.5570	46.114183	0.000385	3.851244	1.304837	-0.000154
 791	7.8605e+01	8.5281	45.896178	0.000547	5.472820	1.854242	-0.000219
 792	7.8704e+01	8.4816	45.686247	0.000527	5.270123	1.785566	-0.000211
 793	7.8804e+01	8.4286	45.468241	0.000547	5.472820	1.854242	-0.000219
 794	7.8903e+01	8.3966	45.286570	0.000456	4.560683	1.545201	-0.000183
 795	7.9003e+01	8.3661	45.068565	0.000547	5.472820	1.854242	-0.000219
 796	7.9103e+01	8.3228	44.890931	0.000446	4.459335	1.510864	-0.000179
 797	7.9202e+01	8.2810	44.648703	0.000608	6.080911	2.060268	-0.000243
 798	7.9302e+01	8.2393	44.442809	0.000517	5.168774	1.751228	-0.000207
 799	7.9401e+01	8.2008	44.285360	0.000395	3.952592	1.339174	-0.000158
 800	7.9501e+01	8.1591	44.075429	0.000527	5.270123	1.785566	-0.000211
 801	7.9600e+01	8.1254	43.885684	0.000476	4.763380	1.613877	-0.000191
 802	7.9700e+01	8.0741	43.639419	0.000618	6.182260	2.094606	-0.000248
 803	7.9799e+01	8.0404	43.481970	0.000395	3.952592	1.339174	-0.000158
 804	7.9898e+01	7.9875	43.268002	0.000537	5.371471	1.819904	-0.000215
 805	7.9998e+01	7.9586	43.066145	0.000507	5.067426	1.716890	-0.000203
 806	8.0097e+01	7.9233	42.892549	0.000436	4.357986	1.476526	-0.000174
 807	8.0197e+01	7.8816	42.686655	0.000517	5.168774	1.751228	-0.000207
 808	8.0296e+01	7.8287	42.480761	0.000517	5.168774	1.751228	-0.000207
 809	8.0396e+01	7.7934	42.282941	0.000497	4.966077	1.682553	-0.000199
 810	8.0496e+01	7.7533	42.064936	0.000547	5.472820	1.854242	-0.000219
 811	8.0595e+01	7.7308	41.903450	0.000405	4.053941	1.373512	-0.000162
 812	8.0695e+01	7.6795	41.673334	0.000578	5.776865	1.957255	-0.000231
 813	8.0794e+01	7.6361	41.455328	0.000547	5.472820	1.854242	-0.000219
 814	8.0894e+01	7.6009	41.289806	0.000416	4.155289	1.407850	-0.000166
 815	8.0993e+01	7.5543	41.047578	0.000608	6.080911	2.060268	-0.000243
 816	8.1093e+01	7.5078	40.918389	0.000324	3.243153	1.098810	-0.000130
 817	8.1192e+01	7.4805	40.684235	0.000588	5.878214	1.991593	-0.000235
 818	8.1291e+01	7.4324	40.514676	0.000426	4.256638	1.442188	-0.000170
 819	8.1391e+01	7.3987	40.276485	0.000598	5.979562	2.025931	-0.000239
 820	8.1490e+01	7.3618	40.090776	0.000466	4.662032	1.579539	-0.000187
 821	8.1590e+01	7.3201	39.905068	0.000466	4.662032	1.579539	-0.000187
 822	8.1689e+01	7.2832	39.707249	0.000497	4.966077	1.682553	-0.000199
 823	8.1789e+01	7.2431	39.513466	0.000486	4.864729	1.648215	-0.000195
 824	8.1888e+01	7.1998	39.295461	0.000547	5.472820	1.854242	-0.000219
 825	8.1988e+01	7.1597	39.101678	0.000486	4.864729	1.648215	-0.000195
 826	8.2088e+01	7.1132	38.936156	0.000416	4.155289	1.407850	-0.000166
 827	8.2187e+01	7.0843	38.706039	0.000578	5.776865	1.957255	-0.000231
 828	8.2287e+01	7.0442	38.504182	0.000507	5.067426	1.716890	-0.000203
 829	8.2386e+01	7.0025	38.278103	0.000568	5.675517	1.922917	-0.000227
 830	8.2486e+01	6.9688	38.120654	0.000395	3.952592	1.339174	-0.000158
 831	8.2585e+01	6.9158	37.898612	0.000557	5.574168	1.888579	-0.000223
 832	8.2684e+01	6.8886	37.733089	0.000416	4.155289	1.407850	-0.000166
 833	8.2784e+01	6.8421	37.531232	0.000507	5.067426	1.716890	-0.000203
 834	8.2883e+01	6.8036	37.305153	0.000568	5.675517	1.922917	-0.000227
 835	8.2983e+01	6.7586	37.079073	0.000568	5.675517	1.922917	-0.000227
 836	8.3082e+01	6.7298	36.925662	0.000385	3.851244	1.304837	-0.000154
 837	8.3182e+01	6.6816	36.756102	0.000426	4.256638	1.442188	-0.000170
 838	8.3281e+01	6.6447	36.501763	0.000638	6.384957	2.163282	-0.000256
 839	8.3381e+01	6.5950	36.307980	0.000486	4.864729	1.648215	-0.000195
 840	8.3481e+01	6.5661	36.081901	0.000568	5.675517	1.922917	-0.000227
 841	8.3580e+01	6.5212	35.912341	0.000426	4.256638	1.442188	-0.000170
 842	8.3680e+01	6.4859	35.726633	0.000466	4.662032	1.579539	-0.000187
 843	8.3779e+01	6.4426	35.536887	0.000476	4.763380	1.613877	-0.000191
 844	8.3879e+01	6.4041	35.306771	0.000578	5.776865	1.957255	-0.000231
 845	8.3978e+01	6.3576	35.133174	0.000436	4.357986	1.476526	-0.000174
 846	8.4078e+01	6.3207	34.915168	0.000547	5.472820	1.854242	-0.000219
 847	8.4177e+01	6.2902	34.765794	0.000375	3.749895	1.270499	-0.000150
 848	8.4276e+01	6.2469	34.503381	0.000659	6.587654	2.231957	-0.000264
 849	8.4376e+01	6.2084	34.313635	0.000476	4.763380	1.613877	-0.000191
 850	8.4475e+01	6.1683	34.103704	0.000527	5.270123	1.785566	-0.000211
 851	8.4575e+01	6.1330	33.897810	0.000517	5.168774	1.751228	-0.000207
 852	8.4674e+01	6.0833	33.699991	0.000497	4.966077	1.682553	-0.000199
 853	8.4774e+01	6.0560	33.546579	0.000385	3.851244	1.304837	-0.000154
 854	8.4874e+01	6.0111	33.300314	0.000618	6.182260	2.094606	-0.000248
 855	8.4973e+01	5.9597	33.102494	0.000497	4.966077	1.682553	-0.000199
 856	8.5073e+01	5.9292	32.936972	0.000416	4.155289	1.407850	-0.000166
 857	8.5172e+01	5.8875	32.723004	0.000537	5.371471	1.819904	-0.000215
 858	8.5272e+01	5.8506	32.504998	0.000547	5.472820	1.854242	-0.000219
 859	8.5371e+01	5.8137	32.295067	0.000527	5.270123	1.785566	-0.000211
 860	8.5471e+01	5.7768	32.113396	0.000456	4.560683	1.545201	-0.000183
 861	8.5570e+01	5.7303	31.895391	0.000547	5.472820	1.854242	-0.000219
 862	8.5669e+01	5.6918	31.693534	0.000507	5.067426	1.716890	-0.000203
 863	8.5769e+01	5.6405	31.471492	0.000557	5.574168	1.888579	-0.000223
 864	8.5868e+01	5.6036	31.326155	0.000365	3.648547	1.236161	-0.000146
 865	8.5968e+01	5.5699	31.132372	0.000486	4.864729	1.648215	-0.000195
 866	8.6067e+01	5.5362	30.886107	0.000618	6.182260	2.094606	-0.000248
 867	8.6167e+01	5.4881	30.680213	0.000517	5.168774	1.751228	-0.000207
 868	8.6266e+01	5.4480	30.494505	0.000466	4.662032	1.579539	-0.000187
 869	8.6366e+01	5.4127	30.296685	0.000497	4.966077	1.682553	-0.000199
 870	8.6466e+01	5.3774	30.094828	0.000507	5.067426	1.716890	-0.000203
 871	8.6565e+01	5.3341	29.880860	0.000537	5.371471	1.819904	-0.000215
 872	8.6665e+01	5.2859	29.679003	0.000507	5.067426	1.716890	-0.000203
 873	8.6764e+01	5.2555	29.513481	0.000416	4.155289	1.407850	-0.000166
 874	8.6864e+01	5.2041	29.291438	0.000557	5.574168	1.888579	-0.000223
 875	8.6963e+01	5.1817	29.117842	0.000436	4.357986	1.476526	-0.000174
 876	8.7063e+01	5.1255	28.920022	0.000497	4.966077	1.682553	-0.000199
 877	8.7162e+01	5.0934	28.693942	0.000568	5.675517	1.922917	-0.000227
 878	8.7261e+01	5.0469	28.475937	0.000547	5.472820	1.854242	-0.000219
 879	8.7361e+01	5.0084	28.270043	0.000517	5.168774	1.751228	-0.000207
 880	8.7460e+01	4.9763	28.080298	0.000476	4.763380	1.613877	-0.000191
 881	8.7560e+01	4.9170	27.866329	0.000537	5.371471	1.819904	-0.000215
 882	8.7659e+01	4.9009	27.656398	0.000527	5.270123	1.785566	-0.000211
 883	8.7759e+01	4.8544	27.486839	0.000426	4.256638	1.442188	-0.000170
 884	8.7859e+01	4.8063	27.252685	0.000588	5.878214	1.991593	-0.000235
 885	8.7958e+01	4.7822	27.083125	0.000426	4.256638	1.442188	-0.000170
 886	8.8058e+01	4.7309	26.917603	0.000416	4.155289	1.407850	-0.000166
 887	8.8157e+01	4.6844	26.651152	0.000669	6.689002	2.266295	-0.000268
 888	8.8257e+01	4.6587	26.457369	0.000486	4.864729	1.648215	-0.000195
 889	8.8356e+01	4.6058	26.247438	0.000527	5.270123	1.785566	-0.000211
 890	8.8456e+01	4.5721	26.081915	0.000416	4.155289	1.407850	-0.000166
 891	8.8555e+01	4.5368	25.863910	0.000547	5.472820	1.854242	-0.000219
 892	8.8654e+01	4.4999	25.682239	0.000456	4.560683	1.545201	-0.000183
 893	8.8754e+01	4.4453	25.464234	0.000547	5.472820	1.854242	-0.000219
 894	8.8853e+01	4.4181	25.242191	0.000557	5.574168	1.888579	-0.000223
 895	8.8953e+01	4.3763	25.064557	0.000446	4.459335	1.510864	-0.000179
 896	8.9052e+01	4.3346	24.846552	0.000547	5.472820	1.854242	-0.000219
 897	8.9152e+01	4.2961	24.636621	0.000527	5.270123	1.785566	-0.000211
 898	8.9251e+01	4.2608	24.463024	0.000436	4.357986	1.476526	-0.000174
 899	8.9351e+01	4.2175	24.232907	0.000578	5.776865	1.957255	-0.000231
 900	8.9451e+01	4.1806	24.002791	0.000578	5.776865	1.957255	-0.000231
 901	8.9550e+01	4.1357	23.845342	0.000395	3.952592	1.339174	-0.000158
 902	8.9650e+01	4.0908	23.631374	0.000537	5.371471	1.819904	-0.000215
 903	8.9749e+01	4.0571	23.429517	0.000507	5.067426	1.716890	-0.000203
 904	8.9849e+01	4.0218	23.207475	0.000557	5.574168	1.888579	-0.000223
 905	8.9948e+01	3.9657	22.997544	0.000527	5.270123	1.785566	-0.000211
 906	9.0047e+01	3.9336	22.767427	0.000578	5.776865	1.957255	-0.000231
 907	9.0147e+01	3.8967	22.577682	0.000476	4.763380	1.613877	-0.000191
 908	9.0246e+01	3.8630	22.351602	0.000568	5.675517	1.922917	-0.000227
 909	9.0346e+01	3.8101	22.141671	0.000527	5.270123	1.785566	-0.000211
 910	9.0445e+01	3.7716	21.960000	0.000456	4.560683	1.545201	-0.000183
 911	9.0545e+01	3.7347	21.717772	0.000608	6.080911	2.060268	-0.000243
 912	9.0644e+01	3.6913	21.511878	0.000517	5.168774	1.751228	-0.000207
 913	9.0744e+01	3.6673	21.338281	0.000436	4.357986	1.476526	-0.000174
 914	9.0844e+01	3.6175	21.144498	0.000486	4.864729	1.648215	-0.000195
 915	9.0943e+01	3.5806	20.898233	0.000618	6.182260	2.094606	-0.000248
 916	9.1043e+01	3.5389	20.676191	0.000557	5.574168	1.888579	-0.000223
 917	9.1142e+01	3.4940	20.506631	0.000426	4.256638	1.442188	-0.000170
 918	9.1242e+01	3.4587	20.248254	0.000649	6.486305	2.197620	-0.000260
 919	9.1341e+01	3.4250	20.066583	0.000456	4.560683	1.545201	-0.000183
 920	9.1441e+01	3.3817	19.836466	0.000578	5.776865	1.957255	-0.000231
 921	9.1540e+01	3.3320	19.642684	0.000486	4.864729	1.648215	-0.000195
 922	9.1639e+01	3.2951	19.469087	0.000436	4.357986	1.476526	-0.000174
 923	9.1739e+01	3.2582	19.218785	0.000628	6.283608	2.128944	-0.000252
 924	9.1838e+01	3.2229	19.020965	0.000497	4.966077	1.682553	-0.000199
 925	9.1938e+01	3.1828	18.839294	0.000456	4.560683	1.545201	-0.000183
 926	9.2037e+01	3.1539	18.637437	0.000507	5.067426	1.716890	-0.000203
 927	9.2137e+01	3.0994	18.399246	0.000598	5.979562	2.025931	-0.000239
 928	9.2237e+01	3.0641	18.213538	0.000466	4.662032	1.579539	-0.000187
 929	9.2336e+01	3.0272	17.983421	0.000578	5.776865	1.957255	-0.000231
 930	9.2436e+01	2.9791	17.777527	0.000517	5.168774	1.751228	-0.000207
 931	9.2535e+01	2.9406	17.575670	0.000507	5.067426	1.716890	-0.000203
 932	9.2635e+01	2.9069	17.377851	0.000497	4.966077	1.682553	-0.000199
 933	9.2734e+01	2.8668	17.123511	0.000638	6.384957	2.163282	-0.000256
 934	9.2834e+01	2.8267	16.921654	0.000507	5.067426	1.716890	-0.000203
 935	9.2933e+01	2.7785	16.711723	0.000527	5.270123	1.785566	-0.000211
 936	9.3032e+01	2.7432	16.526015	0.000466	4.662032	1.579539	-0.000187
 937	9.3132e+01	2.6999	16.308010	0.000547	5.472820	1.854242	-0.000219
 938	9.3231e+01	2.6678	16.102116	0.000517	5.168774	1.751228	-0.000207
 939	9.3331e+01	2.6277	15.847776	0.000638	6.384957	2.163282	-0.000256
 940	9.3430e+01	2.5828	15.629771	0.000547	5.472820	1.854242	-0.000219
 941	9.3530e+01	2.5475	15.460211	0.000426	4.256638	1.442188	-0.000170
 942	9.3629e+01	2.4978	15.246243	0.000537	5.371471	1.819904	-0.000215
 943	9.3729e+01	2.4593	15.056498	0.000476	4.763380	1.613877	-0.000191
 944	9.3829e+01	2.4208	14.850604	0.000517	5.168774	1.751228	-0.000207
 945	9.3928e+01	2.3727	14.592227	0.000649	6.486305	2.197620	-0.000260
 946	9.4028e+01	2.3454	14.402482	0.000476	4.763380	1.613877	-0.000191
 947	9.4127e+01	2.3037	14.188514	0.000537	5.371471	1.819904	-0.000215
 948	9.4227e+01	2.2668	13.954360	0.000588	5.878214	1.991593	-0.000235
 949	9.4326e+01	2.2219	13.756540	0.000497	4.966077	1.682553	-0.000199
 950	9.4425e+01	2.1721	13.546609	0.000527	5.270123	1.785566	-0.000211
 951	9.4525e+01	2.1384	13.340715	0.000517	5.168774	1.751228	-0.000207
 952	9.4624e+01	2.0999	13.130784	0.000527	5.270123	1.785566	-0.000211
 953	9.4724e+01	2.0727	12.920853	0.000527	5.270123	1.785566	-0.000211
 954	9.4823e+01	2.0165	12.723033	0.000497	4.966077	1.682553	-0.000199
 955	9.4923e+01	1.9780	12.476768	0.000618	6.182260	2.094606	-0.000248
 956	9.5022e+01	1.9459	12.274911	0.000507	5.067426	1.716890	-0.000203
 957	9.5122e+01	1.9090	12.089203	0.000466	4.662032	1.579539	-0.000187
 958	9.5222e+01	1.8689	11.818715	0.000679	6.790351	2.300633	-0.000272
 959	9.5321e+01	1.8256	11.637044	0.000456	4.560683	1.545201	-0.000183
 960	9.5421e+01	1.7855	11.439224	0.000497	4.966077	1.682553	-0.000199
 961	9.5520e+01	1.7438	11.229293	0.000527	5.270123	1.785566	-0.000211
 962	9.5620e+01	1.7165	10.983028	0.000618	6.182260	2.094606	-0.000248
 963	9.5719e+01	1.6716	10.740800	0.000608	6.080911	2.060268	-0.000243
 964	9.5819e+01	1.6283	10.555091	0.000466	4.662032	1.579539	-0.000187
 965	9.5918e+01	1.5882	10.324975	0.000578	5.776865	1.957255	-0.000231
 966	9.6017e+01	1.5401	10.179638	0.000365	3.648547	1.236161	-0.000146
 967	9.6117e+01	1.4984	9.949521	0.000578	5.776865	1.957255	-0.000231
 968	9.6216e+01	1.4743	9.699219	0.000628	6.283608	2.128944	-0.000252
 969	9.6316e+01	1.4262	9.493325	0.000517	5.168774	1.751228	-0.000207
 970	9.6415e+01	1.3877	9.291468	0.000507	5.067426	1.716890	-0.000203
 971	9.6515e+01	1.3476	9.049240	0.000608	6.080911	2.060268	-0.000243
 972	9.6615e+01	1.3010	8.859494	0.000476	4.763380	1.613877	-0.000191
 973	9.6714e+01	1.2673	8.625341	0.000588	5.878214	1.991593	-0.000235
 974	9.6814e+01	1.2208	8.399261	0.000568	5.675517	1.922917	-0.000227
 975	9.6913e+01	1.1935	8.229701	0.000426	4.256638	1.442188	-0.000170
 976	9.7013e+01	1.1470	7.975362	0.000638	6.384957	2.163282	-0.000256
 977	9.7112e+01	1.1101	7.761393	0.000537	5.371471	1.819904	-0.000215
 978	9.7212e+01	1.0684	7.575685	0.000466	4.662032	1.579539	-0.000187
 979	9.7311e+01	1.0235	7.381903	0.000486	4.864729	1.648215	-0.000195
 980	9.7410e+01	0.9930	7.147749	0.000588	5.878214	1.991593	-0.000235
 981	9.7510e+01	0.9513	6.929743	0.000547	5.472820	1.854242	-0.000219
 982	9.7609e+01	0.9112	6.744035	0.000466	4.662032	1.579539	-0.000187
 983	9.7709e+01	0.8567	6.505844	0.000598	5.979562	2.025931	-0.000239
 984	9.7808e+01	0.8310	6.308025	0.000497	4.966077	1.682553	-0.000199
 985	9.7908e+01	0.7797	6.090019	0.000547	5.472820	1.854242	-0.000219
 986	9.8007e+01	0.7588	5.892200	0.000497	4.966077	1.682553	-0.000199
 987	9.8107e+01	0.7027	5.629786	0.000659	6.587654	2.231957	-0.000264
 988	9.8207e+01	0.6658	5.452152	0.000446	4.459335	1.510864	-0.000179
 989	9.8306e+01	0.6240	5.234146	0.000547	5.472820	1.854242	-0.000219
 990	9.8406e+01	0.5871	5.020178	0.000537	5.371471	1.819904	-0.000215
 991	9.8505e+01	0.5486	4.802173	0.000547	5.472820	1.854242	-0.000219
 992	9.8605e+01	0.5085	4.604353	0.000497	4.966077	1.682553	-0.000199
 993	9.8704e+01	0.4684	4.390385	0.000537	5.371471	1.819904	-0.000215
 994	9.8803e+01	0.4364	4.184491	0.000517	5.168774	1.751228	-0.000207
 995	9.8903e+01	0.3914	3.998783	0.000466	4.662032	1.579539	-0.000187
 996	9.9002e+01	0.3529	3.768666	0.000578	5.776865	1.957255	-0.000231
 997	9.9102e+01	0.3112	3.586995	0.000456	4.560683	1.545201	-0.000183
 998	9.9201e+01	0.2743	3.348804	0.000598	5.979562	2.025931	-0.000239
 999	9.9301e+01	0.2166	3.175207	0.000436	4.357986	1.476526	-0.000174
1000	9.9400e+01	0.2005	2.920868	0.000638	6.384957	2.163282	-0.000256
1001	9.9500e+01	0.1476	2.702862	0.000547	5.472820	1.854242	-0.000219
1002	9.9600e+01	0.1091	2.501006	0.000507	5.067426	1.716890	-0.000203
1003	9.9699e+01	0.0754	2.323372	0.000446	4.459335	1.510864	-0.000179
1004	9.9799e+01	0.0273	2.056921	0.000669	6.689002	2.266295	-0.000268
1005	9.9898e+01	0.0016	1.923695	0.000334	3.344501	1.133148	-0.000134
1006	9.9998e+01	-0.0417	1.701653	0.000557	5.574168	1.888579	-0.000223
1007	1.0010e+02	-0.0722	1.511907	0.000476	4.763380	1.613877	-0.000191
1008	1.0020e+02	-0.1251	1.289865	0.000557	5.574168	1.888579	-0.000223
1009	1.0030e+02	-0.1636	1.055711	0.000588	5.878214	1.991593	-0.000235
1010	1.0040e+02	-0.2021	0.890188	0.000416	4.155289	1.407850	-0.000166
1011	1.0050e+02	-0.2358	0.656035	0.000588	5.878214	1.991593	-0.000235
1012	1.0059e+02	-0.2775	0.470326	0.000466	4.662032	1.579539	-0.000187
1013	1.0069e+02	-0.3208	0.220024	0.000628	6.283608	2.128944	-0.000252
1014	1.0079e+02	-0.3610	0.022204	0.000497	4.966077	1.682553	-0.000199
1015	1.0089e+02	-0.4027	-0.171578	0.000486	4.864729	1.648215	-0.000195
1016	1.0099e+02	-0.4444	-0.377472	0.000517	5.168774	1.751228	-0.000207
1017	1.0109e+02	-0.4829	-0.563180	0.000466	4.662032	1.579539	-0.000187
1018	1.0119e+02	-0.5278	-0.825594	0.000659	6.587654	2.231957	-0.000264
1019	1.0129e+02	-0.5583	-1.035525	0.000527	5.270123	1.785566	-0.000211
1020	1.0139e+02	-0.6032	-1.205085	0.000426	4.256638	1.442188	-0.000170
1021	1.0149e+02	-0.6401	-1.427127	0.000557	5.574168	1.888579	-0.000223
1022	1.0159e+02	-0.6786	-1.653207	0.000568	5.675517	1.922917	-0.000227
1023	1.0169e+02	-0.7107	-1.851027	0.000497	4.966077	1.682553	-0.000199
1024	1.0179e+02	-0.7700	-2.056921	0.000517	5.168774	1.751228	-0.000207
1025	1.0189e+02	-0.7989	-2.242629	0.000466	4.662032	1.579539	-0.000187
1026	1.0199e+02	-0.8342	-2.484857	0.000608	6.080911	2.060268	-0.000243
1027	1.0209e+02	-0.8823	-2.682677	0.000497	4.966077	1.682553	-0.000199
1028	1.0219e+02	-0.9160	-2.912793	0.000578	5.776865	1.957255	-0.000231
1029	1.0229e+02	-0.9561	-3.098502	0.000466	4.662032	1.579539	-0.000187
1030	1.0239e+02	-0.9946	-3.284210	0.000466	4.662032	1.579539	-0.000187
1031	1.0248e+02	-1.0476	-3.542587	0.000649	6.486305	2.197620	-0.000260
1032	1.0258e+02	-1.0732	-3.748481	0.000517	5.168774	1.751228	-0.000207
1033	1.0268e+02	-1.1133	-3.954374	0.000517	5.168774	1.751228	-0.000207
1034	1.0278e+02	-1.1615	-4.136046	0.000456	4.560683	1.545201	-0.000183
1035	1.0288e+02	-1.2000	-4.370199	0.000588	5.878214	1.991593	-0.000235
1036	1.0298e+02	-1.2385	-4.584168	0.000537	5.371471	1.819904	-0.000215
1037	1.0308e+02	-1.2802	-4.781987	0.000497	4.966077	1.682553	-0.000199
1038	1.0318e+02	-1.3155	-5.012104	0.000578	5.776865	1.957255	-0.000231
1039	1.0328e+02	-1.3588	-5.205887	0.000486	4.864729	1.648215	-0.000195
1040	1.0338e+02	-1.3941	-5.351223	0.000365	3.648547	1.236161	-0.000146
1041	1.0348e+02	-1.4422	-5.605563	0.000638	6.384957	2.163282	-0.000256
1042	1.0358e+02	-1.4759	-5.787234	0.000456	4.560683	1.545201	-0.000183
1043	1.0368e+02	-1.5144	-6.045611	0.000649	6.486305	2.197620	-0.000260
1044	1.0378e+02	-1.5625	-6.211133	0.000416	4.155289	1.407850	-0.000166
1045	1.0388e+02	-1.6123	-6.429139	0.000547	5.472820	1.854242	-0.000219
1046	1.0398e+02	-1.6427	-6.606773	0.000446	4.459335	1.510864	-0.000179
1047	1.0408e+02	-1.6877	-6.816704	0.000527	5.270123	1.785566	-0.000211
1048	1.0418e+02	-1.7037	-7.026635	0.000527	5.270123	1.785566	-0.000211
1049	1.0428e+02	-1.7534	-7.268863	0.000608	6.080911	2.060268	-0.000243
1050	1.0438e+02	-1.7935	-7.466683	0.000497	4.966077	1.682553	-0.000199
1051	1.0447e+02	-1.8320	-7.648354	0.000456	4.560683	1.545201	-0.000183
1052	1.0457e+02	-1.8786	-7.846173	0.000497	4.966077	1.682553	-0.000199
1053	1.0467e+02	-1.9203	-8.072253	0.000568	5.675517	1.922917	-0.000227
1054	1.0477e+02	-1.9556	-8.253924	0.000456	4.560683	1.545201	-0.000183
1055	1.0487e+02	-1.9989	-8.463855	0.000527	5.270123	1.785566	-0.000211
1056	1.0497e+02	-2.0390	-8.645526	0.000456	4.560683	1.545201	-0.000183
1057	1.0507e+02	-2.0871	-8.879680	0.000588	5.878214	1.991593	-0.000235
1058	1.0517e+02	-2.1160	-9.077500	0.000497	4.966077	1.682553	-0.000199
1059	1.0527e+02	-2.1577	-9.307616	0.000578	5.776865	1.957255	-0.000231
1060	1.0537e+02	-2.1914	-9.493325	0.000466	4.662032	1.579539	-0.000187
1061	1.0547e+02	-2.2331	-9.695181	0.000507	5.067426	1.716890	-0.000203
1062	1.0557e+02	-2.2764	-9.941447	0.000618	6.182260	2.094606	-0.000248
1063	1.0567e+02	-2.3069	-10.119081	0.000446	4.459335	1.510864	-0.000179
1064	1.0577e+02	-2.3470	-10.333049	0.000537	5.371471	1.819904	-0.000215
1065	1.0587e+02	-2.3999	-10.510683	0.000446	4.459335	1.510864	-0.000179
1066	1.0597e+02	-2.4400	-10.724651	0.000537	5.371471	1.819904	-0.000215
1067	1.0607e+02	-2.4577	-10.954768	0.000578	5.776865	1.957255	-0.000231
1068	1.0617e+02	-2.5058	-11.128365	0.000436	4.357986	1.476526	-0.000174
1069	1.0627e+02	-2.5475	-11.366556	0.000598	5.979562	2.025931	-0.000239
1070	1.0637e+02	-2.5973	-11.560338	0.000486	4.864729	1.648215	-0.000195
1071	1.0647e+02	-2.6325	-11.762195	0.000507	5.067426	1.716890	-0.000203
1072	1.0656e+02	-2.6727	-12.004423	0.000608	6.080911	2.060268	-0.000243
1073	1.0666e+02	-2.7160	-12.210317	0.000517	5.168774	1.751228	-0.000207
1074	1.0676e+02	-2.7545	-12.387951	0.000446	4.459335	1.510864	-0.000179
1075	1.0686e+02	-2.7962	-12.609993	0.000557	5.574168	1.888579	-0.000223
1076	1.0696e+02	-2.8283	-12.819925	0.000527	5.270123	1.785566	-0.000211
1077	1.0706e+02	-2.8700	-13.013707	0.000486	4.864729	1.648215	-0.000195
1078	1.0716e+02	-2.9117	-13.203452	0.000476	4.763380	1.613877	-0.000191
1079	1.0726e+02	-2.9550	-13.405309	0.000507	5.067426	1.716890	-0.000203
1080	1.0736e+02	-2.9935	-13.643500	0.000598	5.979562	2.025931	-0.000239
1081	1.0746e+02	-3.0320	-13.829208	0.000466	4.662032	1.579539	-0.000187
1082	1.0756e+02	-3.0625	-14.043177	0.000537	5.371471	1.819904	-0.000215
1083	1.0766e+02	-3.1154	-14.281368	0.000598	5.979562	2.025931	-0.000239
1084	1.0776e+02	-3.1571	-14.487262	0.000517	5.168774	1.751228	-0.000207
1085	1.0786e+02	-3.1908	-14.685081	0.000497	4.966077	1.682553	-0.000199
1086	1.0796e+02	-3.2293	-14.903087	0.000547	5.472820	1.854242	-0.000219
1087	1.0806e+02	-3.2710	-15.100906	0.000497	4.966077	1.682553	-0.000199
1088	1.0816e+02	-3.3095	-15.326986	0.000568	5.675517	1.922917	-0.000227
1089	1.0826e+02	-3.3577	-15.476360	0.000375	3.749895	1.270499	-0.000150
1090	1.0836e+02	-3.3897	-15.706477	0.000578	5.776865	1.957255	-0.000231
1091	1.0845e+02	-3.4266	-15.928519	0.000557	5.574168	1.888579	-0.000223
1092	1.0855e+02	-3.4684	-16.077893	0.000375	3.749895	1.270499	-0.000150
1093	1.0865e+02	-3.5213	-16.308010	0.000578	5.776865	1.957255	-0.000231
1094	1.0875e+02	-3.5470	-16.530052	0.000557	5.574168	1.888579	-0.000223
1095	1.0885e+02	-3.5951	-16.735946	0.000517	5.168774	1.751228	-0.000207
1096	1.0895e+02	-3.6304	-16.966063	0.000578	5.776865	1.957255	-0.000231
1097	1.0905e+02	-3.6641	-17.208291	0.000608	6.080911	2.060268	-0.000243
1098	1.0915e+02	-3.7106	-17.325368	0.000294	2.939107	0.995796	-0.000118
1099	1.0925e+02	-3.7443	-17.579708	0.000638	6.384957	2.163282	-0.000256
1100	1.0935e+02	-3.7892	-17.733119	0.000385	3.851244	1.304837	-0.000154
1101	1.0945e+02	-3.8325	-17.955161	0.000557	5.574168	1.888579	-0.000223
1102	1.0955e+02	-3.8566	-18.181241	0.000568	5.675517	1.922917	-0.000227
1103	1.0965e+02	-3.9127	-18.399246	0.000547	5.472820	1.854242	-0.000219
1104	1.0975e+02	-3.9464	-18.629363	0.000578	5.776865	1.957255	-0.000231
1105	1.0985e+02	-3.9833	-18.786811	0.000395	3.952592	1.339174	-0.000158
1106	1.0995e+02	-4.0250	-19.016928	0.000578	5.776865	1.957255	-0.000231
1107	1.1005e+02	-4.0715	-19.202636	0.000466	4.662032	1.579539	-0.000187
1108	1.1015e+02	-4.1052	-19.392382	0.000476	4.763380	1.613877	-0.000191
1109	1.1025e+02	-4.1469	-19.590201	0.000497	4.966077	1.682553	-0.000199
1110	1.1035e+02	-4.1870	-19.840504	0.000628	6.283608	2.128944	-0.000252
1111	1.1044e+02	-4.2223	-20.042360	0.000507	5.067426	1.716890	-0.000203
1112	1.1054e+02	-4.2753	-20.236143	0.000486	4.864729	1.648215	-0.000195
1113	1.1064e+02	-4.3074	-20.450111	0.000537	5.371471	1.819904	-0.000215
1114	1.1074e+02	-4.3491	-20.643894	0.000486	4.864729	1.648215	-0.000195
1115	1.1084e+02	-4.3780	-20.837676	0.000486	4.864729	1.648215	-0.000195
1116	1.1094e+02	-4.4309	-21.027421	0.000476	4.763380	1.613877	-0.000191
1117	1.1104e+02	-4.4678	-21.237353	0.000527	5.270123	1.785566	-0.000211
1118	1.1114e+02	-4.5015	-21.463432	0.000568	5.675517	1.922917	-0.000227
1119	1.1124e+02	-4.5416	-21.661252	0.000497	4.966077	1.682553	-0.000199
1120	1.1134e+02	-4.5753	-21.855034	0.000486	4.864729	1.648215	-0.000195
1121	1.1144e+02	-4.6266	-22.081114	0.000568	5.675517	1.922917	-0.000227
1122	1.1154e+02	-4.6747	-22.266822	0.000466	4.662032	1.579539	-0.000187
1123	1.1164e+02	-4.7084	-22.460605	0.000486	4.864729	1.648215	-0.000195
1124	1.1174e+02	-4.7501	-22.735130	0.000689	6.891699	2.334971	-0.000276
1125	1.1184e+02	-4.7870	-22.908727	0.000436	4.357986	1.476526	-0.000174
1126	1.1194e+02	-4.8255	-23.110584	0.000507	5.067426	1.716890	-0.000203
1127	1.1204e+02	-4.8576	-23.340700	0.000578	5.776865	1.957255	-0.000231
1128	1.1214e+02	-4.9106	-23.534483	0.000486	4.864729	1.648215	-0.000195
1129	1.1224e+02	-4.9394	-23.752488	0.000547	5.472820	1.854242	-0.000219
1130	1.1234e+02	-4.9795	-23.918011	0.000416	4.155289	1.407850	-0.000166
1131	1.1244e+02	-5.0261	-24.123905	0.000517	5.168774	1.751228	-0.000207
1132	1.1253e+02	-5.0533	-24.354021	0.000578	5.776865	1.957255	-0.000231
1133	1.1263e+02	-5.1031	-24.580101	0.000568	5.675517	1.922917	-0.000227
1134	1.1273e+02	-5.1480	-24.697178	0.000294	2.939107	0.995796	-0.000118
1135	1.1283e+02	-5.1913	-24.999963	0.000760	7.601139	2.575336	-0.000304
1136	1.1293e+02	-5.2218	-25.149337	0.000375	3.749895	1.270499	-0.000150
1137	1.1303e+02	-5.2619	-25.351194	0.000507	5.067426	1.716890	-0.000203
1138	1.1313e+02	-5.3052	-25.544976	0.000486	4.864729	1.648215	-0.000195
1139	1.1323e+02	-5.3501	-25.779130	0.000588	5.878214	1.991593	-0.000235
1140	1.1333e+02	-5.3854	-25.976950	0.000497	4.966077	1.682553	-0.000199
1141	1.1343e+02	-5.4207	-26.198992	0.000557	5.574168	1.888579	-0.000223
1142	1.1353e+02	-5.4672	-26.368552	0.000426	4.256638	1.442188	-0.000170
1143	1.1363e+02	-5.5009	-26.562335	0.000486	4.864729	1.648215	-0.000195
1144	1.1373e+02	-5.5410	-26.784377	0.000557	5.574168	1.888579	-0.000223
1145	1.1383e+02	-5.5811	-26.994308	0.000527	5.270123	1.785566	-0.000211
1146	1.1393e+02	-5.6164	-27.184053	0.000476	4.763380	1.613877	-0.000191
1147	1.1403e+02	-5.6501	-27.349576	0.000416	4.155289	1.407850	-0.000166
1148	1.1413e+02	-5.7030	-27.595841	0.000618	6.182260	2.094606	-0.000248
1149	1.1423e+02	-5.7415	-27.757327	0.000405	4.053941	1.373512	-0.000162
1150	1.1433e+02	-5.7784	-27.987444	0.000578	5.776865	1.957255	-0.000231
1151	1.1442e+02	-5.8137	-28.161040	0.000436	4.357986	1.476526	-0.000174
1152	1.1452e+02	-5.8587	-28.354823	0.000486	4.864729	1.648215	-0.000195
1153	1.1462e+02	-5.8956	-28.552643	0.000497	4.966077	1.682553	-0.000199
1154	1.1472e+02	-5.9485	-28.778722	0.000568	5.675517	1.922917	-0.000227
1155	1.1482e+02	-5.9790	-28.952319	0.000436	4.357986	1.476526	-0.000174
1156	1.1492e+02	-6.0191	-29.154176	0.000507	5.067426	1.716890	-0.000203
1157	1.1502e+02	-6.0560	-29.356033	0.000507	5.067426	1.716890	-0.000203
1158	1.1512e+02	-6.0977	-29.574038	0.000547	5.472820	1.854242	-0.000219
1159	1.1522e+02	-6.1410	-29.751672	0.000446	4.459335	1.510864	-0.000179
1160	1.1532e+02	-6.1747	-29.953529	0.000507	5.067426	1.716890	-0.000203
1161	1.1542e+02	-6.2196	-30.163460	0.000527	5.270123	1.785566	-0.000211
1162	1.1552e+02	-6.2629	-30.328982	0.000416	4.155289	1.407850	-0.000166
1163	1.1562e+02	-6.2982	-30.506616	0.000446	4.459335	1.510864	-0.000179
1164	1.1572e+02	-6.3496	-30.720584	0.000537	5.371471	1.819904	-0.000215
1165	1.1582e+02	-6.3832	-30.890144	0.000426	4.256638	1.442188	-0.000170
1166	1.1592e+02	-6.4185	-31.136409	0.000618	6.182260	2.094606	-0.000248
1167	1.1602e+02	-6.4602	-31.310006	0.000436	4.357986	1.476526	-0.000174
1168	1.1612e+02	-6.4987	-31.499752	0.000476	4.763380	1.613877	-0.000191
1169	1.1622e+02	-6.5372	-31.693534	0.000486	4.864729	1.648215	-0.000195
1170	1.1632e+02	-6.5741	-31.842908	0.000375	3.749895	1.270499	-0.000150
1171	1.1642e+02	-6.6175	-32.077062	0.000588	5.878214	1.991593	-0.000235
1172	1.1651e+02	-6.6544	-32.299104	0.000557	5.574168	1.888579	-0.000223
1173	1.1661e+02	-6.6977	-32.452516	0.000385	3.851244	1.304837	-0.000154
1174	1.1671e+02	-6.7330	-32.642261	0.000476	4.763380	1.613877	-0.000191
1175	1.1681e+02	-6.7763	-32.860266	0.000547	5.472820	1.854242	-0.000219
1176	1.1691e+02	-6.8260	-33.058086	0.000497	4.966077	1.682553	-0.000199
1177	1.1701e+02	-6.8485	-33.263980	0.000517	5.168774	1.751228	-0.000207
1178	1.1711e+02	-6.8902	-33.445651	0.000456	4.560683	1.545201	-0.000183
1179	1.1721e+02	-6.9367	-33.619248	0.000436	4.357986	1.476526	-0.000174
1180	1.1731e+02	-6.9800	-33.821105	0.000507	5.067426	1.716890	-0.000203
1181	1.1741e+02	-7.0153	-34.031036	0.000527	5.270123	1.785566	-0.000211
1182	1.1751e+02	-7.0522	-34.208670	0.000446	4.459335	1.510864	-0.000179
1183	1.1761e+02	-7.0859	-34.390341	0.000456	4.560683	1.545201	-0.000183
1184	1.1771e+02	-7.1292	-34.604309	0.000537	5.371471	1.819904	-0.000215
1185	1.1781e+02	-7.1805	-34.785980	0.000456	4.560683	1.545201	-0.000183
1186	1.1791e+02	-7.2078	-34.983800	0.000497	4.966077	1.682553	-0.000199
1187	1.1801e+02	-7.2511	-35.173545	0.000476	4.763380	1.613877	-0.000191
1188	1.1811e+02	-7.2800	-35.367328	0.000486	4.864729	1.648215	-0.000195
1189	1.1821e+02	-7.3362	-35.569184	0.000507	5.067426	1.716890	-0.000203
1190	1.1831e+02	-7.3682	-35.710484	0.000355	3.547198	1.201823	-0.000142
1191	1.1841e+02	-7.4148	-35.940601	0.000578	5.776865	1.957255	-0.000231
1192	1.1850e+02	-7.4533	-36.102086	0.000405	4.053941	1.373512	-0.000162
1193	1.1860e+02	-7.4934	-36.291832	0.000476	4.763380	1.613877	-0.000191
1194	1.1870e+02	-7.5303	-36.509837	0.000547	5.472820	1.854242	-0.000219
1195	1.1880e+02	-7.5688	-36.703620	0.000486	4.864729	1.648215	-0.000195
1196	1.1890e+02	-7.6089	-36.889328	0.000466	4.662032	1.579539	-0.000187
1197	1.1900e+02	-7.6506	-37.058888	0.000426	4.256638	1.442188	-0.000170
1198	1.1910e+02	-7.6843	-37.252670	0.000486	4.864729	1.648215	-0.000195
1199	1.1920e+02	-7.7276	-37.422230	0.000426	4.256638	1.442188	-0.000170
1200	1.1930e+02	-7.7709	-37.656384	0.000588	5.878214	1.991593	-0.000235
1201	1.1940e+02	-7.8062	-37.838055	0.000456	4.560683	1.545201	-0.000183
1202	1.1950e+02	-7.8559	-38.007614	0.000426	4.256638	1.442188	-0.000170
1203	1.1960e+02	-7.8800	-38.161026	0.000385	3.851244	1.304837	-0.000154
1204	1.1970e+02	-7.9281	-38.379031	0.000547	5.472820	1.854242	-0.000219
1205	1.1980e+02	-7.9698	-38.597036	0.000547	5.472820	1.854242	-0.000219
1206	1.1990e+02	-8.0099	-38.762559	0.000416	4.155289	1.407850	-0.000166
1207	1.2000e+02	-8.0565	-38.968453	0.000517	5.168774	1.751228	-0.000207
1208	1.2010e+02	-8.0998	-39.154161	0.000466	4.662032	1.579539	-0.000187
1209	1.2020e+02	-8.1270	-39.327758	0.000436	4.357986	1.476526	-0.000174
1210	1.2030e+02	-8.1720	-39.489243	0.000405	4.053941	1.373512	-0.000162
1211	1.2039e+02	-8.2137	-39.678989	0.000476	4.763380	1.613877	-0.000191
1212	1.2049e+02	-8.2522	-39.888920	0.000527	5.270123	1.785566	-0.000211
1213	1.2059e+02	-8.2891	-40.062516	0.000436	4.357986	1.476526	-0.000174
1214	1.2069e+02	-8.3308	-40.236113	0.000436	4.357986	1.476526	-0.000174
1215	1.2079e+02	-8.3677	-40.429896	0.000486	4.864729	1.648215	-0.000195
1216	1.2089e+02	-8.4030	-40.591381	0.000405	4.053941	1.373512	-0.000162
1217	1.2099e+02	-8.4511	-40.801312	0.000527	5.270123	1.785566	-0.000211
1218	1.2109e+02	-8.4912	-40.974909	0.000436	4.357986	1.476526	-0.000174
1219	1.2119e+02	-8.5329	-41.136395	0.000405	4.053941	1.373512	-0.000162
1220	1.2129e+02	-8.5666	-41.354400	0.000547	5.472820	1.854242	-0.000219
1221	1.2139e+02	-8.6099	-41.515885	0.000405	4.053941	1.373512	-0.000162
1222	1.2149e+02	-8.6500	-41.681408	0.000416	4.155289	1.407850	-0.000166
1223	1.2159e+02	-8.6933	-41.899413	0.000547	5.472820	1.854242	-0.000219
1224	1.2169e+02	-8.7238	-42.064936	0.000416	4.155289	1.407850	-0.000166
1225	1.2179e+02	-8.7591	-42.214310	0.000375	3.749895	1.270499	-0.000150
1226	1.2189e+02	-8.8040	-42.440389	0.000568	5.675517	1.922917	-0.000227
1227	1.2199e+02	-8.8457	-42.601875	0.000405	4.053941	1.373512	-0.000162
1228	1.2209e+02	-8.8842	-42.779509	0.000446	4.459335	1.510864	-0.000179
1229	1.2219e+02	-8.9276	-42.989440	0.000527	5.270123	1.785566	-0.000211
1230	1.2229e+02	-8.9693	-43.183222	0.000486	4.864729	1.648215	-0.000195
1231	1.2239e+02	-9.0062	-43.332596	0.000375	3.749895	1.270499	-0.000150
1232	1.2248e+02	-9.0495	-43.538490	0.000517	5.168774	1.751228	-0.000207
1233	1.2258e+02	-9.0912	-43.728236	0.000476	4.763380	1.613877	-0.000191
1234	1.2268e+02	-9.1329	-43.905870	0.000446	4.459335	1.510864	-0.000179
1235	1.2278e+02	-9.1682	-44.079467	0.000436	4.357986	1.476526	-0.000174
1236	1.2288e+02	-9.2019	-44.281323	0.000507	5.067426	1.716890	-0.000203
1237	1.2298e+02	-9.2420	-44.442809	0.000405	4.053941	1.373512	-0.000162
1238	1.2308e+02	-9.2869	-44.636591	0.000486	4.864729	1.648215	-0.000195
1239	1.2318e+02	-9.3206	-44.850559	0.000537	5.371471	1.819904	-0.000215
1240	1.2328e+02	-9.3671	-45.003971	0.000385	3.851244	1.304837	-0.000154
1241	1.2338e+02	-9.4056	-45.213902	0.000527	5.270123	1.785566	-0.000211
1242	1.2348e+02	-9.4441	-45.427870	0.000537	5.371471	1.819904	-0.000215
1243	1.2358e+02	-9.4858	-45.553021	0.000314	3.141804	1.064472	-0.000126
1244	1.2368e+02	-9.5275	-45.775064	0.000557	5.574168	1.888579	-0.000223
1245	1.2378e+02	-9.5692	-45.944623	0.000426	4.256638	1.442188	-0.000170
1246	1.2388e+02	-9.5997	-46.093997	0.000375	3.749895	1.270499	-0.000150
1247	1.2398e+02	-9.6430	-46.275668	0.000456	4.560683	1.545201	-0.000183
1248	1.2408e+02	-9.6799	-46.525971	0.000628	6.283608	2.128944	-0.000252
1249	1.2418e+02	-9.7265	-46.651122	0.000314	3.141804	1.064472	-0.000126
1250	1.2428e+02	-9.7505	-46.816645	0.000416	4.155289	1.407850	-0.000166
1251	1.2438e+02	-9.8115	-47.066947	0.000628	6.283608	2.128944	-0.000252
1252	1.2447e+02	-9.8420	-47.184024	0.000294	2.939107	0.995796	-0.000118
1253	1.2457e+02	-9.8821	-47.385881	0.000507	5.067426	1.716890	-0.000203
1254	1.2467e+02	-9.9174	-47.551403	0.000416	4.155289	1.407850	-0.000166
1255	1.2477e+02	-9.9687	-47.793631	0.000608	6.080911	2.060268	-0.000243
1256	1.2487e+02	-9.9992	-47.934931	0.000355	3.547198	1.201823	-0.000142
1257	1.2497e+02	-10.0505	-48.112565	0.000446	4.459335	1.510864	-0.000179
1258	1.2507e+02	-10.0842	-48.290199	0.000446	4.459335	1.510864	-0.000179
1259	1.2517e+02	-10.1259	-48.500130	0.000527	5.270123	1.785566	-0.000211
1260	1.2527e+02	-10.1676	-48.730247	0.000578	5.776865	1.957255	-0.000231
1261	1.2537e+02	-10.1965	-48.875584	0.000365	3.648547	1.236161	-0.000146
1262	1.2547e+02	-10.2414	-49.028995	0.000385	3.851244	1.304837	-0.000154
1263	1.2557e+02	-10.2799	-49.210666	0.000456	4.560683	1.545201	-0.000183
1264	1.2567e+02	-10.3248	-49.392337	0.000456	4.560683	1.545201	-0.000183
1265	1.2577e+02	-10.3601	-49.574008	0.000456	4.560683	1.545201	-0.000183
1266	1.2587e+02	-10.4034	-49.792014	0.000547	5.472820	1.854242	-0.000219
1267	1.2597e+02	-10.4436	-49.917165	0.000314	3.141804	1.064472	-0.000126
1268	1.2607e+02	-10.4869	-50.102873	0.000466	4.662032	1.579539	-0.000187
1269	1.2617e+02	-10.5222	-50.300693	0.000497	4.966077	1.682553	-0.000199
1270	1.2627e+02	-10.5591	-50.494475	0.000486	4.864729	1.648215	-0.000195
1271	1.2636e+02	-10.5960	-50.651924	0.000395	3.952592	1.339174	-0.000158
1272	1.2646e+02	-10.6393	-50.837632	0.000466	4.662032	1.579539	-0.000187
1273	1.2656e+02	-10.6842	-51.015266	0.000446	4.459335	1.510864	-0.000179
1274	1.2666e+02	-10.7163	-51.184825	0.000426	4.256638	1.442188	-0.000170
1275	1.2676e+02	-10.7548	-51.374571	0.000476	4.763380	1.613877	-0.000191
1276	1.2686e+02	-10.7965	-51.568353	0.000486	4.864729	1.648215	-0.000195
1277	1.2696e+02	-10.8398	-51.737913	0.000426	4.256638	1.442188	-0.000170
1278	1.2706e+02	-10.8767	-51.943807	0.000517	5.168774	1.751228	-0.000207
1279	1.2716e+02	-10.9168	-52.125478	0.000456	4.560683	1.545201	-0.000183
1280	1.2726e+02	-10.9649	-52.266778	0.000355	3.547198	1.201823	-0.000142
1281	1.2736e+02	-11.0018	-52.472672	0.000517	5.168774	1.751228	-0.000207
1282	1.2746e+02	-11.0339	-52.638194	0.000416	4.155289	1.407850	-0.000166
1283	1.2756e+02	-11.0804	-52.819865	0.000456	4.560683	1.545201	-0.000183
1284	1.2766e+02	-11.1173	-53.005574	0.000466	4.662032	1.579539	-0.000187
1285	1.2776e+02	-11.1558	-53.158985	0.000385	3.851244	1.304837	-0.000154
1286	1.2786e+02	-11.1943	-53.364879	0.000517	5.168774	1.751228	-0.000207
1287	1.2796e+02	-11.2377	-53.538476	0.000436	4.357986	1.476526	-0.000174
1288	1.2806e+02	-11.2842	-53.708035	0.000426	4.256638	1.442188	-0.000170
1289	1.2816e+02	-11.3147	-53.897781	0.000476	4.763380	1.613877	-0.000191
1290	1.2826e+02	-11.3564	-54.099637	0.000507	5.067426	1.716890	-0.000203
1291	1.2835e+02	-11.3997	-54.257086	0.000395	3.952592	1.339174	-0.000158
1292	1.2845e+02	-11.4430	-54.442794	0.000466	4.662032	1.579539	-0.000187
1293	1.2855e+02	-11.4671	-54.636577	0.000486	4.864729	1.648215	-0.000195
1294	1.2865e+02	-11.5184	-54.789988	0.000385	3.851244	1.304837	-0.000154
1295	1.2875e+02	-11.5569	-54.995882	0.000517	5.168774	1.751228	-0.000207
1296	1.2885e+02	-11.5922	-55.121033	0.000314	3.141804	1.064472	-0.000126
1297	1.2895e+02	-11.6371	-55.318852	0.000497	4.966077	1.682553	-0.000199
1298	1.2905e+02	-11.6836	-55.512635	0.000486	4.864729	1.648215	-0.000195
1299	1.2915e+02	-11.7189	-55.698343	0.000466	4.662032	1.579539	-0.000187
1300	1.2925e+02	-11.7542	-55.847717	0.000375	3.749895	1.270499	-0.000150
1301	1.2935e+02	-11.7911	-56.089945	0.000608	6.080911	2.060268	-0.000243
1302	1.2945e+02	-11.8392	-56.231245	0.000355	3.547198	1.201823	-0.000142
1303	1.2955e+02	-11.8826	-56.368508	0.000345	3.445850	1.167485	-0.000138
1304	1.2965e+02	-11.9146	-56.594587	0.000568	5.675517	1.922917	-0.000227
1305	1.2975e+02	-11.9596	-56.768184	0.000436	4.357986	1.476526	-0.000174
1306	1.2985e+02	-11.9997	-56.982152	0.000537	5.371471	1.819904	-0.000215
1307	1.2995e+02	-12.0382	-57.127489	0.000365	3.648547	1.236161	-0.000146
1308	1.3005e+02	-12.0702	-57.313198	0.000466	4.662032	1.579539	-0.000187
1309	1.3015e+02	-12.1087	-57.462572	0.000375	3.749895	1.270499	-0.000150
1310	1.3025e+02	-12.1681	-57.636168	0.000436	4.357986	1.476526	-0.000174
1311	1.3034e+02	-12.1874	-57.842062	0.000517	5.168774	1.751228	-0.000207
1312	1.3044e+02	-12.2275	-58.015659	0.000436	4.357986	1.476526	-0.000174
1313	1.3054e+02	-12.2660	-58.177145	0.000405	4.053941	1.373512	-0.000162
1314	1.3064e+02	-12.3109	-58.354779	0.000446	4.459335	1.510864	-0.000179
1315	1.3074e+02	-12.3590	-58.483967	0.000324	3.243153	1.098810	-0.000130
1316	1.3084e+02	-12.3879	-58.693898	0.000527	5.270123	1.785566	-0.000211
1317	1.3094e+02	-12.4312	-58.887680	0.000486	4.864729	1.648215	-0.000195
1318	1.3104e+02	-12.4729	-59.053203	0.000416	4.155289	1.407850	-0.000166
1319	1.3114e+02	-12.5050	-59.218726	0.000416	4.155289	1.407850	-0.000166
1320	1.3124e+02	-12.5435	-59.392322	0.000436	4.357986	1.476526	-0.000174
1321	1.3134e+02	-12.5964	-59.573994	0.000456	4.560683	1.545201	-0.000183
1322	1.3144e+02	-12.6333	-59.731442	0.000395	3.952592	1.339174	-0.000158
1323	1.3154e+02	-12.6718	-59.905039	0.000436	4.357986	1.476526	-0.000174
1324	1.3164e+02	-12.7119	-60.094784	0.000476	4.763380	1.613877	-0.000191
1325	1.3174e+02	-12.7504	-60.256269	0.000405	4.053941	1.373512	-0.000162
1326	1.3184e+02	-12.7873	-60.450052	0.000486	4.864729	1.648215	-0.000195
1327	1.3194e+02	-12.8323	-60.571166	0.000304	3.040456	1.030134	-0.000122
1328	1.3204e+02	-12.8724	-60.805320	0.000588	5.878214	1.991593	-0.000235
1329	1.3214e+02	-12.9077	-60.950657	0.000365	3.648547	1.236161	-0.000146
1330	1.3224e+02	-12.9526	-61.128291	0.000446	4.459335	1.510864	-0.000179
1331	1.3234e+02	-12.9879	-61.257479	0.000324	3.243153	1.098810	-0.000130
1332	1.3243e+02	-13.0312	-61.475484	0.000547	5.472820	1.854242	-0.000219
1333	1.3253e+02	-13.0713	-61.620821	0.000365	3.648547	1.236161	-0.000146
1334	1.3263e+02	-13.1114	-61.798455	0.000446	4.459335	1.510864	-0.000179
1335	1.3273e+02	-13.1451	-61.951866	0.000385	3.851244	1.304837	-0.000154
1336	1.3283e+02	-13.1884	-62.173909	0.000557	5.574168	1.888579	-0.000223
1337	1.3293e+02	-13.2237	-62.307134	0.000334	3.344501	1.133148	-0.000134
1338	1.3303e+02	-13.2718	-62.517065	0.000527	5.270123	1.785566	-0.000211
1339	1.3313e+02	-13.3103	-62.666439	0.000375	3.749895	1.270499	-0.000150
1340	1.3323e+02	-13.3440	-62.783516	0.000294	2.939107	0.995796	-0.000118
1341	1.3333e+02	-13.3857	-62.981336	0.000497	4.966077	1.682553	-0.000199
1342	1.3343e+02	-13.4371	-63.138784	0.000395	3.952592	1.339174	-0.000158
1343	1.3353e+02	-13.4659	-63.328530	0.000476	4.763380	1.613877	-0.000191
1344	1.3363e+02	-13.5044	-63.502127	0.000436	4.357986	1.476526	-0.000174
1345	1.3373e+02	-13.5510	-63.647463	0.000365	3.648547	1.236161	-0.000146
1346	1.3383e+02	-13.5798	-63.857395	0.000527	5.270123	1.785566	-0.000211
1347	1.3393e+02	-13.6264	-63.970434	0.000284	2.837758	0.961459	-0.000114
1348	1.3403e+02	-13.6633	-64.204588	0.000588	5.878214	1.991593	-0.000235
1349	1.3413e+02	-13.7130	-64.390296	0.000466	4.662032	1.579539	-0.000187
1350	1.3423e+02	-13.7419	-64.523522	0.000334	3.344501	1.133148	-0.000134
1351	1.3432e+02	-13.7820	-64.693082	0.000426	4.256638	1.442188	-0.000170
1352	1.3442e+02	-13.8381	-64.850530	0.000395	3.952592	1.339174	-0.000158
1353	1.3452e+02	-13.8670	-64.991830	0.000355	3.547198	1.201823	-0.000142
1354	1.3462e+02	-13.9103	-65.161389	0.000426	4.256638	1.442188	-0.000170
1355	1.3472e+02	-13.9472	-65.363246	0.000507	5.067426	1.716890	-0.000203
1356	1.3482e+02	-13.9857	-65.540880	0.000446	4.459335	1.510864	-0.000179
1357	1.3492e+02	-14.0226	-65.694291	0.000385	3.851244	1.304837	-0.000154
1358	1.3502e+02	-14.0643	-65.880000	0.000466	4.662032	1.579539	-0.000187
1359	1.3512e+02	-14.1076	-66.021299	0.000355	3.547198	1.201823	-0.000142
1360	1.3522e+02	-14.1509	-66.166636	0.000365	3.648547	1.236161	-0.000146
1361	1.3532e+02	-14.1862	-66.360419	0.000486	4.864729	1.648215	-0.000195
1362	1.3542e+02	-14.2215	-66.558238	0.000497	4.966077	1.682553	-0.000199
1363	1.3552e+02	-14.2568	-66.655130	0.000243	2.432364	0.824107	-0.000097
1364	1.3562e+02	-14.3017	-66.877172	0.000557	5.574168	1.888579	-0.000223
1365	1.3572e+02	-14.3322	-67.038657	0.000405	4.053941	1.373512	-0.000162
1366	1.3582e+02	-14.3819	-67.224366	0.000466	4.662032	1.579539	-0.000187
1367	1.3592e+02	-14.4285	-67.393925	0.000426	4.256638	1.442188	-0.000170
1368	1.3602e+02	-14.4622	-67.535225	0.000355	3.547198	1.201823	-0.000142
1369	1.3612e+02	-14.5055	-67.688636	0.000385	3.851244	1.304837	-0.000154
1370	1.3622e+02	-14.5440	-67.890493	0.000507	5.067426	1.716890	-0.000203
1371	1.3631e+02	-14.5809	-68.035830	0.000365	3.648547	1.236161	-0.000146
1372	1.3641e+02	-14.6178	-68.205390	0.000426	4.256638	1.442188	-0.000170
1373	1.3651e+02	-14.6643	-68.354764	0.000375	3.749895	1.270499	-0.000150
1374	1.3661e+02	-14.7092	-68.552583	0.000497	4.966077	1.682553	-0.000199
1375	1.3671e+02	-14.7349	-68.693883	0.000355	3.547198	1.201823	-0.000142
1376	1.3681e+02	-14.7750	-68.867480	0.000436	4.357986	1.476526	-0.000174
1377	1.3691e+02	-14.8199	-69.037040	0.000426	4.256638	1.442188	-0.000170
1378	1.3701e+02	-14.8600	-69.218711	0.000456	4.560683	1.545201	-0.000183
1379	1.3711e+02	-14.8937	-69.343862	0.000314	3.141804	1.064472	-0.000126
1380	1.3721e+02	-14.9450	-69.545719	0.000507	5.067426	1.716890	-0.000203
1381	1.3731e+02	-14.9900	-69.682981	0.000345	3.445850	1.167485	-0.000138
1382	1.3741e+02	-15.0252	-69.836393	0.000385	3.851244	1.304837	-0.000154
1383	1.3751e+02	-15.0654	-70.009989	0.000436	4.357986	1.476526	-0.000174
1384	1.3761e+02	-15.1039	-70.195698	0.000466	4.662032	1.579539	-0.000187
1385	1.3771e+02	-15.1375	-70.357183	0.000405	4.053941	1.373512	-0.000162
1386	1.3781e+02	-15.1841	-70.542891	0.000466	4.662032	1.579539	-0.000187
1387	1.3791e+02	-15.2194	-70.688228	0.000365	3.648547	1.236161	-0.000146
1388	1.3801e+02	-15.2659	-70.857788	0.000426	4.256638	1.442188	-0.000170
1389	1.3811e+02	-15.2980	-71.035422	0.000446	4.459335	1.510864	-0.000179
1390	1.3821e+02	-15.3413	-71.148462	0.000284	2.837758	0.961459	-0.000114
1391	1.3831e+02	-15.3862	-71.354356	0.000517	5.168774	1.751228	-0.000207
1392	1.3840e+02	-15.4215	-71.552175	0.000497	4.966077	1.682553	-0.000199
1393	1.3850e+02	-15.4584	-71.681364	0.000324	3.243153	1.098810	-0.000130
1394	1.3860e+02	-15.5033	-71.899369	0.000547	5.472820	1.854242	-0.000219
1395	1.3870e+02	-15.5338	-72.028557	0.000324	3.243153	1.098810	-0.000130
1396	1.3880e+02	-15.5771	-72.194080	0.000416	4.155289	1.407850	-0.000166
1397	1.3890e+02	-15.6204	-72.355565	0.000405	4.053941	1.373512	-0.000162
1398	1.3900e+02	-15.6750	-72.541274	0.000466	4.662032	1.579539	-0.000187
1399	1.3910e+02	-15.7086	-72.678536	0.000345	3.445850	1.167485	-0.000138
1400	1.3920e+02	-15.7327	-72.823873	0.000365	3.648547	1.236161	-0.000146
1401	1.3930e+02	-15.7744	-73.029767	0.000517	5.168774	1.751228	-0.000207
1402	1.3940e+02	-15.8129	-73.215475	0.000466	4.662032	1.579539	-0.000187
1403	1.3950e+02	-15.8530	-73.348701	0.000334	3.344501	1.133148	-0.000134
1404	1.3960e+02	-15.8947	-73.546520	0.000497	4.966077	1.682553	-0.000199
1405	1.3970e+02	-15.9381	-73.744340	0.000497	4.966077	1.682553	-0.000199
1406	1.3980e+02	-15.9798	-73.845268	0.000253	2.533713	0.858445	-0.000101
1407	1.3990e+02	-16.0135	-74.043088	0.000497	4.966077	1.682553	-0.000199
1408	1.4000e+02	-16.0616	-74.200536	0.000395	3.952592	1.339174	-0.000158
1409	1.4010e+02	-16.1001	-74.394319	0.000486	4.864729	1.648215	-0.000195
1410	1.4020e+02	-16.1354	-74.616361	0.000557	5.574168	1.888579	-0.000223
1411	1.4029e+02	-16.1771	-74.741512	0.000314	3.141804	1.064472	-0.000126
1412	1.4039e+02	-16.2124	-74.894924	0.000385	3.851244	1.304837	-0.000154
1413	1.4049e+02	-16.2605	-75.116966	0.000557	5.574168	1.888579	-0.000223
1414	1.4059e+02	-16.2958	-75.270377	0.000385	3.851244	1.304837	-0.000154
1415	1.4069e+02	-16.3359	-75.395528	0.000314	3.141804	1.064472	-0.000126
1416	1.4079e+02	-16.3824	-75.641794	0.000618	6.182260	2.094606	-0.000248
1417	1.4089e+02	-16.4209	-75.779056	0.000345	3.445850	1.167485	-0.000138
1418	1.4099e+02	-16.4562	-75.980913	0.000507	5.067426	1.716890	-0.000203
1419	1.4109e+02	-16.4995	-76.126250	0.000365	3.648547	1.236161	-0.000146
1420	1.4119e+02	-16.5268	-76.311958	0.000466	4.662032	1.579539	-0.000187
1421	1.4129e+02	-16.5781	-76.546112	0.000588	5.878214	1.991593	-0.000235
1422	1.4139e+02	-16.6182	-76.647041	0.000253	2.533713	0.858445	-0.000101
1423	1.4149e+02	-16.6567	-76.832749	0.000466	4.662032	1.579539	-0.000187
1424	1.4159e+02	-16.7017	-77.010383	0.000446	4.459335	1.510864	-0.000179
1425	1.4169e+02	-16.7402	-77.188017	0.000446	4.459335	1.510864	-0.000179
1426	1.4179e+02	-16.7674	-77.393911	0.000517	5.168774	1.751228	-0.000207
1427	1.4189e+02	-16.8092	-77.571545	0.000446	4.459335	1.510864	-0.000179
1428	1.4199e+02	-16.8541	-77.745141	0.000436	4.357986	1.476526	-0.000174
1429	1.4209e+02	-16.8878	-77.910664	0.000416	4.155289	1.407850	-0.000166
1430	1.4219e+02	-16.9311	-78.128669	0.000547	5.472820	1.854242	-0.000219
1431	1.4228e+02	-16.9664	-78.294192	0.000416	4.155289	1.407850	-0.000166
1432	1.4238e+02	-17.0113	-78.475863	0.000456	4.560683	1.545201	-0.000183
1433	1.4248e+02	-17.0514	-78.645423	0.000426	4.256638	1.442188	-0.000170
1434	1.4258e+02	-17.0995	-78.847280	0.000507	5.067426	1.716890	-0.000203
1435	1.4268e+02	-17.1396	-79.032988	0.000466	4.662032	1.579539	-0.000187
1436	1.4278e+02	-17.1797	-79.238882	0.000517	5.168774	1.751228	-0.000207
1437	1.4288e+02	-17.2118	-79.396330	0.000395	3.952592	1.339174	-0.000158
1438	1.4298e+02	-17.2471	-79.569927	0.000436	4.357986	1.476526	-0.000174
1439	1.4308e+02	-17.2936	-79.759672	0.000476	4.763380	1.613877	-0.000191
1440	1.4318e+02	-17.3337	-79.953455	0.000486	4.864729	1.648215	-0.000195
1441	1.4328e+02	-17.3706	-80.159349	0.000517	5.168774	1.751228	-0.000207
1442	1.4338e+02	-17.4107	-80.353131	0.000486	4.864729	1.648215	-0.000195
1443	1.4348e+02	-17.4589	-80.542877	0.000476	4.763380	1.613877	-0.000191
1444	1.4358e+02	-17.4877	-80.720511	0.000446	4.459335	1.510864	-0.000179
1445	1.4368e+02	-17.5391	-80.865847	0.000365	3.648547	1.236161	-0.000146
1446	1.4378e+02	-17.5680	-81.104038	0.000598	5.979562	2.025931	-0.000239
1447	1.4388e+02	-17.6065	-81.301858	0.000497	4.966077	1.682553	-0.000199
1448	1.4398e+02	-17.6482	-81.475455	0.000436	4.357986	1.476526	-0.000174
1449	1.4408e+02	-17.6899	-81.673275	0.000497	4.966077	1.682553	-0.000199
1450	1.4418e+02	-17.7348	-81.875131	0.000507	5.067426	1.716890	-0.000203
1451	1.4428e+02	-17.7701	-82.064877	0.000476	4.763380	1.613877	-0.000191
1452	1.4437e+02	-17.8118	-82.270771	0.000517	5.168774	1.751228	-0.000207
1453	1.4447e+02	-17.8423	-82.496850	0.000568	5.675517	1.922917	-0.000227
1454	1.4457e+02	-17.8888	-82.662373	0.000416	4.155289	1.407850	-0.000166
1455	1.4467e+02	-17.9305	-82.880378	0.000547	5.472820	1.854242	-0.000219
1456	1.4477e+02	-17.9674	-83.045901	0.000416	4.155289	1.407850	-0.000166
1457	1.4487e+02	-18.0236	-83.255832	0.000527	5.270123	1.785566	-0.000211
1458	1.4497e+02	-18.0508	-83.469800	0.000537	5.371471	1.819904	-0.000215
1459	1.4507e+02	-18.0974	-83.667620	0.000497	4.966077	1.682553	-0.000199
1460	1.4517e+02	-18.1342	-83.881588	0.000537	5.371471	1.819904	-0.000215
1461	1.4527e+02	-18.1711	-84.107667	0.000568	5.675517	1.922917	-0.000227
1462	1.4537e+02	-18.2080	-84.313561	0.000517	5.168774	1.751228	-0.000207
1463	1.4547e+02	-18.2530	-84.531567	0.000547	5.472820	1.854242	-0.000219
1464	1.4557e+02	-18.2883	-84.689015	0.000395	3.952592	1.339174	-0.000158
1465	1.4567e+02	-18.3348	-84.943354	0.000638	6.384957	2.163282	-0.000256
1466	1.4577e+02	-18.3701	-85.145211	0.000507	5.067426	1.716890	-0.000203
1467	1.4587e+02	-18.4086	-85.363217	0.000547	5.472820	1.854242	-0.000219
1468	1.4597e+02	-18.4471	-85.625630	0.000659	6.587654	2.231957	-0.000264
1469	1.4607e+02	-18.4808	-85.815376	0.000476	4.763380	1.613877	-0.000191
1470	1.4617e+02	-18.5289	-86.053567	0.000598	5.979562	2.025931	-0.000239
1471	1.4626e+02	-18.5770	-86.287721	0.000588	5.878214	1.991593	-0.000235
1472	1.4636e+02	-18.6027	-86.485540	0.000497	4.966077	1.682553	-0.000199
1473	1.4646e+02	-18.6620	-86.731806	0.000618	6.182260	2.094606	-0.000248
1474	1.4656e+02	-18.6973	-86.974034	0.000608	6.080911	2.060268	-0.000243
1475	1.4666e+02	-18.7390	-87.183965	0.000527	5.270123	1.785566	-0.000211
1476	1.4676e+02	-18.7695	-87.418119	0.000588	5.878214	1.991593	-0.000235
1477	1.4686e+02	-18.8096	-87.615938	0.000497	4.966077	1.682553	-0.000199
1478	1.4696e+02	-18.8562	-87.878352	0.000659	6.587654	2.231957	-0.000264
1479	1.4706e+02	-18.8882	-88.084246	0.000517	5.168774	1.751228	-0.000207
1480	1.4716e+02	-18.9299	-88.354734	0.000679	6.790351	2.300633	-0.000272
1481	1.4726e+02	-18.9701	-88.536405	0.000456	4.560683	1.545201	-0.000183
1482	1.4736e+02	-19.0070	-88.806893	0.000679	6.790351	2.300633	-0.000272
1483	1.4746e+02	-19.0422	-89.049122	0.000608	6.080911	2.060268	-0.000243
1484	1.4756e+02	-19.0791	-89.279238	0.000578	5.776865	1.957255	-0.000231
1485	1.4766e+02	-19.1192	-89.557801	0.000699	6.993048	2.369309	-0.000280
1486	1.4776e+02	-19.1658	-89.783880	0.000568	5.675517	1.922917	-0.000227
1487	1.4786e+02	-19.2043	-90.018034	0.000588	5.878214	1.991593	-0.000235
1488	1.4796e+02	-19.2428	-90.288522	0.000679	6.790351	2.300633	-0.000272
1489	1.4806e+02	-19.2909	-90.510565	0.000557	5.574168	1.888579	-0.000223
1490	1.4816e+02	-19.3342	-90.756830	0.000618	6.182260	2.094606	-0.000248
1491	1.4825e+02	-19.3695	-91.035392	0.000699	6.993048	2.369309	-0.000280
1492	1.4835e+02	-19.4080	-91.301843	0.000669	6.689002	2.266295	-0.000268
1493	1.4845e+02	-19.4433	-91.540034	0.000598	5.979562	2.025931	-0.000239
1494	1.4855e+02	-19.4898	-91.770151	0.000578	5.776865	1.957255	-0.000231
1495	1.4865e+02	-19.5235	-92.040639	0.000679	6.790351	2.300633	-0.000272
1496	1.4875e+02	-19.5684	-92.294979	0.000638	6.384957	2.163282	-0.000256
1497	1.4885e+02	-19.5989	-92.589690	0.000740	7.398442	2.506660	-0.000296
1498	1.4895e+02	-19.6422	-92.860178	0.000679	6.790351	2.300633	-0.000272
1499	1.4905e+02	-19.6759	-93.114517	0.000638	6.384957	2.163282	-0.000256
1500	1.4915e+02	-19.7240	-93.405191	0.000730	7.297093	2.472322	-0.000292
1501	1.4925e+02	-19.7754	-93.683753	0.000699	6.993048	2.369309	-0.000280
1502	1.4935e+02	-19.8043	-93.978464	0.000740	7.398442	2.506660	-0.000296
1503	1.4945e+02	-19.8492	-94.228767	0.000628	6.283608	2.128944	-0.000252
1504	1.4955e+02	-19.8813	-94.519440	0.000730	7.297093	2.472322	-0.000292
1505	1.4965e+02	-19.9166	-94.802040	0.000709	7.094396	2.403646	-0.000284
1506	1.4975e+02	-19.9615	-95.092714	0.000730	7.297093	2.472322	-0.000292
1507	1.4985e+02	-20.0000	-95.367239	0.000689	6.891699	2.334971	-0.000276
1508	1.4995e+02	-19.9711	-95.423759	-0.000142	-1.418879	-0.480729	-0.000057
1509	1.5005e+02	-19.9262	-95.460093	-0.000091	-0.912137	-0.309040	-0.000037
1510	1.5015e+02	-19.8829	-95.476242	-0.000041	-0.405394	-0.137351	-0.000016
1511	1.5025e+02	-19.8428	-95.508539	-0.000081	-0.810788	-0.274702	-0.000032
1512	1.5034e+02	-19.8043	-95.492390	0.000041	0.405394	0.137351	0.000016
1513	1.5044e+02	-19.7674	-95.532762	-0.000101	-1.013485	-0.343378	-0.000041
1514	1.5054e+02	-19.7256	-95.536799	-0.000010	-0.101349	-0.034338	-0.000004
1515	1.5064e+02	-19.6871	-95.492390	0.000111	1.114834	0.377716	0.000045
1516	1.5074e+02	-19.6438	-95.504502	-0.000030	-0.304046	-0.103013	-0.000012
1517	1.5084e+02	-19.6085	-95.496427	0.000020	0.202697	0.068676	0.000008
1518	1.5094e+02	-19.5588	-95.431833	0.000162	1.621576	0.549405	0.000065
1519	1.5104e+02	-19.5235	-95.435870	-0.000010	-0.101349	-0.034338	-0.000004
1520	1.5114e+02	-19.4770	-95.439907	-0.000010	-0.101349	-0.034338	-0.000004
1521	1.5124e+02	-19.4433	-95.391462	0.000122	1.216182	0.412054	0.000049
1522	1.5134e+02	-19.3984	-95.351090	0.000101	1.013485	0.343378	0.000041
1523	1.5144e+02	-19.3615	-95.290533	0.000152	1.520228	0.515067	0.000061
1524	1.5154e+02	-19.3326	-95.262273	0.000071	0.709440	0.240365	0.000028
1525	1.5164e+02	-19.2829	-95.205754	0.000142	1.418879	0.480729	0.000057
1526	1.5174e+02	-19.2444	-95.145197	0.000152	1.520228	0.515067	0.000061
1527	1.5184e+02	-19.2027	-95.104825	0.000101	1.013485	0.343378	0.000041
1528	1.5194e+02	-19.1738	-95.040231	0.000162	1.621576	0.549405	0.000065
1529	1.5204e+02	-19.1305	-94.991785	0.000122	1.216182	0.412054	0.000049
1530	1.5214e+02	-19.0920	-94.923154	0.000172	1.722925	0.583743	0.000069
1531	1.5224e+02	-19.0551	-94.846448	0.000193	1.925622	0.652418	0.000077
1532	1.5233e+02	-19.0150	-94.785891	0.000152	1.520228	0.515067	0.000061
1533	1.5243e+02	-18.9668	-94.668814	0.000294	2.939107	0.995796	0.000118
1534	1.5253e+02	-18.9283	-94.640555	0.000071	0.709440	0.240365	0.000028
1535	1.5263e+02	-18.8834	-94.551738	0.000223	2.229667	0.755432	0.000089
1536	1.5273e+02	-18.8465	-94.511366	0.000101	1.013485	0.343378	0.000041
1537	1.5283e+02	-18.8080	-94.398326	0.000284	2.837758	0.961459	0.000114
1538	1.5293e+02	-18.7615	-94.329695	0.000172	1.722925	0.583743	0.000069
1539	1.5303e+02	-18.7342	-94.240878	0.000223	2.229667	0.755432	0.000089
1540	1.5313e+02	-18.6909	-94.180321	0.000152	1.520228	0.515067	0.000061
1541	1.5323e+02	-18.6380	-94.067281	0.000284	2.837758	0.961459	0.000114
1542	1.5333e+02	-18.6123	-93.970390	0.000243	2.432364	0.824107	0.000097
1543	1.5343e+02	-18.5706	-93.865424	0.000264	2.635061	0.892783	0.000105
1544	1.5353e+02	-18.5241	-93.796793	0.000172	1.722925	0.583743	0.000069
1545	1.5363e+02	-18.4952	-93.724125	0.000182	1.824273	0.618081	0.000073
1546	1.5373e+02	-18.4503	-93.635308	0.000223	2.229667	0.755432	0.000089
1547	1.5383e+02	-18.4070	-93.518231	0.000294	2.939107	0.995796	0.000118
1548	1.5393e+02	-18.3701	-93.385005	0.000334	3.344501	1.133148	0.000134
1549	1.5403e+02	-18.3284	-93.296188	0.000223	2.229667	0.755432	0.000089
1550	1.5413e+02	-18.2963	-93.191223	0.000264	2.635061	0.892783	0.000105
1551	1.5422e+02	-18.2642	-93.114517	0.000193	1.925622	0.652418	0.000077
1552	1.5432e+02	-18.2129	-92.973217	0.000355	3.547198	1.201823	0.000142
1553	1.5442e+02	-18.1711	-92.892475	0.000203	2.026970	0.686756	0.000081
1554	1.5452e+02	-18.1310	-92.775398	0.000294	2.939107	0.995796	0.000118
1555	1.5462e+02	-18.0861	-92.714841	0.000152	1.520228	0.515067	0.000061
1556	1.5472e+02	-18.0556	-92.577578	0.000345	3.445850	1.167485	0.000138
1557	1.5482e+02	-18.0107	-92.460501	0.000294	2.939107	0.995796	0.000118
1558	1.5492e+02	-17.9722	-92.395907	0.000162	1.621576	0.549405	0.000065
1559	1.5502e+02	-17.9273	-92.250570	0.000365	3.648547	1.236161	0.000146
1560	1.5512e+02	-17.8904	-92.149642	0.000253	2.533713	0.858445	0.000101
1561	1.5522e+02	-17.8503	-92.060825	0.000223	2.229667	0.755432	0.000089
1562	1.5532e+02	-17.8102	-91.967971	0.000233	2.331016	0.789770	0.000093
1563	1.5542e+02	-17.7749	-91.826671	0.000355	3.547198	1.201823	0.000142
1564	1.5552e+02	-17.7300	-91.677297	0.000375	3.749895	1.270499	0.000150
1565	1.5562e+02	-17.6947	-91.592517	0.000213	2.128319	0.721094	0.000085
1566	1.5572e+02	-17.6546	-91.487552	0.000264	2.635061	0.892783	0.000105
1567	1.5582e+02	-17.6129	-91.362400	0.000314	3.141804	1.064472	0.000126
1568	1.5592e+02	-17.5728	-91.253398	0.000274	2.736410	0.927121	0.000110
1569	1.5602e+02	-17.5343	-91.116135	0.000345	3.445850	1.167485	0.000138
1570	1.5612e+02	-17.4893	-91.071727	0.000111	1.114834	0.377716	0.000045
1571	1.5622e+02	-17.4476	-90.926390	0.000365	3.648547	1.236161	0.000146
1572	1.5631e+02	-17.4123	-90.809313	0.000294	2.939107	0.995796	0.000118
1573	1.5641e+02	-17.3738	-90.680124	0.000324	3.243153	1.098810	0.000130
1574	1.5651e+02	-17.3321	-90.591307	0.000223	2.229667	0.755432	0.000089
1575	1.5661e+02	-17.2872	-90.425785	0.000416	4.155289	1.407850	0.000166
1576	1.5671e+02	-17.2503	-90.345042	0.000203	2.026970	0.686756	0.000081
1577	1.5681e+02	-17.2134	-90.175482	0.000426	4.256638	1.442188	0.000170
1578	1.5691e+02	-17.1797	-90.110888	0.000162	1.621576	0.549405	0.000065
1579	1.5701e+02	-17.1412	-89.957477	0.000385	3.851244	1.304837	0.000154
1580	1.5711e+02	-17.1011	-89.872697	0.000213	2.128319	0.721094	0.000085
1581	1.5721e+02	-17.0546	-89.727360	0.000365	3.648547	1.236161	0.000146
1582	1.5731e+02	-17.0097	-89.634506	0.000233	2.331016	0.789770	0.000093
1583	1.5741e+02	-16.9760	-89.477058	0.000395	3.952592	1.339174	0.000158
1584	1.5751e+02	-16.9343	-89.376130	0.000253	2.533713	0.858445	0.000101
1585	1.5761e+02	-16.9006	-89.291350	0.000213	2.128319	0.721094	0.000085
1586	1.5771e+02	-16.8653	-89.113716	0.000446	4.459335	1.510864	0.000179
1587	1.5781e+02	-16.8108	-89.004713	0.000274	2.736410	0.927121	0.000110
1588	1.5791e+02	-16.7723	-88.948193	0.000142	1.418879	0.480729	0.000057
1589	1.5801e+02	-16.7354	-88.782671	0.000416	4.155289	1.407850	0.000166
1590	1.5811e+02	-16.6936	-88.685779	0.000243	2.432364	0.824107	0.000097
1591	1.5821e+02	-16.6535	-88.508145	0.000446	4.459335	1.510864	0.000179
1592	1.5830e+02	-16.6166	-88.459700	0.000122	1.216182	0.412054	0.000049
1593	1.5840e+02	-16.5701	-88.306289	0.000385	3.851244	1.304837	0.000154
1594	1.5850e+02	-16.5332	-88.169026	0.000345	3.445850	1.167485	0.000138
1595	1.5860e+02	-16.4883	-88.043875	0.000314	3.141804	1.064472	0.000126
1596	1.5870e+02	-16.4626	-87.926798	0.000294	2.939107	0.995796	0.000118
1597	1.5880e+02	-16.4113	-87.829907	0.000243	2.432364	0.824107	0.000097
1598	1.5890e+02	-16.3680	-87.660347	0.000426	4.256638	1.442188	0.000170
1599	1.5900e+02	-16.3407	-87.527121	0.000334	3.344501	1.133148	0.000134
1600	1.5910e+02	-16.3038	-87.393896	0.000334	3.344501	1.133148	0.000134
1601	1.5920e+02	-16.2509	-87.252596	0.000355	3.547198	1.201823	0.000142
1602	1.5930e+02	-16.2156	-87.143593	0.000274	2.736410	0.927121	0.000110
1603	1.5940e+02	-16.1803	-87.010368	0.000334	3.344501	1.133148	0.000134
1604	1.5950e+02	-16.1354	-86.885217	0.000314	3.141804	1.064472	0.000126
1605	1.5960e+02	-16.0969	-86.796400	0.000223	2.229667	0.755432	0.000089
1606	1.5970e+02	-16.0552	-86.647026	0.000375	3.749895	1.270499	0.000150
1607	1.5980e+02	-16.0118	-86.533986	0.000284	2.837758	0.961459	0.000114
1608	1.5990e+02	-15.9782	-86.380575	0.000385	3.851244	1.304837	0.000154
1609	1.6000e+02	-15.9397	-86.259461	0.000304	3.040456	1.030134	0.000122
1610	1.6010e+02	-15.9028	-86.126235	0.000334	3.344501	1.133148	0.000134
1611	1.6019e+02	-15.8562	-85.972824	0.000385	3.851244	1.304837	0.000154
1612	1.6029e+02	-15.8193	-85.851710	0.000304	3.040456	1.030134	0.000122
1613	1.6039e+02	-15.7776	-85.726559	0.000314	3.141804	1.064472	0.000126
1614	1.6049e+02	-15.7407	-85.609482	0.000294	2.939107	0.995796	0.000118
1615	1.6059e+02	-15.7086	-85.476256	0.000334	3.344501	1.133148	0.000134
1616	1.6069e+02	-15.6653	-85.375328	0.000253	2.533713	0.858445	0.000101
1617	1.6079e+02	-15.6188	-85.217880	0.000395	3.952592	1.339174	0.000158
1618	1.6089e+02	-15.5899	-85.068506	0.000375	3.749895	1.270499	0.000150
1619	1.6099e+02	-15.5386	-84.951429	0.000294	2.939107	0.995796	0.000118
1620	1.6109e+02	-15.5049	-84.810129	0.000355	3.547198	1.201823	0.000142
1621	1.6119e+02	-15.4584	-84.680941	0.000324	3.243153	1.098810	0.000130
1622	1.6129e+02	-15.4247	-84.547715	0.000334	3.344501	1.133148	0.000134
1623	1.6139e+02	-15.3878	-84.430638	0.000294	2.939107	0.995796	0.000118
1624	1.6149e+02	-15.3413	-84.293376	0.000345	3.445850	1.167485	0.000138
1625	1.6159e+02	-15.2964	-84.184373	0.000274	2.736410	0.927121	0.000110
1626	1.6169e+02	-15.2595	-84.030962	0.000385	3.851244	1.304837	0.000154
1627	1.6179e+02	-15.2178	-83.925996	0.000264	2.635061	0.892783	0.000105
1628	1.6189e+02	-15.1825	-83.784697	0.000355	3.547198	1.201823	0.000142
1629	1.6199e+02	-15.1391	-83.655508	0.000324	3.243153	1.098810	0.000130
1630	1.6209e+02	-15.1022	-83.514208	0.000355	3.547198	1.201823	0.000142
1631	1.6219e+02	-15.0605	-83.372909	0.000355	3.547198	1.201823	0.000142
1632	1.6228e+02	-15.0156	-83.207386	0.000416	4.155289	1.407850	0.000166
1633	1.6238e+02	-14.9883	-83.110495	0.000243	2.432364	0.824107	0.000097
1634	1.6248e+02	-14.9434	-82.985344	0.000314	3.141804	1.064472	0.000126
1635	1.6258e+02	-14.9097	-82.868267	0.000294	2.939107	0.995796	0.000118
1636	1.6268e+02	-14.8600	-82.686596	0.000456	4.560683	1.545201	0.000183
1637	1.6278e+02	-14.8167	-82.585667	0.000253	2.533713	0.858445	0.000101
1638	1.6288e+02	-14.7814	-82.416108	0.000426	4.256638	1.442188	0.000170
1639	1.6298e+02	-14.7429	-82.290956	0.000314	3.141804	1.064472	0.000126
1640	1.6308e+02	-14.6932	-82.185991	0.000264	2.635061	0.892783	0.000105
1641	1.6318e+02	-14.6787	-82.016431	0.000426	4.256638	1.442188	0.000170
1642	1.6328e+02	-14.6258	-81.907428	0.000274	2.736410	0.927121	0.000110
1643	1.6338e+02	-14.5809	-81.778240	0.000324	3.243153	1.098810	0.000130
1644	1.6348e+02	-14.5392	-81.608680	0.000426	4.256638	1.442188	0.000170
1645	1.6358e+02	-14.5023	-81.451232	0.000395	3.952592	1.339174	0.000158
1646	1.6368e+02	-14.4702	-81.362415	0.000223	2.229667	0.755432	0.000089
1647	1.6378e+02	-14.4204	-81.213041	0.000375	3.749895	1.270499	0.000150
1648	1.6388e+02	-14.3787	-81.091927	0.000304	3.040456	1.030134	0.000122
1649	1.6398e+02	-14.3483	-80.910256	0.000456	4.560683	1.545201	0.000183
1650	1.6408e+02	-14.2953	-80.809328	0.000253	2.533713	0.858445	0.000101
1651	1.6418e+02	-14.2713	-80.684176	0.000314	3.141804	1.064472	0.000126
1652	1.6427e+02	-14.2183	-80.526728	0.000395	3.952592	1.339174	0.000158
1653	1.6437e+02	-14.1926	-80.405614	0.000304	3.040456	1.030134	0.000122
1654	1.6447e+02	-14.1445	-80.240091	0.000416	4.155289	1.407850	0.000166
1655	1.6457e+02	-14.1028	-80.098792	0.000355	3.547198	1.201823	0.000142
1656	1.6467e+02	-14.0595	-79.981715	0.000294	2.939107	0.995796	0.000118
1657	1.6477e+02	-14.0226	-79.816192	0.000416	4.155289	1.407850	0.000166
1658	1.6487e+02	-14.0001	-79.666818	0.000375	3.749895	1.270499	0.000150
1659	1.6497e+02	-13.9424	-79.533593	0.000334	3.344501	1.133148	0.000134
1660	1.6507e+02	-13.9087	-79.424590	0.000274	2.736410	0.927121	0.000110
1661	1.6517e+02	-13.8590	-79.242919	0.000456	4.560683	1.545201	0.000183
1662	1.6527e+02	-13.8333	-79.077396	0.000416	4.155289	1.407850	0.000166
1663	1.6537e+02	-13.7900	-78.960319	0.000294	2.939107	0.995796	0.000118
1664	1.6547e+02	-13.7451	-78.819020	0.000355	3.547198	1.201823	0.000142
1665	1.6557e+02	-13.6937	-78.685794	0.000334	3.344501	1.133148	0.000134
1666	1.6567e+02	-13.6681	-78.540457	0.000365	3.648547	1.236161	0.000146
1667	1.6577e+02	-13.6376	-78.403195	0.000345	3.445850	1.167485	0.000138
1668	1.6587e+02	-13.5846	-78.249783	0.000385	3.851244	1.304837	0.000154
1669	1.6597e+02	-13.5445	-78.080224	0.000426	4.256638	1.442188	0.000170
1670	1.6607e+02	-13.4980	-77.934887	0.000365	3.648547	1.236161	0.000146
1671	1.6616e+02	-13.4659	-77.801661	0.000334	3.344501	1.133148	0.000134
1672	1.6626e+02	-13.4226	-77.636139	0.000416	4.155289	1.407850	0.000166
1673	1.6636e+02	-13.3857	-77.551359	0.000213	2.128319	0.721094	0.000085
1674	1.6646e+02	-13.3504	-77.349502	0.000507	5.067426	1.716890	0.000203
1675	1.6656e+02	-13.3055	-77.188017	0.000405	4.053941	1.373512	0.000162
1676	1.6666e+02	-13.2798	-77.087088	0.000253	2.533713	0.858445	0.000101
1677	1.6676e+02	-13.2365	-76.909454	0.000446	4.459335	1.510864	0.000179
1678	1.6686e+02	-13.1884	-76.792377	0.000294	2.939107	0.995796	0.000118
1679	1.6696e+02	-13.1435	-76.582446	0.000527	5.270123	1.785566	0.000211
1680	1.6706e+02	-13.1098	-76.513815	0.000172	1.722925	0.583743	0.000069
1681	1.6716e+02	-13.0745	-76.320033	0.000486	4.864729	1.648215	0.000195
1682	1.6726e+02	-13.0344	-76.174696	0.000365	3.648547	1.236161	0.000146
1683	1.6736e+02	-12.9831	-76.021285	0.000385	3.851244	1.304837	0.000154
1684	1.6746e+02	-12.9558	-75.839613	0.000456	4.560683	1.545201	0.000183
1685	1.6756e+02	-12.9093	-75.726574	0.000284	2.837758	0.961459	0.000114
1686	1.6766e+02	-12.8676	-75.601422	0.000314	3.141804	1.064472	0.000126
1687	1.6776e+02	-12.8274	-75.439937	0.000405	4.053941	1.373512	0.000162
1688	1.6786e+02	-12.7970	-75.310749	0.000324	3.243153	1.098810	0.000130
1689	1.6796e+02	-12.7520	-75.173486	0.000345	3.445850	1.167485	0.000138
1690	1.6806e+02	-12.7135	-74.979703	0.000486	4.864729	1.648215	0.000195
1691	1.6816e+02	-12.6750	-74.818218	0.000405	4.053941	1.373512	0.000162
1692	1.6825e+02	-12.6253	-74.680955	0.000345	3.445850	1.167485	0.000138
1693	1.6835e+02	-12.5948	-74.559841	0.000304	3.040456	1.030134	0.000122
1694	1.6845e+02	-12.5467	-74.382207	0.000446	4.459335	1.510864	0.000179
1695	1.6855e+02	-12.5178	-74.224759	0.000395	3.952592	1.339174	0.000158
1696	1.6865e+02	-12.4697	-74.075385	0.000375	3.749895	1.270499	0.000150
1697	1.6875e+02	-12.4344	-73.978494	0.000243	2.432364	0.824107	0.000097
1698	1.6885e+02	-12.3911	-73.780674	0.000497	4.966077	1.682553	0.000199
1699	1.6895e+02	-12.3654	-73.615152	0.000416	4.155289	1.407850	0.000166
1700	1.6905e+02	-12.3141	-73.502112	0.000284	2.837758	0.961459	0.000114
1701	1.6915e+02	-12.2724	-73.352738	0.000375	3.749895	1.270499	0.000150
1702	1.6925e+02	-12.2307	-73.191252	0.000405	4.053941	1.373512	0.000162
1703	1.6935e+02	-12.2002	-73.005544	0.000466	4.662032	1.579539	0.000187
1704	1.6945e+02	-12.1537	-72.876356	0.000324	3.243153	1.098810	0.000130
1705	1.6955e+02	-12.1087	-72.698722	0.000446	4.459335	1.510864	0.000179
1706	1.6965e+02	-12.0686	-72.537236	0.000405	4.053941	1.373512	0.000162
1707	1.6975e+02	-12.0301	-72.395937	0.000355	3.547198	1.201823	0.000142
1708	1.6985e+02	-12.0013	-72.250600	0.000365	3.648547	1.236161	0.000146
1709	1.6995e+02	-11.9547	-72.093151	0.000395	3.952592	1.339174	0.000158
1710	1.7005e+02	-11.9146	-71.923592	0.000426	4.256638	1.442188	0.000170
1711	1.7015e+02	-11.8729	-71.758069	0.000416	4.155289	1.407850	0.000166
1712	1.7024e+02	-11.8280	-71.624844	0.000334	3.344501	1.133148	0.000134
1713	1.7034e+02	-11.7943	-71.467395	0.000395	3.952592	1.339174	0.000158
1714	1.7044e+02	-11.7542	-71.285724	0.000456	4.560683	1.545201	0.000183
1715	1.7054e+02	-11.7109	-71.180759	0.000264	2.635061	0.892783	0.000105
1716	1.7064e+02	-11.6724	-70.954679	0.000568	5.675517	1.922917	0.000227
1717	1.7074e+02	-11.6387	-70.829528	0.000314	3.141804	1.064472	0.000126
1718	1.7084e+02	-11.5986	-70.651894	0.000446	4.459335	1.510864	0.000179
1719	1.7094e+02	-11.5649	-70.482334	0.000426	4.256638	1.442188	0.000170
1720	1.7104e+02	-11.5088	-70.296626	0.000466	4.662032	1.579539	0.000187
1721	1.7114e+02	-11.4735	-70.155326	0.000355	3.547198	1.201823	0.000142
1722	1.7124e+02	-11.4334	-69.977692	0.000446	4.459335	1.510864	0.000179
1723	1.7134e+02	-11.3917	-69.860615	0.000294	2.939107	0.995796	0.000118
1724	1.7144e+02	-11.3483	-69.666833	0.000486	4.864729	1.648215	0.000195
1725	1.7154e+02	-11.3147	-69.541682	0.000314	3.141804	1.064472	0.000126
1726	1.7164e+02	-11.2778	-69.343862	0.000497	4.966077	1.682553	0.000199
1727	1.7174e+02	-11.2344	-69.190451	0.000385	3.851244	1.304837	0.000154
1728	1.7184e+02	-11.2024	-69.053188	0.000345	3.445850	1.167485	0.000138
1729	1.7194e+02	-11.1542	-68.911888	0.000355	3.547198	1.201823	0.000142
1730	1.7204e+02	-11.1238	-68.730217	0.000456	4.560683	1.545201	0.000183
1731	1.7213e+02	-11.0820	-68.609103	0.000304	3.040456	1.030134	0.000122
1732	1.7223e+02	-11.0323	-68.415321	0.000486	4.864729	1.648215	0.000195
1733	1.7233e+02	-10.9986	-68.217501	0.000497	4.966077	1.682553	0.000199
1734	1.7243e+02	-10.9617	-68.100424	0.000294	2.939107	0.995796	0.000118
1735	1.7253e+02	-10.9232	-67.947013	0.000385	3.851244	1.304837	0.000154
1736	1.7263e+02	-10.8895	-67.749193	0.000497	4.966077	1.682553	0.000199
1737	1.7273e+02	-10.8334	-67.624042	0.000314	3.141804	1.064472	0.000126
1738	1.7283e+02	-10.7965	-67.470631	0.000385	3.851244	1.304837	0.000154
1739	1.7293e+02	-10.7548	-67.309146	0.000405	4.053941	1.373512	0.000162
1740	1.7303e+02	-10.7099	-67.163809	0.000365	3.648547	1.236161	0.000146
1741	1.7313e+02	-10.6746	-66.998286	0.000416	4.155289	1.407850	0.000166
1742	1.7323e+02	-10.6537	-66.792392	0.000517	5.168774	1.751228	0.000207
1743	1.7333e+02	-10.6024	-66.651092	0.000355	3.547198	1.201823	0.000142
1744	1.7343e+02	-10.5623	-66.501718	0.000375	3.749895	1.270499	0.000150
1745	1.7353e+02	-10.5238	-66.352344	0.000375	3.749895	1.270499	0.000150
1746	1.7363e+02	-10.4869	-66.194896	0.000395	3.952592	1.339174	0.000158
1747	1.7373e+02	-10.4403	-66.017262	0.000446	4.459335	1.510864	0.000179
1748	1.7383e+02	-10.4099	-65.827517	0.000476	4.763380	1.613877	0.000191
1749	1.7393e+02	-10.3649	-65.666031	0.000405	4.053941	1.373512	0.000162
1750	1.7403e+02	-10.3264	-65.532806	0.000334	3.344501	1.133148	0.000134
1751	1.7413e+02	-10.2863	-65.367283	0.000416	4.155289	1.407850	0.000166
1752	1.7422e+02	-10.2446	-65.246169	0.000304	3.040456	1.030134	0.000122
1753	1.7432e+02	-10.2045	-65.024127	0.000557	5.574168	1.888579	0.000223
1754	1.7442e+02	-10.1564	-64.882827	0.000355	3.547198	1.201823	0.000142
1755	1.7452e+02	-10.1307	-64.733453	0.000375	3.749895	1.270499	0.000150
1756	1.7462e+02	-10.0810	-64.580042	0.000385	3.851244	1.304837	0.000154
1757	1.7472e+02	-10.0361	-64.406445	0.000436	4.357986	1.476526	0.000174
1758	1.7482e+02	-9.9992	-64.257071	0.000375	3.749895	1.270499	0.000150
1759	1.7492e+02	-9.9559	-64.071363	0.000466	4.662032	1.579539	0.000187
1760	1.7502e+02	-9.9222	-63.913914	0.000395	3.952592	1.339174	0.000158
1761	1.7512e+02	-9.8869	-63.756466	0.000395	3.952592	1.339174	0.000158
1762	1.7522e+02	-9.8436	-63.578832	0.000446	4.459335	1.510864	0.000179
1763	1.7532e+02	-9.8019	-63.429458	0.000375	3.749895	1.270499	0.000150
1764	1.7542e+02	-9.7618	-63.267973	0.000405	4.053941	1.373512	0.000162
1765	1.7552e+02	-9.7217	-63.118599	0.000375	3.749895	1.270499	0.000150
1766	1.7562e+02	-9.6848	-62.940965	0.000446	4.459335	1.510864	0.000179
1767	1.7572e+02	-9.6463	-62.787554	0.000385	3.851244	1.304837	0.000154
1768	1.7582e+02	-9.6061	-62.617994	0.000426	4.256638	1.442188	0.000170
1769	1.7592e+02	-9.5580	-62.424211	0.000486	4.864729	1.648215	0.000195
1770	1.7602e+02	-9.5195	-62.262726	0.000405	4.053941	1.373512	0.000162
1771	1.7612e+02	-9.4794	-62.117389	0.000365	3.648547	1.236161	0.000146
1772	1.7621e+02	-9.4473	-62.000312	0.000294	2.939107	0.995796	0.000118
1773	1.7631e+02	-9.4008	-61.766158	0.000588	5.878214	1.991593	0.000235
1774	1.7641e+02	-9.3591	-61.677341	0.000223	2.229667	0.755432	0.000089
1775	1.7651e+02	-9.3222	-61.414927	0.000659	6.587654	2.231957	0.000264
1776	1.7661e+02	-9.2933	-61.289776	0.000314	3.141804	1.064472	0.000126
1777	1.7671e+02	-9.2388	-61.120217	0.000426	4.256638	1.442188	0.000170
1778	1.7681e+02	-9.2035	-60.966805	0.000385	3.851244	1.304837	0.000154
1779	1.7691e+02	-9.1666	-60.825506	0.000355	3.547198	1.201823	0.000142
1780	1.7701e+02	-9.1297	-60.627686	0.000497	4.966077	1.682553	0.000199
1781	1.7711e+02	-9.0880	-60.441978	0.000466	4.662032	1.579539	0.000187
1782	1.7721e+02	-9.0415	-60.288567	0.000385	3.851244	1.304837	0.000154
1783	1.7731e+02	-9.0094	-60.123044	0.000416	4.155289	1.407850	0.000166
1784	1.7741e+02	-8.9661	-59.961559	0.000405	4.053941	1.373512	0.000162
1785	1.7751e+02	-8.9276	-59.804110	0.000395	3.952592	1.339174	0.000158
1786	1.7761e+02	-8.8794	-59.638588	0.000416	4.155289	1.407850	0.000166
1787	1.7771e+02	-8.8489	-59.448842	0.000476	4.763380	1.613877	0.000191
1788	1.7781e+02	-8.8056	-59.331765	0.000294	2.939107	0.995796	0.000118
1789	1.7791e+02	-8.7671	-59.121834	0.000527	5.270123	1.785566	0.000211
1790	1.7801e+02	-8.7238	-58.940163	0.000456	4.560683	1.545201	0.000183
1791	1.7810e+02	-8.6805	-58.778678	0.000405	4.053941	1.373512	0.000162
1792	1.7820e+02	-8.6404	-58.633341	0.000365	3.648547	1.236161	0.000146
1793	1.7830e+02	-8.6035	-58.435521	0.000497	4.966077	1.682553	0.000199
1794	1.7840e+02	-8.5682	-58.310370	0.000314	3.141804	1.064472	0.000126
1795	1.7850e+02	-8.5265	-58.128699	0.000456	4.560683	1.545201	0.000183
1796	1.7860e+02	-8.4896	-57.942991	0.000466	4.662032	1.579539	0.000187
1797	1.7870e+02	-8.4479	-57.789580	0.000385	3.851244	1.304837	0.000154
1798	1.7880e+02	-8.4078	-57.583686	0.000517	5.168774	1.751228	0.000207
1799	1.7890e+02	-8.3629	-57.474683	0.000274	2.736410	0.927121	0.000110
1800	1.7900e+02	-8.3212	-57.268789	0.000517	5.168774	1.751228	0.000207
1801	1.7910e+02	-8.2875	-57.075006	0.000486	4.864729	1.648215	0.000195
1802	1.7920e+02	-8.2602	-56.961967	0.000284	2.837758	0.961459	0.000114
1803	1.7930e+02	-8.2040	-56.784333	0.000446	4.459335	1.510864	0.000179
1804	1.7940e+02	-8.1720	-56.618810	0.000416	4.155289	1.407850	0.000166
1805	1.7950e+02	-8.1335	-56.408879	0.000527	5.270123	1.785566	0.000211
1806	1.7960e+02	-8.0869	-56.303914	0.000264	2.635061	0.892783	0.000105
1807	1.7970e+02	-8.0597	-56.098020	0.000517	5.168774	1.751228	0.000207
1808	1.7980e+02	-8.0147	-55.936534	0.000405	4.053941	1.373512	0.000162
1809	1.7990e+02	-7.9746	-55.758900	0.000446	4.459335	1.510864	0.000179
1810	1.8000e+02	-7.9233	-55.605489	0.000385	3.851244	1.304837	0.000154
1811	1.8009e+02	-7.8896	-55.419781	0.000466	4.662032	1.579539	0.000187
1812	1.8019e+02	-7.8431	-55.266370	0.000385	3.851244	1.304837	0.000154
1813	1.8029e+02	-7.8174	-55.064513	0.000507	5.067426	1.716890	0.000203
1814	1.8039e+02	-7.7645	-54.907065	0.000395	3.952592	1.339174	0.000158
1815	1.8049e+02	-7.7420	-54.757691	0.000375	3.749895	1.270499	0.000150
1816	1.8059e+02	-7.6746	-54.551797	0.000517	5.168774	1.751228	0.000207
1817	1.8069e+02	-7.6602	-54.394348	0.000395	3.952592	1.339174	0.000158
1818	1.8079e+02	-7.6169	-54.200566	0.000486	4.864729	1.648215	0.000195
1819	1.8089e+02	-7.5672	-54.010820	0.000476	4.763380	1.613877	0.000191
1820	1.8099e+02	-7.5271	-53.857409	0.000385	3.851244	1.304837	0.000154
1821	1.8109e+02	-7.5030	-53.687850	0.000426	4.256638	1.442188	0.000170
1822	1.8119e+02	-7.4485	-53.518290	0.000426	4.256638	1.442188	0.000170
1823	1.8129e+02	-7.4148	-53.304322	0.000537	5.371471	1.819904	0.000215
1824	1.8139e+02	-7.3666	-53.154948	0.000375	3.749895	1.270499	0.000150
1825	1.8149e+02	-7.3378	-52.949054	0.000517	5.168774	1.751228	0.000207
1826	1.8159e+02	-7.3041	-52.787568	0.000405	4.053941	1.373512	0.000162
1827	1.8169e+02	-7.2463	-52.638194	0.000375	3.749895	1.270499	0.000150
1828	1.8179e+02	-7.2094	-52.460560	0.000446	4.459335	1.510864	0.000179
1829	1.8189e+02	-7.1677	-52.299075	0.000405	4.053941	1.373512	0.000162
1830	1.8199e+02	-7.1308	-52.105292	0.000486	4.864729	1.648215	0.000195
1831	1.8209e+02	-7.0955	-51.875176	0.000578	5.776865	1.957255	0.000231
1832	1.8218e+02	-7.0506	-51.745987	0.000324	3.243153	1.098810	0.000130
1833	1.8228e+02	-7.0169	-51.523945	0.000557	5.574168	1.888579	0.000223
1834	1.8238e+02	-6.9800	-51.366497	0.000395	3.952592	1.339174	0.000158
1835	1.8248e+02	-6.9303	-51.196937	0.000426	4.256638	1.442188	0.000170
1836	1.8258e+02	-6.8966	-50.995080	0.000507	5.067426	1.716890	0.000203
1837	1.8268e+02	-6.8549	-50.805335	0.000476	4.763380	1.613877	0.000191
1838	1.8278e+02	-6.8068	-50.668072	0.000345	3.445850	1.167485	0.000138
1839	1.8288e+02	-6.7683	-50.474290	0.000486	4.864729	1.648215	0.000195
1840	1.8298e+02	-6.7378	-50.280507	0.000486	4.864729	1.648215	0.000195
1841	1.8308e+02	-6.6961	-50.123059	0.000395	3.952592	1.339174	0.000158
1842	1.8318e+02	-6.6576	-49.933313	0.000476	4.763380	1.613877	0.000191
1843	1.8328e+02	-6.6175	-49.743568	0.000476	4.763380	1.613877	0.000191
1844	1.8338e+02	-6.5758	-49.590157	0.000385	3.851244	1.304837	0.000154
1845	1.8348e+02	-6.5324	-49.343892	0.000618	6.182260	2.094606	0.000248
1846	1.8358e+02	-6.4923	-49.218740	0.000314	3.141804	1.064472	0.000126
1847	1.8368e+02	-6.4586	-49.037069	0.000456	4.560683	1.545201	0.000183
1848	1.8378e+02	-6.4201	-48.831175	0.000517	5.168774	1.751228	0.000207
1849	1.8388e+02	-6.3832	-48.665653	0.000416	4.155289	1.407850	0.000166
1850	1.8398e+02	-6.3367	-48.492056	0.000436	4.357986	1.476526	0.000174
1851	1.8407e+02	-6.2966	-48.282125	0.000527	5.270123	1.785566	0.000211
1852	1.8417e+02	-6.2597	-48.140825	0.000355	3.547198	1.201823	0.000142
1853	1.8427e+02	-6.2180	-47.910708	0.000578	5.776865	1.957255	0.000231
1854	1.8437e+02	-6.1907	-47.753260	0.000395	3.952592	1.339174	0.000158
1855	1.8447e+02	-6.1346	-47.547366	0.000517	5.168774	1.751228	0.000207
1856	1.8457e+02	-6.0913	-47.385881	0.000405	4.053941	1.373512	0.000162
1857	1.8467e+02	-6.0608	-47.179987	0.000517	5.168774	1.751228	0.000207
1858	1.8477e+02	-6.0175	-47.006390	0.000436	4.357986	1.476526	0.000174
1859	1.8487e+02	-5.9758	-46.800496	0.000517	5.168774	1.751228	0.000207
1860	1.8497e+02	-5.9421	-46.610751	0.000476	4.763380	1.613877	0.000191
1861	1.8507e+02	-5.8988	-46.457340	0.000385	3.851244	1.304837	0.000154
1862	1.8517e+02	-5.8554	-46.255483	0.000507	5.067426	1.716890	0.000203
1863	1.8527e+02	-5.8202	-46.081886	0.000436	4.357986	1.476526	0.000174
1864	1.8537e+02	-5.7784	-45.851769	0.000578	5.776865	1.957255	0.000231
1865	1.8547e+02	-5.7432	-45.694321	0.000395	3.952592	1.339174	0.000158
1866	1.8557e+02	-5.6918	-45.452093	0.000608	6.080911	2.060268	0.000243
1867	1.8567e+02	-5.6678	-45.302719	0.000375	3.749895	1.270499	0.000150
1868	1.8577e+02	-5.6132	-45.112973	0.000476	4.763380	1.613877	0.000191
1869	1.8587e+02	-5.5875	-44.943414	0.000426	4.256638	1.442188	0.000170
1870	1.8597e+02	-5.5490	-44.737520	0.000517	5.168774	1.751228	0.000207
1871	1.8606e+02	-5.4961	-44.539700	0.000497	4.966077	1.682553	0.000199
1872	1.8616e+02	-5.4608	-44.386289	0.000385	3.851244	1.304837	0.000154
1873	1.8626e+02	-5.4255	-44.208655	0.000446	4.459335	1.510864	0.000179
1874	1.8636e+02	-5.3838	-44.002761	0.000517	5.168774	1.751228	0.000207
1875	1.8646e+02	-5.3373	-43.808978	0.000486	4.864729	1.648215	0.000195
1876	1.8656e+02	-5.3004	-43.550602	0.000649	6.486305	2.197620	0.000260
1877	1.8666e+02	-5.2667	-43.393153	0.000395	3.952592	1.339174	0.000158
1878	1.8676e+02	-5.2266	-43.223594	0.000426	4.256638	1.442188	0.000170
1879	1.8686e+02	-5.1929	-43.058071	0.000416	4.155289	1.407850	0.000166
1880	1.8696e+02	-5.1416	-42.819880	0.000598	5.979562	2.025931	0.000239
1881	1.8706e+02	-5.1031	-42.646283	0.000436	4.357986	1.476526	0.000174
1882	1.8716e+02	-5.0662	-42.444427	0.000507	5.067426	1.716890	0.000203
1883	1.8726e+02	-5.0229	-42.270830	0.000436	4.357986	1.476526	0.000174
1884	1.8736e+02	-4.9811	-42.056862	0.000537	5.371471	1.819904	0.000215
1885	1.8746e+02	-4.9426	-41.903450	0.000385	3.851244	1.304837	0.000154
1886	1.8756e+02	-4.9090	-41.677371	0.000568	5.675517	1.922917	0.000227
1887	1.8766e+02	-4.8656	-41.475514	0.000507	5.067426	1.716890	0.000203
1888	1.8776e+02	-4.8303	-41.293843	0.000456	4.560683	1.545201	0.000183
1889	1.8786e+02	-4.7806	-41.067763	0.000568	5.675517	1.922917	0.000227
1890	1.8796e+02	-4.7405	-40.882055	0.000466	4.662032	1.579539	0.000187
1891	1.8806e+02	-4.7068	-40.720570	0.000405	4.053941	1.373512	0.000162
1892	1.8815e+02	-4.6555	-40.514676	0.000517	5.168774	1.751228	0.000207
1893	1.8825e+02	-4.6202	-40.276485	0.000598	5.979562	2.025931	0.000239
1894	1.8835e+02	-4.5865	-40.102888	0.000436	4.357986	1.476526	0.000174
1895	1.8845e+02	-4.5384	-39.941402	0.000405	4.053941	1.373512	0.000162
1896	1.8855e+02	-4.5047	-39.727434	0.000537	5.371471	1.819904	0.000215
1897	1.8865e+02	-4.4694	-39.513466	0.000537	5.371471	1.819904	0.000215
1898	1.8875e+02	-4.4325	-39.335832	0.000446	4.459335	1.510864	0.000179
1899	1.8885e+02	-4.3828	-39.109752	0.000568	5.675517	1.922917	0.000227
1900	1.8895e+02	-4.3475	-38.911933	0.000497	4.966077	1.682553	0.000199
1901	1.8905e+02	-4.3009	-38.770633	0.000355	3.547198	1.201823	0.000142
1902	1.8915e+02	-4.2657	-38.560702	0.000527	5.270123	1.785566	0.000211
1903	1.8925e+02	-4.2191	-38.282140	0.000699	6.993048	2.369309	0.000280
1904	1.8935e+02	-4.1903	-38.181211	0.000253	2.533713	0.858445	0.000101
1905	1.8945e+02	-4.1566	-37.943020	0.000598	5.979562	2.025931	0.000239
1906	1.8955e+02	-4.1068	-37.781535	0.000405	4.053941	1.373512	0.000162
1907	1.8965e+02	-4.0683	-37.567567	0.000537	5.371471	1.819904	0.000215
1908	1.8975e+02	-4.0379	-37.389933	0.000446	4.459335	1.510864	0.000179
1909	1.8985e+02	-3.9865	-37.163853	0.000568	5.675517	1.922917	0.000227
1910	1.8995e+02	-3.9432	-37.014479	0.000375	3.749895	1.270499	0.000150
1911	1.9004e+02	-3.9095	-36.796474	0.000547	5.472820	1.854242	0.000219
1912	1.9014e+02	-3.8614	-36.622877	0.000436	4.357986	1.476526	0.000174
1913	1.9024e+02	-3.8357	-36.429094	0.000486	4.864729	1.648215	0.000195
1914	1.9034e+02	-3.7764	-36.215126	0.000537	5.371471	1.819904	0.000215
1915	1.9044e+02	-3.7507	-36.029418	0.000466	4.662032	1.579539	0.000187
1916	1.9054e+02	-3.7042	-35.795264	0.000588	5.878214	1.991593	0.000235
1917	1.9064e+02	-3.6673	-35.625704	0.000426	4.256638	1.442188	0.000170
1918	1.9074e+02	-3.6320	-35.395588	0.000578	5.776865	1.957255	0.000231
1919	1.9084e+02	-3.5935	-35.226028	0.000426	4.256638	1.442188	0.000170
1920	1.9094e+02	-3.5454	-35.016097	0.000527	5.270123	1.785566	0.000211
1921	1.9104e+02	-3.5085	-34.822314	0.000486	4.864729	1.648215	0.000195
1922	1.9114e+02	-3.4716	-34.624495	0.000497	4.966077	1.682553	0.000199
1923	1.9124e+02	-3.4266	-34.450898	0.000436	4.357986	1.476526	0.000174
1924	1.9134e+02	-3.3930	-34.253078	0.000497	4.966077	1.682553	0.000199
1925	1.9144e+02	-3.3512	-34.014887	0.000598	5.979562	2.025931	0.000239
1926	1.9154e+02	-3.3031	-33.861476	0.000385	3.851244	1.304837	0.000154
1927	1.9164e+02	-3.2614	-33.631359	0.000578	5.776865	1.957255	0.000231
1928	1.9174e+02	-3.2293	-33.445651	0.000466	4.662032	1.579539	0.000187
1929	1.9184e+02	-3.1812	-33.251869	0.000486	4.864729	1.648215	0.000195
1930	1.9194e+02	-3.1427	-33.082309	0.000426	4.256638	1.442188	0.000170
1931	1.9203e+02	-3.1138	-32.864303	0.000547	5.472820	1.854242	0.000219
1932	1.9213e+02	-3.0753	-32.702818	0.000405	4.053941	1.373512	0.000162
1933	1.9223e+02	-3.0400	-32.464627	0.000598	5.979562	2.025931	0.000239
1934	1.9233e+02	-2.9871	-32.258733	0.000517	5.168774	1.751228	0.000207
1935	1.9243e+02	-2.9470	-32.064951	0.000486	4.864729	1.648215	0.000195
1936	1.9253e+02	-2.9101	-31.871168	0.000486	4.864729	1.648215	0.000195
1937	1.9263e+02	-2.8748	-31.685460	0.000466	4.662032	1.579539	0.000187
1938	1.9273e+02	-2.8267	-31.499752	0.000466	4.662032	1.579539	0.000187
1939	1.9283e+02	-2.7866	-31.261561	0.000598	5.979562	2.025931	0.000239
1940	1.9293e+02	-2.7545	-31.043555	0.000547	5.472820	1.854242	0.000219
1941	1.9303e+02	-2.7144	-30.890144	0.000385	3.851244	1.304837	0.000154
1942	1.9313e+02	-2.6759	-30.676176	0.000537	5.371471	1.819904	0.000215
1943	1.9323e+02	-2.6277	-30.474319	0.000507	5.067426	1.716890	0.000203
1944	1.9333e+02	-2.6021	-30.288611	0.000466	4.662032	1.579539	0.000187
1945	1.9343e+02	-2.5507	-30.054457	0.000588	5.878214	1.991593	0.000235
1946	1.9353e+02	-2.5202	-29.836452	0.000547	5.472820	1.854242	0.000219
1947	1.9363e+02	-2.4673	-29.687078	0.000375	3.749895	1.270499	0.000150
1948	1.9373e+02	-2.4416	-29.485221	0.000507	5.067426	1.716890	0.000203
1949	1.9383e+02	-2.4015	-29.283364	0.000507	5.067426	1.716890	0.000203
1950	1.9393e+02	-2.3566	-29.061322	0.000557	5.574168	1.888579	0.000223
1951	1.9403e+02	-2.3165	-28.843316	0.000547	5.472820	1.854242	0.000219
1952	1.9412e+02	-2.2716	-28.706054	0.000345	3.445850	1.167485	0.000138
1953	1.9422e+02	-2.2331	-28.455751	0.000628	6.283608	2.128944	0.000252
1954	1.9432e+02	-2.1962	-28.249857	0.000517	5.168774	1.751228	0.000207
1955	1.9442e+02	-2.1497	-28.052038	0.000497	4.966077	1.682553	0.000199
1956	1.9452e+02	-2.1176	-27.894589	0.000395	3.952592	1.339174	0.000158
1957	1.9462e+02	-2.0823	-27.676584	0.000547	5.472820	1.854242	0.000219
1958	1.9472e+02	-2.0294	-27.490876	0.000466	4.662032	1.579539	0.000187
1959	1.9482e+02	-1.9909	-27.264796	0.000568	5.675517	1.922917	0.000227
1960	1.9492e+02	-1.9636	-27.046791	0.000547	5.472820	1.854242	0.000219
1961	1.9502e+02	-1.9155	-26.836860	0.000527	5.270123	1.785566	0.000211
1962	1.9512e+02	-1.8721	-26.626929	0.000527	5.270123	1.785566	0.000211
1963	1.9522e+02	-1.8336	-26.489666	0.000345	3.445850	1.167485	0.000138
1964	1.9532e+02	-1.7951	-26.231289	0.000649	6.486305	2.197620	0.000260
1965	1.9542e+02	-1.7582	-26.025396	0.000517	5.168774	1.751228	0.000207
1966	1.9552e+02	-1.7085	-25.819502	0.000517	5.168774	1.751228	0.000207
1967	1.9562e+02	-1.6828	-25.649942	0.000426	4.256638	1.442188	0.000170
1968	1.9572e+02	-1.6331	-25.423862	0.000568	5.675517	1.922917	0.000227
1969	1.9582e+02	-1.5962	-25.217968	0.000517	5.168774	1.751228	0.000207
1970	1.9592e+02	-1.5625	-25.048409	0.000426	4.256638	1.442188	0.000170
1971	1.9601e+02	-1.5176	-24.894998	0.000385	3.851244	1.304837	0.000154
1972	1.9611e+02	-1.4759	-24.620472	0.000689	6.891699	2.334971	0.000276
1973	1.9621e+02	-1.4390	-24.454950	0.000416	4.155289	1.407850	0.000166
1974	1.9631e+02	-1.3957	-24.236944	0.000547	5.472820	1.854242	0.000219
1975	1.9641e+02	-1.3604	-23.982605	0.000638	6.384957	2.163282	0.000256
1976	1.9651e+02	-1.3187	-23.825157	0.000395	3.952592	1.339174	0.000158
1977	1.9661e+02	-1.2802	-23.599077	0.000568	5.675517	1.922917	0.000227
1978	1.9671e+02	-1.2337	-23.413369	0.000466	4.662032	1.579539	0.000187
1979	1.9681e+02	-1.2048	-23.187289	0.000568	5.675517	1.922917	0.000227
1980	1.9691e+02	-1.1567	-23.005618	0.000456	4.560683	1.545201	0.000183
1981	1.9701e+02	-1.1165	-22.787613	0.000547	5.472820	1.854242	0.000219
1982	1.9711e+02	-1.0732	-22.581719	0.000517	5.168774	1.751228	0.000207
1983	1.9721e+02	-1.0395	-22.391973	0.000476	4.763380	1.613877	0.000191
1984	1.9731e+02	-1.0026	-22.178005	0.000537	5.371471	1.819904	0.000215
1985	1.9741e+02	-0.9609	-21.976148	0.000507	5.067426	1.716890	0.000203
1986	1.9751e+02	-0.9272	-21.774292	0.000507	5.067426	1.716890	0.000203
1987	1.9761e+02	-0.8695	-21.572435	0.000507	5.067426	1.716890	0.000203
1988	1.9771e+02	-0.8502	-21.366541	0.000517	5.168774	1.751228	0.000207
1989	1.9781e+02	-0.7941	-21.120276	0.000618	6.182260	2.094606	0.000248
1990	1.9791e+02	-0.7540	-20.950716	0.000426	4.256638	1.442188	0.000170
1991	1.9800e+02	-0.7123	-20.736748	0.000537	5.371471	1.819904	0.000215
1992	1.9810e+02	-0.6850	-20.538928	0.000497	4.966077	1.682553	0.000199
1993	1.9820e+02	-0.6385	-20.304774	0.000588	5.878214	1.991593	0.000235
1994	1.9830e+02	-0.6048	-20.090806	0.000537	5.371471	1.819904	0.000215
1995	1.9840e+02	-0.5519	-19.860689	0.000578	5.776865	1.957255	0.000231
1996	1.9850e+02	-0.5246	-19.687092	0.000436	4.357986	1.476526	0.000174
1997	1.9860e+02	-0.4861	-19.477161	0.000527	5.270123	1.785566	0.000211
1998	1.9870e+02	-0.4412	-19.263193	0.000537	5.371471	1.819904	0.000215
1999	1.9880e+02	-0.3995	-19.053262	0.000527	5.270123	1.785566	0.000211
2000	1.9890e+02	-0.3545	-18.835257	0.000547	5.472820	1.854242	0.000219
2001	1.9900e+02	-0.3257	-18.601103	0.000588	5.878214	1.991593	0.000235
2002	1.9910e+02	-0.2791	-18.431543	0.000426	4.256638	1.442188	0.000170
2003	1.9920e+02	-0.2438	-18.205464	0.000568	5.675517	1.922917	0.000227
2004	1.9930e+02	-0.2005	-18.015718	0.000476	4.763380	1.613877	0.000191
2005	1.9940e+02	-0.1588	-17.809824	0.000517	5.168774	1.751228	0.000207
2006	1.9950e+02	-0.1187	-17.575670	0.000588	5.878214	1.991593	0.000235
2007	1.9960e+02	-0.0850	-17.333442	0.000608	6.080911	2.060268	0.000243
2008	1.9970e+02	-0.0497	-17.163883	0.000426	4.256638	1.442188	0.000170
2009	1.9980e+02	0.0032	-16.962026	0.000426	4.256638	1.442188	0.000203

PMax (uC/cm2):	1.01e+02
Pr (uC/cm2):	7.62e+00
-Pr (uC/cm2):	-1.13e+01
PLoss (uC/cm2):	-1.13e+01
-Vc:	-1.46e+00
C (Max-Eff) (nF):	5.06e-01
K (Eff):	1.72e+03
Vert. (+/-Pr) Shift (uC/cm2):	-1.82e+00
Offset (uC/cm2):	5.71e+00

A (Loop Area - uC/cm2·Volts):	1.79e-01



Hysteresis Version: 5.48.1 - Radiant Technologies, Inc., 1999 - 9/12/24

