»»»»»»»»»»»»»»»»»»»»»»»»»»»»»»»»»»»» Hysteresis ««««««««««««««««««««««««««««««««««««
»»»  Executed Version:	5.48.1
»»»  Vision Version:	5.48.4 (R)
»»»  Vision Compiled:	9/18/24
»»»  Driver Version:	5.47.0
»»»  Windows Version:	Windows 8 or 8.1
»»»  Processor Information:	x86 (AMD or Intel) - 32 Processors
»»»  Tester Name:	PMF21124-494 (100V)
»»»  Tester S/N:	PMF21124-494
»»»  Internal Amp Type:	100V RevK 270k
»»»  Internal Amp S/N:	iAB2-596/K     
»»»  Execution Count:	1
»»»»»»»»»»»»»»»»»»»»»»»»»»»»»»»»»»»»»»»»»»««««««««««««««««««««««««««««««««««««««««««

Stored:	6/18/2025 - 10:42:56
Configured:	06/18/25 09:47:30 AM
Executed:	06/18/25 10:42:19 AM

»»»»»»»»»»»»»»»»»»»»»»»»»»»»»»»»»»» Sample Info ««««««««««««««««««««««««««««««««««««
Sample Name:	
Lot Name:	
Wafer Name:	
Die Row/Column:	0/0
Capacitor Number:	0
Sample Area (cm2):	1.00e-04
Sample Thickness (microns):	3.00e-01

Amplifier:	Internal

»»»»»»»»»»»»»»»»»»»»»»»»»»»»»»»»»»» Tester Info «««««««««««««««««««««««««««««««««««
Tester Name:	PMF21124-494 (100V)
Tester Serial Number:	PMF21124-494
Return Signal Amp. Level:	0.19 [Index: 3]

»»»»»»»»»»»»»»»»»»»»»»»»»»»»»»»» Hysteresis Info ««««««««««««««««««««««««««««««««««
Task Name:	Hyst-554
Volts:	20.00
Field:	666.67 (kV/cm)
DCBias:	0.00
DCField:	0.00 (kV/cm)
Hysteresis Period (ms):	2.00e+02
Preset:	Enabled
Preset Delay (ms):	1.00e+03
Profile:	Standard Bipolar

»»»»»»»»»»»»»»»»»»»»»»»»»»»»»»»»»»»»»» Data «««««««««««««««««««««««««««««««««««««««
Points:	2009

Valid Data

Point	Time (ms)	Drive Voltage	Measured Polarization (uC/cm2)	Capacitance (uF)	Normalized Capacitance (uF/cm2)	Dielectric Constant	Instantaneous Current (mA)
   1	0.0000e+00	-0.0016	0.102947	0.000466	4.662780	1.579793	0.000187
   2	9.9500e-02	0.0289	0.288655	0.000466	4.662780	1.579793	0.000187
   3	1.9900e-01	0.0722	0.526846	0.000598	5.980522	2.026256	0.000239
   4	2.9850e-01	0.1075	0.732740	0.000517	5.169604	1.751509	0.000207
   5	3.9800e-01	0.1412	1.019377	0.000720	7.196899	2.438376	0.000288
   6	4.9750e-01	0.1829	1.237382	0.000547	5.473698	1.854539	0.000219
   7	5.9700e-01	0.2326	1.455387	0.000547	5.473698	1.854539	0.000219
   8	6.9650e-01	0.2663	1.705690	0.000628	6.284616	2.129286	0.000252
   9	7.9600e-01	0.3112	1.988289	0.000710	7.095535	2.404032	0.000284
  10	8.9550e-01	0.3449	2.194183	0.000517	5.169604	1.751509	0.000207
  11	9.9500e-01	0.3930	2.480820	0.000720	7.196899	2.438376	0.000288
  12	1.0945e+00	0.4331	2.706900	0.000568	5.676428	1.923226	0.000227
  13	1.1940e+00	0.4604	2.965276	0.000649	6.487346	2.197972	0.000260
  14	1.2935e+00	0.5069	3.195393	0.000578	5.777793	1.957569	0.000231
  15	1.3930e+00	0.5486	3.490104	0.000740	7.399629	2.507062	0.000296
  16	1.4925e+00	0.5839	3.695998	0.000517	5.169604	1.751509	0.000207
  17	1.5920e+00	0.6337	3.962449	0.000669	6.690076	2.266659	0.000268
  18	1.6915e+00	0.6754	4.224863	0.000659	6.588711	2.232316	0.000264
  19	1.7910e+00	0.7027	4.418645	0.000487	4.865509	1.648479	0.000195
  20	1.8905e+00	0.7476	4.729505	0.000781	7.805088	2.644435	0.000312
  21	1.9900e+00	0.7909	4.975770	0.000618	6.183252	2.094942	0.000248
  22	2.0895e+00	0.8390	5.238184	0.000659	6.588711	2.232316	0.000264
  23	2.1890e+00	0.8679	5.480412	0.000608	6.081887	2.060599	0.000243
  24	2.2885e+00	0.9032	5.722640	0.000608	6.081887	2.060599	0.000243
  25	2.3880e+00	0.9481	5.993128	0.000679	6.791440	2.301002	0.000272
  26	2.4875e+00	0.9818	6.211133	0.000547	5.473698	1.854539	0.000219
  27	2.5870e+00	1.0363	6.501807	0.000730	7.298264	2.472719	0.000292
  28	2.6865e+00	1.0636	6.723850	0.000558	5.575063	1.888882	0.000223
  29	2.7860e+00	1.0989	6.949929	0.000568	5.676428	1.923226	0.000227
  30	2.8855e+00	1.1422	7.248677	0.000750	7.500994	2.541405	0.000300
  31	2.9850e+00	1.1903	7.515128	0.000669	6.690076	2.266659	0.000268
  32	3.0845e+00	1.2240	7.729096	0.000537	5.372333	1.820196	0.000215
  33	3.1840e+00	1.2738	7.983436	0.000639	6.385981	2.163629	0.000256
  34	3.2835e+00	1.3107	8.261998	0.000699	6.994170	2.369689	0.000280
  35	3.3830e+00	1.3315	8.508264	0.000618	6.183252	2.094942	0.000248
  36	3.4825e+00	1.3780	8.798937	0.000730	7.298264	2.472719	0.000292
  37	3.5820e+00	1.4246	9.081537	0.000710	7.095535	2.404032	0.000284
  38	3.6815e+00	1.4727	9.315691	0.000588	5.879157	1.991912	0.000235
  39	3.7810e+00	1.5144	9.549845	0.000588	5.879157	1.991912	0.000235
  40	3.8805e+00	1.5513	9.783998	0.000588	5.879157	1.991912	0.000235
  41	3.9800e+00	1.5705	10.078709	0.000740	7.399629	2.507062	0.000296
  42	4.0795e+00	1.6203	10.333049	0.000639	6.385981	2.163629	0.000256
  43	4.1790e+00	1.6636	10.615648	0.000710	7.095535	2.404032	0.000284
  44	4.2785e+00	1.7069	10.825579	0.000527	5.270969	1.785853	0.000211
  45	4.3780e+00	1.7486	11.112216	0.000720	7.196899	2.438376	0.000288
  46	4.4775e+00	1.7887	11.362519	0.000628	6.284616	2.129286	0.000252
  47	4.5770e+00	1.8208	11.633007	0.000679	6.791440	2.301002	0.000272
  48	4.6765e+00	1.8577	11.867161	0.000588	5.879157	1.991912	0.000235
  49	4.7760e+00	1.9074	12.178020	0.000781	7.805088	2.644435	0.000312
  50	4.8755e+00	1.9363	12.424285	0.000618	6.183252	2.094942	0.000248
  51	4.9750e+00	1.9812	12.674588	0.000628	6.284616	2.129286	0.000252
  52	5.0745e+00	2.0165	12.908742	0.000588	5.879157	1.991912	0.000235
  53	5.1740e+00	2.0614	13.195378	0.000720	7.196899	2.438376	0.000288
  54	5.2735e+00	2.1015	13.417421	0.000558	5.575063	1.888882	0.000223
  55	5.3730e+00	2.1433	13.728280	0.000781	7.805088	2.644435	0.000312
  56	5.4725e+00	2.1769	13.986657	0.000649	6.487346	2.197972	0.000260
  57	5.5720e+00	2.2235	14.253108	0.000669	6.690076	2.266659	0.000268
  58	5.6715e+00	2.2652	14.487262	0.000588	5.879157	1.991912	0.000235
  59	5.7710e+00	2.3101	14.761787	0.000689	6.892805	2.335346	0.000276
  60	5.8705e+00	2.3438	15.024201	0.000659	6.588711	2.232316	0.000264
  61	5.9700e+00	2.3759	15.286614	0.000659	6.588711	2.232316	0.000264
  62	6.0695e+00	2.4272	15.549028	0.000659	6.588711	2.232316	0.000264
  63	6.1690e+00	2.4561	15.783182	0.000588	5.879157	1.991912	0.000235
  64	6.2685e+00	2.5090	16.081930	0.000750	7.500994	2.541405	0.000300
  65	6.3680e+00	2.5411	16.299936	0.000547	5.473698	1.854539	0.000219
  66	6.4675e+00	2.5748	16.598684	0.000750	7.500994	2.541405	0.000300
  67	6.5670e+00	2.6245	16.893394	0.000740	7.399629	2.507062	0.000296
  68	6.6665e+00	2.6518	17.139660	0.000618	6.183252	2.094942	0.000248
  69	6.7660e+00	2.6951	17.365739	0.000568	5.676428	1.923226	0.000227
  70	6.8655e+00	2.7448	17.652376	0.000720	7.196899	2.438376	0.000288
  71	6.9650e+00	2.7801	17.926901	0.000689	6.892805	2.335346	0.000276
  72	7.0645e+00	2.8186	18.197389	0.000679	6.791440	2.301002	0.000272
  73	7.1640e+00	2.8603	18.467877	0.000679	6.791440	2.301002	0.000272
  74	7.2635e+00	2.8940	18.714143	0.000618	6.183252	2.094942	0.000248
  75	7.3630e+00	2.9374	18.988668	0.000689	6.892805	2.335346	0.000276
  76	7.4625e+00	2.9775	19.218785	0.000578	5.777793	1.957569	0.000231
  77	7.5620e+00	3.0144	19.489273	0.000679	6.791440	2.301002	0.000272
  78	7.6615e+00	3.0657	19.783984	0.000740	7.399629	2.507062	0.000296
  79	7.7610e+00	3.1026	20.070620	0.000720	7.196899	2.438376	0.000288
  80	7.8605e+00	3.1411	20.316886	0.000618	6.183252	2.094942	0.000248
  81	7.9600e+00	3.1828	20.603522	0.000720	7.196899	2.438376	0.000288
  82	8.0595e+00	3.2181	20.837676	0.000588	5.879157	1.991912	0.000235
  83	8.1590e+00	3.2550	21.120276	0.000710	7.095535	2.404032	0.000284
  84	8.2585e+00	3.3063	21.370578	0.000628	6.284616	2.129286	0.000252
  85	8.3580e+00	3.3384	21.624918	0.000639	6.385981	2.163629	0.000256
  86	8.4575e+00	3.3849	21.883294	0.000649	6.487346	2.197972	0.000260
  87	8.5570e+00	3.4186	22.169931	0.000720	7.196899	2.438376	0.000288
  88	8.6565e+00	3.4587	22.412159	0.000608	6.081887	2.060599	0.000243
  89	8.7560e+00	3.4908	22.714944	0.000760	7.602359	2.575749	0.000304
  90	8.8555e+00	3.5325	22.957172	0.000608	6.081887	2.060599	0.000243
  91	8.9550e+00	3.5646	23.235735	0.000699	6.994170	2.369689	0.000280
  92	9.0545e+00	3.6095	23.506223	0.000679	6.791440	2.301002	0.000272
  93	9.1540e+00	3.6577	23.809008	0.000760	7.602359	2.575749	0.000304
  94	9.2535e+00	3.6945	23.998753	0.000476	4.764145	1.614136	0.000191
  95	9.3530e+00	3.7347	24.325761	0.000821	8.210547	2.781809	0.000329
  96	9.4525e+00	3.7796	24.584138	0.000649	6.487346	2.197972	0.000260
  97	9.5520e+00	3.8181	24.866738	0.000710	7.095535	2.404032	0.000284
  98	9.6515e+00	3.8614	25.125114	0.000649	6.487346	2.197972	0.000260
  99	9.7510e+00	3.8967	25.423862	0.000750	7.500994	2.541405	0.000300
 100	9.8505e+00	3.9400	25.653979	0.000578	5.777793	1.957569	0.000231
 101	9.9500e+00	3.9753	25.964838	0.000781	7.805088	2.644435	0.000312
 102	1.0050e+01	4.0074	26.198992	0.000588	5.879157	1.991912	0.000235
 103	1.0149e+01	4.0523	26.517926	0.000801	8.007818	2.713122	0.000321
 104	1.0248e+01	4.0940	26.748043	0.000578	5.777793	1.957569	0.000231
 105	1.0348e+01	4.1421	26.982197	0.000588	5.879157	1.991912	0.000235
 106	1.0447e+01	4.1726	27.232499	0.000628	6.284616	2.129286	0.000252
 107	1.0547e+01	4.2143	27.507024	0.000689	6.892805	2.335346	0.000276
 108	1.0646e+01	4.2512	27.773475	0.000669	6.690076	2.266659	0.000268
 109	1.0746e+01	4.2929	28.096446	0.000811	8.109182	2.747465	0.000325
 110	1.0845e+01	4.3378	28.362897	0.000669	6.690076	2.266659	0.000268
 111	1.0945e+01	4.3796	28.621274	0.000649	6.487346	2.197972	0.000260
 112	1.1044e+01	4.4116	28.847353	0.000568	5.676428	1.923226	0.000227
 113	1.1144e+01	4.4534	29.158213	0.000781	7.805088	2.644435	0.000312
 114	1.1243e+01	4.4999	29.388330	0.000578	5.777793	1.957569	0.000231
 115	1.1343e+01	4.5336	29.683041	0.000740	7.399629	2.507062	0.000296
 116	1.1443e+01	4.5753	29.925269	0.000608	6.081887	2.060599	0.000243
 117	1.1542e+01	4.6122	30.244202	0.000801	8.007818	2.713122	0.000321
 118	1.1642e+01	4.6475	30.458171	0.000537	5.372333	1.820196	0.000215
 119	1.1741e+01	4.6844	30.740770	0.000710	7.095535	2.404032	0.000284
 120	1.1841e+01	4.7405	31.015295	0.000689	6.892805	2.335346	0.000276
 121	1.1940e+01	4.7694	31.257523	0.000608	6.081887	2.060599	0.000243
 122	1.2040e+01	4.8207	31.548197	0.000730	7.298264	2.472719	0.000292
 123	1.2139e+01	4.8560	31.806574	0.000649	6.487346	2.197972	0.000260
 124	1.2239e+01	4.8865	32.056876	0.000628	6.284616	2.129286	0.000252
 125	1.2338e+01	4.9346	32.351587	0.000740	7.399629	2.507062	0.000296
 126	1.2438e+01	4.9651	32.634187	0.000710	7.095535	2.404032	0.000284
 127	1.2537e+01	5.0052	32.892563	0.000649	6.487346	2.197972	0.000260
 128	1.2636e+01	5.0630	33.159014	0.000669	6.690076	2.266659	0.000268
 129	1.2736e+01	5.0854	33.413354	0.000639	6.385981	2.163629	0.000256
 130	1.2835e+01	5.1255	33.675768	0.000659	6.588711	2.232316	0.000264
 131	1.2935e+01	5.1720	33.942219	0.000669	6.690076	2.266659	0.000268
 132	1.3034e+01	5.2089	34.245004	0.000760	7.602359	2.575749	0.000304
 133	1.3134e+01	5.2507	34.495306	0.000628	6.284616	2.129286	0.000252
 134	1.3233e+01	5.2859	34.741572	0.000618	6.183252	2.094942	0.000248
 135	1.3333e+01	5.3277	35.024171	0.000710	7.095535	2.404032	0.000284
 136	1.3432e+01	5.3790	35.322919	0.000750	7.500994	2.541405	0.000300
 137	1.3532e+01	5.4063	35.577259	0.000639	6.385981	2.163629	0.000256
 138	1.3632e+01	5.4480	35.823524	0.000618	6.183252	2.094942	0.000248
 139	1.3731e+01	5.4897	36.130346	0.000770	7.703723	2.610092	0.000308
 140	1.3831e+01	5.5282	36.360463	0.000578	5.777793	1.957569	0.000231
 141	1.3930e+01	5.5731	36.651137	0.000730	7.298264	2.472719	0.000292
 142	1.4030e+01	5.6100	36.909513	0.000649	6.487346	2.197972	0.000260
 143	1.4129e+01	5.6629	37.200187	0.000730	7.298264	2.472719	0.000292
 144	1.4229e+01	5.6838	37.458564	0.000649	6.487346	2.197972	0.000260
 145	1.4328e+01	5.7223	37.725015	0.000669	6.690076	2.266659	0.000268
 146	1.4428e+01	5.7720	38.003577	0.000699	6.994170	2.369689	0.000280
 147	1.4527e+01	5.8009	38.241768	0.000598	5.980522	2.026256	0.000239
 148	1.4627e+01	5.8474	38.556665	0.000791	7.906453	2.678779	0.000316
 149	1.4726e+01	5.8940	38.782744	0.000568	5.676428	1.923226	0.000227
 150	1.4825e+01	5.9357	39.069381	0.000720	7.196899	2.438376	0.000288
 151	1.4925e+01	5.9694	39.319684	0.000628	6.284616	2.129286	0.000252
 152	1.5024e+01	6.0143	39.594209	0.000689	6.892805	2.335346	0.000276
 153	1.5124e+01	6.0528	39.860660	0.000669	6.690076	2.266659	0.000268
 154	1.5223e+01	6.0865	40.127111	0.000669	6.690076	2.266659	0.000268
 155	1.5323e+01	6.1378	40.397599	0.000679	6.791440	2.301002	0.000272
 156	1.5422e+01	6.1667	40.615604	0.000547	5.473698	1.854539	0.000219
 157	1.5522e+01	6.2052	40.918389	0.000760	7.602359	2.575749	0.000304
 158	1.5621e+01	6.2469	41.209063	0.000730	7.298264	2.472719	0.000292
 159	1.5721e+01	6.2918	41.479551	0.000679	6.791440	2.301002	0.000272
 160	1.5820e+01	6.3303	41.721779	0.000608	6.081887	2.060599	0.000243
 161	1.5920e+01	6.3752	42.004379	0.000710	7.095535	2.404032	0.000284
 162	1.6020e+01	6.4089	42.270830	0.000669	6.690076	2.266659	0.000268
 163	1.6119e+01	6.4506	42.521132	0.000628	6.284616	2.129286	0.000252
 164	1.6218e+01	6.4843	42.751249	0.000578	5.777793	1.957569	0.000231
 165	1.6318e+01	6.5260	43.029811	0.000699	6.994170	2.369689	0.000280
 166	1.6418e+01	6.5613	43.296262	0.000669	6.690076	2.266659	0.000268
 167	1.6517e+01	6.5966	43.582899	0.000720	7.196899	2.438376	0.000288
 168	1.6616e+01	6.6544	43.849350	0.000669	6.690076	2.266659	0.000268
 169	1.6716e+01	6.6848	44.091578	0.000608	6.081887	2.060599	0.000243
 170	1.6816e+01	6.7233	44.362066	0.000679	6.791440	2.301002	0.000272
 171	1.6915e+01	6.7683	44.632554	0.000679	6.791440	2.301002	0.000272
 172	1.7015e+01	6.8068	44.931302	0.000750	7.500994	2.541405	0.000300
 173	1.7114e+01	6.8421	45.141233	0.000527	5.270969	1.785853	0.000211
 174	1.7213e+01	6.8822	45.427870	0.000720	7.196899	2.438376	0.000288
 175	1.7313e+01	6.9110	45.686247	0.000649	6.487346	2.197972	0.000260
 176	1.7413e+01	6.9560	45.960772	0.000689	6.892805	2.335346	0.000276
 177	1.7512e+01	7.0025	46.247408	0.000720	7.196899	2.438376	0.000288
 178	1.7611e+01	7.0410	46.449265	0.000507	5.068239	1.717166	0.000203
 179	1.7711e+01	7.0779	46.715716	0.000669	6.690076	2.266659	0.000268
 180	1.7811e+01	7.1292	47.026576	0.000781	7.805088	2.644435	0.000312
 181	1.7910e+01	7.1677	47.276878	0.000628	6.284616	2.129286	0.000252
 182	1.8009e+01	7.2046	47.543329	0.000669	6.690076	2.266659	0.000268
 183	1.8109e+01	7.2415	47.793631	0.000628	6.284616	2.129286	0.000252
 184	1.8209e+01	7.2832	48.052008	0.000649	6.487346	2.197972	0.000260
 185	1.8308e+01	7.3217	48.318459	0.000669	6.690076	2.266659	0.000268
 186	1.8407e+01	7.3602	48.560687	0.000608	6.081887	2.060599	0.000243
 187	1.8507e+01	7.4003	48.871547	0.000781	7.805088	2.644435	0.000312
 188	1.8607e+01	7.4420	49.113775	0.000608	6.081887	2.060599	0.000243
 189	1.8706e+01	7.4805	49.392337	0.000699	6.994170	2.369689	0.000280
 190	1.8805e+01	7.5239	49.634565	0.000608	6.081887	2.060599	0.000243
 191	1.8905e+01	7.5720	49.872756	0.000598	5.980522	2.026256	0.000239
 192	1.9005e+01	7.6009	50.175542	0.000760	7.602359	2.575749	0.000304
 193	1.9104e+01	7.6426	50.446030	0.000679	6.791440	2.301002	0.000272
 194	1.9203e+01	7.6843	50.672109	0.000568	5.676428	1.923226	0.000227
 195	1.9303e+01	7.7244	50.966820	0.000740	7.399629	2.507062	0.000296
 196	1.9402e+01	7.7533	51.176751	0.000527	5.270969	1.785853	0.000211
 197	1.9502e+01	7.7934	51.471462	0.000740	7.399629	2.507062	0.000296
 198	1.9602e+01	7.8511	51.725802	0.000639	6.385981	2.163629	0.000256
 199	1.9701e+01	7.8800	51.996290	0.000679	6.791440	2.301002	0.000272
 200	1.9800e+01	7.9201	52.254666	0.000649	6.487346	2.197972	0.000260
 201	1.9900e+01	7.9570	52.537266	0.000710	7.095535	2.404032	0.000284
 202	2.0000e+01	7.9939	52.787568	0.000628	6.284616	2.129286	0.000252
 203	2.0099e+01	8.0420	53.070168	0.000710	7.095535	2.404032	0.000284
 204	2.0198e+01	8.0757	53.259913	0.000476	4.764145	1.614136	0.000191
 205	2.0298e+01	8.1286	53.558661	0.000750	7.500994	2.541405	0.000300
 206	2.0398e+01	8.1575	53.817038	0.000649	6.487346	2.197972	0.000260
 207	2.0497e+01	8.2040	54.095600	0.000699	6.994170	2.369689	0.000280
 208	2.0596e+01	8.2329	54.337828	0.000608	6.081887	2.060599	0.000243
 209	2.0696e+01	8.2778	54.620428	0.000710	7.095535	2.404032	0.000284
 210	2.0796e+01	8.3196	54.890916	0.000679	6.791440	2.301002	0.000272
 211	2.0895e+01	8.3645	55.104884	0.000537	5.372333	1.820196	0.000215
 212	2.0994e+01	8.3933	55.375372	0.000679	6.791440	2.301002	0.000272
 213	2.1094e+01	8.4351	55.662009	0.000720	7.196899	2.438376	0.000288
 214	2.1194e+01	8.4800	55.896163	0.000588	5.879157	1.991912	0.000235
 215	2.1293e+01	8.5217	56.162614	0.000669	6.690076	2.266659	0.000268
 216	2.1392e+01	8.5586	56.404842	0.000608	6.081887	2.060599	0.000243
 217	2.1492e+01	8.5987	56.675330	0.000679	6.791440	2.301002	0.000272
 218	2.1591e+01	8.6388	56.913521	0.000598	5.980522	2.026256	0.000239
 219	2.1691e+01	8.6821	57.163823	0.000628	6.284616	2.129286	0.000252
 220	2.1791e+01	8.7126	57.438349	0.000689	6.892805	2.335346	0.000276
 221	2.1890e+01	8.7575	57.712874	0.000689	6.892805	2.335346	0.000276
 222	2.1989e+01	8.7960	57.963176	0.000628	6.284616	2.129286	0.000252
 223	2.2089e+01	8.8361	58.185219	0.000558	5.575063	1.888882	0.000223
 224	2.2189e+01	8.8778	58.488004	0.000760	7.602359	2.575749	0.000304
 225	2.2288e+01	8.9211	58.742344	0.000639	6.385981	2.163629	0.000256
 226	2.2387e+01	8.9532	58.988609	0.000618	6.183252	2.094942	0.000248
 227	2.2487e+01	8.9981	59.267171	0.000699	6.994170	2.369689	0.000280
 228	2.2587e+01	9.0415	59.525548	0.000649	6.487346	2.197972	0.000260
 229	2.2686e+01	9.0800	59.771813	0.000618	6.183252	2.094942	0.000248
 230	2.2785e+01	9.1153	59.993856	0.000558	5.575063	1.888882	0.000223
 231	2.2885e+01	9.1505	60.232047	0.000598	5.980522	2.026256	0.000239
 232	2.2985e+01	9.1810	60.498498	0.000669	6.690076	2.266659	0.000268
 233	2.3084e+01	9.2468	60.773023	0.000689	6.892805	2.335346	0.000276
 234	2.3183e+01	9.2757	61.039474	0.000669	6.690076	2.266659	0.000268
 235	2.3283e+01	9.3110	61.305925	0.000669	6.690076	2.266659	0.000268
 236	2.3383e+01	9.3527	61.548153	0.000608	6.081887	2.060599	0.000243
 237	2.3482e+01	9.3976	61.798455	0.000628	6.284616	2.129286	0.000252
 238	2.3581e+01	9.4377	62.072981	0.000689	6.892805	2.335346	0.000276
 239	2.3681e+01	9.4762	62.319246	0.000618	6.183252	2.094942	0.000248
 240	2.3780e+01	9.5115	62.597808	0.000699	6.994170	2.369689	0.000280
 241	2.3880e+01	9.5580	62.823888	0.000568	5.676428	1.923226	0.000227
 242	2.3980e+01	9.5869	63.049967	0.000568	5.676428	1.923226	0.000227
 243	2.4079e+01	9.6302	63.332567	0.000710	7.095535	2.404032	0.000284
 244	2.4178e+01	9.6783	63.594981	0.000659	6.588711	2.232316	0.000264
 245	2.4278e+01	9.7072	63.829135	0.000588	5.879157	1.991912	0.000235
 246	2.4378e+01	9.7505	64.059251	0.000578	5.777793	1.957569	0.000231
 247	2.4477e+01	9.8003	64.329739	0.000679	6.791440	2.301002	0.000272
 248	2.4576e+01	9.8307	64.576005	0.000618	6.183252	2.094942	0.000248
 249	2.4676e+01	9.8708	64.818233	0.000608	6.081887	2.060599	0.000243
 250	2.4776e+01	9.9126	65.064498	0.000618	6.183252	2.094942	0.000248
 251	2.4875e+01	9.9495	65.367283	0.000760	7.602359	2.575749	0.000304
 252	2.4974e+01	9.9896	65.597400	0.000578	5.777793	1.957569	0.000231
 253	2.5074e+01	10.0345	65.847702	0.000628	6.284616	2.129286	0.000252
 254	2.5174e+01	10.0762	66.126265	0.000699	6.994170	2.369689	0.000280
 255	2.5273e+01	10.1195	66.320047	0.000487	4.865509	1.648479	0.000195
 256	2.5372e+01	10.1436	66.634944	0.000791	7.906453	2.678779	0.000316
 257	2.5472e+01	10.1885	66.832764	0.000497	4.966874	1.682823	0.000199
 258	2.5572e+01	10.2270	67.115363	0.000710	7.095535	2.404032	0.000284
 259	2.5671e+01	10.2703	67.361628	0.000618	6.183252	2.094942	0.000248
 260	2.5770e+01	10.3152	67.628079	0.000669	6.690076	2.266659	0.000268
 261	2.5870e+01	10.3489	67.842048	0.000537	5.372333	1.820196	0.000215
 262	2.5970e+01	10.3890	68.124647	0.000710	7.095535	2.404032	0.000284
 263	2.6069e+01	10.4387	68.423395	0.000750	7.500994	2.541405	0.000300
 264	2.6169e+01	10.4692	68.609103	0.000466	4.662780	1.579793	0.000187
 265	2.6268e+01	10.5109	68.863443	0.000639	6.385981	2.163629	0.000256
 266	2.6367e+01	10.5494	69.150079	0.000720	7.196899	2.438376	0.000288
 267	2.6467e+01	10.5831	69.376159	0.000568	5.676428	1.923226	0.000227
 268	2.6567e+01	10.6280	69.642610	0.000669	6.690076	2.266659	0.000268
 269	2.6666e+01	10.6714	69.896950	0.000639	6.385981	2.163629	0.000256
 270	2.6765e+01	10.7099	70.098806	0.000507	5.068239	1.717166	0.000203
 271	2.6865e+01	10.7484	70.397554	0.000750	7.500994	2.541405	0.000300
 272	2.6965e+01	10.7933	70.639783	0.000608	6.081887	2.060599	0.000243
 273	2.7064e+01	10.8302	70.837602	0.000497	4.966874	1.682823	0.000199
 274	2.7163e+01	10.8655	71.124239	0.000720	7.196899	2.438376	0.000288
 275	2.7263e+01	10.9120	71.350318	0.000568	5.676428	1.923226	0.000227
 276	2.7363e+01	10.9457	71.604658	0.000639	6.385981	2.163629	0.000256
 277	2.7462e+01	10.9810	71.863035	0.000649	6.487346	2.197972	0.000260
 278	2.7561e+01	11.0323	72.149671	0.000720	7.196899	2.438376	0.000288
 279	2.7661e+01	11.0612	72.367677	0.000547	5.473698	1.854539	0.000219
 280	2.7761e+01	11.1093	72.605868	0.000598	5.980522	2.026256	0.000239
 281	2.7860e+01	11.1414	72.856170	0.000628	6.284616	2.129286	0.000252
 282	2.7959e+01	11.1879	73.102435	0.000618	6.183252	2.094942	0.000248
 283	2.8059e+01	11.2248	73.380998	0.000699	6.994170	2.369689	0.000280
 284	2.8159e+01	11.2649	73.619189	0.000598	5.980522	2.026256	0.000239
 285	2.8258e+01	11.3130	73.841231	0.000558	5.575063	1.888882	0.000223
 286	2.8358e+01	11.3403	74.099608	0.000649	6.487346	2.197972	0.000260
 287	2.8457e+01	11.3852	74.386245	0.000720	7.196899	2.438376	0.000288
 288	2.8556e+01	11.4270	74.588101	0.000507	5.068239	1.717166	0.000203
 289	2.8656e+01	11.4735	74.858589	0.000679	6.791440	2.301002	0.000272
 290	2.8756e+01	11.4943	75.076595	0.000547	5.473698	1.854539	0.000219
 291	2.8855e+01	11.5457	75.326897	0.000628	6.284616	2.129286	0.000252
 292	2.8954e+01	11.5842	75.589311	0.000659	6.588711	2.232316	0.000264
 293	2.9054e+01	11.6227	75.839613	0.000628	6.284616	2.129286	0.000252
 294	2.9154e+01	11.6644	76.081842	0.000608	6.081887	2.060599	0.000243
 295	2.9253e+01	11.6997	76.315995	0.000588	5.879157	1.991912	0.000235
 296	2.9352e+01	11.7478	76.574372	0.000649	6.487346	2.197972	0.000260
 297	2.9452e+01	11.7799	76.788340	0.000537	5.372333	1.820196	0.000215
 298	2.9552e+01	11.8296	77.034606	0.000618	6.183252	2.094942	0.000248
 299	2.9651e+01	11.8681	77.305094	0.000679	6.791440	2.301002	0.000272
 300	2.9750e+01	11.9114	77.571545	0.000669	6.690076	2.266659	0.000268
 301	2.9850e+01	11.9467	77.829921	0.000649	6.487346	2.197972	0.000260
 302	2.9950e+01	11.9820	78.047927	0.000547	5.473698	1.854539	0.000219
 303	3.0049e+01	12.0189	78.350712	0.000760	7.602359	2.575749	0.000304
 304	3.0148e+01	12.0751	78.520272	0.000426	4.257321	1.442419	0.000170
 305	3.0248e+01	12.0943	78.786722	0.000669	6.690076	2.266659	0.000268
 306	3.0348e+01	12.1376	79.012802	0.000568	5.676428	1.923226	0.000227
 307	3.0447e+01	12.1841	79.279253	0.000669	6.690076	2.266659	0.000268
 308	3.0547e+01	12.2243	79.529555	0.000628	6.284616	2.129286	0.000252
 309	3.0646e+01	12.2692	79.791969	0.000659	6.588711	2.232316	0.000264
 310	3.0745e+01	12.2997	80.014012	0.000558	5.575063	1.888882	0.000223
 311	3.0845e+01	12.3446	80.260277	0.000618	6.183252	2.094942	0.000248
 312	3.0945e+01	12.3799	80.514617	0.000639	6.385981	2.163629	0.000256
 313	3.1044e+01	12.4280	80.748770	0.000588	5.879157	1.991912	0.000235
 314	3.1143e+01	12.4649	81.015221	0.000669	6.690076	2.266659	0.000268
 315	3.1243e+01	12.5018	81.217078	0.000507	5.068239	1.717166	0.000203
 316	3.1343e+01	12.5419	81.499678	0.000710	7.095535	2.404032	0.000284
 317	3.1442e+01	12.5852	81.697497	0.000497	4.966874	1.682823	0.000199
 318	3.1541e+01	12.6285	81.984134	0.000720	7.196899	2.438376	0.000288
 319	3.1641e+01	12.6638	82.222325	0.000598	5.980522	2.026256	0.000239
 320	3.1741e+01	12.7087	82.444367	0.000558	5.575063	1.888882	0.000223
 321	3.1840e+01	12.7392	82.666410	0.000558	5.575063	1.888882	0.000223
 322	3.1939e+01	12.7841	82.969195	0.000760	7.602359	2.575749	0.000304
 323	3.2039e+01	12.8178	83.203349	0.000588	5.879157	1.991912	0.000235
 324	3.2139e+01	12.8595	83.457689	0.000639	6.385981	2.163629	0.000256
 325	3.2238e+01	12.8932	83.703954	0.000618	6.183252	2.094942	0.000248
 326	3.2337e+01	12.9413	83.946182	0.000608	6.081887	2.060599	0.000243
 327	3.2437e+01	12.9766	84.156113	0.000527	5.270969	1.785853	0.000211
 328	3.2536e+01	13.0119	84.378155	0.000558	5.575063	1.888882	0.000223
 329	3.2636e+01	13.0569	84.660755	0.000710	7.095535	2.404032	0.000284
 330	3.2736e+01	13.0954	84.911057	0.000628	6.284616	2.129286	0.000252
 331	3.2835e+01	13.1355	85.133100	0.000558	5.575063	1.888882	0.000223
 332	3.2934e+01	13.1836	85.363217	0.000578	5.777793	1.957569	0.000231
 333	3.3034e+01	13.2173	85.617556	0.000639	6.385981	2.163629	0.000256
 334	3.3133e+01	13.2558	85.843636	0.000568	5.676428	1.923226	0.000227
 335	3.3233e+01	13.3007	86.081827	0.000598	5.980522	2.026256	0.000239
 336	3.3333e+01	13.3408	86.328092	0.000618	6.183252	2.094942	0.000248
 337	3.3432e+01	13.3841	86.598580	0.000679	6.791440	2.301002	0.000272
 338	3.3532e+01	13.4178	86.820623	0.000558	5.575063	1.888882	0.000223
 339	3.3631e+01	13.4547	87.091111	0.000679	6.791440	2.301002	0.000272
 340	3.3730e+01	13.4932	87.313153	0.000558	5.575063	1.888882	0.000223
 341	3.3830e+01	13.5301	87.555381	0.000608	6.081887	2.060599	0.000243
 342	3.3929e+01	13.5670	87.797609	0.000608	6.081887	2.060599	0.000243
 343	3.4029e+01	13.6183	88.039838	0.000608	6.081887	2.060599	0.000243
 344	3.4129e+01	13.6456	88.253806	0.000537	5.372333	1.820196	0.000215
 345	3.4228e+01	13.6969	88.483923	0.000578	5.777793	1.957569	0.000231
 346	3.4328e+01	13.7386	88.742299	0.000649	6.487346	2.197972	0.000260
 347	3.4427e+01	13.7755	88.980490	0.000598	5.980522	2.026256	0.000239
 348	3.4526e+01	13.8205	89.214644	0.000588	5.879157	1.991912	0.000235
 349	3.4626e+01	13.8638	89.509355	0.000740	7.399629	2.507062	0.000296
 350	3.4725e+01	13.8862	89.707175	0.000497	4.966874	1.682823	0.000199
 351	3.4825e+01	13.9344	89.969588	0.000659	6.588711	2.232316	0.000264
 352	3.4925e+01	13.9761	90.187594	0.000547	5.473698	1.854539	0.000219
 353	3.5024e+01	14.0210	90.429822	0.000608	6.081887	2.060599	0.000243
 354	3.5123e+01	14.0531	90.672050	0.000608	6.081887	2.060599	0.000243
 355	3.5223e+01	14.0964	90.922353	0.000628	6.284616	2.129286	0.000252
 356	3.5322e+01	14.1333	91.176692	0.000639	6.385981	2.163629	0.000256
 357	3.5422e+01	14.1782	91.422957	0.000618	6.183252	2.094942	0.000248
 358	3.5522e+01	14.2135	91.620777	0.000497	4.966874	1.682823	0.000199
 359	3.5621e+01	14.2520	91.867042	0.000618	6.183252	2.094942	0.000248
 360	3.5721e+01	14.2921	92.113308	0.000618	6.183252	2.094942	0.000248
 361	3.5820e+01	14.3258	92.307090	0.000487	4.865509	1.648479	0.000195
 362	3.5919e+01	14.3771	92.561430	0.000639	6.385981	2.163629	0.000256
 363	3.6019e+01	14.4108	92.819806	0.000649	6.487346	2.197972	0.000260
 364	3.6118e+01	14.4509	93.066072	0.000618	6.183252	2.094942	0.000248
 365	3.6218e+01	14.4910	93.276003	0.000527	5.270969	1.785853	0.000211
 366	3.6318e+01	14.5343	93.526305	0.000628	6.284616	2.129286	0.000252
 367	3.6417e+01	14.5761	93.752385	0.000568	5.676428	1.923226	0.000227
 368	3.6517e+01	14.6049	94.006724	0.000639	6.385981	2.163629	0.000256
 369	3.6616e+01	14.6499	94.285287	0.000699	6.994170	2.369689	0.000280
 370	3.6715e+01	14.6932	94.483106	0.000497	4.966874	1.682823	0.000199
 371	3.6815e+01	14.7333	94.689000	0.000517	5.169604	1.751509	0.000207
 372	3.6914e+01	14.7734	94.947377	0.000649	6.487346	2.197972	0.000260
 373	3.7014e+01	14.8007	95.201716	0.000639	6.385981	2.163629	0.000256
 374	3.7114e+01	14.8408	95.419722	0.000547	5.473698	1.854539	0.000219
 375	3.7213e+01	14.8921	95.682136	0.000659	6.588711	2.232316	0.000264
 376	3.7313e+01	14.9322	95.900141	0.000547	5.473698	1.854539	0.000219
 377	3.7412e+01	14.9707	96.150443	0.000628	6.284616	2.129286	0.000252
 378	3.7511e+01	15.0076	96.380560	0.000578	5.777793	1.957569	0.000231
 379	3.7611e+01	15.0461	96.622788	0.000608	6.081887	2.060599	0.000243
 380	3.7711e+01	15.0926	96.840794	0.000547	5.473698	1.854539	0.000219
 381	3.7810e+01	15.1247	97.070910	0.000578	5.777793	1.957569	0.000231
 382	3.7910e+01	15.1744	97.301027	0.000578	5.777793	1.957569	0.000231
 383	3.8009e+01	15.2161	97.543255	0.000608	6.081887	2.060599	0.000243
 384	3.8108e+01	15.2514	97.753186	0.000527	5.270969	1.785853	0.000211
 385	3.8208e+01	15.2915	98.007526	0.000639	6.385981	2.163629	0.000256
 386	3.8307e+01	15.3365	98.225531	0.000547	5.473698	1.854539	0.000219
 387	3.8407e+01	15.3750	98.475833	0.000628	6.284616	2.129286	0.000252
 388	3.8507e+01	15.4151	98.673653	0.000497	4.966874	1.682823	0.000199
 389	3.8606e+01	15.4472	98.936067	0.000659	6.588711	2.232316	0.000264
 390	3.8706e+01	15.4905	99.182332	0.000618	6.183252	2.094942	0.000248
 391	3.8805e+01	15.5306	99.384189	0.000507	5.068239	1.717166	0.000203
 392	3.8904e+01	15.5707	99.622380	0.000598	5.980522	2.026256	0.000239
 393	3.9004e+01	15.6044	99.872682	0.000628	6.284616	2.129286	0.000252
 394	3.9103e+01	15.6525	100.106836	0.000588	5.879157	1.991912	0.000235
 395	3.9203e+01	15.6862	100.300619	0.000487	4.865509	1.648479	0.000195
 396	3.9303e+01	15.7311	100.538810	0.000598	5.980522	2.026256	0.000239
 397	3.9402e+01	15.7712	100.809298	0.000679	6.791440	2.301002	0.000272
 398	3.9502e+01	15.8001	101.015192	0.000517	5.169604	1.751509	0.000207
 399	3.9601e+01	15.8498	101.253383	0.000598	5.980522	2.026256	0.000239
 400	3.9700e+01	15.9012	101.483500	0.000578	5.777793	1.957569	0.000231
 401	3.9800e+01	15.9300	101.721691	0.000598	5.980522	2.026256	0.000239
 402	3.9900e+01	15.9701	101.919510	0.000497	4.966874	1.682823	0.000199
 403	3.9999e+01	16.0086	102.169813	0.000628	6.284616	2.129286	0.000252
 404	4.0099e+01	16.0520	102.403967	0.000588	5.879157	1.991912	0.000235
 405	4.0198e+01	16.0872	102.654269	0.000628	6.284616	2.129286	0.000252
 406	4.0297e+01	16.1257	102.852089	0.000497	4.966874	1.682823	0.000199
 407	4.0397e+01	16.1675	103.106428	0.000639	6.385981	2.163629	0.000256
 408	4.0496e+01	16.2028	103.320396	0.000537	5.372333	1.820196	0.000215
 409	4.0596e+01	16.2413	103.582810	0.000659	6.588711	2.232316	0.000264
 410	4.0696e+01	16.2910	103.812927	0.000578	5.777793	1.957569	0.000231
 411	4.0795e+01	16.3279	104.002672	0.000476	4.764145	1.614136	0.000191
 412	4.0895e+01	16.3680	104.248938	0.000618	6.183252	2.094942	0.000248
 413	4.0994e+01	16.4049	104.503277	0.000639	6.385981	2.163629	0.000256
 414	4.1093e+01	16.4418	104.693023	0.000476	4.764145	1.614136	0.000191
 415	4.1193e+01	16.4835	104.919102	0.000568	5.676428	1.923226	0.000227
 416	4.1292e+01	16.5188	105.185553	0.000669	6.690076	2.266659	0.000268
 417	4.1392e+01	16.5669	105.431818	0.000618	6.183252	2.094942	0.000248
 418	4.1492e+01	16.6070	105.625601	0.000487	4.865509	1.648479	0.000195
 419	4.1591e+01	16.6423	105.835532	0.000527	5.270969	1.785853	0.000211
 420	4.1691e+01	16.6888	106.081797	0.000618	6.183252	2.094942	0.000248
 421	4.1790e+01	16.7225	106.275580	0.000487	4.865509	1.648479	0.000195
 422	4.1889e+01	16.7642	106.517808	0.000608	6.081887	2.060599	0.000243
 423	4.1989e+01	16.8124	106.723702	0.000517	5.169604	1.751509	0.000207
 424	4.2089e+01	16.8557	107.002264	0.000699	6.994170	2.369689	0.000280
 425	4.2188e+01	16.8765	107.224307	0.000558	5.575063	1.888882	0.000223
 426	4.2288e+01	16.9198	107.434238	0.000527	5.270969	1.785853	0.000211
 427	4.2387e+01	16.9664	107.676466	0.000608	6.081887	2.060599	0.000243
 428	4.2486e+01	17.0017	107.886397	0.000527	5.270969	1.785853	0.000211
 429	4.2586e+01	17.0418	108.108439	0.000558	5.575063	1.888882	0.000223
 430	4.2685e+01	17.0803	108.358742	0.000628	6.284616	2.129286	0.000252
 431	4.2785e+01	17.1220	108.584821	0.000568	5.676428	1.923226	0.000227
 432	4.2885e+01	17.1605	108.818975	0.000588	5.879157	1.991912	0.000235
 433	4.2984e+01	17.2022	109.032943	0.000537	5.372333	1.820196	0.000215
 434	4.3084e+01	17.2519	109.259023	0.000568	5.676428	1.923226	0.000227
 435	4.3183e+01	17.2840	109.472991	0.000537	5.372333	1.820196	0.000215
 436	4.3282e+01	17.3289	109.731368	0.000649	6.487346	2.197972	0.000260
 437	4.3382e+01	17.3578	109.913039	0.000456	4.561415	1.545449	0.000183
 438	4.3481e+01	17.3995	110.147193	0.000588	5.879157	1.991912	0.000235
 439	4.3581e+01	17.4348	110.385384	0.000598	5.980522	2.026256	0.000239
 440	4.3681e+01	17.4765	110.639723	0.000639	6.385981	2.163629	0.000256
 441	4.3780e+01	17.5246	110.849655	0.000527	5.270969	1.785853	0.000211
 442	4.3880e+01	17.5503	111.079771	0.000578	5.777793	1.957569	0.000231
 443	4.3979e+01	17.5936	111.269517	0.000476	4.764145	1.614136	0.000191
 444	4.4078e+01	17.6401	111.535968	0.000669	6.690076	2.266659	0.000268
 445	4.4178e+01	17.6786	111.745899	0.000527	5.270969	1.785853	0.000211
 446	4.4278e+01	17.7139	111.967941	0.000558	5.575063	1.888882	0.000223
 447	4.4377e+01	17.7621	112.189984	0.000558	5.575063	1.888882	0.000223
 448	4.4477e+01	17.7990	112.375692	0.000466	4.662780	1.579793	0.000187
 449	4.4576e+01	17.8343	112.609846	0.000588	5.879157	1.991912	0.000235
 450	4.4675e+01	17.8792	112.856111	0.000618	6.183252	2.094942	0.000248
 451	4.4775e+01	17.9225	113.074116	0.000547	5.473698	1.854539	0.000219
 452	4.4874e+01	17.9578	113.308270	0.000588	5.879157	1.991912	0.000235
 453	4.4974e+01	18.0059	113.514164	0.000517	5.169604	1.751509	0.000207
 454	4.5074e+01	18.0348	113.716021	0.000507	5.068239	1.717166	0.000203
 455	4.5173e+01	18.0749	113.950175	0.000588	5.879157	1.991912	0.000235
 456	4.5273e+01	18.1166	114.168180	0.000547	5.473698	1.854539	0.000219
 457	4.5372e+01	18.1583	114.426557	0.000649	6.487346	2.197972	0.000260
 458	4.5471e+01	18.2064	114.620339	0.000487	4.865509	1.648479	0.000195
 459	4.5571e+01	18.2353	114.866605	0.000618	6.183252	2.094942	0.000248
 460	4.5670e+01	18.2818	115.088647	0.000558	5.575063	1.888882	0.000223
 461	4.5770e+01	18.3284	115.294541	0.000517	5.169604	1.751509	0.000207
 462	4.5870e+01	18.3572	115.464101	0.000426	4.257321	1.442419	0.000170
 463	4.5969e+01	18.4006	115.734589	0.000679	6.791440	2.301002	0.000272
 464	4.6069e+01	18.4358	115.944520	0.000527	5.270969	1.785853	0.000211
 465	4.6168e+01	18.4808	116.166562	0.000558	5.575063	1.888882	0.000223
 466	4.6267e+01	18.5241	116.384568	0.000547	5.473698	1.854539	0.000219
 467	4.6367e+01	18.5610	116.642944	0.000649	6.487346	2.197972	0.000260
 468	4.6467e+01	18.5963	116.856913	0.000537	5.372333	1.820196	0.000215
 469	4.6566e+01	18.6396	117.099141	0.000608	6.081887	2.060599	0.000243
 470	4.6666e+01	18.6733	117.300997	0.000507	5.068239	1.717166	0.000203
 471	4.6765e+01	18.7166	117.510928	0.000527	5.270969	1.785853	0.000211
 472	4.6864e+01	18.7647	117.732971	0.000558	5.575063	1.888882	0.000223
 473	4.6964e+01	18.7984	117.979236	0.000618	6.183252	2.094942	0.000248
 474	4.7063e+01	18.8417	118.209353	0.000578	5.777793	1.957569	0.000231
 475	4.7163e+01	18.8818	118.358727	0.000375	3.750497	1.270703	0.000150
 476	4.7263e+01	18.9219	118.625178	0.000669	6.690076	2.266659	0.000268
 477	4.7362e+01	18.9604	118.863369	0.000598	5.980522	2.026256	0.000239
 478	4.7462e+01	18.9925	119.065226	0.000507	5.068239	1.717166	0.000203
 479	4.7561e+01	19.0390	119.263045	0.000497	4.966874	1.682823	0.000199
 480	4.7660e+01	19.0759	119.517385	0.000639	6.385981	2.163629	0.000256
 481	4.7760e+01	19.1160	119.666759	0.000375	3.750497	1.270703	0.000150
 482	4.7859e+01	19.1497	119.921099	0.000639	6.385981	2.163629	0.000256
 483	4.7959e+01	19.1818	120.171401	0.000628	6.284616	2.129286	0.000252
 484	4.8059e+01	19.2396	120.349035	0.000446	4.460050	1.511106	0.000179
 485	4.8158e+01	19.2716	120.603374	0.000639	6.385981	2.163629	0.000256
 486	4.8258e+01	19.3069	120.833491	0.000578	5.777793	1.957569	0.000231
 487	4.8357e+01	19.3535	120.994977	0.000405	4.054591	1.373733	0.000162
 488	4.8456e+01	19.3904	121.261428	0.000669	6.690076	2.266659	0.000268
 489	4.8556e+01	19.4385	121.479433	0.000547	5.473698	1.854539	0.000219
 490	4.8656e+01	19.4738	121.677253	0.000497	4.966874	1.682823	0.000199
 491	4.8755e+01	19.5075	121.883146	0.000517	5.169604	1.751509	0.000207
 492	4.8855e+01	19.5588	122.141523	0.000649	6.487346	2.197972	0.000260
 493	4.8954e+01	19.5893	122.351454	0.000527	5.270969	1.785853	0.000211
 494	4.9053e+01	19.6326	122.537162	0.000466	4.662780	1.579793	0.000187
 495	4.9153e+01	19.6759	122.767279	0.000578	5.777793	1.957569	0.000231
 496	4.9252e+01	19.7080	122.961062	0.000487	4.865509	1.648479	0.000195
 497	4.9352e+01	19.7513	123.231550	0.000679	6.791440	2.301002	0.000272
 498	4.9452e+01	19.7930	123.421295	0.000476	4.764145	1.614136	0.000191
 499	4.9551e+01	19.8379	123.615078	0.000487	4.865509	1.648479	0.000195
 500	4.9651e+01	19.8716	123.849232	0.000588	5.879157	1.991912	0.000235
 501	4.9750e+01	19.9037	124.083385	0.000588	5.879157	1.991912	0.000235
 502	4.9849e+01	19.9470	124.293317	0.000527	5.270969	1.785853	0.000211
 503	4.9949e+01	19.9807	124.567842	0.000689	6.892805	2.335346	0.000276
 504	5.0048e+01	19.9486	124.386171	0.000456	4.561415	1.545449	-0.000183
 505	5.0148e+01	19.9214	124.236797	0.000375	3.750497	1.270703	-0.000150
 506	5.0248e+01	19.8732	124.075311	0.000405	4.054591	1.373733	-0.000162
 507	5.0347e+01	19.8412	123.982457	0.000233	2.331390	0.789896	-0.000093
 508	5.0447e+01	19.7962	123.804823	0.000446	4.460050	1.511106	-0.000179
 509	5.0546e+01	19.7449	123.643338	0.000405	4.054591	1.373733	-0.000162
 510	5.0645e+01	19.7080	123.477815	0.000416	4.155956	1.408076	-0.000166
 511	5.0745e+01	19.6663	123.308255	0.000426	4.257321	1.442419	-0.000170
 512	5.0844e+01	19.6278	123.175030	0.000335	3.345038	1.133329	-0.000134
 513	5.0944e+01	19.5909	123.037767	0.000345	3.446403	1.167673	-0.000138
 514	5.1044e+01	19.5428	122.860133	0.000446	4.460050	1.511106	-0.000179
 515	5.1143e+01	19.5091	122.702685	0.000395	3.953226	1.339389	-0.000158
 516	5.1242e+01	19.4754	122.545237	0.000395	3.953226	1.339389	-0.000158
 517	5.1342e+01	19.4289	122.375677	0.000426	4.257321	1.442419	-0.000170
 518	5.1441e+01	19.3920	122.198043	0.000446	4.460050	1.511106	-0.000179
 519	5.1541e+01	19.3551	122.052706	0.000365	3.649132	1.236359	-0.000146
 520	5.1641e+01	19.3102	121.899295	0.000385	3.851862	1.305046	-0.000154
 521	5.1740e+01	19.2765	121.745884	0.000385	3.851862	1.305046	-0.000154
 522	5.1840e+01	19.2283	121.568250	0.000446	4.460050	1.511106	-0.000179
 523	5.1939e+01	19.1914	121.366393	0.000507	5.068239	1.717166	-0.000203
 524	5.2038e+01	19.1594	121.196833	0.000426	4.257321	1.442419	-0.000170
 525	5.2138e+01	19.1225	121.043422	0.000385	3.851862	1.305046	-0.000154
 526	5.2237e+01	19.0791	120.869825	0.000436	4.358686	1.476763	-0.000174
 527	5.2337e+01	19.0342	120.700266	0.000426	4.257321	1.442419	-0.000170
 528	5.2437e+01	18.9893	120.530706	0.000426	4.257321	1.442419	-0.000170
 529	5.2536e+01	18.9556	120.340961	0.000476	4.764145	1.614136	-0.000191
 530	5.2636e+01	18.9155	120.163327	0.000446	4.460050	1.511106	-0.000179
 531	5.2735e+01	18.8786	120.009916	0.000385	3.851862	1.305046	-0.000154
 532	5.2834e+01	18.8289	119.824207	0.000466	4.662780	1.579793	-0.000187
 533	5.2934e+01	18.7904	119.634462	0.000476	4.764145	1.614136	-0.000191
 534	5.3033e+01	18.7663	119.501236	0.000335	3.345038	1.133329	-0.000134
 535	5.3133e+01	18.7150	119.303417	0.000497	4.966874	1.682823	-0.000199
 536	5.3233e+01	18.6813	119.170191	0.000335	3.345038	1.133329	-0.000134
 537	5.3332e+01	18.6380	118.960260	0.000527	5.270969	1.785853	-0.000211
 538	5.3431e+01	18.6027	118.766478	0.000487	4.865509	1.648479	-0.000195
 539	5.3531e+01	18.5562	118.633252	0.000335	3.345038	1.133329	-0.000134
 540	5.3630e+01	18.5209	118.439470	0.000487	4.865509	1.648479	-0.000195
 541	5.3730e+01	18.4727	118.253761	0.000466	4.662780	1.579793	-0.000187
 542	5.3830e+01	18.4326	118.084202	0.000426	4.257321	1.442419	-0.000170
 543	5.3929e+01	18.3941	117.914642	0.000426	4.257321	1.442419	-0.000170
 544	5.4029e+01	18.3540	117.692600	0.000558	5.575063	1.888882	-0.000223
 545	5.4128e+01	18.3187	117.510928	0.000456	4.561415	1.545449	-0.000183
 546	5.4227e+01	18.2738	117.361554	0.000375	3.750497	1.270703	-0.000150
 547	5.4327e+01	18.2401	117.163735	0.000497	4.966874	1.682823	-0.000199
 548	5.4426e+01	18.1952	117.010324	0.000385	3.851862	1.305046	-0.000154
 549	5.4526e+01	18.1615	116.808467	0.000507	5.068239	1.717166	-0.000203
 550	5.4626e+01	18.1246	116.659093	0.000375	3.750497	1.270703	-0.000150
 551	5.4725e+01	18.0813	116.465310	0.000487	4.865509	1.648479	-0.000195
 552	5.4825e+01	18.0364	116.291714	0.000436	4.358686	1.476763	-0.000174
 553	5.4924e+01	18.0027	116.077745	0.000537	5.372333	1.820196	-0.000215
 554	5.5023e+01	17.9626	115.888000	0.000476	4.764145	1.614136	-0.000191
 555	5.5123e+01	17.9209	115.690180	0.000497	4.966874	1.682823	-0.000199
 556	5.5222e+01	17.8888	115.536769	0.000385	3.851862	1.305046	-0.000154
 557	5.5322e+01	17.8439	115.338949	0.000497	4.966874	1.682823	-0.000199
 558	5.5422e+01	17.7990	115.185538	0.000385	3.851862	1.305046	-0.000154
 559	5.5521e+01	17.7556	115.003867	0.000456	4.561415	1.545449	-0.000183
 560	5.5620e+01	17.7188	114.773750	0.000578	5.777793	1.957569	-0.000231
 561	5.5720e+01	17.6835	114.628414	0.000365	3.649132	1.236359	-0.000146
 562	5.5819e+01	17.6353	114.438668	0.000476	4.764145	1.614136	-0.000191
 563	5.5919e+01	17.5936	114.261034	0.000446	4.460050	1.511106	-0.000179
 564	5.6019e+01	17.5615	114.047066	0.000537	5.372333	1.820196	-0.000215
 565	5.6118e+01	17.5182	113.893655	0.000385	3.851862	1.305046	-0.000154
 566	5.6218e+01	17.4861	113.663538	0.000578	5.777793	1.957569	-0.000231
 567	5.6317e+01	17.4412	113.489941	0.000436	4.358686	1.476763	-0.000174
 568	5.6416e+01	17.4027	113.267899	0.000558	5.575063	1.888882	-0.000223
 569	5.6516e+01	17.3562	113.102376	0.000416	4.155956	1.408076	-0.000166
 570	5.6615e+01	17.3289	112.936854	0.000416	4.155956	1.408076	-0.000166
 571	5.6715e+01	17.2840	112.730960	0.000517	5.169604	1.751509	-0.000207
 572	5.6815e+01	17.2423	112.549289	0.000456	4.561415	1.545449	-0.000183
 573	5.6914e+01	17.1942	112.379729	0.000426	4.257321	1.442419	-0.000170
 574	5.7014e+01	17.1653	112.173835	0.000517	5.169604	1.751509	-0.000207
 575	5.7113e+01	17.1300	111.963904	0.000527	5.270969	1.785853	-0.000211
 576	5.7212e+01	17.0803	111.818567	0.000365	3.649132	1.236359	-0.000146
 577	5.7312e+01	17.0482	111.620747	0.000497	4.966874	1.682823	-0.000199
 578	5.7411e+01	17.0049	111.410816	0.000527	5.270969	1.785853	-0.000211
 579	5.7511e+01	16.9632	111.261442	0.000375	3.750497	1.270703	-0.000150
 580	5.7611e+01	16.9231	111.043437	0.000547	5.473698	1.854539	-0.000219
 581	5.7710e+01	16.8781	110.849655	0.000487	4.865509	1.648479	-0.000195
 582	5.7809e+01	16.8380	110.659909	0.000476	4.764145	1.614136	-0.000191
 583	5.7909e+01	16.7995	110.458052	0.000507	5.068239	1.717166	-0.000203
 584	5.8008e+01	16.7642	110.280418	0.000446	4.460050	1.511106	-0.000179
 585	5.8108e+01	16.7273	110.054339	0.000568	5.676428	1.923226	-0.000227
 586	5.8208e+01	16.6840	109.900928	0.000385	3.851862	1.305046	-0.000154
 587	5.8307e+01	16.6407	109.727331	0.000436	4.358686	1.476763	-0.000174
 588	5.8407e+01	16.6038	109.533548	0.000487	4.865509	1.648479	-0.000195
 589	5.8506e+01	16.5701	109.295357	0.000598	5.980522	2.026256	-0.000239
 590	5.8605e+01	16.5300	109.113686	0.000456	4.561415	1.545449	-0.000183
 591	5.8705e+01	16.4835	108.927978	0.000466	4.662780	1.579793	-0.000187
 592	5.8804e+01	16.4466	108.734195	0.000487	4.865509	1.648479	-0.000195
 593	5.8904e+01	16.3953	108.528301	0.000517	5.169604	1.751509	-0.000207
 594	5.9004e+01	16.3664	108.330482	0.000497	4.966874	1.682823	-0.000199
 595	5.9103e+01	16.3199	108.144774	0.000466	4.662780	1.579793	-0.000187
 596	5.9203e+01	16.2814	107.963102	0.000456	4.561415	1.545449	-0.000183
 597	5.9302e+01	16.2445	107.761246	0.000507	5.068239	1.717166	-0.000203
 598	5.9401e+01	16.2172	107.559389	0.000507	5.068239	1.717166	-0.000203
 599	5.9501e+01	16.1675	107.385792	0.000436	4.358686	1.476763	-0.000174
 600	5.9600e+01	16.1274	107.167787	0.000547	5.473698	1.854539	-0.000219
 601	5.9700e+01	16.0921	106.986116	0.000456	4.561415	1.545449	-0.000183
 602	5.9800e+01	16.0536	106.776185	0.000527	5.270969	1.785853	-0.000211
 603	5.9899e+01	16.0102	106.586439	0.000476	4.764145	1.614136	-0.000191
 604	5.9998e+01	15.9525	106.372471	0.000537	5.372333	1.820196	-0.000215
 605	6.0098e+01	15.9300	106.198874	0.000436	4.358686	1.476763	-0.000174
 606	6.0197e+01	15.8963	106.029314	0.000426	4.257321	1.442419	-0.000170
 607	6.0297e+01	15.8402	105.815346	0.000537	5.372333	1.820196	-0.000215
 608	6.0397e+01	15.8129	105.621564	0.000487	4.865509	1.648479	-0.000195
 609	6.0496e+01	15.7632	105.427781	0.000487	4.865509	1.648479	-0.000195
 610	6.0596e+01	15.7231	105.238036	0.000476	4.764145	1.614136	-0.000191
 611	6.0695e+01	15.6878	105.052328	0.000466	4.662780	1.579793	-0.000187
 612	6.0794e+01	15.6445	104.814137	0.000598	5.980522	2.026256	-0.000239
 613	6.0894e+01	15.6044	104.612280	0.000507	5.068239	1.717166	-0.000203
 614	6.0993e+01	15.5675	104.434646	0.000446	4.460050	1.511106	-0.000179
 615	6.1093e+01	15.5274	104.244900	0.000476	4.764145	1.614136	-0.000191
 616	6.1193e+01	15.4921	104.047081	0.000497	4.966874	1.682823	-0.000199
 617	6.1292e+01	15.4456	103.833113	0.000537	5.372333	1.820196	-0.000215
 618	6.1392e+01	15.4119	103.659516	0.000436	4.358686	1.476763	-0.000174
 619	6.1491e+01	15.3734	103.445548	0.000537	5.372333	1.820196	-0.000215
 620	6.1590e+01	15.3268	103.227542	0.000547	5.473698	1.854539	-0.000219
 621	6.1690e+01	15.2915	103.017611	0.000527	5.270969	1.785853	-0.000211
 622	6.1789e+01	15.2450	102.831903	0.000466	4.662780	1.579793	-0.000187
 623	6.1889e+01	15.2065	102.626009	0.000517	5.169604	1.751509	-0.000207
 624	6.1989e+01	15.1696	102.440301	0.000466	4.662780	1.579793	-0.000187
 625	6.2088e+01	15.1327	102.242481	0.000497	4.966874	1.682823	-0.000199
 626	6.2188e+01	15.0894	102.000253	0.000608	6.081887	2.060599	-0.000243
 627	6.2287e+01	15.0461	101.798396	0.000507	5.068239	1.717166	-0.000203
 628	6.2386e+01	15.0092	101.616725	0.000456	4.561415	1.545449	-0.000183
 629	6.2486e+01	14.9723	101.410831	0.000517	5.169604	1.751509	-0.000207
 630	6.2586e+01	14.9194	101.229160	0.000456	4.561415	1.545449	-0.000183
 631	6.2685e+01	14.8857	101.023266	0.000517	5.169604	1.751509	-0.000207
 632	6.2785e+01	14.8616	100.813335	0.000527	5.270969	1.785853	-0.000211
 633	6.2884e+01	14.8135	100.603404	0.000527	5.270969	1.785853	-0.000211
 634	6.2983e+01	14.7622	100.417696	0.000466	4.662780	1.579793	-0.000187
 635	6.3083e+01	14.7301	100.183542	0.000588	5.879157	1.991912	-0.000235
 636	6.3182e+01	14.7012	100.009945	0.000436	4.358686	1.476763	-0.000174
 637	6.3282e+01	14.6515	99.820200	0.000476	4.764145	1.614136	-0.000191
 638	6.3382e+01	14.6081	99.618343	0.000507	5.068239	1.717166	-0.000203
 639	6.3481e+01	14.5680	99.400338	0.000547	5.473698	1.854539	-0.000219
 640	6.3581e+01	14.5295	99.154072	0.000618	6.183252	2.094942	-0.000248
 641	6.3680e+01	14.4846	99.008735	0.000365	3.649132	1.236359	-0.000146
 642	6.3779e+01	14.4557	98.754396	0.000639	6.385981	2.163629	-0.000256
 643	6.3879e+01	14.4092	98.613096	0.000355	3.547767	1.202016	-0.000142
 644	6.3978e+01	14.3723	98.427388	0.000466	4.662780	1.579793	-0.000187
 645	6.4078e+01	14.3370	98.144788	0.000710	7.095535	2.404032	-0.000284
 646	6.4177e+01	14.2889	97.979266	0.000416	4.155956	1.408076	-0.000166
 647	6.4277e+01	14.2584	97.785483	0.000487	4.865509	1.648479	-0.000195
 648	6.4376e+01	14.2167	97.510958	0.000689	6.892805	2.335346	-0.000276
 649	6.4476e+01	14.1622	97.361584	0.000375	3.750497	1.270703	-0.000150
 650	6.4576e+01	14.1381	97.147616	0.000537	5.372333	1.820196	-0.000215
 651	6.4675e+01	14.0916	96.933648	0.000537	5.372333	1.820196	-0.000215
 652	6.4775e+01	14.0579	96.727754	0.000517	5.169604	1.751509	-0.000207
 653	6.4874e+01	14.0178	96.546083	0.000456	4.561415	1.545449	-0.000183
 654	6.4974e+01	13.9761	96.332114	0.000537	5.372333	1.820196	-0.000215
 655	6.5073e+01	13.9312	96.110072	0.000558	5.575063	1.888882	-0.000223
 656	6.5172e+01	13.8927	95.904178	0.000517	5.169604	1.751509	-0.000207
 657	6.5272e+01	13.8558	95.694247	0.000527	5.270969	1.785853	-0.000211
 658	6.5371e+01	13.8108	95.512576	0.000456	4.561415	1.545449	-0.000183
 659	6.5471e+01	13.7755	95.306682	0.000517	5.169604	1.751509	-0.000207
 660	6.5570e+01	13.7403	95.096751	0.000527	5.270969	1.785853	-0.000211
 661	6.5670e+01	13.7001	94.911043	0.000466	4.662780	1.579793	-0.000187
 662	6.5769e+01	13.6552	94.648629	0.000659	6.588711	2.232316	-0.000264
 663	6.5869e+01	13.6199	94.434661	0.000537	5.372333	1.820196	-0.000215
 664	6.5969e+01	13.5654	94.244915	0.000476	4.764145	1.614136	-0.000191
 665	6.6068e+01	13.5333	94.055170	0.000476	4.764145	1.614136	-0.000191
 666	6.6168e+01	13.4932	93.808905	0.000618	6.183252	2.094942	-0.000248
 667	6.6267e+01	13.4499	93.586862	0.000558	5.575063	1.888882	-0.000223
 668	6.6367e+01	13.4226	93.441525	0.000365	3.649132	1.236359	-0.000146
 669	6.6466e+01	13.3745	93.195260	0.000618	6.183252	2.094942	-0.000248
 670	6.6566e+01	13.3199	92.997440	0.000497	4.966874	1.682823	-0.000199
 671	6.6665e+01	13.2975	92.775398	0.000558	5.575063	1.888882	-0.000223
 672	6.6764e+01	13.2526	92.573541	0.000507	5.068239	1.717166	-0.000203
 673	6.6864e+01	13.2205	92.359573	0.000537	5.372333	1.820196	-0.000215
 674	6.6963e+01	13.1884	92.149642	0.000527	5.270969	1.785853	-0.000211
 675	6.7063e+01	13.1451	91.955859	0.000487	4.865509	1.648479	-0.000195
 676	6.7162e+01	13.0970	91.733817	0.000558	5.575063	1.888882	-0.000223
 677	6.7262e+01	13.0520	91.507737	0.000568	5.676428	1.923226	-0.000227
 678	6.7362e+01	13.0200	91.301843	0.000517	5.169604	1.751509	-0.000207
 679	6.7461e+01	12.9766	91.112098	0.000476	4.764145	1.614136	-0.000191
 680	6.7561e+01	12.9397	90.894093	0.000547	5.473698	1.854539	-0.000219
 681	6.7660e+01	12.9061	90.688199	0.000517	5.169604	1.751509	-0.000207
 682	6.7760e+01	12.8627	90.470193	0.000547	5.473698	1.854539	-0.000219
 683	6.7859e+01	12.8162	90.240077	0.000578	5.777793	1.957569	-0.000231
 684	6.7959e+01	12.7825	90.094740	0.000365	3.649132	1.236359	-0.000146
 685	6.8058e+01	12.7472	89.844437	0.000628	6.284616	2.129286	-0.000252
 686	6.8157e+01	12.7087	89.618358	0.000568	5.676428	1.923226	-0.000227
 687	6.8257e+01	12.6606	89.436687	0.000456	4.561415	1.545449	-0.000183
 688	6.8356e+01	12.6221	89.238867	0.000497	4.966874	1.682823	-0.000199
 689	6.8456e+01	12.5852	88.976453	0.000659	6.588711	2.232316	-0.000264
 690	6.8555e+01	12.5499	88.782671	0.000487	4.865509	1.648479	-0.000195
 691	6.8655e+01	12.5050	88.568702	0.000537	5.372333	1.820196	-0.000215
 692	6.8754e+01	12.4585	88.306289	0.000659	6.588711	2.232316	-0.000264
 693	6.8854e+01	12.4280	88.136729	0.000426	4.257321	1.442419	-0.000170
 694	6.8954e+01	12.3943	87.959095	0.000446	4.460050	1.511106	-0.000179
 695	6.9053e+01	12.3510	87.720904	0.000598	5.980522	2.026256	-0.000239
 696	6.9153e+01	12.2980	87.454453	0.000669	6.690076	2.266659	-0.000268
 697	6.9252e+01	12.2595	87.268745	0.000466	4.662780	1.579793	-0.000187
 698	6.9352e+01	12.2259	87.030554	0.000598	5.980522	2.026256	-0.000239
 699	6.9451e+01	12.1858	86.836771	0.000487	4.865509	1.648479	-0.000195
 700	6.9550e+01	12.1360	86.630877	0.000517	5.169604	1.751509	-0.000207
 701	6.9650e+01	12.1055	86.368463	0.000659	6.588711	2.232316	-0.000264
 702	6.9749e+01	12.0638	86.182755	0.000466	4.662780	1.579793	-0.000187
 703	6.9849e+01	12.0205	85.972824	0.000527	5.270969	1.785853	-0.000211
 704	6.9948e+01	11.9804	85.754819	0.000547	5.473698	1.854539	-0.000219
 705	7.0048e+01	11.9371	85.540851	0.000537	5.372333	1.820196	-0.000215
 706	7.0147e+01	11.8938	85.326882	0.000537	5.372333	1.820196	-0.000215
 707	7.0247e+01	11.8585	85.125026	0.000507	5.068239	1.717166	-0.000203
 708	7.0347e+01	11.8264	84.878760	0.000618	6.183252	2.094942	-0.000248
 709	7.0446e+01	11.7799	84.668829	0.000527	5.270969	1.785853	-0.000211
 710	7.0546e+01	11.7462	84.418527	0.000628	6.284616	2.129286	-0.000252
 711	7.0645e+01	11.7013	84.289339	0.000324	3.243673	1.098986	-0.000130
 712	7.0745e+01	11.6660	84.010776	0.000699	6.994170	2.369689	-0.000280
 713	7.0844e+01	11.6243	83.800845	0.000527	5.270969	1.785853	-0.000211
 714	7.0944e+01	11.5794	83.570728	0.000578	5.777793	1.957569	-0.000231
 715	7.1043e+01	11.5473	83.356760	0.000537	5.372333	1.820196	-0.000215
 716	7.1142e+01	11.5023	83.138755	0.000547	5.473698	1.854539	-0.000219
 717	7.1242e+01	11.4671	82.932861	0.000517	5.169604	1.751509	-0.000207
 718	7.1341e+01	11.4270	82.686596	0.000618	6.183252	2.094942	-0.000248
 719	7.1441e+01	11.3852	82.468590	0.000547	5.473698	1.854539	-0.000219
 720	7.1540e+01	11.3499	82.266734	0.000507	5.068239	1.717166	-0.000203
 721	7.1640e+01	11.3034	82.064877	0.000507	5.068239	1.717166	-0.000203
 722	7.1740e+01	11.2681	81.810537	0.000639	6.385981	2.163629	-0.000256
 723	7.1839e+01	11.2328	81.604643	0.000517	5.169604	1.751509	-0.000207
 724	7.1939e+01	11.1879	81.362415	0.000608	6.081887	2.060599	-0.000243
 725	7.2038e+01	11.1526	81.148447	0.000537	5.372333	1.820196	-0.000215
 726	7.2138e+01	11.0981	80.922367	0.000568	5.676428	1.923226	-0.000227
 727	7.2237e+01	11.0660	80.704362	0.000547	5.473698	1.854539	-0.000219
 728	7.2337e+01	11.0307	80.498468	0.000517	5.169604	1.751509	-0.000207
 729	7.2436e+01	10.9906	80.288537	0.000527	5.270969	1.785853	-0.000211
 730	7.2535e+01	10.9537	80.082643	0.000517	5.169604	1.751509	-0.000207
 731	7.2635e+01	10.9024	79.812155	0.000679	6.791440	2.301002	-0.000272
 732	7.2734e+01	10.8719	79.602224	0.000527	5.270969	1.785853	-0.000211
 733	7.2834e+01	10.8318	79.420553	0.000456	4.561415	1.545449	-0.000183
 734	7.2933e+01	10.7917	79.166213	0.000639	6.385981	2.163629	-0.000256
 735	7.3033e+01	10.7419	78.936097	0.000578	5.777793	1.957569	-0.000231
 736	7.3132e+01	10.7115	78.697906	0.000598	5.980522	2.026256	-0.000239
 737	7.3232e+01	10.6746	78.475863	0.000558	5.575063	1.888882	-0.000223
 738	7.3332e+01	10.6280	78.253821	0.000558	5.575063	1.888882	-0.000223
 739	7.3431e+01	10.5927	78.056001	0.000497	4.966874	1.682823	-0.000199
 740	7.3531e+01	10.5494	77.813773	0.000608	6.081887	2.060599	-0.000243
 741	7.3630e+01	10.5141	77.628065	0.000466	4.662780	1.579793	-0.000187
 742	7.3730e+01	10.4724	77.357576	0.000679	6.791440	2.301002	-0.000272
 743	7.3829e+01	10.4307	77.139571	0.000547	5.473698	1.854539	-0.000219
 744	7.3928e+01	10.3890	76.909454	0.000578	5.777793	1.957569	-0.000231
 745	7.4028e+01	10.3489	76.671263	0.000598	5.980522	2.026256	-0.000239
 746	7.4127e+01	10.3088	76.449221	0.000558	5.575063	1.888882	-0.000223
 747	7.4227e+01	10.2703	76.215067	0.000588	5.879157	1.991912	-0.000235
 748	7.4326e+01	10.2350	75.997062	0.000547	5.473698	1.854539	-0.000219
 749	7.4426e+01	10.1885	75.758871	0.000598	5.980522	2.026256	-0.000239
 750	7.4525e+01	10.1548	75.532791	0.000568	5.676428	1.923226	-0.000227
 751	7.4625e+01	10.1051	75.343046	0.000476	4.764145	1.614136	-0.000191
 752	7.4725e+01	10.0762	75.068520	0.000689	6.892805	2.335346	-0.000276
 753	7.4824e+01	10.0345	74.882812	0.000466	4.662780	1.579793	-0.000187
 754	7.4924e+01	9.9831	74.640584	0.000608	6.081887	2.060599	-0.000243
 755	7.5023e+01	9.9543	74.418542	0.000558	5.575063	1.888882	-0.000223
 756	7.5123e+01	9.9126	74.176313	0.000608	6.081887	2.060599	-0.000243
 757	7.5222e+01	9.8724	73.978494	0.000497	4.966874	1.682823	-0.000199
 758	7.5322e+01	9.8275	73.720117	0.000649	6.487346	2.197972	-0.000260
 759	7.5421e+01	9.7970	73.542483	0.000446	4.460050	1.511106	-0.000179
 760	7.5520e+01	9.7473	73.263921	0.000699	6.994170	2.369689	-0.000280
 761	7.5620e+01	9.7088	73.066101	0.000497	4.966874	1.682823	-0.000199
 762	7.5719e+01	9.6831	72.815799	0.000628	6.284616	2.129286	-0.000252
 763	7.5819e+01	9.6479	72.601831	0.000537	5.372333	1.820196	-0.000215
 764	7.5918e+01	9.5997	72.395937	0.000517	5.169604	1.751509	-0.000207
 765	7.6018e+01	9.5564	72.137560	0.000649	6.487346	2.197972	-0.000260
 766	7.6118e+01	9.5179	71.935703	0.000507	5.068239	1.717166	-0.000203
 767	7.6217e+01	9.4826	71.705586	0.000578	5.777793	1.957569	-0.000231
 768	7.6317e+01	9.4393	71.443173	0.000659	6.588711	2.232316	-0.000264
 769	7.6416e+01	9.3976	71.225167	0.000547	5.473698	1.854539	-0.000219
 770	7.6516e+01	9.3495	71.003125	0.000558	5.575063	1.888882	-0.000223
 771	7.6615e+01	9.3110	70.764934	0.000598	5.980522	2.026256	-0.000239
 772	7.6715e+01	9.2725	70.555003	0.000527	5.270969	1.785853	-0.000211
 773	7.6814e+01	9.2420	70.284515	0.000679	6.791440	2.301002	-0.000272
 774	7.6913e+01	9.1858	70.082658	0.000507	5.068239	1.717166	-0.000203
 775	7.7013e+01	9.1634	69.824281	0.000649	6.487346	2.197972	-0.000260
 776	7.7112e+01	9.1201	69.618387	0.000517	5.169604	1.751509	-0.000207
 777	7.7212e+01	9.0687	69.355973	0.000659	6.588711	2.232316	-0.000264
 778	7.7311e+01	9.0350	69.154117	0.000507	5.068239	1.717166	-0.000203
 779	7.7411e+01	8.9949	68.895740	0.000649	6.487346	2.197972	-0.000260
 780	7.7510e+01	8.9612	68.681772	0.000537	5.372333	1.820196	-0.000215
 781	7.7610e+01	8.9115	68.443581	0.000598	5.980522	2.026256	-0.000239
 782	7.7710e+01	8.8778	68.209427	0.000588	5.879157	1.991912	-0.000235
 783	7.7809e+01	8.8393	67.971236	0.000598	5.980522	2.026256	-0.000239
 784	7.7909e+01	8.7976	67.733045	0.000598	5.980522	2.026256	-0.000239
 785	7.8008e+01	8.7575	67.519077	0.000537	5.372333	1.820196	-0.000215
 786	7.8108e+01	8.7174	67.313183	0.000517	5.169604	1.751509	-0.000207
 787	7.8207e+01	8.6837	67.038657	0.000689	6.892805	2.335346	-0.000276
 788	7.8306e+01	8.6340	66.808541	0.000578	5.777793	1.957569	-0.000231
 789	7.8406e+01	8.5955	66.574387	0.000588	5.879157	1.991912	-0.000235
 790	7.8505e+01	8.5586	66.311973	0.000659	6.588711	2.232316	-0.000264
 791	7.8605e+01	8.5137	66.130302	0.000456	4.561415	1.545449	-0.000183
 792	7.8704e+01	8.4800	65.920371	0.000527	5.270969	1.785853	-0.000211
 793	7.8804e+01	8.4318	65.649883	0.000679	6.791440	2.301002	-0.000272
 794	7.8903e+01	8.4030	65.427840	0.000558	5.575063	1.888882	-0.000223
 795	7.9003e+01	8.3613	65.189649	0.000598	5.980522	2.026256	-0.000239
 796	7.9103e+01	8.3228	64.959533	0.000578	5.777793	1.957569	-0.000231
 797	7.9202e+01	8.2714	64.729416	0.000578	5.777793	1.957569	-0.000231
 798	7.9302e+01	8.2377	64.471039	0.000649	6.487346	2.197972	-0.000260
 799	7.9401e+01	8.1976	64.228811	0.000608	6.081887	2.060599	-0.000243
 800	7.9501e+01	8.1639	63.994657	0.000588	5.879157	1.991912	-0.000235
 801	7.9600e+01	8.1222	63.744355	0.000628	6.284616	2.129286	-0.000252
 802	7.9700e+01	8.0821	63.518275	0.000568	5.676428	1.923226	-0.000227
 803	7.9799e+01	8.0356	63.272010	0.000618	6.183252	2.094942	-0.000248
 804	7.9898e+01	8.0003	63.058042	0.000537	5.372333	1.820196	-0.000215
 805	7.9998e+01	7.9602	62.835999	0.000558	5.575063	1.888882	-0.000223
 806	8.0097e+01	7.9201	62.553400	0.000710	7.095535	2.404032	-0.000284
 807	8.0197e+01	7.8784	62.351543	0.000507	5.068239	1.717166	-0.000203
 808	8.0296e+01	7.8383	62.129500	0.000558	5.575063	1.888882	-0.000223
 809	8.0396e+01	7.8046	61.911495	0.000547	5.473698	1.854539	-0.000219
 810	8.0496e+01	7.7581	61.653118	0.000649	6.487346	2.197972	-0.000260
 811	8.0595e+01	7.7115	61.402816	0.000628	6.284616	2.129286	-0.000252
 812	8.0695e+01	7.6795	61.152514	0.000628	6.284616	2.129286	-0.000252
 813	8.0794e+01	7.6442	60.946620	0.000517	5.169604	1.751509	-0.000207
 814	8.0894e+01	7.6009	60.684206	0.000659	6.588711	2.232316	-0.000264
 815	8.0993e+01	7.5624	60.446015	0.000598	5.980522	2.026256	-0.000239
 816	8.1093e+01	7.5126	60.223972	0.000558	5.575063	1.888882	-0.000223
 817	8.1192e+01	7.4741	59.969633	0.000639	6.385981	2.163629	-0.000256
 818	8.1291e+01	7.4468	59.747590	0.000558	5.575063	1.888882	-0.000223
 819	8.1391e+01	7.4083	59.501325	0.000618	6.183252	2.094942	-0.000248
 820	8.1490e+01	7.3602	59.259097	0.000608	6.081887	2.060599	-0.000243
 821	8.1590e+01	7.3217	59.053203	0.000517	5.169604	1.751509	-0.000207
 822	8.1689e+01	7.2768	58.782715	0.000679	6.791440	2.301002	-0.000272
 823	8.1789e+01	7.2447	58.564710	0.000547	5.473698	1.854539	-0.000219
 824	8.1888e+01	7.1998	58.290184	0.000689	6.892805	2.335346	-0.000276
 825	8.1988e+01	7.1693	58.076216	0.000537	5.372333	1.820196	-0.000215
 826	8.2088e+01	7.1244	57.833988	0.000608	6.081887	2.060599	-0.000243
 827	8.2187e+01	7.0859	57.563500	0.000679	6.791440	2.301002	-0.000272
 828	8.2287e+01	7.0458	57.357606	0.000517	5.169604	1.751509	-0.000207
 829	8.2386e+01	7.0041	57.131526	0.000568	5.676428	1.923226	-0.000227
 830	8.2486e+01	6.9592	56.877187	0.000639	6.385981	2.163629	-0.000256
 831	8.2585e+01	6.9271	56.647070	0.000578	5.777793	1.957569	-0.000231
 832	8.2684e+01	6.8806	56.388693	0.000649	6.487346	2.197972	-0.000260
 833	8.2784e+01	6.8388	56.146465	0.000608	6.081887	2.060599	-0.000243
 834	8.2883e+01	6.8036	55.908274	0.000598	5.980522	2.026256	-0.000239
 835	8.2983e+01	6.7602	55.662009	0.000618	6.183252	2.094942	-0.000248
 836	8.3082e+01	6.7233	55.423818	0.000598	5.980522	2.026256	-0.000239
 837	8.3182e+01	6.6864	55.189664	0.000588	5.879157	1.991912	-0.000235
 838	8.3281e+01	6.6447	54.951473	0.000598	5.980522	2.026256	-0.000239
 839	8.3381e+01	6.5998	54.685022	0.000669	6.690076	2.266659	-0.000268
 840	8.3481e+01	6.5661	54.454905	0.000578	5.777793	1.957569	-0.000231
 841	8.3580e+01	6.5260	54.228826	0.000568	5.676428	1.923226	-0.000227
 842	8.3680e+01	6.4827	53.990635	0.000598	5.980522	2.026256	-0.000239
 843	8.3779e+01	6.4410	53.740332	0.000628	6.284616	2.129286	-0.000252
 844	8.3879e+01	6.4153	53.506179	0.000588	5.879157	1.991912	-0.000235
 845	8.3978e+01	6.3720	53.231653	0.000689	6.892805	2.335346	-0.000276
 846	8.4078e+01	6.3223	52.973277	0.000649	6.487346	2.197972	-0.000260
 847	8.4177e+01	6.2838	52.771420	0.000507	5.068239	1.717166	-0.000203
 848	8.4276e+01	6.2549	52.509006	0.000659	6.588711	2.232316	-0.000264
 849	8.4376e+01	6.2068	52.254666	0.000639	6.385981	2.163629	-0.000256
 850	8.4475e+01	6.1619	52.012438	0.000608	6.081887	2.060599	-0.000243
 851	8.4575e+01	6.1282	51.778284	0.000588	5.879157	1.991912	-0.000235
 852	8.4674e+01	6.0833	51.523945	0.000639	6.385981	2.163629	-0.000256
 853	8.4774e+01	6.0464	51.261531	0.000659	6.588711	2.232316	-0.000264
 854	8.4874e+01	6.0111	51.055637	0.000517	5.169604	1.751509	-0.000207
 855	8.4973e+01	5.9613	50.813409	0.000608	6.081887	2.060599	-0.000243
 856	8.5073e+01	5.9308	50.550995	0.000659	6.588711	2.232316	-0.000264
 857	8.5172e+01	5.8988	50.312804	0.000598	5.980522	2.026256	-0.000239
 858	8.5272e+01	5.8490	50.050390	0.000659	6.588711	2.232316	-0.000264
 859	8.5371e+01	5.8057	49.836422	0.000537	5.372333	1.820196	-0.000215
 860	8.5471e+01	5.7736	49.574008	0.000659	6.588711	2.232316	-0.000264
 861	8.5570e+01	5.7303	49.364077	0.000527	5.270969	1.785853	-0.000211
 862	8.5669e+01	5.6854	49.057255	0.000770	7.703723	2.610092	-0.000308
 863	8.5769e+01	5.6613	48.810990	0.000618	6.183252	2.094942	-0.000248
 864	8.5868e+01	5.6052	48.556650	0.000639	6.385981	2.163629	-0.000256
 865	8.5968e+01	5.5747	48.354793	0.000507	5.068239	1.717166	-0.000203
 866	8.6067e+01	5.5250	48.116602	0.000598	5.980522	2.026256	-0.000239
 867	8.6167e+01	5.4929	47.821891	0.000740	7.399629	2.507062	-0.000296
 868	8.6266e+01	5.4448	47.571589	0.000628	6.284616	2.129286	-0.000252
 869	8.6366e+01	5.4127	47.353584	0.000547	5.473698	1.854539	-0.000219
 870	8.6466e+01	5.3678	47.095207	0.000649	6.487346	2.197972	-0.000260
 871	8.6565e+01	5.3325	46.873164	0.000558	5.575063	1.888882	-0.000223
 872	8.6665e+01	5.2924	46.614788	0.000649	6.487346	2.197972	-0.000260
 873	8.6764e+01	5.2490	46.376597	0.000598	5.980522	2.026256	-0.000239
 874	8.6864e+01	5.2089	46.102072	0.000689	6.892805	2.335346	-0.000276
 875	8.6963e+01	5.1737	45.839658	0.000659	6.588711	2.232316	-0.000264
 876	8.7063e+01	5.1335	45.613578	0.000568	5.676428	1.923226	-0.000227
 877	8.7162e+01	5.0966	45.371350	0.000608	6.081887	2.060599	-0.000243
 878	8.7261e+01	5.0533	45.080676	0.000730	7.298264	2.472719	-0.000292
 879	8.7361e+01	5.0132	44.899005	0.000456	4.561415	1.545449	-0.000183
 880	8.7460e+01	4.9683	44.636591	0.000659	6.588711	2.232316	-0.000264
 881	8.7560e+01	4.9266	44.349955	0.000720	7.196899	2.438376	-0.000288
 882	8.7659e+01	4.8961	44.119838	0.000578	5.777793	1.957569	-0.000231
 883	8.7759e+01	4.8528	43.861461	0.000649	6.487346	2.197972	-0.000260
 884	8.7859e+01	4.8111	43.623270	0.000598	5.980522	2.026256	-0.000239
 885	8.7958e+01	4.7790	43.389116	0.000588	5.879157	1.991912	-0.000235
 886	8.8058e+01	4.7229	43.106517	0.000710	7.095535	2.404032	-0.000284
 887	8.8157e+01	4.6940	42.840066	0.000669	6.690076	2.266659	-0.000268
 888	8.8257e+01	4.6507	42.630135	0.000527	5.270969	1.785853	-0.000211
 889	8.8356e+01	4.5961	42.379832	0.000628	6.284616	2.129286	-0.000252
 890	8.8456e+01	4.5833	42.113381	0.000669	6.690076	2.266659	-0.000268
 891	8.8555e+01	4.5352	41.867116	0.000618	6.183252	2.094942	-0.000248
 892	8.8654e+01	4.4951	41.624888	0.000608	6.081887	2.060599	-0.000243
 893	8.8754e+01	4.4485	41.362474	0.000659	6.588711	2.232316	-0.000264
 894	8.8853e+01	4.4100	41.104098	0.000649	6.487346	2.197972	-0.000260
 895	8.8953e+01	4.3731	40.873981	0.000578	5.777793	1.957569	-0.000231
 896	8.9052e+01	4.3378	40.595418	0.000699	6.994170	2.369689	-0.000280
 897	8.9152e+01	4.2897	40.328967	0.000669	6.690076	2.266659	-0.000268
 898	8.9251e+01	4.2608	40.078665	0.000628	6.284616	2.129286	-0.000252
 899	8.9351e+01	4.2239	39.848548	0.000578	5.777793	1.957569	-0.000231
 900	8.9451e+01	4.1758	39.594209	0.000639	6.385981	2.163629	-0.000256
 901	8.9550e+01	4.1357	39.339869	0.000639	6.385981	2.163629	-0.000256
 902	8.9650e+01	4.0988	39.093604	0.000618	6.183252	2.094942	-0.000248
 903	8.9749e+01	4.0523	38.806967	0.000720	7.196899	2.438376	-0.000288
 904	8.9849e+01	4.0154	38.564739	0.000608	6.081887	2.060599	-0.000243
 905	8.9948e+01	3.9769	38.350771	0.000537	5.372333	1.820196	-0.000215
 906	9.0047e+01	3.9288	38.084320	0.000669	6.690076	2.266659	-0.000268
 907	9.0147e+01	3.8838	37.797683	0.000720	7.196899	2.438376	-0.000288
 908	9.0246e+01	3.8598	37.567567	0.000578	5.777793	1.957569	-0.000231
 909	9.0346e+01	3.8133	37.329376	0.000598	5.980522	2.026256	-0.000239
 910	9.0445e+01	3.7828	37.066962	0.000659	6.588711	2.232316	-0.000264
 911	9.0545e+01	3.7395	36.796474	0.000679	6.791440	2.301002	-0.000272
 912	9.0644e+01	3.6994	36.525986	0.000679	6.791440	2.301002	-0.000272
 913	9.0744e+01	3.6577	36.360463	0.000416	4.155956	1.408076	-0.000166
 914	9.0844e+01	3.6208	36.045566	0.000791	7.906453	2.678779	-0.000316
 915	9.0943e+01	3.5758	35.791227	0.000639	6.385981	2.163629	-0.000256
 916	9.1043e+01	3.5277	35.528813	0.000659	6.588711	2.232316	-0.000264
 917	9.1142e+01	3.5004	35.274474	0.000639	6.385981	2.163629	-0.000256
 918	9.1242e+01	3.4555	35.012060	0.000659	6.588711	2.232316	-0.000264
 919	9.1341e+01	3.4266	34.781943	0.000578	5.777793	1.957569	-0.000231
 920	9.1441e+01	3.3689	34.507418	0.000689	6.892805	2.335346	-0.000276
 921	9.1540e+01	3.3336	34.228855	0.000699	6.994170	2.369689	-0.000280
 922	9.1639e+01	3.2951	34.039110	0.000476	4.764145	1.614136	-0.000191
 923	9.1739e+01	3.2630	33.744399	0.000740	7.399629	2.507062	-0.000296
 924	9.1838e+01	3.2213	33.494097	0.000628	6.284616	2.129286	-0.000252
 925	9.1938e+01	3.1780	33.251869	0.000608	6.081887	2.060599	-0.000243
 926	9.2037e+01	3.1523	32.997529	0.000639	6.385981	2.163629	-0.000256
 927	9.2137e+01	3.0946	32.739152	0.000649	6.487346	2.197972	-0.000260
 928	9.2237e+01	3.0545	32.492887	0.000618	6.183252	2.094942	-0.000248
 929	9.2336e+01	3.0176	32.222399	0.000679	6.791440	2.301002	-0.000272
 930	9.2436e+01	2.9823	31.959985	0.000659	6.588711	2.232316	-0.000264
 931	9.2535e+01	2.9374	31.737943	0.000558	5.575063	1.888882	-0.000223
 932	9.2635e+01	2.8860	31.451306	0.000720	7.196899	2.438376	-0.000288
 933	9.2734e+01	2.8636	31.205041	0.000618	6.183252	2.094942	-0.000248
 934	9.2834e+01	2.8154	30.946664	0.000649	6.487346	2.197972	-0.000260
 935	9.2933e+01	2.7753	30.704436	0.000608	6.081887	2.060599	-0.000243
 936	9.3032e+01	2.7545	30.413762	0.000730	7.298264	2.472719	-0.000292
 937	9.3132e+01	2.7015	30.183645	0.000578	5.777793	1.957569	-0.000231
 938	9.3231e+01	2.6694	29.945454	0.000598	5.980522	2.026256	-0.000239
 939	9.3331e+01	2.6149	29.670929	0.000689	6.892805	2.335346	-0.000276
 940	9.3430e+01	2.5892	29.424664	0.000618	6.183252	2.094942	-0.000248
 941	9.3530e+01	2.5443	29.174361	0.000628	6.284616	2.129286	-0.000252
 942	9.3629e+01	2.5074	28.875613	0.000750	7.500994	2.541405	-0.000300
 943	9.3729e+01	2.4625	28.597051	0.000699	6.994170	2.369689	-0.000280
 944	9.3829e+01	2.4272	28.358860	0.000598	5.980522	2.026256	-0.000239
 945	9.3928e+01	2.3887	28.120669	0.000598	5.980522	2.026256	-0.000239
 946	9.4028e+01	2.3406	27.882478	0.000598	5.980522	2.026256	-0.000239
 947	9.4127e+01	2.3053	27.607953	0.000689	6.892805	2.335346	-0.000276
 948	9.4227e+01	2.2620	27.317279	0.000730	7.298264	2.472719	-0.000292
 949	9.4326e+01	2.2315	27.103311	0.000537	5.372333	1.820196	-0.000215
 950	9.4425e+01	2.1850	26.836860	0.000669	6.690076	2.266659	-0.000268
 951	9.4525e+01	2.1400	26.574446	0.000659	6.588711	2.232316	-0.000264
 952	9.4624e+01	2.0999	26.279735	0.000740	7.399629	2.507062	-0.000296
 953	9.4724e+01	2.0727	26.021358	0.000649	6.487346	2.197972	-0.000260
 954	9.4823e+01	2.0294	25.783167	0.000598	5.980522	2.026256	-0.000239
 955	9.4923e+01	1.9860	25.532865	0.000628	6.284616	2.129286	-0.000252
 956	9.5022e+01	1.9411	25.266414	0.000669	6.690076	2.266659	-0.000268
 957	9.5122e+01	1.9026	25.028223	0.000598	5.980522	2.026256	-0.000239
 958	9.5222e+01	1.8705	24.717364	0.000781	7.805088	2.644435	-0.000312
 959	9.5321e+01	1.8272	24.507432	0.000527	5.270969	1.785853	-0.000211
 960	9.5421e+01	1.7839	24.208684	0.000750	7.500994	2.541405	-0.000300
 961	9.5520e+01	1.7486	23.986642	0.000558	5.575063	1.888882	-0.000223
 962	9.5620e+01	1.6989	23.724228	0.000659	6.588711	2.232316	-0.000264
 963	9.5719e+01	1.6588	23.482000	0.000608	6.081887	2.060599	-0.000243
 964	9.5819e+01	1.6219	23.175178	0.000770	7.703723	2.610092	-0.000308
 965	9.5918e+01	1.5882	22.920838	0.000639	6.385981	2.163629	-0.000256
 966	9.6017e+01	1.5513	22.690721	0.000578	5.777793	1.957569	-0.000231
 967	9.6117e+01	1.4951	22.432345	0.000649	6.487346	2.197972	-0.000260
 968	9.6216e+01	1.4695	22.169931	0.000659	6.588711	2.232316	-0.000264
 969	9.6316e+01	1.4278	21.891369	0.000699	6.994170	2.369689	-0.000280
 970	9.6415e+01	1.3877	21.612806	0.000699	6.994170	2.369689	-0.000280
 971	9.6515e+01	1.3395	21.346355	0.000669	6.690076	2.266659	-0.000268
 972	9.6615e+01	1.3123	21.132387	0.000537	5.372333	1.820196	-0.000215
 973	9.6714e+01	1.2738	20.837676	0.000740	7.399629	2.507062	-0.000296
 974	9.6814e+01	1.2272	20.587374	0.000628	6.284616	2.129286	-0.000252
 975	9.6913e+01	1.1855	20.357257	0.000578	5.777793	1.957569	-0.000231
 976	9.7013e+01	1.1502	20.066583	0.000730	7.298264	2.472719	-0.000292
 977	9.7112e+01	1.1053	19.828392	0.000598	5.980522	2.026256	-0.000239
 978	9.7212e+01	1.0652	19.565978	0.000659	6.588711	2.232316	-0.000264
 979	9.7311e+01	1.0299	19.323750	0.000608	6.081887	2.060599	-0.000243
 980	9.7410e+01	0.9850	19.029039	0.000740	7.399629	2.507062	-0.000296
 981	9.7510e+01	0.9401	18.786811	0.000608	6.081887	2.060599	-0.000243
 982	9.7609e+01	0.9096	18.508249	0.000699	6.994170	2.369689	-0.000280
 983	9.7709e+01	0.8727	18.237761	0.000679	6.791440	2.301002	-0.000272
 984	9.7808e+01	0.8246	18.003607	0.000588	5.879157	1.991912	-0.000235
 985	9.7908e+01	0.7845	17.733119	0.000679	6.791440	2.301002	-0.000272
 986	9.8007e+01	0.7412	17.446482	0.000720	7.196899	2.438376	-0.000288
 987	9.8107e+01	0.7027	17.212328	0.000588	5.879157	1.991912	-0.000235
 988	9.8207e+01	0.6722	16.945877	0.000669	6.690076	2.266659	-0.000268
 989	9.8306e+01	0.6257	16.679426	0.000669	6.690076	2.266659	-0.000268
 990	9.8406e+01	0.5855	16.421050	0.000649	6.487346	2.197972	-0.000260
 991	9.8505e+01	0.5470	16.158636	0.000659	6.588711	2.232316	-0.000264
 992	9.8605e+01	0.5166	15.936593	0.000558	5.575063	1.888882	-0.000223
 993	9.8704e+01	0.4716	15.658031	0.000699	6.994170	2.369689	-0.000280
 994	9.8803e+01	0.4347	15.391580	0.000669	6.690076	2.266659	-0.000268
 995	9.8903e+01	0.3882	15.108980	0.000710	7.095535	2.404032	-0.000284
 996	9.9002e+01	0.3481	14.850604	0.000649	6.487346	2.197972	-0.000260
 997	9.9102e+01	0.2936	14.596264	0.000639	6.385981	2.163629	-0.000256
 998	9.9201e+01	0.2695	14.329813	0.000669	6.690076	2.266659	-0.000268
 999	9.9301e+01	0.2310	14.119882	0.000527	5.270969	1.785853	-0.000211
1000	9.9400e+01	0.1893	13.800949	0.000801	8.007818	2.713122	-0.000321
1001	9.9500e+01	0.1444	13.578906	0.000558	5.575063	1.888882	-0.000223
1002	9.9600e+01	0.1059	13.280158	0.000750	7.500994	2.541405	-0.000300
1003	9.9699e+01	0.0658	13.013707	0.000669	6.690076	2.266659	-0.000268
1004	9.9799e+01	0.0305	12.731108	0.000710	7.095535	2.404032	-0.000284
1005	9.9898e+01	-0.0064	12.545399	0.000466	4.662780	1.579793	-0.000187
1006	9.9998e+01	-0.0433	12.274911	0.000679	6.791440	2.301002	-0.000272
1007	1.0010e+02	-0.0802	12.016535	0.000649	6.487346	2.197972	-0.000260
1008	1.0020e+02	-0.1267	11.786418	0.000578	5.777793	1.957569	-0.000231
1009	1.0030e+02	-0.1684	11.511893	0.000689	6.892805	2.335346	-0.000276
1010	1.0040e+02	-0.2053	11.261590	0.000628	6.284616	2.129286	-0.000252
1011	1.0050e+02	-0.2438	10.978991	0.000710	7.095535	2.404032	-0.000284
1012	1.0059e+02	-0.2759	10.728688	0.000628	6.284616	2.129286	-0.000252
1013	1.0069e+02	-0.3273	10.502609	0.000568	5.676428	1.923226	-0.000227
1014	1.0079e+02	-0.3593	10.224046	0.000699	6.994170	2.369689	-0.000280
1015	1.0089e+02	-0.3995	9.965670	0.000649	6.487346	2.197972	-0.000260
1016	1.0099e+02	-0.4444	9.707293	0.000649	6.487346	2.197972	-0.000260
1017	1.0109e+02	-0.4797	9.428731	0.000699	6.994170	2.369689	-0.000280
1018	1.0119e+02	-0.5182	9.170354	0.000649	6.487346	2.197972	-0.000260
1019	1.0129e+02	-0.5583	8.863532	0.000770	7.703723	2.610092	-0.000308
1020	1.0139e+02	-0.5936	8.617266	0.000618	6.183252	2.094942	-0.000248
1021	1.0149e+02	-0.6465	8.391187	0.000568	5.676428	1.923226	-0.000227
1022	1.0159e+02	-0.6786	8.084364	0.000770	7.703723	2.610092	-0.000308
1023	1.0169e+02	-0.7139	7.834062	0.000628	6.284616	2.129286	-0.000252
1024	1.0179e+02	-0.7588	7.535314	0.000750	7.500994	2.541405	-0.000300
1025	1.0189e+02	-0.8021	7.325383	0.000527	5.270969	1.785853	-0.000211
1026	1.0199e+02	-0.8294	7.026635	0.000750	7.500994	2.541405	-0.000300
1027	1.0209e+02	-0.8743	6.780369	0.000618	6.183252	2.094942	-0.000248
1028	1.0219e+02	-0.9224	6.542178	0.000598	5.980522	2.026256	-0.000239
1029	1.0229e+02	-0.9738	6.259579	0.000710	7.095535	2.404032	-0.000284
1030	1.0239e+02	-1.0026	6.005239	0.000639	6.385981	2.163629	-0.000256
1031	1.0248e+02	-1.0428	5.698417	0.000770	7.703723	2.610092	-0.000308
1032	1.0258e+02	-1.0652	5.508672	0.000476	4.764145	1.614136	-0.000191
1033	1.0268e+02	-1.1262	5.234146	0.000689	6.892805	2.335346	-0.000276
1034	1.0278e+02	-1.1663	4.955584	0.000699	6.994170	2.369689	-0.000280
1035	1.0288e+02	-1.2016	4.693170	0.000659	6.588711	2.232316	-0.000264
1036	1.0298e+02	-1.2385	4.418645	0.000689	6.892805	2.335346	-0.000276
1037	1.0308e+02	-1.2706	4.176417	0.000608	6.081887	2.060599	-0.000243
1038	1.0318e+02	-1.3203	3.889780	0.000720	7.196899	2.438376	-0.000288
1039	1.0328e+02	-1.3572	3.635441	0.000639	6.385981	2.163629	-0.000256
1040	1.0338e+02	-1.3989	3.397250	0.000598	5.980522	2.026256	-0.000239
1041	1.0348e+02	-1.4470	3.098502	0.000750	7.500994	2.541405	-0.000300
1042	1.0358e+02	-1.4759	2.856274	0.000608	6.081887	2.060599	-0.000243
1043	1.0368e+02	-1.5192	2.593860	0.000659	6.588711	2.232316	-0.000264
1044	1.0378e+02	-1.5545	2.283000	0.000781	7.805088	2.644435	-0.000312
1045	1.0388e+02	-1.6026	2.069032	0.000537	5.372333	1.820196	-0.000215
1046	1.0398e+02	-1.6395	1.826804	0.000608	6.081887	2.060599	-0.000243
1047	1.0408e+02	-1.6828	1.548242	0.000699	6.994170	2.369689	-0.000280
1048	1.0418e+02	-1.7085	1.285828	0.000659	6.588711	2.232316	-0.000264
1049	1.0428e+02	-1.7518	1.011303	0.000689	6.892805	2.335346	-0.000276
1050	1.0438e+02	-1.7951	0.744852	0.000669	6.690076	2.266659	-0.000268
1051	1.0447e+02	-1.8336	0.466289	0.000699	6.994170	2.369689	-0.000280
1052	1.0457e+02	-1.8673	0.228098	0.000598	5.980522	2.026256	-0.000239
1053	1.0467e+02	-1.9187	-0.042390	0.000679	6.791440	2.301002	-0.000272
1054	1.0477e+02	-1.9540	-0.268470	0.000568	5.676428	1.923226	-0.000227
1055	1.0487e+02	-1.9925	-0.547032	0.000699	6.994170	2.369689	-0.000280
1056	1.0497e+02	-2.0374	-0.825594	0.000699	6.994170	2.369689	-0.000280
1057	1.0507e+02	-2.0711	-1.071860	0.000618	6.183252	2.094942	-0.000248
1058	1.0517e+02	-2.1031	-1.338310	0.000669	6.690076	2.266659	-0.000268
1059	1.0527e+02	-2.1545	-1.620910	0.000710	7.095535	2.404032	-0.000284
1060	1.0537e+02	-2.1978	-1.903510	0.000710	7.095535	2.404032	-0.000284
1061	1.0547e+02	-2.2315	-2.153812	0.000628	6.284616	2.129286	-0.000252
1062	1.0557e+02	-2.2748	-2.404114	0.000628	6.284616	2.129286	-0.000252
1063	1.0567e+02	-2.3213	-2.682677	0.000699	6.994170	2.369689	-0.000280
1064	1.0577e+02	-2.3566	-2.937016	0.000639	6.385981	2.163629	-0.000256
1065	1.0587e+02	-2.4015	-3.195393	0.000649	6.487346	2.197972	-0.000260
1066	1.0597e+02	-2.4352	-3.429547	0.000588	5.879157	1.991912	-0.000235
1067	1.0607e+02	-2.4785	-3.683886	0.000639	6.385981	2.163629	-0.000256
1068	1.0617e+02	-2.5219	-3.954374	0.000679	6.791440	2.301002	-0.000272
1069	1.0627e+02	-2.5588	-4.212751	0.000649	6.487346	2.197972	-0.000260
1070	1.0637e+02	-2.5908	-4.523611	0.000781	7.805088	2.644435	-0.000312
1071	1.0647e+02	-2.6342	-4.781987	0.000649	6.487346	2.197972	-0.000260
1072	1.0656e+02	-2.6775	-5.044401	0.000659	6.588711	2.232316	-0.000264
1073	1.0666e+02	-2.6999	-5.246258	0.000507	5.068239	1.717166	-0.000203
1074	1.0676e+02	-2.7497	-5.524820	0.000699	6.994170	2.369689	-0.000280
1075	1.0686e+02	-2.7946	-5.767048	0.000608	6.081887	2.060599	-0.000243
1076	1.0696e+02	-2.8315	-6.041574	0.000689	6.892805	2.335346	-0.000276
1077	1.0706e+02	-2.8668	-6.332247	0.000730	7.298264	2.472719	-0.000292
1078	1.0716e+02	-2.9197	-6.570438	0.000598	5.980522	2.026256	-0.000239
1079	1.0726e+02	-2.9486	-6.832852	0.000659	6.588711	2.232316	-0.000264
1080	1.0736e+02	-2.9887	-7.087192	0.000639	6.385981	2.163629	-0.000256
1081	1.0746e+02	-3.0320	-7.394014	0.000770	7.703723	2.610092	-0.000308
1082	1.0756e+02	-3.0689	-7.587797	0.000487	4.865509	1.648479	-0.000195
1083	1.0766e+02	-3.1138	-7.870396	0.000710	7.095535	2.404032	-0.000284
1084	1.0776e+02	-3.1555	-8.140884	0.000679	6.791440	2.301002	-0.000272
1085	1.0786e+02	-3.1940	-8.371001	0.000578	5.777793	1.957569	-0.000231
1086	1.0796e+02	-3.2325	-8.653600	0.000710	7.095535	2.404032	-0.000284
1087	1.0806e+02	-3.2726	-8.903903	0.000628	6.284616	2.129286	-0.000252
1088	1.0816e+02	-3.3111	-9.178428	0.000689	6.892805	2.335346	-0.000276
1089	1.0826e+02	-3.3416	-9.424693	0.000618	6.183252	2.094942	-0.000248
1090	1.0836e+02	-3.3897	-9.674996	0.000628	6.284616	2.129286	-0.000252
1091	1.0845e+02	-3.4363	-9.925298	0.000628	6.284616	2.129286	-0.000252
1092	1.0855e+02	-3.4716	-10.183675	0.000649	6.487346	2.197972	-0.000260
1093	1.0865e+02	-3.5004	-10.498571	0.000791	7.906453	2.678779	-0.000316
1094	1.0875e+02	-3.5438	-10.720614	0.000558	5.575063	1.888882	-0.000223
1095	1.0885e+02	-3.5935	-10.974954	0.000639	6.385981	2.163629	-0.000256
1096	1.0895e+02	-3.6224	-11.241404	0.000669	6.690076	2.266659	-0.000268
1097	1.0905e+02	-3.6641	-11.483633	0.000608	6.081887	2.060599	-0.000243
1098	1.0915e+02	-3.7122	-11.762195	0.000699	6.994170	2.369689	-0.000280
1099	1.0925e+02	-3.7427	-12.004423	0.000608	6.081887	2.060599	-0.000243
1100	1.0935e+02	-3.7924	-12.299134	0.000740	7.399629	2.507062	-0.000296
1101	1.0945e+02	-3.8341	-12.545399	0.000618	6.183252	2.094942	-0.000248
1102	1.0955e+02	-3.8630	-12.771479	0.000568	5.676428	1.923226	-0.000227
1103	1.0965e+02	-3.9127	-13.033893	0.000659	6.588711	2.232316	-0.000264
1104	1.0975e+02	-3.9432	-13.284195	0.000628	6.284616	2.129286	-0.000252
1105	1.0985e+02	-3.9817	-13.538535	0.000639	6.385981	2.163629	-0.000256
1106	1.0995e+02	-4.0362	-13.821134	0.000710	7.095535	2.404032	-0.000284
1107	1.1005e+02	-4.0731	-14.079511	0.000649	6.487346	2.197972	-0.000260
1108	1.1015e+02	-4.1036	-14.309628	0.000578	5.777793	1.957569	-0.000231
1109	1.1025e+02	-4.1389	-14.563967	0.000639	6.385981	2.163629	-0.000256
1110	1.1035e+02	-4.1951	-14.814270	0.000628	6.284616	2.129286	-0.000252
1111	1.1044e+02	-4.2223	-15.133203	0.000801	8.007818	2.713122	-0.000321
1112	1.1054e+02	-4.2657	-15.379469	0.000618	6.183252	2.094942	-0.000248
1113	1.1064e+02	-4.3042	-15.625734	0.000618	6.183252	2.094942	-0.000248
1114	1.1074e+02	-4.3555	-15.835665	0.000527	5.270969	1.785853	-0.000211
1115	1.1084e+02	-4.3828	-16.134413	0.000750	7.500994	2.541405	-0.000300
1116	1.1094e+02	-4.4309	-16.388753	0.000639	6.385981	2.163629	-0.000256
1117	1.1104e+02	-4.4694	-16.655203	0.000669	6.690076	2.266659	-0.000268
1118	1.1114e+02	-4.5015	-16.897432	0.000608	6.081887	2.060599	-0.000243
1119	1.1124e+02	-4.5432	-17.159845	0.000659	6.588711	2.232316	-0.000264
1120	1.1134e+02	-4.5865	-17.414185	0.000639	6.385981	2.163629	-0.000256
1121	1.1144e+02	-4.6330	-17.668525	0.000639	6.385981	2.163629	-0.000256
1122	1.1154e+02	-4.6795	-17.930938	0.000659	6.588711	2.232316	-0.000264
1123	1.1164e+02	-4.7036	-18.201426	0.000679	6.791440	2.301002	-0.000272
1124	1.1174e+02	-4.7437	-18.435580	0.000588	5.879157	1.991912	-0.000235
1125	1.1184e+02	-4.7822	-18.673771	0.000598	5.980522	2.026256	-0.000239
1126	1.1194e+02	-4.8223	-18.932148	0.000649	6.487346	2.197972	-0.000260
1127	1.1204e+02	-4.8672	-19.178413	0.000618	6.183252	2.094942	-0.000248
1128	1.1214e+02	-4.8961	-19.481199	0.000760	7.602359	2.575749	-0.000304
1129	1.1224e+02	-4.9475	-19.707278	0.000568	5.676428	1.923226	-0.000227
1130	1.1234e+02	-4.9860	-19.977766	0.000679	6.791440	2.301002	-0.000272
1131	1.1244e+02	-5.0293	-20.228069	0.000628	6.284616	2.129286	-0.000252
1132	1.1253e+02	-5.0630	-20.454148	0.000568	5.676428	1.923226	-0.000227
1133	1.1263e+02	-5.0999	-20.728673	0.000689	6.892805	2.335346	-0.000276
1134	1.1273e+02	-5.1368	-20.962827	0.000588	5.879157	1.991912	-0.000235
1135	1.1283e+02	-5.1801	-21.245427	0.000710	7.095535	2.404032	-0.000284
1136	1.1293e+02	-5.2170	-21.471506	0.000568	5.676428	1.923226	-0.000227
1137	1.1303e+02	-5.2635	-21.737957	0.000669	6.690076	2.266659	-0.000268
1138	1.1313e+02	-5.3052	-21.984223	0.000618	6.183252	2.094942	-0.000248
1139	1.1323e+02	-5.3341	-22.234525	0.000628	6.284616	2.129286	-0.000252
1140	1.1333e+02	-5.3774	-22.533273	0.000750	7.500994	2.541405	-0.000300
1141	1.1343e+02	-5.4367	-22.771464	0.000598	5.980522	2.026256	-0.000239
1142	1.1353e+02	-5.4624	-23.009655	0.000598	5.980522	2.026256	-0.000239
1143	1.1363e+02	-5.5009	-23.292255	0.000710	7.095535	2.404032	-0.000284
1144	1.1373e+02	-5.5378	-23.490074	0.000497	4.966874	1.682823	-0.000199
1145	1.1383e+02	-5.5908	-23.748451	0.000649	6.487346	2.197972	-0.000260
1146	1.1393e+02	-5.6260	-23.994716	0.000618	6.183252	2.094942	-0.000248
1147	1.1403e+02	-5.6678	-24.273279	0.000699	6.994170	2.369689	-0.000280
1148	1.1413e+02	-5.6998	-24.519544	0.000618	6.183252	2.094942	-0.000248
1149	1.1423e+02	-5.7303	-24.757735	0.000598	5.980522	2.026256	-0.000239
1150	1.1433e+02	-5.7817	-24.999963	0.000608	6.081887	2.060599	-0.000243
1151	1.1442e+02	-5.8218	-25.213931	0.000537	5.372333	1.820196	-0.000215
1152	1.1452e+02	-5.8571	-25.472308	0.000649	6.487346	2.197972	-0.000260
1153	1.1462e+02	-5.9068	-25.803353	0.000831	8.311912	2.816152	-0.000333
1154	1.1472e+02	-5.9389	-25.972913	0.000426	4.257321	1.442419	-0.000170
1155	1.1482e+02	-5.9806	-26.247438	0.000689	6.892805	2.335346	-0.000276
1156	1.1492e+02	-6.0207	-26.457369	0.000527	5.270969	1.785853	-0.000211
1157	1.1502e+02	-6.0640	-26.784377	0.000821	8.210547	2.781809	-0.000329
1158	1.1512e+02	-6.1009	-27.002382	0.000547	5.473698	1.854539	-0.000219
1159	1.1522e+02	-6.1394	-27.204239	0.000507	5.068239	1.717166	-0.000203
1160	1.1532e+02	-6.1747	-27.494913	0.000730	7.298264	2.472719	-0.000292
1161	1.1542e+02	-6.2276	-27.757327	0.000659	6.588711	2.232316	-0.000264
1162	1.1552e+02	-6.2549	-27.983406	0.000568	5.676428	1.923226	-0.000227
1163	1.1562e+02	-6.3046	-28.229672	0.000618	6.183252	2.094942	-0.000248
1164	1.1572e+02	-6.3351	-28.484011	0.000639	6.385981	2.163629	-0.000256
1165	1.1582e+02	-6.3768	-28.734314	0.000628	6.284616	2.129286	-0.000252
1166	1.1592e+02	-6.4137	-28.948282	0.000537	5.372333	1.820196	-0.000215
1167	1.1602e+02	-6.4635	-29.182436	0.000588	5.879157	1.991912	-0.000235
1168	1.1612e+02	-6.4907	-29.456961	0.000689	6.892805	2.335346	-0.000276
1169	1.1622e+02	-6.5389	-29.691115	0.000588	5.879157	1.991912	-0.000235
1170	1.1632e+02	-6.5758	-29.937380	0.000618	6.183252	2.094942	-0.000248
1171	1.1642e+02	-6.6078	-30.187682	0.000628	6.284616	2.129286	-0.000252
1172	1.1651e+02	-6.6544	-30.474319	0.000720	7.196899	2.438376	-0.000288
1173	1.1661e+02	-6.6864	-30.696362	0.000558	5.575063	1.888882	-0.000223
1174	1.1671e+02	-6.7314	-30.910330	0.000537	5.372333	1.820196	-0.000215
1175	1.1681e+02	-6.7763	-31.164669	0.000639	6.385981	2.163629	-0.000256
1176	1.1691e+02	-6.8196	-31.406897	0.000608	6.081887	2.060599	-0.000243
1177	1.1701e+02	-6.8453	-31.661237	0.000639	6.385981	2.163629	-0.000256
1178	1.1711e+02	-6.9046	-31.915577	0.000639	6.385981	2.163629	-0.000256
1179	1.1721e+02	-6.9335	-32.153768	0.000598	5.980522	2.026256	-0.000239
1180	1.1731e+02	-6.9800	-32.404070	0.000628	6.284616	2.129286	-0.000252
1181	1.1741e+02	-7.0201	-32.593815	0.000476	4.764145	1.614136	-0.000191
1182	1.1751e+02	-7.0666	-32.920823	0.000821	8.210547	2.781809	-0.000329
1183	1.1761e+02	-7.0939	-33.110569	0.000476	4.764145	1.614136	-0.000191
1184	1.1771e+02	-7.1388	-33.401243	0.000730	7.298264	2.472719	-0.000292
1185	1.1781e+02	-7.1565	-33.623285	0.000558	5.575063	1.888882	-0.000223
1186	1.1791e+02	-7.2110	-33.849365	0.000568	5.676428	1.923226	-0.000227
1187	1.1801e+02	-7.2624	-34.115816	0.000669	6.690076	2.266659	-0.000268
1188	1.1811e+02	-7.2977	-34.349969	0.000588	5.879157	1.991912	-0.000235
1189	1.1821e+02	-7.3394	-34.620458	0.000679	6.791440	2.301002	-0.000272
1190	1.1831e+02	-7.3666	-34.798091	0.000446	4.460050	1.511106	-0.000179
1191	1.1841e+02	-7.4212	-35.060505	0.000659	6.588711	2.232316	-0.000264
1192	1.1850e+02	-7.4581	-35.274474	0.000537	5.372333	1.820196	-0.000215
1193	1.1860e+02	-7.4902	-35.557073	0.000710	7.095535	2.404032	-0.000284
1194	1.1870e+02	-7.5303	-35.815450	0.000649	6.487346	2.197972	-0.000260
1195	1.1880e+02	-7.5752	-36.025381	0.000527	5.270969	1.785853	-0.000211
1196	1.1890e+02	-7.6041	-36.295869	0.000679	6.791440	2.301002	-0.000272
1197	1.1900e+02	-7.6522	-36.530023	0.000588	5.879157	1.991912	-0.000235
1198	1.1910e+02	-7.6955	-36.711694	0.000456	4.561415	1.545449	-0.000183
1199	1.1920e+02	-7.7404	-37.050813	0.000851	8.514642	2.884839	-0.000341
1200	1.1930e+02	-7.7645	-37.220373	0.000426	4.257321	1.442419	-0.000170
1201	1.1940e+02	-7.8126	-37.474712	0.000639	6.385981	2.163629	-0.000256
1202	1.1950e+02	-7.8511	-37.712903	0.000598	5.980522	2.026256	-0.000239
1203	1.1960e+02	-7.8976	-37.959169	0.000618	6.183252	2.094942	-0.000248
1204	1.1970e+02	-7.9281	-38.197360	0.000598	5.980522	2.026256	-0.000239
1205	1.1980e+02	-7.9666	-38.451699	0.000639	6.385981	2.163629	-0.000256
1206	1.1990e+02	-8.0164	-38.653556	0.000507	5.068239	1.717166	-0.000203
1207	1.2000e+02	-8.0500	-38.924044	0.000679	6.791440	2.301002	-0.000272
1208	1.2010e+02	-8.0853	-39.146087	0.000558	5.575063	1.888882	-0.000223
1209	1.2020e+02	-8.1254	-39.347943	0.000507	5.068239	1.717166	-0.000203
1210	1.2030e+02	-8.1639	-39.622469	0.000689	6.892805	2.335346	-0.000276
1211	1.2039e+02	-8.2169	-39.844511	0.000558	5.575063	1.888882	-0.000223
1212	1.2049e+02	-8.2458	-40.086739	0.000608	6.081887	2.060599	-0.000243
1213	1.2059e+02	-8.2891	-40.328967	0.000608	6.081887	2.060599	-0.000243
1214	1.2069e+02	-8.3340	-40.571196	0.000608	6.081887	2.060599	-0.000243
1215	1.2079e+02	-8.3613	-40.813424	0.000608	6.081887	2.060599	-0.000243
1216	1.2089e+02	-8.4078	-41.031429	0.000547	5.473698	1.854539	-0.000219
1217	1.2099e+02	-8.4511	-41.277694	0.000618	6.183252	2.094942	-0.000248
1218	1.2109e+02	-8.4880	-41.544145	0.000669	6.690076	2.266659	-0.000268
1219	1.2119e+02	-8.5297	-41.754076	0.000527	5.270969	1.785853	-0.000211
1220	1.2129e+02	-8.5682	-41.996305	0.000608	6.081887	2.060599	-0.000243
1221	1.2139e+02	-8.6083	-42.194124	0.000497	4.966874	1.682823	-0.000199
1222	1.2149e+02	-8.6420	-42.480761	0.000720	7.196899	2.438376	-0.000288
1223	1.2159e+02	-8.6869	-42.714915	0.000588	5.879157	1.991912	-0.000235
1224	1.2169e+02	-8.7222	-42.945031	0.000578	5.777793	1.957569	-0.000231
1225	1.2179e+02	-8.7655	-43.118628	0.000436	4.358686	1.476763	-0.000174
1226	1.2189e+02	-8.8072	-43.409302	0.000730	7.298264	2.472719	-0.000292
1227	1.2199e+02	-8.8425	-43.639419	0.000578	5.777793	1.957569	-0.000231
1228	1.2209e+02	-8.8891	-43.841276	0.000507	5.068239	1.717166	-0.000203
1229	1.2219e+02	-8.9276	-44.144061	0.000760	7.602359	2.575749	-0.000304
1230	1.2229e+02	-8.9677	-44.313620	0.000426	4.257321	1.442419	-0.000170
1231	1.2239e+02	-9.0062	-44.567960	0.000639	6.385981	2.163629	-0.000256
1232	1.2248e+02	-9.0463	-44.761742	0.000487	4.865509	1.648479	-0.000195
1233	1.2258e+02	-9.0800	-45.020119	0.000649	6.487346	2.197972	-0.000260
1234	1.2268e+02	-9.1185	-45.278496	0.000649	6.487346	2.197972	-0.000260
1235	1.2278e+02	-9.1618	-45.504575	0.000568	5.676428	1.923226	-0.000227
1236	1.2288e+02	-9.1923	-45.758915	0.000639	6.385981	2.163629	-0.000256
1237	1.2298e+02	-9.2500	-45.972883	0.000537	5.372333	1.820196	-0.000215
1238	1.2308e+02	-9.2821	-46.215111	0.000608	6.081887	2.060599	-0.000243
1239	1.2318e+02	-9.3270	-46.437154	0.000558	5.575063	1.888882	-0.000223
1240	1.2328e+02	-9.3671	-46.647085	0.000527	5.270969	1.785853	-0.000211
1241	1.2338e+02	-9.4040	-46.889313	0.000608	6.081887	2.060599	-0.000243
1242	1.2348e+02	-9.4553	-47.111355	0.000558	5.575063	1.888882	-0.000223
1243	1.2358e+02	-9.4842	-47.337435	0.000568	5.676428	1.923226	-0.000227
1244	1.2368e+02	-9.5259	-47.571589	0.000588	5.879157	1.991912	-0.000235
1245	1.2378e+02	-9.5628	-47.870337	0.000750	7.500994	2.541405	-0.000300
1246	1.2388e+02	-9.5997	-48.052008	0.000456	4.561415	1.545449	-0.000183
1247	1.2398e+02	-9.6495	-48.278088	0.000568	5.676428	1.923226	-0.000227
1248	1.2408e+02	-9.6880	-48.479945	0.000507	5.068239	1.717166	-0.000203
1249	1.2418e+02	-9.7152	-48.730247	0.000628	6.284616	2.129286	-0.000252
1250	1.2428e+02	-9.7698	-48.956327	0.000568	5.676428	1.923226	-0.000227
1251	1.2438e+02	-9.8003	-49.194518	0.000598	5.980522	2.026256	-0.000239
1252	1.2447e+02	-9.8452	-49.404449	0.000527	5.270969	1.785853	-0.000211
1253	1.2457e+02	-9.8869	-49.654751	0.000628	6.284616	2.129286	-0.000252
1254	1.2467e+02	-9.9190	-49.876793	0.000558	5.575063	1.888882	-0.000223
1255	1.2477e+02	-9.9623	-50.119022	0.000608	6.081887	2.060599	-0.000243
1256	1.2487e+02	-9.9944	-50.316841	0.000497	4.966874	1.682823	-0.000199
1257	1.2497e+02	-10.0361	-50.559069	0.000608	6.081887	2.060599	-0.000243
1258	1.2507e+02	-10.0890	-50.813409	0.000639	6.385981	2.163629	-0.000256
1259	1.2517e+02	-10.1227	-51.011229	0.000497	4.966874	1.682823	-0.000199
1260	1.2527e+02	-10.1660	-51.229234	0.000547	5.473698	1.854539	-0.000219
1261	1.2537e+02	-10.2013	-51.483573	0.000639	6.385981	2.163629	-0.000256
1262	1.2547e+02	-10.2318	-51.665245	0.000456	4.561415	1.545449	-0.000183
1263	1.2557e+02	-10.2799	-51.903436	0.000598	5.980522	2.026256	-0.000239
1264	1.2567e+02	-10.3248	-52.141627	0.000598	5.980522	2.026256	-0.000239
1265	1.2577e+02	-10.3649	-52.363669	0.000558	5.575063	1.888882	-0.000223
1266	1.2587e+02	-10.4131	-52.605897	0.000608	6.081887	2.060599	-0.000243
1267	1.2597e+02	-10.4339	-52.827940	0.000558	5.575063	1.888882	-0.000223
1268	1.2607e+02	-10.4853	-53.078242	0.000628	6.284616	2.129286	-0.000252
1269	1.2617e+02	-10.5238	-53.284136	0.000517	5.169604	1.751509	-0.000207
1270	1.2627e+02	-10.5591	-53.502141	0.000547	5.473698	1.854539	-0.000219
1271	1.2636e+02	-10.6040	-53.691887	0.000476	4.764145	1.614136	-0.000191
1272	1.2646e+02	-10.6425	-53.958338	0.000669	6.690076	2.266659	-0.000268
1273	1.2656e+02	-10.6810	-54.156157	0.000497	4.966874	1.682823	-0.000199
1274	1.2666e+02	-10.7163	-54.390311	0.000588	5.879157	1.991912	-0.000235
1275	1.2676e+02	-10.7660	-54.596205	0.000517	5.169604	1.751509	-0.000207
1276	1.2686e+02	-10.8045	-54.822285	0.000568	5.676428	1.923226	-0.000227
1277	1.2696e+02	-10.8414	-55.052401	0.000578	5.777793	1.957569	-0.000231
1278	1.2706e+02	-10.8719	-55.302704	0.000628	6.284616	2.129286	-0.000252
1279	1.2716e+02	-10.9264	-55.500524	0.000497	4.966874	1.682823	-0.000199
1280	1.2726e+02	-10.9585	-55.722566	0.000558	5.575063	1.888882	-0.000223
1281	1.2736e+02	-10.9922	-55.964794	0.000608	6.081887	2.060599	-0.000243
1282	1.2746e+02	-11.0387	-56.202985	0.000598	5.980522	2.026256	-0.000239
1283	1.2756e+02	-11.0756	-56.400805	0.000497	4.966874	1.682823	-0.000199
1284	1.2766e+02	-11.1350	-56.602662	0.000507	5.068239	1.717166	-0.000203
1285	1.2776e+02	-11.1542	-56.824704	0.000558	5.575063	1.888882	-0.000223
1286	1.2786e+02	-11.1879	-57.066932	0.000608	6.081887	2.060599	-0.000243
1287	1.2796e+02	-11.2360	-57.325309	0.000649	6.487346	2.197972	-0.000260
1288	1.2806e+02	-11.2794	-57.523129	0.000497	4.966874	1.682823	-0.000199
1289	1.2816e+02	-11.3163	-57.741134	0.000547	5.473698	1.854539	-0.000219
1290	1.2826e+02	-11.3612	-57.951065	0.000527	5.270969	1.785853	-0.000211
1291	1.2835e+02	-11.3997	-58.148885	0.000497	4.966874	1.682823	-0.000199
1292	1.2845e+02	-11.4382	-58.403224	0.000639	6.385981	2.163629	-0.000256
1293	1.2855e+02	-11.4831	-58.645452	0.000608	6.081887	2.060599	-0.000243
1294	1.2865e+02	-11.5120	-58.847309	0.000507	5.068239	1.717166	-0.000203
1295	1.2875e+02	-11.5585	-59.037054	0.000476	4.764145	1.614136	-0.000191
1296	1.2885e+02	-11.5938	-59.251023	0.000537	5.372333	1.820196	-0.000215
1297	1.2895e+02	-11.6275	-59.473065	0.000558	5.575063	1.888882	-0.000223
1298	1.2905e+02	-11.6692	-59.735479	0.000659	6.588711	2.232316	-0.000264
1299	1.2915e+02	-11.7157	-59.957521	0.000558	5.575063	1.888882	-0.000223
1300	1.2925e+02	-11.7494	-60.155341	0.000497	4.966874	1.682823	-0.000199
1301	1.2935e+02	-11.7975	-60.401606	0.000618	6.183252	2.094942	-0.000248
1302	1.2945e+02	-11.8328	-60.595389	0.000487	4.865509	1.648479	-0.000195
1303	1.2955e+02	-11.8826	-60.797246	0.000507	5.068239	1.717166	-0.000203
1304	1.2965e+02	-11.9114	-61.055622	0.000649	6.487346	2.197972	-0.000260
1305	1.2975e+02	-11.9483	-61.261516	0.000517	5.169604	1.751509	-0.000207
1306	1.2985e+02	-11.9948	-61.447225	0.000466	4.662780	1.579793	-0.000187
1307	1.2995e+02	-12.0414	-61.701564	0.000639	6.385981	2.163629	-0.000256
1308	1.3005e+02	-12.0735	-61.903421	0.000507	5.068239	1.717166	-0.000203
1309	1.3015e+02	-12.1216	-62.105278	0.000507	5.068239	1.717166	-0.000203
1310	1.3025e+02	-12.1585	-62.339431	0.000588	5.879157	1.991912	-0.000235
1311	1.3034e+02	-12.1970	-62.537251	0.000497	4.966874	1.682823	-0.000199
1312	1.3044e+02	-12.2355	-62.767368	0.000578	5.777793	1.957569	-0.000231
1313	1.3054e+02	-12.2708	-63.009596	0.000608	6.081887	2.060599	-0.000243
1314	1.3064e+02	-12.3173	-63.171081	0.000405	4.054591	1.373733	-0.000162
1315	1.3074e+02	-12.3526	-63.389087	0.000547	5.473698	1.854539	-0.000219
1316	1.3084e+02	-12.3911	-63.635352	0.000618	6.183252	2.094942	-0.000248
1317	1.3094e+02	-12.4360	-63.861432	0.000568	5.676428	1.923226	-0.000227
1318	1.3104e+02	-12.4761	-64.059251	0.000497	4.966874	1.682823	-0.000199
1319	1.3114e+02	-12.5066	-64.325702	0.000669	6.690076	2.266659	-0.000268
1320	1.3124e+02	-12.5531	-64.531596	0.000517	5.169604	1.751509	-0.000207
1321	1.3134e+02	-12.5948	-64.701156	0.000426	4.257321	1.442419	-0.000170
1322	1.3144e+02	-12.6365	-64.903013	0.000507	5.068239	1.717166	-0.000203
1323	1.3154e+02	-12.6766	-65.100832	0.000497	4.966874	1.682823	-0.000199
1324	1.3164e+02	-12.7119	-65.359209	0.000649	6.487346	2.197972	-0.000260
1325	1.3174e+02	-12.7488	-65.589326	0.000578	5.777793	1.957569	-0.000231
1326	1.3184e+02	-12.7970	-65.787145	0.000497	4.966874	1.682823	-0.000199
1327	1.3194e+02	-12.8323	-66.009188	0.000558	5.575063	1.888882	-0.000223
1328	1.3204e+02	-12.8772	-66.227193	0.000547	5.473698	1.854539	-0.000219
1329	1.3214e+02	-12.9044	-66.457310	0.000578	5.777793	1.957569	-0.000231
1330	1.3224e+02	-12.9478	-66.651092	0.000487	4.865509	1.648479	-0.000195
1331	1.3234e+02	-12.9815	-66.861024	0.000527	5.270969	1.785853	-0.000211
1332	1.3243e+02	-13.0344	-67.050769	0.000476	4.764145	1.614136	-0.000191
1333	1.3253e+02	-13.0665	-67.248589	0.000497	4.966874	1.682823	-0.000199
1334	1.3263e+02	-13.1162	-67.519077	0.000679	6.791440	2.301002	-0.000272
1335	1.3273e+02	-13.1547	-67.716896	0.000497	4.966874	1.682823	-0.000199
1336	1.3283e+02	-13.1932	-67.938939	0.000558	5.575063	1.888882	-0.000223
1337	1.3293e+02	-13.2285	-68.096387	0.000395	3.953226	1.339389	-0.000158
1338	1.3303e+02	-13.2654	-68.354764	0.000649	6.487346	2.197972	-0.000260
1339	1.3313e+02	-13.3232	-68.568732	0.000537	5.372333	1.820196	-0.000215
1340	1.3323e+02	-13.3424	-68.758477	0.000476	4.764145	1.614136	-0.000191
1341	1.3333e+02	-13.3825	-68.980520	0.000558	5.575063	1.888882	-0.000223
1342	1.3343e+02	-13.4322	-69.174302	0.000487	4.865509	1.648479	-0.000195
1343	1.3353e+02	-13.4563	-69.440753	0.000669	6.690076	2.266659	-0.000268
1344	1.3363e+02	-13.5028	-69.626462	0.000466	4.662780	1.579793	-0.000187
1345	1.3373e+02	-13.5510	-69.852541	0.000568	5.676428	1.923226	-0.000227
1346	1.3383e+02	-13.5927	-70.034212	0.000456	4.561415	1.545449	-0.000183
1347	1.3393e+02	-13.6312	-70.252218	0.000547	5.473698	1.854539	-0.000219
1348	1.3403e+02	-13.6665	-70.478297	0.000568	5.676428	1.923226	-0.000227
1349	1.3413e+02	-13.7082	-70.643820	0.000416	4.155956	1.408076	-0.000166
1350	1.3423e+02	-13.7467	-70.865862	0.000558	5.575063	1.888882	-0.000223
1351	1.3432e+02	-13.7900	-71.108090	0.000608	6.081887	2.060599	-0.000243
1352	1.3442e+02	-13.8285	-71.318021	0.000527	5.270969	1.785853	-0.000211
1353	1.3452e+02	-13.8670	-71.564287	0.000618	6.183252	2.094942	-0.000248
1354	1.3462e+02	-13.8991	-71.709624	0.000365	3.649132	1.236359	-0.000146
1355	1.3472e+02	-13.9504	-71.972037	0.000659	6.588711	2.232316	-0.000264
1356	1.3482e+02	-13.9873	-72.165820	0.000487	4.865509	1.648479	-0.000195
1357	1.3492e+02	-14.0226	-72.363640	0.000497	4.966874	1.682823	-0.000199
1358	1.3502e+02	-14.0563	-72.613942	0.000628	6.284616	2.129286	-0.000252
1359	1.3512e+02	-14.1124	-72.775427	0.000405	4.054591	1.373733	-0.000162
1360	1.3522e+02	-14.1445	-73.082250	0.000770	7.703723	2.610092	-0.000308
1361	1.3532e+02	-14.1846	-73.259884	0.000446	4.460050	1.511106	-0.000179
1362	1.3542e+02	-14.2231	-73.490000	0.000578	5.777793	1.957569	-0.000231
1363	1.3552e+02	-14.2664	-73.695894	0.000517	5.169604	1.751509	-0.000207
1364	1.3562e+02	-14.2985	-73.934085	0.000598	5.980522	2.026256	-0.000239
1365	1.3572e+02	-14.3434	-74.067311	0.000335	3.345038	1.133329	-0.000134
1366	1.3582e+02	-14.3852	-74.317613	0.000628	6.284616	2.129286	-0.000252
1367	1.3592e+02	-14.4188	-74.503321	0.000466	4.662780	1.579793	-0.000187
1368	1.3602e+02	-14.4638	-74.733438	0.000578	5.777793	1.957569	-0.000231
1369	1.3612e+02	-14.5023	-74.959518	0.000568	5.676428	1.923226	-0.000227
1370	1.3622e+02	-14.5472	-75.189635	0.000578	5.777793	1.957569	-0.000231
1371	1.3631e+02	-14.5809	-75.359194	0.000426	4.257321	1.442419	-0.000170
1372	1.3641e+02	-14.6226	-75.609497	0.000628	6.284616	2.129286	-0.000252
1373	1.3651e+02	-14.6659	-75.819428	0.000527	5.270969	1.785853	-0.000211
1374	1.3661e+02	-14.7140	-76.029359	0.000527	5.270969	1.785853	-0.000211
1375	1.3671e+02	-14.7445	-76.235253	0.000517	5.169604	1.751509	-0.000207
1376	1.3681e+02	-14.7846	-76.481518	0.000618	6.183252	2.094942	-0.000248
1377	1.3691e+02	-14.8215	-76.675301	0.000487	4.865509	1.648479	-0.000195
1378	1.3701e+02	-14.8648	-76.949826	0.000689	6.892805	2.335346	-0.000276
1379	1.3711e+02	-14.9033	-77.119385	0.000426	4.257321	1.442419	-0.000170
1380	1.3721e+02	-14.9370	-77.361614	0.000608	6.081887	2.060599	-0.000243
1381	1.3731e+02	-14.9980	-77.571545	0.000527	5.270969	1.785853	-0.000211
1382	1.3741e+02	-15.0188	-77.753216	0.000456	4.561415	1.545449	-0.000183
1383	1.3751e+02	-15.0686	-78.011592	0.000649	6.487346	2.197972	-0.000260
1384	1.3761e+02	-15.1103	-78.253821	0.000608	6.081887	2.060599	-0.000243
1385	1.3771e+02	-15.1375	-78.459715	0.000517	5.169604	1.751509	-0.000207
1386	1.3781e+02	-15.1921	-78.661571	0.000507	5.068239	1.717166	-0.000203
1387	1.3791e+02	-15.2290	-78.915911	0.000639	6.385981	2.163629	-0.000256
1388	1.3801e+02	-15.2530	-79.121805	0.000517	5.169604	1.751509	-0.000207
1389	1.3811e+02	-15.3012	-79.364033	0.000608	6.081887	2.060599	-0.000243
1390	1.3821e+02	-15.3300	-79.565890	0.000507	5.068239	1.717166	-0.000203
1391	1.3831e+02	-15.3830	-79.812155	0.000618	6.183252	2.094942	-0.000248
1392	1.3840e+02	-15.4247	-80.026123	0.000537	5.372333	1.820196	-0.000215
1393	1.3850e+02	-15.4680	-80.260277	0.000588	5.879157	1.991912	-0.000235
1394	1.3860e+02	-15.5033	-80.437911	0.000446	4.460050	1.511106	-0.000179
1395	1.3870e+02	-15.5466	-80.724548	0.000720	7.196899	2.438376	-0.000288
1396	1.3880e+02	-15.5803	-80.954664	0.000578	5.777793	1.957569	-0.000231
1397	1.3890e+02	-15.6268	-81.204967	0.000628	6.284616	2.129286	-0.000252
1398	1.3900e+02	-15.6637	-81.402786	0.000497	4.966874	1.682823	-0.000199
1399	1.3910e+02	-15.7006	-81.661163	0.000649	6.487346	2.197972	-0.000260
1400	1.3920e+02	-15.7391	-81.915503	0.000639	6.385981	2.163629	-0.000256
1401	1.3930e+02	-15.7744	-82.121397	0.000517	5.169604	1.751509	-0.000207
1402	1.3940e+02	-15.8065	-82.351513	0.000578	5.777793	1.957569	-0.000231
1403	1.3950e+02	-15.8578	-82.617964	0.000669	6.690076	2.266659	-0.000268
1404	1.3960e+02	-15.9028	-82.819821	0.000507	5.068239	1.717166	-0.000203
1405	1.3970e+02	-15.9397	-83.090309	0.000679	6.791440	2.301002	-0.000272
1406	1.3980e+02	-15.9733	-83.340612	0.000628	6.284616	2.129286	-0.000252
1407	1.3990e+02	-16.0151	-83.518246	0.000446	4.460050	1.511106	-0.000179
1408	1.4000e+02	-16.0584	-83.772585	0.000639	6.385981	2.163629	-0.000256
1409	1.4010e+02	-16.1001	-84.067296	0.000740	7.399629	2.507062	-0.000296
1410	1.4020e+02	-16.1322	-84.257041	0.000476	4.764145	1.614136	-0.000191
1411	1.4029e+02	-16.1771	-84.543678	0.000720	7.196899	2.438376	-0.000288
1412	1.4039e+02	-16.2204	-84.785906	0.000608	6.081887	2.060599	-0.000243
1413	1.4049e+02	-16.2477	-84.999874	0.000537	5.372333	1.820196	-0.000215
1414	1.4059e+02	-16.2942	-85.262288	0.000659	6.588711	2.232316	-0.000264
1415	1.4069e+02	-16.3311	-85.528739	0.000669	6.690076	2.266659	-0.000268
1416	1.4079e+02	-16.3840	-85.746745	0.000547	5.473698	1.854539	-0.000219
1417	1.4089e+02	-16.4145	-85.997047	0.000628	6.284616	2.129286	-0.000252
1418	1.4099e+02	-16.4514	-86.255424	0.000649	6.487346	2.197972	-0.000260
1419	1.4109e+02	-16.4931	-86.533986	0.000699	6.994170	2.369689	-0.000280
1420	1.4119e+02	-16.5364	-86.780251	0.000618	6.183252	2.094942	-0.000248
1421	1.4129e+02	-16.5781	-87.026517	0.000618	6.183252	2.094942	-0.000248
1422	1.4139e+02	-16.6215	-87.321227	0.000740	7.399629	2.507062	-0.000296
1423	1.4149e+02	-16.6584	-87.563456	0.000608	6.081887	2.060599	-0.000243
1424	1.4159e+02	-16.6969	-87.813758	0.000628	6.284616	2.129286	-0.000252
1425	1.4169e+02	-16.7402	-88.108469	0.000740	7.399629	2.507062	-0.000296
1426	1.4179e+02	-16.7851	-88.391068	0.000710	7.095535	2.404032	-0.000284
1427	1.4189e+02	-16.8043	-88.649445	0.000649	6.487346	2.197972	-0.000260
1428	1.4199e+02	-16.8557	-88.928007	0.000699	6.994170	2.369689	-0.000280
1429	1.4209e+02	-16.8942	-89.202533	0.000689	6.892805	2.335346	-0.000276
1430	1.4219e+02	-16.9263	-89.428612	0.000568	5.676428	1.923226	-0.000227
1431	1.4228e+02	-16.9808	-89.739472	0.000781	7.805088	2.644435	-0.000312
1432	1.4238e+02	-17.0177	-90.009960	0.000679	6.791440	2.301002	-0.000272
1433	1.4248e+02	-17.0594	-90.300634	0.000730	7.298264	2.472719	-0.000292
1434	1.4258e+02	-17.0899	-90.583233	0.000710	7.095535	2.404032	-0.000284
1435	1.4268e+02	-17.1380	-90.845647	0.000659	6.588711	2.232316	-0.000264
1436	1.4278e+02	-17.1797	-91.172655	0.000821	8.210547	2.781809	-0.000329
1437	1.4288e+02	-17.2118	-91.463329	0.000730	7.298264	2.472719	-0.000292
1438	1.4298e+02	-17.2503	-91.762077	0.000750	7.500994	2.541405	-0.000300
1439	1.4308e+02	-17.3017	-92.044676	0.000710	7.095535	2.404032	-0.000284
1440	1.4318e+02	-17.3321	-92.347461	0.000760	7.602359	2.575749	-0.000304
1441	1.4328e+02	-17.3642	-92.626024	0.000699	6.994170	2.369689	-0.000280
1442	1.4338e+02	-17.4220	-92.936883	0.000781	7.805088	2.644435	-0.000312
1443	1.4348e+02	-17.4605	-93.251780	0.000791	7.906453	2.678779	-0.000316
1444	1.4358e+02	-17.4910	-93.530342	0.000699	6.994170	2.369689	-0.000280
1445	1.4368e+02	-17.5295	-93.885610	0.000892	8.920101	3.022212	-0.000357
1446	1.4378e+02	-17.5808	-94.208581	0.000811	8.109182	2.747465	-0.000325
1447	1.4388e+02	-17.6225	-94.495218	0.000720	7.196899	2.438376	-0.000288
1448	1.4398e+02	-17.6610	-94.814151	0.000801	8.007818	2.713122	-0.000321
1449	1.4408e+02	-17.6995	-95.112899	0.000750	7.500994	2.541405	-0.000300
1450	1.4418e+02	-17.7316	-95.488353	0.000943	9.426925	3.193929	-0.000377
1451	1.4428e+02	-17.7717	-95.799212	0.000781	7.805088	2.644435	-0.000312
1452	1.4437e+02	-17.8150	-96.142369	0.000862	8.616006	2.919182	-0.000345
1453	1.4447e+02	-17.8535	-96.457266	0.000791	7.906453	2.678779	-0.000316
1454	1.4457e+02	-17.8888	-96.780236	0.000811	8.109182	2.747465	-0.000325
1455	1.4467e+02	-17.9385	-97.139542	0.000902	9.021465	3.056555	-0.000361
1456	1.4477e+02	-17.9690	-97.490772	0.000882	8.818736	2.987869	-0.000353
1457	1.4487e+02	-18.0043	-97.817780	0.000821	8.210547	2.781809	-0.000329
1458	1.4497e+02	-18.0524	-98.197271	0.000953	9.528289	3.228272	-0.000381
1459	1.4507e+02	-18.0877	-98.564650	0.000922	9.224195	3.125242	-0.000369
1460	1.4517e+02	-18.1326	-98.915881	0.000882	8.818736	2.987869	-0.000353
1461	1.4527e+02	-18.1808	-99.263075	0.000872	8.717371	2.953525	-0.000349
1462	1.4537e+02	-18.2048	-99.674863	0.001034	10.339208	3.503018	-0.000414
1463	1.4547e+02	-18.2514	-100.022056	0.000872	8.717371	2.953525	-0.000349
1464	1.4557e+02	-18.2818	-100.389436	0.000922	9.224195	3.125242	-0.000369
1465	1.4567e+02	-18.3284	-100.764889	0.000943	9.426925	3.193929	-0.000377
1466	1.4577e+02	-18.3685	-101.140343	0.000943	9.426925	3.193929	-0.000377
1467	1.4587e+02	-18.4086	-101.535982	0.000993	9.933749	3.365645	-0.000398
1468	1.4597e+02	-18.4567	-101.963919	0.001074	10.744667	3.640392	-0.000430
1469	1.4607e+02	-18.4936	-102.355521	0.000983	9.832384	3.331302	-0.000394
1470	1.4617e+02	-18.5369	-102.735012	0.000953	9.528289	3.228272	-0.000381
1471	1.4626e+02	-18.5594	-103.150837	0.001044	10.440572	3.537362	-0.000418
1472	1.4636e+02	-18.6187	-103.558587	0.001024	10.237843	3.468675	-0.000410
1473	1.4646e+02	-18.6444	-103.930004	0.000933	9.325560	3.159585	-0.000373
1474	1.4656e+02	-18.6861	-104.357940	0.001074	10.744667	3.640392	-0.000430
1475	1.4666e+02	-18.7326	-104.826248	0.001176	11.758315	3.983825	-0.000471
1476	1.4676e+02	-18.7743	-105.197664	0.000933	9.325560	3.159585	-0.000373
1477	1.4686e+02	-18.8048	-105.686158	0.001227	12.265138	4.155541	-0.000491
1478	1.4696e+02	-18.8449	-106.130243	0.001115	11.150126	3.777765	-0.000446
1479	1.4706e+02	-18.8930	-106.562216	0.001085	10.846032	3.674735	-0.000434
1480	1.4716e+02	-18.9380	-107.002264	0.001105	11.048761	3.743422	-0.000442
1481	1.4726e+02	-18.9620	-107.466535	0.001166	11.656950	3.949482	-0.000467
1482	1.4736e+02	-19.0262	-107.906583	0.001105	11.048761	3.743422	-0.000442
1483	1.4746e+02	-19.0406	-108.395076	0.001227	12.265138	4.155541	-0.000491
1484	1.4756e+02	-19.0936	-108.871458	0.001196	11.961044	4.052511	-0.000479
1485	1.4766e+02	-19.1209	-109.323617	0.001135	11.352855	3.846452	-0.000454
1486	1.4776e+02	-19.1658	-109.820185	0.001247	12.467868	4.224228	-0.000499
1487	1.4786e+02	-19.2107	-110.340975	0.001308	13.076057	4.430288	-0.000523
1488	1.4796e+02	-19.2508	-110.789097	0.001125	11.251491	3.812108	-0.000450
1489	1.4806e+02	-19.2813	-111.285665	0.001247	12.467868	4.224228	-0.000499
1490	1.4816e+02	-19.3390	-111.770121	0.001216	12.163774	4.121198	-0.000487
1491	1.4825e+02	-19.3679	-112.331283	0.001409	14.089705	4.773721	-0.000564
1492	1.4835e+02	-19.4080	-112.831888	0.001257	12.569233	4.258571	-0.000503
1493	1.4845e+02	-19.4401	-113.364790	0.001338	13.380151	4.533318	-0.000536
1494	1.4855e+02	-19.4818	-113.849246	0.001216	12.163774	4.121198	-0.000487
1495	1.4865e+02	-19.5203	-114.406371	0.001399	13.988340	4.739378	-0.000560
1496	1.4875e+02	-19.5668	-114.935236	0.001328	13.278786	4.498975	-0.000532
1497	1.4885e+02	-19.6069	-115.476212	0.001358	13.582881	4.602005	-0.000544
1498	1.4895e+02	-19.6486	-116.081782	0.001520	15.204717	5.151498	-0.000609
1499	1.4905e+02	-19.6727	-116.622759	0.001358	13.582881	4.602005	-0.000544
1500	1.4915e+02	-19.7208	-117.200069	0.001450	14.495164	4.911094	-0.000580
1501	1.4925e+02	-19.7609	-117.773342	0.001439	14.393799	4.876751	-0.000576
1502	1.4935e+02	-19.7978	-118.350653	0.001450	14.495164	4.911094	-0.000580
1503	1.4945e+02	-19.8444	-118.956223	0.001520	15.204717	5.151498	-0.000609
1504	1.4955e+02	-19.8845	-119.537571	0.001460	14.596528	4.945438	-0.000584
1505	1.4965e+02	-19.9117	-120.155252	0.001551	15.508811	5.254528	-0.000621
1506	1.4975e+02	-19.9551	-120.781008	0.001571	15.711541	5.323214	-0.000629
1507	1.4985e+02	-20.0096	-121.398690	0.001551	15.508811	5.254528	-0.000621
1508	1.4995e+02	-19.9647	-121.701475	-0.000760	-7.602359	-2.575749	-0.000304
1509	1.5005e+02	-19.9262	-122.000223	-0.000750	-7.500994	-2.541405	-0.000300
1510	1.5015e+02	-19.8764	-122.242452	-0.000608	-6.081887	-2.060599	-0.000243
1511	1.5025e+02	-19.8379	-122.460457	-0.000547	-5.473698	-1.854539	-0.000219
1512	1.5034e+02	-19.8059	-122.730945	-0.000679	-6.791440	-2.301002	-0.000272
1513	1.5044e+02	-19.7658	-122.965099	-0.000588	-5.879157	-1.991912	-0.000235
1514	1.5054e+02	-19.7224	-123.122547	-0.000395	-3.953226	-1.339389	-0.000158
1515	1.5064e+02	-19.6791	-123.292107	-0.000426	-4.257321	-1.442419	-0.000170
1516	1.5074e+02	-19.6374	-123.413221	-0.000304	-3.040943	-1.030300	-0.000122
1517	1.5084e+02	-19.6117	-123.631226	-0.000547	-5.473698	-1.854539	-0.000219
1518	1.5094e+02	-19.5572	-123.691783	-0.000152	-1.520472	-0.515150	-0.000061
1519	1.5104e+02	-19.5283	-123.845194	-0.000385	-3.851862	-1.305046	-0.000154
1520	1.5114e+02	-19.4818	-123.950160	-0.000264	-2.635484	-0.892926	-0.000105
1521	1.5124e+02	-19.4513	-124.071274	-0.000304	-3.040943	-1.030300	-0.000122
1522	1.5134e+02	-19.4096	-124.147980	-0.000193	-1.925931	-0.652523	-0.000077
1523	1.5144e+02	-19.3631	-124.228722	-0.000203	-2.027296	-0.686866	-0.000081
1524	1.5154e+02	-19.3278	-124.329651	-0.000253	-2.534120	-0.858583	-0.000101
1525	1.5164e+02	-19.2909	-124.361948	-0.000081	-0.810918	-0.274747	-0.000032
1526	1.5174e+02	-19.2556	-124.410393	-0.000122	-1.216377	-0.412120	-0.000049
1527	1.5184e+02	-19.2107	-124.466913	-0.000142	-1.419107	-0.480806	-0.000057
1528	1.5194e+02	-19.1722	-124.495173	-0.000071	-0.709553	-0.240403	-0.000028
1529	1.5204e+02	-19.1289	-124.551693	-0.000142	-1.419107	-0.480806	-0.000057
1530	1.5214e+02	-19.0807	-124.519396	0.000081	0.810918	0.274747	0.000032
1531	1.5224e+02	-19.0599	-124.523433	-0.000010	-0.101365	-0.034343	-0.000004
1532	1.5233e+02	-19.0118	-124.567842	-0.000112	-1.115013	-0.377776	-0.000045
1533	1.5243e+02	-18.9765	-124.515359	0.000132	1.317742	0.446463	0.000053
1534	1.5253e+02	-18.9299	-124.559767	-0.000112	-1.115013	-0.377776	-0.000045
1535	1.5263e+02	-18.8914	-124.519396	0.000101	1.013648	0.343433	0.000041
1536	1.5273e+02	-18.8465	-124.499210	0.000051	0.506824	0.171717	0.000020
1537	1.5283e+02	-18.8096	-124.523433	-0.000061	-0.608189	-0.206060	-0.000024
1538	1.5293e+02	-18.7615	-124.458839	0.000162	1.621836	0.549493	0.000065
1539	1.5303e+02	-18.7278	-124.410393	0.000122	1.216377	0.412120	0.000049
1540	1.5313e+02	-18.6941	-124.410393	0.000000	0.000000	0.000000	0.000000
1541	1.5323e+02	-18.6556	-124.370022	0.000101	1.013648	0.343433	0.000041
1542	1.5333e+02	-18.6043	-124.321576	0.000122	1.216377	0.412120	0.000049
1543	1.5343e+02	-18.5722	-124.236797	0.000213	2.128660	0.721210	0.000085
1544	1.5353e+02	-18.5273	-124.224685	0.000030	0.304094	0.103030	0.000012
1545	1.5363e+02	-18.4872	-124.164128	0.000152	1.520472	0.515150	0.000061
1546	1.5373e+02	-18.4471	-124.127794	0.000091	0.912283	0.309090	0.000037
1547	1.5383e+02	-18.4070	-124.034940	0.000233	2.331390	0.789896	0.000093
1548	1.5393e+02	-18.3797	-123.970346	0.000162	1.621836	0.549493	0.000065
1549	1.5403e+02	-18.3332	-123.869417	0.000253	2.534120	0.858583	0.000101
1550	1.5413e+02	-18.2834	-123.808860	0.000152	1.520472	0.515150	0.000061
1551	1.5422e+02	-18.2449	-123.724080	0.000213	2.128660	0.721210	0.000085
1552	1.5432e+02	-18.2161	-123.647375	0.000193	1.925931	0.652523	0.000077
1553	1.5442e+02	-18.1727	-123.526261	0.000304	3.040943	1.030300	0.000122
1554	1.5452e+02	-18.1342	-123.453592	0.000182	1.824566	0.618180	0.000073
1555	1.5462e+02	-18.0957	-123.364775	0.000223	2.230025	0.755553	0.000089
1556	1.5472e+02	-18.0556	-123.308255	0.000142	1.419107	0.480806	0.000057
1557	1.5482e+02	-18.0187	-123.211364	0.000243	2.432755	0.824240	0.000097
1558	1.5492e+02	-17.9658	-123.118510	0.000233	2.331390	0.789896	0.000093
1559	1.5502e+02	-17.9289	-122.993359	0.000314	3.142308	1.064643	0.000126
1560	1.5512e+02	-17.8920	-122.896468	0.000243	2.432755	0.824240	0.000097
1561	1.5522e+02	-17.8487	-122.823799	0.000182	1.824566	0.618180	0.000073
1562	1.5532e+02	-17.8054	-122.698648	0.000314	3.142308	1.064643	0.000126
1563	1.5542e+02	-17.7717	-122.593682	0.000264	2.635484	0.892926	0.000105
1564	1.5552e+02	-17.7300	-122.480643	0.000284	2.838214	0.961613	0.000114
1565	1.5562e+02	-17.6931	-122.387788	0.000233	2.331390	0.789896	0.000093
1566	1.5572e+02	-17.6498	-122.246489	0.000355	3.547767	1.202016	0.000142
1567	1.5582e+02	-17.6241	-122.113263	0.000335	3.345038	1.133329	0.000134
1568	1.5592e+02	-17.5760	-122.052706	0.000152	1.520472	0.515150	0.000061
1569	1.5602e+02	-17.5375	-121.919481	0.000335	3.345038	1.133329	0.000134
1570	1.5612e+02	-17.4893	-121.802404	0.000294	2.939579	0.995956	0.000118
1571	1.5622e+02	-17.4460	-121.677253	0.000314	3.142308	1.064643	0.000126
1572	1.5631e+02	-17.4139	-121.576324	0.000253	2.534120	0.858583	0.000101
1573	1.5641e+02	-17.3738	-121.451173	0.000314	3.142308	1.064643	0.000126
1574	1.5651e+02	-17.3353	-121.313910	0.000345	3.446403	1.167673	0.000138
1575	1.5661e+02	-17.2920	-121.204908	0.000274	2.736849	0.927270	0.000110
1576	1.5671e+02	-17.2535	-121.071682	0.000335	3.345038	1.133329	0.000134
1577	1.5681e+02	-17.2054	-120.962680	0.000274	2.736849	0.927270	0.000110
1578	1.5691e+02	-17.1733	-120.805231	0.000395	3.953226	1.339389	0.000158
1579	1.5701e+02	-17.1316	-120.672006	0.000335	3.345038	1.133329	0.000134
1580	1.5711e+02	-17.0979	-120.526669	0.000365	3.649132	1.236359	0.000146
1581	1.5721e+02	-17.0514	-120.389406	0.000345	3.446403	1.167673	0.000138
1582	1.5731e+02	-17.0129	-120.304626	0.000213	2.128660	0.721210	0.000085
1583	1.5741e+02	-16.9728	-120.159290	0.000365	3.649132	1.236359	0.000146
1584	1.5751e+02	-16.9423	-120.017990	0.000355	3.547767	1.202016	0.000142
1585	1.5761e+02	-16.9054	-119.917061	0.000253	2.534120	0.858583	0.000101
1586	1.5771e+02	-16.8573	-119.775762	0.000355	3.547767	1.202016	0.000142
1587	1.5781e+02	-16.8075	-119.590053	0.000466	4.662780	1.579793	0.000187
1588	1.5791e+02	-16.7803	-119.440679	0.000375	3.750497	1.270703	0.000150
1589	1.5801e+02	-16.7386	-119.299380	0.000355	3.547767	1.202016	0.000142
1590	1.5811e+02	-16.7049	-119.210563	0.000223	2.230025	0.755553	0.000089
1591	1.5821e+02	-16.6600	-119.032929	0.000446	4.460050	1.511106	0.000179
1592	1.5830e+02	-16.6134	-118.903740	0.000324	3.243673	1.098986	0.000130
1593	1.5840e+02	-16.5781	-118.770515	0.000335	3.345038	1.133329	0.000134
1594	1.5850e+02	-16.5284	-118.617104	0.000385	3.851862	1.305046	0.000154
1595	1.5860e+02	-16.4963	-118.463693	0.000385	3.851862	1.305046	0.000154
1596	1.5870e+02	-16.4610	-118.346616	0.000294	2.939579	0.995956	0.000118
1597	1.5880e+02	-16.4225	-118.177056	0.000426	4.257321	1.442419	0.000170
1598	1.5890e+02	-16.3856	-118.027682	0.000375	3.750497	1.270703	0.000150
1599	1.5900e+02	-16.3311	-117.890419	0.000345	3.446403	1.167673	0.000138
1600	1.5910e+02	-16.3022	-117.765268	0.000314	3.142308	1.064643	0.000126
1601	1.5920e+02	-16.2605	-117.619931	0.000365	3.649132	1.236359	0.000146
1602	1.5930e+02	-16.2220	-117.490743	0.000324	3.243673	1.098986	0.000130
1603	1.5940e+02	-16.1755	-117.321183	0.000426	4.257321	1.442419	0.000170
1604	1.5950e+02	-16.1257	-117.167772	0.000385	3.851862	1.305046	0.000154
1605	1.5960e+02	-16.1033	-117.074918	0.000233	2.331390	0.789896	0.000093
1606	1.5970e+02	-16.0632	-116.848838	0.000568	5.676428	1.923226	0.000227
1607	1.5980e+02	-16.0183	-116.711576	0.000345	3.446403	1.167673	0.000138
1608	1.5990e+02	-15.9830	-116.570276	0.000355	3.547767	1.202016	0.000142
1609	1.6000e+02	-15.9413	-116.392642	0.000446	4.460050	1.511106	0.000179
1610	1.6010e+02	-15.8899	-116.279602	0.000284	2.838214	0.961613	0.000114
1611	1.6019e+02	-15.8643	-116.150414	0.000324	3.243673	1.098986	0.000130
1612	1.6029e+02	-15.8113	-115.968743	0.000456	4.561415	1.545449	0.000183
1613	1.6039e+02	-15.7889	-115.811294	0.000395	3.953226	1.339389	0.000158
1614	1.6049e+02	-15.7359	-115.682106	0.000324	3.243673	1.098986	0.000130
1615	1.6059e+02	-15.6990	-115.492361	0.000476	4.764145	1.614136	0.000191
1616	1.6069e+02	-15.6541	-115.342987	0.000375	3.750497	1.270703	0.000150
1617	1.6079e+02	-15.6220	-115.221873	0.000304	3.040943	1.030300	0.000122
1618	1.6089e+02	-15.5755	-115.040201	0.000456	4.561415	1.545449	0.000183
1619	1.6099e+02	-15.5466	-114.898902	0.000355	3.547767	1.202016	0.000142
1620	1.6109e+02	-15.5017	-114.725305	0.000436	4.358686	1.476763	0.000174
1621	1.6119e+02	-15.4616	-114.571894	0.000385	3.851862	1.305046	0.000154
1622	1.6129e+02	-15.4215	-114.390223	0.000456	4.561415	1.545449	0.000183
1623	1.6139e+02	-15.3766	-114.269108	0.000304	3.040943	1.030300	0.000122
1624	1.6149e+02	-15.3477	-114.083400	0.000466	4.662780	1.579793	0.000187
1625	1.6159e+02	-15.2932	-113.905766	0.000446	4.460050	1.511106	0.000179
1626	1.6169e+02	-15.2546	-113.772541	0.000335	3.345038	1.133329	0.000134
1627	1.6179e+02	-15.2258	-113.667575	0.000264	2.635484	0.892926	0.000105
1628	1.6189e+02	-15.1841	-113.473793	0.000487	4.865509	1.648479	0.000195
1629	1.6199e+02	-15.1472	-113.328456	0.000365	3.649132	1.236359	0.000146
1630	1.6209e+02	-15.0974	-113.175045	0.000385	3.851862	1.305046	0.000154
1631	1.6219e+02	-15.0670	-112.989336	0.000466	4.662780	1.579793	0.000187
1632	1.6228e+02	-15.0252	-112.799591	0.000476	4.764145	1.614136	0.000191
1633	1.6238e+02	-14.9867	-112.658291	0.000355	3.547767	1.202016	0.000142
1634	1.6248e+02	-14.9547	-112.480657	0.000446	4.460050	1.511106	0.000179
1635	1.6258e+02	-14.8937	-112.315135	0.000416	4.155956	1.408076	0.000166
1636	1.6268e+02	-14.8584	-112.206132	0.000274	2.736849	0.927270	0.000110
1637	1.6278e+02	-14.8183	-111.984090	0.000558	5.575063	1.888882	0.000223
1638	1.6288e+02	-14.7798	-111.862976	0.000304	3.040943	1.030300	0.000122
1639	1.6298e+02	-14.7429	-111.697453	0.000416	4.155956	1.408076	0.000166
1640	1.6308e+02	-14.7092	-111.580376	0.000294	2.939579	0.995956	0.000118
1641	1.6318e+02	-14.6643	-111.366408	0.000537	5.372333	1.820196	0.000215
1642	1.6328e+02	-14.6258	-111.196848	0.000426	4.257321	1.442419	0.000170
1643	1.6338e+02	-14.5873	-111.027288	0.000426	4.257321	1.442419	0.000170
1644	1.6348e+02	-14.5520	-110.861766	0.000416	4.155956	1.408076	0.000166
1645	1.6358e+02	-14.5023	-110.724503	0.000345	3.446403	1.167673	0.000138
1646	1.6368e+02	-14.4541	-110.538795	0.000466	4.662780	1.579793	0.000187
1647	1.6378e+02	-14.4204	-110.381347	0.000395	3.953226	1.339389	0.000158
1648	1.6388e+02	-14.3884	-110.227936	0.000385	3.851862	1.305046	0.000154
1649	1.6398e+02	-14.3450	-110.054339	0.000436	4.358686	1.476763	0.000174
1650	1.6408e+02	-14.2969	-109.860556	0.000487	4.865509	1.648479	0.000195
1651	1.6418e+02	-14.2680	-109.727331	0.000335	3.345038	1.133329	0.000134
1652	1.6427e+02	-14.2247	-109.553734	0.000436	4.358686	1.476763	0.000174
1653	1.6437e+02	-14.1862	-109.404360	0.000375	3.750497	1.270703	0.000150
1654	1.6447e+02	-14.1381	-109.198466	0.000517	5.169604	1.751509	0.000207
1655	1.6457e+02	-14.1108	-109.008721	0.000476	4.764145	1.614136	0.000191
1656	1.6467e+02	-14.0611	-108.895681	0.000284	2.838214	0.961613	0.000114
1657	1.6477e+02	-14.0242	-108.689787	0.000517	5.169604	1.751509	0.000207
1658	1.6487e+02	-13.9841	-108.532339	0.000395	3.953226	1.339389	0.000158
1659	1.6497e+02	-13.9440	-108.374890	0.000395	3.953226	1.339389	0.000158
1660	1.6507e+02	-13.9023	-108.173034	0.000507	5.068239	1.717166	0.000203
1661	1.6517e+02	-13.8574	-107.995400	0.000446	4.460050	1.511106	0.000179
1662	1.6527e+02	-13.8237	-107.870248	0.000314	3.142308	1.064643	0.000126
1663	1.6537e+02	-13.7964	-107.676466	0.000487	4.865509	1.648479	0.000195
1664	1.6547e+02	-13.7531	-107.494795	0.000456	4.561415	1.545449	0.000183
1665	1.6557e+02	-13.7130	-107.397903	0.000243	2.432755	0.824240	0.000097
1666	1.6567e+02	-13.6633	-107.175861	0.000558	5.575063	1.888882	0.000223
1667	1.6577e+02	-13.6264	-107.006301	0.000426	4.257321	1.442419	0.000170
1668	1.6587e+02	-13.5879	-106.828667	0.000446	4.460050	1.511106	0.000179
1669	1.6597e+02	-13.5477	-106.667182	0.000405	4.054591	1.373733	0.000162
1670	1.6607e+02	-13.4964	-106.497622	0.000426	4.257321	1.442419	0.000170
1671	1.6616e+02	-13.4740	-106.319988	0.000446	4.460050	1.511106	0.000179
1672	1.6626e+02	-13.4258	-106.158503	0.000405	4.054591	1.373733	0.000162
1673	1.6636e+02	-13.3809	-105.968757	0.000476	4.764145	1.614136	0.000191
1674	1.6646e+02	-13.3488	-105.787086	0.000456	4.561415	1.545449	0.000183
1675	1.6656e+02	-13.3071	-105.593304	0.000487	4.865509	1.648479	0.000195
1676	1.6666e+02	-13.2718	-105.439893	0.000385	3.851862	1.305046	0.000154
1677	1.6676e+02	-13.2301	-105.274370	0.000416	4.155956	1.408076	0.000166
1678	1.6686e+02	-13.1852	-105.104810	0.000426	4.257321	1.442419	0.000170
1679	1.6696e+02	-13.1483	-104.935251	0.000426	4.257321	1.442419	0.000170
1680	1.6706e+02	-13.1066	-104.777802	0.000395	3.953226	1.339389	0.000158
1681	1.6716e+02	-13.0745	-104.559797	0.000547	5.473698	1.854539	0.000219
1682	1.6726e+02	-13.0344	-104.370052	0.000476	4.764145	1.614136	0.000191
1683	1.6736e+02	-12.9895	-104.224715	0.000365	3.649132	1.236359	0.000146
1684	1.6746e+02	-12.9478	-104.087452	0.000345	3.446403	1.167673	0.000138
1685	1.6756e+02	-12.9012	-103.861373	0.000568	5.676428	1.923226	0.000227
1686	1.6766e+02	-12.8676	-103.724110	0.000345	3.446403	1.167673	0.000138
1687	1.6776e+02	-12.8274	-103.542439	0.000456	4.561415	1.545449	0.000183
1688	1.6786e+02	-12.7938	-103.352693	0.000476	4.764145	1.614136	0.000191
1689	1.6796e+02	-12.7488	-103.146800	0.000517	5.169604	1.751509	0.000207
1690	1.6806e+02	-12.7023	-102.993388	0.000385	3.851862	1.305046	0.000154
1691	1.6816e+02	-12.6847	-102.819792	0.000436	4.358686	1.476763	0.000174
1692	1.6825e+02	-12.6333	-102.666380	0.000385	3.851862	1.305046	0.000154
1693	1.6835e+02	-12.5900	-102.452412	0.000537	5.372333	1.820196	0.000215
1694	1.6845e+02	-12.5483	-102.335335	0.000294	2.939579	0.995956	0.000118
1695	1.6855e+02	-12.5082	-102.101181	0.000588	5.879157	1.991912	0.000235
1696	1.6865e+02	-12.4713	-101.899325	0.000507	5.068239	1.717166	0.000203
1697	1.6875e+02	-12.4344	-101.766099	0.000335	3.345038	1.133329	0.000134
1698	1.6885e+02	-12.3927	-101.556168	0.000527	5.270969	1.785853	0.000211
1699	1.6895e+02	-12.3590	-101.390645	0.000416	4.155956	1.408076	0.000166
1700	1.6905e+02	-12.3221	-101.164566	0.000568	5.676428	1.923226	0.000227
1701	1.6915e+02	-12.2772	-101.035378	0.000324	3.243673	1.098986	0.000130
1702	1.6925e+02	-12.2371	-100.869855	0.000416	4.155956	1.408076	0.000166
1703	1.6935e+02	-12.2002	-100.659924	0.000527	5.270969	1.785853	0.000211
1704	1.6945e+02	-12.1553	-100.506513	0.000385	3.851862	1.305046	0.000154
1705	1.6955e+02	-12.1104	-100.316767	0.000476	4.764145	1.614136	0.000191
1706	1.6965e+02	-12.0783	-100.163356	0.000385	3.851862	1.305046	0.000154
1707	1.6975e+02	-12.0285	-99.941314	0.000558	5.575063	1.888882	0.000223
1708	1.6985e+02	-12.0077	-99.759643	0.000456	4.561415	1.545449	0.000183
1709	1.6995e+02	-11.9612	-99.561823	0.000497	4.966874	1.682823	0.000199
1710	1.7005e+02	-11.9130	-99.392263	0.000426	4.257321	1.442419	0.000170
1711	1.7015e+02	-11.8745	-99.182332	0.000527	5.270969	1.785853	0.000211
1712	1.7024e+02	-11.8328	-98.984513	0.000497	4.966874	1.682823	0.000199
1713	1.7034e+02	-11.7975	-98.835139	0.000375	3.750497	1.270703	0.000150
1714	1.7044e+02	-11.7494	-98.665579	0.000426	4.257321	1.442419	0.000170
1715	1.7054e+02	-11.7205	-98.471796	0.000487	4.865509	1.648479	0.000195
1716	1.7064e+02	-11.6676	-98.261865	0.000527	5.270969	1.785853	0.000211
1717	1.7074e+02	-11.6419	-98.060009	0.000507	5.068239	1.717166	0.000203
1718	1.7084e+02	-11.5874	-97.918709	0.000355	3.547767	1.202016	0.000142
1719	1.7094e+02	-11.5537	-97.737038	0.000456	4.561415	1.545449	0.000183
1720	1.7104e+02	-11.5184	-97.543255	0.000487	4.865509	1.648479	0.000195
1721	1.7114e+02	-11.4863	-97.333324	0.000527	5.270969	1.785853	0.000211
1722	1.7124e+02	-11.4398	-97.151653	0.000456	4.561415	1.545449	0.000183
1723	1.7134e+02	-11.3901	-97.010353	0.000355	3.547767	1.202016	0.000142
1724	1.7144e+02	-11.3564	-96.808496	0.000507	5.068239	1.717166	0.000203
1725	1.7154e+02	-11.3066	-96.614714	0.000487	4.865509	1.648479	0.000195
1726	1.7164e+02	-11.2745	-96.408820	0.000517	5.169604	1.751509	0.000207
1727	1.7174e+02	-11.2425	-96.227149	0.000456	4.561415	1.545449	0.000183
1728	1.7184e+02	-11.1943	-96.037404	0.000476	4.764145	1.614136	0.000191
1729	1.7194e+02	-11.1703	-95.843621	0.000487	4.865509	1.648479	0.000195
1730	1.7204e+02	-11.1093	-95.698284	0.000365	3.649132	1.236359	0.000146
1731	1.7213e+02	-11.0772	-95.500464	0.000497	4.966874	1.682823	0.000199
1732	1.7223e+02	-11.0355	-95.242088	0.000649	6.487346	2.197972	0.000260
1733	1.7233e+02	-10.9986	-95.064454	0.000446	4.460050	1.511106	0.000179
1734	1.7243e+02	-10.9617	-94.898931	0.000416	4.155956	1.408076	0.000166
1735	1.7253e+02	-10.9184	-94.721297	0.000446	4.460050	1.511106	0.000179
1736	1.7263e+02	-10.8831	-94.539626	0.000456	4.561415	1.545449	0.000183
1737	1.7273e+02	-10.8350	-94.325658	0.000537	5.372333	1.820196	0.000215
1738	1.7283e+02	-10.8045	-94.160135	0.000416	4.155956	1.408076	0.000166
1739	1.7293e+02	-10.7596	-93.982501	0.000446	4.460050	1.511106	0.000179
1740	1.7303e+02	-10.7115	-93.736236	0.000618	6.183252	2.094942	0.000248
1741	1.7313e+02	-10.6762	-93.598974	0.000345	3.446403	1.167673	0.000138
1742	1.7323e+02	-10.6377	-93.401154	0.000497	4.966874	1.682823	0.000199
1743	1.7333e+02	-10.6008	-93.235631	0.000416	4.155956	1.408076	0.000166
1744	1.7343e+02	-10.5623	-93.013589	0.000558	5.575063	1.888882	0.000223
1745	1.7353e+02	-10.5174	-92.799621	0.000537	5.372333	1.820196	0.000215
1746	1.7363e+02	-10.4917	-92.577578	0.000558	5.575063	1.888882	0.000223
1747	1.7373e+02	-10.4420	-92.424167	0.000385	3.851862	1.305046	0.000154
1748	1.7383e+02	-10.4002	-92.194050	0.000578	5.777793	1.957569	0.000231
1749	1.7393e+02	-10.3569	-92.040639	0.000385	3.851862	1.305046	0.000154
1750	1.7403e+02	-10.3200	-91.883191	0.000395	3.953226	1.339389	0.000158
1751	1.7413e+02	-10.2799	-91.689408	0.000487	4.865509	1.648479	0.000195
1752	1.7422e+02	-10.2430	-91.459292	0.000578	5.777793	1.957569	0.000231
1753	1.7432e+02	-10.1933	-91.265509	0.000487	4.865509	1.648479	0.000195
1754	1.7442e+02	-10.1724	-91.091912	0.000436	4.358686	1.476763	0.000174
1755	1.7452e+02	-10.1195	-90.890055	0.000507	5.068239	1.717166	0.000203
1756	1.7462e+02	-10.0874	-90.676087	0.000537	5.372333	1.820196	0.000215
1757	1.7472e+02	-10.0441	-90.506528	0.000426	4.257321	1.442419	0.000170
1758	1.7482e+02	-10.0040	-90.304671	0.000507	5.068239	1.717166	0.000203
1759	1.7492e+02	-9.9527	-90.074554	0.000578	5.777793	1.957569	0.000231
1760	1.7502e+02	-9.9254	-89.892883	0.000456	4.561415	1.545449	0.000183
1761	1.7512e+02	-9.8837	-89.695063	0.000497	4.966874	1.682823	0.000199
1762	1.7522e+02	-9.8307	-89.513392	0.000456	4.561415	1.545449	0.000183
1763	1.7532e+02	-9.7938	-89.319610	0.000487	4.865509	1.648479	0.000195
1764	1.7542e+02	-9.7602	-89.081419	0.000598	5.980522	2.026256	0.000239
1765	1.7552e+02	-9.7217	-88.944156	0.000345	3.446403	1.167673	0.000138
1766	1.7562e+02	-9.6848	-88.710002	0.000588	5.879157	1.991912	0.000235
1767	1.7572e+02	-9.6430	-88.540442	0.000426	4.257321	1.442419	0.000170
1768	1.7582e+02	-9.6029	-88.334549	0.000517	5.169604	1.751509	0.000207
1769	1.7592e+02	-9.5644	-88.128655	0.000517	5.169604	1.751509	0.000207
1770	1.7602e+02	-9.5211	-87.894501	0.000588	5.879157	1.991912	0.000235
1771	1.7612e+02	-9.4794	-87.684570	0.000527	5.270969	1.785853	0.000211
1772	1.7621e+02	-9.4393	-87.494824	0.000476	4.764145	1.614136	0.000191
1773	1.7631e+02	-9.4072	-87.333339	0.000405	4.054591	1.373733	0.000162
1774	1.7641e+02	-9.3575	-87.091111	0.000608	6.081887	2.060599	0.000243
1775	1.7651e+02	-9.3254	-86.925588	0.000416	4.155956	1.408076	0.000166
1776	1.7661e+02	-9.2837	-86.727768	0.000497	4.966874	1.682823	0.000199
1777	1.7671e+02	-9.2484	-86.485540	0.000608	6.081887	2.060599	0.000243
1778	1.7681e+02	-9.2003	-86.291758	0.000487	4.865509	1.648479	0.000195
1779	1.7691e+02	-9.1618	-86.118161	0.000436	4.358686	1.476763	0.000174
1780	1.7701e+02	-9.1233	-85.896119	0.000558	5.575063	1.888882	0.000223
1781	1.7711e+02	-9.0832	-85.710410	0.000466	4.662780	1.579793	0.000187
1782	1.7721e+02	-9.0415	-85.500479	0.000527	5.270969	1.785853	0.000211
1783	1.7731e+02	-9.0110	-85.282474	0.000547	5.473698	1.854539	0.000219
1784	1.7741e+02	-8.9661	-85.088691	0.000487	4.865509	1.648479	0.000195
1785	1.7751e+02	-8.9227	-84.902983	0.000466	4.662780	1.579793	0.000187
1786	1.7761e+02	-8.8874	-84.705163	0.000497	4.966874	1.682823	0.000199
1787	1.7771e+02	-8.8393	-84.491195	0.000537	5.372333	1.820196	0.000215
1788	1.7781e+02	-8.7992	-84.269153	0.000558	5.575063	1.888882	0.000223
1789	1.7791e+02	-8.7671	-84.034999	0.000588	5.879157	1.991912	0.000235
1790	1.7801e+02	-8.7334	-83.837179	0.000497	4.966874	1.682823	0.000199
1791	1.7810e+02	-8.6901	-83.683768	0.000385	3.851862	1.305046	0.000154
1792	1.7820e+02	-8.6484	-83.409243	0.000689	6.892805	2.335346	0.000276
1793	1.7830e+02	-8.6051	-83.223535	0.000466	4.662780	1.579793	0.000187
1794	1.7840e+02	-8.5698	-83.062049	0.000405	4.054591	1.373733	0.000162
1795	1.7850e+02	-8.5313	-82.795598	0.000669	6.690076	2.266659	0.000268
1796	1.7860e+02	-8.4816	-82.617964	0.000446	4.460050	1.511106	0.000179
1797	1.7870e+02	-8.4511	-82.420145	0.000497	4.966874	1.682823	0.000199
1798	1.7880e+02	-8.4046	-82.226362	0.000487	4.865509	1.648479	0.000195
1799	1.7890e+02	-8.3661	-81.988171	0.000598	5.980522	2.026256	0.000239
1800	1.7900e+02	-8.3212	-81.766129	0.000558	5.575063	1.888882	0.000223
1801	1.7910e+02	-8.2843	-81.584458	0.000456	4.561415	1.545449	0.000183
1802	1.7920e+02	-8.2409	-81.358378	0.000568	5.676428	1.923226	0.000227
1803	1.7930e+02	-8.2105	-81.144410	0.000537	5.372333	1.820196	0.000215
1804	1.7940e+02	-8.1671	-80.990999	0.000385	3.851862	1.305046	0.000154
1805	1.7950e+02	-8.1238	-80.752808	0.000598	5.980522	2.026256	0.000239
1806	1.7960e+02	-8.0869	-80.530765	0.000558	5.575063	1.888882	0.000223
1807	1.7970e+02	-8.0356	-80.361205	0.000426	4.257321	1.442419	0.000170
1808	1.7980e+02	-8.0147	-80.143200	0.000547	5.473698	1.854539	0.000219
1809	1.7990e+02	-7.9682	-79.917121	0.000568	5.676428	1.923226	0.000227
1810	1.8000e+02	-7.9361	-79.678929	0.000598	5.980522	2.026256	0.000239
1811	1.8009e+02	-7.8896	-79.485147	0.000487	4.865509	1.648479	0.000195
1812	1.8019e+02	-7.8415	-79.234845	0.000628	6.284616	2.129286	0.000252
1813	1.8029e+02	-7.8110	-79.053173	0.000456	4.561415	1.545449	0.000183
1814	1.8039e+02	-7.7741	-78.806908	0.000618	6.183252	2.094942	0.000248
1815	1.8049e+02	-7.7276	-78.584866	0.000558	5.575063	1.888882	0.000223
1816	1.8059e+02	-7.6891	-78.395120	0.000476	4.764145	1.614136	0.000191
1817	1.8069e+02	-7.6538	-78.189226	0.000517	5.169604	1.751509	0.000207
1818	1.8079e+02	-7.6185	-77.951035	0.000598	5.980522	2.026256	0.000239
1819	1.8089e+02	-7.5768	-77.728993	0.000558	5.575063	1.888882	0.000223
1820	1.8099e+02	-7.5383	-77.551359	0.000446	4.460050	1.511106	0.000179
1821	1.8109e+02	-7.4950	-77.333354	0.000547	5.473698	1.854539	0.000219
1822	1.8119e+02	-7.4468	-77.099200	0.000588	5.879157	1.991912	0.000235
1823	1.8129e+02	-7.4116	-76.893306	0.000517	5.169604	1.751509	0.000207
1824	1.8139e+02	-7.3779	-76.659152	0.000588	5.879157	1.991912	0.000235
1825	1.8149e+02	-7.3442	-76.477481	0.000456	4.561415	1.545449	0.000183
1826	1.8159e+02	-7.2944	-76.227178	0.000628	6.284616	2.129286	0.000252
1827	1.8169e+02	-7.2575	-76.041470	0.000466	4.662780	1.579793	0.000187
1828	1.8179e+02	-7.2126	-75.815391	0.000568	5.676428	1.923226	0.000227
1829	1.8189e+02	-7.1725	-75.569125	0.000618	6.183252	2.094942	0.000248
1830	1.8199e+02	-7.1372	-75.379380	0.000476	4.764145	1.614136	0.000191
1831	1.8209e+02	-7.0859	-75.169449	0.000527	5.270969	1.785853	0.000211
1832	1.8218e+02	-7.0522	-74.955481	0.000537	5.372333	1.820196	0.000215
1833	1.8228e+02	-7.0105	-74.765735	0.000476	4.764145	1.614136	0.000191
1834	1.8238e+02	-6.9768	-74.503321	0.000659	6.588711	2.232316	0.000264
1835	1.8248e+02	-6.9351	-74.273205	0.000578	5.777793	1.957569	0.000231
1836	1.8258e+02	-6.8854	-74.071348	0.000507	5.068239	1.717166	0.000203
1837	1.8268e+02	-6.8565	-73.837194	0.000588	5.879157	1.991912	0.000235
1838	1.8278e+02	-6.8116	-73.643412	0.000487	4.865509	1.648479	0.000195
1839	1.8288e+02	-6.7747	-73.425406	0.000547	5.473698	1.854539	0.000219
1840	1.8298e+02	-6.7346	-73.223549	0.000507	5.068239	1.717166	0.000203
1841	1.8308e+02	-6.7089	-72.949024	0.000689	6.892805	2.335346	0.000276
1842	1.8318e+02	-6.6576	-72.775427	0.000436	4.358686	1.476763	0.000174
1843	1.8328e+02	-6.6223	-72.545311	0.000578	5.777793	1.957569	0.000231
1844	1.8338e+02	-6.5790	-72.331342	0.000537	5.372333	1.820196	0.000215
1845	1.8348e+02	-6.5389	-72.064891	0.000669	6.690076	2.266659	0.000268
1846	1.8358e+02	-6.5004	-71.806515	0.000649	6.487346	2.197972	0.000260
1847	1.8368e+02	-6.4570	-71.653104	0.000385	3.851862	1.305046	0.000154
1848	1.8378e+02	-6.4153	-71.435098	0.000547	5.473698	1.854539	0.000219
1849	1.8388e+02	-6.3800	-71.213056	0.000558	5.575063	1.888882	0.000223
1850	1.8398e+02	-6.3399	-70.966791	0.000618	6.183252	2.094942	0.000248
1851	1.8407e+02	-6.3062	-70.809342	0.000395	3.953226	1.339389	0.000158
1852	1.8417e+02	-6.2613	-70.595374	0.000537	5.372333	1.820196	0.000215
1853	1.8427e+02	-6.2116	-70.312775	0.000710	7.095535	2.404032	0.000284
1854	1.8437e+02	-6.1811	-70.078621	0.000588	5.879157	1.991912	0.000235
1855	1.8447e+02	-6.1378	-69.852541	0.000568	5.676428	1.923226	0.000227
1856	1.8457e+02	-6.1041	-69.642610	0.000527	5.270969	1.785853	0.000211
1857	1.8467e+02	-6.0608	-69.452865	0.000476	4.764145	1.614136	0.000191
1858	1.8477e+02	-6.0127	-69.170265	0.000710	7.095535	2.404032	0.000284
1859	1.8487e+02	-5.9774	-68.952260	0.000547	5.473698	1.854539	0.000219
1860	1.8497e+02	-5.9373	-68.782700	0.000426	4.257321	1.442419	0.000170
1861	1.8507e+02	-5.8972	-68.516249	0.000669	6.690076	2.266659	0.000268
1862	1.8517e+02	-5.8571	-68.294207	0.000558	5.575063	1.888882	0.000223
1863	1.8527e+02	-5.8057	-68.068127	0.000568	5.676428	1.923226	0.000227
1864	1.8537e+02	-5.7752	-67.833973	0.000588	5.879157	1.991912	0.000235
1865	1.8547e+02	-5.7512	-67.575597	0.000649	6.487346	2.197972	0.000260
1866	1.8557e+02	-5.7030	-67.381814	0.000487	4.865509	1.648479	0.000195
1867	1.8567e+02	-5.6581	-67.127474	0.000639	6.385981	2.163629	0.000256
1868	1.8577e+02	-5.6212	-66.909469	0.000547	5.473698	1.854539	0.000219
1869	1.8587e+02	-5.5795	-66.691464	0.000547	5.473698	1.854539	0.000219
1870	1.8597e+02	-5.5410	-66.425013	0.000669	6.690076	2.266659	0.000268
1871	1.8606e+02	-5.4897	-66.190859	0.000588	5.879157	1.991912	0.000235
1872	1.8616e+02	-5.4656	-66.009188	0.000456	4.561415	1.545449	0.000183
1873	1.8626e+02	-5.4159	-65.762923	0.000618	6.183252	2.094942	0.000248
1874	1.8636e+02	-5.3758	-65.520694	0.000608	6.081887	2.060599	0.000243
1875	1.8646e+02	-5.3405	-65.294615	0.000568	5.676428	1.923226	0.000227
1876	1.8656e+02	-5.3004	-65.052387	0.000608	6.081887	2.060599	0.000243
1877	1.8666e+02	-5.2619	-64.810159	0.000608	6.081887	2.060599	0.000243
1878	1.8676e+02	-5.2282	-64.584079	0.000568	5.676428	1.923226	0.000227
1879	1.8686e+02	-5.1817	-64.378185	0.000517	5.169604	1.751509	0.000207
1880	1.8696e+02	-5.1496	-64.131920	0.000618	6.183252	2.094942	0.000248
1881	1.8706e+02	-5.1079	-63.905840	0.000568	5.676428	1.923226	0.000227
1882	1.8716e+02	-5.0662	-63.679761	0.000568	5.676428	1.923226	0.000227
1883	1.8726e+02	-5.0132	-63.461755	0.000547	5.473698	1.854539	0.000219
1884	1.8736e+02	-4.9811	-63.211453	0.000628	6.284616	2.129286	0.000252
1885	1.8746e+02	-4.9491	-62.965188	0.000618	6.183252	2.094942	0.000248
1886	1.8756e+02	-4.9106	-62.735071	0.000578	5.777793	1.957569	0.000231
1887	1.8766e+02	-4.8737	-62.504954	0.000578	5.777793	1.957569	0.000231
1888	1.8776e+02	-4.8287	-62.258689	0.000618	6.183252	2.094942	0.000248
1889	1.8786e+02	-4.7838	-62.016461	0.000608	6.081887	2.060599	0.000243
1890	1.8796e+02	-4.7373	-61.790381	0.000568	5.676428	1.923226	0.000227
1891	1.8806e+02	-4.7052	-61.552190	0.000598	5.980522	2.026256	0.000239
1892	1.8815e+02	-4.6587	-61.293813	0.000649	6.487346	2.197972	0.000260
1893	1.8825e+02	-4.6218	-61.079845	0.000537	5.372333	1.820196	0.000215
1894	1.8835e+02	-4.5849	-60.809357	0.000679	6.791440	2.301002	0.000272
1895	1.8845e+02	-4.5432	-60.603463	0.000517	5.169604	1.751509	0.000207
1896	1.8855e+02	-4.5079	-60.397569	0.000517	5.169604	1.751509	0.000207
1897	1.8865e+02	-4.4598	-60.151304	0.000618	6.183252	2.094942	0.000248
1898	1.8875e+02	-4.4229	-59.909076	0.000608	6.081887	2.060599	0.000243
1899	1.8885e+02	-4.3892	-59.658773	0.000628	6.284616	2.129286	0.000252
1900	1.8895e+02	-4.3411	-59.452879	0.000517	5.169604	1.751509	0.000207
1901	1.8905e+02	-4.3042	-59.174317	0.000699	6.994170	2.369689	0.000280
1902	1.8915e+02	-4.2705	-58.964386	0.000527	5.270969	1.785853	0.000211
1903	1.8925e+02	-4.2304	-58.689861	0.000689	6.892805	2.335346	0.000276
1904	1.8935e+02	-4.1951	-58.492041	0.000497	4.966874	1.682823	0.000199
1905	1.8945e+02	-4.1518	-58.237702	0.000639	6.385981	2.163629	0.000256
1906	1.8955e+02	-4.1084	-57.979325	0.000649	6.487346	2.197972	0.000260
1907	1.8965e+02	-4.0603	-57.724985	0.000639	6.385981	2.163629	0.000256
1908	1.8975e+02	-4.0202	-57.486794	0.000598	5.980522	2.026256	0.000239
1909	1.8985e+02	-3.9785	-57.284938	0.000507	5.068239	1.717166	0.000203
1910	1.8995e+02	-3.9480	-57.010412	0.000689	6.892805	2.335346	0.000276
1911	1.9004e+02	-3.9031	-56.772221	0.000598	5.980522	2.026256	0.000239
1912	1.9014e+02	-3.8630	-56.538067	0.000588	5.879157	1.991912	0.000235
1913	1.9024e+02	-3.8325	-56.283728	0.000639	6.385981	2.163629	0.000256
1914	1.9034e+02	-3.7876	-56.041500	0.000608	6.081887	2.060599	0.000243
1915	1.9044e+02	-3.7459	-55.811383	0.000578	5.777793	1.957569	0.000231
1916	1.9054e+02	-3.7010	-55.565118	0.000618	6.183252	2.094942	0.000248
1917	1.9064e+02	-3.6705	-55.371335	0.000487	4.865509	1.648479	0.000195
1918	1.9074e+02	-3.6288	-55.068550	0.000760	7.602359	2.575749	0.000304
1919	1.9084e+02	-3.5887	-54.866693	0.000507	5.068239	1.717166	0.000203
1920	1.9094e+02	-3.5502	-54.563908	0.000760	7.602359	2.575749	0.000304
1921	1.9104e+02	-3.5069	-54.390311	0.000436	4.358686	1.476763	0.000174
1922	1.9114e+02	-3.4684	-54.123860	0.000669	6.690076	2.266659	0.000268
1923	1.9124e+02	-3.4282	-53.877595	0.000618	6.183252	2.094942	0.000248
1924	1.9134e+02	-3.3946	-53.594995	0.000710	7.095535	2.404032	0.000284
1925	1.9144e+02	-3.3464	-53.344693	0.000628	6.284616	2.129286	0.000252
1926	1.9154e+02	-3.3063	-53.158985	0.000466	4.662780	1.579793	0.000187
1927	1.9164e+02	-3.2710	-52.868311	0.000730	7.298264	2.472719	0.000292
1928	1.9174e+02	-3.2277	-52.605897	0.000659	6.588711	2.232316	0.000264
1929	1.9184e+02	-3.1908	-52.379818	0.000568	5.676428	1.923226	0.000227
1930	1.9194e+02	-3.1475	-52.121441	0.000649	6.487346	2.197972	0.000260
1931	1.9203e+02	-3.1170	-51.887287	0.000588	5.879157	1.991912	0.000235
1932	1.9213e+02	-3.0769	-51.616799	0.000679	6.791440	2.301002	0.000272
1933	1.9223e+02	-3.0256	-51.394757	0.000558	5.575063	1.888882	0.000223
1934	1.9233e+02	-2.9951	-51.124268	0.000679	6.791440	2.301002	0.000272
1935	1.9243e+02	-2.9454	-50.882040	0.000608	6.081887	2.060599	0.000243
1936	1.9253e+02	-2.9069	-50.595404	0.000720	7.196899	2.438376	0.000288
1937	1.9263e+02	-2.8780	-50.337027	0.000649	6.487346	2.197972	0.000260
1938	1.9273e+02	-2.8267	-50.183616	0.000385	3.851862	1.305046	0.000154
1939	1.9283e+02	-2.7994	-49.864682	0.000801	8.007818	2.713122	0.000321
1940	1.9293e+02	-2.7497	-49.674937	0.000476	4.764145	1.614136	0.000191
1941	1.9303e+02	-2.7031	-49.408486	0.000669	6.690076	2.266659	0.000268
1942	1.9313e+02	-2.6678	-49.154146	0.000639	6.385981	2.163629	0.000256
1943	1.9323e+02	-2.6325	-48.867510	0.000720	7.196899	2.438376	0.000288
1944	1.9333e+02	-2.5940	-48.657578	0.000527	5.270969	1.785853	0.000211
1945	1.9343e+02	-2.5523	-48.387090	0.000679	6.791440	2.301002	0.000272
1946	1.9353e+02	-2.5138	-48.132751	0.000639	6.385981	2.163629	0.000256
1947	1.9363e+02	-2.4689	-47.862263	0.000679	6.791440	2.301002	0.000272
1948	1.9373e+02	-2.4352	-47.628109	0.000588	5.879157	1.991912	0.000235
1949	1.9383e+02	-2.3983	-47.377806	0.000628	6.284616	2.129286	0.000252
1950	1.9393e+02	-2.3534	-47.103281	0.000689	6.892805	2.335346	0.000276
1951	1.9403e+02	-2.3133	-46.836830	0.000669	6.690076	2.266659	0.000268
1952	1.9412e+02	-2.2780	-46.634973	0.000507	5.068239	1.717166	0.000203
1953	1.9422e+02	-2.2363	-46.352374	0.000710	7.095535	2.404032	0.000284
1954	1.9432e+02	-2.1962	-46.089960	0.000659	6.588711	2.232316	0.000264
1955	1.9442e+02	-2.1545	-45.847732	0.000608	6.081887	2.060599	0.000243
1956	1.9452e+02	-2.1144	-45.585318	0.000659	6.588711	2.232316	0.000264
1957	1.9462e+02	-2.0711	-45.339053	0.000618	6.183252	2.094942	0.000248
1958	1.9472e+02	-2.0390	-45.121048	0.000547	5.473698	1.854539	0.000219
1959	1.9482e+02	-2.0005	-44.798077	0.000811	8.109182	2.747465	0.000325
1960	1.9492e+02	-1.9572	-44.612368	0.000466	4.662780	1.579793	0.000187
1961	1.9502e+02	-1.9187	-44.309583	0.000760	7.602359	2.575749	0.000304
1962	1.9512e+02	-1.8786	-44.059281	0.000628	6.284616	2.129286	0.000252
1963	1.9522e+02	-1.8385	-43.784756	0.000689	6.892805	2.335346	0.000276
1964	1.9532e+02	-1.7951	-43.558676	0.000568	5.676428	1.923226	0.000227
1965	1.9542e+02	-1.7631	-43.276077	0.000710	7.095535	2.404032	0.000284
1966	1.9552e+02	-1.7197	-43.029811	0.000618	6.183252	2.094942	0.000248
1967	1.9562e+02	-1.6812	-42.783546	0.000618	6.183252	2.094942	0.000248
1968	1.9572e+02	-1.6411	-42.513058	0.000679	6.791440	2.301002	0.000272
1969	1.9582e+02	-1.6026	-42.254681	0.000649	6.487346	2.197972	0.000260
1970	1.9592e+02	-1.5641	-42.020527	0.000588	5.879157	1.991912	0.000235
1971	1.9601e+02	-1.5224	-41.762151	0.000649	6.487346	2.197972	0.000260
1972	1.9611e+02	-1.4711	-41.515885	0.000618	6.183252	2.094942	0.000248
1973	1.9621e+02	-1.4374	-41.217137	0.000750	7.500994	2.541405	0.000300
1974	1.9631e+02	-1.3957	-40.978946	0.000598	5.980522	2.026256	0.000239
1975	1.9641e+02	-1.3620	-40.720570	0.000649	6.487346	2.197972	0.000260
1976	1.9651e+02	-1.3171	-40.421822	0.000750	7.500994	2.541405	0.000300
1977	1.9661e+02	-1.2754	-40.219965	0.000507	5.068239	1.717166	0.000203
1978	1.9671e+02	-1.2385	-39.929291	0.000730	7.298264	2.472719	0.000292
1979	1.9681e+02	-1.2048	-39.670914	0.000649	6.487346	2.197972	0.000260
1980	1.9691e+02	-1.1470	-39.440798	0.000578	5.777793	1.957569	0.000231
1981	1.9701e+02	-1.1182	-39.150124	0.000730	7.298264	2.472719	0.000292
1982	1.9711e+02	-1.0732	-38.936156	0.000537	5.372333	1.820196	0.000215
1983	1.9721e+02	-1.0411	-38.653556	0.000710	7.095535	2.404032	0.000284
1984	1.9731e+02	-0.9994	-38.370957	0.000710	7.095535	2.404032	0.000284
1985	1.9741e+02	-0.9641	-38.128728	0.000608	6.081887	2.060599	0.000243
1986	1.9751e+02	-0.9208	-37.825943	0.000760	7.602359	2.575749	0.000304
1987	1.9761e+02	-0.8791	-37.567567	0.000649	6.487346	2.197972	0.000260
1988	1.9771e+02	-0.8454	-37.297079	0.000679	6.791440	2.301002	0.000272
1989	1.9781e+02	-0.8037	-37.079073	0.000547	5.473698	1.854539	0.000219
1990	1.9791e+02	-0.7492	-36.816659	0.000659	6.588711	2.232316	0.000264
1991	1.9800e+02	-0.7251	-36.530023	0.000720	7.196899	2.438376	0.000288
1992	1.9810e+02	-0.6802	-36.267609	0.000659	6.588711	2.232316	0.000264
1993	1.9820e+02	-0.6401	-35.985009	0.000710	7.095535	2.404032	0.000284
1994	1.9830e+02	-0.6112	-35.750856	0.000588	5.879157	1.991912	0.000235
1995	1.9840e+02	-0.5631	-35.452107	0.000750	7.500994	2.541405	0.000300
1996	1.9850e+02	-0.5214	-35.221991	0.000578	5.777793	1.957569	0.000231
1997	1.9860e+02	-0.4829	-34.923243	0.000750	7.500994	2.541405	0.000300
1998	1.9870e+02	-0.4524	-34.681015	0.000608	6.081887	2.060599	0.000243
1999	1.9880e+02	-0.3962	-34.382267	0.000750	7.500994	2.541405	0.000300
2000	1.9890e+02	-0.3674	-34.156187	0.000568	5.676428	1.923226	0.000227
2001	1.9900e+02	-0.3273	-33.909922	0.000618	6.183252	2.094942	0.000248
2002	1.9910e+02	-0.2823	-33.607136	0.000760	7.602359	2.575749	0.000304
2003	1.9920e+02	-0.2358	-33.340685	0.000669	6.690076	2.266659	0.000268
2004	1.9930e+02	-0.1989	-33.090383	0.000628	6.284616	2.129286	0.000252
2005	1.9940e+02	-0.1684	-32.803746	0.000720	7.196899	2.438376	0.000288
2006	1.9950e+02	-0.1187	-32.573630	0.000578	5.777793	1.957569	0.000231
2007	1.9960e+02	-0.0802	-32.319290	0.000639	6.385981	2.163629	0.000256
2008	1.9970e+02	-0.0449	-32.000356	0.000801	8.007818	2.713122	0.000321
2009	1.9980e+02	-0.0080	-31.782351	0.000801	8.007818	2.713122	0.000219

PMax (uC/cm2):	1.24e+02
Pr (uC/cm2):	1.25e+01
-Pr (uC/cm2):	-3.19e+01
PLoss (uC/cm2):	-3.19e+01
-Vc:	-1.89e+00
C (Max-Eff) (nF):	6.23e-01
K (Eff):	2.11e+03
Vert. (+/-Pr) Shift (uC/cm2):	-9.70e+00
Offset (uC/cm2):	-9.89e-02

A (Loop Area - uC/cm2·Volts):	-1.66e-01



Hysteresis Version: 5.48.1 - Radiant Technologies, Inc., 1999 - 9/12/24

