»»»»»»»»»»»»»»»»»»»»»»»»»»»»»»»»»»»» Hysteresis ««««««««««««««««««««««««««««««««««««
»»»  Executed Version:	5.48.1
»»»  Vision Version:	5.48.4 (R)
»»»  Vision Compiled:	9/18/24
»»»  Driver Version:	5.47.0
»»»  Windows Version:	Windows 8 or 8.1
»»»  Processor Information:	x86 (AMD or Intel) - 32 Processors
»»»  Tester Name:	PMF21124-494 (100V)
»»»  Tester S/N:	PMF21124-494
»»»  Internal Amp Type:	100V RevK 270k
»»»  Internal Amp S/N:	iAB2-596/K     
»»»  Execution Count:	1
»»»»»»»»»»»»»»»»»»»»»»»»»»»»»»»»»»»»»»»»»»««««««««««««««««««««««««««««««««««««««««««

Stored:	6/18/2025 - 11:13:20
Configured:	06/18/25 09:47:30 AM
Executed:	06/18/25 11:07:53 AM

»»»»»»»»»»»»»»»»»»»»»»»»»»»»»»»»»»» Sample Info ««««««««««««««««««««««««««««««««««««
Sample Name:	
Lot Name:	
Wafer Name:	
Die Row/Column:	0/0
Capacitor Number:	0
Sample Area (cm2):	1.00e-04
Sample Thickness (microns):	3.00e-01

Amplifier:	Internal

»»»»»»»»»»»»»»»»»»»»»»»»»»»»»»»»»»» Tester Info «««««««««««««««««««««««««««««««««««
Tester Name:	PMF21124-494 (100V)
Tester Serial Number:	PMF21124-494
Return Signal Amp. Level:	0.19 [Index: 3]

»»»»»»»»»»»»»»»»»»»»»»»»»»»»»»»» Hysteresis Info ««««««««««««««««««««««««««««««««««
Task Name:	Hyst-554
Volts:	20.00
Field:	666.67 (kV/cm)
DCBias:	0.00
DCField:	0.00 (kV/cm)
Hysteresis Period (ms):	2.00e+02
Preset:	Enabled
Preset Delay (ms):	1.00e+03
Profile:	Standard Bipolar

»»»»»»»»»»»»»»»»»»»»»»»»»»»»»»»»»»»»»» Data «««««««««««««««««««««««««««««««««««««««
Points:	2009

Valid Data

Point	Time (ms)	Drive Voltage	Measured Polarization (uC/cm2)	Capacitance (uF)	Normalized Capacitance (uF/cm2)	Dielectric Constant	Instantaneous Current (mA)
   1	0.0000e+00	0.0000	-45.304737	0.000436	4.357287	1.476289	0.000174
   2	9.9500e-02	0.0305	-45.131140	0.000436	4.357287	1.476289	0.000174
   3	1.9900e-01	0.0850	-44.929284	0.000507	5.066613	1.716615	0.000203
   4	2.9850e-01	0.1139	-44.755687	0.000436	4.357287	1.476289	0.000174
   5	3.9800e-01	0.1524	-44.569979	0.000466	4.661284	1.579286	0.000187
   6	4.9750e-01	0.1845	-44.351973	0.000547	5.471942	1.853944	0.000219
   7	5.9700e-01	0.2342	-44.142042	0.000527	5.269277	1.785280	0.000211
   8	6.9650e-01	0.2727	-43.976520	0.000415	4.154623	1.407624	0.000166
   9	7.9600e-01	0.3144	-43.718143	0.000649	6.485265	2.197267	0.000260
  10	8.9550e-01	0.3465	-43.544546	0.000436	4.357287	1.476289	0.000174
  11	9.9500e-01	0.3962	-43.350764	0.000486	4.863948	1.647950	0.000195
  12	1.0945e+00	0.4315	-43.177167	0.000436	4.357287	1.476289	0.000174
  13	1.1940e+00	0.4652	-42.967236	0.000527	5.269277	1.785280	0.000211
  14	1.2935e+00	0.5230	-42.765379	0.000507	5.066613	1.716615	0.000203
  15	1.3930e+00	0.5567	-42.587745	0.000446	4.458619	1.510621	0.000179
  16	1.4925e+00	0.5952	-42.381851	0.000517	5.167945	1.750947	0.000207
  17	1.5920e+00	0.6273	-42.119437	0.000659	6.586597	2.231599	0.000264
  18	1.6915e+00	0.6722	-41.970063	0.000375	3.749294	1.270295	0.000150
  19	1.7910e+00	0.7027	-41.752058	0.000547	5.471942	1.853944	0.000219
  20	1.8905e+00	0.7492	-41.542127	0.000527	5.269277	1.785280	0.000211
  21	1.9900e+00	0.7941	-41.356419	0.000466	4.661284	1.579286	0.000187
  22	2.0895e+00	0.8326	-41.182822	0.000436	4.357287	1.476289	0.000174
  23	2.1890e+00	0.8743	-40.928482	0.000638	6.383932	2.162935	0.000256
  24	2.2885e+00	0.9096	-40.746811	0.000456	4.559952	1.544953	0.000183
  25	2.3880e+00	0.9497	-40.532843	0.000537	5.370610	1.819612	0.000215
  26	2.4875e+00	0.9914	-40.339060	0.000486	4.863948	1.647950	0.000195
  27	2.5870e+00	1.0251	-40.145278	0.000486	4.863948	1.647950	0.000195
  28	2.6865e+00	1.0620	-39.907087	0.000598	5.978603	2.025606	0.000239
  29	2.7860e+00	1.1101	-39.713304	0.000486	4.863948	1.647950	0.000195
  30	2.8855e+00	1.1518	-39.511447	0.000507	5.066613	1.716615	0.000203
  31	2.9850e+00	1.1903	-39.313628	0.000497	4.965281	1.682283	0.000199
  32	3.0845e+00	1.2240	-39.079474	0.000588	5.877271	1.991273	0.000235
  33	3.1840e+00	1.2770	-38.909914	0.000426	4.255955	1.441957	0.000170
  34	3.2835e+00	1.3091	-38.667686	0.000608	6.079935	2.059938	0.000243
  35	3.3830e+00	1.3379	-38.473904	0.000486	4.863948	1.647950	0.000195
  36	3.4825e+00	1.3861	-38.263973	0.000527	5.269277	1.785280	0.000211
  37	3.5820e+00	1.4230	-38.062116	0.000507	5.066613	1.716615	0.000203
  38	3.6815e+00	1.4647	-37.848148	0.000537	5.370610	1.819612	0.000215
  39	3.7810e+00	1.5080	-37.654365	0.000486	4.863948	1.647950	0.000195
  40	3.8805e+00	1.5497	-37.424248	0.000578	5.775939	1.956941	0.000231
  41	3.9800e+00	1.5866	-37.218354	0.000517	5.167945	1.750947	0.000207
  42	4.0795e+00	1.6315	-37.028609	0.000476	4.762616	1.613618	0.000191
  43	4.1790e+00	1.6780	-36.778307	0.000628	6.282600	2.128603	0.000252
  44	4.2785e+00	1.7053	-36.620858	0.000395	3.951958	1.338960	0.000158
  45	4.3780e+00	1.7518	-36.394779	0.000567	5.674606	1.922609	0.000227
  46	4.4775e+00	1.7807	-36.245405	0.000375	3.749294	1.270295	0.000150
  47	4.5770e+00	1.8272	-36.003177	0.000608	6.079935	2.059938	0.000243
  48	4.6765e+00	1.8657	-35.773060	0.000578	5.775939	1.956941	0.000231
  49	4.7760e+00	1.9042	-35.595426	0.000446	4.458619	1.510621	0.000179
  50	4.8755e+00	1.9507	-35.393569	0.000507	5.066613	1.716615	0.000203
  51	4.9750e+00	1.9876	-35.131155	0.000659	6.586597	2.231599	0.000264
  52	5.0745e+00	2.0261	-34.981781	0.000375	3.749294	1.270295	0.000150
  53	5.1740e+00	2.0695	-34.719367	0.000659	6.586597	2.231599	0.000264
  54	5.2735e+00	2.0951	-34.529622	0.000476	4.762616	1.613618	0.000191
  55	5.3730e+00	2.1497	-34.311617	0.000547	5.471942	1.853944	0.000219
  56	5.4725e+00	2.1898	-34.121871	0.000476	4.762616	1.613618	0.000191
  57	5.5720e+00	2.2203	-33.944237	0.000446	4.458619	1.510621	0.000179
  58	5.6715e+00	2.2636	-33.645489	0.000750	7.498587	2.540590	0.000300
  59	5.7710e+00	2.3069	-33.463818	0.000456	4.559952	1.544953	0.000183
  60	5.8705e+00	2.3438	-33.274073	0.000476	4.762616	1.613618	0.000191
  61	5.9700e+00	2.3823	-33.076253	0.000497	4.965281	1.682283	0.000199
  62	6.0695e+00	2.4368	-32.850174	0.000567	5.674606	1.922609	0.000227
  63	6.1690e+00	2.4577	-32.624094	0.000567	5.674606	1.922609	0.000227
  64	6.2685e+00	2.5106	-32.385903	0.000598	5.978603	2.025606	0.000239
  65	6.3680e+00	2.5379	-32.184046	0.000507	5.066613	1.716615	0.000203
  66	6.4675e+00	2.5844	-31.990264	0.000486	4.863948	1.647950	0.000195
  67	6.5670e+00	2.6358	-31.768221	0.000557	5.573274	1.888276	0.000223
  68	6.6665e+00	2.6614	-31.562327	0.000517	5.167945	1.750947	0.000207
  69	6.7660e+00	2.7047	-31.388730	0.000436	4.357287	1.476289	0.000174
  70	6.8655e+00	2.7448	-31.130354	0.000649	6.485265	2.197267	0.000260
  71	6.9650e+00	2.7801	-30.936571	0.000486	4.863948	1.647950	0.000195
  72	7.0645e+00	2.8154	-30.690306	0.000618	6.181268	2.094270	0.000248
  73	7.1640e+00	2.8603	-30.504598	0.000466	4.661284	1.579286	0.000187
  74	7.2635e+00	2.8988	-30.286592	0.000547	5.471942	1.853944	0.000219
  75	7.3630e+00	2.9454	-30.068587	0.000547	5.471942	1.853944	0.000219
  76	7.4625e+00	2.9694	-29.846545	0.000557	5.573274	1.888276	0.000223
  77	7.5620e+00	3.0224	-29.681022	0.000415	4.154623	1.407624	0.000166
  78	7.6615e+00	3.0673	-29.382274	0.000750	7.498587	2.540590	0.000300
  79	7.7610e+00	3.1090	-29.228863	0.000385	3.850626	1.304627	0.000154
  80	7.8605e+00	3.1427	-28.962412	0.000669	6.687929	2.265932	0.000268
  81	7.9600e+00	3.1796	-28.780741	0.000456	4.559952	1.544953	0.000183
  82	8.0595e+00	3.2165	-28.582921	0.000497	4.965281	1.682283	0.000199
  83	8.1590e+00	3.2614	-28.324544	0.000649	6.485265	2.197267	0.000260
  84	8.2585e+00	3.2951	-28.134799	0.000476	4.762616	1.613618	0.000191
  85	8.3580e+00	3.3368	-27.916794	0.000547	5.471942	1.853944	0.000219
  86	8.4575e+00	3.3785	-27.723011	0.000486	4.863948	1.647950	0.000195
  87	8.5570e+00	3.4315	-27.476746	0.000618	6.181268	2.094270	0.000248
  88	8.6565e+00	3.4555	-27.278926	0.000497	4.965281	1.682283	0.000199
  89	8.7560e+00	3.5020	-27.101292	0.000446	4.458619	1.510621	0.000179
  90	8.8555e+00	3.5486	-26.834841	0.000669	6.687929	2.265932	0.000268
  91	8.9550e+00	3.5790	-26.661244	0.000436	4.357287	1.476289	0.000174
  92	9.0545e+00	3.6175	-26.427091	0.000588	5.877271	1.991273	0.000235
  93	9.1540e+00	3.6705	-26.213122	0.000537	5.370610	1.819612	0.000215
  94	9.2535e+00	3.7058	-25.974931	0.000598	5.978603	2.025606	0.000239
  95	9.3530e+00	3.7459	-25.801335	0.000436	4.357287	1.476289	0.000174
  96	9.4525e+00	3.7796	-25.575255	0.000567	5.674606	1.922609	0.000227
  97	9.5520e+00	3.8165	-25.341101	0.000588	5.877271	1.991273	0.000235
  98	9.6515e+00	3.8678	-25.110984	0.000578	5.775939	1.956941	0.000231
  99	9.7510e+00	3.8983	-24.925276	0.000466	4.661284	1.579286	0.000187
 100	9.8505e+00	3.9384	-24.723419	0.000507	5.066613	1.716615	0.000203
 101	9.9500e+00	3.9801	-24.448894	0.000689	6.890594	2.334596	0.000276
 102	1.0050e+01	4.0218	-24.247037	0.000507	5.066613	1.716615	0.000203
 103	1.0149e+01	4.0555	-24.057292	0.000476	4.762616	1.613618	0.000191
 104	1.0248e+01	4.1068	-23.843324	0.000537	5.370610	1.819612	0.000215
 105	1.0348e+01	4.1341	-23.597058	0.000618	6.181268	2.094270	0.000248
 106	1.0447e+01	4.1774	-23.431536	0.000415	4.154623	1.407624	0.000166
 107	1.0547e+01	4.2239	-23.201419	0.000578	5.775939	1.956941	0.000231
 108	1.0646e+01	4.2544	-22.947080	0.000638	6.383932	2.162935	0.000256
 109	1.0746e+01	4.3009	-22.781557	0.000415	4.154623	1.407624	0.000166
 110	1.0845e+01	4.3378	-22.527217	0.000638	6.383932	2.162935	0.000256
 111	1.0945e+01	4.3860	-22.325361	0.000507	5.066613	1.716615	0.000203
 112	1.1044e+01	4.4084	-22.099281	0.000567	5.674606	1.922609	0.000227
 113	1.1144e+01	4.4534	-21.897424	0.000507	5.066613	1.716615	0.000203
 114	1.1243e+01	4.5015	-21.667308	0.000578	5.775939	1.956941	0.000231
 115	1.1343e+01	4.5352	-21.441228	0.000567	5.674606	1.922609	0.000227
 116	1.1443e+01	4.5753	-21.267631	0.000436	4.357287	1.476289	0.000174
 117	1.1542e+01	4.6058	-21.013292	0.000638	6.383932	2.162935	0.000256
 118	1.1642e+01	4.6587	-20.807398	0.000517	5.167945	1.750947	0.000207
 119	1.1741e+01	4.7052	-20.601504	0.000517	5.167945	1.750947	0.000207
 120	1.1841e+01	4.7325	-20.375424	0.000567	5.674606	1.922609	0.000227
 121	1.1940e+01	4.7614	-20.149344	0.000567	5.674606	1.922609	0.000227
 122	1.2040e+01	4.8175	-19.931339	0.000547	5.471942	1.853944	0.000219
 123	1.2139e+01	4.8480	-19.749668	0.000456	4.559952	1.544953	0.000183
 124	1.2239e+01	4.8961	-19.499366	0.000628	6.282600	2.128603	0.000252
 125	1.2338e+01	4.9330	-19.321732	0.000446	4.458619	1.510621	0.000179
 126	1.2438e+01	4.9747	-19.119875	0.000507	5.066613	1.716615	0.000203
 127	1.2537e+01	5.0180	-18.885721	0.000588	5.877271	1.991273	0.000235
 128	1.2636e+01	5.0646	-18.671753	0.000537	5.370610	1.819612	0.000215
 129	1.2736e+01	5.0966	-18.417413	0.000638	6.383932	2.162935	0.000256
 130	1.2835e+01	5.1384	-18.223631	0.000486	4.863948	1.647950	0.000195
 131	1.2935e+01	5.1753	-17.997551	0.000567	5.674606	1.922609	0.000227
 132	1.3034e+01	5.2105	-17.767434	0.000578	5.775939	1.956941	0.000231
 133	1.3134e+01	5.2539	-17.537318	0.000578	5.775939	1.956941	0.000231
 134	1.3233e+01	5.3004	-17.359684	0.000446	4.458619	1.510621	0.000179
 135	1.3333e+01	5.3325	-17.141678	0.000547	5.471942	1.853944	0.000219
 136	1.3432e+01	5.3742	-16.935784	0.000517	5.167945	1.750947	0.000207
 137	1.3532e+01	5.4079	-16.709705	0.000567	5.674606	1.922609	0.000227
 138	1.3632e+01	5.4528	-16.483625	0.000567	5.674606	1.922609	0.000227
 139	1.3731e+01	5.4881	-16.269657	0.000537	5.370610	1.819612	0.000215
 140	1.3831e+01	5.5346	-16.043577	0.000567	5.674606	1.922609	0.000227
 141	1.3930e+01	5.5763	-15.869981	0.000436	4.357287	1.476289	0.000174
 142	1.4030e+01	5.6116	-15.647938	0.000557	5.573274	1.888276	0.000223
 143	1.4129e+01	5.6485	-15.377450	0.000679	6.789261	2.300264	0.000272
 144	1.4229e+01	5.6918	-15.191742	0.000466	4.661284	1.579286	0.000187
 145	1.4328e+01	5.7351	-14.957588	0.000588	5.877271	1.991273	0.000235
 146	1.4428e+01	5.7736	-14.788028	0.000426	4.255955	1.441957	0.000170
 147	1.4527e+01	5.8137	-14.574060	0.000537	5.370610	1.819612	0.000215
 148	1.4627e+01	5.8554	-14.356055	0.000547	5.471942	1.853944	0.000219
 149	1.4726e+01	5.9036	-14.113827	0.000608	6.079935	2.059938	0.000243
 150	1.4825e+01	5.9341	-13.899858	0.000537	5.370610	1.819612	0.000215
 151	1.4925e+01	5.9581	-13.710113	0.000476	4.762616	1.613618	0.000191
 152	1.5024e+01	6.0143	-13.496145	0.000537	5.370610	1.819612	0.000215
 153	1.5124e+01	6.0544	-13.245842	0.000628	6.282600	2.128603	0.000252
 154	1.5223e+01	6.0897	-13.072246	0.000436	4.357287	1.476289	0.000174
 155	1.5323e+01	6.1346	-12.842129	0.000578	5.775939	1.956941	0.000231
 156	1.5422e+01	6.1699	-12.688718	0.000385	3.850626	1.304627	0.000154
 157	1.5522e+01	6.2132	-12.422267	0.000669	6.687929	2.265932	0.000268
 158	1.5621e+01	6.2501	-12.188113	0.000588	5.877271	1.991273	0.000235
 159	1.5721e+01	6.2934	-12.018553	0.000426	4.255955	1.441957	0.000170
 160	1.5820e+01	6.3303	-11.784399	0.000588	5.877271	1.991273	0.000235
 161	1.5920e+01	6.3736	-11.578505	0.000517	5.167945	1.750947	0.000207
 162	1.6020e+01	6.3993	-11.320129	0.000649	6.485265	2.197267	0.000260
 163	1.6119e+01	6.4522	-11.150569	0.000426	4.255955	1.441957	0.000170
 164	1.6218e+01	6.4875	-10.920452	0.000578	5.775939	1.956941	0.000231
 165	1.6318e+01	6.5260	-10.734744	0.000466	4.661284	1.579286	0.000187
 166	1.6418e+01	6.5661	-10.484442	0.000628	6.282600	2.128603	0.000252
 167	1.6517e+01	6.6062	-10.282585	0.000507	5.066613	1.716615	0.000203
 168	1.6616e+01	6.6528	-10.068617	0.000537	5.370610	1.819612	0.000215
 169	1.6716e+01	6.6897	-9.874834	0.000486	4.863948	1.647950	0.000195
 170	1.6816e+01	6.7233	-9.648754	0.000567	5.674606	1.922609	0.000227
 171	1.6915e+01	6.7602	-9.426712	0.000557	5.573274	1.888276	0.000223
 172	1.7015e+01	6.8036	-9.208707	0.000547	5.471942	1.853944	0.000219
 173	1.7114e+01	6.8453	-9.018961	0.000476	4.762616	1.613618	0.000191
 174	1.7213e+01	6.8854	-8.792882	0.000567	5.674606	1.922609	0.000227
 175	1.7313e+01	6.9239	-8.554691	0.000598	5.978603	2.025606	0.000239
 176	1.7413e+01	6.9688	-8.352834	0.000507	5.066613	1.716615	0.000203
 177	1.7512e+01	7.0073	-8.171163	0.000456	4.559952	1.544953	0.000183
 178	1.7611e+01	7.0458	-7.916823	0.000638	6.383932	2.162935	0.000256
 179	1.7711e+01	7.0859	-7.763412	0.000385	3.850626	1.304627	0.000154
 180	1.7811e+01	7.1308	-7.480813	0.000709	7.093258	2.403261	0.000284
 181	1.7910e+01	7.1725	-7.282993	0.000497	4.965281	1.682283	0.000199
 182	1.8009e+01	7.1998	-7.117470	0.000415	4.154623	1.407624	0.000166
 183	1.8109e+01	7.2431	-6.855056	0.000659	6.586597	2.231599	0.000264
 184	1.8209e+01	7.2784	-6.685497	0.000426	4.255955	1.441957	0.000170
 185	1.8308e+01	7.3233	-6.447306	0.000598	5.978603	2.025606	0.000239
 186	1.8407e+01	7.3682	-6.289857	0.000395	3.951958	1.338960	0.000158
 187	1.8507e+01	7.3955	-6.015332	0.000689	6.890594	2.334596	0.000276
 188	1.8607e+01	7.4420	-5.821550	0.000486	4.863948	1.647950	0.000195
 189	1.8706e+01	7.4821	-5.615656	0.000517	5.167945	1.750947	0.000207
 190	1.8805e+01	7.5222	-5.377465	0.000598	5.978603	2.025606	0.000239
 191	1.8905e+01	7.5575	-5.195794	0.000456	4.559952	1.544953	0.000183
 192	1.9005e+01	7.6041	-4.989900	0.000517	5.167945	1.750947	0.000207
 193	1.9104e+01	7.6506	-4.755746	0.000588	5.877271	1.991273	0.000235
 194	1.9203e+01	7.6875	-4.545815	0.000527	5.269277	1.785280	0.000211
 195	1.9303e+01	7.7292	-4.323772	0.000557	5.573274	1.888276	0.000223
 196	1.9402e+01	7.7597	-4.121916	0.000507	5.066613	1.716615	0.000203
 197	1.9502e+01	7.8046	-3.916022	0.000517	5.167945	1.750947	0.000207
 198	1.9602e+01	7.8415	-3.689942	0.000567	5.674606	1.922609	0.000227
 199	1.9701e+01	7.8768	-3.488085	0.000507	5.066613	1.716615	0.000203
 200	1.9800e+01	7.9169	-3.262006	0.000567	5.674606	1.922609	0.000227
 201	1.9900e+01	7.9538	-3.048037	0.000537	5.370610	1.819612	0.000215
 202	2.0000e+01	8.0051	-2.886552	0.000405	4.053290	1.373292	0.000162
 203	2.0099e+01	8.0420	-2.628175	0.000649	6.485265	2.197267	0.000260
 204	2.0198e+01	8.0789	-2.450541	0.000446	4.458619	1.510621	0.000179
 205	2.0298e+01	8.1319	-2.208313	0.000608	6.079935	2.059938	0.000243
 206	2.0398e+01	8.1671	-2.022605	0.000466	4.661284	1.579286	0.000187
 207	2.0497e+01	8.2040	-1.792488	0.000578	5.775939	1.956941	0.000231
 208	2.0596e+01	8.2474	-1.614854	0.000446	4.458619	1.510621	0.000179
 209	2.0696e+01	8.2810	-1.368589	0.000618	6.181268	2.094270	0.000248
 210	2.0796e+01	8.3131	-1.162695	0.000517	5.167945	1.750947	0.000207
 211	2.0895e+01	8.3629	-0.989098	0.000436	4.357287	1.476289	0.000174
 212	2.0994e+01	8.4110	-0.738796	0.000628	6.282600	2.128603	0.000252
 213	2.1094e+01	8.4447	-0.540976	0.000497	4.965281	1.682283	0.000199
 214	2.1194e+01	8.4832	-0.351231	0.000476	4.762616	1.613618	0.000191
 215	2.1293e+01	8.5072	-0.084780	0.000669	6.687929	2.265932	0.000268
 216	2.1392e+01	8.5618	0.076706	0.000405	4.053290	1.373292	0.000162
 217	2.1492e+01	8.5955	0.302785	0.000567	5.674606	1.922609	0.000227
 218	2.1591e+01	8.6420	0.520791	0.000547	5.471942	1.853944	0.000219
 219	2.1691e+01	8.6837	0.706499	0.000466	4.661284	1.579286	0.000187
 220	2.1791e+01	8.7238	0.932578	0.000567	5.674606	1.922609	0.000227
 221	2.1890e+01	8.7591	1.122324	0.000476	4.762616	1.613618	0.000191
 222	2.1989e+01	8.7992	1.287846	0.000415	4.154623	1.407624	0.000166
 223	2.2089e+01	8.8489	1.538149	0.000628	6.282600	2.128603	0.000252
 224	2.2189e+01	8.8698	1.740006	0.000507	5.066613	1.716615	0.000203
 225	2.2288e+01	8.9131	1.970122	0.000578	5.775939	1.956941	0.000231
 226	2.2387e+01	8.9516	2.163905	0.000486	4.863948	1.647950	0.000195
 227	2.2487e+01	8.9933	2.377873	0.000537	5.370610	1.819612	0.000215
 228	2.2587e+01	9.0318	2.575693	0.000497	4.965281	1.682283	0.000199
 229	2.2686e+01	9.0751	2.785624	0.000527	5.269277	1.785280	0.000211
 230	2.2785e+01	9.1120	2.967295	0.000456	4.559952	1.544953	0.000183
 231	2.2885e+01	9.1554	3.189337	0.000557	5.573274	1.888276	0.000223
 232	2.2985e+01	9.1971	3.415417	0.000567	5.674606	1.922609	0.000227
 233	2.3084e+01	9.2404	3.629385	0.000537	5.370610	1.819612	0.000215
 234	2.3183e+01	9.2741	3.807019	0.000446	4.458619	1.510621	0.000179
 235	2.3283e+01	9.3190	4.045210	0.000598	5.978603	2.025606	0.000239
 236	2.3383e+01	9.3591	4.259178	0.000537	5.370610	1.819612	0.000215
 237	2.3482e+01	9.3896	4.469109	0.000527	5.269277	1.785280	0.000211
 238	2.3581e+01	9.4425	4.691152	0.000557	5.573274	1.888276	0.000223
 239	2.3681e+01	9.4762	4.880897	0.000476	4.762616	1.613618	0.000191
 240	2.3780e+01	9.5243	5.106977	0.000567	5.674606	1.922609	0.000227
 241	2.3880e+01	9.5612	5.272499	0.000415	4.154623	1.407624	0.000166
 242	2.3980e+01	9.6013	5.498579	0.000567	5.674606	1.922609	0.000227
 243	2.4079e+01	9.6430	5.704473	0.000517	5.167945	1.750947	0.000207
 244	2.4178e+01	9.6799	5.898255	0.000486	4.863948	1.647950	0.000195
 245	2.4278e+01	9.7168	6.128372	0.000578	5.775939	1.956941	0.000231
 246	2.4378e+01	9.7521	6.358489	0.000578	5.775939	1.956941	0.000231
 247	2.4477e+01	9.7987	6.552271	0.000486	4.863948	1.647950	0.000195
 248	2.4576e+01	9.8388	6.770277	0.000547	5.471942	1.853944	0.000219
 249	2.4676e+01	9.8789	6.955985	0.000466	4.661284	1.579286	0.000187
 250	2.4776e+01	9.9061	7.161879	0.000517	5.167945	1.750947	0.000207
 251	2.4875e+01	9.9639	7.387958	0.000567	5.674606	1.922609	0.000227
 252	2.4974e+01	9.9896	7.557518	0.000426	4.255955	1.441957	0.000170
 253	2.5074e+01	10.0265	7.787635	0.000578	5.775939	1.956941	0.000231
 254	2.5174e+01	10.0810	7.973343	0.000466	4.661284	1.579286	0.000187
 255	2.5273e+01	10.1163	8.175200	0.000507	5.066613	1.716615	0.000203
 256	2.5372e+01	10.1564	8.385131	0.000527	5.269277	1.785280	0.000211
 257	2.5472e+01	10.1933	8.627359	0.000608	6.079935	2.059938	0.000243
 258	2.5572e+01	10.2302	8.804993	0.000446	4.458619	1.510621	0.000179
 259	2.5671e+01	10.2639	9.039147	0.000588	5.877271	1.991273	0.000235
 260	2.5770e+01	10.3184	9.224855	0.000466	4.661284	1.579286	0.000187
 261	2.5870e+01	10.3569	9.426712	0.000507	5.066613	1.716615	0.000203
 262	2.5970e+01	10.3922	9.656829	0.000578	5.775939	1.956941	0.000231
 263	2.6069e+01	10.4371	9.814277	0.000395	3.951958	1.338960	0.000158
 264	2.6169e+01	10.4740	10.040357	0.000567	5.674606	1.922609	0.000227
 265	2.6268e+01	10.5061	10.250288	0.000527	5.269277	1.785280	0.000211
 266	2.6367e+01	10.5526	10.415810	0.000415	4.154623	1.407624	0.000166
 267	2.6467e+01	10.5847	10.645927	0.000578	5.775939	1.956941	0.000231
 268	2.6567e+01	10.6296	10.835672	0.000476	4.762616	1.613618	0.000191
 269	2.6666e+01	10.6746	11.069826	0.000588	5.877271	1.991273	0.000235
 270	2.6765e+01	10.7147	11.235349	0.000415	4.154623	1.407624	0.000166
 271	2.6865e+01	10.7468	11.473540	0.000598	5.978603	2.025606	0.000239
 272	2.6965e+01	10.7965	11.667322	0.000486	4.863948	1.647950	0.000195
 273	2.7064e+01	10.8238	11.861105	0.000486	4.863948	1.647950	0.000195
 274	2.7163e+01	10.8767	12.111407	0.000628	6.282600	2.128603	0.000252
 275	2.7263e+01	10.9056	12.276930	0.000415	4.154623	1.407624	0.000166
 276	2.7363e+01	10.9617	12.503009	0.000567	5.674606	1.922609	0.000227
 277	2.7462e+01	10.9826	12.684680	0.000456	4.559952	1.544953	0.000183
 278	2.7561e+01	11.0291	12.894612	0.000527	5.269277	1.785280	0.000211
 279	2.7661e+01	11.0772	13.104543	0.000527	5.269277	1.785280	0.000211
 280	2.7761e+01	11.1141	13.274102	0.000426	4.255955	1.441957	0.000170
 281	2.7860e+01	11.1542	13.500182	0.000567	5.674606	1.922609	0.000227
 282	2.7959e+01	11.1895	13.702039	0.000507	5.066613	1.716615	0.000203
 283	2.8059e+01	11.2344	13.899858	0.000497	4.965281	1.682283	0.000199
 284	2.8159e+01	11.2697	14.113827	0.000537	5.370610	1.819612	0.000215
 285	2.8258e+01	11.3018	14.323758	0.000527	5.269277	1.785280	0.000211
 286	2.8358e+01	11.3467	14.521577	0.000497	4.965281	1.682283	0.000199
 287	2.8457e+01	11.3981	14.699211	0.000446	4.458619	1.510621	0.000179
 288	2.8556e+01	11.4334	14.913179	0.000537	5.370610	1.819612	0.000215
 289	2.8656e+01	11.4719	15.110999	0.000497	4.965281	1.682283	0.000199
 290	2.8756e+01	11.5072	15.349190	0.000598	5.978603	2.025606	0.000239
 291	2.8855e+01	11.5473	15.506638	0.000395	3.951958	1.338960	0.000158
 292	2.8954e+01	11.5922	15.692347	0.000466	4.661284	1.579286	0.000187
 293	2.9054e+01	11.6243	15.902278	0.000527	5.269277	1.785280	0.000211
 294	2.9154e+01	11.6724	16.112209	0.000527	5.269277	1.785280	0.000211
 295	2.9253e+01	11.7125	16.326177	0.000537	5.370610	1.819612	0.000215
 296	2.9352e+01	11.7446	16.536108	0.000527	5.269277	1.785280	0.000211
 297	2.9452e+01	11.7879	16.750076	0.000537	5.370610	1.819612	0.000215
 298	2.9552e+01	11.8264	16.923673	0.000436	4.357287	1.476289	0.000174
 299	2.9651e+01	11.8713	17.137641	0.000537	5.370610	1.819612	0.000215
 300	2.9750e+01	11.9050	17.319312	0.000456	4.559952	1.544953	0.000183
 301	2.9850e+01	11.9467	17.553466	0.000588	5.877271	1.991273	0.000235
 302	2.9950e+01	11.9965	17.759360	0.000517	5.167945	1.750947	0.000207
 303	3.0049e+01	12.0301	17.957180	0.000497	4.965281	1.682283	0.000199
 304	3.0148e+01	12.0719	18.175185	0.000547	5.471942	1.853944	0.000219
 305	3.0248e+01	12.1055	18.348782	0.000436	4.357287	1.476289	0.000174
 306	3.0348e+01	12.1440	18.566787	0.000547	5.471942	1.853944	0.000219
 307	3.0447e+01	12.1922	18.752496	0.000466	4.661284	1.579286	0.000187
 308	3.0547e+01	12.2307	18.922055	0.000426	4.255955	1.441957	0.000170
 309	3.0646e+01	12.2628	19.164283	0.000608	6.079935	2.059938	0.000243
 310	3.0745e+01	12.3157	19.329806	0.000415	4.154623	1.407624	0.000166
 311	3.0845e+01	12.3430	19.559923	0.000578	5.775939	1.956941	0.000231
 312	3.0945e+01	12.3847	19.741594	0.000456	4.559952	1.544953	0.000183
 313	3.1044e+01	12.4216	19.967673	0.000567	5.674606	1.922609	0.000227
 314	3.1143e+01	12.4649	20.141270	0.000436	4.357287	1.476289	0.000174
 315	3.1243e+01	12.5066	20.355238	0.000537	5.370610	1.819612	0.000215
 316	3.1343e+01	12.5435	20.549021	0.000486	4.863948	1.647950	0.000195
 317	3.1442e+01	12.5916	20.758952	0.000527	5.269277	1.785280	0.000211
 318	3.1541e+01	12.6301	20.904289	0.000365	3.647961	1.235963	0.000146
 319	3.1641e+01	12.6590	21.122294	0.000547	5.471942	1.853944	0.000219
 320	3.1741e+01	12.7007	21.344337	0.000557	5.573274	1.888276	0.000223
 321	3.1840e+01	12.7440	21.517933	0.000436	4.357287	1.476289	0.000174
 322	3.1939e+01	12.7857	21.727865	0.000527	5.269277	1.785280	0.000211
 323	3.2039e+01	12.8178	21.966056	0.000598	5.978603	2.025606	0.000239
 324	3.2139e+01	12.8756	22.139652	0.000436	4.357287	1.476289	0.000174
 325	3.2238e+01	12.9028	22.333435	0.000486	4.863948	1.647950	0.000195
 326	3.2337e+01	12.9349	22.519143	0.000466	4.661284	1.579286	0.000187
 327	3.2437e+01	12.9815	22.749260	0.000578	5.775939	1.956941	0.000231
 328	3.2536e+01	13.0200	22.914782	0.000415	4.154623	1.407624	0.000166
 329	3.2636e+01	13.0601	23.120676	0.000517	5.167945	1.750947	0.000207
 330	3.2736e+01	13.1018	23.282162	0.000405	4.053290	1.373292	0.000162
 331	3.2835e+01	13.1483	23.524390	0.000608	6.079935	2.059938	0.000243
 332	3.2934e+01	13.1724	23.710098	0.000466	4.661284	1.579286	0.000187
 333	3.3034e+01	13.2205	23.895806	0.000466	4.661284	1.579286	0.000187
 334	3.3133e+01	13.2606	24.097663	0.000507	5.066613	1.716615	0.000203
 335	3.3233e+01	13.3087	24.271260	0.000436	4.357287	1.476289	0.000174
 336	3.3333e+01	13.3408	24.509451	0.000598	5.978603	2.025606	0.000239
 337	3.3432e+01	13.3825	24.679011	0.000426	4.255955	1.441957	0.000170
 338	3.3532e+01	13.4210	24.884905	0.000517	5.167945	1.750947	0.000207
 339	3.3631e+01	13.4563	25.106947	0.000557	5.573274	1.888276	0.000223
 340	3.3730e+01	13.4948	25.292655	0.000466	4.661284	1.579286	0.000187
 341	3.3830e+01	13.5333	25.506624	0.000537	5.370610	1.819612	0.000215
 342	3.3929e+01	13.5862	25.684258	0.000446	4.458619	1.510621	0.000179
 343	3.4029e+01	13.6103	25.886114	0.000507	5.066613	1.716615	0.000203
 344	3.4129e+01	13.6552	26.063748	0.000446	4.458619	1.510621	0.000179
 345	3.4228e+01	13.6905	26.281754	0.000547	5.471942	1.853944	0.000219
 346	3.4328e+01	13.7370	26.511870	0.000578	5.775939	1.956941	0.000231
 347	3.4427e+01	13.7755	26.661244	0.000375	3.749294	1.270295	0.000150
 348	3.4526e+01	13.8157	26.887324	0.000567	5.674606	1.922609	0.000227
 349	3.4626e+01	13.8590	27.044772	0.000395	3.951958	1.338960	0.000158
 350	3.4725e+01	13.8943	27.266815	0.000557	5.573274	1.888276	0.000223
 351	3.4825e+01	13.9392	27.452523	0.000466	4.661284	1.579286	0.000187
 352	3.4925e+01	13.9777	27.618046	0.000415	4.154623	1.407624	0.000166
 353	3.5024e+01	14.0194	27.832014	0.000537	5.370610	1.819612	0.000215
 354	3.5123e+01	14.0627	28.025796	0.000486	4.863948	1.647950	0.000195
 355	3.5223e+01	14.1028	28.251876	0.000567	5.674606	1.922609	0.000227
 356	3.5322e+01	14.1333	28.417398	0.000415	4.154623	1.407624	0.000166
 357	3.5422e+01	14.1718	28.611181	0.000486	4.863948	1.647950	0.000195
 358	3.5522e+01	14.2135	28.821112	0.000527	5.269277	1.785280	0.000211
 359	3.5621e+01	14.2584	29.043154	0.000557	5.573274	1.888276	0.000223
 360	3.5721e+01	14.3049	29.184454	0.000355	3.546629	1.201630	0.000142
 361	3.5820e+01	14.3418	29.406497	0.000557	5.573274	1.888276	0.000223
 362	3.5919e+01	14.3755	29.624502	0.000547	5.471942	1.853944	0.000219
 363	3.6019e+01	14.4221	29.781950	0.000395	3.951958	1.338960	0.000158
 364	3.6118e+01	14.4590	30.003993	0.000557	5.573274	1.888276	0.000223
 365	3.6218e+01	14.4975	30.181627	0.000446	4.458619	1.510621	0.000179
 366	3.6318e+01	14.5376	30.387521	0.000517	5.167945	1.750947	0.000207
 367	3.6417e+01	14.5761	30.561118	0.000436	4.357287	1.476289	0.000174
 368	3.6517e+01	14.6162	30.750863	0.000476	4.762616	1.613618	0.000191
 369	3.6616e+01	14.6579	30.952720	0.000507	5.066613	1.716615	0.000203
 370	3.6715e+01	14.6980	31.170725	0.000547	5.471942	1.853944	0.000219
 371	3.6815e+01	14.7413	31.340285	0.000426	4.255955	1.441957	0.000170
 372	3.6914e+01	14.7702	31.550216	0.000527	5.269277	1.785280	0.000211
 373	3.7014e+01	14.8119	31.743998	0.000486	4.863948	1.647950	0.000195
 374	3.7114e+01	14.8616	31.897409	0.000385	3.850626	1.304627	0.000154
 375	3.7213e+01	14.9033	32.143675	0.000618	6.181268	2.094270	0.000248
 376	3.7313e+01	14.9402	32.333420	0.000476	4.762616	1.613618	0.000191
 377	3.7412e+01	14.9739	32.494906	0.000405	4.053290	1.373292	0.000162
 378	3.7511e+01	15.0220	32.720985	0.000567	5.674606	1.922609	0.000227
 379	3.7611e+01	15.0605	32.890545	0.000426	4.255955	1.441957	0.000170
 380	3.7711e+01	15.0926	33.116624	0.000567	5.674606	1.922609	0.000227
 381	3.7810e+01	15.1311	33.286184	0.000426	4.255955	1.441957	0.000170
 382	3.7910e+01	15.1760	33.475930	0.000476	4.762616	1.613618	0.000191
 383	3.8009e+01	15.2129	33.677786	0.000507	5.066613	1.716615	0.000203
 384	3.8108e+01	15.2514	33.875606	0.000497	4.965281	1.682283	0.000199
 385	3.8208e+01	15.2915	34.109760	0.000588	5.877271	1.991273	0.000235
 386	3.8307e+01	15.3268	34.287394	0.000446	4.458619	1.510621	0.000179
 387	3.8407e+01	15.3702	34.448879	0.000405	4.053290	1.373292	0.000162
 388	3.8507e+01	15.4103	34.630550	0.000456	4.559952	1.544953	0.000183
 389	3.8606e+01	15.4504	34.840481	0.000527	5.269277	1.785280	0.000211
 390	3.8706e+01	15.4873	35.018115	0.000446	4.458619	1.510621	0.000179
 391	3.8805e+01	15.5274	35.215935	0.000497	4.965281	1.682283	0.000199
 392	3.8904e+01	15.5723	35.397606	0.000456	4.559952	1.544953	0.000183
 393	3.9004e+01	15.6108	35.615611	0.000547	5.471942	1.853944	0.000219
 394	3.9103e+01	15.6509	35.801320	0.000466	4.661284	1.579286	0.000187
 395	3.9203e+01	15.6878	35.987028	0.000466	4.661284	1.579286	0.000187
 396	3.9303e+01	15.7327	36.136402	0.000375	3.749294	1.270295	0.000150
 397	3.9402e+01	15.7712	36.370556	0.000588	5.877271	1.991273	0.000235
 398	3.9502e+01	15.8129	36.556264	0.000466	4.661284	1.579286	0.000187
 399	3.9601e+01	15.8402	36.737935	0.000456	4.559952	1.544953	0.000183
 400	3.9700e+01	15.8947	36.976126	0.000598	5.978603	2.025606	0.000239
 401	3.9800e+01	15.9316	37.133575	0.000395	3.951958	1.338960	0.000158
 402	3.9900e+01	15.9669	37.327357	0.000486	4.863948	1.647950	0.000195
 403	3.9999e+01	16.0086	37.500954	0.000436	4.357287	1.476289	0.000174
 404	4.0099e+01	16.0423	37.698774	0.000497	4.965281	1.682283	0.000199
 405	4.0198e+01	16.0744	37.936965	0.000598	5.978603	2.025606	0.000239
 406	4.0297e+01	16.1322	38.126710	0.000476	4.762616	1.613618	0.000191
 407	4.0397e+01	16.1691	38.308381	0.000456	4.559952	1.544953	0.000183
 408	4.0496e+01	16.2011	38.506201	0.000497	4.965281	1.682283	0.000199
 409	4.0596e+01	16.2525	38.687872	0.000456	4.559952	1.544953	0.000183
 410	4.0696e+01	16.2910	38.889729	0.000507	5.066613	1.716615	0.000203
 411	4.0795e+01	16.3263	39.079474	0.000476	4.762616	1.613618	0.000191
 412	4.0895e+01	16.3680	39.297479	0.000547	5.471942	1.853944	0.000219
 413	4.0994e+01	16.4049	39.442816	0.000365	3.647961	1.235963	0.000146
 414	4.1093e+01	16.4466	39.620450	0.000446	4.458619	1.510621	0.000179
 415	4.1193e+01	16.4835	39.870753	0.000628	6.282600	2.128603	0.000252
 416	4.1292e+01	16.5284	40.048387	0.000446	4.458619	1.510621	0.000179
 417	4.1392e+01	16.5589	40.226020	0.000446	4.458619	1.510621	0.000179
 418	4.1492e+01	16.6182	40.427877	0.000507	5.066613	1.716615	0.000203
 419	4.1591e+01	16.6519	40.625697	0.000497	4.965281	1.682283	0.000199
 420	4.1691e+01	16.6872	40.827554	0.000507	5.066613	1.716615	0.000203
 421	4.1790e+01	16.7289	40.968853	0.000355	3.546629	1.201630	0.000142
 422	4.1889e+01	16.7658	41.178785	0.000527	5.269277	1.785280	0.000211
 423	4.1989e+01	16.8059	41.392753	0.000537	5.370610	1.819612	0.000215
 424	4.2089e+01	16.8605	41.570387	0.000446	4.458619	1.510621	0.000179
 425	4.2188e+01	16.8797	41.764169	0.000486	4.863948	1.647950	0.000195
 426	4.2288e+01	16.9198	42.006397	0.000608	6.079935	2.059938	0.000243
 427	4.2387e+01	16.9567	42.159809	0.000385	3.850626	1.304627	0.000154
 428	4.2486e+01	17.0081	42.385888	0.000567	5.674606	1.922609	0.000227
 429	4.2586e+01	17.0498	42.535262	0.000375	3.749294	1.270295	0.000150
 430	4.2685e+01	17.0931	42.781527	0.000618	6.181268	2.094270	0.000248
 431	4.2785e+01	17.1204	42.930901	0.000375	3.749294	1.270295	0.000150
 432	4.2885e+01	17.1621	43.140832	0.000527	5.269277	1.785280	0.000211
 433	4.2984e+01	17.2070	43.362875	0.000557	5.573274	1.888276	0.000223
 434	4.3084e+01	17.2439	43.544546	0.000456	4.559952	1.544953	0.000183
 435	4.3183e+01	17.2904	43.738329	0.000486	4.863948	1.647950	0.000195
 436	4.3282e+01	17.3241	43.952297	0.000537	5.370610	1.819612	0.000215
 437	4.3382e+01	17.3642	44.166265	0.000537	5.370610	1.819612	0.000215
 438	4.3481e+01	17.4011	44.323713	0.000395	3.951958	1.338960	0.000158
 439	4.3581e+01	17.4460	44.517496	0.000486	4.863948	1.647950	0.000195
 440	4.3681e+01	17.4765	44.731464	0.000537	5.370610	1.819612	0.000215
 441	4.3780e+01	17.5214	44.937358	0.000517	5.167945	1.750947	0.000207
 442	4.3880e+01	17.5631	45.114992	0.000446	4.458619	1.510621	0.000179
 443	4.3979e+01	17.6129	45.345109	0.000578	5.775939	1.956941	0.000231
 444	4.4078e+01	17.6514	45.530817	0.000466	4.661284	1.579286	0.000187
 445	4.4178e+01	17.6786	45.773045	0.000608	6.079935	2.059938	0.000243
 446	4.4278e+01	17.7155	45.930493	0.000395	3.951958	1.338960	0.000158
 447	4.4377e+01	17.7621	46.140424	0.000527	5.269277	1.785280	0.000211
 448	4.4477e+01	17.8102	46.346318	0.000517	5.167945	1.750947	0.000207
 449	4.4576e+01	17.8439	46.572398	0.000567	5.674606	1.922609	0.000227
 450	4.4675e+01	17.8840	46.750032	0.000446	4.458619	1.510621	0.000179
 451	4.4775e+01	17.9257	46.992260	0.000608	6.079935	2.059938	0.000243
 452	4.4874e+01	17.9658	47.186043	0.000486	4.863948	1.647950	0.000195
 453	4.4974e+01	17.9979	47.387899	0.000507	5.066613	1.716615	0.000203
 454	4.5074e+01	18.0476	47.593793	0.000517	5.167945	1.750947	0.000207
 455	4.5173e+01	18.0797	47.791613	0.000497	4.965281	1.682283	0.000199
 456	4.5273e+01	18.1182	48.017692	0.000567	5.674606	1.922609	0.000227
 457	4.5372e+01	18.1695	48.211475	0.000486	4.863948	1.647950	0.000195
 458	4.5471e+01	18.1952	48.429480	0.000547	5.471942	1.853944	0.000219
 459	4.5571e+01	18.2481	48.704006	0.000689	6.890594	2.334596	0.000276
 460	4.5670e+01	18.2866	48.873565	0.000426	4.255955	1.441957	0.000170
 461	4.5770e+01	18.3219	49.079459	0.000517	5.167945	1.750947	0.000207
 462	4.5870e+01	18.3637	49.333799	0.000638	6.383932	2.162935	0.000256
 463	4.5969e+01	18.4038	49.571990	0.000598	5.978603	2.025606	0.000239
 464	4.6069e+01	18.4358	49.781921	0.000527	5.269277	1.785280	0.000211
 465	4.6168e+01	18.4743	50.024149	0.000608	6.079935	2.059938	0.000243
 466	4.6267e+01	18.5321	50.254266	0.000578	5.775939	1.956941	0.000231
 467	4.6367e+01	18.5578	50.504568	0.000628	6.282600	2.128603	0.000252
 468	4.6467e+01	18.5979	50.722573	0.000547	5.471942	1.853944	0.000219
 469	4.6566e+01	18.6428	50.956727	0.000588	5.877271	1.991273	0.000235
 470	4.6666e+01	18.6797	51.202993	0.000618	6.181268	2.094270	0.000248
 471	4.6765e+01	18.7262	51.408886	0.000517	5.167945	1.750947	0.000207
 472	4.6864e+01	18.7599	51.679375	0.000679	6.789261	2.300264	0.000272
 473	4.6964e+01	18.8016	51.885269	0.000517	5.167945	1.750947	0.000207
 474	4.7063e+01	18.8385	52.171905	0.000719	7.194590	2.437593	0.000288
 475	4.7163e+01	18.8866	52.418170	0.000618	6.181268	2.094270	0.000248
 476	4.7263e+01	18.9267	52.660399	0.000608	6.079935	2.059938	0.000243
 477	4.7362e+01	18.9556	52.922812	0.000659	6.586597	2.231599	0.000264
 478	4.7462e+01	19.0086	53.169078	0.000618	6.181268	2.094270	0.000248
 479	4.7561e+01	19.0310	53.435529	0.000669	6.687929	2.265932	0.000268
 480	4.7660e+01	19.0775	53.722165	0.000719	7.194590	2.437593	0.000288
 481	4.7760e+01	19.1144	53.968431	0.000618	6.181268	2.094270	0.000248
 482	4.7859e+01	19.1626	54.246993	0.000699	6.991926	2.368929	0.000280
 483	4.7959e+01	19.1882	54.517481	0.000679	6.789261	2.300264	0.000272
 484	4.8059e+01	19.2476	54.800081	0.000709	7.093258	2.403261	0.000284
 485	4.8158e+01	19.2797	55.054420	0.000638	6.383932	2.162935	0.000256
 486	4.8258e+01	19.3150	55.316834	0.000659	6.586597	2.231599	0.000264
 487	4.8357e+01	19.3599	55.591359	0.000689	6.890594	2.334596	0.000276
 488	4.8456e+01	19.3984	55.857810	0.000669	6.687929	2.265932	0.000268
 489	4.8556e+01	19.4401	56.132335	0.000689	6.890594	2.334596	0.000276
 490	4.8656e+01	19.4690	56.447232	0.000790	7.903916	2.677919	0.000316
 491	4.8755e+01	19.5155	56.733869	0.000719	7.194590	2.437593	0.000288
 492	4.8855e+01	19.5588	56.996282	0.000659	6.586597	2.231599	0.000264
 493	4.8954e+01	19.5989	57.266770	0.000679	6.789261	2.300264	0.000272
 494	4.9053e+01	19.6422	57.585704	0.000801	8.005248	2.712252	0.000321
 495	4.9153e+01	19.6743	57.896564	0.000780	7.802584	2.643587	0.000312
 496	4.9252e+01	19.7176	58.175126	0.000699	6.991926	2.368929	0.000280
 497	4.9352e+01	19.7577	58.518283	0.000861	8.613242	2.918245	0.000345
 498	4.9452e+01	19.8107	58.812993	0.000740	7.397255	2.506258	0.000296
 499	4.9551e+01	19.8315	59.111741	0.000750	7.498587	2.540590	0.000300
 500	4.9651e+01	19.8748	59.446824	0.000841	8.410577	2.849581	0.000337
 501	4.9750e+01	19.9021	59.769795	0.000811	8.106581	2.746584	0.000325
 502	4.9849e+01	19.9518	60.080654	0.000780	7.802584	2.643587	0.000312
 503	4.9949e+01	19.9919	60.407662	0.000821	8.207913	2.780916	0.000329
 504	5.0048e+01	19.9470	60.427848	-0.000051	-0.506661	-0.171661	0.000020
 505	5.0148e+01	19.9101	60.464182	-0.000091	-0.911990	-0.308991	0.000037
 506	5.0248e+01	19.8700	60.500516	-0.000091	-0.911990	-0.308991	0.000037
 507	5.0347e+01	19.8363	60.548962	-0.000122	-1.215987	-0.411988	0.000049
 508	5.0447e+01	19.7978	60.605482	-0.000142	-1.418652	-0.480652	0.000057
 509	5.0546e+01	19.7513	60.621630	-0.000041	-0.405329	-0.137329	0.000016
 510	5.0645e+01	19.7064	60.657964	-0.000091	-0.911990	-0.308991	0.000037
 511	5.0745e+01	19.6663	60.710447	-0.000132	-1.317319	-0.446320	0.000053
 512	5.0844e+01	19.6374	60.734670	-0.000061	-0.607994	-0.205994	0.000024
 513	5.0944e+01	19.5941	60.819450	-0.000213	-2.127977	-0.720978	0.000085
 514	5.1044e+01	19.5540	60.835598	-0.000041	-0.405329	-0.137329	0.000016
 515	5.1143e+01	19.5155	60.912304	-0.000193	-1.925313	-0.652314	0.000077
 516	5.1242e+01	19.4706	60.932490	-0.000051	-0.506661	-0.171661	0.000020
 517	5.1342e+01	19.4369	60.980935	-0.000122	-1.215987	-0.411988	0.000049
 518	5.1441e+01	19.4032	61.057641	-0.000193	-1.925313	-0.652314	0.000077
 519	5.1541e+01	19.3551	61.114161	-0.000142	-1.418652	-0.480652	0.000057
 520	5.1641e+01	19.3182	61.138384	-0.000061	-0.607994	-0.205994	0.000024
 521	5.1740e+01	19.2716	61.202978	-0.000162	-1.621316	-0.549317	0.000065
 522	5.1840e+01	19.2331	61.287758	-0.000213	-2.127977	-0.720978	0.000085
 523	5.1939e+01	19.2027	61.348315	-0.000152	-1.519984	-0.514984	0.000061
 524	5.2038e+01	19.1481	61.400797	-0.000132	-1.317319	-0.446320	0.000053
 525	5.2138e+01	19.1209	61.473466	-0.000182	-1.823981	-0.617981	0.000073
 526	5.2237e+01	19.0807	61.542097	-0.000172	-1.722648	-0.583649	0.000069
 527	5.2337e+01	19.0374	61.590543	-0.000122	-1.215987	-0.411988	0.000049
 528	5.2437e+01	19.0021	61.630914	-0.000101	-1.013323	-0.343323	0.000041
 529	5.2536e+01	18.9556	61.719731	-0.000223	-2.229310	-0.755311	0.000089
 530	5.2636e+01	18.9139	61.808548	-0.000223	-2.229310	-0.755311	0.000089
 531	5.2735e+01	18.8850	61.840845	-0.000081	-0.810658	-0.274658	0.000032
 532	5.2834e+01	18.8321	61.933699	-0.000233	-2.330642	-0.789643	0.000093
 533	5.2934e+01	18.7952	61.978108	-0.000111	-1.114655	-0.377655	0.000045
 534	5.3033e+01	18.7535	62.079036	-0.000253	-2.533306	-0.858307	0.000101
 535	5.3133e+01	18.7214	62.171890	-0.000233	-2.330642	-0.789643	0.000093
 536	5.3233e+01	18.6861	62.224373	-0.000132	-1.317319	-0.446320	0.000053
 537	5.3332e+01	18.6412	62.309153	-0.000213	-2.127977	-0.720978	0.000085
 538	5.3431e+01	18.5947	62.365673	-0.000142	-1.418652	-0.480652	0.000057
 539	5.3531e+01	18.5642	62.426230	-0.000152	-1.519984	-0.514984	0.000061
 540	5.3630e+01	18.5257	62.519084	-0.000233	-2.330642	-0.789643	0.000093
 541	5.3730e+01	18.4808	62.567530	-0.000122	-1.215987	-0.411988	0.000049
 542	5.3830e+01	18.4439	62.652310	-0.000213	-2.127977	-0.720978	0.000085
 543	5.3929e+01	18.4038	62.704792	-0.000132	-1.317319	-0.446320	0.000053
 544	5.4029e+01	18.3572	62.765349	-0.000152	-1.519984	-0.514984	0.000061
 545	5.4128e+01	18.3219	62.829943	-0.000162	-1.621316	-0.549317	0.000065
 546	5.4227e+01	18.2850	62.894538	-0.000162	-1.621316	-0.549317	0.000065
 547	5.4327e+01	18.2401	62.983355	-0.000223	-2.229310	-0.755311	0.000089
 548	5.4426e+01	18.1984	63.035837	-0.000132	-1.317319	-0.446320	0.000053
 549	5.4526e+01	18.1599	63.128692	-0.000233	-2.330642	-0.789643	0.000093
 550	5.4626e+01	18.1198	63.169063	-0.000101	-1.013323	-0.343323	0.000041
 551	5.4725e+01	18.0861	63.225583	-0.000142	-1.418652	-0.480652	0.000057
 552	5.4825e+01	18.0444	63.294214	-0.000172	-1.722648	-0.583649	0.000069
 553	5.4924e+01	18.0123	63.322474	-0.000071	-0.709326	-0.240326	0.000028
 554	5.5023e+01	17.9578	63.391105	-0.000172	-1.722648	-0.583649	0.000069
 555	5.5123e+01	17.9257	63.487997	-0.000243	-2.431974	-0.823975	0.000097
 556	5.5222e+01	17.8776	63.540479	-0.000132	-1.317319	-0.446320	0.000053
 557	5.5322e+01	17.8487	63.576814	-0.000091	-0.911990	-0.308991	0.000037
 558	5.5422e+01	17.8038	63.677742	-0.000253	-2.533306	-0.858307	0.000101
 559	5.5521e+01	17.7605	63.726188	-0.000122	-1.215987	-0.411988	0.000049
 560	5.5620e+01	17.7252	63.746373	-0.000051	-0.506661	-0.171661	0.000020
 561	5.5720e+01	17.6851	63.823079	-0.000193	-1.925313	-0.652314	0.000077
 562	5.5819e+01	17.6482	63.891710	-0.000172	-1.722648	-0.583649	0.000069
 563	5.5919e+01	17.6032	63.948230	-0.000142	-1.418652	-0.480652	0.000057
 564	5.6019e+01	17.5631	63.976490	-0.000071	-0.709326	-0.240326	0.000028
 565	5.6118e+01	17.5262	64.077418	-0.000253	-2.533306	-0.858307	0.000101
 566	5.6218e+01	17.4861	64.109716	-0.000081	-0.810658	-0.274658	0.000032
 567	5.6317e+01	17.4428	64.170273	-0.000152	-1.519984	-0.514984	0.000061
 568	5.6416e+01	17.4107	64.226792	-0.000142	-1.418652	-0.480652	0.000057
 569	5.6516e+01	17.3674	64.259090	-0.000081	-0.810658	-0.274658	0.000032
 570	5.6615e+01	17.3193	64.351944	-0.000233	-2.330642	-0.789643	0.000093
 571	5.6715e+01	17.2920	64.372129	-0.000051	-0.506661	-0.171661	0.000020
 572	5.6815e+01	17.2455	64.428649	-0.000142	-1.418652	-0.480652	0.000057
 573	5.6914e+01	17.2086	64.517466	-0.000223	-2.229310	-0.755311	0.000089
 574	5.7014e+01	17.1573	64.517466	-0.000000	-0.000000	-0.000000	0.000000
 575	5.7113e+01	17.1252	64.586098	-0.000172	-1.722648	-0.583649	0.000069
 576	5.7212e+01	17.0867	64.646655	-0.000152	-1.519984	-0.514984	0.000061
 577	5.7312e+01	17.0402	64.695100	-0.000122	-1.215987	-0.411988	0.000049
 578	5.7411e+01	17.0113	64.731434	-0.000091	-0.911990	-0.308991	0.000037
 579	5.7511e+01	16.9696	64.747583	-0.000041	-0.405329	-0.137329	0.000016
 580	5.7611e+01	16.9214	64.860623	-0.000284	-2.837303	-0.961304	0.000114
 581	5.7710e+01	16.8894	64.905031	-0.000111	-1.114655	-0.377655	0.000045
 582	5.7809e+01	16.8493	64.949440	-0.000111	-1.114655	-0.377655	0.000045
 583	5.7909e+01	16.8027	65.022108	-0.000182	-1.823981	-0.617981	0.000073
 584	5.8008e+01	16.7755	65.070554	-0.000122	-1.215987	-0.411988	0.000049
 585	5.8108e+01	16.7257	65.131111	-0.000152	-1.519984	-0.514984	0.000061
 586	5.8208e+01	16.6824	65.167445	-0.000091	-0.911990	-0.308991	0.000037
 587	5.8307e+01	16.6439	65.236076	-0.000172	-1.722648	-0.583649	0.000069
 588	5.8407e+01	16.6166	65.296633	-0.000152	-1.519984	-0.514984	0.000061
 589	5.8506e+01	16.5717	65.369302	-0.000182	-1.823981	-0.617981	0.000073
 590	5.8605e+01	16.5348	65.405636	-0.000091	-0.911990	-0.308991	0.000037
 591	5.8705e+01	16.4835	65.458119	-0.000132	-1.317319	-0.446320	0.000053
 592	5.8804e+01	16.4594	65.542899	-0.000213	-2.127977	-0.720978	0.000085
 593	5.8904e+01	16.4145	65.575196	-0.000081	-0.810658	-0.274658	0.000032
 594	5.9004e+01	16.3696	65.607493	-0.000081	-0.810658	-0.274658	0.000032
 595	5.9103e+01	16.3295	65.680161	-0.000182	-1.823981	-0.617981	0.000073
 596	5.9203e+01	16.2910	65.712458	-0.000081	-0.810658	-0.274658	0.000032
 597	5.9302e+01	16.2493	65.793201	-0.000203	-2.026645	-0.686646	0.000081
 598	5.9401e+01	16.2140	65.877981	-0.000213	-2.127977	-0.720978	0.000085
 599	5.9501e+01	16.1707	65.914315	-0.000091	-0.911990	-0.308991	0.000037
 600	5.9600e+01	16.1241	65.978909	-0.000162	-1.621316	-0.549317	0.000065
 601	5.9700e+01	16.0889	66.011206	-0.000081	-0.810658	-0.274658	0.000032
 602	5.9800e+01	16.0520	66.104061	-0.000233	-2.330642	-0.789643	0.000093
 603	5.9899e+01	16.0070	66.144432	-0.000101	-1.013323	-0.343323	0.000041
 604	5.9998e+01	15.9733	66.229212	-0.000213	-2.127977	-0.720978	0.000085
 605	6.0098e+01	15.9332	66.273620	-0.000111	-1.114655	-0.377655	0.000045
 606	6.0197e+01	15.8899	66.309954	-0.000091	-0.911990	-0.308991	0.000037
 607	6.0297e+01	15.8514	66.370512	-0.000152	-1.519984	-0.514984	0.000061
 608	6.0397e+01	15.8065	66.439143	-0.000172	-1.722648	-0.583649	0.000069
 609	6.0496e+01	15.7712	66.531997	-0.000233	-2.330642	-0.789643	0.000093
 610	6.0596e+01	15.7391	66.596591	-0.000162	-1.621316	-0.549317	0.000065
 611	6.0695e+01	15.6974	66.620814	-0.000061	-0.607994	-0.205994	0.000024
 612	6.0794e+01	15.6493	66.645037	-0.000061	-0.607994	-0.205994	0.000024
 613	6.0894e+01	15.6108	66.733854	-0.000223	-2.229310	-0.755311	0.000089
 614	6.0993e+01	15.5691	66.790374	-0.000142	-1.418652	-0.480652	0.000057
 615	6.1093e+01	15.5354	66.895339	-0.000263	-2.634639	-0.892640	0.000105
 616	6.1193e+01	15.4953	66.899376	-0.000010	-0.101332	-0.034332	0.000004
 617	6.1292e+01	15.4520	66.947822	-0.000122	-1.215987	-0.411988	0.000049
 618	6.1392e+01	15.4167	67.060862	-0.000284	-2.837303	-0.961304	0.000114
 619	6.1491e+01	15.3718	67.085085	-0.000061	-0.607994	-0.205994	0.000024
 620	6.1590e+01	15.3300	67.137567	-0.000132	-1.317319	-0.446320	0.000053
 621	6.1690e+01	15.2932	67.177939	-0.000101	-1.013323	-0.343323	0.000041
 622	6.1789e+01	15.2627	67.266756	-0.000223	-2.229310	-0.755311	0.000089
 623	6.1889e+01	15.2065	67.295016	-0.000071	-0.709326	-0.240326	0.000028
 624	6.1989e+01	15.1744	67.387870	-0.000233	-2.330642	-0.789643	0.000093
 625	6.2088e+01	15.1295	67.412093	-0.000061	-0.607994	-0.205994	0.000024
 626	6.2188e+01	15.0926	67.456501	-0.000111	-1.114655	-0.377655	0.000045
 627	6.2287e+01	15.0509	67.508984	-0.000132	-1.317319	-0.446320	0.000053
 628	6.2386e+01	15.0172	67.573578	-0.000162	-1.621316	-0.549317	0.000065
 629	6.2486e+01	14.9675	67.589727	-0.000041	-0.405329	-0.137329	0.000016
 630	6.2586e+01	14.9290	67.670469	-0.000203	-2.026645	-0.686646	0.000081
 631	6.2685e+01	14.8921	67.686618	-0.000041	-0.405329	-0.137329	0.000016
 632	6.2785e+01	14.8520	67.783509	-0.000243	-2.431974	-0.823975	0.000097
 633	6.2884e+01	14.8103	67.840029	-0.000142	-1.418652	-0.480652	0.000057
 634	6.2983e+01	14.7782	67.848103	-0.000020	-0.202665	-0.068665	0.000008
 635	6.3083e+01	14.7285	67.884437	-0.000091	-0.911990	-0.308991	0.000037
 636	6.3182e+01	14.6964	68.025737	-0.000355	-3.546629	-1.201630	0.000142
 637	6.3282e+01	14.6434	68.053997	-0.000071	-0.709326	-0.240326	0.000028
 638	6.3382e+01	14.6146	68.074183	-0.000051	-0.506661	-0.171661	0.000020
 639	6.3481e+01	14.5841	68.118591	-0.000111	-1.114655	-0.377655	0.000045
 640	6.3581e+01	14.5520	68.207408	-0.000223	-2.229310	-0.755311	0.000089
 641	6.3680e+01	14.5007	68.235668	-0.000071	-0.709326	-0.240326	0.000028
 642	6.3779e+01	14.4541	68.259891	-0.000061	-0.607994	-0.205994	0.000024
 643	6.3879e+01	14.4124	68.304300	-0.000111	-1.114655	-0.377655	0.000045
 644	6.3978e+01	14.3771	68.364857	-0.000152	-1.519984	-0.514984	0.000061
 645	6.4078e+01	14.3306	68.385042	-0.000051	-0.506661	-0.171661	0.000020
 646	6.4177e+01	14.2985	68.413302	-0.000071	-0.709326	-0.240326	0.000028
 647	6.4277e+01	14.2568	68.461748	-0.000122	-1.215987	-0.411988	0.000049
 648	6.4376e+01	14.2151	68.506156	-0.000111	-1.114655	-0.377655	0.000045
 649	6.4476e+01	14.1734	68.530379	-0.000061	-0.607994	-0.205994	0.000024
 650	6.4576e+01	14.1285	68.558639	-0.000071	-0.709326	-0.240326	0.000028
 651	6.4675e+01	14.0964	68.619196	-0.000152	-1.519984	-0.514984	0.000061
 652	6.4775e+01	14.0531	68.619196	-0.000000	-0.000000	-0.000000	0.000000
 653	6.4874e+01	14.0098	68.675716	-0.000142	-1.418652	-0.480652	0.000057
 654	6.4974e+01	13.9809	68.724162	-0.000122	-1.215987	-0.411988	0.000049
 655	6.5073e+01	13.9344	68.760496	-0.000091	-0.911990	-0.308991	0.000037
 656	6.5172e+01	13.8911	68.768570	-0.000020	-0.202665	-0.068665	0.000008
 657	6.5272e+01	13.8654	68.837201	-0.000172	-1.722648	-0.583649	0.000069
 658	6.5371e+01	13.8173	68.869499	-0.000081	-0.810658	-0.274658	0.000032
 659	6.5471e+01	13.7755	68.897759	-0.000071	-0.709326	-0.240326	0.000028
 660	6.5570e+01	13.7435	68.950241	-0.000132	-1.317319	-0.446320	0.000053
 661	6.5670e+01	13.7018	69.010798	-0.000152	-1.519984	-0.514984	0.000061
 662	6.5769e+01	13.6665	68.990613	0.000051	0.506661	0.171661	-0.000020
 663	6.5869e+01	13.6151	69.039058	-0.000122	-1.215987	-0.411988	0.000049
 664	6.5969e+01	13.5895	69.067318	-0.000071	-0.709326	-0.240326	0.000028
 665	6.6068e+01	13.5349	69.091541	-0.000061	-0.607994	-0.205994	0.000024
 666	6.6168e+01	13.4964	69.139987	-0.000122	-1.215987	-0.411988	0.000049
 667	6.6267e+01	13.4659	69.160172	-0.000051	-0.506661	-0.171661	0.000020
 668	6.6367e+01	13.4194	69.160172	-0.000000	-0.000000	-0.000000	0.000000
 669	6.6466e+01	13.3825	69.192469	-0.000081	-0.810658	-0.274658	0.000032
 670	6.6566e+01	13.3408	69.212655	-0.000051	-0.506661	-0.171661	0.000020
 671	6.6665e+01	13.2959	69.204581	0.000020	0.202665	0.068665	-0.000008
 672	6.6764e+01	13.2622	69.265138	-0.000152	-1.519984	-0.514984	0.000061
 673	6.6864e+01	13.2109	69.228804	0.000091	0.911990	0.308991	-0.000037
 674	6.6963e+01	13.1852	69.281286	-0.000132	-1.317319	-0.446320	0.000053
 675	6.7063e+01	13.1419	69.317621	-0.000091	-0.911990	-0.308991	0.000037
 676	6.7162e+01	13.0986	69.321658	-0.000010	-0.101332	-0.034332	0.000004
 677	6.7262e+01	13.0617	69.357992	-0.000091	-0.911990	-0.308991	0.000037
 678	6.7362e+01	13.0151	69.370103	-0.000030	-0.303997	-0.102997	0.000012
 679	6.7461e+01	12.9815	69.386252	-0.000041	-0.405329	-0.137329	0.000016
 680	6.7561e+01	12.9365	69.414512	-0.000071	-0.709326	-0.240326	0.000028
 681	6.7660e+01	12.8996	69.450846	-0.000091	-0.911990	-0.308991	0.000037
 682	6.7760e+01	12.8579	69.426623	0.000061	0.607994	0.205994	-0.000024
 683	6.7859e+01	12.8323	69.471032	-0.000111	-1.114655	-0.377655	0.000045
 684	6.7959e+01	12.7889	69.499292	-0.000071	-0.709326	-0.240326	0.000028
 685	6.8058e+01	12.7440	69.475069	0.000061	0.607994	0.205994	-0.000024
 686	6.8157e+01	12.7103	69.519477	-0.000111	-1.114655	-0.377655	0.000045
 687	6.8257e+01	12.6574	69.495255	0.000061	0.607994	0.205994	-0.000024
 688	6.8356e+01	12.6205	69.495255	-0.000000	-0.000000	-0.000000	0.000000
 689	6.8456e+01	12.5900	69.519477	-0.000061	-0.607994	-0.205994	0.000024
 690	6.8555e+01	12.5499	69.523515	-0.000010	-0.101332	-0.034332	0.000004
 691	6.8655e+01	12.5066	69.523515	-0.000000	-0.000000	-0.000000	0.000000
 692	6.8754e+01	12.4649	69.580034	-0.000142	-1.418652	-0.480652	0.000057
 693	6.8854e+01	12.4232	69.555812	0.000061	0.607994	0.205994	-0.000024
 694	6.8954e+01	12.3895	69.571960	-0.000041	-0.405329	-0.137329	0.000016
 695	6.9053e+01	12.3494	69.563886	0.000020	0.202665	0.068665	-0.000008
 696	6.9153e+01	12.3093	69.563886	-0.000000	-0.000000	-0.000000	0.000000
 697	6.9252e+01	12.2660	69.563886	-0.000000	-0.000000	-0.000000	0.000000
 698	6.9352e+01	12.2210	69.588109	-0.000061	-0.607994	-0.205994	0.000024
 699	6.9451e+01	12.1890	69.584072	0.000010	0.101332	0.034332	-0.000004
 700	6.9550e+01	12.1456	69.580034	0.000010	0.101332	0.034332	-0.000004
 701	6.9650e+01	12.1055	69.563886	0.000041	0.405329	0.137329	-0.000016
 702	6.9749e+01	12.0654	69.571960	-0.000020	-0.202665	-0.068665	0.000008
 703	6.9849e+01	12.0269	69.563886	0.000020	0.202665	0.068665	-0.000008
 704	6.9948e+01	11.9836	69.580034	-0.000041	-0.405329	-0.137329	0.000016
 705	7.0048e+01	11.9499	69.547737	0.000081	0.810658	0.274658	-0.000032
 706	7.0147e+01	11.9178	69.588109	-0.000101	-1.013323	-0.343323	0.000041
 707	7.0247e+01	11.8713	69.535626	0.000132	1.317319	0.446320	-0.000053
 708	7.0347e+01	11.8344	69.503329	0.000081	0.810658	0.274658	-0.000032
 709	7.0446e+01	11.7895	69.479106	0.000061	0.607994	0.205994	-0.000024
 710	7.0546e+01	11.7526	69.479106	-0.000000	-0.000000	-0.000000	0.000000
 711	7.0645e+01	11.7141	69.475069	0.000010	0.101332	0.034332	-0.000004
 712	7.0745e+01	11.6676	69.454883	0.000051	0.506661	0.171661	-0.000020
 713	7.0844e+01	11.6339	69.466995	-0.000030	-0.303997	-0.102997	0.000012
 714	7.0944e+01	11.5970	69.458920	0.000020	0.202665	0.068665	-0.000008
 715	7.1043e+01	11.5489	69.438735	0.000051	0.506661	0.171661	-0.000020
 716	7.1142e+01	11.5056	69.394326	0.000111	1.114655	0.377655	-0.000045
 717	7.1242e+01	11.4719	69.370103	0.000061	0.607994	0.205994	-0.000024
 718	7.1341e+01	11.4302	69.329732	0.000101	1.013323	0.343323	-0.000041
 719	7.1441e+01	11.3981	69.325695	0.000010	0.101332	0.034332	-0.000004
 720	7.1540e+01	11.3435	69.297435	0.000071	0.709326	0.240326	-0.000028
 721	7.1640e+01	11.3066	69.269175	0.000071	0.709326	0.240326	-0.000028
 722	7.1740e+01	11.2681	69.248989	0.000051	0.506661	0.171661	-0.000020
 723	7.1839e+01	11.2248	69.216692	0.000081	0.810658	0.274658	-0.000032
 724	7.1939e+01	11.1959	69.228804	-0.000030	-0.303997	-0.102997	0.000012
 725	7.2038e+01	11.1478	69.172284	0.000142	1.418652	0.480652	-0.000057
 726	7.2138e+01	11.1093	69.099615	0.000182	1.823981	0.617981	-0.000073
 727	7.2237e+01	11.0676	69.063281	0.000091	0.911990	0.308991	-0.000037
 728	7.2337e+01	11.0275	69.107690	-0.000111	-1.114655	-0.377655	0.000045
 729	7.2436e+01	10.9938	69.043095	0.000162	1.621316	0.549317	-0.000065
 730	7.2535e+01	10.9585	69.035021	0.000020	0.202665	0.068665	-0.000008
 731	7.2635e+01	10.9088	68.994650	0.000101	1.013323	0.343323	-0.000041
 732	7.2734e+01	10.8687	68.958316	0.000091	0.911990	0.308991	-0.000037
 733	7.2834e+01	10.8254	68.873536	0.000213	2.127977	0.720978	-0.000085
 734	7.2933e+01	10.7853	68.873536	-0.000000	-0.000000	-0.000000	0.000000
 735	7.3033e+01	10.7516	68.817016	0.000142	1.418652	0.480652	-0.000057
 736	7.3132e+01	10.7163	68.804904	0.000030	0.303997	0.102997	-0.000012
 737	7.3232e+01	10.6762	68.728199	0.000193	1.925313	0.652314	-0.000077
 738	7.3332e+01	10.6329	68.732236	-0.000010	-0.101332	-0.034332	0.000004
 739	7.3431e+01	10.5960	68.691865	0.000101	1.013323	0.343323	-0.000041
 740	7.3531e+01	10.5559	68.643419	0.000122	1.215987	0.411988	-0.000049
 741	7.3630e+01	10.5109	68.607085	0.000091	0.911990	0.308991	-0.000037
 742	7.3730e+01	10.4724	68.590936	0.000041	0.405329	0.137329	-0.000016
 743	7.3829e+01	10.4243	68.510193	0.000203	2.026645	0.686646	-0.000081
 744	7.3928e+01	10.3890	68.445599	0.000162	1.621316	0.549317	-0.000065
 745	7.4028e+01	10.3489	68.401191	0.000111	1.114655	0.377655	-0.000045
 746	7.4127e+01	10.3184	68.401191	-0.000000	-0.000000	-0.000000	0.000000
 747	7.4227e+01	10.2783	68.280077	0.000304	3.039968	1.029969	-0.000122
 748	7.4326e+01	10.2302	68.255854	0.000061	0.607994	0.205994	-0.000024
 749	7.4426e+01	10.1981	68.219520	0.000091	0.911990	0.308991	-0.000037
 750	7.4525e+01	10.1580	68.158963	0.000152	1.519984	0.514984	-0.000061
 751	7.4625e+01	10.1099	68.082257	0.000193	1.925313	0.652314	-0.000077
 752	7.4725e+01	10.0714	68.021700	0.000152	1.519984	0.514984	-0.000061
 753	7.4824e+01	10.0377	67.969217	0.000132	1.317319	0.446320	-0.000053
 754	7.4924e+01	9.9880	67.928846	0.000101	1.013323	0.343323	-0.000041
 755	7.5023e+01	9.9607	67.896549	0.000081	0.810658	0.274658	-0.000032
 756	7.5123e+01	9.9126	67.827918	0.000172	1.722648	0.583649	-0.000069
 757	7.5222e+01	9.8692	67.755249	0.000182	1.823981	0.617981	-0.000073
 758	7.5322e+01	9.8323	67.646246	0.000274	2.735971	0.926972	-0.000110
 759	7.5421e+01	9.7954	67.638172	0.000020	0.202665	0.068665	-0.000008
 760	7.5520e+01	9.7569	67.569541	0.000172	1.722648	0.583649	-0.000069
 761	7.5620e+01	9.7152	67.513021	0.000142	1.418652	0.480652	-0.000057
 762	7.5719e+01	9.6735	67.428241	0.000213	2.127977	0.720978	-0.000085
 763	7.5819e+01	9.6350	67.351536	0.000193	1.925313	0.652314	-0.000077
 764	7.5918e+01	9.5933	67.290978	0.000152	1.519984	0.514984	-0.000061
 765	7.6018e+01	9.5612	67.226384	0.000162	1.621316	0.549317	-0.000065
 766	7.6118e+01	9.5163	67.121419	0.000263	2.634639	0.892640	-0.000105
 767	7.6217e+01	9.4714	67.085085	0.000091	0.911990	0.308991	-0.000037
 768	7.6317e+01	9.4393	66.988193	0.000243	2.431974	0.823975	-0.000097
 769	7.6416e+01	9.3928	66.907451	0.000203	2.026645	0.686646	-0.000081
 770	7.6516e+01	9.3479	66.859005	0.000122	1.215987	0.411988	-0.000049
 771	7.6615e+01	9.3158	66.774225	0.000213	2.127977	0.720978	-0.000085
 772	7.6715e+01	9.2837	66.681371	0.000233	2.330642	0.789643	-0.000093
 773	7.6814e+01	9.2388	66.624851	0.000142	1.418652	0.480652	-0.000057
 774	7.6913e+01	9.1987	66.527960	0.000243	2.431974	0.823975	-0.000097
 775	7.7013e+01	9.1521	66.447217	0.000203	2.026645	0.686646	-0.000081
 776	7.7112e+01	9.1185	66.362437	0.000213	2.127977	0.720978	-0.000085
 777	7.7212e+01	9.0848	66.273620	0.000223	2.229310	0.755311	-0.000089
 778	7.7311e+01	9.0415	66.176729	0.000243	2.431974	0.823975	-0.000097
 779	7.7411e+01	8.9933	66.104061	0.000182	1.823981	0.617981	-0.000073
 780	7.7510e+01	8.9580	66.023318	0.000203	2.026645	0.686646	-0.000081
 781	7.7610e+01	8.9131	65.906241	0.000294	2.938635	0.995637	-0.000118
 782	7.7710e+01	8.8762	65.841647	0.000162	1.621316	0.549317	-0.000065
 783	7.7809e+01	8.8393	65.773015	0.000172	1.722648	0.583649	-0.000069
 784	7.7909e+01	8.7960	65.680161	0.000233	2.330642	0.789643	-0.000093
 785	7.8008e+01	8.7623	65.595381	0.000213	2.127977	0.720978	-0.000085
 786	7.8108e+01	8.7254	65.498490	0.000243	2.431974	0.823975	-0.000097
 787	7.8207e+01	8.6821	65.417747	0.000203	2.026645	0.686646	-0.000081
 788	7.8306e+01	8.6436	65.328931	0.000223	2.229310	0.755311	-0.000089
 789	7.8406e+01	8.5923	65.228002	0.000253	2.533306	0.858307	-0.000101
 790	7.8505e+01	8.5666	65.135148	0.000233	2.330642	0.789643	-0.000093
 791	7.8605e+01	8.5233	65.046331	0.000223	2.229310	0.755311	-0.000089
 792	7.8704e+01	8.4768	64.977700	0.000172	1.722648	0.583649	-0.000069
 793	7.8804e+01	8.4543	64.856586	0.000304	3.039968	1.029969	-0.000122
 794	7.8903e+01	8.4094	64.775843	0.000203	2.026645	0.686646	-0.000081
 795	7.9003e+01	8.3613	64.678952	0.000243	2.431974	0.823975	-0.000097
 796	7.9103e+01	8.3212	64.569949	0.000274	2.735971	0.926972	-0.000110
 797	7.9202e+01	8.2762	64.464983	0.000263	2.634639	0.892640	-0.000105
 798	7.9302e+01	8.2425	64.351944	0.000284	2.837303	0.961304	-0.000114
 799	7.9401e+01	8.1960	64.259090	0.000233	2.330642	0.789643	-0.000093
 800	7.9501e+01	8.1671	64.170273	0.000223	2.229310	0.755311	-0.000089
 801	7.9600e+01	8.1222	64.065307	0.000263	2.634639	0.892640	-0.000105
 802	7.9700e+01	8.0837	63.944193	0.000304	3.039968	1.029969	-0.000122
 803	7.9799e+01	8.0500	63.867487	0.000193	1.925313	0.652314	-0.000077
 804	7.9898e+01	8.0003	63.746373	0.000304	3.039968	1.029969	-0.000122
 805	7.9998e+01	7.9538	63.621222	0.000314	3.141300	1.064301	-0.000126
 806	8.0097e+01	7.9233	63.504145	0.000294	2.938635	0.995637	-0.000118
 807	8.0197e+01	7.8880	63.427440	0.000193	1.925313	0.652314	-0.000077
 808	8.0296e+01	7.8319	63.278066	0.000375	3.749294	1.270295	-0.000150
 809	8.0396e+01	7.8014	63.181174	0.000243	2.431974	0.823975	-0.000097
 810	8.0496e+01	7.7677	63.088320	0.000233	2.330642	0.789643	-0.000093
 811	8.0595e+01	7.7292	62.963169	0.000314	3.141300	1.064301	-0.000126
 812	8.0695e+01	7.6779	62.862241	0.000253	2.533306	0.858307	-0.000101
 813	8.0794e+01	7.6490	62.708829	0.000385	3.850626	1.304627	-0.000154
 814	8.0894e+01	7.6057	62.599827	0.000274	2.735971	0.926972	-0.000110
 815	8.0993e+01	7.5672	62.506973	0.000233	2.330642	0.789643	-0.000093
 816	8.1093e+01	7.5383	62.361636	0.000365	3.647961	1.235963	-0.000146
 817	8.1192e+01	7.4789	62.280893	0.000203	2.026645	0.686646	-0.000081
 818	8.1291e+01	7.4372	62.103259	0.000446	4.458619	1.510621	-0.000179
 819	8.1391e+01	7.4100	61.986182	0.000294	2.938635	0.995637	-0.000118
 820	8.1490e+01	7.3666	61.873142	0.000284	2.837303	0.961304	-0.000114
 821	8.1590e+01	7.3313	61.764140	0.000274	2.735971	0.926972	-0.000110
 822	8.1689e+01	7.2864	61.586506	0.000446	4.458619	1.510621	-0.000179
 823	8.1789e+01	7.2415	61.521912	0.000162	1.621316	0.549317	-0.000065
 824	8.1888e+01	7.2014	61.344278	0.000446	4.458619	1.510621	-0.000179
 825	8.1988e+01	7.1645	61.211052	0.000334	3.343965	1.132966	-0.000134
 826	8.2088e+01	7.1228	61.065715	0.000365	3.647961	1.235963	-0.000146
 827	8.2187e+01	7.0859	60.960750	0.000263	2.634639	0.892640	-0.000105
 828	8.2287e+01	7.0522	60.823487	0.000345	3.445297	1.167298	-0.000138
 829	8.2386e+01	7.0105	60.690262	0.000334	3.343965	1.132966	-0.000134
 830	8.2486e+01	6.9656	60.581259	0.000274	2.735971	0.926972	-0.000110
 831	8.2585e+01	6.9271	60.415736	0.000415	4.154623	1.407624	-0.000166
 832	8.2684e+01	6.8902	60.294622	0.000304	3.039968	1.029969	-0.000122
 833	8.2784e+01	6.8404	60.145248	0.000375	3.749294	1.270295	-0.000150
 834	8.2883e+01	6.8052	60.028171	0.000294	2.938635	0.995637	-0.000118
 835	8.2983e+01	6.7667	59.878797	0.000375	3.749294	1.270295	-0.000150
 836	8.3082e+01	6.7330	59.761720	0.000294	2.938635	0.995637	-0.000118
 837	8.3182e+01	6.6880	59.608309	0.000385	3.850626	1.304627	-0.000154
 838	8.3281e+01	6.6495	59.438749	0.000426	4.255955	1.441957	-0.000170
 839	8.3381e+01	6.5998	59.293413	0.000365	3.647961	1.235963	-0.000146
 840	8.3481e+01	6.5677	59.160187	0.000334	3.343965	1.132966	-0.000134
 841	8.3580e+01	6.5324	59.014850	0.000365	3.647961	1.235963	-0.000146
 842	8.3680e+01	6.4843	58.877588	0.000345	3.445297	1.167298	-0.000138
 843	8.3779e+01	6.4490	58.748399	0.000324	3.242632	1.098634	-0.000130
 844	8.3879e+01	6.4105	58.586914	0.000405	4.053290	1.373292	-0.000162
 845	8.3978e+01	6.3736	58.453688	0.000334	3.343965	1.132966	-0.000134
 846	8.4078e+01	6.3255	58.308351	0.000365	3.647961	1.235963	-0.000146
 847	8.4177e+01	6.2854	58.130717	0.000446	4.458619	1.510621	-0.000179
 848	8.4276e+01	6.2661	58.001529	0.000324	3.242632	1.098634	-0.000130
 849	8.4376e+01	6.2068	57.852155	0.000375	3.749294	1.270295	-0.000150
 850	8.4475e+01	6.1747	57.682595	0.000426	4.255955	1.441957	-0.000170
 851	8.4575e+01	6.1346	57.569556	0.000284	2.837303	0.961304	-0.000114
 852	8.4674e+01	6.0929	57.371736	0.000497	4.965281	1.682283	-0.000199
 853	8.4774e+01	6.0464	57.230436	0.000355	3.546629	1.201630	-0.000142
 854	8.4874e+01	6.0159	57.077025	0.000385	3.850626	1.304627	-0.000154
 855	8.4973e+01	5.9774	56.899391	0.000446	4.458619	1.510621	-0.000179
 856	8.5073e+01	5.9357	56.745980	0.000385	3.850626	1.304627	-0.000154
 857	8.5172e+01	5.8972	56.628903	0.000294	2.938635	0.995637	-0.000118
 858	8.5272e+01	5.8554	56.435120	0.000486	4.863948	1.647950	-0.000195
 859	8.5371e+01	5.8186	56.281709	0.000385	3.850626	1.304627	-0.000154
 860	8.5471e+01	5.7784	56.108112	0.000436	4.357287	1.476289	-0.000174
 861	8.5570e+01	5.7335	55.954701	0.000385	3.850626	1.304627	-0.000154
 862	8.5669e+01	5.6950	55.813402	0.000355	3.546629	1.201630	-0.000142
 863	8.5769e+01	5.6517	55.655953	0.000395	3.951958	1.338960	-0.000158
 864	8.5868e+01	5.6148	55.482356	0.000436	4.357287	1.476289	-0.000174
 865	8.5968e+01	5.5843	55.312797	0.000426	4.255955	1.441957	-0.000170
 866	8.6067e+01	5.5346	55.119014	0.000486	4.863948	1.647950	-0.000195
 867	8.6167e+01	5.4897	54.981752	0.000345	3.445297	1.167298	-0.000138
 868	8.6266e+01	5.4528	54.796043	0.000466	4.661284	1.579286	-0.000187
 869	8.6366e+01	5.4143	54.646669	0.000375	3.749294	1.270295	-0.000150
 870	8.6466e+01	5.3790	54.416553	0.000578	5.775939	1.956941	-0.000231
 871	8.6565e+01	5.3293	54.259104	0.000395	3.951958	1.338960	-0.000158
 872	8.6665e+01	5.2988	54.121842	0.000345	3.445297	1.167298	-0.000138
 873	8.6764e+01	5.2603	53.932096	0.000476	4.762616	1.613618	-0.000191
 874	8.6864e+01	5.2170	53.778685	0.000385	3.850626	1.304627	-0.000154
 875	8.6963e+01	5.1720	53.645460	0.000334	3.343965	1.132966	-0.000134
 876	8.7063e+01	5.1432	53.419380	0.000567	5.674606	1.922609	-0.000227
 877	8.7162e+01	5.0934	53.265969	0.000385	3.850626	1.304627	-0.000154
 878	8.7261e+01	5.0565	53.064112	0.000507	5.066613	1.716615	-0.000203
 879	8.7361e+01	5.0148	52.898590	0.000415	4.154623	1.407624	-0.000166
 880	8.7460e+01	4.9827	52.724993	0.000436	4.357287	1.476289	-0.000174
 881	8.7560e+01	4.9394	52.555433	0.000426	4.255955	1.441957	-0.000170
 882	8.7659e+01	4.8929	52.365688	0.000476	4.762616	1.613618	-0.000191
 883	8.7759e+01	4.8624	52.196128	0.000426	4.255955	1.441957	-0.000170
 884	8.7859e+01	4.8175	52.014457	0.000456	4.559952	1.544953	-0.000183
 885	8.7958e+01	4.7662	51.828749	0.000466	4.661284	1.579286	-0.000187
 886	8.8058e+01	4.7309	51.655152	0.000436	4.357287	1.476289	-0.000174
 887	8.8157e+01	4.6940	51.481555	0.000436	4.357287	1.476289	-0.000174
 888	8.8257e+01	4.6619	51.259512	0.000557	5.573274	1.888276	-0.000223
 889	8.8356e+01	4.6282	51.077841	0.000456	4.559952	1.544953	-0.000183
 890	8.8456e+01	4.5753	50.892133	0.000466	4.661284	1.579286	-0.000187
 891	8.8555e+01	4.5304	50.742759	0.000375	3.749294	1.270295	-0.000150
 892	8.8654e+01	4.5047	50.504568	0.000598	5.978603	2.025606	-0.000239
 893	8.8754e+01	4.4534	50.371343	0.000334	3.343965	1.132966	-0.000134
 894	8.8853e+01	4.4148	50.213894	0.000395	3.951958	1.338960	-0.000158
 895	8.8953e+01	4.3780	49.991852	0.000557	5.573274	1.888276	-0.000223
 896	8.9052e+01	4.3330	49.810181	0.000456	4.559952	1.544953	-0.000183
 897	8.9152e+01	4.3009	49.596213	0.000537	5.370610	1.819612	-0.000215
 898	8.9251e+01	4.2560	49.450876	0.000365	3.647961	1.235963	-0.000146
 899	8.9351e+01	4.2175	49.269205	0.000456	4.559952	1.544953	-0.000183
 900	8.9451e+01	4.1742	49.055236	0.000537	5.370610	1.819612	-0.000215
 901	8.9550e+01	4.1341	48.857417	0.000497	4.965281	1.682283	-0.000199
 902	8.9650e+01	4.0940	48.655560	0.000507	5.066613	1.716615	-0.000203
 903	8.9749e+01	4.0523	48.481963	0.000436	4.357287	1.476289	-0.000174
 904	8.9849e+01	4.0170	48.308366	0.000436	4.357287	1.476289	-0.000174
 905	8.9948e+01	3.9801	48.106509	0.000507	5.066613	1.716615	-0.000203
 906	9.0047e+01	3.9320	47.900616	0.000517	5.167945	1.750947	-0.000207
 907	9.0147e+01	3.8951	47.747204	0.000385	3.850626	1.304627	-0.000154
 908	9.0246e+01	3.8614	47.504976	0.000608	6.079935	2.059938	-0.000243
 909	9.0346e+01	3.8229	47.351565	0.000385	3.850626	1.304627	-0.000154
 910	9.0445e+01	3.7764	47.145671	0.000517	5.167945	1.750947	-0.000207
 911	9.0545e+01	3.7363	46.959963	0.000466	4.661284	1.579286	-0.000187
 912	9.0644e+01	3.7026	46.745995	0.000537	5.370610	1.819612	-0.000215
 913	9.0744e+01	3.6625	46.576435	0.000426	4.255955	1.441957	-0.000170
 914	9.0844e+01	3.6175	46.370541	0.000517	5.167945	1.750947	-0.000207
 915	9.0943e+01	3.5806	46.180796	0.000476	4.762616	1.613618	-0.000191
 916	9.1043e+01	3.5325	45.987013	0.000486	4.863948	1.647950	-0.000195
 917	9.1142e+01	3.4988	45.801305	0.000466	4.661284	1.579286	-0.000187
 918	9.1242e+01	3.4619	45.611560	0.000476	4.762616	1.613618	-0.000191
 919	9.1341e+01	3.4218	45.433926	0.000446	4.458619	1.510621	-0.000179
 920	9.1441e+01	3.3833	45.215920	0.000547	5.471942	1.853944	-0.000219
 921	9.1540e+01	3.3416	44.985804	0.000578	5.775939	1.956941	-0.000231
 922	9.1639e+01	3.2983	44.808170	0.000446	4.458619	1.510621	-0.000179
 923	9.1739e+01	3.2662	44.630536	0.000446	4.458619	1.510621	-0.000179
 924	9.1838e+01	3.2181	44.384270	0.000618	6.181268	2.094270	-0.000248
 925	9.1938e+01	3.1892	44.214711	0.000426	4.255955	1.441957	-0.000170
 926	9.2037e+01	3.1475	44.037077	0.000446	4.458619	1.510621	-0.000179
 927	9.2137e+01	3.0978	43.823108	0.000537	5.370610	1.819612	-0.000215
 928	9.2237e+01	3.0673	43.605103	0.000547	5.471942	1.853944	-0.000219
 929	9.2336e+01	3.0111	43.387098	0.000547	5.471942	1.853944	-0.000219
 930	9.2436e+01	2.9823	43.249835	0.000345	3.445297	1.167298	-0.000138
 931	9.2535e+01	2.9390	43.007607	0.000608	6.079935	2.059938	-0.000243
 932	9.2635e+01	2.8972	42.793639	0.000537	5.370610	1.819612	-0.000215
 933	9.2734e+01	2.8620	42.559485	0.000588	5.877271	1.991273	-0.000235
 934	9.2834e+01	2.8283	42.414148	0.000365	3.647961	1.235963	-0.000146
 935	9.2933e+01	2.7849	42.200180	0.000537	5.370610	1.819612	-0.000215
 936	9.3032e+01	2.7384	41.986212	0.000537	5.370610	1.819612	-0.000215
 937	9.3132e+01	2.6919	41.808578	0.000446	4.458619	1.510621	-0.000179
 938	9.3231e+01	2.6678	41.570387	0.000598	5.978603	2.025606	-0.000239
 939	9.3331e+01	2.6325	41.388716	0.000456	4.559952	1.544953	-0.000183
 940	9.3430e+01	2.5860	41.158599	0.000578	5.775939	1.956941	-0.000231
 941	9.3530e+01	2.5443	40.928482	0.000578	5.775939	1.956941	-0.000231
 942	9.3629e+01	2.5042	40.771034	0.000395	3.951958	1.338960	-0.000158
 943	9.3729e+01	2.4609	40.548991	0.000557	5.573274	1.888276	-0.000223
 944	9.3829e+01	2.4288	40.335023	0.000537	5.370610	1.819612	-0.000215
 945	9.3928e+01	2.3807	40.129129	0.000517	5.167945	1.750947	-0.000207
 946	9.4028e+01	2.3454	39.935347	0.000486	4.863948	1.647950	-0.000195
 947	9.4127e+01	2.2957	39.765787	0.000426	4.255955	1.441957	-0.000170
 948	9.4227e+01	2.2700	39.519522	0.000618	6.181268	2.094270	-0.000248
 949	9.4326e+01	2.2251	39.317665	0.000507	5.066613	1.716615	-0.000203
 950	9.4425e+01	2.1737	39.083511	0.000588	5.877271	1.991273	-0.000235
 951	9.4525e+01	2.1465	38.857431	0.000567	5.674606	1.922609	-0.000227
 952	9.4624e+01	2.1048	38.667686	0.000476	4.762616	1.613618	-0.000191
 953	9.4724e+01	2.0630	38.461792	0.000517	5.167945	1.750947	-0.000207
 954	9.4823e+01	2.0245	38.247824	0.000537	5.370610	1.819612	-0.000215
 955	9.4923e+01	1.9860	38.062116	0.000466	4.661284	1.579286	-0.000187
 956	9.5022e+01	1.9363	37.827962	0.000588	5.877271	1.991273	-0.000235
 957	9.5122e+01	1.9010	37.622068	0.000517	5.167945	1.750947	-0.000207
 958	9.5222e+01	1.8625	37.395988	0.000567	5.674606	1.922609	-0.000227
 959	9.5321e+01	1.8224	37.202206	0.000486	4.863948	1.647950	-0.000195
 960	9.5421e+01	1.7839	37.000349	0.000507	5.066613	1.716615	-0.000203
 961	9.5520e+01	1.7486	36.770232	0.000578	5.775939	1.956941	-0.000231
 962	9.5620e+01	1.7133	36.588561	0.000456	4.559952	1.544953	-0.000183
 963	9.5719e+01	1.6700	36.374593	0.000537	5.370610	1.819612	-0.000215
 964	9.5819e+01	1.6267	36.128328	0.000618	6.181268	2.094270	-0.000248
 965	9.5918e+01	1.5898	35.966842	0.000405	4.053290	1.373292	-0.000162
 966	9.6017e+01	1.5401	35.740763	0.000567	5.674606	1.922609	-0.000227
 967	9.6117e+01	1.5032	35.542943	0.000497	4.965281	1.682283	-0.000199
 968	9.6216e+01	1.4695	35.337049	0.000517	5.167945	1.750947	-0.000207
 969	9.6316e+01	1.4246	35.106932	0.000578	5.775939	1.956941	-0.000231
 970	9.6415e+01	1.3909	34.929298	0.000446	4.458619	1.510621	-0.000179
 971	9.6515e+01	1.3540	34.707256	0.000557	5.573274	1.888276	-0.000223
 972	9.6615e+01	1.3123	34.448879	0.000649	6.485265	2.197267	-0.000260
 973	9.6714e+01	1.2722	34.287394	0.000405	4.053290	1.373292	-0.000162
 974	9.6814e+01	1.2256	34.065351	0.000557	5.573274	1.888276	-0.000223
 975	9.6913e+01	1.1952	33.855420	0.000527	5.269277	1.785280	-0.000211
 976	9.7013e+01	1.1454	33.625304	0.000578	5.775939	1.956941	-0.000231
 977	9.7112e+01	1.1085	33.403261	0.000557	5.573274	1.888276	-0.000223
 978	9.7212e+01	1.0716	33.225627	0.000446	4.458619	1.510621	-0.000179
 979	9.7311e+01	1.0235	33.003585	0.000557	5.573274	1.888276	-0.000223
 980	9.7410e+01	0.9882	32.785579	0.000547	5.471942	1.853944	-0.000219
 981	9.7510e+01	0.9465	32.595834	0.000476	4.762616	1.613618	-0.000191
 982	9.7609e+01	0.9144	32.402051	0.000486	4.863948	1.647950	-0.000195
 983	9.7709e+01	0.8727	32.159823	0.000608	6.079935	2.059938	-0.000243
 984	9.7808e+01	0.8326	31.941818	0.000547	5.471942	1.853944	-0.000219
 985	9.7908e+01	0.7909	31.699590	0.000608	6.079935	2.059938	-0.000243
 986	9.8007e+01	0.7492	31.505807	0.000486	4.863948	1.647950	-0.000195
 987	9.8107e+01	0.7027	31.312025	0.000486	4.863948	1.647950	-0.000195
 988	9.8207e+01	0.6706	31.081908	0.000578	5.775939	1.956941	-0.000231
 989	9.8306e+01	0.6273	30.871977	0.000527	5.269277	1.785280	-0.000211
 990	9.8406e+01	0.5952	30.653972	0.000547	5.471942	1.853944	-0.000219
 991	9.8505e+01	0.5583	30.464226	0.000476	4.762616	1.613618	-0.000191
 992	9.8605e+01	0.5085	30.205850	0.000649	6.485265	2.197267	-0.000260
 993	9.8704e+01	0.4668	30.012067	0.000486	4.863948	1.647950	-0.000195
 994	9.8803e+01	0.4299	29.798099	0.000537	5.370610	1.819612	-0.000215
 995	9.8903e+01	0.3882	29.563945	0.000588	5.877271	1.991273	-0.000235
 996	9.9002e+01	0.3577	29.366125	0.000497	4.965281	1.682283	-0.000199
 997	9.9102e+01	0.3128	29.160231	0.000517	5.167945	1.750947	-0.000207
 998	9.9201e+01	0.2743	28.978560	0.000456	4.559952	1.544953	-0.000183
 999	9.9301e+01	0.2294	28.724221	0.000638	6.383932	2.162935	-0.000256
1000	9.9400e+01	0.1845	28.502178	0.000557	5.573274	1.888276	-0.000223
1001	9.9500e+01	0.1588	28.288210	0.000537	5.370610	1.819612	-0.000215
1002	9.9600e+01	0.1043	28.054056	0.000588	5.877271	1.991273	-0.000235
1003	9.9699e+01	0.0722	27.884497	0.000426	4.255955	1.441957	-0.000170
1004	9.9799e+01	0.0401	27.650343	0.000588	5.877271	1.991273	-0.000235
1005	9.9898e+01	0.0032	27.456560	0.000486	4.863948	1.647950	-0.000195
1006	9.9998e+01	-0.0481	27.270852	0.000466	4.661284	1.579286	-0.000187
1007	1.0010e+02	-0.0770	27.020549	0.000628	6.282600	2.128603	-0.000252
1008	1.0020e+02	-0.1235	26.867138	0.000385	3.850626	1.304627	-0.000154
1009	1.0030e+02	-0.1604	26.628947	0.000598	5.978603	2.025606	-0.000239
1010	1.0040e+02	-0.2005	26.431128	0.000497	4.965281	1.682283	-0.000199
1011	1.0050e+02	-0.2454	26.237345	0.000486	4.863948	1.647950	-0.000195
1012	1.0059e+02	-0.2775	26.007228	0.000578	5.775939	1.956941	-0.000231
1013	1.0069e+02	-0.3208	25.785186	0.000557	5.573274	1.888276	-0.000223
1014	1.0079e+02	-0.3577	25.567181	0.000547	5.471942	1.853944	-0.000219
1015	1.0089e+02	-0.4059	25.361287	0.000517	5.167945	1.750947	-0.000207
1016	1.0099e+02	-0.4331	25.131170	0.000578	5.775939	1.956941	-0.000231
1017	1.0109e+02	-0.4765	24.937387	0.000486	4.863948	1.647950	-0.000195
1018	1.0119e+02	-0.5150	24.711308	0.000567	5.674606	1.922609	-0.000227
1019	1.0129e+02	-0.5599	24.545785	0.000415	4.154623	1.407624	-0.000166
1020	1.0139e+02	-0.6000	24.295483	0.000628	6.282600	2.128603	-0.000252
1021	1.0149e+02	-0.6353	24.073440	0.000557	5.573274	1.888276	-0.000223
1022	1.0159e+02	-0.6802	23.831212	0.000608	6.079935	2.059938	-0.000243
1023	1.0169e+02	-0.7139	23.673764	0.000395	3.951958	1.338960	-0.000158
1024	1.0179e+02	-0.7476	23.475944	0.000497	4.965281	1.682283	-0.000199
1025	1.0189e+02	-0.8005	23.221605	0.000638	6.383932	2.162935	-0.000256
1026	1.0199e+02	-0.8326	23.015711	0.000517	5.167945	1.750947	-0.000207
1027	1.0209e+02	-0.8743	22.805780	0.000527	5.269277	1.785280	-0.000211
1028	1.0219e+02	-0.9144	22.607960	0.000497	4.965281	1.682283	-0.000199
1029	1.0229e+02	-0.9593	22.381881	0.000567	5.674606	1.922609	-0.000227
1030	1.0239e+02	-0.9946	22.167912	0.000537	5.370610	1.819612	-0.000215
1031	1.0248e+02	-1.0347	21.937796	0.000578	5.775939	1.956941	-0.000231
1032	1.0258e+02	-1.0700	21.735939	0.000507	5.066613	1.716615	-0.000203
1033	1.0268e+02	-1.1246	21.542156	0.000486	4.863948	1.647950	-0.000195
1034	1.0278e+02	-1.1583	21.308002	0.000588	5.877271	1.991273	-0.000235
1035	1.0288e+02	-1.1952	21.098071	0.000527	5.269277	1.785280	-0.000211
1036	1.0298e+02	-1.2433	20.863917	0.000588	5.877271	1.991273	-0.000235
1037	1.0308e+02	-1.2641	20.641875	0.000557	5.573274	1.888276	-0.000223
1038	1.0318e+02	-1.3139	20.460204	0.000456	4.559952	1.544953	-0.000183
1039	1.0328e+02	-1.3620	20.262384	0.000497	4.965281	1.682283	-0.000199
1040	1.0338e+02	-1.3941	20.032268	0.000578	5.775939	1.956941	-0.000231
1041	1.0348e+02	-1.4310	19.858671	0.000436	4.357287	1.476289	-0.000174
1042	1.0358e+02	-1.4695	19.632591	0.000567	5.674606	1.922609	-0.000227
1043	1.0368e+02	-1.5192	19.414586	0.000547	5.471942	1.853944	-0.000219
1044	1.0378e+02	-1.5513	19.224840	0.000476	4.762616	1.613618	-0.000191
1045	1.0388e+02	-1.5930	18.998761	0.000567	5.674606	1.922609	-0.000227
1046	1.0398e+02	-1.6347	18.784793	0.000537	5.370610	1.819612	-0.000215
1047	1.0408e+02	-1.6764	18.542564	0.000608	6.079935	2.059938	-0.000243
1048	1.0418e+02	-1.7133	18.377042	0.000415	4.154623	1.407624	-0.000166
1049	1.0428e+02	-1.7470	18.138851	0.000598	5.978603	2.025606	-0.000239
1050	1.0438e+02	-1.7903	17.936994	0.000507	5.066613	1.716615	-0.000203
1051	1.0447e+02	-1.8368	17.714952	0.000557	5.573274	1.888276	-0.000223
1052	1.0457e+02	-1.8818	17.480798	0.000588	5.877271	1.991273	-0.000235
1053	1.0467e+02	-1.9203	17.287015	0.000486	4.863948	1.647950	-0.000195
1054	1.0477e+02	-1.9507	17.085158	0.000507	5.066613	1.716615	-0.000203
1055	1.0487e+02	-1.9941	16.855042	0.000578	5.775939	1.956941	-0.000231
1056	1.0497e+02	-2.0454	16.624925	0.000578	5.775939	1.956941	-0.000231
1057	1.0507e+02	-2.0679	16.431142	0.000486	4.863948	1.647950	-0.000195
1058	1.0517e+02	-2.1048	16.192951	0.000598	5.978603	2.025606	-0.000239
1059	1.0527e+02	-2.1481	16.055689	0.000345	3.445297	1.167298	-0.000138
1060	1.0537e+02	-2.1930	15.817498	0.000598	5.978603	2.025606	-0.000239
1061	1.0547e+02	-2.2283	15.567195	0.000628	6.282600	2.128603	-0.000252
1062	1.0557e+02	-2.2764	15.345153	0.000557	5.573274	1.888276	-0.000223
1063	1.0567e+02	-2.3117	15.147333	0.000497	4.965281	1.682283	-0.000199
1064	1.0577e+02	-2.3518	14.949514	0.000497	4.965281	1.682283	-0.000199
1065	1.0587e+02	-2.3903	14.719397	0.000578	5.775939	1.956941	-0.000231
1066	1.0597e+02	-2.4336	14.537726	0.000456	4.559952	1.544953	-0.000183
1067	1.0607e+02	-2.4721	14.356055	0.000456	4.559952	1.544953	-0.000183
1068	1.0617e+02	-2.5058	14.085567	0.000679	6.789261	2.300264	-0.000272
1069	1.0627e+02	-2.5507	13.895821	0.000476	4.762616	1.613618	-0.000191
1070	1.0637e+02	-2.5924	13.710113	0.000466	4.661284	1.579286	-0.000187
1071	1.0647e+02	-2.6325	13.500182	0.000527	5.269277	1.785280	-0.000211
1072	1.0656e+02	-2.6807	13.302362	0.000497	4.965281	1.682283	-0.000199
1073	1.0666e+02	-2.7031	13.096468	0.000517	5.167945	1.750947	-0.000207
1074	1.0676e+02	-2.7481	12.886537	0.000527	5.269277	1.785280	-0.000211
1075	1.0686e+02	-2.7930	12.668532	0.000547	5.471942	1.853944	-0.000219
1076	1.0696e+02	-2.8331	12.470712	0.000497	4.965281	1.682283	-0.000199
1077	1.0706e+02	-2.8603	12.236558	0.000588	5.877271	1.991273	-0.000235
1078	1.0716e+02	-2.9149	12.026627	0.000527	5.269277	1.785280	-0.000211
1079	1.0726e+02	-2.9454	11.840919	0.000466	4.661284	1.579286	-0.000187
1080	1.0736e+02	-2.9951	11.598691	0.000608	6.079935	2.059938	-0.000243
1081	1.0746e+02	-3.0272	11.421057	0.000446	4.458619	1.510621	-0.000179
1082	1.0756e+02	-3.0737	11.194977	0.000567	5.674606	1.922609	-0.000227
1083	1.0766e+02	-3.1090	11.017343	0.000446	4.458619	1.510621	-0.000179
1084	1.0776e+02	-3.1507	10.779152	0.000598	5.978603	2.025606	-0.000239
1085	1.0786e+02	-3.1844	10.585370	0.000486	4.863948	1.647950	-0.000195
1086	1.0796e+02	-3.2293	10.415810	0.000426	4.255955	1.441957	-0.000170
1087	1.0806e+02	-3.2726	10.177619	0.000598	5.978603	2.025606	-0.000239
1088	1.0816e+02	-3.3143	9.915205	0.000659	6.586597	2.231599	-0.000264
1089	1.0826e+02	-3.3512	9.786017	0.000324	3.242632	1.098634	-0.000130
1090	1.0836e+02	-3.3849	9.551863	0.000588	5.877271	1.991273	-0.000235
1091	1.0845e+02	-3.4170	9.317709	0.000588	5.877271	1.991273	-0.000235
1092	1.0855e+02	-3.4716	9.111815	0.000517	5.167945	1.750947	-0.000207
1093	1.0865e+02	-3.5085	8.893810	0.000547	5.471942	1.853944	-0.000219
1094	1.0875e+02	-3.5421	8.732325	0.000405	4.053290	1.373292	-0.000162
1095	1.0885e+02	-3.5903	8.522394	0.000527	5.269277	1.785280	-0.000211
1096	1.0895e+02	-3.6224	8.304388	0.000547	5.471942	1.853944	-0.000219
1097	1.0905e+02	-3.6689	8.074271	0.000578	5.775939	1.956941	-0.000231
1098	1.0915e+02	-3.7122	7.880489	0.000486	4.863948	1.647950	-0.000195
1099	1.0925e+02	-3.7523	7.654409	0.000567	5.674606	1.922609	-0.000227
1100	1.0935e+02	-3.7892	7.468701	0.000466	4.661284	1.579286	-0.000187
1101	1.0945e+02	-3.8197	7.238584	0.000578	5.775939	1.956941	-0.000231
1102	1.0955e+02	-3.8630	7.060950	0.000446	4.458619	1.510621	-0.000179
1103	1.0965e+02	-3.9095	6.851019	0.000527	5.269277	1.785280	-0.000211
1104	1.0975e+02	-3.9448	6.641088	0.000527	5.269277	1.785280	-0.000211
1105	1.0985e+02	-3.9849	6.431157	0.000527	5.269277	1.785280	-0.000211
1106	1.0995e+02	-4.0250	6.213152	0.000547	5.471942	1.853944	-0.000219
1107	1.1005e+02	-4.0651	6.047629	0.000415	4.154623	1.407624	-0.000166
1108	1.1015e+02	-4.1020	5.797327	0.000628	6.282600	2.128603	-0.000252
1109	1.1025e+02	-4.1389	5.631804	0.000415	4.154623	1.407624	-0.000166
1110	1.1035e+02	-4.1919	5.425910	0.000517	5.167945	1.750947	-0.000207
1111	1.1044e+02	-4.2207	5.187719	0.000598	5.978603	2.025606	-0.000239
1112	1.1054e+02	-4.2673	4.973751	0.000537	5.370610	1.819612	-0.000215
1113	1.1064e+02	-4.3090	4.824377	0.000375	3.749294	1.270295	-0.000150
1114	1.1074e+02	-4.3378	4.570038	0.000638	6.383932	2.162935	-0.000256
1115	1.1084e+02	-4.3860	4.368181	0.000507	5.066613	1.716615	-0.000203
1116	1.1094e+02	-4.4261	4.170361	0.000497	4.965281	1.682283	-0.000199
1117	1.1104e+02	-4.4646	3.980616	0.000476	4.762616	1.613618	-0.000191
1118	1.1114e+02	-4.4951	3.754536	0.000567	5.674606	1.922609	-0.000227
1119	1.1124e+02	-4.5368	3.593051	0.000405	4.053290	1.373292	-0.000162
1120	1.1134e+02	-4.5833	3.366971	0.000567	5.674606	1.922609	-0.000227
1121	1.1144e+02	-4.6202	3.104557	0.000659	6.586597	2.231599	-0.000264
1122	1.1154e+02	-4.6635	2.934998	0.000426	4.255955	1.441957	-0.000170
1123	1.1164e+02	-4.6988	2.733141	0.000507	5.066613	1.716615	-0.000203
1124	1.1174e+02	-4.7405	2.575693	0.000395	3.951958	1.338960	-0.000158
1125	1.1184e+02	-4.7694	2.321353	0.000638	6.383932	2.162935	-0.000256
1126	1.1194e+02	-4.8287	2.139682	0.000456	4.559952	1.544953	-0.000183
1127	1.1204e+02	-4.8624	1.962048	0.000446	4.458619	1.510621	-0.000179
1128	1.1214e+02	-4.8993	1.723857	0.000598	5.978603	2.025606	-0.000239
1129	1.1224e+02	-4.9442	1.517963	0.000517	5.167945	1.750947	-0.000207
1130	1.1234e+02	-4.9779	1.275735	0.000608	6.079935	2.059938	-0.000243
1131	1.1244e+02	-5.0245	1.102138	0.000436	4.357287	1.476289	-0.000174
1132	1.1253e+02	-5.0662	0.920467	0.000456	4.559952	1.544953	-0.000183
1133	1.1263e+02	-5.0966	0.706499	0.000537	5.370610	1.819612	-0.000215
1134	1.1273e+02	-5.1448	0.512716	0.000486	4.863948	1.647950	-0.000195
1135	1.1283e+02	-5.1849	0.351231	0.000405	4.053290	1.373292	-0.000162
1136	1.1293e+02	-5.2266	0.141300	0.000527	5.269277	1.785280	-0.000211
1137	1.1303e+02	-5.2555	-0.084780	0.000567	5.674606	1.922609	-0.000227
1138	1.1313e+02	-5.3020	-0.282600	0.000497	4.965281	1.682283	-0.000199
1139	1.1323e+02	-5.3341	-0.492531	0.000527	5.269277	1.785280	-0.000211
1140	1.1333e+02	-5.3774	-0.718610	0.000567	5.674606	1.922609	-0.000227
1141	1.1343e+02	-5.4143	-0.908356	0.000476	4.762616	1.613618	-0.000191
1142	1.1353e+02	-5.4544	-1.049655	0.000355	3.546629	1.201630	-0.000142
1143	1.1363e+02	-5.4961	-1.320143	0.000679	6.789261	2.300264	-0.000272
1144	1.1373e+02	-5.5298	-1.501814	0.000456	4.559952	1.544953	-0.000183
1145	1.1383e+02	-5.5779	-1.691560	0.000476	4.762616	1.613618	-0.000191
1146	1.1393e+02	-5.6244	-1.877268	0.000466	4.661284	1.579286	-0.000187
1147	1.1403e+02	-5.6597	-2.075088	0.000497	4.965281	1.682283	-0.000199
1148	1.1413e+02	-5.7047	-2.297130	0.000557	5.573274	1.888276	-0.000223
1149	1.1423e+02	-5.7415	-2.503024	0.000517	5.167945	1.750947	-0.000207
1150	1.1433e+02	-5.7801	-2.676621	0.000436	4.357287	1.476289	-0.000174
1151	1.1442e+02	-5.8169	-2.894626	0.000547	5.471942	1.853944	-0.000219
1152	1.1452e+02	-5.8571	-3.100520	0.000517	5.167945	1.750947	-0.000207
1153	1.1462e+02	-5.8940	-3.282191	0.000456	4.559952	1.544953	-0.000183
1154	1.1472e+02	-5.9389	-3.508271	0.000567	5.674606	1.922609	-0.000227
1155	1.1482e+02	-5.9806	-3.718202	0.000527	5.269277	1.785280	-0.000211
1156	1.1492e+02	-6.0223	-3.883725	0.000415	4.154623	1.407624	-0.000166
1157	1.1502e+02	-6.0560	-4.081544	0.000497	4.965281	1.682283	-0.000199
1158	1.1512e+02	-6.0977	-4.291475	0.000527	5.269277	1.785280	-0.000211
1159	1.1522e+02	-6.1362	-4.489295	0.000497	4.965281	1.682283	-0.000199
1160	1.1532e+02	-6.1779	-4.723449	0.000588	5.877271	1.991273	-0.000235
1161	1.1542e+02	-6.2148	-4.913194	0.000476	4.762616	1.613618	-0.000191
1162	1.1552e+02	-6.2629	-5.098902	0.000466	4.661284	1.579286	-0.000187
1163	1.1562e+02	-6.2950	-5.304796	0.000517	5.167945	1.750947	-0.000207
1164	1.1572e+02	-6.3319	-5.510690	0.000517	5.167945	1.750947	-0.000207
1165	1.1582e+02	-6.3800	-5.712547	0.000507	5.066613	1.716615	-0.000203
1166	1.1592e+02	-6.4121	-5.886144	0.000436	4.357287	1.476289	-0.000174
1167	1.1602e+02	-6.4538	-6.059741	0.000436	4.357287	1.476289	-0.000174
1168	1.1612e+02	-6.4955	-6.277746	0.000547	5.471942	1.853944	-0.000219
1169	1.1622e+02	-6.5405	-6.475566	0.000497	4.965281	1.682283	-0.000199
1170	1.1632e+02	-6.5597	-6.677423	0.000507	5.066613	1.716615	-0.000203
1171	1.1642e+02	-6.6110	-6.830834	0.000385	3.850626	1.304627	-0.000154
1172	1.1651e+02	-6.6576	-7.056913	0.000567	5.674606	1.922609	-0.000227
1173	1.1661e+02	-6.6880	-7.254733	0.000497	4.965281	1.682283	-0.000199
1174	1.1671e+02	-6.7249	-7.464664	0.000527	5.269277	1.785280	-0.000211
1175	1.1681e+02	-6.7667	-7.626149	0.000405	4.053290	1.373292	-0.000162
1176	1.1691e+02	-6.8100	-7.868378	0.000608	6.079935	2.059938	-0.000243
1177	1.1701e+02	-6.8501	-8.046012	0.000446	4.458619	1.510621	-0.000179
1178	1.1711e+02	-6.8886	-8.219608	0.000436	4.357287	1.476289	-0.000174
1179	1.1721e+02	-6.9335	-8.429539	0.000527	5.269277	1.785280	-0.000211
1180	1.1731e+02	-6.9688	-8.647545	0.000547	5.471942	1.853944	-0.000219
1181	1.1741e+02	-7.0121	-8.792882	0.000365	3.647961	1.235963	-0.000146
1182	1.1751e+02	-7.0586	-9.006850	0.000537	5.370610	1.819612	-0.000215
1183	1.1761e+02	-7.0843	-9.245041	0.000598	5.978603	2.025606	-0.000239
1184	1.1771e+02	-7.1308	-9.386341	0.000355	3.546629	1.201630	-0.000142
1185	1.1781e+02	-7.1773	-9.596272	0.000527	5.269277	1.785280	-0.000211
1186	1.1791e+02	-7.2030	-9.798128	0.000507	5.066613	1.716615	-0.000203
1187	1.1801e+02	-7.2383	-9.971725	0.000436	4.357287	1.476289	-0.000174
1188	1.1811e+02	-7.2912	-10.153396	0.000456	4.559952	1.544953	-0.000183
1189	1.1821e+02	-7.3233	-10.419847	0.000669	6.687929	2.265932	-0.000268
1190	1.1831e+02	-7.3666	-10.544999	0.000314	3.141300	1.064301	-0.000126
1191	1.1841e+02	-7.4067	-10.763004	0.000547	5.471942	1.853944	-0.000219
1192	1.1850e+02	-7.4501	-10.948712	0.000466	4.661284	1.579286	-0.000187
1193	1.1860e+02	-7.4982	-11.154606	0.000517	5.167945	1.750947	-0.000207
1194	1.1870e+02	-7.5367	-11.324166	0.000426	4.255955	1.441957	-0.000170
1195	1.1880e+02	-7.5640	-11.517948	0.000486	4.863948	1.647950	-0.000195
1196	1.1890e+02	-7.5993	-11.703657	0.000466	4.661284	1.579286	-0.000187
1197	1.1900e+02	-7.6442	-11.933773	0.000578	5.775939	1.956941	-0.000231
1198	1.1910e+02	-7.6891	-12.131593	0.000497	4.965281	1.682283	-0.000199
1199	1.1920e+02	-7.7244	-12.285004	0.000385	3.850626	1.304627	-0.000154
1200	1.1930e+02	-7.7629	-12.503009	0.000547	5.471942	1.853944	-0.000219
1201	1.1940e+02	-7.8126	-12.680643	0.000446	4.458619	1.510621	-0.000179
1202	1.1950e+02	-7.8431	-12.886537	0.000517	5.167945	1.750947	-0.000207
1203	1.1960e+02	-7.8896	-13.100505	0.000537	5.370610	1.819612	-0.000215
1204	1.1970e+02	-7.9265	-13.257954	0.000395	3.951958	1.338960	-0.000158
1205	1.1980e+02	-7.9714	-13.467885	0.000527	5.269277	1.785280	-0.000211
1206	1.1990e+02	-8.0067	-13.633407	0.000415	4.154623	1.407624	-0.000166
1207	1.2000e+02	-8.0468	-13.839301	0.000517	5.167945	1.750947	-0.000207
1208	1.2010e+02	-8.0901	-14.025010	0.000466	4.661284	1.579286	-0.000187
1209	1.2020e+02	-8.1270	-14.238978	0.000537	5.370610	1.819612	-0.000215
1210	1.2030e+02	-8.1736	-14.428723	0.000476	4.762616	1.613618	-0.000191
1211	1.2039e+02	-8.2073	-14.618469	0.000476	4.762616	1.613618	-0.000191
1212	1.2049e+02	-8.2361	-14.751694	0.000334	3.343965	1.132966	-0.000134
1213	1.2059e+02	-8.2843	-14.949514	0.000497	4.965281	1.682283	-0.000199
1214	1.2069e+02	-8.3260	-15.171556	0.000557	5.573274	1.888276	-0.000223
1215	1.2079e+02	-8.3677	-15.349190	0.000446	4.458619	1.510621	-0.000179
1216	1.2089e+02	-8.4014	-15.526824	0.000446	4.458619	1.510621	-0.000179
1217	1.2099e+02	-8.4511	-15.740792	0.000537	5.370610	1.819612	-0.000215
1218	1.2109e+02	-8.4816	-15.938612	0.000497	4.965281	1.682283	-0.000199
1219	1.2119e+02	-8.5249	-16.120283	0.000456	4.559952	1.544953	-0.000183
1220	1.2129e+02	-8.5634	-16.334251	0.000537	5.370610	1.819612	-0.000215
1221	1.2139e+02	-8.5971	-16.475551	0.000355	3.546629	1.201630	-0.000142
1222	1.2149e+02	-8.6420	-16.661259	0.000466	4.661284	1.579286	-0.000187
1223	1.2159e+02	-8.6869	-16.883302	0.000557	5.573274	1.888276	-0.000223
1224	1.2169e+02	-8.7190	-17.064973	0.000456	4.559952	1.544953	-0.000183
1225	1.2179e+02	-8.7607	-17.250681	0.000466	4.661284	1.579286	-0.000187
1226	1.2189e+02	-8.8040	-17.408129	0.000395	3.951958	1.338960	-0.000158
1227	1.2199e+02	-8.8473	-17.601912	0.000486	4.863948	1.647950	-0.000195
1228	1.2209e+02	-8.8810	-17.823954	0.000557	5.573274	1.888276	-0.000223
1229	1.2219e+02	-8.9243	-18.029848	0.000517	5.167945	1.750947	-0.000207
1230	1.2229e+02	-8.9596	-18.231705	0.000507	5.066613	1.716615	-0.000203
1231	1.2239e+02	-9.0062	-18.368968	0.000345	3.445297	1.167298	-0.000138
1232	1.2248e+02	-9.0366	-18.546602	0.000446	4.458619	1.510621	-0.000179
1233	1.2258e+02	-9.0832	-18.780755	0.000588	5.877271	1.991273	-0.000235
1234	1.2268e+02	-9.1281	-18.926092	0.000365	3.647961	1.235963	-0.000146
1235	1.2278e+02	-9.1634	-19.131986	0.000517	5.167945	1.750947	-0.000207
1236	1.2288e+02	-9.2099	-19.305583	0.000436	4.357287	1.476289	-0.000174
1237	1.2298e+02	-9.2436	-19.483217	0.000446	4.458619	1.510621	-0.000179
1238	1.2308e+02	-9.2901	-19.697185	0.000537	5.370610	1.819612	-0.000215
1239	1.2318e+02	-9.3158	-19.866745	0.000426	4.255955	1.441957	-0.000170
1240	1.2328e+02	-9.3639	-20.012082	0.000365	3.647961	1.235963	-0.000146
1241	1.2338e+02	-9.4040	-20.254310	0.000608	6.079935	2.059938	-0.000243
1242	1.2348e+02	-9.4441	-20.383498	0.000324	3.242632	1.098634	-0.000130
1243	1.2358e+02	-9.4842	-20.569207	0.000466	4.661284	1.579286	-0.000187
1244	1.2368e+02	-9.5211	-20.771063	0.000507	5.066613	1.716615	-0.000203
1245	1.2378e+02	-9.5628	-20.948697	0.000446	4.458619	1.510621	-0.000179
1246	1.2388e+02	-9.6013	-21.142480	0.000486	4.863948	1.647950	-0.000195
1247	1.2398e+02	-9.6414	-21.291854	0.000375	3.749294	1.270295	-0.000150
1248	1.2408e+02	-9.6687	-21.473525	0.000456	4.559952	1.544953	-0.000183
1249	1.2418e+02	-9.7120	-21.703642	0.000578	5.775939	1.956941	-0.000231
1250	1.2428e+02	-9.7666	-21.869164	0.000415	4.154623	1.407624	-0.000166
1251	1.2438e+02	-9.7970	-22.034687	0.000415	4.154623	1.407624	-0.000166
1252	1.2447e+02	-9.8404	-22.248655	0.000537	5.370610	1.819612	-0.000215
1253	1.2457e+02	-9.8821	-22.345546	0.000243	2.431974	0.823975	-0.000097
1254	1.2467e+02	-9.9254	-22.571626	0.000567	5.674606	1.922609	-0.000227
1255	1.2477e+02	-9.9591	-22.749260	0.000446	4.458619	1.510621	-0.000179
1256	1.2487e+02	-9.9944	-22.918820	0.000426	4.255955	1.441957	-0.000170
1257	1.2497e+02	-10.0345	-23.112602	0.000486	4.863948	1.647950	-0.000195
1258	1.2507e+02	-10.0762	-23.342719	0.000578	5.775939	1.956941	-0.000231
1259	1.2517e+02	-10.1179	-23.504204	0.000405	4.053290	1.373292	-0.000162
1260	1.2527e+02	-10.1612	-23.669727	0.000415	4.154623	1.407624	-0.000166
1261	1.2537e+02	-10.2029	-23.851398	0.000456	4.559952	1.544953	-0.000183
1262	1.2547e+02	-10.2334	-24.041143	0.000476	4.762616	1.613618	-0.000191
1263	1.2557e+02	-10.2783	-24.222814	0.000456	4.559952	1.544953	-0.000183
1264	1.2567e+02	-10.3200	-24.392374	0.000426	4.255955	1.441957	-0.000170
1265	1.2577e+02	-10.3585	-24.557897	0.000415	4.154623	1.407624	-0.000166
1266	1.2587e+02	-10.4099	-24.735531	0.000446	4.458619	1.510621	-0.000179
1267	1.2597e+02	-10.4387	-24.941425	0.000517	5.167945	1.750947	-0.000207
1268	1.2607e+02	-10.4788	-25.115021	0.000436	4.357287	1.476289	-0.000174
1269	1.2617e+02	-10.5157	-25.284581	0.000426	4.255955	1.441957	-0.000170
1270	1.2627e+02	-10.5591	-25.482401	0.000497	4.965281	1.682283	-0.000199
1271	1.2636e+02	-10.5895	-25.655998	0.000436	4.357287	1.476289	-0.000174
1272	1.2646e+02	-10.6313	-25.841706	0.000466	4.661284	1.579286	-0.000187
1273	1.2656e+02	-10.6762	-26.011266	0.000426	4.255955	1.441957	-0.000170
1274	1.2666e+02	-10.7099	-26.196974	0.000466	4.661284	1.579286	-0.000187
1275	1.2676e+02	-10.7596	-26.366534	0.000426	4.255955	1.441957	-0.000170
1276	1.2686e+02	-10.8013	-26.540130	0.000436	4.357287	1.476289	-0.000174
1277	1.2696e+02	-10.8334	-26.729876	0.000476	4.762616	1.613618	-0.000191
1278	1.2706e+02	-10.8831	-26.895398	0.000415	4.154623	1.407624	-0.000166
1279	1.2716e+02	-10.9184	-27.085144	0.000476	4.762616	1.613618	-0.000191
1280	1.2726e+02	-10.9537	-27.242592	0.000395	3.951958	1.338960	-0.000158
1281	1.2736e+02	-10.9986	-27.460597	0.000547	5.471942	1.853944	-0.000219
1282	1.2746e+02	-11.0355	-27.597860	0.000345	3.445297	1.167298	-0.000138
1283	1.2756e+02	-11.0772	-27.807791	0.000527	5.269277	1.785280	-0.000211
1284	1.2766e+02	-11.1045	-27.936979	0.000324	3.242632	1.098634	-0.000130
1285	1.2776e+02	-11.1590	-28.167096	0.000578	5.775939	1.956941	-0.000231
1286	1.2786e+02	-11.1991	-28.320507	0.000385	3.850626	1.304627	-0.000154
1287	1.2796e+02	-11.2393	-28.514290	0.000486	4.863948	1.647950	-0.000195
1288	1.2806e+02	-11.2762	-28.655589	0.000355	3.546629	1.201630	-0.000142
1289	1.2816e+02	-11.3179	-28.841298	0.000466	4.661284	1.579286	-0.000187
1290	1.2826e+02	-11.3467	-28.998746	0.000395	3.951958	1.338960	-0.000158
1291	1.2835e+02	-11.3917	-29.192529	0.000486	4.863948	1.647950	-0.000195
1292	1.2845e+02	-11.4350	-29.374200	0.000456	4.559952	1.544953	-0.000183
1293	1.2855e+02	-11.4783	-29.555871	0.000456	4.559952	1.544953	-0.000183
1294	1.2865e+02	-11.5200	-29.729468	0.000436	4.357287	1.476289	-0.000174
1295	1.2875e+02	-11.5521	-29.911139	0.000456	4.559952	1.544953	-0.000183
1296	1.2885e+02	-11.5922	-30.080698	0.000426	4.255955	1.441957	-0.000170
1297	1.2895e+02	-11.6339	-30.278518	0.000497	4.965281	1.682283	-0.000199
1298	1.2905e+02	-11.6644	-30.423855	0.000365	3.647961	1.235963	-0.000146
1299	1.2915e+02	-11.7141	-30.613600	0.000476	4.762616	1.613618	-0.000191
1300	1.2925e+02	-11.7558	-30.783160	0.000426	4.255955	1.441957	-0.000170
1301	1.2935e+02	-11.7895	-30.940608	0.000395	3.951958	1.338960	-0.000158
1302	1.2945e+02	-11.8312	-31.122279	0.000456	4.559952	1.544953	-0.000183
1303	1.2955e+02	-11.8777	-31.283765	0.000405	4.053290	1.373292	-0.000162
1304	1.2965e+02	-11.9082	-31.457362	0.000436	4.357287	1.476289	-0.000174
1305	1.2975e+02	-11.9563	-31.643070	0.000466	4.661284	1.579286	-0.000187
1306	1.2985e+02	-11.9884	-31.816667	0.000436	4.357287	1.476289	-0.000174
1307	1.2995e+02	-12.0382	-32.022561	0.000517	5.167945	1.750947	-0.000207
1308	1.3005e+02	-12.0735	-32.196158	0.000436	4.357287	1.476289	-0.000174
1309	1.3015e+02	-12.1136	-32.353606	0.000395	3.951958	1.338960	-0.000158
1310	1.3025e+02	-12.1505	-32.498943	0.000365	3.647961	1.235963	-0.000146
1311	1.3034e+02	-12.1938	-32.652354	0.000385	3.850626	1.304627	-0.000154
1312	1.3044e+02	-12.2307	-32.842099	0.000476	4.762616	1.613618	-0.000191
1313	1.3054e+02	-12.2772	-33.003585	0.000405	4.053290	1.373292	-0.000162
1314	1.3064e+02	-12.3013	-33.217553	0.000537	5.370610	1.819612	-0.000215
1315	1.3074e+02	-12.3478	-33.362890	0.000365	3.647961	1.235963	-0.000146
1316	1.3084e+02	-12.3911	-33.528412	0.000415	4.154623	1.407624	-0.000166
1317	1.3094e+02	-12.4296	-33.714121	0.000466	4.661284	1.579286	-0.000187
1318	1.3104e+02	-12.4697	-33.859457	0.000365	3.647961	1.235963	-0.000146
1319	1.3114e+02	-12.5082	-34.033054	0.000436	4.357287	1.476289	-0.000174
1320	1.3124e+02	-12.5387	-34.255097	0.000557	5.573274	1.888276	-0.000223
1321	1.3134e+02	-12.5948	-34.416582	0.000405	4.053290	1.373292	-0.000162
1322	1.3144e+02	-12.6349	-34.549808	0.000334	3.343965	1.132966	-0.000134
1323	1.3154e+02	-12.6718	-34.719367	0.000426	4.255955	1.441957	-0.000170
1324	1.3164e+02	-12.7007	-34.913150	0.000486	4.863948	1.647950	-0.000195
1325	1.3174e+02	-12.7472	-35.094821	0.000456	4.559952	1.544953	-0.000183
1326	1.3184e+02	-12.7873	-35.248232	0.000385	3.850626	1.304627	-0.000154
1327	1.3194e+02	-12.8274	-35.450089	0.000507	5.066613	1.716615	-0.000203
1328	1.3204e+02	-12.8692	-35.603500	0.000385	3.850626	1.304627	-0.000154
1329	1.3214e+02	-12.8980	-35.769023	0.000415	4.154623	1.407624	-0.000166
1330	1.3224e+02	-12.9397	-35.934545	0.000415	4.154623	1.407624	-0.000166
1331	1.3234e+02	-12.9815	-36.112179	0.000446	4.458619	1.510621	-0.000179
1332	1.3243e+02	-13.0232	-36.318073	0.000517	5.167945	1.750947	-0.000207
1333	1.3253e+02	-13.0665	-36.423039	0.000263	2.634639	0.892640	-0.000105
1334	1.3263e+02	-13.0970	-36.641044	0.000547	5.471942	1.853944	-0.000219
1335	1.3273e+02	-13.1499	-36.782344	0.000355	3.546629	1.201630	-0.000142
1336	1.3283e+02	-13.1820	-36.988238	0.000517	5.167945	1.750947	-0.000207
1337	1.3293e+02	-13.2253	-37.141649	0.000385	3.850626	1.304627	-0.000154
1338	1.3303e+02	-13.2670	-37.323320	0.000456	4.559952	1.544953	-0.000183
1339	1.3313e+02	-13.3055	-37.488842	0.000415	4.154623	1.407624	-0.000166
1340	1.3323e+02	-13.3424	-37.674551	0.000466	4.661284	1.579286	-0.000187
1341	1.3333e+02	-13.3841	-37.807776	0.000334	3.343965	1.132966	-0.000134
1342	1.3343e+02	-13.4146	-37.993484	0.000466	4.661284	1.579286	-0.000187
1343	1.3353e+02	-13.4675	-38.134784	0.000355	3.546629	1.201630	-0.000142
1344	1.3363e+02	-13.4964	-38.320492	0.000466	4.661284	1.579286	-0.000187
1345	1.3373e+02	-13.5445	-38.502164	0.000456	4.559952	1.544953	-0.000183
1346	1.3383e+02	-13.5814	-38.683835	0.000456	4.559952	1.544953	-0.000183
1347	1.3393e+02	-13.6264	-38.837246	0.000385	3.850626	1.304627	-0.000154
1348	1.3403e+02	-13.6600	-39.031028	0.000486	4.863948	1.647950	-0.000195
1349	1.3413e+02	-13.7066	-39.164254	0.000334	3.343965	1.132966	-0.000134
1350	1.3423e+02	-13.7515	-39.370148	0.000517	5.167945	1.750947	-0.000207
1351	1.3432e+02	-13.7884	-39.503373	0.000334	3.343965	1.132966	-0.000134
1352	1.3442e+02	-13.8301	-39.668896	0.000415	4.154623	1.407624	-0.000166
1353	1.3452e+02	-13.8654	-39.814233	0.000365	3.647961	1.235963	-0.000146
1354	1.3462e+02	-13.8959	-39.979755	0.000415	4.154623	1.407624	-0.000166
1355	1.3472e+02	-13.9376	-40.189686	0.000527	5.269277	1.785280	-0.000211
1356	1.3482e+02	-13.9809	-40.371357	0.000456	4.559952	1.544953	-0.000183
1357	1.3492e+02	-14.0258	-40.520731	0.000375	3.749294	1.270295	-0.000150
1358	1.3502e+02	-14.0675	-40.682217	0.000405	4.053290	1.373292	-0.000162
1359	1.3512e+02	-14.1076	-40.831591	0.000375	3.749294	1.270295	-0.000150
1360	1.3522e+02	-14.1365	-41.001151	0.000426	4.255955	1.441957	-0.000170
1361	1.3532e+02	-14.1718	-41.166673	0.000415	4.154623	1.407624	-0.000166
1362	1.3542e+02	-14.2279	-41.356419	0.000476	4.762616	1.613618	-0.000191
1363	1.3552e+02	-14.2600	-41.530015	0.000436	4.357287	1.476289	-0.000174
1364	1.3562e+02	-14.2953	-41.647092	0.000294	2.938635	0.995637	-0.000118
1365	1.3572e+02	-14.3531	-41.836838	0.000476	4.762616	1.613618	-0.000191
1366	1.3582e+02	-14.3803	-42.034657	0.000497	4.965281	1.682283	-0.000199
1367	1.3592e+02	-14.4253	-42.204217	0.000426	4.255955	1.441957	-0.000170
1368	1.3602e+02	-14.4622	-42.337442	0.000334	3.343965	1.132966	-0.000134
1369	1.3612e+02	-14.4958	-42.502965	0.000415	4.154623	1.407624	-0.000166
1370	1.3622e+02	-14.5392	-42.700785	0.000497	4.965281	1.682283	-0.000199
1371	1.3631e+02	-14.5712	-42.825936	0.000314	3.141300	1.064301	-0.000126
1372	1.3641e+02	-14.6274	-43.052016	0.000567	5.674606	1.922609	-0.000227
1373	1.3651e+02	-14.6595	-43.193315	0.000355	3.546629	1.201630	-0.000142
1374	1.3661e+02	-14.6996	-43.342689	0.000375	3.749294	1.270295	-0.000150
1375	1.3671e+02	-14.7317	-43.483989	0.000355	3.546629	1.201630	-0.000142
1376	1.3681e+02	-14.7782	-43.697957	0.000537	5.370610	1.819612	-0.000215
1377	1.3691e+02	-14.8183	-43.835220	0.000345	3.445297	1.167298	-0.000138
1378	1.3701e+02	-14.8568	-44.033039	0.000497	4.965281	1.682283	-0.000199
1379	1.3711e+02	-14.8953	-44.150116	0.000294	2.938635	0.995637	-0.000118
1380	1.3721e+02	-14.9354	-44.323713	0.000436	4.357287	1.476289	-0.000174
1381	1.3731e+02	-14.9771	-44.509422	0.000466	4.661284	1.579286	-0.000187
1382	1.3741e+02	-15.0204	-44.654758	0.000365	3.647961	1.235963	-0.000146
1383	1.3751e+02	-15.0589	-44.796058	0.000355	3.546629	1.201630	-0.000142
1384	1.3761e+02	-15.0942	-44.997915	0.000507	5.066613	1.716615	-0.000203
1385	1.3771e+02	-15.1456	-45.215920	0.000547	5.471942	1.853944	-0.000219
1386	1.3781e+02	-15.1776	-45.353183	0.000345	3.445297	1.167298	-0.000138
1387	1.3791e+02	-15.2161	-45.518705	0.000415	4.154623	1.407624	-0.000166
1388	1.3801e+02	-15.2530	-45.724599	0.000517	5.167945	1.750947	-0.000207
1389	1.3811e+02	-15.3012	-45.865899	0.000355	3.546629	1.201630	-0.000142
1390	1.3821e+02	-15.3317	-46.015273	0.000375	3.749294	1.270295	-0.000150
1391	1.3831e+02	-15.3798	-46.184833	0.000426	4.255955	1.441957	-0.000170
1392	1.3840e+02	-15.4199	-46.350355	0.000415	4.154623	1.407624	-0.000166
1393	1.3850e+02	-15.4472	-46.487618	0.000345	3.445297	1.167298	-0.000138
1394	1.3860e+02	-15.5049	-46.717735	0.000578	5.775939	1.956941	-0.000231
1395	1.3870e+02	-15.5402	-46.875183	0.000395	3.951958	1.338960	-0.000158
1396	1.3880e+02	-15.5739	-47.044743	0.000426	4.255955	1.441957	-0.000170
1397	1.3890e+02	-15.6236	-47.210265	0.000415	4.154623	1.407624	-0.000166
1398	1.3900e+02	-15.6573	-47.387899	0.000446	4.458619	1.510621	-0.000179
1399	1.3910e+02	-15.6958	-47.541310	0.000385	3.850626	1.304627	-0.000154
1400	1.3920e+02	-15.7391	-47.698759	0.000395	3.951958	1.338960	-0.000158
1401	1.3930e+02	-15.7792	-47.884467	0.000466	4.661284	1.579286	-0.000187
1402	1.3940e+02	-15.8258	-48.001544	0.000294	2.938635	0.995637	-0.000118
1403	1.3950e+02	-15.8594	-48.179178	0.000446	4.458619	1.510621	-0.000179
1404	1.3960e+02	-15.9044	-48.389109	0.000527	5.269277	1.785280	-0.000211
1405	1.3970e+02	-15.9397	-48.510223	0.000304	3.039968	1.029969	-0.000122
1406	1.3980e+02	-15.9750	-48.683820	0.000436	4.357287	1.476289	-0.000174
1407	1.3990e+02	-16.0135	-48.885677	0.000507	5.066613	1.716615	-0.000203
1408	1.4000e+02	-16.0455	-49.006791	0.000304	3.039968	1.029969	-0.000122
1409	1.4010e+02	-16.0969	-49.212685	0.000517	5.167945	1.750947	-0.000207
1410	1.4020e+02	-16.1306	-49.378207	0.000415	4.154623	1.407624	-0.000166
1411	1.4029e+02	-16.1739	-49.531618	0.000385	3.850626	1.304627	-0.000154
1412	1.4039e+02	-16.2108	-49.676955	0.000365	3.647961	1.235963	-0.000146
1413	1.4049e+02	-16.2477	-49.870738	0.000486	4.863948	1.647950	-0.000195
1414	1.4059e+02	-16.2958	-50.003963	0.000334	3.343965	1.132966	-0.000134
1415	1.4069e+02	-16.3295	-50.234080	0.000578	5.775939	1.956941	-0.000231
1416	1.4079e+02	-16.3792	-50.355194	0.000304	3.039968	1.029969	-0.000122
1417	1.4089e+02	-16.4161	-50.548977	0.000486	4.863948	1.647950	-0.000195
1418	1.4099e+02	-16.4562	-50.714499	0.000415	4.154623	1.407624	-0.000166
1419	1.4109e+02	-16.4963	-50.875985	0.000405	4.053290	1.373292	-0.000162
1420	1.4119e+02	-16.5316	-51.093990	0.000547	5.471942	1.853944	-0.000219
1421	1.4129e+02	-16.5685	-51.271624	0.000446	4.458619	1.510621	-0.000179
1422	1.4139e+02	-16.6118	-51.408886	0.000345	3.445297	1.167298	-0.000138
1423	1.4149e+02	-16.6535	-51.586520	0.000446	4.458619	1.510621	-0.000179
1424	1.4159e+02	-16.6969	-51.695523	0.000274	2.735971	0.926972	-0.000110
1425	1.4169e+02	-16.7305	-51.933714	0.000598	5.978603	2.025606	-0.000239
1426	1.4179e+02	-16.7771	-52.107311	0.000436	4.357287	1.476289	-0.000174
1427	1.4189e+02	-16.8172	-52.301093	0.000486	4.863948	1.647950	-0.000195
1428	1.4199e+02	-16.8444	-52.478727	0.000446	4.458619	1.510621	-0.000179
1429	1.4209e+02	-16.8846	-52.644250	0.000415	4.154623	1.407624	-0.000166
1430	1.4219e+02	-16.9295	-52.846107	0.000507	5.066613	1.716615	-0.000203
1431	1.4228e+02	-16.9760	-52.991444	0.000365	3.647961	1.235963	-0.000146
1432	1.4238e+02	-17.0049	-53.177152	0.000466	4.661284	1.579286	-0.000187
1433	1.4248e+02	-17.0482	-53.370934	0.000486	4.863948	1.647950	-0.000195
1434	1.4258e+02	-17.0899	-53.536457	0.000415	4.154623	1.407624	-0.000166
1435	1.4268e+02	-17.1364	-53.697942	0.000405	4.053290	1.373292	-0.000162
1436	1.4278e+02	-17.1781	-53.887688	0.000476	4.762616	1.613618	-0.000191
1437	1.4288e+02	-17.2086	-54.045136	0.000395	3.951958	1.338960	-0.000158
1438	1.4298e+02	-17.2471	-54.271216	0.000567	5.674606	1.922609	-0.000227
1439	1.4308e+02	-17.2936	-54.448850	0.000446	4.458619	1.510621	-0.000179
1440	1.4318e+02	-17.3273	-54.586112	0.000345	3.445297	1.167298	-0.000138
1441	1.4328e+02	-17.3658	-54.812192	0.000567	5.674606	1.922609	-0.000227
1442	1.4338e+02	-17.4043	-54.977714	0.000415	4.154623	1.407624	-0.000166
1443	1.4348e+02	-17.4492	-55.167460	0.000476	4.762616	1.613618	-0.000191
1444	1.4358e+02	-17.4861	-55.361242	0.000486	4.863948	1.647950	-0.000195
1445	1.4368e+02	-17.5407	-55.522728	0.000405	4.053290	1.373292	-0.000162
1446	1.4378e+02	-17.5663	-55.736696	0.000537	5.370610	1.819612	-0.000215
1447	1.4388e+02	-17.6081	-55.922404	0.000466	4.661284	1.579286	-0.000187
1448	1.4398e+02	-17.6530	-56.100038	0.000446	4.458619	1.510621	-0.000179
1449	1.4408e+02	-17.6947	-56.293821	0.000486	4.863948	1.647950	-0.000195
1450	1.4418e+02	-17.7252	-56.503752	0.000527	5.269277	1.785280	-0.000211
1451	1.4428e+02	-17.7765	-56.612754	0.000274	2.735971	0.926972	-0.000110
1452	1.4437e+02	-17.8134	-56.863057	0.000628	6.282600	2.128603	-0.000252
1453	1.4447e+02	-17.8487	-57.048765	0.000466	4.661284	1.579286	-0.000187
1454	1.4457e+02	-17.8856	-57.282919	0.000588	5.877271	1.991273	-0.000235
1455	1.4467e+02	-17.9225	-57.440367	0.000395	3.951958	1.338960	-0.000158
1456	1.4477e+02	-17.9722	-57.630113	0.000476	4.762616	1.613618	-0.000191
1457	1.4487e+02	-18.0059	-57.868304	0.000598	5.978603	2.025606	-0.000239
1458	1.4497e+02	-18.0476	-58.017678	0.000375	3.749294	1.270295	-0.000150
1459	1.4507e+02	-18.0877	-58.259906	0.000608	6.079935	2.059938	-0.000243
1460	1.4517e+02	-18.1166	-58.433503	0.000436	4.357287	1.476289	-0.000174
1461	1.4527e+02	-18.1711	-58.611137	0.000446	4.458619	1.510621	-0.000179
1462	1.4537e+02	-18.2113	-58.857402	0.000618	6.181268	2.094270	-0.000248
1463	1.4547e+02	-18.2514	-59.043110	0.000466	4.661284	1.579286	-0.000187
1464	1.4557e+02	-18.2818	-59.208633	0.000415	4.154623	1.407624	-0.000166
1465	1.4567e+02	-18.3252	-59.487195	0.000699	6.991926	2.368929	-0.000280
1466	1.4577e+02	-18.3620	-59.680978	0.000486	4.863948	1.647950	-0.000195
1467	1.4587e+02	-18.4150	-59.846500	0.000415	4.154623	1.407624	-0.000166
1468	1.4597e+02	-18.4423	-60.076617	0.000578	5.775939	1.956941	-0.000231
1469	1.4607e+02	-18.4856	-60.266362	0.000476	4.762616	1.613618	-0.000191
1470	1.4617e+02	-18.5273	-60.488405	0.000557	5.573274	1.888276	-0.000223
1471	1.4626e+02	-18.5626	-60.698336	0.000527	5.269277	1.785280	-0.000211
1472	1.4636e+02	-18.6043	-60.896155	0.000497	4.965281	1.682283	-0.000199
1473	1.4646e+02	-18.6460	-61.130309	0.000588	5.877271	1.991273	-0.000235
1474	1.4656e+02	-18.6813	-61.380612	0.000628	6.282600	2.128603	-0.000252
1475	1.4666e+02	-18.7246	-61.554209	0.000436	4.357287	1.476289	-0.000174
1476	1.4676e+02	-18.7615	-61.796437	0.000608	6.079935	2.059938	-0.000243
1477	1.4686e+02	-18.8193	-62.022516	0.000567	5.674606	1.922609	-0.000227
1478	1.4696e+02	-18.8481	-62.212262	0.000476	4.762616	1.613618	-0.000191
1479	1.4706e+02	-18.8754	-62.434304	0.000557	5.573274	1.888276	-0.000223
1480	1.4716e+02	-18.9219	-62.672495	0.000598	5.978603	2.025606	-0.000239
1481	1.4726e+02	-18.9604	-62.898575	0.000567	5.674606	1.922609	-0.000227
1482	1.4736e+02	-19.0053	-63.140803	0.000608	6.079935	2.059938	-0.000243
1483	1.4746e+02	-19.0455	-63.350734	0.000527	5.269277	1.785280	-0.000211
1484	1.4756e+02	-19.0904	-63.596999	0.000618	6.181268	2.094270	-0.000248
1485	1.4766e+02	-19.1192	-63.847302	0.000628	6.282600	2.128603	-0.000252
1486	1.4776e+02	-19.1577	-64.065307	0.000547	5.471942	1.853944	-0.000219
1487	1.4786e+02	-19.1995	-64.287349	0.000557	5.573274	1.888276	-0.000223
1488	1.4796e+02	-19.2524	-64.549763	0.000659	6.586597	2.231599	-0.000264
1489	1.4806e+02	-19.2893	-64.791991	0.000608	6.079935	2.059938	-0.000243
1490	1.4816e+02	-19.3198	-64.989811	0.000497	4.965281	1.682283	-0.000199
1491	1.4825e+02	-19.3647	-65.264336	0.000689	6.890594	2.334596	-0.000276
1492	1.4835e+02	-19.3984	-65.534824	0.000679	6.789261	2.300264	-0.000272
1493	1.4845e+02	-19.4417	-65.793201	0.000649	6.485265	2.197267	-0.000260
1494	1.4855e+02	-19.4866	-66.011206	0.000547	5.471942	1.853944	-0.000219
1495	1.4865e+02	-19.5155	-66.289769	0.000699	6.991926	2.368929	-0.000280
1496	1.4875e+02	-19.5588	-66.548146	0.000649	6.485265	2.197267	-0.000260
1497	1.4885e+02	-19.6053	-66.810559	0.000659	6.586597	2.231599	-0.000264
1498	1.4895e+02	-19.6342	-67.040676	0.000578	5.775939	1.956941	-0.000231
1499	1.4905e+02	-19.6759	-67.327313	0.000719	7.194590	2.437593	-0.000288
1500	1.4915e+02	-19.7192	-67.601838	0.000689	6.890594	2.334596	-0.000276
1501	1.4925e+02	-19.7561	-67.840029	0.000598	5.978603	2.025606	-0.000239
1502	1.4935e+02	-19.8043	-68.126666	0.000719	7.194590	2.437593	-0.000288
1503	1.4945e+02	-19.8395	-68.397154	0.000679	6.789261	2.300264	-0.000272
1504	1.4955e+02	-19.8716	-68.663605	0.000669	6.687929	2.265932	-0.000268
1505	1.4965e+02	-19.9101	-68.954278	0.000730	7.295923	2.471925	-0.000292
1506	1.4975e+02	-19.9631	-69.240915	0.000719	7.194590	2.437593	-0.000288
1507	1.4985e+02	-20.0064	-69.483143	0.000608	6.079935	2.059938	-0.000243
1508	1.4995e+02	-19.9631	-69.547737	-0.000162	-1.621316	-0.549317	-0.000065
1509	1.5005e+02	-19.9117	-69.571960	-0.000061	-0.607994	-0.205994	-0.000024
1510	1.5015e+02	-19.8797	-69.575997	-0.000010	-0.101332	-0.034332	-0.000004
1511	1.5025e+02	-19.8379	-69.588109	-0.000030	-0.303997	-0.102997	-0.000012
1512	1.5034e+02	-19.8010	-69.559849	0.000071	0.709326	0.240326	0.000028
1513	1.5044e+02	-19.7658	-69.588109	-0.000071	-0.709326	-0.240326	-0.000028
1514	1.5054e+02	-19.7160	-69.571960	0.000041	0.405329	0.137329	0.000016
1515	1.5064e+02	-19.6759	-69.567923	0.000010	0.101332	0.034332	0.000004
1516	1.5074e+02	-19.6342	-69.523515	0.000111	1.114655	0.377655	0.000045
1517	1.5084e+02	-19.5989	-69.551774	-0.000071	-0.709326	-0.240326	-0.000028
1518	1.5094e+02	-19.5620	-69.487180	0.000162	1.621316	0.549317	0.000065
1519	1.5104e+02	-19.5123	-69.462958	0.000061	0.607994	0.205994	0.000024
1520	1.5114e+02	-19.4834	-69.438735	0.000061	0.607994	0.205994	0.000024
1521	1.5124e+02	-19.4337	-69.390289	0.000122	1.215987	0.411988	0.000049
1522	1.5134e+02	-19.4016	-69.378178	0.000030	0.303997	0.102997	0.000012
1523	1.5144e+02	-19.3535	-69.305509	0.000182	1.823981	0.617981	0.000073
1524	1.5154e+02	-19.3198	-69.265138	0.000101	1.013323	0.343323	0.000041
1525	1.5164e+02	-19.2861	-69.236878	0.000071	0.709326	0.240326	0.000028
1526	1.5174e+02	-19.2540	-69.172284	0.000162	1.621316	0.549317	0.000065
1527	1.5184e+02	-19.1914	-69.160172	0.000030	0.303997	0.102997	0.000012
1528	1.5194e+02	-19.1594	-69.026947	0.000334	3.343965	1.132966	0.000134
1529	1.5204e+02	-19.1209	-68.990613	0.000091	0.911990	0.308991	0.000037
1530	1.5214e+02	-19.0856	-68.921981	0.000172	1.722648	0.583649	0.000069
1531	1.5224e+02	-19.0455	-68.825090	0.000243	2.431974	0.823975	0.000097
1532	1.5233e+02	-19.0037	-68.756459	0.000172	1.722648	0.583649	0.000069
1533	1.5243e+02	-18.9620	-68.695902	0.000152	1.519984	0.514984	0.000061
1534	1.5253e+02	-18.9171	-68.643419	0.000132	1.317319	0.446320	0.000053
1535	1.5263e+02	-18.8930	-68.534416	0.000274	2.735971	0.926972	0.000110
1536	1.5273e+02	-18.8433	-68.494045	0.000101	1.013323	0.343323	0.000041
1537	1.5283e+02	-18.8064	-68.393117	0.000253	2.533306	0.858307	0.000101
1538	1.5293e+02	-18.7695	-68.308337	0.000213	2.127977	0.720978	0.000085
1539	1.5303e+02	-18.7294	-68.207408	0.000253	2.533306	0.858307	0.000101
1540	1.5313e+02	-18.6909	-68.134740	0.000182	1.823981	0.617981	0.000073
1541	1.5323e+02	-18.6428	-68.045923	0.000223	2.229310	0.755311	0.000089
1542	1.5333e+02	-18.6107	-68.017663	0.000071	0.709326	0.240326	0.000028
1543	1.5343e+02	-18.5690	-67.880400	0.000345	3.445297	1.167298	0.000138
1544	1.5353e+02	-18.5225	-67.799658	0.000203	2.026645	0.686646	0.000081
1545	1.5363e+02	-18.4904	-67.702766	0.000243	2.431974	0.823975	0.000097
1546	1.5373e+02	-18.4439	-67.585689	0.000294	2.938635	0.995637	0.000118
1547	1.5383e+02	-18.4134	-67.492835	0.000233	2.330642	0.789643	0.000093
1548	1.5393e+02	-18.3620	-67.395944	0.000243	2.431974	0.823975	0.000097
1549	1.5403e+02	-18.3219	-67.299053	0.000243	2.431974	0.823975	0.000097
1550	1.5413e+02	-18.2883	-67.226384	0.000182	1.823981	0.617981	0.000073
1551	1.5422e+02	-18.2465	-67.101233	0.000314	3.141300	1.064301	0.000126
1552	1.5432e+02	-18.2048	-67.000305	0.000253	2.533306	0.858307	0.000101
1553	1.5442e+02	-18.1744	-66.911488	0.000223	2.229310	0.755311	0.000089
1554	1.5452e+02	-18.1230	-66.830745	0.000203	2.026645	0.686646	0.000081
1555	1.5462e+02	-18.0829	-66.693482	0.000345	3.445297	1.167298	0.000138
1556	1.5472e+02	-18.0460	-66.600628	0.000233	2.330642	0.789643	0.000093
1557	1.5482e+02	-18.0091	-66.507774	0.000233	2.330642	0.789643	0.000093
1558	1.5492e+02	-17.9754	-66.370512	0.000345	3.445297	1.167298	0.000138
1559	1.5502e+02	-17.9241	-66.273620	0.000243	2.431974	0.823975	0.000097
1560	1.5512e+02	-17.8872	-66.168655	0.000263	2.634639	0.892640	0.000105
1561	1.5522e+02	-17.8439	-66.083875	0.000213	2.127977	0.720978	0.000085
1562	1.5532e+02	-17.8182	-65.978909	0.000263	2.634639	0.892640	0.000105
1563	1.5542e+02	-17.7637	-65.861832	0.000294	2.938635	0.995637	0.000118
1564	1.5552e+02	-17.7332	-65.764941	0.000243	2.431974	0.823975	0.000097
1565	1.5562e+02	-17.6867	-65.635753	0.000324	3.242632	1.098634	0.000130
1566	1.5572e+02	-17.6498	-65.506564	0.000324	3.242632	1.098634	0.000130
1567	1.5582e+02	-17.6097	-65.413710	0.000233	2.330642	0.789643	0.000093
1568	1.5592e+02	-17.5631	-65.276448	0.000345	3.445297	1.167298	0.000138
1569	1.5602e+02	-17.5311	-65.175519	0.000253	2.533306	0.858307	0.000101
1570	1.5612e+02	-17.4910	-65.042294	0.000334	3.343965	1.132966	0.000134
1571	1.5622e+02	-17.4573	-64.945403	0.000243	2.431974	0.823975	0.000097
1572	1.5631e+02	-17.3995	-64.800066	0.000365	3.647961	1.235963	0.000146
1573	1.5641e+02	-17.3722	-64.695100	0.000263	2.634639	0.892640	0.000105
1574	1.5651e+02	-17.3289	-64.614357	0.000203	2.026645	0.686646	0.000081
1575	1.5661e+02	-17.2920	-64.493243	0.000304	3.039968	1.029969	0.000122
1576	1.5671e+02	-17.2487	-64.343869	0.000375	3.749294	1.270295	0.000150
1577	1.5681e+02	-17.2182	-64.226792	0.000294	2.938635	0.995637	0.000118
1578	1.5691e+02	-17.1749	-64.113753	0.000284	2.837303	0.961304	0.000114
1579	1.5701e+02	-17.1316	-63.980527	0.000334	3.343965	1.132966	0.000134
1580	1.5711e+02	-17.0963	-63.887673	0.000233	2.330642	0.789643	0.000093
1581	1.5721e+02	-17.0514	-63.726188	0.000405	4.053290	1.373292	0.000162
1582	1.5731e+02	-17.0177	-63.609111	0.000294	2.938635	0.995637	0.000118
1583	1.5741e+02	-16.9760	-63.504145	0.000263	2.634639	0.892640	0.000105
1584	1.5751e+02	-16.9343	-63.383031	0.000304	3.039968	1.029969	0.000122
1585	1.5761e+02	-16.8829	-63.221546	0.000405	4.053290	1.373292	0.000162
1586	1.5771e+02	-16.8493	-63.116580	0.000263	2.634639	0.892640	0.000105
1587	1.5781e+02	-16.8220	-63.019689	0.000243	2.431974	0.823975	0.000097
1588	1.5791e+02	-16.7803	-62.858203	0.000405	4.053290	1.373292	0.000162
1589	1.5801e+02	-16.7354	-62.745164	0.000284	2.837303	0.961304	0.000114
1590	1.5811e+02	-16.6888	-62.632124	0.000284	2.837303	0.961304	0.000114
1591	1.5821e+02	-16.6471	-62.502935	0.000324	3.242632	1.098634	0.000130
1592	1.5830e+02	-16.6118	-62.365673	0.000345	3.445297	1.167298	0.000138
1593	1.5840e+02	-16.5862	-62.248596	0.000294	2.938635	0.995637	0.000118
1594	1.5850e+02	-16.5380	-62.111333	0.000345	3.445297	1.167298	0.000138
1595	1.5860e+02	-16.4883	-61.978108	0.000334	3.343965	1.132966	0.000134
1596	1.5870e+02	-16.4498	-61.869105	0.000274	2.735971	0.926972	0.000110
1597	1.5880e+02	-16.4225	-61.723768	0.000365	3.647961	1.235963	0.000146
1598	1.5890e+02	-16.3664	-61.610728	0.000284	2.837303	0.961304	0.000114
1599	1.5900e+02	-16.3247	-61.453280	0.000395	3.951958	1.338960	0.000158
1600	1.5910e+02	-16.2990	-61.380612	0.000182	1.823981	0.617981	0.000073
1601	1.5920e+02	-16.2493	-61.186829	0.000486	4.863948	1.647950	0.000195
1602	1.5930e+02	-16.2092	-61.081864	0.000263	2.634639	0.892640	0.000105
1603	1.5940e+02	-16.1642	-60.980935	0.000253	2.533306	0.858307	0.000101
1604	1.5950e+02	-16.1370	-60.807338	0.000436	4.357287	1.476289	0.000174
1605	1.5960e+02	-16.0921	-60.718522	0.000223	2.229310	0.755311	0.000089
1606	1.5970e+02	-16.0584	-60.593370	0.000314	3.141300	1.064301	0.000126
1607	1.5980e+02	-16.0167	-60.468219	0.000314	3.141300	1.064301	0.000126
1608	1.5990e+02	-15.9733	-60.326919	0.000355	3.546629	1.201630	0.000142
1609	1.6000e+02	-15.9381	-60.169471	0.000395	3.951958	1.338960	0.000158
1610	1.6010e+02	-15.8835	-60.052394	0.000294	2.938635	0.995637	0.000118
1611	1.6019e+02	-15.8562	-59.907057	0.000365	3.647961	1.235963	0.000146
1612	1.6029e+02	-15.8177	-59.753646	0.000385	3.850626	1.304627	0.000154
1613	1.6039e+02	-15.7776	-59.652718	0.000253	2.533306	0.858307	0.000101
1614	1.6049e+02	-15.7375	-59.483158	0.000426	4.255955	1.441957	0.000170
1615	1.6059e+02	-15.6926	-59.390304	0.000233	2.330642	0.789643	0.000093
1616	1.6069e+02	-15.6621	-59.228818	0.000405	4.053290	1.373292	0.000162
1617	1.6079e+02	-15.6156	-59.144039	0.000213	2.127977	0.720978	0.000085
1618	1.6089e+02	-15.5739	-59.006776	0.000345	3.445297	1.167298	0.000138
1619	1.6099e+02	-15.5386	-58.849328	0.000395	3.951958	1.338960	0.000158
1620	1.6109e+02	-15.4921	-58.744362	0.000263	2.634639	0.892640	0.000105
1621	1.6119e+02	-15.4600	-58.574802	0.000426	4.255955	1.441957	0.000170
1622	1.6129e+02	-15.4199	-58.477911	0.000243	2.431974	0.823975	0.000097
1623	1.6139e+02	-15.3862	-58.332574	0.000365	3.647961	1.235963	0.000146
1624	1.6149e+02	-15.3365	-58.187237	0.000365	3.647961	1.235963	0.000146
1625	1.6159e+02	-15.2964	-58.066123	0.000304	3.039968	1.029969	0.000122
1626	1.6169e+02	-15.2498	-57.900601	0.000415	4.154623	1.407624	0.000166
1627	1.6179e+02	-15.2226	-57.783524	0.000294	2.938635	0.995637	0.000118
1628	1.6189e+02	-15.1809	-57.642224	0.000355	3.546629	1.201630	0.000142
1629	1.6199e+02	-15.1359	-57.508999	0.000334	3.343965	1.132966	0.000134
1630	1.6209e+02	-15.0974	-57.351550	0.000395	3.951958	1.338960	0.000158
1631	1.6219e+02	-15.0557	-57.258696	0.000233	2.330642	0.789643	0.000093
1632	1.6228e+02	-15.0172	-57.129508	0.000324	3.242632	1.098634	0.000130
1633	1.6238e+02	-14.9819	-56.976097	0.000385	3.850626	1.304627	0.000154
1634	1.6248e+02	-14.9290	-56.830760	0.000365	3.647961	1.235963	0.000146
1635	1.6258e+02	-14.8937	-56.693497	0.000345	3.445297	1.167298	0.000138
1636	1.6268e+02	-14.8600	-56.527975	0.000415	4.154623	1.407624	0.000166
1637	1.6278e+02	-14.8215	-56.406861	0.000304	3.039968	1.029969	0.000122
1638	1.6288e+02	-14.7766	-56.318044	0.000223	2.229310	0.755311	0.000089
1639	1.6298e+02	-14.7365	-56.108112	0.000527	5.269277	1.785280	0.000211
1640	1.6308e+02	-14.7012	-55.986998	0.000304	3.039968	1.029969	0.000122
1641	1.6318e+02	-14.6611	-55.849736	0.000345	3.445297	1.167298	0.000138
1642	1.6328e+02	-14.6130	-55.712473	0.000345	3.445297	1.167298	0.000138
1643	1.6338e+02	-14.5809	-55.571173	0.000355	3.546629	1.201630	0.000142
1644	1.6348e+02	-14.5456	-55.437948	0.000334	3.343965	1.132966	0.000134
1645	1.6358e+02	-14.5023	-55.312797	0.000314	3.141300	1.064301	0.000126
1646	1.6368e+02	-14.4670	-55.119014	0.000486	4.863948	1.647950	0.000195
1647	1.6378e+02	-14.4124	-54.969640	0.000375	3.749294	1.270295	0.000150
1648	1.6388e+02	-14.3948	-54.876786	0.000233	2.330642	0.789643	0.000093
1649	1.6398e+02	-14.3418	-54.743561	0.000334	3.343965	1.132966	0.000134
1650	1.6408e+02	-14.3017	-54.582075	0.000405	4.053290	1.373292	0.000162
1651	1.6418e+02	-14.2600	-54.456924	0.000314	3.141300	1.064301	0.000126
1652	1.6427e+02	-14.2183	-54.291401	0.000415	4.154623	1.407624	0.000166
1653	1.6437e+02	-14.1862	-54.174324	0.000294	2.938635	0.995637	0.000118
1654	1.6447e+02	-14.1413	-54.033025	0.000355	3.546629	1.201630	0.000142
1655	1.6457e+02	-14.1028	-53.879614	0.000385	3.850626	1.304627	0.000154
1656	1.6467e+02	-14.0627	-53.746388	0.000334	3.343965	1.132966	0.000134
1657	1.6477e+02	-14.0274	-53.592977	0.000385	3.850626	1.304627	0.000154
1658	1.6487e+02	-13.9809	-53.467826	0.000314	3.141300	1.064301	0.000126
1659	1.6497e+02	-13.9536	-53.334600	0.000334	3.343965	1.132966	0.000134
1660	1.6507e+02	-13.8927	-53.193300	0.000355	3.546629	1.201630	0.000142
1661	1.6517e+02	-13.8654	-53.064112	0.000324	3.242632	1.098634	0.000130
1662	1.6527e+02	-13.8301	-52.906664	0.000395	3.951958	1.338960	0.000158
1663	1.6537e+02	-13.7900	-52.737104	0.000426	4.255955	1.441957	0.000170
1664	1.6547e+02	-13.7499	-52.615990	0.000304	3.039968	1.029969	0.000122
1665	1.6557e+02	-13.7098	-52.438356	0.000446	4.458619	1.510621	0.000179
1666	1.6567e+02	-13.6600	-52.321279	0.000294	2.938635	0.995637	0.000118
1667	1.6577e+02	-13.6231	-52.188054	0.000334	3.343965	1.132966	0.000134
1668	1.6587e+02	-13.5814	-52.050791	0.000345	3.445297	1.167298	0.000138
1669	1.6597e+02	-13.5494	-51.901417	0.000375	3.749294	1.270295	0.000150
1670	1.6607e+02	-13.4996	-51.743969	0.000395	3.951958	1.338960	0.000158
1671	1.6616e+02	-13.4643	-51.643040	0.000253	2.533306	0.858307	0.000101
1672	1.6626e+02	-13.4242	-51.461369	0.000456	4.559952	1.544953	0.000183
1673	1.6636e+02	-13.3873	-51.344292	0.000294	2.938635	0.995637	0.000118
1674	1.6646e+02	-13.3472	-51.190881	0.000385	3.850626	1.304627	0.000154
1675	1.6656e+02	-13.3071	-51.025359	0.000415	4.154623	1.407624	0.000166
1676	1.6666e+02	-13.2686	-50.888096	0.000345	3.445297	1.167298	0.000138
1677	1.6676e+02	-13.2189	-50.722573	0.000415	4.154623	1.407624	0.000166
1678	1.6686e+02	-13.1948	-50.617608	0.000263	2.634639	0.892640	0.000105
1679	1.6696e+02	-13.1435	-50.431900	0.000466	4.661284	1.579286	0.000187
1680	1.6706e+02	-13.1098	-50.335008	0.000243	2.431974	0.823975	0.000097
1681	1.6716e+02	-13.0665	-50.141226	0.000486	4.863948	1.647950	0.000195
1682	1.6726e+02	-13.0248	-50.020112	0.000304	3.039968	1.029969	0.000122
1683	1.6736e+02	-12.9847	-49.862664	0.000395	3.951958	1.338960	0.000158
1684	1.6746e+02	-12.9542	-49.709252	0.000385	3.850626	1.304627	0.000154
1685	1.6756e+02	-12.9077	-49.539693	0.000426	4.255955	1.441957	0.000170
1686	1.6766e+02	-12.8659	-49.446839	0.000233	2.330642	0.789643	0.000093
1687	1.6776e+02	-12.8242	-49.293427	0.000385	3.850626	1.304627	0.000154
1688	1.6786e+02	-12.7857	-49.140016	0.000385	3.850626	1.304627	0.000154
1689	1.6796e+02	-12.7504	-48.966419	0.000436	4.357287	1.476289	0.000174
1690	1.6806e+02	-12.7039	-48.833194	0.000334	3.343965	1.132966	0.000134
1691	1.6816e+02	-12.6654	-48.691894	0.000355	3.546629	1.201630	0.000142
1692	1.6825e+02	-12.6333	-48.542520	0.000375	3.749294	1.270295	0.000150
1693	1.6835e+02	-12.5852	-48.417369	0.000314	3.141300	1.064301	0.000126
1694	1.6845e+02	-12.5387	-48.251846	0.000415	4.154623	1.407624	0.000166
1695	1.6855e+02	-12.5082	-48.090361	0.000405	4.053290	1.373292	0.000162
1696	1.6865e+02	-12.4665	-47.936950	0.000385	3.850626	1.304627	0.000154
1697	1.6875e+02	-12.4344	-47.803724	0.000334	3.343965	1.132966	0.000134
1698	1.6885e+02	-12.3895	-47.666462	0.000345	3.445297	1.167298	0.000138
1699	1.6895e+02	-12.3430	-47.496902	0.000426	4.255955	1.441957	0.000170
1700	1.6905e+02	-12.3125	-47.367714	0.000324	3.242632	1.098634	0.000130
1701	1.6915e+02	-12.2660	-47.190080	0.000446	4.458619	1.510621	0.000179
1702	1.6925e+02	-12.2323	-47.028594	0.000405	4.053290	1.373292	0.000162
1703	1.6935e+02	-12.1841	-46.867109	0.000405	4.053290	1.373292	0.000162
1704	1.6945e+02	-12.1537	-46.725809	0.000355	3.546629	1.201630	0.000142
1705	1.6955e+02	-12.1104	-46.568361	0.000395	3.951958	1.338960	0.000158
1706	1.6965e+02	-12.0719	-46.435135	0.000334	3.343965	1.132966	0.000134
1707	1.6975e+02	-12.0366	-46.305947	0.000324	3.242632	1.098634	0.000130
1708	1.6985e+02	-11.9868	-46.108127	0.000497	4.965281	1.682283	0.000199
1709	1.6995e+02	-11.9451	-45.987013	0.000304	3.039968	1.029969	0.000122
1710	1.7005e+02	-11.9146	-45.817453	0.000426	4.255955	1.441957	0.000170
1711	1.7015e+02	-11.8665	-45.672117	0.000365	3.647961	1.235963	0.000146
1712	1.7024e+02	-11.8296	-45.490445	0.000456	4.559952	1.544953	0.000183
1713	1.7034e+02	-11.7911	-45.341071	0.000375	3.749294	1.270295	0.000150
1714	1.7044e+02	-11.7478	-45.215920	0.000314	3.141300	1.064301	0.000126
1715	1.7054e+02	-11.7109	-45.046361	0.000426	4.255955	1.441957	0.000170
1716	1.7064e+02	-11.6724	-44.905061	0.000355	3.546629	1.201630	0.000142
1717	1.7074e+02	-11.6387	-44.727427	0.000446	4.458619	1.510621	0.000179
1718	1.7084e+02	-11.5890	-44.574016	0.000385	3.850626	1.304627	0.000154
1719	1.7094e+02	-11.5585	-44.501347	0.000182	1.823981	0.617981	0.000073
1720	1.7104e+02	-11.5168	-44.283342	0.000547	5.471942	1.853944	0.000219
1721	1.7114e+02	-11.4735	-44.121856	0.000405	4.053290	1.373292	0.000162
1722	1.7124e+02	-11.4237	-43.984594	0.000345	3.445297	1.167298	0.000138
1723	1.7134e+02	-11.3804	-43.855406	0.000324	3.242632	1.098634	0.000130
1724	1.7144e+02	-11.3596	-43.685846	0.000426	4.255955	1.441957	0.000170
1725	1.7154e+02	-11.3114	-43.536472	0.000375	3.749294	1.270295	0.000150
1726	1.7164e+02	-11.2713	-43.346726	0.000476	4.762616	1.613618	0.000191
1727	1.7174e+02	-11.2296	-43.205427	0.000355	3.546629	1.201630	0.000142
1728	1.7184e+02	-11.1991	-43.056053	0.000375	3.749294	1.270295	0.000150
1729	1.7194e+02	-11.1671	-42.886493	0.000426	4.255955	1.441957	0.000170
1730	1.7204e+02	-11.1157	-42.741156	0.000365	3.647961	1.235963	0.000146
1731	1.7213e+02	-11.0660	-42.571596	0.000426	4.255955	1.441957	0.000170
1732	1.7223e+02	-11.0339	-42.466631	0.000263	2.634639	0.892640	0.000105
1733	1.7233e+02	-10.9986	-42.280923	0.000466	4.661284	1.579286	0.000187
1734	1.7243e+02	-10.9505	-42.111363	0.000426	4.255955	1.441957	0.000170
1735	1.7253e+02	-10.9168	-41.978137	0.000334	3.343965	1.132966	0.000134
1736	1.7263e+02	-10.8879	-41.820689	0.000395	3.951958	1.338960	0.000158
1737	1.7273e+02	-10.8414	-41.671315	0.000375	3.749294	1.270295	0.000150
1738	1.7283e+02	-10.7933	-41.489644	0.000456	4.559952	1.544953	0.000183
1739	1.7293e+02	-10.7516	-41.324121	0.000415	4.154623	1.407624	0.000166
1740	1.7303e+02	-10.7195	-41.158599	0.000415	4.154623	1.407624	0.000166
1741	1.7313e+02	-10.6762	-41.029411	0.000324	3.242632	1.098634	0.000130
1742	1.7323e+02	-10.6393	-40.819479	0.000527	5.269277	1.785280	0.000211
1743	1.7333e+02	-10.5927	-40.662031	0.000395	3.951958	1.338960	0.000158
1744	1.7343e+02	-10.5639	-40.484397	0.000446	4.458619	1.510621	0.000179
1745	1.7353e+02	-10.5157	-40.355209	0.000324	3.242632	1.098634	0.000130
1746	1.7363e+02	-10.4756	-40.185649	0.000426	4.255955	1.441957	0.000170
1747	1.7373e+02	-10.4307	-40.032238	0.000385	3.850626	1.304627	0.000154
1748	1.7383e+02	-10.3970	-39.874790	0.000395	3.951958	1.338960	0.000158
1749	1.7393e+02	-10.3569	-39.685044	0.000476	4.762616	1.613618	0.000191
1750	1.7403e+02	-10.3136	-39.551819	0.000334	3.343965	1.132966	0.000134
1751	1.7413e+02	-10.2799	-39.362073	0.000476	4.762616	1.613618	0.000191
1752	1.7422e+02	-10.2350	-39.224811	0.000345	3.445297	1.167298	0.000138
1753	1.7432e+02	-10.1933	-39.047177	0.000446	4.458619	1.510621	0.000179
1754	1.7442e+02	-10.1612	-38.841283	0.000517	5.167945	1.750947	0.000207
1755	1.7452e+02	-10.1275	-38.691909	0.000375	3.749294	1.270295	0.000150
1756	1.7462e+02	-10.0826	-38.558683	0.000334	3.343965	1.132966	0.000134
1757	1.7472e+02	-10.0377	-38.405272	0.000385	3.850626	1.304627	0.000154
1758	1.7482e+02	-9.9976	-38.215527	0.000476	4.762616	1.613618	0.000191
1759	1.7492e+02	-9.9511	-38.090376	0.000314	3.141300	1.064301	0.000126
1760	1.7502e+02	-9.9206	-37.896593	0.000486	4.863948	1.647950	0.000195
1761	1.7512e+02	-9.8724	-37.727033	0.000426	4.255955	1.441957	0.000170
1762	1.7522e+02	-9.8388	-37.533251	0.000486	4.863948	1.647950	0.000195
1763	1.7532e+02	-9.7987	-37.428285	0.000263	2.634639	0.892640	0.000105
1764	1.7542e+02	-9.7537	-37.250651	0.000446	4.458619	1.510621	0.000179
1765	1.7552e+02	-9.7217	-37.109352	0.000355	3.546629	1.201630	0.000142
1766	1.7562e+02	-9.6848	-36.927681	0.000456	4.559952	1.544953	0.000183
1767	1.7572e+02	-9.6430	-36.782344	0.000365	3.647961	1.235963	0.000146
1768	1.7582e+02	-9.5981	-36.588561	0.000486	4.863948	1.647950	0.000195
1769	1.7592e+02	-9.5644	-36.419001	0.000426	4.255955	1.441957	0.000170
1770	1.7602e+02	-9.5195	-36.265590	0.000385	3.850626	1.304627	0.000154
1771	1.7612e+02	-9.4762	-36.108142	0.000395	3.951958	1.338960	0.000158
1772	1.7621e+02	-9.4409	-35.926471	0.000456	4.559952	1.544953	0.000183
1773	1.7631e+02	-9.4024	-35.789208	0.000345	3.445297	1.167298	0.000138
1774	1.7641e+02	-9.3655	-35.627723	0.000405	4.053290	1.373292	0.000162
1775	1.7651e+02	-9.3222	-35.417792	0.000527	5.269277	1.785280	0.000211
1776	1.7661e+02	-9.2869	-35.260344	0.000395	3.951958	1.338960	0.000158
1777	1.7671e+02	-9.2436	-35.147304	0.000284	2.837303	0.961304	0.000114
1778	1.7681e+02	-9.2019	-34.892964	0.000638	6.383932	2.162935	0.000256
1779	1.7691e+02	-9.1666	-34.763776	0.000324	3.242632	1.098634	0.000130
1780	1.7701e+02	-9.1249	-34.586142	0.000446	4.458619	1.510621	0.000179
1781	1.7711e+02	-9.0800	-34.436768	0.000375	3.749294	1.270295	0.000150
1782	1.7721e+02	-9.0495	-34.255097	0.000456	4.559952	1.544953	0.000183
1783	1.7731e+02	-9.0094	-34.073426	0.000456	4.559952	1.544953	0.000183
1784	1.7741e+02	-8.9645	-33.879643	0.000486	4.863948	1.647950	0.000195
1785	1.7751e+02	-8.9163	-33.742380	0.000345	3.445297	1.167298	0.000138
1786	1.7761e+02	-8.8794	-33.576858	0.000415	4.154623	1.407624	0.000166
1787	1.7771e+02	-8.8425	-33.391150	0.000466	4.661284	1.579286	0.000187
1788	1.7781e+02	-8.7976	-33.253887	0.000345	3.445297	1.167298	0.000138
1789	1.7791e+02	-8.7639	-33.072216	0.000456	4.559952	1.544953	0.000183
1790	1.7801e+02	-8.7254	-32.882471	0.000476	4.762616	1.613618	0.000191
1791	1.7810e+02	-8.6869	-32.753282	0.000324	3.242632	1.098634	0.000130
1792	1.7820e+02	-8.6468	-32.595834	0.000395	3.951958	1.338960	0.000158
1793	1.7830e+02	-8.5971	-32.398014	0.000497	4.965281	1.682283	0.000199
1794	1.7840e+02	-8.5586	-32.236529	0.000405	4.053290	1.373292	0.000162
1795	1.7850e+02	-8.5169	-32.034672	0.000507	5.066613	1.716615	0.000203
1796	1.7860e+02	-8.4928	-31.861075	0.000436	4.357287	1.476289	0.000174
1797	1.7870e+02	-8.4495	-31.687478	0.000436	4.357287	1.476289	0.000174
1798	1.7880e+02	-8.4046	-31.513882	0.000436	4.357287	1.476289	0.000174
1799	1.7890e+02	-8.3564	-31.372582	0.000355	3.546629	1.201630	0.000142
1800	1.7900e+02	-8.3308	-31.186874	0.000466	4.661284	1.579286	0.000187
1801	1.7910e+02	-8.2778	-31.017314	0.000426	4.255955	1.441957	0.000170
1802	1.7920e+02	-8.2506	-30.847754	0.000426	4.255955	1.441957	0.000170
1803	1.7930e+02	-8.2024	-30.641860	0.000517	5.167945	1.750947	0.000207
1804	1.7940e+02	-8.1639	-30.520746	0.000304	3.039968	1.029969	0.000122
1805	1.7950e+02	-8.1254	-30.314852	0.000517	5.167945	1.750947	0.000207
1806	1.7960e+02	-8.0837	-30.173553	0.000355	3.546629	1.201630	0.000142
1807	1.7970e+02	-8.0468	-29.979770	0.000486	4.863948	1.647950	0.000195
1808	1.7980e+02	-8.0083	-29.777913	0.000507	5.066613	1.716615	0.000203
1809	1.7990e+02	-7.9650	-29.604316	0.000436	4.357287	1.476289	0.000174
1810	1.8000e+02	-7.9297	-29.450905	0.000385	3.850626	1.304627	0.000154
1811	1.8009e+02	-7.8864	-29.269234	0.000456	4.559952	1.544953	0.000183
1812	1.8019e+02	-7.8527	-29.095637	0.000436	4.357287	1.476289	0.000174
1813	1.8029e+02	-7.8046	-28.962412	0.000334	3.343965	1.132966	0.000134
1814	1.8039e+02	-7.7709	-28.732295	0.000578	5.775939	1.956941	0.000231
1815	1.8049e+02	-7.7196	-28.603107	0.000324	3.242632	1.098634	0.000130
1816	1.8059e+02	-7.6923	-28.389139	0.000537	5.370610	1.819612	0.000215
1817	1.8069e+02	-7.6426	-28.227653	0.000405	4.053290	1.373292	0.000162
1818	1.8079e+02	-7.6025	-28.009648	0.000547	5.471942	1.853944	0.000219
1819	1.8089e+02	-7.5768	-27.888534	0.000304	3.039968	1.029969	0.000122
1820	1.8099e+02	-7.5271	-27.714937	0.000436	4.357287	1.476289	0.000174
1821	1.8109e+02	-7.4773	-27.533266	0.000456	4.559952	1.544953	0.000183
1822	1.8119e+02	-7.4533	-27.367743	0.000415	4.154623	1.407624	0.000166
1823	1.8129e+02	-7.4132	-27.173961	0.000486	4.863948	1.647950	0.000195
1824	1.8139e+02	-7.3682	-26.959992	0.000537	5.370610	1.819612	0.000215
1825	1.8149e+02	-7.3346	-26.814656	0.000365	3.647961	1.235963	0.000146
1826	1.8159e+02	-7.2896	-26.628947	0.000466	4.661284	1.579286	0.000187
1827	1.8169e+02	-7.2543	-26.475536	0.000385	3.850626	1.304627	0.000154
1828	1.8179e+02	-7.2062	-26.293865	0.000456	4.559952	1.544953	0.000183
1829	1.8189e+02	-7.1661	-26.148528	0.000365	3.647961	1.235963	0.000146
1830	1.8199e+02	-7.1324	-25.970894	0.000446	4.458619	1.510621	0.000179
1831	1.8209e+02	-7.0987	-25.716555	0.000638	6.383932	2.162935	0.000256
1832	1.8218e+02	-7.0506	-25.579292	0.000345	3.445297	1.167298	0.000138
1833	1.8228e+02	-7.0073	-25.385510	0.000486	4.863948	1.647950	0.000195
1834	1.8238e+02	-6.9672	-25.228061	0.000395	3.951958	1.338960	0.000158
1835	1.8248e+02	-6.9255	-25.066576	0.000405	4.053290	1.373292	0.000162
1836	1.8258e+02	-6.8982	-24.856645	0.000527	5.269277	1.785280	0.000211
1837	1.8268e+02	-6.8485	-24.703234	0.000385	3.850626	1.304627	0.000154
1838	1.8278e+02	-6.8180	-24.469080	0.000588	5.877271	1.991273	0.000235
1839	1.8288e+02	-6.7667	-24.339891	0.000324	3.242632	1.098634	0.000130
1840	1.8298e+02	-6.7201	-24.142072	0.000497	4.965281	1.682283	0.000199
1841	1.8308e+02	-6.6897	-23.932141	0.000527	5.269277	1.785280	0.000211
1842	1.8318e+02	-6.6608	-23.782767	0.000375	3.749294	1.270295	0.000150
1843	1.8328e+02	-6.6110	-23.584947	0.000497	4.965281	1.682283	0.000199
1844	1.8338e+02	-6.5741	-23.423462	0.000405	4.053290	1.373292	0.000162
1845	1.8348e+02	-6.5324	-23.245828	0.000446	4.458619	1.510621	0.000179
1846	1.8358e+02	-6.4859	-23.031859	0.000537	5.370610	1.819612	0.000215
1847	1.8368e+02	-6.4554	-22.874411	0.000395	3.951958	1.338960	0.000158
1848	1.8378e+02	-6.4137	-22.721000	0.000385	3.850626	1.304627	0.000154
1849	1.8388e+02	-6.3848	-22.519143	0.000507	5.066613	1.716615	0.000203
1850	1.8398e+02	-6.3463	-22.337472	0.000456	4.559952	1.544953	0.000183
1851	1.8407e+02	-6.3030	-22.180024	0.000395	3.951958	1.338960	0.000158
1852	1.8417e+02	-6.2581	-21.941833	0.000598	5.978603	2.025606	0.000239
1853	1.8427e+02	-6.2244	-21.796496	0.000365	3.647961	1.235963	0.000146
1854	1.8437e+02	-6.1811	-21.582528	0.000537	5.370610	1.819612	0.000215
1855	1.8447e+02	-6.1298	-21.437191	0.000365	3.647961	1.235963	0.000146
1856	1.8457e+02	-6.0977	-21.231297	0.000517	5.167945	1.750947	0.000207
1857	1.8467e+02	-6.0672	-21.045589	0.000466	4.661284	1.579286	0.000187
1858	1.8477e+02	-6.0127	-20.880066	0.000415	4.154623	1.407624	0.000166
1859	1.8487e+02	-5.9710	-20.702432	0.000446	4.458619	1.510621	0.000179
1860	1.8497e+02	-5.9357	-20.516724	0.000466	4.661284	1.579286	0.000187
1861	1.8507e+02	-5.8923	-20.310830	0.000517	5.167945	1.750947	0.000207
1862	1.8517e+02	-5.8587	-20.133196	0.000446	4.458619	1.510621	0.000179
1863	1.8527e+02	-5.8169	-19.967673	0.000415	4.154623	1.407624	0.000166
1864	1.8537e+02	-5.7801	-19.725445	0.000608	6.079935	2.059938	0.000243
1865	1.8547e+02	-5.7335	-19.543774	0.000456	4.559952	1.544953	0.000183
1866	1.8557e+02	-5.6982	-19.378252	0.000415	4.154623	1.407624	0.000166
1867	1.8567e+02	-5.6597	-19.224840	0.000385	3.850626	1.304627	0.000154
1868	1.8577e+02	-5.6084	-19.010872	0.000537	5.370610	1.819612	0.000215
1869	1.8587e+02	-5.5859	-18.841312	0.000426	4.255955	1.441957	0.000170
1870	1.8597e+02	-5.5394	-18.659641	0.000456	4.559952	1.544953	0.000183
1871	1.8606e+02	-5.5025	-18.465859	0.000486	4.863948	1.647950	0.000195
1872	1.8616e+02	-5.4592	-18.276113	0.000476	4.762616	1.613618	0.000191
1873	1.8626e+02	-5.4223	-18.114628	0.000405	4.053290	1.373292	0.000162
1874	1.8636e+02	-5.3774	-17.916808	0.000497	4.965281	1.682283	0.000199
1875	1.8646e+02	-5.3357	-17.706877	0.000527	5.269277	1.785280	0.000211
1876	1.8656e+02	-5.2972	-17.537318	0.000426	4.255955	1.441957	0.000170
1877	1.8666e+02	-5.2667	-17.323349	0.000537	5.370610	1.819612	0.000215
1878	1.8676e+02	-5.2202	-17.149753	0.000436	4.357287	1.476289	0.000174
1879	1.8686e+02	-5.1785	-16.943859	0.000517	5.167945	1.750947	0.000207
1880	1.8696e+02	-5.1432	-16.758150	0.000466	4.661284	1.579286	0.000187
1881	1.8706e+02	-5.0983	-16.572442	0.000466	4.661284	1.579286	0.000187
1882	1.8716e+02	-5.0485	-16.370585	0.000507	5.066613	1.716615	0.000203
1883	1.8726e+02	-5.0180	-16.192951	0.000446	4.458619	1.510621	0.000179
1884	1.8736e+02	-4.9779	-15.999169	0.000486	4.863948	1.647950	0.000195
1885	1.8746e+02	-4.9362	-15.793275	0.000517	5.167945	1.750947	0.000207
1886	1.8756e+02	-4.9090	-15.603530	0.000476	4.762616	1.613618	0.000191
1887	1.8766e+02	-4.8656	-15.458193	0.000365	3.647961	1.235963	0.000146
1888	1.8776e+02	-4.8207	-15.224039	0.000588	5.877271	1.991273	0.000235
1889	1.8786e+02	-4.7806	-14.993922	0.000578	5.775939	1.956941	0.000231
1890	1.8796e+02	-4.7437	-14.856660	0.000345	3.445297	1.167298	0.000138
1891	1.8806e+02	-4.7164	-14.666914	0.000476	4.762616	1.613618	0.000191
1892	1.8815e+02	-4.6683	-14.477169	0.000476	4.762616	1.613618	0.000191
1893	1.8825e+02	-4.6202	-14.283386	0.000486	4.863948	1.647950	0.000195
1894	1.8835e+02	-4.5833	-14.109789	0.000436	4.357287	1.476289	0.000174
1895	1.8845e+02	-4.5464	-13.895821	0.000537	5.370610	1.819612	0.000215
1896	1.8855e+02	-4.5047	-13.681853	0.000537	5.370610	1.819612	0.000215
1897	1.8865e+02	-4.4598	-13.504219	0.000446	4.458619	1.510621	0.000179
1898	1.8875e+02	-4.4229	-13.322548	0.000456	4.559952	1.544953	0.000183
1899	1.8885e+02	-4.3844	-13.104543	0.000547	5.471942	1.853944	0.000219
1900	1.8895e+02	-4.3394	-12.939020	0.000415	4.154623	1.407624	0.000166
1901	1.8905e+02	-4.3058	-12.773497	0.000415	4.154623	1.407624	0.000166
1902	1.8915e+02	-4.2657	-12.543381	0.000578	5.775939	1.956941	0.000231
1903	1.8925e+02	-4.2223	-12.329413	0.000537	5.370610	1.819612	0.000215
1904	1.8935e+02	-4.1870	-12.176001	0.000385	3.850626	1.304627	0.000154
1905	1.8945e+02	-4.1502	-11.925699	0.000628	6.282600	2.128603	0.000252
1906	1.8955e+02	-4.0924	-11.800548	0.000314	3.141300	1.064301	0.000126
1907	1.8965e+02	-4.0539	-11.574468	0.000567	5.674606	1.922609	0.000227
1908	1.8975e+02	-4.0266	-11.348389	0.000567	5.674606	1.922609	0.000227
1909	1.8985e+02	-3.9897	-11.203052	0.000365	3.647961	1.235963	0.000146
1910	1.8995e+02	-3.9464	-10.985046	0.000547	5.471942	1.853944	0.000219
1911	1.9004e+02	-3.9063	-10.779152	0.000517	5.167945	1.750947	0.000207
1912	1.9014e+02	-3.8646	-10.585370	0.000486	4.863948	1.647950	0.000195
1913	1.9024e+02	-3.8261	-10.399662	0.000466	4.661284	1.579286	0.000187
1914	1.9034e+02	-3.7796	-10.165508	0.000588	5.877271	1.991273	0.000235
1915	1.9044e+02	-3.7459	-9.975762	0.000476	4.762616	1.613618	0.000191
1916	1.9054e+02	-3.7074	-9.749683	0.000567	5.674606	1.922609	0.000227
1917	1.9064e+02	-3.6705	-9.592235	0.000395	3.951958	1.338960	0.000158
1918	1.9074e+02	-3.6208	-9.362118	0.000578	5.775939	1.956941	0.000231
1919	1.9084e+02	-3.5806	-9.176410	0.000466	4.661284	1.579286	0.000187
1920	1.9094e+02	-3.5454	-8.962441	0.000537	5.370610	1.819612	0.000215
1921	1.9104e+02	-3.5052	-8.792882	0.000426	4.255955	1.441957	0.000170
1922	1.9114e+02	-3.4667	-8.586988	0.000517	5.167945	1.750947	0.000207
1923	1.9124e+02	-3.4250	-8.360908	0.000567	5.674606	1.922609	0.000227
1924	1.9134e+02	-3.3881	-8.183274	0.000446	4.458619	1.510621	0.000179
1925	1.9144e+02	-3.3464	-8.001603	0.000456	4.559952	1.544953	0.000183
1926	1.9154e+02	-3.3111	-7.763412	0.000598	5.978603	2.025606	0.000239
1927	1.9164e+02	-3.2678	-7.589815	0.000436	4.357287	1.476289	0.000174
1928	1.9174e+02	-3.2229	-7.383921	0.000517	5.167945	1.750947	0.000207
1929	1.9184e+02	-3.1892	-7.210324	0.000436	4.357287	1.476289	0.000174
1930	1.9194e+02	-3.1523	-6.964059	0.000618	6.181268	2.094270	0.000248
1931	1.9203e+02	-3.1074	-6.798537	0.000415	4.154623	1.407624	0.000166
1932	1.9213e+02	-3.0705	-6.588606	0.000527	5.269277	1.785280	0.000211
1933	1.9223e+02	-3.0304	-6.410972	0.000446	4.458619	1.510621	0.000179
1934	1.9233e+02	-2.9967	-6.184892	0.000567	5.674606	1.922609	0.000227
1935	1.9243e+02	-2.9502	-5.962849	0.000557	5.573274	1.888276	0.000223
1936	1.9253e+02	-2.9101	-5.765030	0.000497	4.965281	1.682283	0.000199
1937	1.9263e+02	-2.8571	-5.583359	0.000456	4.559952	1.544953	0.000183
1938	1.9273e+02	-2.8186	-5.397650	0.000466	4.661284	1.579286	0.000187
1939	1.9283e+02	-2.7898	-5.143311	0.000638	6.383932	2.162935	0.000256
1940	1.9293e+02	-2.7513	-4.981826	0.000405	4.053290	1.373292	0.000162
1941	1.9303e+02	-2.7144	-4.767857	0.000537	5.370610	1.819612	0.000215
1942	1.9313e+02	-2.6775	-4.574075	0.000486	4.863948	1.647950	0.000195
1943	1.9323e+02	-2.6261	-4.364144	0.000527	5.269277	1.785280	0.000211
1944	1.9333e+02	-2.5860	-4.138064	0.000567	5.674606	1.922609	0.000227
1945	1.9343e+02	-2.5475	-3.916022	0.000557	5.573274	1.888276	0.000223
1946	1.9353e+02	-2.5074	-3.770685	0.000365	3.647961	1.235963	0.000146
1947	1.9363e+02	-2.4641	-3.552679	0.000547	5.471942	1.853944	0.000219
1948	1.9373e+02	-2.4320	-3.366971	0.000466	4.661284	1.579286	0.000187
1949	1.9383e+02	-2.3951	-3.144929	0.000557	5.573274	1.888276	0.000223
1950	1.9393e+02	-2.3486	-2.926923	0.000547	5.471942	1.853944	0.000219
1951	1.9403e+02	-2.3133	-2.700844	0.000567	5.674606	1.922609	0.000227
1952	1.9412e+02	-2.2684	-2.535321	0.000415	4.154623	1.407624	0.000166
1953	1.9422e+02	-2.2331	-2.325390	0.000527	5.269277	1.785280	0.000211
1954	1.9432e+02	-2.1882	-2.115459	0.000527	5.269277	1.785280	0.000211
1955	1.9442e+02	-2.1417	-1.925714	0.000476	4.762616	1.613618	0.000191
1956	1.9452e+02	-2.1192	-1.707708	0.000547	5.471942	1.853944	0.000219
1957	1.9462e+02	-2.0727	-1.477592	0.000578	5.775939	1.956941	0.000231
1958	1.9472e+02	-2.0197	-1.247475	0.000578	5.775939	1.956941	0.000231
1959	1.9482e+02	-1.9925	-1.073878	0.000436	4.357287	1.476289	0.000174
1960	1.9492e+02	-1.9427	-0.900281	0.000436	4.357287	1.476289	0.000174
1961	1.9502e+02	-1.9171	-0.645942	0.000638	6.383932	2.162935	0.000256
1962	1.9512e+02	-1.8786	-0.492531	0.000385	3.850626	1.304627	0.000154
1963	1.9522e+02	-1.8304	-0.246265	0.000618	6.181268	2.094270	0.000248
1964	1.9532e+02	-1.7887	-0.060557	0.000466	4.661284	1.579286	0.000187
1965	1.9542e+02	-1.7566	0.173597	0.000588	5.877271	1.991273	0.000235
1966	1.9552e+02	-1.7085	0.367379	0.000486	4.863948	1.647950	0.000195
1967	1.9562e+02	-1.6700	0.577310	0.000527	5.269277	1.785280	0.000211
1968	1.9572e+02	-1.6363	0.815501	0.000598	5.978603	2.025606	0.000239
1969	1.9582e+02	-1.5994	1.001210	0.000466	4.661284	1.579286	0.000187
1970	1.9592e+02	-1.5609	1.182881	0.000456	4.559952	1.544953	0.000183
1971	1.9601e+02	-1.5064	1.392812	0.000527	5.269277	1.785280	0.000211
1972	1.9611e+02	-1.4647	1.651189	0.000649	6.485265	2.197267	0.000260
1973	1.9621e+02	-1.4326	1.828822	0.000446	4.458619	1.510621	0.000179
1974	1.9631e+02	-1.3957	2.038754	0.000527	5.269277	1.785280	0.000211
1975	1.9641e+02	-1.3556	2.228499	0.000476	4.762616	1.613618	0.000191
1976	1.9651e+02	-1.3155	2.462653	0.000588	5.877271	1.991273	0.000235
1977	1.9661e+02	-1.2818	2.704881	0.000608	6.079935	2.059938	0.000243
1978	1.9671e+02	-1.2288	2.874441	0.000426	4.255955	1.441957	0.000170
1979	1.9681e+02	-1.1968	3.080335	0.000517	5.167945	1.750947	0.000207
1980	1.9691e+02	-1.1615	3.262006	0.000456	4.559952	1.544953	0.000183
1981	1.9701e+02	-1.1230	3.516345	0.000638	6.383932	2.162935	0.000256
1982	1.9711e+02	-1.0700	3.714165	0.000497	4.965281	1.682283	0.000199
1983	1.9721e+02	-1.0363	3.932170	0.000547	5.471942	1.853944	0.000219
1984	1.9731e+02	-1.0010	4.154213	0.000557	5.573274	1.888276	0.000223
1985	1.9741e+02	-0.9465	4.356069	0.000507	5.066613	1.716615	0.000203
1986	1.9751e+02	-0.9176	4.549852	0.000486	4.863948	1.647950	0.000195
1987	1.9761e+02	-0.8663	4.784006	0.000588	5.877271	1.991273	0.000235
1988	1.9771e+02	-0.8310	4.973751	0.000476	4.762616	1.613618	0.000191
1989	1.9781e+02	-0.7957	5.203868	0.000578	5.775939	1.956941	0.000231
1990	1.9791e+02	-0.7524	5.409762	0.000517	5.167945	1.750947	0.000207
1991	1.9800e+02	-0.7155	5.603544	0.000486	4.863948	1.647950	0.000195
1992	1.9810e+02	-0.6738	5.789253	0.000466	4.661284	1.579286	0.000187
1993	1.9820e+02	-0.6289	6.003221	0.000537	5.370610	1.819612	0.000215
1994	1.9830e+02	-0.5984	6.261598	0.000649	6.485265	2.197267	0.000260
1995	1.9840e+02	-0.5599	6.463454	0.000507	5.066613	1.716615	0.000203
1996	1.9850e+02	-0.5214	6.637051	0.000436	4.357287	1.476289	0.000174
1997	1.9860e+02	-0.4781	6.834871	0.000497	4.965281	1.682283	0.000199
1998	1.9870e+02	-0.4396	7.052876	0.000547	5.471942	1.853944	0.000219
1999	1.9880e+02	-0.3978	7.287030	0.000588	5.877271	1.991273	0.000235
2000	1.9890e+02	-0.3561	7.488887	0.000507	5.066613	1.716615	0.000203
2001	1.9900e+02	-0.3273	7.662484	0.000436	4.357287	1.476289	0.000174
2002	1.9910e+02	-0.2759	7.920860	0.000649	6.485265	2.197267	0.000260
2003	1.9920e+02	-0.2374	8.134829	0.000537	5.370610	1.819612	0.000215
2004	1.9930e+02	-0.2069	8.348797	0.000537	5.370610	1.819612	0.000215
2005	1.9940e+02	-0.1604	8.550653	0.000507	5.066613	1.716615	0.000203
2006	1.9950e+02	-0.1187	8.768659	0.000547	5.471942	1.853944	0.000219
2007	1.9960e+02	-0.0802	8.978590	0.000527	5.269277	1.785280	0.000211
2008	1.9970e+02	-0.0449	9.192558	0.000537	5.370610	1.819612	0.000215
2009	1.9980e+02	0.0032	9.366155	0.000537	5.370610	1.819612	0.000174

PMax (uC/cm2):	1.06e+02
Pr (uC/cm2):	7.27e+01
-Pr (uC/cm2):	5.46e+01
PLoss (uC/cm2):	5.47e+01
Vc:	-1.18e+01
-Vc:	-1.52e+01
C (Max-Eff) (nF):	5.29e-01
K (Eff):	1.79e+03
Vert. (+/-Pr) Shift (uC/cm2):	6.37e+01
Horiz. Shift (+/-Vc):	-1.35e+01
Offset (uC/cm2):	4.53e+01

A (Loop Area - uC/cm2·Volts):	-2.92e+00



Hysteresis Version: 5.48.1 - Radiant Technologies, Inc., 1999 - 9/12/24

