»»»»»»»»»»»»»»»»»»»»»»»»»»»»»»»»»»»» Hysteresis ««««««««««««««««««««««««««««««««««««
»»»  Executed Version:	5.48.1
»»»  Vision Version:	5.48.4 (R)
»»»  Vision Compiled:	9/18/24
»»»  Driver Version:	5.47.0
»»»  Windows Version:	Windows 8 or 8.1
»»»  Processor Information:	x86 (AMD or Intel) - 32 Processors
»»»  Tester Name:	PMF21124-494 (100V)
»»»  Tester S/N:	PMF21124-494
»»»  Internal Amp Type:	100V RevK 270k
»»»  Internal Amp S/N:	iAB2-596/K     
»»»  Execution Count:	1
»»»»»»»»»»»»»»»»»»»»»»»»»»»»»»»»»»»»»»»»»»««««««««««««««««««««««««««««««««««««««««««

Stored:	6/18/2025 - 11:36:18
Configured:	06/18/25 09:47:30 AM
Executed:	06/18/25 11:35:47 AM

»»»»»»»»»»»»»»»»»»»»»»»»»»»»»»»»»»» Sample Info ««««««««««««««««««««««««««««««««««««
Sample Name:	
Lot Name:	
Wafer Name:	
Die Row/Column:	0/0
Capacitor Number:	0
Sample Area (cm2):	1.00e-04
Sample Thickness (microns):	3.00e-01

Amplifier:	Internal

»»»»»»»»»»»»»»»»»»»»»»»»»»»»»»»»»»» Tester Info «««««««««««««««««««««««««««««««««««
Tester Name:	PMF21124-494 (100V)
Tester Serial Number:	PMF21124-494
Return Signal Amp. Level:	0.19 [Index: 3]

»»»»»»»»»»»»»»»»»»»»»»»»»»»»»»»» Hysteresis Info ««««««««««««««««««««««««««««««««««
Task Name:	Hyst-554
Volts:	20.00
Field:	666.67 (kV/cm)
DCBias:	0.00
DCField:	0.00 (kV/cm)
Hysteresis Period (ms):	2.00e+02
Preset:	Enabled
Preset Delay (ms):	1.00e+03
Profile:	Standard Bipolar

»»»»»»»»»»»»»»»»»»»»»»»»»»»»»»»»»»»»»» Data «««««««««««««««««««««««««««««««««««««««
Points:	2009

Valid Data

Point	Time (ms)	Drive Voltage	Measured Polarization (uC/cm2)	Capacitance (uF)	Normalized Capacitance (uF/cm2)	Dielectric Constant	Instantaneous Current (mA)
   1	0.0000e+00	0.0032	-7.414200	0.000314	3.142560	1.064728	0.000126
   2	9.9500e-02	0.0337	-7.289049	0.000314	3.142560	1.064728	0.000126
   3	1.9900e-01	0.0674	-7.079118	0.000527	5.271392	1.785996	0.000211
   4	2.9850e-01	0.1139	-6.877261	0.000507	5.068646	1.717304	0.000203
   5	3.9800e-01	0.1588	-6.715775	0.000405	4.054917	1.373843	0.000162
   6	4.9750e-01	0.2053	-6.485659	0.000578	5.778256	1.957726	0.000231
   7	5.9700e-01	0.2310	-6.324173	0.000405	4.054917	1.373843	0.000162
   8	6.9650e-01	0.2727	-6.110205	0.000537	5.372764	1.820342	0.000215
   9	7.9600e-01	0.3096	-5.920460	0.000476	4.764527	1.614265	0.000191
  10	8.9550e-01	0.3610	-5.718603	0.000507	5.068646	1.717304	0.000203
  11	9.9500e-01	0.3882	-5.516746	0.000507	5.068646	1.717304	0.000203
  12	1.0945e+00	0.4315	-5.327001	0.000476	4.764527	1.614265	0.000191
  13	1.1940e+00	0.4716	-5.125144	0.000507	5.068646	1.717304	0.000203
  14	1.2935e+00	0.5085	-4.935398	0.000476	4.764527	1.614265	0.000191
  15	1.3930e+00	0.5519	-4.733542	0.000507	5.068646	1.717304	0.000203
  16	1.4925e+00	0.5871	-4.519573	0.000537	5.372764	1.820342	0.000215
  17	1.5920e+00	0.6321	-4.345977	0.000436	4.359035	1.476881	0.000174
  18	1.6915e+00	0.6706	-4.148157	0.000497	4.967273	1.682958	0.000199
  19	1.7910e+00	0.7123	-3.926115	0.000558	5.575510	1.889034	0.000223
  20	1.8905e+00	0.7476	-3.728295	0.000497	4.967273	1.682958	0.000199
  21	1.9900e+00	0.7957	-3.534512	0.000487	4.865900	1.648612	0.000195
  22	2.0895e+00	0.8342	-3.348804	0.000466	4.663154	1.579919	0.000187
  23	2.1890e+00	0.8711	-3.130799	0.000547	5.474137	1.854688	0.000219
  24	2.2885e+00	0.9080	-2.932979	0.000497	4.967273	1.682958	0.000199
  25	2.3880e+00	0.9465	-2.751308	0.000456	4.561781	1.545573	0.000183
  26	2.4875e+00	0.9930	-2.521191	0.000578	5.778256	1.957726	0.000231
  27	2.5870e+00	1.0251	-2.343557	0.000446	4.460408	1.511227	0.000179
  28	2.6865e+00	1.0620	-2.101329	0.000608	6.082375	2.060764	0.000243
  29	2.7860e+00	1.1117	-2.004438	0.000243	2.432950	0.824306	0.000097
  30	2.8855e+00	1.1406	-1.709727	0.000740	7.400223	2.507263	0.000296
  31	2.9850e+00	1.1855	-1.532093	0.000446	4.460408	1.511227	0.000179
  32	3.0845e+00	1.2304	-1.346385	0.000466	4.663154	1.579919	0.000187
  33	3.1840e+00	1.2673	-1.132417	0.000537	5.372764	1.820342	0.000215
  34	3.2835e+00	1.3042	-0.950745	0.000456	4.561781	1.545573	0.000183
  35	3.3830e+00	1.3427	-0.720629	0.000578	5.778256	1.957726	0.000231
  36	3.4825e+00	1.3861	-0.534920	0.000466	4.663154	1.579919	0.000187
  37	3.5820e+00	1.4310	-0.337101	0.000497	4.967273	1.682958	0.000199
  38	3.6815e+00	1.4679	-0.147355	0.000476	4.764527	1.614265	0.000191
  39	3.7810e+00	1.5160	0.082761	0.000578	5.778256	1.957726	0.000231
  40	3.8805e+00	1.5465	0.236172	0.000385	3.852171	1.305151	0.000154
  41	3.9800e+00	1.5802	0.490512	0.000639	6.386494	2.163803	0.000256
  42	4.0795e+00	1.6299	0.660072	0.000426	4.257662	1.442535	0.000170
  43	4.1790e+00	1.6684	0.886151	0.000568	5.676883	1.923380	0.000227
  44	4.2785e+00	1.7117	1.067822	0.000456	4.561781	1.545573	0.000183
  45	4.3780e+00	1.7566	1.281791	0.000537	5.372764	1.820342	0.000215
  46	4.4775e+00	1.7871	1.443276	0.000405	4.054917	1.373843	0.000162
  47	4.5770e+00	1.8272	1.637059	0.000487	4.865900	1.648612	0.000195
  48	4.6765e+00	1.8593	1.875250	0.000598	5.981002	2.026418	0.000239
  49	4.7760e+00	1.9042	2.069032	0.000487	4.865900	1.648612	0.000195
  50	4.8755e+00	1.9427	2.230517	0.000405	4.054917	1.373843	0.000162
  51	4.9750e+00	1.9876	2.488894	0.000649	6.487867	2.198149	0.000260
  52	5.0745e+00	2.0165	2.682677	0.000487	4.865900	1.648612	0.000195
  53	5.1740e+00	2.0695	2.884533	0.000507	5.068646	1.717304	0.000203
  54	5.2735e+00	2.1112	3.098502	0.000537	5.372764	1.820342	0.000215
  55	5.3730e+00	2.1465	3.296321	0.000497	4.967273	1.682958	0.000199
  56	5.4725e+00	2.1914	3.465881	0.000426	4.257662	1.442535	0.000170
  57	5.5720e+00	2.2219	3.679849	0.000537	5.372764	1.820342	0.000215
  58	5.6715e+00	2.2668	3.885743	0.000517	5.170019	1.751650	0.000207
  59	5.7710e+00	2.3021	4.107786	0.000558	5.575510	1.889034	0.000223
  60	5.8705e+00	2.3566	4.305605	0.000497	4.967273	1.682958	0.000199
  61	5.9700e+00	2.3919	4.527648	0.000558	5.575510	1.889034	0.000223
  62	6.0695e+00	2.4272	4.741616	0.000537	5.372764	1.820342	0.000215
  63	6.1690e+00	2.4593	4.923287	0.000456	4.561781	1.545573	0.000183
  64	6.2685e+00	2.5074	5.100921	0.000446	4.460408	1.511227	0.000179
  65	6.3680e+00	2.5539	5.302778	0.000507	5.068646	1.717304	0.000203
  66	6.4675e+00	2.5828	5.520783	0.000547	5.474137	1.854688	0.000219
  67	6.5670e+00	2.6293	5.738788	0.000547	5.474137	1.854688	0.000219
  68	6.6665e+00	2.6662	5.936608	0.000497	4.967273	1.682958	0.000199
  69	6.7660e+00	2.7015	6.106168	0.000426	4.257662	1.442535	0.000170
  70	6.8655e+00	2.7464	6.332247	0.000568	5.676883	1.923380	0.000227
  71	6.9650e+00	2.7817	6.558327	0.000568	5.676883	1.923380	0.000227
  72	7.0645e+00	2.8315	6.752110	0.000487	4.865900	1.648612	0.000195
  73	7.1640e+00	2.8620	6.925706	0.000436	4.359035	1.476881	0.000174
  74	7.2635e+00	2.9053	7.200232	0.000689	6.893358	2.335533	0.000276
  75	7.3630e+00	2.9470	7.394014	0.000487	4.865900	1.648612	0.000195
  76	7.4625e+00	2.9871	7.575685	0.000456	4.561781	1.545573	0.000183
  77	7.5620e+00	3.0160	7.805802	0.000578	5.778256	1.957726	0.000231
  78	7.6615e+00	3.0561	7.975362	0.000426	4.257662	1.442535	0.000170
  79	7.7610e+00	3.0962	8.177218	0.000507	5.068646	1.717304	0.000203
  80	7.8605e+00	3.1379	8.362927	0.000466	4.663154	1.579919	0.000187
  81	7.9600e+00	3.1844	8.576895	0.000537	5.372764	1.820342	0.000215
  82	8.0595e+00	3.2293	8.762603	0.000466	4.663154	1.579919	0.000187
  83	8.1590e+00	3.2614	9.041165	0.000699	6.994731	2.369879	0.000280
  84	8.2585e+00	3.2999	9.194577	0.000385	3.852171	1.305151	0.000154
  85	8.3580e+00	3.3432	9.380285	0.000466	4.663154	1.579919	0.000187
  86	8.4575e+00	3.3753	9.582142	0.000507	5.068646	1.717304	0.000203
  87	8.5570e+00	3.4250	9.800147	0.000547	5.474137	1.854688	0.000219
  88	8.6565e+00	3.4571	10.018152	0.000547	5.474137	1.854688	0.000219
  89	8.7560e+00	3.4908	10.220009	0.000507	5.068646	1.717304	0.000203
  90	8.8555e+00	3.5518	10.433977	0.000537	5.372764	1.820342	0.000215
  91	8.9550e+00	3.5742	10.615648	0.000456	4.561781	1.545573	0.000183
  92	9.0545e+00	3.6272	10.841728	0.000568	5.676883	1.923380	0.000227
  93	9.1540e+00	3.6673	11.035511	0.000487	4.865900	1.648612	0.000195
  94	9.2535e+00	3.6945	11.221219	0.000466	4.663154	1.579919	0.000187
  95	9.3530e+00	3.7443	11.398853	0.000446	4.460408	1.511227	0.000179
  96	9.4525e+00	3.7796	11.612821	0.000537	5.372764	1.820342	0.000215
  97	9.5520e+00	3.8389	11.855049	0.000608	6.082375	2.060764	0.000243
  98	9.6515e+00	3.8598	12.044794	0.000476	4.764527	1.614265	0.000191
  99	9.7510e+00	3.9015	12.230503	0.000466	4.663154	1.579919	0.000187
 100	9.8505e+00	3.9368	12.436397	0.000517	5.170019	1.751650	0.000207
 101	9.9500e+00	3.9753	12.658439	0.000558	5.575510	1.889034	0.000223
 102	1.0050e+01	4.0186	12.872407	0.000537	5.372764	1.820342	0.000215
 103	1.0149e+01	4.0555	13.098487	0.000568	5.676883	1.923380	0.000227
 104	1.0248e+01	4.1020	13.247861	0.000375	3.750798	1.270805	0.000150
 105	1.0348e+01	4.1502	13.457792	0.000527	5.271392	1.785996	0.000211
 106	1.0447e+01	4.1774	13.687909	0.000578	5.778256	1.957726	0.000231
 107	1.0547e+01	4.2143	13.897840	0.000527	5.271392	1.785996	0.000211
 108	1.0646e+01	4.2560	14.127957	0.000578	5.778256	1.957726	0.000231
 109	1.0746e+01	4.2977	14.325776	0.000497	4.967273	1.682958	0.000199
 110	1.0845e+01	4.3411	14.547819	0.000558	5.575510	1.889034	0.000223
 111	1.0945e+01	4.3796	14.713341	0.000416	4.156290	1.408189	0.000166
 112	1.1044e+01	4.4181	14.919235	0.000517	5.170019	1.751650	0.000207
 113	1.1144e+01	4.4566	15.161463	0.000608	6.082375	2.060764	0.000243
 114	1.1243e+01	4.4967	15.375431	0.000537	5.372764	1.820342	0.000215
 115	1.1343e+01	4.5416	15.577288	0.000507	5.068646	1.717304	0.000203
 116	1.1443e+01	4.5721	15.742811	0.000416	4.156290	1.408189	0.000166
 117	1.1542e+01	4.6186	15.972928	0.000578	5.778256	1.957726	0.000231
 118	1.1642e+01	4.6555	16.199007	0.000568	5.676883	1.923380	0.000227
 119	1.1741e+01	4.6972	16.417012	0.000547	5.474137	1.854688	0.000219
 120	1.1841e+01	4.7389	16.626944	0.000527	5.271392	1.785996	0.000211
 121	1.1940e+01	4.7758	16.832837	0.000517	5.170019	1.751650	0.000207
 122	1.2040e+01	4.8239	17.026620	0.000487	4.865900	1.648612	0.000195
 123	1.2139e+01	4.8592	17.236551	0.000527	5.271392	1.785996	0.000211
 124	1.2239e+01	4.8977	17.462631	0.000568	5.676883	1.923380	0.000227
 125	1.2338e+01	4.9394	17.648339	0.000466	4.663154	1.579919	0.000187
 126	1.2438e+01	4.9715	17.862307	0.000537	5.372764	1.820342	0.000215
 127	1.2537e+01	5.0180	18.039941	0.000446	4.460408	1.511227	0.000179
 128	1.2636e+01	5.0485	18.294281	0.000639	6.386494	2.163803	0.000256
 129	1.2736e+01	5.1047	18.488063	0.000487	4.865900	1.648612	0.000195
 130	1.2835e+01	5.1319	18.706068	0.000547	5.474137	1.854688	0.000219
 131	1.2935e+01	5.1833	18.932148	0.000568	5.676883	1.923380	0.000227
 132	1.3034e+01	5.2025	19.125931	0.000487	4.865900	1.648612	0.000195
 133	1.3134e+01	5.2603	19.287416	0.000405	4.054917	1.373843	0.000162
 134	1.3233e+01	5.2988	19.537718	0.000629	6.285121	2.129457	0.000252
 135	1.3333e+01	5.3421	19.755724	0.000547	5.474137	1.854688	0.000219
 136	1.3432e+01	5.3710	19.985840	0.000578	5.778256	1.957726	0.000231
 137	1.3532e+01	5.4175	20.155400	0.000426	4.257662	1.442535	0.000170
 138	1.3632e+01	5.4528	20.361294	0.000517	5.170019	1.751650	0.000207
 139	1.3731e+01	5.4961	20.571225	0.000527	5.271392	1.785996	0.000211
 140	1.3831e+01	5.5346	20.773082	0.000507	5.068646	1.717304	0.000203
 141	1.3930e+01	5.5811	21.055681	0.000710	7.096104	2.404225	0.000284
 142	1.4030e+01	5.6212	21.192944	0.000345	3.446679	1.167766	0.000138
 143	1.4129e+01	5.6453	21.382689	0.000476	4.764527	1.614265	0.000191
 144	1.4229e+01	5.6966	21.637029	0.000639	6.386494	2.163803	0.000256
 145	1.4328e+01	5.7351	21.850997	0.000537	5.372764	1.820342	0.000215
 146	1.4428e+01	5.7784	22.069003	0.000547	5.474137	1.854688	0.000219
 147	1.4527e+01	5.8186	22.242599	0.000436	4.359035	1.476881	0.000174
 148	1.4627e+01	5.8522	22.472716	0.000578	5.778256	1.957726	0.000231
 149	1.4726e+01	5.8988	22.674573	0.000507	5.068646	1.717304	0.000203
 150	1.4825e+01	5.9357	22.896615	0.000558	5.575510	1.889034	0.000223
 151	1.4925e+01	5.9677	23.062138	0.000416	4.156290	1.408189	0.000166
 152	1.5024e+01	6.0127	23.292255	0.000578	5.778256	1.957726	0.000231
 153	1.5124e+01	6.0512	23.554668	0.000659	6.589239	2.232495	0.000264
 154	1.5223e+01	6.0897	23.704042	0.000375	3.750798	1.270805	0.000150
 155	1.5323e+01	6.1346	23.958382	0.000639	6.386494	2.163803	0.000256
 156	1.5422e+01	6.1731	24.144090	0.000466	4.663154	1.579919	0.000187
 157	1.5522e+01	6.2036	24.333836	0.000476	4.764527	1.614265	0.000191
 158	1.5621e+01	6.2485	24.567990	0.000588	5.879629	1.992072	0.000235
 159	1.5721e+01	6.2982	24.773883	0.000517	5.170019	1.751650	0.000207
 160	1.5820e+01	6.3351	24.979777	0.000517	5.170019	1.751650	0.000207
 161	1.5920e+01	6.3672	25.181634	0.000507	5.068646	1.717304	0.000203
 162	1.6020e+01	6.4153	25.423862	0.000608	6.082375	2.060764	0.000243
 163	1.6119e+01	6.4490	25.605533	0.000456	4.561781	1.545573	0.000183
 164	1.6218e+01	6.4891	25.815464	0.000527	5.271392	1.785996	0.000211
 165	1.6318e+01	6.5324	26.009247	0.000487	4.865900	1.648612	0.000195
 166	1.6418e+01	6.5790	26.231289	0.000558	5.575510	1.889034	0.000223
 167	1.6517e+01	6.6110	26.433146	0.000507	5.068646	1.717304	0.000203
 168	1.6616e+01	6.6528	26.675374	0.000608	6.082375	2.060764	0.000243
 169	1.6716e+01	6.6977	26.873194	0.000497	4.967273	1.682958	0.000199
 170	1.6816e+01	6.7378	27.099274	0.000568	5.676883	1.923380	0.000227
 171	1.6915e+01	6.7618	27.284982	0.000466	4.663154	1.579919	0.000187
 172	1.7015e+01	6.8132	27.519136	0.000588	5.879629	1.992072	0.000235
 173	1.7114e+01	6.8485	27.700807	0.000456	4.561781	1.545573	0.000183
 174	1.7213e+01	6.8870	27.922849	0.000558	5.575510	1.889034	0.000223
 175	1.7313e+01	6.9271	28.144892	0.000558	5.575510	1.889034	0.000223
 176	1.7413e+01	6.9640	28.342711	0.000497	4.967273	1.682958	0.000199
 177	1.7512e+01	6.9993	28.552643	0.000527	5.271392	1.785996	0.000211
 178	1.7611e+01	7.0522	28.734314	0.000456	4.561781	1.545573	0.000183
 179	1.7711e+01	7.0891	28.980579	0.000618	6.183748	2.095110	0.000248
 180	1.7811e+01	7.1196	29.158213	0.000446	4.460408	1.511227	0.000179
 181	1.7910e+01	7.1677	29.384292	0.000568	5.676883	1.923380	0.000227
 182	1.8009e+01	7.2062	29.606335	0.000558	5.575510	1.889034	0.000223
 183	1.8109e+01	7.2543	29.808192	0.000507	5.068646	1.717304	0.000203
 184	1.8209e+01	7.2864	30.010049	0.000507	5.068646	1.717304	0.000203
 185	1.8308e+01	7.3249	30.252277	0.000608	6.082375	2.060764	0.000243
 186	1.8407e+01	7.3682	30.450096	0.000497	4.967273	1.682958	0.000199
 187	1.8507e+01	7.4067	30.704436	0.000639	6.386494	2.163803	0.000256
 188	1.8607e+01	7.4388	30.869958	0.000416	4.156290	1.408189	0.000166
 189	1.8706e+01	7.4805	31.051630	0.000456	4.561781	1.545573	0.000183
 190	1.8805e+01	7.5287	31.277709	0.000568	5.676883	1.923380	0.000227
 191	1.8905e+01	7.5591	31.503789	0.000568	5.676883	1.923380	0.000227
 192	1.9005e+01	7.6137	31.685460	0.000456	4.561781	1.545573	0.000183
 193	1.9104e+01	7.6410	31.871168	0.000466	4.663154	1.579919	0.000187
 194	1.9203e+01	7.6923	32.097248	0.000568	5.676883	1.923380	0.000227
 195	1.9303e+01	7.7212	32.319290	0.000558	5.575510	1.889034	0.000223
 196	1.9402e+01	7.7661	32.509036	0.000476	4.764527	1.614265	0.000191
 197	1.9502e+01	7.8222	32.727041	0.000547	5.474137	1.854688	0.000219
 198	1.9602e+01	7.8479	32.908712	0.000456	4.561781	1.545573	0.000183
 199	1.9701e+01	7.8928	33.138829	0.000578	5.778256	1.957726	0.000231
 200	1.9800e+01	7.9233	33.352797	0.000537	5.372764	1.820342	0.000215
 201	1.9900e+01	7.9666	33.514282	0.000405	4.054917	1.373843	0.000162
 202	2.0000e+01	8.0035	33.724213	0.000527	5.271392	1.785996	0.000211
 203	2.0099e+01	8.0500	33.946256	0.000558	5.575510	1.889034	0.000223
 204	2.0198e+01	8.0805	34.152150	0.000517	5.170019	1.751650	0.000207
 205	2.0298e+01	8.1206	34.341895	0.000476	4.764527	1.614265	0.000191
 206	2.0398e+01	8.1543	34.535678	0.000487	4.865900	1.648612	0.000195
 207	2.0497e+01	8.2185	34.741572	0.000517	5.170019	1.751650	0.000207
 208	2.0596e+01	8.2458	34.947466	0.000517	5.170019	1.751650	0.000207
 209	2.0696e+01	8.2730	35.141248	0.000487	4.865900	1.648612	0.000195
 210	2.0796e+01	8.3212	35.367328	0.000568	5.676883	1.923380	0.000227
 211	2.0895e+01	8.3613	35.585333	0.000547	5.474137	1.854688	0.000219
 212	2.0994e+01	8.3982	35.779115	0.000487	4.865900	1.648612	0.000195
 213	2.1094e+01	8.4447	35.993084	0.000537	5.372764	1.820342	0.000215
 214	2.1194e+01	8.4864	36.207052	0.000537	5.372764	1.820342	0.000215
 215	2.1293e+01	8.5201	36.376612	0.000426	4.257662	1.442535	0.000170
 216	2.1392e+01	8.5618	36.562320	0.000466	4.663154	1.579919	0.000187
 217	2.1492e+01	8.6051	36.764177	0.000507	5.068646	1.717304	0.000203
 218	2.1591e+01	8.6420	37.002368	0.000598	5.981002	2.026418	0.000239
 219	2.1691e+01	8.6805	37.200187	0.000497	4.967273	1.682958	0.000199
 220	2.1791e+01	8.7206	37.377821	0.000446	4.460408	1.511227	0.000179
 221	2.1890e+01	8.7607	37.595827	0.000547	5.474137	1.854688	0.000219
 222	2.1989e+01	8.8008	37.781535	0.000466	4.663154	1.579919	0.000187
 223	2.2089e+01	8.8393	37.987429	0.000517	5.170019	1.751650	0.000207
 224	2.2189e+01	8.8810	38.213508	0.000568	5.676883	1.923380	0.000227
 225	2.2288e+01	8.9179	38.403254	0.000476	4.764527	1.614265	0.000191
 226	2.2387e+01	8.9580	38.584925	0.000456	4.561781	1.545573	0.000183
 227	2.2487e+01	8.9949	38.790819	0.000517	5.170019	1.751650	0.000207
 228	2.2587e+01	9.0479	39.004787	0.000537	5.372764	1.820342	0.000215
 229	2.2686e+01	9.0735	39.194532	0.000476	4.764527	1.614265	0.000191
 230	2.2785e+01	9.1185	39.396389	0.000507	5.068646	1.717304	0.000203
 231	2.2885e+01	9.1634	39.590172	0.000487	4.865900	1.648612	0.000195
 232	2.2985e+01	9.2051	39.787991	0.000497	4.967273	1.682958	0.000199
 233	2.3084e+01	9.2356	39.985811	0.000497	4.967273	1.682958	0.000199
 234	2.3183e+01	9.2837	40.175556	0.000476	4.764527	1.614265	0.000191
 235	2.3283e+01	9.3190	40.409710	0.000588	5.879629	1.992072	0.000235
 236	2.3383e+01	9.3463	40.623678	0.000537	5.372764	1.820342	0.000215
 237	2.3482e+01	9.3992	40.793238	0.000426	4.257662	1.442535	0.000170
 238	2.3581e+01	9.4457	41.003169	0.000527	5.271392	1.785996	0.000211
 239	2.3681e+01	9.4778	41.168692	0.000416	4.156290	1.408189	0.000166
 240	2.3780e+01	9.5179	41.418994	0.000629	6.285121	2.129457	0.000252
 241	2.3880e+01	9.5484	41.612777	0.000487	4.865900	1.648612	0.000195
 242	2.3980e+01	9.5933	41.770225	0.000395	3.953544	1.339497	0.000158
 243	2.4079e+01	9.6350	41.980156	0.000527	5.271392	1.785996	0.000211
 244	2.4178e+01	9.6783	42.169901	0.000476	4.764527	1.614265	0.000191
 245	2.4278e+01	9.7184	42.367721	0.000497	4.967273	1.682958	0.000199
 246	2.4378e+01	9.7553	42.585726	0.000547	5.474137	1.854688	0.000219
 247	2.4477e+01	9.8035	42.787583	0.000507	5.068646	1.717304	0.000203
 248	2.4576e+01	9.8339	42.957143	0.000426	4.257662	1.442535	0.000170
 249	2.4676e+01	9.8821	43.167074	0.000527	5.271392	1.785996	0.000211
 250	2.4776e+01	9.9206	43.368931	0.000507	5.068646	1.717304	0.000203
 251	2.4875e+01	9.9527	43.595010	0.000568	5.676883	1.923380	0.000227
 252	2.4974e+01	9.9847	43.728236	0.000335	3.345306	1.133420	0.000134
 253	2.5074e+01	10.0329	43.950278	0.000558	5.575510	1.889034	0.000223
 254	2.5174e+01	10.0762	44.140024	0.000476	4.764527	1.614265	0.000191
 255	2.5273e+01	10.1147	44.341880	0.000507	5.068646	1.717304	0.000203
 256	2.5372e+01	10.1532	44.503366	0.000405	4.054917	1.373843	0.000162
 257	2.5472e+01	10.1869	44.725408	0.000558	5.575510	1.889034	0.000223
 258	2.5572e+01	10.2446	44.927265	0.000507	5.068646	1.717304	0.000203
 259	2.5671e+01	10.2751	45.121048	0.000487	4.865900	1.648612	0.000195
 260	2.5770e+01	10.3136	45.314830	0.000487	4.865900	1.648612	0.000195
 261	2.5870e+01	10.3425	45.484390	0.000426	4.257662	1.442535	0.000170
 262	2.5970e+01	10.4067	45.694321	0.000527	5.271392	1.785996	0.000211
 263	2.6069e+01	10.4291	45.904252	0.000527	5.271392	1.785996	0.000211
 264	2.6169e+01	10.4708	46.077849	0.000436	4.359035	1.476881	0.000174
 265	2.6268e+01	10.5206	46.271631	0.000487	4.865900	1.648612	0.000195
 266	2.6367e+01	10.5591	46.489637	0.000547	5.474137	1.854688	0.000219
 267	2.6467e+01	10.5976	46.651122	0.000405	4.054917	1.373843	0.000162
 268	2.6567e+01	10.6345	46.824719	0.000436	4.359035	1.476881	0.000174
 269	2.6666e+01	10.6794	47.066947	0.000608	6.082375	2.060764	0.000243
 270	2.6765e+01	10.7131	47.260730	0.000487	4.865900	1.648612	0.000195
 271	2.6865e+01	10.7484	47.446438	0.000466	4.663154	1.579919	0.000187
 272	2.6965e+01	10.7885	47.652332	0.000517	5.170019	1.751650	0.000207
 273	2.7064e+01	10.8222	47.846114	0.000487	4.865900	1.648612	0.000195
 274	2.7163e+01	10.8751	48.015674	0.000426	4.257662	1.442535	0.000170
 275	2.7263e+01	10.9056	48.229642	0.000537	5.372764	1.820342	0.000215
 276	2.7363e+01	10.9569	48.451685	0.000558	5.575510	1.889034	0.000223
 277	2.7462e+01	10.9954	48.645467	0.000487	4.865900	1.648612	0.000195
 278	2.7561e+01	11.0387	48.819064	0.000436	4.359035	1.476881	0.000174
 279	2.7661e+01	11.0708	49.033032	0.000537	5.372764	1.820342	0.000215
 280	2.7761e+01	11.1141	49.218740	0.000466	4.663154	1.579919	0.000187
 281	2.7860e+01	11.1526	49.404449	0.000466	4.663154	1.579919	0.000187
 282	2.7959e+01	11.1927	49.598231	0.000487	4.865900	1.648612	0.000195
 283	2.8059e+01	11.2296	49.796051	0.000497	4.967273	1.682958	0.000199
 284	2.8159e+01	11.2697	49.997908	0.000507	5.068646	1.717304	0.000203
 285	2.8258e+01	11.3147	50.203801	0.000517	5.170019	1.751650	0.000207
 286	2.8358e+01	11.3467	50.373361	0.000426	4.257662	1.442535	0.000170
 287	2.8457e+01	11.3917	50.603478	0.000578	5.778256	1.957726	0.000231
 288	2.8556e+01	11.4382	50.821483	0.000547	5.474137	1.854688	0.000219
 289	2.8656e+01	11.4671	50.995080	0.000436	4.359035	1.476881	0.000174
 290	2.8756e+01	11.5136	51.156566	0.000405	4.054917	1.373843	0.000162
 291	2.8855e+01	11.5505	51.362459	0.000517	5.170019	1.751650	0.000207
 292	2.8954e+01	11.5906	51.560279	0.000497	4.967273	1.682958	0.000199
 293	2.9054e+01	11.6259	51.741950	0.000456	4.561781	1.545573	0.000183
 294	2.9154e+01	11.6660	51.927658	0.000466	4.663154	1.579919	0.000187
 295	2.9253e+01	11.7157	52.173924	0.000618	6.183748	2.095110	0.000248
 296	2.9352e+01	11.7478	52.371743	0.000497	4.967273	1.682958	0.000199
 297	2.9452e+01	11.7943	52.553414	0.000456	4.561781	1.545573	0.000183
 298	2.9552e+01	11.8232	52.739123	0.000466	4.663154	1.579919	0.000187
 299	2.9651e+01	11.8697	52.928868	0.000476	4.764527	1.614265	0.000191
 300	2.9750e+01	11.9098	53.138799	0.000527	5.271392	1.785996	0.000211
 301	2.9850e+01	11.9483	53.292210	0.000385	3.852171	1.305151	0.000154
 302	2.9950e+01	11.9868	53.542513	0.000629	6.285121	2.129457	0.000252
 303	3.0049e+01	12.0269	53.720147	0.000446	4.460408	1.511227	0.000179
 304	3.0148e+01	12.0686	53.881632	0.000405	4.054917	1.373843	0.000162
 305	3.0248e+01	12.1007	54.091563	0.000527	5.271392	1.785996	0.000211
 306	3.0348e+01	12.1537	54.301494	0.000527	5.271392	1.785996	0.000211
 307	3.0447e+01	12.1922	54.479128	0.000446	4.460408	1.511227	0.000179
 308	3.0547e+01	12.2226	54.697134	0.000547	5.474137	1.854688	0.000219
 309	3.0646e+01	12.2788	54.854582	0.000395	3.953544	1.339497	0.000158
 310	3.0745e+01	12.3077	55.052401	0.000497	4.967273	1.682958	0.000199
 311	3.0845e+01	12.3414	55.286555	0.000588	5.879629	1.992072	0.000235
 312	3.0945e+01	12.3799	55.496486	0.000527	5.271392	1.785996	0.000211
 313	3.1044e+01	12.4264	55.678158	0.000456	4.561781	1.545573	0.000183
 314	3.1143e+01	12.4713	55.847717	0.000426	4.257662	1.442535	0.000170
 315	3.1243e+01	12.4986	56.053611	0.000517	5.170019	1.751650	0.000207
 316	3.1343e+01	12.5483	56.275654	0.000558	5.575510	1.889034	0.000223
 317	3.1442e+01	12.5900	56.481548	0.000517	5.170019	1.751650	0.000207
 318	3.1541e+01	12.6269	56.651107	0.000426	4.257662	1.442535	0.000170
 319	3.1641e+01	12.6638	56.828741	0.000446	4.460408	1.511227	0.000179
 320	3.1741e+01	12.7039	57.042709	0.000537	5.372764	1.820342	0.000215
 321	3.1840e+01	12.7360	57.248603	0.000517	5.170019	1.751650	0.000207
 322	3.1939e+01	12.7922	57.454497	0.000517	5.170019	1.751650	0.000207
 323	3.2039e+01	12.8210	57.587723	0.000335	3.345306	1.133420	0.000134
 324	3.2139e+01	12.8595	57.809765	0.000558	5.575510	1.889034	0.000223
 325	3.2238e+01	12.9044	57.991436	0.000456	4.561781	1.545573	0.000183
 326	3.2337e+01	12.9413	58.197330	0.000517	5.170019	1.751650	0.000207
 327	3.2437e+01	12.9831	58.362853	0.000416	4.156290	1.408189	0.000166
 328	3.2536e+01	13.0264	58.540487	0.000446	4.460408	1.511227	0.000179
 329	3.2636e+01	13.0601	58.738306	0.000497	4.967273	1.682958	0.000199
 330	3.2736e+01	13.1034	58.940163	0.000507	5.068646	1.717304	0.000203
 331	3.2835e+01	13.1451	59.166243	0.000568	5.676883	1.923380	0.000227
 332	3.2934e+01	13.1804	59.343877	0.000446	4.460408	1.511227	0.000179
 333	3.3034e+01	13.2253	59.549771	0.000517	5.170019	1.751650	0.000207
 334	3.3133e+01	13.2654	59.775850	0.000568	5.676883	1.923380	0.000227
 335	3.3233e+01	13.3055	59.937336	0.000405	4.054917	1.373843	0.000162
 336	3.3333e+01	13.3376	60.143230	0.000517	5.170019	1.751650	0.000207
 337	3.3432e+01	13.3841	60.353161	0.000527	5.271392	1.785996	0.000211
 338	3.3532e+01	13.4162	60.486386	0.000335	3.345306	1.133420	0.000134
 339	3.3631e+01	13.4643	60.720540	0.000588	5.879629	1.992072	0.000235
 340	3.3730e+01	13.4932	60.930471	0.000527	5.271392	1.785996	0.000211
 341	3.3830e+01	13.5413	61.132328	0.000507	5.068646	1.717304	0.000203
 342	3.3929e+01	13.5814	61.309962	0.000446	4.460408	1.511227	0.000179
 343	3.4029e+01	13.6199	61.519893	0.000527	5.271392	1.785996	0.000211
 344	3.4129e+01	13.6600	61.693490	0.000436	4.359035	1.476881	0.000174
 345	3.4228e+01	13.7018	61.887272	0.000487	4.865900	1.648612	0.000195
 346	3.4328e+01	13.7451	62.081055	0.000487	4.865900	1.648612	0.000195
 347	3.4427e+01	13.7836	62.295023	0.000537	5.372764	1.820342	0.000215
 348	3.4526e+01	13.8221	62.500917	0.000517	5.170019	1.751650	0.000207
 349	3.4626e+01	13.8638	62.674514	0.000436	4.359035	1.476881	0.000174
 350	3.4725e+01	13.8862	62.840036	0.000416	4.156290	1.408189	0.000166
 351	3.4825e+01	13.9424	63.054005	0.000537	5.372764	1.820342	0.000215
 352	3.4925e+01	13.9761	63.272010	0.000547	5.474137	1.854688	0.000219
 353	3.5024e+01	14.0114	63.453681	0.000456	4.561781	1.545573	0.000183
 354	3.5123e+01	14.0531	63.635352	0.000456	4.561781	1.545573	0.000183
 355	3.5223e+01	14.0980	63.889692	0.000639	6.386494	2.163803	0.000256
 356	3.5322e+01	14.1381	64.022917	0.000335	3.345306	1.133420	0.000134
 357	3.5422e+01	14.1798	64.224774	0.000507	5.068646	1.717304	0.000203
 358	3.5522e+01	14.2135	64.446816	0.000558	5.575510	1.889034	0.000223
 359	3.5621e+01	14.2520	64.616376	0.000426	4.257662	1.442535	0.000170
 360	3.5721e+01	14.2969	64.769787	0.000385	3.852171	1.305151	0.000154
 361	3.5820e+01	14.3402	64.991830	0.000558	5.575510	1.889034	0.000223
 362	3.5919e+01	14.3852	65.161389	0.000426	4.257662	1.442535	0.000170
 363	3.6019e+01	14.4156	65.351135	0.000476	4.764527	1.614265	0.000191
 364	3.6118e+01	14.4573	65.536843	0.000466	4.663154	1.579919	0.000187
 365	3.6218e+01	14.4958	65.762923	0.000568	5.676883	1.923380	0.000227
 366	3.6318e+01	14.5424	65.936519	0.000436	4.359035	1.476881	0.000174
 367	3.6417e+01	14.5745	66.110116	0.000436	4.359035	1.476881	0.000174
 368	3.6517e+01	14.6226	66.291787	0.000456	4.561781	1.545573	0.000183
 369	3.6616e+01	14.6563	66.505756	0.000537	5.372764	1.820342	0.000215
 370	3.6715e+01	14.6948	66.687427	0.000456	4.561781	1.545573	0.000183
 371	3.6815e+01	14.7333	66.848912	0.000405	4.054917	1.373843	0.000162
 372	3.6914e+01	14.7718	67.022509	0.000436	4.359035	1.476881	0.000174
 373	3.7014e+01	14.8231	67.236477	0.000537	5.372764	1.820342	0.000215
 374	3.7114e+01	14.8520	67.438334	0.000507	5.068646	1.717304	0.000203
 375	3.7213e+01	14.8985	67.640191	0.000507	5.068646	1.717304	0.000203
 376	3.7313e+01	14.9290	67.846085	0.000517	5.170019	1.751650	0.000207
 377	3.7412e+01	14.9739	67.983347	0.000345	3.446679	1.167766	0.000138
 378	3.7511e+01	15.0188	68.185204	0.000507	5.068646	1.717304	0.000203
 379	3.7611e+01	15.0541	68.383024	0.000497	4.967273	1.682958	0.000199
 380	3.7711e+01	15.0910	68.580843	0.000497	4.967273	1.682958	0.000199
 381	3.7810e+01	15.1295	68.726180	0.000365	3.649425	1.236459	0.000146
 382	3.7910e+01	15.1728	68.972446	0.000618	6.183748	2.095110	0.000248
 383	3.8009e+01	15.2081	69.125857	0.000385	3.852171	1.305151	0.000154
 384	3.8108e+01	15.2498	69.299454	0.000436	4.359035	1.476881	0.000174
 385	3.8208e+01	15.2899	69.489199	0.000476	4.764527	1.614265	0.000191
 386	3.8307e+01	15.3317	69.691056	0.000507	5.068646	1.717304	0.000203
 387	3.8407e+01	15.3734	69.888875	0.000497	4.967273	1.682958	0.000199
 388	3.8507e+01	15.4135	70.070546	0.000456	4.561781	1.545573	0.000183
 389	3.8606e+01	15.4536	70.252218	0.000456	4.561781	1.545573	0.000183
 390	3.8706e+01	15.4985	70.458111	0.000517	5.170019	1.751650	0.000207
 391	3.8805e+01	15.5386	70.575188	0.000294	2.939815	0.996036	0.000118
 392	3.8904e+01	15.5643	70.773008	0.000497	4.967273	1.682958	0.000199
 393	3.9004e+01	15.6092	70.958716	0.000466	4.663154	1.579919	0.000187
 394	3.9103e+01	15.6509	71.168647	0.000527	5.271392	1.785996	0.000211
 395	3.9203e+01	15.6942	71.366467	0.000497	4.967273	1.682958	0.000199
 396	3.9303e+01	15.7231	71.495655	0.000324	3.243933	1.099074	0.000130
 397	3.9402e+01	15.7873	71.697512	0.000507	5.068646	1.717304	0.000203
 398	3.9502e+01	15.8113	71.899369	0.000507	5.068646	1.717304	0.000203
 399	3.9601e+01	15.8514	72.101226	0.000507	5.068646	1.717304	0.000203
 400	3.9700e+01	15.8931	72.299045	0.000497	4.967273	1.682958	0.000199
 401	3.9800e+01	15.9300	72.460531	0.000405	4.054917	1.373843	0.000162
 402	3.9900e+01	15.9701	72.622016	0.000405	4.054917	1.373843	0.000162
 403	3.9999e+01	16.0151	72.831947	0.000527	5.271392	1.785996	0.000211
 404	4.0099e+01	16.0487	72.981321	0.000375	3.750798	1.270805	0.000150
 405	4.0198e+01	16.0985	73.195289	0.000537	5.372764	1.820342	0.000215
 406	4.0297e+01	16.1257	73.356775	0.000405	4.054917	1.373843	0.000162
 407	4.0397e+01	16.1707	73.562669	0.000517	5.170019	1.751650	0.000207
 408	4.0496e+01	16.2124	73.748377	0.000466	4.663154	1.579919	0.000187
 409	4.0596e+01	16.2589	73.926011	0.000446	4.460408	1.511227	0.000179
 410	4.0696e+01	16.2958	74.111719	0.000466	4.663154	1.579919	0.000187
 411	4.0795e+01	16.3311	74.269168	0.000395	3.953544	1.339497	0.000158
 412	4.0895e+01	16.3664	74.434690	0.000416	4.156290	1.408189	0.000166
 413	4.0994e+01	16.4145	74.644621	0.000527	5.271392	1.785996	0.000211
 414	4.1093e+01	16.4482	74.842441	0.000497	4.967273	1.682958	0.000199
 415	4.1193e+01	16.4851	75.007963	0.000416	4.156290	1.408189	0.000166
 416	4.1292e+01	16.5300	75.213857	0.000517	5.170019	1.751650	0.000207
 417	4.1392e+01	16.5733	75.383417	0.000426	4.257662	1.442535	0.000170
 418	4.1492e+01	16.6070	75.569125	0.000466	4.663154	1.579919	0.000187
 419	4.1591e+01	16.6455	75.754834	0.000466	4.663154	1.579919	0.000187
 420	4.1691e+01	16.6872	75.908245	0.000385	3.852171	1.305151	0.000154
 421	4.1790e+01	16.7257	76.089916	0.000456	4.561781	1.545573	0.000183
 422	4.1889e+01	16.7771	76.299847	0.000527	5.271392	1.785996	0.000211
 423	4.1989e+01	16.8075	76.465369	0.000416	4.156290	1.408189	0.000166
 424	4.2089e+01	16.8509	76.630892	0.000416	4.156290	1.408189	0.000166
 425	4.2188e+01	16.8894	76.804489	0.000436	4.359035	1.476881	0.000174
 426	4.2288e+01	16.9214	77.022494	0.000547	5.474137	1.854688	0.000219
 427	4.2387e+01	16.9664	77.163794	0.000355	3.548052	1.202113	0.000142
 428	4.2486e+01	17.0001	77.357576	0.000487	4.865900	1.648612	0.000195
 429	4.2586e+01	17.0498	77.559433	0.000507	5.068646	1.717304	0.000203
 430	4.2685e+01	17.0835	77.741104	0.000456	4.561781	1.545573	0.000183
 431	4.2785e+01	17.1268	77.918738	0.000446	4.460408	1.511227	0.000179
 432	4.2885e+01	17.1669	78.096372	0.000446	4.460408	1.511227	0.000179
 433	4.2984e+01	17.2054	78.241709	0.000365	3.649425	1.236459	0.000146
 434	4.3084e+01	17.2551	78.423380	0.000456	4.561781	1.545573	0.000183
 435	4.3183e+01	17.2872	78.625237	0.000507	5.068646	1.717304	0.000203
 436	4.3282e+01	17.3257	78.782685	0.000395	3.953544	1.339497	0.000158
 437	4.3382e+01	17.3658	78.956282	0.000436	4.359035	1.476881	0.000174
 438	4.3481e+01	17.4091	79.141990	0.000466	4.663154	1.579919	0.000187
 439	4.3581e+01	17.4573	79.327699	0.000466	4.663154	1.579919	0.000187
 440	4.3681e+01	17.4926	79.489184	0.000405	4.054917	1.373843	0.000162
 441	4.3780e+01	17.5278	79.715264	0.000568	5.676883	1.923380	0.000227
 442	4.3880e+01	17.5647	79.856563	0.000355	3.548052	1.202113	0.000142
 443	4.3979e+01	17.6129	80.050346	0.000487	4.865900	1.648612	0.000195
 444	4.4078e+01	17.6466	80.244128	0.000487	4.865900	1.648612	0.000195
 445	4.4178e+01	17.6802	80.385428	0.000355	3.548052	1.202113	0.000142
 446	4.4278e+01	17.7236	80.595359	0.000527	5.271392	1.785996	0.000211
 447	4.4377e+01	17.7733	80.772993	0.000446	4.460408	1.511227	0.000179
 448	4.4477e+01	17.8118	80.946590	0.000436	4.359035	1.476881	0.000174
 449	4.4576e+01	17.8439	81.124224	0.000446	4.460408	1.511227	0.000179
 450	4.4675e+01	17.8920	81.297821	0.000436	4.359035	1.476881	0.000174
 451	4.4775e+01	17.9273	81.511789	0.000537	5.372764	1.820342	0.000215
 452	4.4874e+01	17.9626	81.653089	0.000355	3.548052	1.202113	0.000142
 453	4.4974e+01	18.0059	81.858983	0.000517	5.170019	1.751650	0.000207
 454	4.5074e+01	18.0412	82.000283	0.000355	3.548052	1.202113	0.000142
 455	4.5173e+01	18.0877	82.194065	0.000487	4.865900	1.648612	0.000195
 456	4.5273e+01	18.1230	82.395922	0.000507	5.068646	1.717304	0.000203
 457	4.5372e+01	18.1695	82.585667	0.000476	4.764527	1.614265	0.000191
 458	4.5471e+01	18.2048	82.755227	0.000426	4.257662	1.442535	0.000170
 459	4.5571e+01	18.2449	82.912675	0.000395	3.953544	1.339497	0.000158
 460	4.5670e+01	18.2802	83.122606	0.000527	5.271392	1.785996	0.000211
 461	4.5770e+01	18.3284	83.292166	0.000426	4.257662	1.442535	0.000170
 462	4.5870e+01	18.3637	83.453651	0.000405	4.054917	1.373843	0.000162
 463	4.5969e+01	18.3925	83.627248	0.000436	4.359035	1.476881	0.000174
 464	4.6069e+01	18.4471	83.829105	0.000507	5.068646	1.717304	0.000203
 465	4.6168e+01	18.4808	84.018850	0.000476	4.764527	1.614265	0.000191
 466	4.6267e+01	18.5209	84.196484	0.000446	4.460408	1.511227	0.000179
 467	4.6367e+01	18.5674	84.357970	0.000405	4.054917	1.373843	0.000162
 468	4.6467e+01	18.5979	84.531567	0.000436	4.359035	1.476881	0.000174
 469	4.6566e+01	18.6460	84.709201	0.000446	4.460408	1.511227	0.000179
 470	4.6666e+01	18.6845	84.862612	0.000385	3.852171	1.305151	0.000154
 471	4.6765e+01	18.7278	85.092729	0.000578	5.778256	1.957726	0.000231
 472	4.6864e+01	18.7647	85.250177	0.000395	3.953544	1.339497	0.000158
 473	4.6964e+01	18.8032	85.435885	0.000466	4.663154	1.579919	0.000187
 474	4.7063e+01	18.8353	85.625630	0.000476	4.764527	1.614265	0.000191
 475	4.7163e+01	18.8850	85.775004	0.000375	3.750798	1.270805	0.000150
 476	4.7263e+01	18.9171	85.972824	0.000497	4.967273	1.682958	0.000199
 477	4.7362e+01	18.9620	86.186792	0.000537	5.372764	1.820342	0.000215
 478	4.7462e+01	19.0070	86.287721	0.000253	2.534323	0.858652	0.000101
 479	4.7561e+01	19.0455	86.525912	0.000598	5.981002	2.026418	0.000239
 480	4.7660e+01	19.0807	86.667211	0.000355	3.548052	1.202113	0.000142
 481	4.7760e+01	19.1241	86.852920	0.000466	4.663154	1.579919	0.000187
 482	4.7859e+01	19.1690	87.046702	0.000487	4.865900	1.648612	0.000195
 483	4.7959e+01	19.1962	87.220299	0.000436	4.359035	1.476881	0.000174
 484	4.8059e+01	19.2299	87.422156	0.000507	5.068646	1.717304	0.000203
 485	4.8158e+01	19.2813	87.579604	0.000395	3.953544	1.339497	0.000158
 486	4.8258e+01	19.3230	87.769350	0.000476	4.764527	1.614265	0.000191
 487	4.8357e+01	19.3535	87.930835	0.000405	4.054917	1.373843	0.000162
 488	4.8456e+01	19.3968	88.108469	0.000446	4.460408	1.511227	0.000179
 489	4.8556e+01	19.4369	88.269954	0.000405	4.054917	1.373843	0.000162
 490	4.8656e+01	19.4866	88.516220	0.000618	6.183748	2.095110	0.000248
 491	4.8755e+01	19.5187	88.645408	0.000324	3.243933	1.099074	0.000130
 492	4.8855e+01	19.5492	88.831116	0.000466	4.663154	1.579919	0.000187
 493	4.8954e+01	19.6005	88.988565	0.000395	3.953544	1.339497	0.000158
 494	4.9053e+01	19.6342	89.166198	0.000446	4.460408	1.511227	0.000179
 495	4.9153e+01	19.6759	89.327684	0.000405	4.054917	1.373843	0.000162
 496	4.9252e+01	19.7176	89.537615	0.000527	5.271392	1.785996	0.000211
 497	4.9352e+01	19.7609	89.682952	0.000365	3.649425	1.236459	0.000146
 498	4.9452e+01	19.7962	89.896920	0.000537	5.372764	1.820342	0.000215
 499	4.9551e+01	19.8363	90.054368	0.000395	3.953544	1.339497	0.000158
 500	4.9651e+01	19.8668	90.219891	0.000416	4.156290	1.408189	0.000166
 501	4.9750e+01	19.9214	90.397525	0.000446	4.460408	1.511227	0.000179
 502	4.9849e+01	19.9518	90.607456	0.000527	5.271392	1.785996	0.000211
 503	4.9949e+01	19.9903	90.785090	0.000446	4.460408	1.511227	0.000179
 504	5.0048e+01	19.9534	90.655902	0.000324	3.243933	1.099074	-0.000130
 505	5.0148e+01	19.9101	90.538825	0.000294	2.939815	0.996036	-0.000118
 506	5.0248e+01	19.8716	90.417711	0.000304	3.041187	1.030382	-0.000122
 507	5.0347e+01	19.8235	90.272374	0.000365	3.649425	1.236459	-0.000146
 508	5.0447e+01	19.7994	90.151260	0.000304	3.041187	1.030382	-0.000122
 509	5.0546e+01	19.7561	90.009960	0.000355	3.548052	1.202113	-0.000142
 510	5.0645e+01	19.7144	89.868660	0.000355	3.548052	1.202113	-0.000142
 511	5.0745e+01	19.6807	89.743509	0.000314	3.142560	1.064728	-0.000126
 512	5.0844e+01	19.6374	89.634506	0.000274	2.737069	0.927344	-0.000110
 513	5.0944e+01	19.5989	89.468984	0.000416	4.156290	1.408189	-0.000166
 514	5.1044e+01	19.5604	89.335758	0.000335	3.345306	1.133420	-0.000134
 515	5.1143e+01	19.5171	89.202533	0.000335	3.345306	1.133420	-0.000134
 516	5.1242e+01	19.4770	89.065270	0.000345	3.446679	1.167766	-0.000138
 517	5.1342e+01	19.4449	88.936082	0.000324	3.243933	1.099074	-0.000130
 518	5.1441e+01	19.4000	88.798819	0.000345	3.446679	1.167766	-0.000138
 519	5.1541e+01	19.3567	88.677705	0.000304	3.041187	1.030382	-0.000122
 520	5.1641e+01	19.3134	88.540442	0.000345	3.446679	1.167766	-0.000138
 521	5.1740e+01	19.2684	88.403180	0.000345	3.446679	1.167766	-0.000138
 522	5.1840e+01	19.2492	88.217472	0.000466	4.663154	1.579919	-0.000187
 523	5.1939e+01	19.1930	88.092320	0.000314	3.142560	1.064728	-0.000126
 524	5.2038e+01	19.1577	87.934872	0.000395	3.953544	1.339497	-0.000158
 525	5.2138e+01	19.1176	87.809721	0.000314	3.142560	1.064728	-0.000126
 526	5.2237e+01	19.0711	87.644198	0.000416	4.156290	1.408189	-0.000166
 527	5.2337e+01	19.0455	87.486750	0.000395	3.953544	1.339497	-0.000158
 528	5.2437e+01	18.9973	87.349487	0.000345	3.446679	1.167766	-0.000138
 529	5.2536e+01	18.9556	87.192039	0.000395	3.953544	1.339497	-0.000158
 530	5.2636e+01	18.9155	87.054776	0.000345	3.446679	1.167766	-0.000138
 531	5.2735e+01	18.8850	86.933662	0.000304	3.041187	1.030382	-0.000122
 532	5.2834e+01	18.8417	86.731806	0.000507	5.068646	1.717304	-0.000203
 533	5.2934e+01	18.7968	86.618766	0.000284	2.838442	0.961690	-0.000114
 534	5.3033e+01	18.7695	86.445169	0.000436	4.359035	1.476881	-0.000174
 535	5.3133e+01	18.7246	86.303869	0.000355	3.548052	1.202113	-0.000142
 536	5.3233e+01	18.6861	86.146421	0.000395	3.953544	1.339497	-0.000158
 537	5.3332e+01	18.6364	85.988973	0.000395	3.953544	1.339497	-0.000158
 538	5.3431e+01	18.6075	85.884007	0.000264	2.635696	0.892998	-0.000105
 539	5.3531e+01	18.5594	85.714447	0.000426	4.257662	1.442535	-0.000170
 540	5.3630e+01	18.5289	85.540851	0.000436	4.359035	1.476881	-0.000174
 541	5.3730e+01	18.4872	85.399551	0.000355	3.548052	1.202113	-0.000142
 542	5.3830e+01	18.4535	85.217880	0.000456	4.561781	1.545573	-0.000183
 543	5.3929e+01	18.4054	85.096766	0.000304	3.041187	1.030382	-0.000122
 544	5.4029e+01	18.3572	84.935280	0.000405	4.054917	1.373843	-0.000162
 545	5.4128e+01	18.3187	84.773795	0.000405	4.054917	1.373843	-0.000162
 546	5.4227e+01	18.2899	84.632495	0.000355	3.548052	1.202113	-0.000142
 547	5.4327e+01	18.2449	84.462935	0.000426	4.257662	1.442535	-0.000170
 548	5.4426e+01	18.1968	84.321636	0.000355	3.548052	1.202113	-0.000142
 549	5.4526e+01	18.1647	84.168224	0.000385	3.852171	1.305151	-0.000154
 550	5.4626e+01	18.1230	83.990590	0.000446	4.460408	1.511227	-0.000179
 551	5.4725e+01	18.0909	83.849291	0.000355	3.548052	1.202113	-0.000142
 552	5.4825e+01	18.0460	83.695880	0.000385	3.852171	1.305151	-0.000154
 553	5.4924e+01	18.0011	83.550543	0.000365	3.649425	1.236459	-0.000146
 554	5.5023e+01	17.9738	83.429429	0.000304	3.041187	1.030382	-0.000122
 555	5.5123e+01	17.9193	83.251795	0.000446	4.460408	1.511227	-0.000179
 556	5.5222e+01	17.8824	83.094346	0.000395	3.953544	1.339497	-0.000158
 557	5.5322e+01	17.8439	82.912675	0.000456	4.561781	1.545573	-0.000183
 558	5.5422e+01	17.7974	82.722930	0.000476	4.764527	1.614265	-0.000191
 559	5.5521e+01	17.7637	82.609890	0.000284	2.838442	0.961690	-0.000114
 560	5.5620e+01	17.7188	82.428219	0.000456	4.561781	1.545573	-0.000183
 561	5.5720e+01	17.6867	82.254622	0.000436	4.359035	1.476881	-0.000174
 562	5.5819e+01	17.6417	82.125434	0.000324	3.243933	1.099074	-0.000130
 563	5.5919e+01	17.6097	81.963948	0.000405	4.054917	1.373843	-0.000162
 564	5.6019e+01	17.5583	81.802463	0.000405	4.054917	1.373843	-0.000162
 565	5.6118e+01	17.5198	81.653089	0.000375	3.750798	1.270805	-0.000150
 566	5.6218e+01	17.4845	81.491603	0.000405	4.054917	1.373843	-0.000162
 567	5.6317e+01	17.4492	81.330118	0.000405	4.054917	1.373843	-0.000162
 568	5.6416e+01	17.4011	81.184781	0.000365	3.649425	1.236459	-0.000146
 569	5.6516e+01	17.3658	80.995036	0.000476	4.764527	1.614265	-0.000191
 570	5.6615e+01	17.3321	80.853736	0.000355	3.548052	1.202113	-0.000142
 571	5.6715e+01	17.2856	80.684176	0.000426	4.257662	1.442535	-0.000170
 572	5.6815e+01	17.2455	80.522691	0.000405	4.054917	1.373843	-0.000162
 573	5.6914e+01	17.2070	80.385428	0.000345	3.446679	1.167766	-0.000138
 574	5.7014e+01	17.1685	80.207794	0.000446	4.460408	1.511227	-0.000179
 575	5.7113e+01	17.1332	80.038235	0.000426	4.257662	1.442535	-0.000170
 576	5.7212e+01	17.0883	79.884823	0.000385	3.852171	1.305151	-0.000154
 577	5.7312e+01	17.0434	79.723338	0.000405	4.054917	1.373843	-0.000162
 578	5.7411e+01	17.0049	79.590113	0.000335	3.345306	1.133420	-0.000134
 579	5.7511e+01	16.9776	79.428627	0.000405	4.054917	1.373843	-0.000162
 580	5.7611e+01	16.9343	79.250993	0.000446	4.460408	1.511227	-0.000179
 581	5.7710e+01	16.8926	79.065285	0.000466	4.663154	1.579919	-0.000187
 582	5.7809e+01	16.8525	78.919948	0.000365	3.649425	1.236459	-0.000146
 583	5.7909e+01	16.8011	78.754425	0.000416	4.156290	1.408189	-0.000166
 584	5.8008e+01	16.7739	78.596977	0.000395	3.953544	1.339497	-0.000158
 585	5.8108e+01	16.7305	78.431455	0.000416	4.156290	1.408189	-0.000166
 586	5.8208e+01	16.6953	78.265932	0.000416	4.156290	1.408189	-0.000166
 587	5.8307e+01	16.6439	78.068112	0.000497	4.967273	1.682958	-0.000199
 588	5.8407e+01	16.6086	77.967184	0.000253	2.534323	0.858652	-0.000101
 589	5.8506e+01	16.5701	77.785513	0.000456	4.561781	1.545573	-0.000183
 590	5.8605e+01	16.5364	77.599805	0.000466	4.663154	1.579919	-0.000187
 591	5.8705e+01	16.4947	77.422171	0.000446	4.460408	1.511227	-0.000179
 592	5.8804e+01	16.4562	77.280871	0.000355	3.548052	1.202113	-0.000142
 593	5.8904e+01	16.4081	77.099200	0.000456	4.561781	1.545573	-0.000183
 594	5.9004e+01	16.3728	76.945789	0.000385	3.852171	1.305151	-0.000154
 595	5.9103e+01	16.3311	76.804489	0.000355	3.548052	1.202113	-0.000142
 596	5.9203e+01	16.2894	76.602632	0.000507	5.068646	1.717304	-0.000203
 597	5.9302e+01	16.2541	76.437109	0.000416	4.156290	1.408189	-0.000166
 598	5.9401e+01	16.2011	76.263513	0.000436	4.359035	1.476881	-0.000174
 599	5.9501e+01	16.1707	76.114139	0.000375	3.750798	1.270805	-0.000150
 600	5.9600e+01	16.1322	75.968802	0.000365	3.649425	1.236459	-0.000146
 601	5.9700e+01	16.0889	75.766945	0.000507	5.068646	1.717304	-0.000203
 602	5.9800e+01	16.0471	75.585274	0.000456	4.561781	1.545573	-0.000183
 603	5.9899e+01	16.0167	75.443974	0.000355	3.548052	1.202113	-0.000142
 604	5.9998e+01	15.9717	75.270377	0.000436	4.359035	1.476881	-0.000174
 605	6.0098e+01	15.9348	75.084669	0.000466	4.663154	1.579919	-0.000187
 606	6.0197e+01	15.8899	74.947406	0.000345	3.446679	1.167766	-0.000138
 607	6.0297e+01	15.8546	74.769772	0.000446	4.460408	1.511227	-0.000179
 608	6.0397e+01	15.8049	74.580027	0.000476	4.764527	1.614265	-0.000191
 609	6.0496e+01	15.7680	74.446802	0.000335	3.345306	1.133420	-0.000134
 610	6.0596e+01	15.7295	74.265130	0.000456	4.561781	1.545573	-0.000183
 611	6.0695e+01	15.6926	74.111719	0.000385	3.852171	1.305151	-0.000154
 612	6.0794e+01	15.6509	73.990605	0.000304	3.041187	1.030382	-0.000122
 613	6.0894e+01	15.6156	73.788748	0.000507	5.068646	1.717304	-0.000203
 614	6.0993e+01	15.5707	73.631300	0.000395	3.953544	1.339497	-0.000158
 615	6.1093e+01	15.5338	73.481926	0.000375	3.750798	1.270805	-0.000150
 616	6.1193e+01	15.4953	73.284106	0.000497	4.967273	1.682958	-0.000199
 617	6.1292e+01	15.4488	73.130695	0.000385	3.852171	1.305151	-0.000154
 618	6.1392e+01	15.4279	72.940950	0.000476	4.764527	1.614265	-0.000191
 619	6.1491e+01	15.3750	72.783502	0.000395	3.953544	1.339497	-0.000158
 620	6.1590e+01	15.3300	72.605868	0.000446	4.460408	1.511227	-0.000179
 621	6.1690e+01	15.2851	72.488791	0.000294	2.939815	0.996036	-0.000118
 622	6.1789e+01	15.2579	72.319231	0.000426	4.257662	1.442535	-0.000170
 623	6.1889e+01	15.2210	72.121411	0.000497	4.967273	1.682958	-0.000199
 624	6.1989e+01	15.1744	71.968000	0.000385	3.852171	1.305151	-0.000154
 625	6.2088e+01	15.1359	71.758069	0.000527	5.271392	1.785996	-0.000211
 626	6.2188e+01	15.0894	71.628881	0.000324	3.243933	1.099074	-0.000130
 627	6.2287e+01	15.0670	71.455284	0.000436	4.359035	1.476881	-0.000174
 628	6.2386e+01	15.0156	71.318021	0.000345	3.446679	1.167766	-0.000138
 629	6.2486e+01	14.9723	71.140387	0.000446	4.460408	1.511227	-0.000179
 630	6.2586e+01	14.9354	70.982939	0.000395	3.953544	1.339497	-0.000158
 631	6.2685e+01	14.8889	70.825491	0.000395	3.953544	1.339497	-0.000158
 632	6.2785e+01	14.8552	70.651894	0.000436	4.359035	1.476881	-0.000174
 633	6.2884e+01	14.8263	70.458111	0.000487	4.865900	1.648612	-0.000195
 634	6.2983e+01	14.7638	70.300663	0.000395	3.953544	1.339497	-0.000158
 635	6.3083e+01	14.7349	70.151289	0.000375	3.750798	1.270805	-0.000150
 636	6.3182e+01	14.6948	69.981729	0.000426	4.257662	1.442535	-0.000170
 637	6.3282e+01	14.6499	69.808133	0.000436	4.359035	1.476881	-0.000174
 638	6.3382e+01	14.6194	69.626462	0.000456	4.561781	1.545573	-0.000183
 639	6.3481e+01	14.5680	69.456902	0.000426	4.257662	1.442535	-0.000170
 640	6.3581e+01	14.5311	69.307528	0.000375	3.750798	1.270805	-0.000150
 641	6.3680e+01	14.4991	69.154117	0.000385	3.852171	1.305151	-0.000154
 642	6.3779e+01	14.4590	68.964371	0.000476	4.764527	1.614265	-0.000191
 643	6.3879e+01	14.4188	68.774626	0.000476	4.764527	1.614265	-0.000191
 644	6.3978e+01	14.3836	68.637363	0.000345	3.446679	1.167766	-0.000138
 645	6.4078e+01	14.3338	68.447618	0.000476	4.764527	1.614265	-0.000191
 646	6.4177e+01	14.2985	68.326504	0.000304	3.041187	1.030382	-0.000122
 647	6.4277e+01	14.2552	68.144833	0.000456	4.561781	1.545573	-0.000183
 648	6.4376e+01	14.2199	67.959124	0.000466	4.663154	1.579919	-0.000187
 649	6.4476e+01	14.1734	67.785528	0.000436	4.359035	1.476881	-0.000174
 650	6.4576e+01	14.1413	67.620005	0.000416	4.156290	1.408189	-0.000166
 651	6.4675e+01	14.0980	67.466594	0.000385	3.852171	1.305151	-0.000154
 652	6.4775e+01	14.0643	67.284923	0.000456	4.561781	1.545573	-0.000183
 653	6.4874e+01	14.0194	67.163809	0.000304	3.041187	1.030382	-0.000122
 654	6.4974e+01	13.9777	66.945803	0.000547	5.474137	1.854688	-0.000219
 655	6.5073e+01	13.9344	66.727798	0.000547	5.474137	1.854688	-0.000219
 656	6.5172e+01	13.9087	66.630907	0.000243	2.432950	0.824306	-0.000097
 657	6.5272e+01	13.8509	66.461347	0.000426	4.257662	1.442535	-0.000170
 658	6.5371e+01	13.8157	66.275639	0.000466	4.663154	1.579919	-0.000187
 659	6.5471e+01	13.7820	66.106079	0.000426	4.257662	1.442535	-0.000170
 660	6.5570e+01	13.7467	65.924408	0.000456	4.561781	1.545573	-0.000183
 661	6.5670e+01	13.7001	65.758885	0.000416	4.156290	1.408189	-0.000166
 662	6.5769e+01	13.6649	65.597400	0.000405	4.054917	1.373843	-0.000162
 663	6.5869e+01	13.6103	65.411692	0.000466	4.663154	1.579919	-0.000187
 664	6.5969e+01	13.5846	65.234058	0.000446	4.460408	1.511227	-0.000179
 665	6.6068e+01	13.5349	65.080647	0.000385	3.852171	1.305151	-0.000154
 666	6.6168e+01	13.5012	64.898976	0.000456	4.561781	1.545573	-0.000183
 667	6.6267e+01	13.4579	64.753639	0.000365	3.649425	1.236459	-0.000146
 668	6.6367e+01	13.4210	64.551782	0.000507	5.068646	1.717304	-0.000203
 669	6.6466e+01	13.3873	64.398371	0.000385	3.852171	1.305151	-0.000154
 670	6.6566e+01	13.3424	64.216700	0.000456	4.561781	1.545573	-0.000183
 671	6.6665e+01	13.3087	64.083474	0.000335	3.345306	1.133420	-0.000134
 672	6.6764e+01	13.2638	63.913914	0.000426	4.257662	1.442535	-0.000170
 673	6.6864e+01	13.2269	63.703983	0.000527	5.271392	1.785996	-0.000211
 674	6.6963e+01	13.1852	63.542498	0.000405	4.054917	1.373843	-0.000162
 675	6.7063e+01	13.1483	63.421384	0.000304	3.041187	1.030382	-0.000122
 676	6.7162e+01	13.1050	63.227601	0.000487	4.865900	1.648612	-0.000195
 677	6.7262e+01	13.0649	63.017670	0.000527	5.271392	1.785996	-0.000211
 678	6.7362e+01	13.0151	62.900593	0.000294	2.939815	0.996036	-0.000118
 679	6.7461e+01	12.9782	62.714885	0.000466	4.663154	1.579919	-0.000187
 680	6.7561e+01	12.9462	62.553400	0.000405	4.054917	1.373843	-0.000162
 681	6.7660e+01	12.9061	62.371729	0.000456	4.561781	1.545573	-0.000183
 682	6.7760e+01	12.8659	62.206206	0.000416	4.156290	1.408189	-0.000166
 683	6.7859e+01	12.8258	62.016461	0.000476	4.764527	1.614265	-0.000191
 684	6.7959e+01	12.7857	61.871124	0.000365	3.649425	1.236459	-0.000146
 685	6.8058e+01	12.7440	61.733861	0.000345	3.446679	1.167766	-0.000138
 686	6.8157e+01	12.7071	61.483559	0.000629	6.285121	2.129457	-0.000252
 687	6.8257e+01	12.6606	61.330148	0.000385	3.852171	1.305151	-0.000154
 688	6.8356e+01	12.6301	61.184811	0.000365	3.649425	1.236459	-0.000146
 689	6.8456e+01	12.5836	61.023325	0.000405	4.054917	1.373843	-0.000162
 690	6.8555e+01	12.5563	60.833580	0.000476	4.764527	1.614265	-0.000191
 691	6.8655e+01	12.5066	60.639797	0.000487	4.865900	1.648612	-0.000195
 692	6.8754e+01	12.4681	60.506572	0.000335	3.345306	1.133420	-0.000134
 693	6.8854e+01	12.4344	60.312789	0.000487	4.865900	1.648612	-0.000195
 694	6.8954e+01	12.3815	60.131118	0.000456	4.561781	1.545573	-0.000183
 695	6.9053e+01	12.3349	59.961559	0.000426	4.257662	1.442535	-0.000170
 696	6.9153e+01	12.3045	59.783925	0.000446	4.460408	1.511227	-0.000179
 697	6.9252e+01	12.2612	59.594179	0.000476	4.764527	1.614265	-0.000191
 698	6.9352e+01	12.2243	59.408471	0.000466	4.663154	1.579919	-0.000187
 699	6.9451e+01	12.1841	59.230837	0.000446	4.460408	1.511227	-0.000179
 700	6.9550e+01	12.1489	59.093574	0.000345	3.446679	1.167766	-0.000138
 701	6.9650e+01	12.1039	58.903829	0.000476	4.764527	1.614265	-0.000191
 702	6.9749e+01	12.0670	58.701972	0.000507	5.068646	1.717304	-0.000203
 703	6.9849e+01	12.0269	58.536450	0.000416	4.156290	1.408189	-0.000166
 704	6.9948e+01	11.9868	58.379001	0.000395	3.953544	1.339497	-0.000158
 705	7.0048e+01	11.9451	58.173107	0.000517	5.170019	1.751650	-0.000207
 706	7.0147e+01	11.9034	58.023733	0.000375	3.750798	1.270805	-0.000150
 707	7.0247e+01	11.8649	57.870322	0.000385	3.852171	1.305151	-0.000154
 708	7.0347e+01	11.8248	57.648280	0.000558	5.575510	1.889034	-0.000223
 709	7.0446e+01	11.7799	57.490831	0.000395	3.953544	1.339497	-0.000158
 710	7.0546e+01	11.7446	57.301086	0.000476	4.764527	1.614265	-0.000191
 711	7.0645e+01	11.7109	57.091155	0.000527	5.271392	1.785996	-0.000211
 712	7.0745e+01	11.6772	56.949855	0.000355	3.548052	1.202113	-0.000142
 713	7.0844e+01	11.6275	56.739924	0.000527	5.271392	1.785996	-0.000211
 714	7.0944e+01	11.5842	56.566327	0.000436	4.359035	1.476881	-0.000174
 715	7.1043e+01	11.5585	56.408879	0.000395	3.953544	1.339497	-0.000158
 716	7.1142e+01	11.5216	56.194911	0.000537	5.372764	1.820342	-0.000215
 717	7.1242e+01	11.4606	56.029388	0.000416	4.156290	1.408189	-0.000166
 718	7.1341e+01	11.4270	55.867903	0.000405	4.054917	1.373843	-0.000162
 719	7.1441e+01	11.3901	55.702380	0.000416	4.156290	1.408189	-0.000166
 720	7.1540e+01	11.3435	55.516672	0.000466	4.663154	1.579919	-0.000187
 721	7.1640e+01	11.3098	55.355187	0.000405	4.054917	1.373843	-0.000162
 722	7.1740e+01	11.2649	55.116996	0.000598	5.981002	2.026418	-0.000239
 723	7.1839e+01	11.2377	54.971659	0.000365	3.649425	1.236459	-0.000146
 724	7.1939e+01	11.1863	54.777876	0.000487	4.865900	1.648612	-0.000195
 725	7.2038e+01	11.1510	54.580057	0.000497	4.967273	1.682958	-0.000199
 726	7.2138e+01	11.1109	54.410497	0.000426	4.257662	1.442535	-0.000170
 727	7.2237e+01	11.0692	54.232863	0.000446	4.460408	1.511227	-0.000179
 728	7.2337e+01	11.0355	54.059266	0.000436	4.359035	1.476881	-0.000174
 729	7.2436e+01	10.9906	53.837224	0.000558	5.575510	1.889034	-0.000223
 730	7.2535e+01	10.9537	53.679775	0.000395	3.953544	1.339497	-0.000158
 731	7.2635e+01	10.9024	53.498104	0.000456	4.561781	1.545573	-0.000183
 732	7.2734e+01	10.8735	53.288173	0.000527	5.271392	1.785996	-0.000211
 733	7.2834e+01	10.8334	53.138799	0.000375	3.750798	1.270805	-0.000150
 734	7.2933e+01	10.7933	52.969239	0.000426	4.257662	1.442535	-0.000170
 735	7.3033e+01	10.7564	52.755271	0.000537	5.372764	1.820342	-0.000215
 736	7.3132e+01	10.7147	52.613972	0.000355	3.548052	1.202113	-0.000142
 737	7.3232e+01	10.6730	52.420189	0.000487	4.865900	1.648612	-0.000195
 738	7.3332e+01	10.6345	52.214295	0.000517	5.170019	1.751650	-0.000207
 739	7.3431e+01	10.5895	52.000327	0.000537	5.372764	1.820342	-0.000215
 740	7.3531e+01	10.5542	51.838841	0.000405	4.054917	1.373843	-0.000162
 741	7.3630e+01	10.5174	51.673319	0.000416	4.156290	1.408189	-0.000166
 742	7.3730e+01	10.4692	51.503759	0.000426	4.257662	1.442535	-0.000170
 743	7.3829e+01	10.4371	51.277680	0.000568	5.676883	1.923380	-0.000227
 744	7.3928e+01	10.3938	51.112157	0.000416	4.156290	1.408189	-0.000166
 745	7.4028e+01	10.3505	50.958746	0.000385	3.852171	1.305151	-0.000154
 746	7.4127e+01	10.3136	50.752852	0.000517	5.170019	1.751650	-0.000207
 747	7.4227e+01	10.2735	50.567144	0.000466	4.663154	1.579919	-0.000187
 748	7.4326e+01	10.2302	50.373361	0.000487	4.865900	1.648612	-0.000195
 749	7.4426e+01	10.1981	50.232061	0.000355	3.548052	1.202113	-0.000142
 750	7.4525e+01	10.1532	50.010019	0.000558	5.575510	1.889034	-0.000223
 751	7.4625e+01	10.1195	49.812199	0.000497	4.967273	1.682958	-0.000199
 752	7.4725e+01	10.0714	49.662825	0.000375	3.750798	1.270805	-0.000150
 753	7.4824e+01	10.0377	49.456931	0.000517	5.170019	1.751650	-0.000207
 754	7.4924e+01	9.9912	49.230852	0.000568	5.676883	1.923380	-0.000227
 755	7.5023e+01	9.9591	49.045144	0.000466	4.663154	1.579919	-0.000187
 756	7.5123e+01	9.9126	48.875584	0.000426	4.257662	1.442535	-0.000170
 757	7.5222e+01	9.8821	48.673727	0.000507	5.068646	1.717304	-0.000203
 758	7.5322e+01	9.8307	48.532427	0.000355	3.548052	1.202113	-0.000142
 759	7.5421e+01	9.7842	48.306348	0.000568	5.676883	1.923380	-0.000227
 760	7.5520e+01	9.7505	48.132751	0.000436	4.359035	1.476881	-0.000174
 761	7.5620e+01	9.7120	47.951080	0.000456	4.561781	1.545573	-0.000183
 762	7.5719e+01	9.6703	47.753260	0.000497	4.967273	1.682958	-0.000199
 763	7.5819e+01	9.6334	47.547366	0.000517	5.170019	1.751650	-0.000207
 764	7.5918e+01	9.5853	47.373769	0.000436	4.359035	1.476881	-0.000174
 765	7.6018e+01	9.5580	47.212284	0.000405	4.054917	1.373843	-0.000162
 766	7.6118e+01	9.5115	46.994279	0.000547	5.474137	1.854688	-0.000219
 767	7.6217e+01	9.4762	46.780310	0.000537	5.372764	1.820342	-0.000215
 768	7.6317e+01	9.4425	46.606714	0.000436	4.359035	1.476881	-0.000174
 769	7.6416e+01	9.3912	46.408894	0.000497	4.967273	1.682958	-0.000199
 770	7.6516e+01	9.3511	46.223186	0.000466	4.663154	1.579919	-0.000187
 771	7.6615e+01	9.3094	46.041515	0.000456	4.561781	1.545573	-0.000183
 772	7.6715e+01	9.2789	45.855806	0.000466	4.663154	1.579919	-0.000187
 773	7.6814e+01	9.2500	45.625690	0.000578	5.778256	1.957726	-0.000231
 774	7.6913e+01	9.1987	45.427870	0.000497	4.967273	1.682958	-0.000199
 775	7.7013e+01	9.1698	45.306756	0.000304	3.041187	1.030382	-0.000122
 776	7.7112e+01	9.1185	45.117010	0.000476	4.764527	1.614265	-0.000191
 777	7.7212e+01	9.0800	44.931302	0.000466	4.663154	1.579919	-0.000187
 778	7.7311e+01	9.0447	44.717334	0.000537	5.372764	1.820342	-0.000215
 779	7.7411e+01	8.9965	44.495292	0.000558	5.575510	1.889034	-0.000223
 780	7.7510e+01	8.9709	44.329769	0.000416	4.156290	1.408189	-0.000166
 781	7.7610e+01	8.9179	44.180395	0.000375	3.750798	1.270805	-0.000150
 782	7.7710e+01	8.8794	43.930093	0.000629	6.285121	2.129457	-0.000252
 783	7.7809e+01	8.8425	43.768607	0.000405	4.054917	1.373843	-0.000162
 784	7.7909e+01	8.7928	43.574825	0.000487	4.865900	1.648612	-0.000195
 785	7.8008e+01	8.7655	43.417376	0.000395	3.953544	1.339497	-0.000158
 786	7.8108e+01	8.7238	43.227631	0.000476	4.764527	1.614265	-0.000191
 787	7.8207e+01	8.6821	42.997514	0.000578	5.778256	1.957726	-0.000231
 788	7.8306e+01	8.6452	42.836029	0.000405	4.054917	1.373843	-0.000162
 789	7.8406e+01	8.6035	42.658395	0.000446	4.460408	1.511227	-0.000179
 790	7.8505e+01	8.5634	42.444427	0.000537	5.372764	1.820342	-0.000215
 791	7.8605e+01	8.5249	42.282941	0.000405	4.054917	1.373843	-0.000162
 792	7.8704e+01	8.4832	42.101270	0.000456	4.561781	1.545573	-0.000183
 793	7.8804e+01	8.4367	41.911525	0.000476	4.764527	1.614265	-0.000191
 794	7.8903e+01	8.3966	41.681408	0.000578	5.778256	1.957726	-0.000231
 795	7.9003e+01	8.3645	41.515885	0.000416	4.156290	1.408189	-0.000166
 796	7.9103e+01	8.3260	41.314029	0.000507	5.068646	1.717304	-0.000203
 797	7.9202e+01	8.2746	41.087949	0.000568	5.676883	1.923380	-0.000227
 798	7.9302e+01	8.2377	40.958761	0.000324	3.243933	1.099074	-0.000130
 799	7.9401e+01	8.1960	40.744792	0.000537	5.372764	1.820342	-0.000215
 800	7.9501e+01	8.1655	40.579270	0.000416	4.156290	1.408189	-0.000166
 801	7.9600e+01	8.1174	40.401636	0.000446	4.460408	1.511227	-0.000179
 802	7.9700e+01	8.0757	40.187668	0.000537	5.372764	1.820342	-0.000215
 803	7.9799e+01	8.0452	40.001959	0.000466	4.663154	1.579919	-0.000187
 804	7.9898e+01	8.0035	39.832400	0.000426	4.257662	1.442535	-0.000170
 805	7.9998e+01	7.9634	39.618432	0.000537	5.372764	1.820342	-0.000215
 806	8.0097e+01	7.9281	39.456946	0.000405	4.054917	1.373843	-0.000162
 807	8.0197e+01	7.8768	39.238941	0.000547	5.474137	1.854688	-0.000219
 808	8.0296e+01	7.8319	39.024973	0.000537	5.372764	1.820342	-0.000215
 809	8.0396e+01	7.7950	38.855413	0.000426	4.257662	1.442535	-0.000170
 810	8.0496e+01	7.7613	38.693927	0.000405	4.054917	1.373843	-0.000162
 811	8.0595e+01	7.7292	38.475922	0.000547	5.474137	1.854688	-0.000219
 812	8.0695e+01	7.6843	38.290214	0.000466	4.663154	1.579919	-0.000187
 813	8.0794e+01	7.6506	38.112580	0.000446	4.460408	1.511227	-0.000179
 814	8.0894e+01	7.6057	37.934946	0.000446	4.460408	1.511227	-0.000179
 815	8.0993e+01	7.5624	37.720978	0.000537	5.372764	1.820342	-0.000215
 816	8.1093e+01	7.5255	37.527195	0.000487	4.865900	1.648612	-0.000195
 817	8.1192e+01	7.4821	37.313227	0.000537	5.372764	1.820342	-0.000215
 818	8.1291e+01	7.4452	37.151742	0.000405	4.054917	1.373843	-0.000162
 819	8.1391e+01	7.4035	36.961996	0.000476	4.764527	1.614265	-0.000191
 820	8.1490e+01	7.3714	36.739954	0.000558	5.575510	1.889034	-0.000223
 821	8.1590e+01	7.3313	36.626914	0.000284	2.838442	0.961690	-0.000114
 822	8.1689e+01	7.2928	36.364500	0.000659	6.589239	2.232495	-0.000264
 823	8.1789e+01	7.2447	36.203015	0.000405	4.054917	1.373843	-0.000162
 824	8.1888e+01	7.2094	36.013269	0.000476	4.764527	1.614265	-0.000191
 825	8.1988e+01	7.1613	35.795264	0.000547	5.474137	1.854688	-0.000219
 826	8.2088e+01	7.1180	35.613593	0.000456	4.561781	1.545573	-0.000183
 827	8.2187e+01	7.0843	35.435959	0.000446	4.460408	1.511227	-0.000179
 828	8.2287e+01	7.0442	35.217954	0.000547	5.474137	1.854688	-0.000219
 829	8.2386e+01	7.0057	35.060505	0.000395	3.953544	1.339497	-0.000158
 830	8.2486e+01	6.9688	34.874797	0.000466	4.663154	1.579919	-0.000187
 831	8.2585e+01	6.9142	34.652755	0.000558	5.575510	1.889034	-0.000223
 832	8.2684e+01	6.8838	34.491269	0.000405	4.054917	1.373843	-0.000162
 833	8.2784e+01	6.8388	34.253078	0.000598	5.981002	2.026418	-0.000239
 834	8.2883e+01	6.8212	34.083518	0.000426	4.257662	1.442535	-0.000170
 835	8.2983e+01	6.7618	33.889736	0.000487	4.865900	1.648612	-0.000195
 836	8.3082e+01	6.7362	33.716139	0.000436	4.359035	1.476881	-0.000174
 837	8.3182e+01	6.6929	33.506208	0.000527	5.271392	1.785996	-0.000211
 838	8.3281e+01	6.6431	33.332611	0.000436	4.359035	1.476881	-0.000174
 839	8.3381e+01	6.6078	33.114606	0.000547	5.474137	1.854688	-0.000219
 840	8.3481e+01	6.5758	32.965232	0.000375	3.750798	1.270805	-0.000150
 841	8.3580e+01	6.5244	32.759338	0.000517	5.170019	1.751650	-0.000207
 842	8.3680e+01	6.4891	32.561518	0.000497	4.967273	1.682958	-0.000199
 843	8.3779e+01	6.4474	32.367736	0.000487	4.865900	1.648612	-0.000195
 844	8.3879e+01	6.4137	32.202213	0.000416	4.156290	1.408189	-0.000166
 845	8.3978e+01	6.3720	32.004394	0.000497	4.967273	1.682958	-0.000199
 846	8.4078e+01	6.3319	31.818685	0.000466	4.663154	1.579919	-0.000187
 847	8.4177e+01	6.2822	31.612791	0.000517	5.170019	1.751650	-0.000207
 848	8.4276e+01	6.2517	31.390749	0.000558	5.575510	1.889034	-0.000223
 849	8.4376e+01	6.2164	31.205041	0.000466	4.663154	1.579919	-0.000187
 850	8.4475e+01	6.1715	31.031444	0.000436	4.359035	1.476881	-0.000174
 851	8.4575e+01	6.1298	30.861884	0.000426	4.257662	1.442535	-0.000170
 852	8.4674e+01	6.0913	30.672139	0.000476	4.764527	1.614265	-0.000191
 853	8.4774e+01	6.0512	30.450096	0.000558	5.575510	1.889034	-0.000223
 854	8.4874e+01	6.0111	30.316871	0.000335	3.345306	1.133420	-0.000134
 855	8.4973e+01	5.9661	30.062531	0.000639	6.386494	2.163803	-0.000256
 856	8.5073e+01	5.9373	29.868749	0.000487	4.865900	1.648612	-0.000195
 857	8.5172e+01	5.8907	29.707263	0.000405	4.054917	1.373843	-0.000162
 858	8.5272e+01	5.8522	29.493295	0.000537	5.372764	1.820342	-0.000215
 859	8.5371e+01	5.8202	29.315661	0.000446	4.460408	1.511227	-0.000179
 860	8.5471e+01	5.7736	29.089582	0.000568	5.676883	1.923380	-0.000227
 861	8.5570e+01	5.7351	28.920022	0.000426	4.257662	1.442535	-0.000170
 862	8.5669e+01	5.6998	28.702017	0.000547	5.474137	1.854688	-0.000219
 863	8.5769e+01	5.6565	28.520345	0.000456	4.561781	1.545573	-0.000183
 864	8.5868e+01	5.6212	28.294266	0.000568	5.676883	1.923380	-0.000227
 865	8.5968e+01	5.5763	28.128743	0.000416	4.156290	1.408189	-0.000166
 866	8.6067e+01	5.5442	27.918812	0.000527	5.271392	1.785996	-0.000211
 867	8.6167e+01	5.4865	27.716955	0.000507	5.068646	1.717304	-0.000203
 868	8.6266e+01	5.4496	27.507024	0.000527	5.271392	1.785996	-0.000211
 869	8.6366e+01	5.4079	27.345539	0.000405	4.054917	1.373843	-0.000162
 870	8.6466e+01	5.3774	27.111385	0.000588	5.879629	1.992072	-0.000235
 871	8.6565e+01	5.3373	26.893380	0.000547	5.474137	1.854688	-0.000219
 872	8.6665e+01	5.2956	26.719783	0.000436	4.359035	1.476881	-0.000174
 873	8.6764e+01	5.2571	26.534075	0.000466	4.663154	1.579919	-0.000187
 874	8.6864e+01	5.2154	26.348366	0.000466	4.663154	1.579919	-0.000187
 875	8.6963e+01	5.1785	26.154584	0.000487	4.865900	1.648612	-0.000195
 876	8.7063e+01	5.1368	25.904281	0.000629	6.285121	2.129457	-0.000252
 877	8.7162e+01	5.1031	25.710499	0.000487	4.865900	1.648612	-0.000195
 878	8.7261e+01	5.0549	25.512679	0.000497	4.967273	1.682958	-0.000199
 879	8.7361e+01	5.0036	25.335045	0.000446	4.460408	1.511227	-0.000179
 880	8.7460e+01	4.9876	25.141263	0.000487	4.865900	1.648612	-0.000195
 881	8.7560e+01	4.9282	24.963629	0.000446	4.460408	1.511227	-0.000179
 882	8.7659e+01	4.9025	24.773883	0.000476	4.764527	1.614265	-0.000191
 883	8.7759e+01	4.8608	24.559915	0.000537	5.372764	1.820342	-0.000215
 884	8.7859e+01	4.8175	24.349984	0.000527	5.271392	1.785996	-0.000211
 885	8.7958e+01	4.7678	24.148127	0.000507	5.068646	1.717304	-0.000203
 886	8.8058e+01	4.7341	23.926085	0.000558	5.575510	1.889034	-0.000223
 887	8.8157e+01	4.6956	23.728265	0.000497	4.967273	1.682958	-0.000199
 888	8.8257e+01	4.6667	23.534483	0.000487	4.865900	1.648612	-0.000195
 889	8.8356e+01	4.6122	23.324552	0.000527	5.271392	1.785996	-0.000211
 890	8.8456e+01	4.5737	23.154992	0.000426	4.257662	1.442535	-0.000170
 891	8.8555e+01	4.5384	22.916801	0.000598	5.981002	2.026418	-0.000239
 892	8.8654e+01	4.4999	22.739167	0.000446	4.460408	1.511227	-0.000179
 893	8.8754e+01	4.4517	22.513087	0.000568	5.676883	1.923380	-0.000227
 894	8.8853e+01	4.4181	22.303156	0.000527	5.271392	1.785996	-0.000211
 895	8.8953e+01	4.3828	22.109374	0.000487	4.865900	1.648612	-0.000195
 896	8.9052e+01	4.3378	21.931740	0.000446	4.460408	1.511227	-0.000179
 897	8.9152e+01	4.2897	21.754106	0.000446	4.460408	1.511227	-0.000179
 898	8.9251e+01	4.2592	21.523989	0.000578	5.778256	1.957726	-0.000231
 899	8.9351e+01	4.2111	21.334244	0.000476	4.764527	1.614265	-0.000191
 900	8.9451e+01	4.1758	21.104127	0.000578	5.778256	1.957726	-0.000231
 901	8.9550e+01	4.1341	20.906307	0.000497	4.967273	1.682958	-0.000199
 902	8.9650e+01	4.0860	20.724636	0.000456	4.561781	1.545573	-0.000183
 903	8.9749e+01	4.0555	20.498557	0.000568	5.676883	1.923380	-0.000227
 904	8.9849e+01	4.0170	20.304774	0.000487	4.865900	1.648612	-0.000195
 905	8.9948e+01	3.9785	20.086769	0.000547	5.474137	1.854688	-0.000219
 906	9.0047e+01	3.9320	19.905098	0.000456	4.561781	1.545573	-0.000183
 907	9.0147e+01	3.9031	19.670944	0.000588	5.879629	1.992072	-0.000235
 908	9.0246e+01	3.8662	19.452939	0.000547	5.474137	1.854688	-0.000219
 909	9.0346e+01	3.8133	19.275305	0.000446	4.460408	1.511227	-0.000179
 910	9.0445e+01	3.7780	19.077485	0.000497	4.967273	1.682958	-0.000199
 911	9.0545e+01	3.7330	18.875628	0.000507	5.068646	1.717304	-0.000203
 912	9.0644e+01	3.7058	18.693957	0.000456	4.561781	1.545573	-0.000183
 913	9.0744e+01	3.6657	18.479989	0.000537	5.372764	1.820342	-0.000215
 914	9.0844e+01	3.6175	18.302355	0.000446	4.460408	1.511227	-0.000179
 915	9.0943e+01	3.5790	18.096461	0.000517	5.170019	1.751650	-0.000207
 916	9.1043e+01	3.5405	17.846159	0.000629	6.285121	2.129457	-0.000252
 917	9.1142e+01	3.5020	17.652376	0.000487	4.865900	1.648612	-0.000195
 918	9.1242e+01	3.4619	17.442445	0.000527	5.271392	1.785996	-0.000211
 919	9.1341e+01	3.4250	17.244625	0.000497	4.967273	1.682958	-0.000199
 920	9.1441e+01	3.3801	17.050843	0.000487	4.865900	1.648612	-0.000195
 921	9.1540e+01	3.3400	16.820726	0.000578	5.778256	1.957726	-0.000231
 922	9.1639e+01	3.3127	16.610795	0.000527	5.271392	1.785996	-0.000211
 923	9.1739e+01	3.2630	16.404901	0.000517	5.170019	1.751650	-0.000207
 924	9.1838e+01	3.2229	16.227267	0.000446	4.460408	1.511227	-0.000179
 925	9.1938e+01	3.1844	16.021373	0.000517	5.170019	1.751650	-0.000207
 926	9.2037e+01	3.1395	15.807405	0.000537	5.372764	1.820342	-0.000215
 927	9.2137e+01	3.1106	15.605548	0.000507	5.068646	1.717304	-0.000203
 928	9.2237e+01	3.0609	15.367357	0.000598	5.981002	2.026418	-0.000239
 929	9.2336e+01	3.0208	15.161463	0.000517	5.170019	1.751650	-0.000207
 930	9.2436e+01	2.9791	14.951532	0.000527	5.271392	1.785996	-0.000211
 931	9.2535e+01	2.9422	14.729490	0.000558	5.575510	1.889034	-0.000223
 932	9.2635e+01	2.8892	14.555893	0.000436	4.359035	1.476881	-0.000174
 933	9.2734e+01	2.8636	14.317702	0.000598	5.981002	2.026418	-0.000239
 934	9.2834e+01	2.8186	14.119882	0.000497	4.967273	1.682958	-0.000199
 935	9.2933e+01	2.7833	13.905914	0.000537	5.372764	1.820342	-0.000215
 936	9.3032e+01	2.7400	13.748466	0.000395	3.953544	1.339497	-0.000158
 937	9.3132e+01	2.6951	13.506238	0.000608	6.082375	2.060764	-0.000243
 938	9.3231e+01	2.6662	13.312455	0.000487	4.865900	1.648612	-0.000195
 939	9.3331e+01	2.6277	13.078301	0.000588	5.879629	1.992072	-0.000235
 940	9.3430e+01	2.5812	12.880482	0.000497	4.967273	1.682958	-0.000199
 941	9.3530e+01	2.5427	12.682662	0.000497	4.967273	1.682958	-0.000199
 942	9.3629e+01	2.5042	12.480805	0.000507	5.068646	1.717304	-0.000203
 943	9.3729e+01	2.4577	12.270874	0.000527	5.271392	1.785996	-0.000211
 944	9.3829e+01	2.4336	12.060943	0.000527	5.271392	1.785996	-0.000211
 945	9.3928e+01	2.3855	11.846975	0.000537	5.372764	1.820342	-0.000215
 946	9.4028e+01	2.3438	11.673378	0.000436	4.359035	1.476881	-0.000174
 947	9.4127e+01	2.3037	11.435187	0.000598	5.981002	2.026418	-0.000239
 948	9.4227e+01	2.2684	11.261590	0.000436	4.359035	1.476881	-0.000174
 949	9.4326e+01	2.2363	11.051659	0.000527	5.271392	1.785996	-0.000211
 950	9.4425e+01	2.1834	10.837691	0.000537	5.372764	1.820342	-0.000215
 951	9.4525e+01	2.1513	10.647946	0.000476	4.764527	1.614265	-0.000191
 952	9.4624e+01	2.0999	10.413792	0.000588	5.879629	1.992072	-0.000235
 953	9.4724e+01	2.0743	10.195786	0.000547	5.474137	1.854688	-0.000219
 954	9.4823e+01	2.0229	10.018152	0.000446	4.460408	1.511227	-0.000179
 955	9.4923e+01	1.9876	9.788036	0.000578	5.778256	1.957726	-0.000231
 956	9.5022e+01	1.9459	9.614439	0.000436	4.359035	1.476881	-0.000174
 957	9.5122e+01	1.9106	9.424693	0.000476	4.764527	1.614265	-0.000191
 958	9.5222e+01	1.8657	9.214762	0.000527	5.271392	1.785996	-0.000211
 959	9.5321e+01	1.8288	9.012906	0.000507	5.068646	1.717304	-0.000203
 960	9.5421e+01	1.7887	8.811049	0.000507	5.068646	1.717304	-0.000203
 961	9.5520e+01	1.7550	8.593043	0.000547	5.474137	1.854688	-0.000219
 962	9.5620e+01	1.7117	8.375038	0.000547	5.474137	1.854688	-0.000219
 963	9.5719e+01	1.6764	8.217590	0.000395	3.953544	1.339497	-0.000158
 964	9.5819e+01	1.6267	7.955176	0.000659	6.589239	2.232495	-0.000264
 965	9.5918e+01	1.5882	7.785616	0.000426	4.257662	1.442535	-0.000170
 966	9.6017e+01	1.5481	7.591834	0.000487	4.865900	1.648612	-0.000195
 967	9.6117e+01	1.5096	7.345568	0.000618	6.183748	2.095110	-0.000248
 968	9.6216e+01	1.4839	7.167935	0.000446	4.460408	1.511227	-0.000179
 969	9.6316e+01	1.4342	6.933781	0.000588	5.879629	1.992072	-0.000235
 970	9.6415e+01	1.3893	6.723850	0.000527	5.271392	1.785996	-0.000211
 971	9.6515e+01	1.3395	6.542178	0.000456	4.561781	1.545573	-0.000183
 972	9.6615e+01	1.3107	6.348396	0.000487	4.865900	1.648612	-0.000195
 973	9.6714e+01	1.2689	6.130391	0.000547	5.474137	1.854688	-0.000219
 974	9.6814e+01	1.2288	5.900274	0.000578	5.778256	1.957726	-0.000231
 975	9.6913e+01	1.1952	5.698417	0.000507	5.068646	1.717304	-0.000203
 976	9.7013e+01	1.1567	5.532895	0.000416	4.156290	1.408189	-0.000166
 977	9.7112e+01	1.1037	5.306815	0.000568	5.676883	1.923380	-0.000227
 978	9.7212e+01	1.0604	5.084772	0.000558	5.575510	1.889034	-0.000223
 979	9.7311e+01	1.0267	4.919250	0.000416	4.156290	1.408189	-0.000166
 980	9.7410e+01	0.9898	4.701245	0.000547	5.474137	1.854688	-0.000219
 981	9.7510e+01	0.9625	4.519573	0.000456	4.561781	1.545573	-0.000183
 982	9.7609e+01	0.9096	4.305605	0.000537	5.372764	1.820342	-0.000215
 983	9.7709e+01	0.8647	4.111823	0.000487	4.865900	1.648612	-0.000195
 984	9.7808e+01	0.8358	3.881706	0.000578	5.778256	1.957726	-0.000231
 985	9.7908e+01	0.7909	3.671775	0.000527	5.271392	1.785996	-0.000211
 986	9.8007e+01	0.7492	3.522401	0.000375	3.750798	1.270805	-0.000150
 987	9.8107e+01	0.7107	3.296321	0.000568	5.676883	1.923380	-0.000227
 988	9.8207e+01	0.6802	3.098502	0.000497	4.967273	1.682958	-0.000199
 989	9.8306e+01	0.6305	2.844162	0.000639	6.386494	2.163803	-0.000256
 990	9.8406e+01	0.5839	2.642305	0.000507	5.068646	1.717304	-0.000203
 991	9.8505e+01	0.5454	2.444486	0.000497	4.967273	1.682958	-0.000199
 992	9.8605e+01	0.5150	2.230517	0.000537	5.372764	1.820342	-0.000215
 993	9.8704e+01	0.4781	2.044809	0.000466	4.663154	1.579919	-0.000187
 994	9.8803e+01	0.4347	1.834878	0.000527	5.271392	1.785996	-0.000211
 995	9.8903e+01	0.3898	1.620910	0.000537	5.372764	1.820342	-0.000215
 996	9.9002e+01	0.3577	1.447313	0.000436	4.359035	1.476881	-0.000174
 997	9.9102e+01	0.3144	1.197011	0.000629	6.285121	2.129457	-0.000252
 998	9.9201e+01	0.2743	1.003228	0.000487	4.865900	1.648612	-0.000195
 999	9.9301e+01	0.2294	0.797334	0.000517	5.170019	1.751650	-0.000207
1000	9.9400e+01	0.1941	0.615663	0.000456	4.561781	1.545573	-0.000183
1001	9.9500e+01	0.1540	0.405732	0.000527	5.271392	1.785996	-0.000211
1002	9.9600e+01	0.1203	0.163504	0.000608	6.082375	2.060764	-0.000243
1003	9.9699e+01	0.0722	0.018167	0.000365	3.649425	1.236459	-0.000146
1004	9.9799e+01	0.0305	-0.191764	0.000527	5.271392	1.785996	-0.000211
1005	9.9898e+01	-0.0016	-0.324989	0.000335	3.345306	1.133420	-0.000134
1006	9.9998e+01	-0.0449	-0.583366	0.000649	6.487867	2.198149	-0.000260
1007	1.0010e+02	-0.0786	-0.761000	0.000446	4.460408	1.511227	-0.000179
1008	1.0020e+02	-0.1235	-0.958820	0.000497	4.967273	1.682958	-0.000199
1009	1.0030e+02	-0.1588	-1.192974	0.000588	5.879629	1.992072	-0.000235
1010	1.0040e+02	-0.2005	-1.358496	0.000416	4.156290	1.408189	-0.000166
1011	1.0050e+02	-0.2310	-1.519982	0.000405	4.054917	1.373843	-0.000162
1012	1.0059e+02	-0.2695	-1.774321	0.000639	6.386494	2.163803	-0.000256
1013	1.0069e+02	-0.3112	-1.960029	0.000466	4.663154	1.579919	-0.000187
1014	1.0079e+02	-0.3577	-2.178035	0.000547	5.474137	1.854688	-0.000219
1015	1.0089e+02	-0.3962	-2.351632	0.000436	4.359035	1.476881	-0.000174
1016	1.0099e+02	-0.4460	-2.569637	0.000547	5.474137	1.854688	-0.000219
1017	1.0109e+02	-0.4700	-2.759382	0.000476	4.764527	1.614265	-0.000191
1018	1.0119e+02	-0.5214	-3.013722	0.000639	6.386494	2.163803	-0.000256
1019	1.0129e+02	-0.5519	-3.191356	0.000446	4.460408	1.511227	-0.000179
1020	1.0139e+02	-0.5952	-3.401287	0.000527	5.271392	1.785996	-0.000211
1021	1.0149e+02	-0.6433	-3.582958	0.000456	4.561781	1.545573	-0.000183
1022	1.0159e+02	-0.6818	-3.788852	0.000517	5.170019	1.751650	-0.000207
1023	1.0169e+02	-0.7171	-4.027043	0.000598	5.981002	2.026418	-0.000239
1024	1.0179e+02	-0.7540	-4.200640	0.000436	4.359035	1.476881	-0.000174
1025	1.0189e+02	-0.8005	-4.386348	0.000466	4.663154	1.579919	-0.000187
1026	1.0199e+02	-0.8390	-4.616465	0.000578	5.778256	1.957726	-0.000231
1027	1.0209e+02	-0.8727	-4.802173	0.000466	4.663154	1.579919	-0.000187
1028	1.0219e+02	-0.9064	-5.024215	0.000558	5.575510	1.889034	-0.000223
1029	1.0229e+02	-0.9513	-5.226072	0.000507	5.068646	1.717304	-0.000203
1030	1.0239e+02	-0.9930	-5.456189	0.000578	5.778256	1.957726	-0.000231
1031	1.0248e+02	-1.0363	-5.662083	0.000517	5.170019	1.751650	-0.000207
1032	1.0258e+02	-1.0748	-5.831643	0.000426	4.257662	1.442535	-0.000170
1033	1.0268e+02	-1.1133	-6.017351	0.000466	4.663154	1.579919	-0.000187
1034	1.0278e+02	-1.1567	-6.263616	0.000618	6.183748	2.095110	-0.000248
1035	1.0288e+02	-1.1919	-6.485659	0.000558	5.575510	1.889034	-0.000223
1036	1.0298e+02	-1.2337	-6.651181	0.000416	4.156290	1.408189	-0.000166
1037	1.0308e+02	-1.2770	-6.840927	0.000476	4.764527	1.614265	-0.000191
1038	1.0318e+02	-1.3139	-7.050858	0.000527	5.271392	1.785996	-0.000211
1039	1.0328e+02	-1.3620	-7.260789	0.000527	5.271392	1.785996	-0.000211
1040	1.0338e+02	-1.3893	-7.482831	0.000558	5.575510	1.889034	-0.000223
1041	1.0348e+02	-1.4310	-7.672576	0.000476	4.764527	1.614265	-0.000191
1042	1.0358e+02	-1.4759	-7.890582	0.000547	5.474137	1.854688	-0.000219
1043	1.0368e+02	-1.5192	-8.120699	0.000578	5.778256	1.957726	-0.000231
1044	1.0378e+02	-1.5593	-8.322555	0.000507	5.068646	1.717304	-0.000203
1045	1.0388e+02	-1.5770	-8.471929	0.000375	3.750798	1.270805	-0.000150
1046	1.0398e+02	-1.6347	-8.693972	0.000558	5.575510	1.889034	-0.000223
1047	1.0408e+02	-1.6796	-8.916014	0.000558	5.575510	1.889034	-0.000223
1048	1.0418e+02	-1.7085	-9.097685	0.000456	4.561781	1.545573	-0.000183
1049	1.0428e+02	-1.7502	-9.343951	0.000618	6.183748	2.095110	-0.000248
1050	1.0438e+02	-1.7919	-9.549845	0.000517	5.170019	1.751650	-0.000207
1051	1.0447e+02	-1.8368	-9.747664	0.000497	4.967273	1.682958	-0.000199
1052	1.0457e+02	-1.8753	-9.929335	0.000456	4.561781	1.545573	-0.000183
1053	1.0467e+02	-1.8994	-10.171563	0.000608	6.082375	2.060764	-0.000243
1054	1.0477e+02	-1.9524	-10.312863	0.000355	3.548052	1.202113	-0.000142
1055	1.0487e+02	-1.9989	-10.571240	0.000649	6.487867	2.198149	-0.000260
1056	1.0497e+02	-2.0294	-10.773097	0.000507	5.068646	1.717304	-0.000203
1057	1.0507e+02	-2.0743	-10.978991	0.000517	5.170019	1.751650	-0.000207
1058	1.0517e+02	-2.1096	-11.164699	0.000466	4.663154	1.579919	-0.000187
1059	1.0527e+02	-2.1481	-11.378667	0.000537	5.372764	1.820342	-0.000215
1060	1.0537e+02	-2.1914	-11.588598	0.000527	5.271392	1.785996	-0.000211
1061	1.0547e+02	-2.2283	-11.762195	0.000436	4.359035	1.476881	-0.000174
1062	1.0557e+02	-2.2748	-12.008460	0.000618	6.183748	2.095110	-0.000248
1063	1.0567e+02	-2.3069	-12.173983	0.000416	4.156290	1.408189	-0.000166
1064	1.0577e+02	-2.3438	-12.440434	0.000669	6.690612	2.266841	-0.000268
1065	1.0587e+02	-2.3919	-12.609993	0.000426	4.257662	1.442535	-0.000170
1066	1.0597e+02	-2.4272	-12.803776	0.000487	4.865900	1.648612	-0.000195
1067	1.0607e+02	-2.4657	-13.017744	0.000537	5.372764	1.820342	-0.000215
1068	1.0617e+02	-2.5090	-13.239787	0.000558	5.575510	1.889034	-0.000223
1069	1.0627e+02	-2.5507	-13.437606	0.000497	4.967273	1.682958	-0.000199
1070	1.0637e+02	-2.5876	-13.651574	0.000537	5.372764	1.820342	-0.000215
1071	1.0647e+02	-2.6229	-13.792874	0.000355	3.548052	1.202113	-0.000142
1072	1.0656e+02	-2.6710	-14.035102	0.000608	6.082375	2.060764	-0.000243
1073	1.0666e+02	-2.7079	-14.220811	0.000466	4.663154	1.579919	-0.000187
1074	1.0676e+02	-2.7481	-14.450927	0.000578	5.778256	1.957726	-0.000231
1075	1.0686e+02	-2.7817	-14.681044	0.000578	5.778256	1.957726	-0.000231
1076	1.0696e+02	-2.8251	-14.866752	0.000466	4.663154	1.579919	-0.000187
1077	1.0706e+02	-2.8652	-15.052461	0.000466	4.663154	1.579919	-0.000187
1078	1.0716e+02	-2.9149	-15.298726	0.000618	6.183748	2.095110	-0.000248
1079	1.0726e+02	-2.9502	-15.476360	0.000446	4.460408	1.511227	-0.000179
1080	1.0736e+02	-2.9983	-15.694365	0.000547	5.474137	1.854688	-0.000219
1081	1.0746e+02	-3.0320	-15.876036	0.000456	4.561781	1.545573	-0.000183
1082	1.0756e+02	-3.0689	-16.073856	0.000497	4.967273	1.682958	-0.000199
1083	1.0766e+02	-3.1090	-16.263601	0.000476	4.764527	1.614265	-0.000191
1084	1.0776e+02	-3.1427	-16.465458	0.000507	5.068646	1.717304	-0.000203
1085	1.0786e+02	-3.1860	-16.659241	0.000487	4.865900	1.648612	-0.000195
1086	1.0796e+02	-3.2309	-16.929729	0.000679	6.791985	2.301187	-0.000272
1087	1.0806e+02	-3.2710	-17.135623	0.000517	5.170019	1.751650	-0.000207
1088	1.0816e+02	-3.3063	-17.284997	0.000375	3.750798	1.270805	-0.000150
1089	1.0826e+02	-3.3496	-17.511076	0.000568	5.676883	1.923380	-0.000227
1090	1.0836e+02	-3.3849	-17.712933	0.000507	5.068646	1.717304	-0.000203
1091	1.0845e+02	-3.4250	-17.922864	0.000527	5.271392	1.785996	-0.000211
1092	1.0855e+02	-3.4700	-18.116647	0.000487	4.865900	1.648612	-0.000195
1093	1.0865e+02	-3.4972	-18.322541	0.000517	5.170019	1.751650	-0.000207
1094	1.0875e+02	-3.5421	-18.528434	0.000517	5.170019	1.751650	-0.000207
1095	1.0885e+02	-3.5806	-18.746440	0.000547	5.474137	1.854688	-0.000219
1096	1.0895e+02	-3.6224	-18.952334	0.000517	5.170019	1.751650	-0.000207
1097	1.0905e+02	-3.6705	-19.158228	0.000517	5.170019	1.751650	-0.000207
1098	1.0915e+02	-3.6994	-19.352010	0.000487	4.865900	1.648612	-0.000195
1099	1.0925e+02	-3.7411	-19.545793	0.000487	4.865900	1.648612	-0.000195
1100	1.0935e+02	-3.7924	-19.743612	0.000497	4.967273	1.682958	-0.000199
1101	1.0945e+02	-3.8213	-19.973729	0.000578	5.778256	1.957726	-0.000231
1102	1.0955e+02	-3.8662	-20.183660	0.000527	5.271392	1.785996	-0.000211
1103	1.0965e+02	-3.9063	-20.357257	0.000436	4.359035	1.476881	-0.000174
1104	1.0975e+02	-3.9416	-20.587374	0.000578	5.778256	1.957726	-0.000231
1105	1.0985e+02	-3.9849	-20.765008	0.000446	4.460408	1.511227	-0.000179
1106	1.0995e+02	-4.0218	-20.995124	0.000578	5.778256	1.957726	-0.000231
1107	1.1005e+02	-4.0667	-21.172758	0.000446	4.460408	1.511227	-0.000179
1108	1.1015e+02	-4.0940	-21.390764	0.000547	5.474137	1.854688	-0.000219
1109	1.1025e+02	-4.1373	-21.612806	0.000558	5.575510	1.889034	-0.000223
1110	1.1035e+02	-4.1919	-21.806589	0.000487	4.865900	1.648612	-0.000195
1111	1.1044e+02	-4.2304	-22.004408	0.000497	4.967273	1.682958	-0.000199
1112	1.1054e+02	-4.2608	-22.182042	0.000446	4.460408	1.511227	-0.000179
1113	1.1064e+02	-4.2961	-22.387936	0.000517	5.170019	1.751650	-0.000207
1114	1.1074e+02	-4.3475	-22.581719	0.000487	4.865900	1.648612	-0.000195
1115	1.1084e+02	-4.3908	-22.755316	0.000436	4.359035	1.476881	-0.000174
1116	1.1094e+02	-4.4245	-22.969284	0.000537	5.372764	1.820342	-0.000215
1117	1.1104e+02	-4.4710	-23.171141	0.000507	5.068646	1.717304	-0.000203
1118	1.1114e+02	-4.5031	-23.381072	0.000527	5.271392	1.785996	-0.000211
1119	1.1124e+02	-4.5448	-23.578891	0.000497	4.967273	1.682958	-0.000199
1120	1.1134e+02	-4.5881	-23.780748	0.000507	5.068646	1.717304	-0.000203
1121	1.1144e+02	-4.6218	-23.998753	0.000547	5.474137	1.854688	-0.000219
1122	1.1154e+02	-4.6667	-24.164276	0.000416	4.156290	1.408189	-0.000166
1123	1.1164e+02	-4.7052	-24.406504	0.000608	6.082375	2.060764	-0.000243
1124	1.1174e+02	-4.7405	-24.555878	0.000375	3.750798	1.270805	-0.000150
1125	1.1184e+02	-4.7870	-24.745624	0.000476	4.764527	1.614265	-0.000191
1126	1.1194e+02	-4.8207	-24.951517	0.000517	5.170019	1.751650	-0.000207
1127	1.1204e+02	-4.8496	-25.173560	0.000558	5.575510	1.889034	-0.000223
1128	1.1214e+02	-4.8945	-25.322934	0.000375	3.750798	1.270805	-0.000150
1129	1.1224e+02	-4.9346	-25.532865	0.000527	5.271392	1.785996	-0.000211
1130	1.1234e+02	-4.9811	-25.706462	0.000436	4.359035	1.476881	-0.000174
1131	1.1244e+02	-5.0212	-25.932541	0.000568	5.676883	1.923380	-0.000227
1132	1.1253e+02	-5.0517	-26.114213	0.000456	4.561781	1.545573	-0.000183
1133	1.1263e+02	-5.1063	-26.356441	0.000608	6.082375	2.060764	-0.000243
1134	1.1273e+02	-5.1432	-26.513889	0.000395	3.953544	1.339497	-0.000158
1135	1.1283e+02	-5.1817	-26.739969	0.000568	5.676883	1.923380	-0.000227
1136	1.1293e+02	-5.2202	-26.925677	0.000466	4.663154	1.579919	-0.000187
1137	1.1303e+02	-5.2539	-27.099274	0.000436	4.359035	1.476881	-0.000174
1138	1.1313e+02	-5.2876	-27.293056	0.000487	4.865900	1.648612	-0.000195
1139	1.1323e+02	-5.3373	-27.494913	0.000507	5.068646	1.717304	-0.000203
1140	1.1333e+02	-5.3790	-27.676584	0.000456	4.561781	1.545573	-0.000183
1141	1.1343e+02	-5.4191	-27.898627	0.000558	5.575510	1.889034	-0.000223
1142	1.1353e+02	-5.4560	-28.056075	0.000395	3.953544	1.339497	-0.000158
1143	1.1363e+02	-5.4977	-28.290229	0.000588	5.879629	1.992072	-0.000235
1144	1.1373e+02	-5.5330	-28.427491	0.000345	3.446679	1.167766	-0.000138
1145	1.1383e+02	-5.5811	-28.629348	0.000507	5.068646	1.717304	-0.000203
1146	1.1393e+02	-5.6196	-28.863502	0.000588	5.879629	1.992072	-0.000235
1147	1.1403e+02	-5.6517	-29.016913	0.000385	3.852171	1.305151	-0.000154
1148	1.1413e+02	-5.6918	-29.206658	0.000476	4.764527	1.614265	-0.000191
1149	1.1423e+02	-5.7399	-29.428701	0.000558	5.575510	1.889034	-0.000223
1150	1.1433e+02	-5.7704	-29.586149	0.000395	3.953544	1.339497	-0.000158
1151	1.1442e+02	-5.8089	-29.808192	0.000558	5.575510	1.889034	-0.000223
1152	1.1452e+02	-5.8538	-29.961603	0.000385	3.852171	1.305151	-0.000154
1153	1.1462e+02	-5.8988	-30.179608	0.000547	5.474137	1.854688	-0.000219
1154	1.1472e+02	-5.9357	-30.401651	0.000558	5.575510	1.889034	-0.000223
1155	1.1482e+02	-5.9758	-30.546988	0.000365	3.649425	1.236459	-0.000146
1156	1.1492e+02	-6.0111	-30.756919	0.000527	5.271392	1.785996	-0.000211
1157	1.1502e+02	-6.0576	-30.962813	0.000517	5.170019	1.751650	-0.000207
1158	1.1512e+02	-6.1041	-31.148521	0.000466	4.663154	1.579919	-0.000187
1159	1.1522e+02	-6.1362	-31.322118	0.000436	4.359035	1.476881	-0.000174
1160	1.1532e+02	-6.1795	-31.491677	0.000426	4.257662	1.442535	-0.000170
1161	1.1542e+02	-6.2084	-31.697571	0.000517	5.170019	1.751650	-0.000207
1162	1.1552e+02	-6.2501	-31.903465	0.000517	5.170019	1.751650	-0.000207
1163	1.1562e+02	-6.2982	-32.081099	0.000446	4.460408	1.511227	-0.000179
1164	1.1572e+02	-6.3463	-32.230473	0.000375	3.750798	1.270805	-0.000150
1165	1.1582e+02	-6.3768	-32.448478	0.000547	5.474137	1.854688	-0.000219
1166	1.1592e+02	-6.4153	-32.646298	0.000497	4.967273	1.682958	-0.000199
1167	1.1602e+02	-6.4506	-32.807784	0.000405	4.054917	1.373843	-0.000162
1168	1.1612e+02	-6.4955	-32.985418	0.000446	4.460408	1.511227	-0.000179
1169	1.1622e+02	-6.5228	-33.223609	0.000598	5.981002	2.026418	-0.000239
1170	1.1632e+02	-6.5693	-33.409317	0.000466	4.663154	1.579919	-0.000187
1171	1.1642e+02	-6.6175	-33.599062	0.000476	4.764527	1.614265	-0.000191
1172	1.1651e+02	-6.6544	-33.776696	0.000446	4.460408	1.511227	-0.000179
1173	1.1661e+02	-6.6816	-33.938182	0.000405	4.054917	1.373843	-0.000162
1174	1.1671e+02	-6.7298	-34.136001	0.000497	4.967273	1.682958	-0.000199
1175	1.1681e+02	-6.7634	-34.321709	0.000466	4.663154	1.579919	-0.000187
1176	1.1691e+02	-6.8164	-34.507418	0.000466	4.663154	1.579919	-0.000187
1177	1.1701e+02	-6.8565	-34.685052	0.000446	4.460408	1.511227	-0.000179
1178	1.1711e+02	-6.8822	-34.899020	0.000537	5.372764	1.820342	-0.000215
1179	1.1721e+02	-6.9303	-35.072617	0.000436	4.359035	1.476881	-0.000174
1180	1.1731e+02	-6.9656	-35.274474	0.000507	5.068646	1.717304	-0.000203
1181	1.1741e+02	-7.0137	-35.411736	0.000345	3.446679	1.167766	-0.000138
1182	1.1751e+02	-7.0362	-35.613593	0.000507	5.068646	1.717304	-0.000203
1183	1.1761e+02	-7.0859	-35.827561	0.000537	5.372764	1.820342	-0.000215
1184	1.1771e+02	-7.1308	-35.972898	0.000365	3.649425	1.236459	-0.000146
1185	1.1781e+02	-7.1709	-36.158606	0.000466	4.663154	1.579919	-0.000187
1186	1.1791e+02	-7.1998	-36.372574	0.000537	5.372764	1.820342	-0.000215
1187	1.1801e+02	-7.2479	-36.525986	0.000385	3.852171	1.305151	-0.000154
1188	1.1811e+02	-7.2912	-36.667285	0.000355	3.548052	1.202113	-0.000142
1189	1.1821e+02	-7.3265	-36.885291	0.000547	5.474137	1.854688	-0.000219
1190	1.1831e+02	-7.3698	-37.070999	0.000466	4.663154	1.579919	-0.000187
1191	1.1841e+02	-7.4100	-37.293041	0.000558	5.575510	1.889034	-0.000223
1192	1.1850e+02	-7.4468	-37.442415	0.000375	3.750798	1.270805	-0.000150
1193	1.1860e+02	-7.4950	-37.611975	0.000426	4.257662	1.442535	-0.000170
1194	1.1870e+02	-7.5271	-37.785572	0.000436	4.359035	1.476881	-0.000174
1195	1.1880e+02	-7.5688	-38.007614	0.000558	5.575510	1.889034	-0.000223
1196	1.1890e+02	-7.5993	-38.169100	0.000405	4.054917	1.373843	-0.000162
1197	1.1900e+02	-7.6345	-38.354808	0.000466	4.663154	1.579919	-0.000187
1198	1.1910e+02	-7.6827	-38.576851	0.000558	5.575510	1.889034	-0.000223
1199	1.1920e+02	-7.7340	-38.770633	0.000487	4.865900	1.648612	-0.000195
1200	1.1930e+02	-7.7661	-38.956341	0.000466	4.663154	1.579919	-0.000187
1201	1.1940e+02	-7.8014	-39.113790	0.000395	3.953544	1.339497	-0.000158
1202	1.1950e+02	-7.8559	-39.303535	0.000476	4.764527	1.614265	-0.000191
1203	1.1960e+02	-7.8816	-39.517503	0.000537	5.372764	1.820342	-0.000215
1204	1.1970e+02	-7.9249	-39.674951	0.000395	3.953544	1.339497	-0.000158
1205	1.1980e+02	-7.9666	-39.848548	0.000436	4.359035	1.476881	-0.000174
1206	1.1990e+02	-8.0067	-40.066554	0.000547	5.474137	1.854688	-0.000219
1207	1.2000e+02	-8.0436	-40.219965	0.000385	3.852171	1.305151	-0.000154
1208	1.2010e+02	-8.0901	-40.385487	0.000416	4.156290	1.408189	-0.000166
1209	1.2020e+02	-8.1222	-40.575233	0.000476	4.764527	1.614265	-0.000191
1210	1.2030e+02	-8.1671	-40.752867	0.000446	4.460408	1.511227	-0.000179
1211	1.2039e+02	-8.2073	-40.962798	0.000527	5.271392	1.785996	-0.000211
1212	1.2049e+02	-8.2442	-41.152543	0.000476	4.764527	1.614265	-0.000191
1213	1.2059e+02	-8.2955	-41.322103	0.000426	4.257662	1.442535	-0.000170
1214	1.2069e+02	-8.3260	-41.519922	0.000497	4.967273	1.682958	-0.000199
1215	1.2079e+02	-8.3645	-41.689482	0.000426	4.257662	1.442535	-0.000170
1216	1.2089e+02	-8.4062	-41.867116	0.000446	4.460408	1.511227	-0.000179
1217	1.2099e+02	-8.4511	-42.020527	0.000385	3.852171	1.305151	-0.000154
1218	1.2109e+02	-8.4687	-42.238533	0.000547	5.474137	1.854688	-0.000219
1219	1.2119e+02	-8.5185	-42.432315	0.000487	4.865900	1.648612	-0.000195
1220	1.2129e+02	-8.5634	-42.609949	0.000446	4.460408	1.511227	-0.000179
1221	1.2139e+02	-8.6083	-42.775472	0.000416	4.156290	1.408189	-0.000166
1222	1.2149e+02	-8.6372	-42.977328	0.000507	5.068646	1.717304	-0.000203
1223	1.2159e+02	-8.6853	-43.122665	0.000365	3.649425	1.236459	-0.000146
1224	1.2169e+02	-8.7222	-43.336634	0.000537	5.372764	1.820342	-0.000215
1225	1.2179e+02	-8.7607	-43.514268	0.000446	4.460408	1.511227	-0.000179
1226	1.2189e+02	-8.8072	-43.691902	0.000446	4.460408	1.511227	-0.000179
1227	1.2199e+02	-8.8441	-43.849350	0.000395	3.953544	1.339497	-0.000158
1228	1.2209e+02	-8.8842	-44.055244	0.000517	5.170019	1.751650	-0.000207
1229	1.2219e+02	-8.9211	-44.265175	0.000527	5.271392	1.785996	-0.000211
1230	1.2229e+02	-8.9612	-44.471069	0.000517	5.170019	1.751650	-0.000207
1231	1.2239e+02	-9.0046	-44.592183	0.000304	3.041187	1.030382	-0.000122
1232	1.2248e+02	-9.0463	-44.830374	0.000598	5.981002	2.026418	-0.000239
1233	1.2258e+02	-9.0832	-44.999934	0.000426	4.257662	1.442535	-0.000170
1234	1.2268e+02	-9.1265	-45.157382	0.000395	3.953544	1.339497	-0.000158
1235	1.2278e+02	-9.1682	-45.367313	0.000527	5.271392	1.785996	-0.000211
1236	1.2288e+02	-9.1939	-45.504575	0.000345	3.446679	1.167766	-0.000138
1237	1.2298e+02	-9.2404	-45.702395	0.000497	4.967273	1.682958	-0.000199
1238	1.2308e+02	-9.2853	-45.892141	0.000476	4.764527	1.614265	-0.000191
1239	1.2318e+02	-9.3238	-46.029403	0.000345	3.446679	1.167766	-0.000138
1240	1.2328e+02	-9.3575	-46.259520	0.000578	5.778256	1.957726	-0.000231
1241	1.2338e+02	-9.3992	-46.404857	0.000365	3.649425	1.236459	-0.000146
1242	1.2348e+02	-9.4409	-46.626899	0.000558	5.575510	1.889034	-0.000223
1243	1.2358e+02	-9.4762	-46.788385	0.000405	4.054917	1.373843	-0.000162
1244	1.2368e+02	-9.5163	-46.953907	0.000416	4.156290	1.408189	-0.000166
1245	1.2378e+02	-9.5548	-47.167875	0.000537	5.372764	1.820342	-0.000215
1246	1.2388e+02	-9.6094	-47.272841	0.000264	2.635696	0.892998	-0.000105
1247	1.2398e+02	-9.6350	-47.498921	0.000568	5.676883	1.923380	-0.000227
1248	1.2408e+02	-9.6719	-47.624072	0.000314	3.142560	1.064728	-0.000126
1249	1.2418e+02	-9.7184	-47.834003	0.000527	5.271392	1.785996	-0.000211
1250	1.2428e+02	-9.7618	-48.015674	0.000456	4.561781	1.545573	-0.000183
1251	1.2438e+02	-9.7970	-48.205419	0.000476	4.764527	1.614265	-0.000191
1252	1.2447e+02	-9.8372	-48.366905	0.000405	4.054917	1.373843	-0.000162
1253	1.2457e+02	-9.8773	-48.580873	0.000537	5.372764	1.820342	-0.000215
1254	1.2467e+02	-9.9110	-48.778693	0.000497	4.967273	1.682958	-0.000199
1255	1.2477e+02	-9.9591	-48.948252	0.000426	4.257662	1.442535	-0.000170
1256	1.2487e+02	-9.9863	-49.101663	0.000385	3.852171	1.305151	-0.000154
1257	1.2497e+02	-10.0489	-49.279297	0.000446	4.460408	1.511227	-0.000179
1258	1.2507e+02	-10.0714	-49.460968	0.000456	4.561781	1.545573	-0.000183
1259	1.2517e+02	-10.1195	-49.646677	0.000466	4.663154	1.579919	-0.000187
1260	1.2527e+02	-10.1612	-49.832385	0.000466	4.663154	1.579919	-0.000187
1261	1.2537e+02	-10.1997	-50.022130	0.000476	4.764527	1.614265	-0.000191
1262	1.2547e+02	-10.2350	-50.183616	0.000405	4.054917	1.373843	-0.000162
1263	1.2557e+02	-10.2815	-50.349138	0.000416	4.156290	1.408189	-0.000166
1264	1.2567e+02	-10.3200	-50.538884	0.000476	4.764527	1.614265	-0.000191
1265	1.2577e+02	-10.3505	-50.712481	0.000436	4.359035	1.476881	-0.000174
1266	1.2587e+02	-10.3890	-50.910300	0.000497	4.967273	1.682958	-0.000199
1267	1.2597e+02	-10.4307	-51.104083	0.000487	4.865900	1.648612	-0.000195
1268	1.2607e+02	-10.4756	-51.269605	0.000416	4.156290	1.408189	-0.000166
1269	1.2617e+02	-10.5125	-51.427054	0.000395	3.953544	1.339497	-0.000158
1270	1.2627e+02	-10.5623	-51.608725	0.000456	4.561781	1.545573	-0.000183
1271	1.2636e+02	-10.5976	-51.798470	0.000476	4.764527	1.614265	-0.000191
1272	1.2646e+02	-10.6296	-51.996290	0.000497	4.967273	1.682958	-0.000199
1273	1.2656e+02	-10.6746	-52.157775	0.000405	4.054917	1.373843	-0.000162
1274	1.2666e+02	-10.7083	-52.270815	0.000284	2.838442	0.961690	-0.000114
1275	1.2676e+02	-10.7596	-52.521117	0.000629	6.285121	2.129457	-0.000252
1276	1.2686e+02	-10.7997	-52.702788	0.000456	4.561781	1.545573	-0.000183
1277	1.2696e+02	-10.8302	-52.852163	0.000375	3.750798	1.270805	-0.000150
1278	1.2706e+02	-10.8783	-53.009611	0.000395	3.953544	1.339497	-0.000158
1279	1.2716e+02	-10.9184	-53.167059	0.000395	3.953544	1.339497	-0.000158
1280	1.2726e+02	-10.9569	-53.364879	0.000497	4.967273	1.682958	-0.000199
1281	1.2736e+02	-10.9938	-53.594995	0.000578	5.778256	1.957726	-0.000231
1282	1.2746e+02	-11.0307	-53.703998	0.000274	2.737069	0.927344	-0.000110
1283	1.2756e+02	-11.0772	-53.889706	0.000466	4.663154	1.579919	-0.000187
1284	1.2766e+02	-11.1173	-54.039080	0.000375	3.750798	1.270805	-0.000150
1285	1.2776e+02	-11.1574	-54.212677	0.000436	4.359035	1.476881	-0.000174
1286	1.2786e+02	-11.1975	-54.406460	0.000487	4.865900	1.648612	-0.000195
1287	1.2796e+02	-11.2393	-54.571982	0.000416	4.156290	1.408189	-0.000166
1288	1.2806e+02	-11.2826	-54.725393	0.000385	3.852171	1.305151	-0.000154
1289	1.2816e+02	-11.3114	-54.955510	0.000578	5.778256	1.957726	-0.000231
1290	1.2826e+02	-11.3580	-55.060476	0.000264	2.635696	0.892998	-0.000105
1291	1.2835e+02	-11.3997	-55.225998	0.000416	4.156290	1.408189	-0.000166
1292	1.2845e+02	-11.4253	-55.427855	0.000507	5.068646	1.717304	-0.000203
1293	1.2855e+02	-11.4687	-55.617600	0.000476	4.764527	1.614265	-0.000191
1294	1.2865e+02	-11.5104	-55.754863	0.000345	3.446679	1.167766	-0.000138
1295	1.2875e+02	-11.5553	-55.908274	0.000385	3.852171	1.305151	-0.000154
1296	1.2885e+02	-11.5922	-56.077834	0.000426	4.257662	1.442535	-0.000170
1297	1.2895e+02	-11.6243	-56.279691	0.000507	5.068646	1.717304	-0.000203
1298	1.2905e+02	-11.6612	-56.469436	0.000476	4.764527	1.614265	-0.000191
1299	1.2915e+02	-11.7157	-56.582476	0.000284	2.838442	0.961690	-0.000114
1300	1.2925e+02	-11.7446	-56.739924	0.000395	3.953544	1.339497	-0.000158
1301	1.2935e+02	-11.7767	-56.937744	0.000497	4.967273	1.682958	-0.000199
1302	1.2945e+02	-11.8328	-57.087118	0.000375	3.750798	1.270805	-0.000150
1303	1.2955e+02	-11.8729	-57.309160	0.000558	5.575510	1.889034	-0.000223
1304	1.2965e+02	-11.9050	-57.478720	0.000426	4.257662	1.442535	-0.000170
1305	1.2975e+02	-11.9483	-57.611946	0.000335	3.345306	1.133420	-0.000134
1306	1.2985e+02	-11.9884	-57.769394	0.000395	3.953544	1.339497	-0.000158
1307	1.2995e+02	-12.0301	-57.947028	0.000446	4.460408	1.511227	-0.000179
1308	1.3005e+02	-12.0815	-58.120625	0.000436	4.359035	1.476881	-0.000174
1309	1.3015e+02	-12.1055	-58.290184	0.000426	4.257662	1.442535	-0.000170
1310	1.3025e+02	-12.1537	-58.435521	0.000365	3.649425	1.236459	-0.000146
1311	1.3034e+02	-12.1874	-58.633341	0.000497	4.967273	1.682958	-0.000199
1312	1.3044e+02	-12.2291	-58.802901	0.000426	4.257662	1.442535	-0.000170
1313	1.3054e+02	-12.2756	-58.915940	0.000284	2.838442	0.961690	-0.000114
1314	1.3064e+02	-12.3125	-59.117797	0.000507	5.068646	1.717304	-0.000203
1315	1.3074e+02	-12.3446	-59.271208	0.000385	3.852171	1.305151	-0.000154
1316	1.3084e+02	-12.3863	-59.444805	0.000436	4.359035	1.476881	-0.000174
1317	1.3094e+02	-12.4328	-59.586105	0.000355	3.548052	1.202113	-0.000142
1318	1.3104e+02	-12.4665	-59.763739	0.000446	4.460408	1.511227	-0.000179
1319	1.3114e+02	-12.5066	-59.953484	0.000476	4.764527	1.614265	-0.000191
1320	1.3124e+02	-12.5483	-60.127081	0.000436	4.359035	1.476881	-0.000174
1321	1.3134e+02	-12.5884	-60.276455	0.000375	3.750798	1.270805	-0.000150
1322	1.3144e+02	-12.6157	-60.425829	0.000375	3.750798	1.270805	-0.000150
1323	1.3154e+02	-12.6702	-60.591352	0.000416	4.156290	1.408189	-0.000166
1324	1.3164e+02	-12.7103	-60.777060	0.000466	4.663154	1.579919	-0.000187
1325	1.3174e+02	-12.7504	-60.902211	0.000314	3.142560	1.064728	-0.000126
1326	1.3184e+02	-12.7938	-61.091957	0.000476	4.764527	1.614265	-0.000191
1327	1.3194e+02	-12.8242	-61.204996	0.000284	2.838442	0.961690	-0.000114
1328	1.3204e+02	-12.8563	-61.402816	0.000497	4.967273	1.682958	-0.000199
1329	1.3214e+02	-12.9012	-61.572376	0.000426	4.257662	1.442535	-0.000170
1330	1.3224e+02	-12.9413	-61.754047	0.000456	4.561781	1.545573	-0.000183
1331	1.3234e+02	-12.9782	-61.879198	0.000314	3.142560	1.064728	-0.000126
1332	1.3243e+02	-13.0344	-62.077018	0.000497	4.967273	1.682958	-0.000199
1333	1.3253e+02	-13.0649	-62.218317	0.000355	3.548052	1.202113	-0.000142
1334	1.3263e+02	-13.1066	-62.375766	0.000395	3.953544	1.339497	-0.000158
1335	1.3273e+02	-13.1387	-62.521103	0.000365	3.649425	1.236459	-0.000146
1336	1.3283e+02	-13.1916	-62.702774	0.000456	4.561781	1.545573	-0.000183
1337	1.3293e+02	-13.2189	-62.860222	0.000395	3.953544	1.339497	-0.000158
1338	1.3303e+02	-13.2606	-63.029782	0.000426	4.257662	1.442535	-0.000170
1339	1.3313e+02	-13.3071	-63.187230	0.000395	3.953544	1.339497	-0.000158
1340	1.3323e+02	-13.3376	-63.356790	0.000426	4.257662	1.442535	-0.000170
1341	1.3333e+02	-13.3761	-63.490015	0.000335	3.345306	1.133420	-0.000134
1342	1.3343e+02	-13.4226	-63.647463	0.000395	3.953544	1.339497	-0.000158
1343	1.3353e+02	-13.4659	-63.837209	0.000476	4.764527	1.614265	-0.000191
1344	1.3363e+02	-13.5012	-63.990620	0.000385	3.852171	1.305151	-0.000154
1345	1.3373e+02	-13.5558	-64.144031	0.000385	3.852171	1.305151	-0.000154
1346	1.3383e+02	-13.5766	-64.297442	0.000385	3.852171	1.305151	-0.000154
1347	1.3393e+02	-13.6215	-64.462965	0.000416	4.156290	1.408189	-0.000166
1348	1.3403e+02	-13.6697	-64.596190	0.000335	3.345306	1.133420	-0.000134
1349	1.3413e+02	-13.6953	-64.798047	0.000507	5.068646	1.717304	-0.000203
1350	1.3423e+02	-13.7403	-64.959533	0.000405	4.054917	1.373843	-0.000162
1351	1.3432e+02	-13.7820	-65.072572	0.000284	2.838442	0.961690	-0.000114
1352	1.3442e+02	-13.8269	-65.246169	0.000436	4.359035	1.476881	-0.000174
1353	1.3452e+02	-13.8622	-65.387469	0.000355	3.548052	1.202113	-0.000142
1354	1.3462e+02	-13.9039	-65.544917	0.000395	3.953544	1.339497	-0.000158
1355	1.3472e+02	-13.9536	-65.702366	0.000395	3.953544	1.339497	-0.000158
1356	1.3482e+02	-13.9809	-65.888074	0.000466	4.663154	1.579919	-0.000187
1357	1.3492e+02	-14.0242	-66.049559	0.000405	4.054917	1.373843	-0.000162
1358	1.3502e+02	-14.0579	-66.162599	0.000284	2.838442	0.961690	-0.000114
1359	1.3512e+02	-14.1012	-66.396753	0.000588	5.879629	1.992072	-0.000235
1360	1.3522e+02	-14.1429	-66.550164	0.000385	3.852171	1.305151	-0.000154
1361	1.3532e+02	-14.1830	-66.691464	0.000355	3.548052	1.202113	-0.000142
1362	1.3542e+02	-14.2215	-66.832764	0.000355	3.548052	1.202113	-0.000142
1363	1.3552e+02	-14.2600	-67.006360	0.000436	4.359035	1.476881	-0.000174
1364	1.3562e+02	-14.3146	-67.196106	0.000476	4.764527	1.614265	-0.000191
1365	1.3572e+02	-14.3338	-67.349517	0.000385	3.852171	1.305151	-0.000154
1366	1.3582e+02	-14.3723	-67.543299	0.000487	4.865900	1.648612	-0.000195
1367	1.3592e+02	-14.4092	-67.648265	0.000264	2.635696	0.892998	-0.000105
1368	1.3602e+02	-14.4557	-67.862233	0.000537	5.372764	1.820342	-0.000215
1369	1.3612e+02	-14.4942	-67.975273	0.000284	2.838442	0.961690	-0.000114
1370	1.3622e+02	-14.5440	-68.100424	0.000314	3.142560	1.064728	-0.000126
1371	1.3631e+02	-14.5761	-68.265947	0.000416	4.156290	1.408189	-0.000166
1372	1.3641e+02	-14.6130	-68.455692	0.000476	4.764527	1.614265	-0.000191
1373	1.3651e+02	-14.6531	-68.584880	0.000324	3.243933	1.099074	-0.000130
1374	1.3661e+02	-14.7044	-68.726180	0.000355	3.548052	1.202113	-0.000142
1375	1.3671e+02	-14.7349	-68.907851	0.000456	4.561781	1.545573	-0.000183
1376	1.3681e+02	-14.7814	-69.093560	0.000466	4.663154	1.579919	-0.000187
1377	1.3691e+02	-14.8183	-69.251008	0.000395	3.953544	1.339497	-0.000158
1378	1.3701e+02	-14.8600	-69.404419	0.000385	3.852171	1.305151	-0.000154
1379	1.3711e+02	-14.8985	-69.582053	0.000446	4.460408	1.511227	-0.000179
1380	1.3721e+02	-14.9402	-69.735464	0.000385	3.852171	1.305151	-0.000154
1381	1.3731e+02	-14.9739	-69.840430	0.000264	2.635696	0.892998	-0.000105
1382	1.3741e+02	-15.0140	-70.074584	0.000588	5.879629	1.992072	-0.000235
1383	1.3751e+02	-15.0493	-70.191661	0.000294	2.939815	0.996036	-0.000118
1384	1.3761e+02	-15.0990	-70.328923	0.000345	3.446679	1.167766	-0.000138
1385	1.3771e+02	-15.1456	-70.494446	0.000416	4.156290	1.408189	-0.000166
1386	1.3781e+02	-15.1760	-70.696302	0.000507	5.068646	1.717304	-0.000203
1387	1.3791e+02	-15.2178	-70.865862	0.000426	4.257662	1.442535	-0.000170
1388	1.3801e+02	-15.2595	-70.966791	0.000253	2.534323	0.858652	-0.000101
1389	1.3811e+02	-15.3044	-71.152499	0.000466	4.663154	1.579919	-0.000187
1390	1.3821e+02	-15.3381	-71.330133	0.000446	4.460408	1.511227	-0.000179
1391	1.3831e+02	-15.3846	-71.495655	0.000416	4.156290	1.408189	-0.000166
1392	1.3840e+02	-15.4135	-71.649067	0.000385	3.852171	1.305151	-0.000154
1393	1.3850e+02	-15.4632	-71.782292	0.000335	3.345306	1.133420	-0.000134
1394	1.3860e+02	-15.4937	-71.899369	0.000294	2.939815	0.996036	-0.000118
1395	1.3870e+02	-15.5306	-72.125449	0.000568	5.676883	1.923380	-0.000227
1396	1.3880e+02	-15.5675	-72.278860	0.000385	3.852171	1.305151	-0.000154
1397	1.3890e+02	-15.6172	-72.444382	0.000416	4.156290	1.408189	-0.000166
1398	1.3900e+02	-15.6557	-72.561459	0.000294	2.939815	0.996036	-0.000118
1399	1.3910e+02	-15.6990	-72.751205	0.000476	4.764527	1.614265	-0.000191
1400	1.3920e+02	-15.7343	-72.924801	0.000436	4.359035	1.476881	-0.000174
1401	1.3930e+02	-15.7712	-73.070138	0.000365	3.649425	1.236459	-0.000146
1402	1.3940e+02	-15.8177	-73.191252	0.000304	3.041187	1.030382	-0.000122
1403	1.3950e+02	-15.8514	-73.413295	0.000558	5.575510	1.889034	-0.000223
1404	1.3960e+02	-15.8899	-73.562669	0.000375	3.750798	1.270805	-0.000150
1405	1.3970e+02	-15.9316	-73.699931	0.000345	3.446679	1.167766	-0.000138
1406	1.3980e+02	-15.9701	-73.817008	0.000294	2.939815	0.996036	-0.000118
1407	1.3990e+02	-16.0135	-74.039051	0.000558	5.575510	1.889034	-0.000223
1408	1.4000e+02	-16.0520	-74.160165	0.000304	3.041187	1.030382	-0.000122
1409	1.4010e+02	-16.1001	-74.325688	0.000416	4.156290	1.408189	-0.000166
1410	1.4020e+02	-16.1322	-74.495247	0.000426	4.257662	1.442535	-0.000170
1411	1.4029e+02	-16.1739	-74.620398	0.000314	3.142560	1.064728	-0.000126
1412	1.4039e+02	-16.2188	-74.793995	0.000436	4.359035	1.476881	-0.000174
1413	1.4049e+02	-16.2589	-74.967592	0.000436	4.359035	1.476881	-0.000174
1414	1.4059e+02	-16.2910	-75.121003	0.000385	3.852171	1.305151	-0.000154
1415	1.4069e+02	-16.3343	-75.274414	0.000385	3.852171	1.305151	-0.000154
1416	1.4079e+02	-16.3760	-75.419751	0.000365	3.649425	1.236459	-0.000146
1417	1.4089e+02	-16.4081	-75.609497	0.000476	4.764527	1.614265	-0.000191
1418	1.4099e+02	-16.4578	-75.762908	0.000385	3.852171	1.305151	-0.000154
1419	1.4109e+02	-16.4899	-75.900170	0.000345	3.446679	1.167766	-0.000138
1420	1.4119e+02	-16.5348	-76.065693	0.000416	4.156290	1.408189	-0.000166
1421	1.4129e+02	-16.5669	-76.223141	0.000395	3.953544	1.339497	-0.000158
1422	1.4139e+02	-16.6070	-76.404812	0.000456	4.561781	1.545573	-0.000183
1423	1.4149e+02	-16.6423	-76.554186	0.000375	3.750798	1.270805	-0.000150
1424	1.4159e+02	-16.6856	-76.743932	0.000476	4.764527	1.614265	-0.000191
1425	1.4169e+02	-16.7289	-76.905417	0.000405	4.054917	1.373843	-0.000162
1426	1.4179e+02	-16.7755	-77.038643	0.000335	3.345306	1.133420	-0.000134
1427	1.4189e+02	-16.8092	-77.196091	0.000395	3.953544	1.339497	-0.000158
1428	1.4199e+02	-16.8525	-77.406022	0.000527	5.271392	1.785996	-0.000211
1429	1.4209e+02	-16.8846	-77.527136	0.000304	3.041187	1.030382	-0.000122
1430	1.4219e+02	-16.9263	-77.688622	0.000405	4.054917	1.373843	-0.000162
1431	1.4228e+02	-16.9712	-77.842033	0.000385	3.852171	1.305151	-0.000154
1432	1.4238e+02	-17.0097	-77.999481	0.000395	3.953544	1.339497	-0.000158
1433	1.4248e+02	-17.0482	-78.181152	0.000456	4.561781	1.545573	-0.000183
1434	1.4258e+02	-17.0963	-78.322452	0.000355	3.548052	1.202113	-0.000142
1435	1.4268e+02	-17.1268	-78.467789	0.000365	3.649425	1.236459	-0.000146
1436	1.4278e+02	-17.1637	-78.665608	0.000497	4.967273	1.682958	-0.000199
1437	1.4288e+02	-17.1990	-78.794797	0.000324	3.243933	1.099074	-0.000130
1438	1.4298e+02	-17.2455	-78.960319	0.000416	4.156290	1.408189	-0.000166
1439	1.4308e+02	-17.2952	-79.141990	0.000456	4.561781	1.545573	-0.000183
1440	1.4318e+02	-17.3289	-79.307513	0.000416	4.156290	1.408189	-0.000166
1441	1.4328e+02	-17.3706	-79.473036	0.000416	4.156290	1.408189	-0.000166
1442	1.4338e+02	-17.4059	-79.602224	0.000324	3.243933	1.099074	-0.000130
1443	1.4348e+02	-17.4444	-79.779858	0.000446	4.460408	1.511227	-0.000179
1444	1.4358e+02	-17.4797	-79.981715	0.000507	5.068646	1.717304	-0.000203
1445	1.4368e+02	-17.5295	-80.098792	0.000294	2.939815	0.996036	-0.000118
1446	1.4378e+02	-17.5663	-80.276426	0.000446	4.460408	1.511227	-0.000179
1447	1.4388e+02	-17.6065	-80.454060	0.000446	4.460408	1.511227	-0.000179
1448	1.4398e+02	-17.6401	-80.530765	0.000193	1.926085	0.652575	-0.000077
1449	1.4408e+02	-17.6867	-80.764919	0.000588	5.879629	1.992072	-0.000235
1450	1.4418e+02	-17.7268	-80.881996	0.000294	2.939815	0.996036	-0.000118
1451	1.4428e+02	-17.7701	-81.100001	0.000547	5.474137	1.854688	-0.000219
1452	1.4437e+02	-17.8086	-81.237264	0.000345	3.446679	1.167766	-0.000138
1453	1.4447e+02	-17.8471	-81.374527	0.000345	3.446679	1.167766	-0.000138
1454	1.4457e+02	-17.8824	-81.564272	0.000476	4.764527	1.614265	-0.000191
1455	1.4467e+02	-17.9241	-81.717683	0.000385	3.852171	1.305151	-0.000154
1456	1.4477e+02	-17.9626	-81.887243	0.000426	4.257662	1.442535	-0.000170
1457	1.4487e+02	-18.0107	-82.016431	0.000324	3.243933	1.099074	-0.000130
1458	1.4497e+02	-18.0508	-82.177917	0.000405	4.054917	1.373843	-0.000162
1459	1.4507e+02	-18.0909	-82.375736	0.000497	4.967273	1.682958	-0.000199
1460	1.4517e+02	-18.1230	-82.529147	0.000385	3.852171	1.305151	-0.000154
1461	1.4527e+02	-18.1695	-82.682558	0.000385	3.852171	1.305151	-0.000154
1462	1.4537e+02	-18.2129	-82.852118	0.000426	4.257662	1.442535	-0.000170
1463	1.4547e+02	-18.2433	-83.005529	0.000385	3.852171	1.305151	-0.000154
1464	1.4557e+02	-18.2850	-83.207386	0.000507	5.068646	1.717304	-0.000203
1465	1.4567e+02	-18.3235	-83.348686	0.000355	3.548052	1.202113	-0.000142
1466	1.4577e+02	-18.3717	-83.522283	0.000436	4.359035	1.476881	-0.000174
1467	1.4587e+02	-18.4022	-83.667620	0.000365	3.649425	1.236459	-0.000146
1468	1.4597e+02	-18.4407	-83.841216	0.000436	4.359035	1.476881	-0.000174
1469	1.4607e+02	-18.4824	-84.018850	0.000446	4.460408	1.511227	-0.000179
1470	1.4617e+02	-18.5241	-84.144002	0.000314	3.142560	1.064728	-0.000126
1471	1.4626e+02	-18.5738	-84.366044	0.000558	5.575510	1.889034	-0.000223
1472	1.4636e+02	-18.6043	-84.487158	0.000304	3.041187	1.030382	-0.000122
1473	1.4646e+02	-18.6460	-84.664792	0.000446	4.460408	1.511227	-0.000179
1474	1.4656e+02	-18.6797	-84.874723	0.000527	5.271392	1.785996	-0.000211
1475	1.4666e+02	-18.7278	-85.011986	0.000345	3.446679	1.167766	-0.000138
1476	1.4676e+02	-18.7647	-85.185583	0.000436	4.359035	1.476881	-0.000174
1477	1.4686e+02	-18.8032	-85.375328	0.000476	4.764527	1.614265	-0.000191
1478	1.4696e+02	-18.8433	-85.524702	0.000375	3.750798	1.270805	-0.000150
1479	1.4706e+02	-18.8882	-85.706373	0.000456	4.561781	1.545573	-0.000183
1480	1.4716e+02	-18.9332	-85.867859	0.000405	4.054917	1.373843	-0.000162
1481	1.4726e+02	-18.9636	-86.053567	0.000466	4.663154	1.579919	-0.000187
1482	1.4736e+02	-19.0005	-86.227164	0.000436	4.359035	1.476881	-0.000174
1483	1.4746e+02	-19.0487	-86.384612	0.000395	3.953544	1.339497	-0.000158
1484	1.4756e+02	-19.0791	-86.533986	0.000375	3.750798	1.270805	-0.000150
1485	1.4766e+02	-19.1273	-86.719694	0.000466	4.663154	1.579919	-0.000187
1486	1.4776e+02	-19.1658	-86.909440	0.000476	4.764527	1.614265	-0.000191
1487	1.4786e+02	-19.2075	-87.119371	0.000527	5.271392	1.785996	-0.000211
1488	1.4796e+02	-19.2428	-87.297005	0.000446	4.460408	1.511227	-0.000179
1489	1.4806e+02	-19.2845	-87.410044	0.000284	2.838442	0.961690	-0.000114
1490	1.4816e+02	-19.3214	-87.611901	0.000507	5.068646	1.717304	-0.000203
1491	1.4825e+02	-19.3599	-87.801647	0.000476	4.764527	1.614265	-0.000191
1492	1.4835e+02	-19.3968	-87.959095	0.000395	3.953544	1.339497	-0.000158
1493	1.4845e+02	-19.4337	-88.140766	0.000456	4.561781	1.545573	-0.000183
1494	1.4855e+02	-19.4818	-88.374920	0.000588	5.879629	1.992072	-0.000235
1495	1.4865e+02	-19.5203	-88.524294	0.000375	3.750798	1.270805	-0.000150
1496	1.4875e+02	-19.5540	-88.730188	0.000517	5.170019	1.751650	-0.000207
1497	1.4885e+02	-19.5957	-88.891673	0.000405	4.054917	1.373843	-0.000162
1498	1.4895e+02	-19.6390	-89.105641	0.000537	5.372764	1.820342	-0.000215
1499	1.4905e+02	-19.6775	-89.331721	0.000568	5.676883	1.923380	-0.000227
1500	1.4915e+02	-19.7144	-89.460909	0.000324	3.243933	1.099074	-0.000130
1501	1.4925e+02	-19.7513	-89.666803	0.000517	5.170019	1.751650	-0.000207
1502	1.4935e+02	-19.8075	-89.860586	0.000487	4.865900	1.648612	-0.000195
1503	1.4945e+02	-19.8379	-90.018034	0.000395	3.953544	1.339497	-0.000158
1504	1.4955e+02	-19.8813	-90.219891	0.000507	5.068646	1.717304	-0.000203
1505	1.4965e+02	-19.9214	-90.429822	0.000527	5.271392	1.785996	-0.000211
1506	1.4975e+02	-19.9518	-90.611493	0.000456	4.561781	1.545573	-0.000183
1507	1.4985e+02	-19.9968	-90.785090	0.000436	4.359035	1.476881	-0.000174
1508	1.4995e+02	-19.9647	-90.752793	0.000081	0.810983	0.274769	0.000032
1509	1.5005e+02	-19.9198	-90.736644	0.000041	0.405492	0.137384	0.000016
1510	1.5015e+02	-19.8732	-90.627642	0.000274	2.737069	0.927344	0.000110
1511	1.5025e+02	-19.8331	-90.595345	0.000081	0.810983	0.274769	0.000032
1512	1.5034e+02	-19.8010	-90.542862	0.000132	1.317848	0.446499	0.000053
1513	1.5044e+02	-19.7609	-90.482305	0.000152	1.520594	0.515191	0.000061
1514	1.5054e+02	-19.7128	-90.405599	0.000193	1.926085	0.652575	0.000077
1515	1.5064e+02	-19.6775	-90.316782	0.000223	2.230204	0.755614	0.000089
1516	1.5074e+02	-19.6342	-90.268337	0.000122	1.216475	0.412153	0.000049
1517	1.5084e+02	-19.6037	-90.151260	0.000294	2.939815	0.996036	0.000118
1518	1.5094e+02	-19.5684	-90.094740	0.000142	1.419221	0.480845	0.000057
1519	1.5104e+02	-19.5283	-90.001886	0.000233	2.331577	0.789960	0.000093
1520	1.5114e+02	-19.4738	-89.892883	0.000274	2.737069	0.927344	0.000110
1521	1.5124e+02	-19.4353	-89.844437	0.000122	1.216475	0.412153	0.000049
1522	1.5134e+02	-19.4016	-89.763695	0.000203	2.027458	0.686921	0.000081
1523	1.5144e+02	-19.3470	-89.642580	0.000304	3.041187	1.030382	0.000122
1524	1.5154e+02	-19.3118	-89.586061	0.000142	1.419221	0.480845	0.000057
1525	1.5164e+02	-19.2861	-89.505318	0.000203	2.027458	0.686921	0.000081
1526	1.5174e+02	-19.2380	-89.404389	0.000253	2.534323	0.858652	0.000101
1527	1.5184e+02	-19.2043	-89.323647	0.000203	2.027458	0.686921	0.000081
1528	1.5194e+02	-19.1642	-89.202533	0.000304	3.041187	1.030382	0.000122
1529	1.5204e+02	-19.1192	-89.125827	0.000193	1.926085	0.652575	0.000077
1530	1.5214e+02	-19.0807	-89.016824	0.000274	2.737069	0.927344	0.000110
1531	1.5224e+02	-19.0326	-88.944156	0.000182	1.824712	0.618229	0.000073
1532	1.5233e+02	-19.0086	-88.855339	0.000223	2.230204	0.755614	0.000089
1533	1.5243e+02	-18.9524	-88.726151	0.000324	3.243933	1.099074	0.000130
1534	1.5253e+02	-18.9348	-88.665594	0.000152	1.520594	0.515191	0.000061
1535	1.5263e+02	-18.8866	-88.548517	0.000294	2.939815	0.996036	0.000118
1536	1.5273e+02	-18.8465	-88.451625	0.000243	2.432950	0.824306	0.000097
1537	1.5283e+02	-18.8064	-88.354734	0.000243	2.432950	0.824306	0.000097
1538	1.5293e+02	-18.7567	-88.221509	0.000335	3.345306	1.133420	0.000134
1539	1.5303e+02	-18.7214	-88.116543	0.000264	2.635696	0.892998	0.000105
1540	1.5313e+02	-18.6829	-88.023689	0.000233	2.331577	0.789960	0.000093
1541	1.5323e+02	-18.6524	-87.955058	0.000172	1.723340	0.583883	0.000069
1542	1.5333e+02	-18.5947	-87.846055	0.000274	2.737069	0.927344	0.000110
1543	1.5343e+02	-18.5594	-87.749164	0.000243	2.432950	0.824306	0.000097
1544	1.5353e+02	-18.5241	-87.676495	0.000182	1.824712	0.618229	0.000073
1545	1.5363e+02	-18.4856	-87.502899	0.000436	4.359035	1.476881	0.000174
1546	1.5373e+02	-18.4374	-87.454453	0.000122	1.216475	0.412153	0.000049
1547	1.5383e+02	-18.4054	-87.309116	0.000365	3.649425	1.236459	0.000146
1548	1.5393e+02	-18.3717	-87.208188	0.000253	2.534323	0.858652	0.000101
1549	1.5403e+02	-18.3316	-87.103222	0.000264	2.635696	0.892998	0.000105
1550	1.5413e+02	-18.2818	-86.974034	0.000324	3.243933	1.099074	0.000130
1551	1.5422e+02	-18.2433	-86.877143	0.000243	2.432950	0.824306	0.000097
1552	1.5432e+02	-18.2161	-86.776214	0.000253	2.534323	0.858652	0.000101
1553	1.5442e+02	-18.1711	-86.675286	0.000253	2.534323	0.858652	0.000101
1554	1.5452e+02	-18.1262	-86.521875	0.000385	3.852171	1.305151	0.000154
1555	1.5462e+02	-18.0813	-86.441132	0.000203	2.027458	0.686921	0.000081
1556	1.5472e+02	-18.0492	-86.295795	0.000365	3.649425	1.236459	0.000146
1557	1.5482e+02	-18.0123	-86.198904	0.000243	2.432950	0.824306	0.000097
1558	1.5492e+02	-17.9754	-86.073753	0.000314	3.142560	1.064728	0.000126
1559	1.5502e+02	-17.9193	-85.988973	0.000213	2.128831	0.721268	0.000085
1560	1.5512e+02	-17.8872	-85.819413	0.000426	4.257662	1.442535	0.000170
1561	1.5522e+02	-17.8519	-85.770967	0.000122	1.216475	0.412153	0.000049
1562	1.5532e+02	-17.8070	-85.649853	0.000304	3.041187	1.030382	0.000122
1563	1.5542e+02	-17.7685	-85.536813	0.000284	2.838442	0.961690	0.000114
1564	1.5552e+02	-17.7348	-85.391477	0.000365	3.649425	1.236459	0.000146
1565	1.5562e+02	-17.6915	-85.278437	0.000284	2.838442	0.961690	0.000114
1566	1.5572e+02	-17.6466	-85.181546	0.000243	2.432950	0.824306	0.000097
1567	1.5582e+02	-17.6016	-85.068506	0.000284	2.838442	0.961690	0.000114
1568	1.5592e+02	-17.5663	-84.951429	0.000294	2.939815	0.996036	0.000118
1569	1.5602e+02	-17.5343	-84.798018	0.000385	3.852171	1.305151	0.000154
1570	1.5612e+02	-17.4845	-84.713238	0.000213	2.128831	0.721268	0.000085
1571	1.5622e+02	-17.4380	-84.604235	0.000274	2.737069	0.927344	0.000110
1572	1.5631e+02	-17.4091	-84.475047	0.000324	3.243933	1.099074	0.000130
1573	1.5641e+02	-17.3674	-84.374118	0.000253	2.534323	0.858652	0.000101
1574	1.5651e+02	-17.3321	-84.212633	0.000405	4.054917	1.373843	0.000162
1575	1.5661e+02	-17.2904	-84.148039	0.000162	1.621967	0.549537	0.000065
1576	1.5671e+02	-17.2487	-84.043073	0.000264	2.635696	0.892998	0.000105
1577	1.5681e+02	-17.2086	-83.909848	0.000335	3.345306	1.133420	0.000134
1578	1.5691e+02	-17.1685	-83.776622	0.000335	3.345306	1.133420	0.000134
1579	1.5701e+02	-17.1300	-83.655508	0.000304	3.041187	1.030382	0.000122
1580	1.5711e+02	-17.0963	-83.538431	0.000294	2.939815	0.996036	0.000118
1581	1.5721e+02	-17.0450	-83.425391	0.000284	2.838442	0.961690	0.000114
1582	1.5731e+02	-17.0097	-83.328500	0.000243	2.432950	0.824306	0.000097
1583	1.5741e+02	-16.9712	-83.203349	0.000314	3.142560	1.064728	0.000126
1584	1.5751e+02	-16.9311	-83.070124	0.000335	3.345306	1.133420	0.000134
1585	1.5761e+02	-16.9006	-82.912675	0.000395	3.953544	1.339497	0.000158
1586	1.5771e+02	-16.8460	-82.787524	0.000314	3.142560	1.064728	0.000126
1587	1.5781e+02	-16.8124	-82.686596	0.000253	2.534323	0.858652	0.000101
1588	1.5791e+02	-16.7723	-82.561444	0.000314	3.142560	1.064728	0.000126
1589	1.5801e+02	-16.7257	-82.432256	0.000324	3.243933	1.099074	0.000130
1590	1.5811e+02	-16.6920	-82.286919	0.000365	3.649425	1.236459	0.000146
1591	1.5821e+02	-16.6551	-82.210214	0.000193	1.926085	0.652575	0.000077
1592	1.5830e+02	-16.6118	-82.076988	0.000335	3.345306	1.133420	0.000134
1593	1.5840e+02	-16.5605	-81.955874	0.000304	3.041187	1.030382	0.000122
1594	1.5850e+02	-16.5380	-81.858983	0.000243	2.432950	0.824306	0.000097
1595	1.5860e+02	-16.4883	-81.713646	0.000365	3.649425	1.236459	0.000146
1596	1.5870e+02	-16.4514	-81.592532	0.000304	3.041187	1.030382	0.000122
1597	1.5880e+02	-16.4209	-81.451232	0.000355	3.548052	1.202113	0.000142
1598	1.5890e+02	-16.3792	-81.382601	0.000172	1.723340	0.583883	0.000069
1599	1.5900e+02	-16.3295	-81.245338	0.000345	3.446679	1.167766	0.000138
1600	1.5910e+02	-16.2878	-81.112113	0.000335	3.345306	1.133420	0.000134
1601	1.5920e+02	-16.2605	-80.954664	0.000395	3.953544	1.339497	0.000158
1602	1.5930e+02	-16.2188	-80.861810	0.000233	2.331577	0.789960	0.000093
1603	1.5940e+02	-16.1723	-80.748770	0.000284	2.838442	0.961690	0.000114
1604	1.5950e+02	-16.1370	-80.639768	0.000274	2.737069	0.927344	0.000110
1605	1.5960e+02	-16.0889	-80.510579	0.000324	3.243933	1.099074	0.000130
1606	1.5970e+02	-16.0552	-80.373317	0.000345	3.446679	1.167766	0.000138
1607	1.5980e+02	-16.0151	-80.256240	0.000294	2.939815	0.996036	0.000118
1608	1.5990e+02	-15.9766	-80.098792	0.000395	3.953544	1.339497	0.000158
1609	1.6000e+02	-15.9364	-79.993826	0.000264	2.635696	0.892998	0.000105
1610	1.6010e+02	-15.8931	-79.844452	0.000375	3.750798	1.270805	0.000150
1611	1.6019e+02	-15.8546	-79.727375	0.000294	2.939815	0.996036	0.000118
1612	1.6029e+02	-15.8129	-79.594150	0.000335	3.345306	1.133420	0.000134
1613	1.6039e+02	-15.7776	-79.505333	0.000223	2.230204	0.755614	0.000089
1614	1.6049e+02	-15.7327	-79.347884	0.000395	3.953544	1.339497	0.000158
1615	1.6059e+02	-15.7006	-79.190436	0.000395	3.953544	1.339497	0.000158
1616	1.6069e+02	-15.6557	-79.045099	0.000365	3.649425	1.236459	0.000146
1617	1.6079e+02	-15.6220	-78.948208	0.000243	2.432950	0.824306	0.000097
1618	1.6089e+02	-15.5755	-78.790760	0.000395	3.953544	1.339497	0.000158
1619	1.6099e+02	-15.5450	-78.701943	0.000223	2.230204	0.755614	0.000089
1620	1.6109e+02	-15.4937	-78.564680	0.000345	3.446679	1.167766	0.000138
1621	1.6119e+02	-15.4584	-78.399157	0.000416	4.156290	1.408189	0.000166
1622	1.6129e+02	-15.4231	-78.298229	0.000253	2.534323	0.858652	0.000101
1623	1.6139e+02	-15.3814	-78.152892	0.000365	3.649425	1.236459	0.000146
1624	1.6149e+02	-15.3397	-78.031778	0.000304	3.041187	1.030382	0.000122
1625	1.6159e+02	-15.2899	-77.882404	0.000375	3.750798	1.270805	0.000150
1626	1.6169e+02	-15.2563	-77.724956	0.000395	3.953544	1.339497	0.000158
1627	1.6179e+02	-15.2258	-77.692659	0.000081	0.810983	0.274769	0.000032
1628	1.6189e+02	-15.1744	-77.474653	0.000547	5.474137	1.854688	0.000219
1629	1.6199e+02	-15.1375	-77.373725	0.000253	2.534323	0.858652	0.000101
1630	1.6209e+02	-15.0910	-77.232425	0.000355	3.548052	1.202113	0.000142
1631	1.6219e+02	-15.0557	-77.107274	0.000314	3.142560	1.064728	0.000126
1632	1.6228e+02	-15.0140	-76.965974	0.000355	3.548052	1.202113	0.000142
1633	1.6238e+02	-14.9819	-76.840823	0.000314	3.142560	1.064728	0.000126
1634	1.6248e+02	-14.9450	-76.671263	0.000426	4.257662	1.442535	0.000170
1635	1.6258e+02	-14.8937	-76.542075	0.000324	3.243933	1.099074	0.000130
1636	1.6268e+02	-14.8520	-76.429035	0.000284	2.838442	0.961690	0.000114
1637	1.6278e+02	-14.8103	-76.255438	0.000436	4.359035	1.476881	0.000174
1638	1.6288e+02	-14.7830	-76.150473	0.000264	2.635696	0.892998	0.000105
1639	1.6298e+02	-14.7429	-75.980913	0.000426	4.257662	1.442535	0.000170
1640	1.6308e+02	-14.7044	-75.879985	0.000253	2.534323	0.858652	0.000101
1641	1.6318e+02	-14.6531	-75.702351	0.000446	4.460408	1.511227	0.000179
1642	1.6328e+02	-14.6130	-75.597385	0.000264	2.635696	0.892998	0.000105
1643	1.6338e+02	-14.5793	-75.456086	0.000355	3.548052	1.202113	0.000142
1644	1.6348e+02	-14.5392	-75.306711	0.000375	3.750798	1.270805	0.000150
1645	1.6358e+02	-14.5007	-75.197709	0.000274	2.737069	0.927344	0.000110
1646	1.6368e+02	-14.4541	-75.016038	0.000456	4.561781	1.545573	0.000183
1647	1.6378e+02	-14.4140	-74.911072	0.000264	2.635696	0.892998	0.000105
1648	1.6388e+02	-14.3803	-74.785921	0.000314	3.142560	1.064728	0.000126
1649	1.6398e+02	-14.3467	-74.644621	0.000355	3.548052	1.202113	0.000142
1650	1.6408e+02	-14.3001	-74.462950	0.000456	4.561781	1.545573	0.000183
1651	1.6418e+02	-14.2648	-74.378170	0.000213	2.128831	0.721268	0.000085
1652	1.6427e+02	-14.2215	-74.156128	0.000558	5.575510	1.889034	0.000223
1653	1.6437e+02	-14.1718	-74.083459	0.000182	1.824712	0.618229	0.000073
1654	1.6447e+02	-14.1429	-73.909863	0.000436	4.359035	1.476881	0.000174
1655	1.6457e+02	-14.1012	-73.808934	0.000253	2.534323	0.858652	0.000101
1656	1.6467e+02	-14.0627	-73.663597	0.000365	3.649425	1.236459	0.000146
1657	1.6477e+02	-14.0258	-73.502112	0.000405	4.054917	1.373843	0.000162
1658	1.6487e+02	-13.9761	-73.356775	0.000365	3.649425	1.236459	0.000146
1659	1.6497e+02	-13.9456	-73.251809	0.000264	2.635696	0.892998	0.000105
1660	1.6507e+02	-13.9023	-73.074175	0.000446	4.460408	1.511227	0.000179
1661	1.6517e+02	-13.8622	-72.900579	0.000436	4.359035	1.476881	0.000174
1662	1.6527e+02	-13.8237	-72.803687	0.000243	2.432950	0.824306	0.000097
1663	1.6537e+02	-13.7852	-72.678536	0.000314	3.142560	1.064728	0.000126
1664	1.6547e+02	-13.7403	-72.517051	0.000405	4.054917	1.373843	0.000162
1665	1.6557e+02	-13.7066	-72.335380	0.000456	4.561781	1.545573	0.000183
1666	1.6567e+02	-13.6600	-72.218303	0.000294	2.939815	0.996036	0.000118
1667	1.6577e+02	-13.6103	-72.089114	0.000324	3.243933	1.099074	0.000130
1668	1.6587e+02	-13.5846	-71.915517	0.000436	4.359035	1.476881	0.000174
1669	1.6597e+02	-13.5477	-71.774218	0.000355	3.548052	1.202113	0.000142
1670	1.6607e+02	-13.5012	-71.657141	0.000294	2.939815	0.996036	0.000118
1671	1.6616e+02	-13.4595	-71.552175	0.000264	2.635696	0.892998	0.000105
1672	1.6626e+02	-13.4162	-71.342244	0.000527	5.271392	1.785996	0.000211
1673	1.6636e+02	-13.3825	-71.225167	0.000294	2.939815	0.996036	0.000118
1674	1.6646e+02	-13.3408	-71.055608	0.000426	4.257662	1.442535	0.000170
1675	1.6656e+02	-13.3055	-70.914308	0.000355	3.548052	1.202113	0.000142
1676	1.6666e+02	-13.2670	-70.760897	0.000385	3.852171	1.305151	0.000154
1677	1.6676e+02	-13.2173	-70.603448	0.000395	3.953544	1.339497	0.000158
1678	1.6686e+02	-13.1724	-70.474260	0.000324	3.243933	1.099074	0.000130
1679	1.6696e+02	-13.1499	-70.345072	0.000324	3.243933	1.099074	0.000130
1680	1.6706e+02	-13.1082	-70.207809	0.000345	3.446679	1.167766	0.000138
1681	1.6716e+02	-13.0649	-70.022101	0.000466	4.663154	1.579919	0.000187
1682	1.6726e+02	-13.0135	-69.860615	0.000405	4.054917	1.373843	0.000162
1683	1.6736e+02	-12.9798	-69.743538	0.000294	2.939815	0.996036	0.000118
1684	1.6746e+02	-12.9365	-69.598202	0.000365	3.649425	1.236459	0.000146
1685	1.6756e+02	-12.9061	-69.428642	0.000426	4.257662	1.442535	0.000170
1686	1.6766e+02	-12.8692	-69.315602	0.000284	2.838442	0.961690	0.000114
1687	1.6776e+02	-12.8307	-69.137968	0.000446	4.460408	1.511227	0.000179
1688	1.6786e+02	-12.7954	-69.037040	0.000253	2.534323	0.858652	0.000101
1689	1.6796e+02	-12.7488	-68.823071	0.000537	5.372764	1.820342	0.000215
1690	1.6806e+02	-12.7055	-68.705995	0.000294	2.939815	0.996036	0.000118
1691	1.6816e+02	-12.6622	-68.512212	0.000487	4.865900	1.648612	0.000195
1692	1.6825e+02	-12.6381	-68.395135	0.000294	2.939815	0.996036	0.000118
1693	1.6835e+02	-12.5916	-68.265947	0.000324	3.243933	1.099074	0.000130
1694	1.6845e+02	-12.5547	-68.132721	0.000335	3.345306	1.133420	0.000134
1695	1.6855e+02	-12.5082	-67.942976	0.000476	4.764527	1.614265	0.000191
1696	1.6865e+02	-12.4665	-67.801676	0.000355	3.548052	1.202113	0.000142
1697	1.6875e+02	-12.4264	-67.660376	0.000355	3.548052	1.202113	0.000142
1698	1.6885e+02	-12.4007	-67.531188	0.000324	3.243933	1.099074	0.000130
1699	1.6895e+02	-12.3478	-67.389888	0.000355	3.548052	1.202113	0.000142
1700	1.6905e+02	-12.3093	-67.228403	0.000405	4.054917	1.373843	0.000162
1701	1.6915e+02	-12.2660	-67.083066	0.000365	3.649425	1.236459	0.000146
1702	1.6925e+02	-12.2355	-66.925618	0.000395	3.953544	1.339497	0.000158
1703	1.6935e+02	-12.1890	-66.768169	0.000395	3.953544	1.339497	0.000158
1704	1.6945e+02	-12.1489	-66.606684	0.000405	4.054917	1.373843	0.000162
1705	1.6955e+02	-12.1055	-66.489607	0.000294	2.939815	0.996036	0.000118
1706	1.6965e+02	-12.0767	-66.352344	0.000345	3.446679	1.167766	0.000138
1707	1.6975e+02	-12.0301	-66.182785	0.000426	4.257662	1.442535	0.000170
1708	1.6985e+02	-11.9884	-66.025336	0.000395	3.953544	1.339497	0.000158
1709	1.6995e+02	-11.9403	-65.847702	0.000446	4.460408	1.511227	0.000179
1710	1.7005e+02	-11.9066	-65.754848	0.000233	2.331577	0.789960	0.000093
1711	1.7015e+02	-11.8681	-65.601437	0.000385	3.852171	1.305151	0.000154
1712	1.7024e+02	-11.8280	-65.423803	0.000446	4.460408	1.511227	0.000179
1713	1.7034e+02	-11.7943	-65.286541	0.000345	3.446679	1.167766	0.000138
1714	1.7044e+02	-11.7462	-65.108907	0.000446	4.460408	1.511227	0.000179
1715	1.7054e+02	-11.7125	-64.987793	0.000304	3.041187	1.030382	0.000122
1716	1.7064e+02	-11.6676	-64.858604	0.000324	3.243933	1.099074	0.000130
1717	1.7074e+02	-11.6259	-64.709230	0.000375	3.750798	1.270805	0.000150
1718	1.7084e+02	-11.5890	-64.503336	0.000517	5.170019	1.751650	0.000207
1719	1.7094e+02	-11.5553	-64.366074	0.000345	3.446679	1.167766	0.000138
1720	1.7104e+02	-11.5184	-64.192477	0.000436	4.359035	1.476881	0.000174
1721	1.7114e+02	-11.4799	-64.095586	0.000243	2.432950	0.824306	0.000097
1722	1.7124e+02	-11.4318	-63.926026	0.000426	4.257662	1.442535	0.000170
1723	1.7134e+02	-11.3884	-63.768578	0.000395	3.953544	1.339497	0.000158
1724	1.7144e+02	-11.3532	-63.643426	0.000314	3.142560	1.064728	0.000126
1725	1.7154e+02	-11.3082	-63.461755	0.000456	4.561781	1.545573	0.000183
1726	1.7164e+02	-11.2665	-63.288158	0.000436	4.359035	1.476881	0.000174
1727	1.7174e+02	-11.2360	-63.158970	0.000324	3.243933	1.099074	0.000130
1728	1.7184e+02	-11.1975	-63.025745	0.000335	3.345306	1.133420	0.000134
1729	1.7194e+02	-11.1639	-62.892519	0.000335	3.345306	1.133420	0.000134
1730	1.7204e+02	-11.1125	-62.710848	0.000456	4.561781	1.545573	0.000183
1731	1.7213e+02	-11.0740	-62.549363	0.000405	4.054917	1.373843	0.000162
1732	1.7223e+02	-11.0307	-62.416137	0.000335	3.345306	1.133420	0.000134
1733	1.7233e+02	-11.0002	-62.246577	0.000426	4.257662	1.442535	0.000170
1734	1.7243e+02	-10.9489	-62.072981	0.000436	4.359035	1.476881	0.000174
1735	1.7253e+02	-10.9120	-61.947829	0.000314	3.142560	1.064728	0.000126
1736	1.7263e+02	-10.8767	-61.810567	0.000345	3.446679	1.167766	0.000138
1737	1.7273e+02	-10.8350	-61.657156	0.000385	3.852171	1.305151	0.000154
1738	1.7283e+02	-10.7965	-61.495670	0.000405	4.054917	1.373843	0.000162
1739	1.7293e+02	-10.7628	-61.342259	0.000385	3.852171	1.305151	0.000154
1740	1.7303e+02	-10.7131	-61.184811	0.000395	3.953544	1.339497	0.000158
1741	1.7313e+02	-10.6778	-61.039474	0.000365	3.649425	1.236459	0.000146
1742	1.7323e+02	-10.6345	-60.882025	0.000395	3.953544	1.339497	0.000158
1743	1.7333e+02	-10.6024	-60.696317	0.000466	4.663154	1.579919	0.000187
1744	1.7343e+02	-10.5575	-60.559055	0.000345	3.446679	1.167766	0.000138
1745	1.7353e+02	-10.5109	-60.373346	0.000466	4.663154	1.579919	0.000187
1746	1.7363e+02	-10.4740	-60.248195	0.000314	3.142560	1.064728	0.000126
1747	1.7373e+02	-10.4259	-60.054413	0.000487	4.865900	1.648612	0.000195
1748	1.7383e+02	-10.3922	-59.945410	0.000274	2.737069	0.927344	0.000110
1749	1.7393e+02	-10.3537	-59.783925	0.000405	4.054917	1.373843	0.000162
1750	1.7403e+02	-10.3264	-59.654736	0.000324	3.243933	1.099074	0.000130
1751	1.7413e+02	-10.2735	-59.485177	0.000426	4.257662	1.442535	0.000170
1752	1.7422e+02	-10.2350	-59.311580	0.000436	4.359035	1.476881	0.000174
1753	1.7432e+02	-10.1917	-59.121834	0.000476	4.764527	1.614265	0.000191
1754	1.7442e+02	-10.1708	-59.008795	0.000284	2.838442	0.961690	0.000114
1755	1.7452e+02	-10.1115	-58.859420	0.000375	3.750798	1.270805	0.000150
1756	1.7462e+02	-10.0778	-58.677749	0.000456	4.561781	1.545573	0.000183
1757	1.7472e+02	-10.0377	-58.556635	0.000304	3.041187	1.030382	0.000122
1758	1.7482e+02	-10.0040	-58.354779	0.000507	5.068646	1.717304	0.000203
1759	1.7492e+02	-9.9623	-58.237702	0.000294	2.939815	0.996036	0.000118
1760	1.7502e+02	-9.9190	-58.043919	0.000487	4.865900	1.648612	0.000195
1761	1.7512e+02	-9.8773	-57.874359	0.000426	4.257662	1.442535	0.000170
1762	1.7522e+02	-9.8323	-57.789580	0.000213	2.128831	0.721268	0.000085
1763	1.7532e+02	-9.7987	-57.615983	0.000436	4.359035	1.476881	0.000174
1764	1.7542e+02	-9.7553	-57.450460	0.000416	4.156290	1.408189	0.000166
1765	1.7552e+02	-9.7104	-57.329346	0.000304	3.041187	1.030382	0.000122
1766	1.7562e+02	-9.6831	-57.107304	0.000558	5.575510	1.889034	0.000223
1767	1.7572e+02	-9.6302	-57.018487	0.000223	2.230204	0.755614	0.000089
1768	1.7582e+02	-9.5949	-56.800481	0.000547	5.474137	1.854688	0.000219
1769	1.7592e+02	-9.5564	-56.663219	0.000345	3.446679	1.167766	0.000138
1770	1.7602e+02	-9.5227	-56.521919	0.000355	3.548052	1.202113	0.000142
1771	1.7612e+02	-9.4826	-56.380619	0.000355	3.548052	1.202113	0.000142
1772	1.7621e+02	-9.4329	-56.170688	0.000527	5.271392	1.785996	0.000211
1773	1.7631e+02	-9.4072	-56.057648	0.000284	2.838442	0.961690	0.000114
1774	1.7641e+02	-9.3607	-55.875977	0.000456	4.561781	1.545573	0.000183
1775	1.7651e+02	-9.3190	-55.730640	0.000365	3.649425	1.236459	0.000146
1776	1.7661e+02	-9.2773	-55.536858	0.000487	4.865900	1.648612	0.000195
1777	1.7671e+02	-9.2388	-55.367298	0.000426	4.257662	1.442535	0.000170
1778	1.7681e+02	-9.2083	-55.254258	0.000284	2.838442	0.961690	0.000114
1779	1.7691e+02	-9.1618	-55.108921	0.000365	3.649425	1.236459	0.000146
1780	1.7701e+02	-9.1120	-54.939362	0.000426	4.257662	1.442535	0.000170
1781	1.7711e+02	-9.0880	-54.745579	0.000487	4.865900	1.648612	0.000195
1782	1.7721e+02	-9.0382	-54.592168	0.000385	3.852171	1.305151	0.000154
1783	1.7731e+02	-9.0014	-54.438757	0.000385	3.852171	1.305151	0.000154
1784	1.7741e+02	-8.9693	-54.285346	0.000385	3.852171	1.305151	0.000154
1785	1.7751e+02	-8.9227	-54.095600	0.000476	4.764527	1.614265	0.000191
1786	1.7761e+02	-8.8874	-53.954301	0.000355	3.548052	1.202113	0.000142
1787	1.7771e+02	-8.8377	-53.760518	0.000487	4.865900	1.648612	0.000195
1788	1.7781e+02	-8.7992	-53.590958	0.000426	4.257662	1.442535	0.000170
1789	1.7791e+02	-8.7623	-53.449659	0.000355	3.548052	1.202113	0.000142
1790	1.7801e+02	-8.7238	-53.296247	0.000385	3.852171	1.305151	0.000154
1791	1.7810e+02	-8.6789	-53.122651	0.000436	4.359035	1.476881	0.000174
1792	1.7820e+02	-8.6420	-52.940980	0.000456	4.561781	1.545573	0.000183
1793	1.7830e+02	-8.6019	-52.755271	0.000466	4.663154	1.579919	0.000187
1794	1.7840e+02	-8.5714	-52.577637	0.000446	4.460408	1.511227	0.000179
1795	1.7850e+02	-8.5249	-52.452486	0.000314	3.142560	1.064728	0.000126
1796	1.7860e+02	-8.4832	-52.299075	0.000385	3.852171	1.305151	0.000154
1797	1.7870e+02	-8.4463	-52.077032	0.000558	5.575510	1.889034	0.000223
1798	1.7880e+02	-8.4014	-51.939770	0.000345	3.446679	1.167766	0.000138
1799	1.7890e+02	-8.3677	-51.766173	0.000436	4.359035	1.476881	0.000174
1800	1.7900e+02	-8.3244	-51.616799	0.000375	3.750798	1.270805	0.000150
1801	1.7910e+02	-8.2794	-51.431091	0.000466	4.663154	1.579919	0.000187
1802	1.7920e+02	-8.2458	-51.261531	0.000426	4.257662	1.442535	0.000170
1803	1.7930e+02	-8.1944	-51.120231	0.000355	3.548052	1.202113	0.000142
1804	1.7940e+02	-8.1720	-50.934523	0.000466	4.663154	1.579919	0.000187
1805	1.7950e+02	-8.1158	-50.748815	0.000466	4.663154	1.579919	0.000187
1806	1.7960e+02	-8.0757	-50.599441	0.000375	3.750798	1.270805	0.000150
1807	1.7970e+02	-8.0468	-50.421807	0.000446	4.460408	1.511227	0.000179
1808	1.7980e+02	-8.0051	-50.236099	0.000466	4.663154	1.579919	0.000187
1809	1.7990e+02	-7.9682	-50.066539	0.000426	4.257662	1.442535	0.000170
1810	1.8000e+02	-7.9233	-49.905053	0.000405	4.054917	1.373843	0.000162
1811	1.8009e+02	-7.8768	-49.711271	0.000487	4.865900	1.648612	0.000195
1812	1.8019e+02	-7.8463	-49.565934	0.000365	3.649425	1.236459	0.000146
1813	1.8029e+02	-7.8110	-49.412523	0.000385	3.852171	1.305151	0.000154
1814	1.8039e+02	-7.7597	-49.247000	0.000416	4.156290	1.408189	0.000166
1815	1.8049e+02	-7.7212	-49.049181	0.000497	4.967273	1.682958	0.000199
1816	1.8059e+02	-7.6955	-48.827138	0.000558	5.575510	1.889034	0.000223
1817	1.8069e+02	-7.6522	-48.681801	0.000365	3.649425	1.236459	0.000146
1818	1.8079e+02	-7.6057	-48.556650	0.000314	3.142560	1.064728	0.000126
1819	1.8089e+02	-7.5640	-48.395165	0.000405	4.054917	1.373843	0.000162
1820	1.8099e+02	-7.5271	-48.193308	0.000507	5.068646	1.717304	0.000203
1821	1.8109e+02	-7.4837	-48.015674	0.000446	4.460408	1.511227	0.000179
1822	1.8119e+02	-7.4501	-47.813817	0.000507	5.068646	1.717304	0.000203
1823	1.8129e+02	-7.4067	-47.676554	0.000345	3.446679	1.167766	0.000138
1824	1.8139e+02	-7.3682	-47.502958	0.000436	4.359035	1.476881	0.000174
1825	1.8149e+02	-7.3281	-47.305138	0.000497	4.967273	1.682958	0.000199
1826	1.8159e+02	-7.2944	-47.123467	0.000456	4.561781	1.545573	0.000183
1827	1.8169e+02	-7.2479	-46.982167	0.000355	3.548052	1.202113	0.000142
1828	1.8179e+02	-7.2030	-46.784348	0.000497	4.967273	1.682958	0.000199
1829	1.8189e+02	-7.1597	-46.622862	0.000405	4.054917	1.373843	0.000162
1830	1.8199e+02	-7.1324	-46.421005	0.000507	5.068646	1.717304	0.000203
1831	1.8209e+02	-7.0891	-46.255483	0.000416	4.156290	1.408189	0.000166
1832	1.8218e+02	-7.0458	-46.102072	0.000385	3.852171	1.305151	0.000154
1833	1.8228e+02	-7.0025	-45.932512	0.000426	4.257662	1.442535	0.000170
1834	1.8238e+02	-6.9656	-45.746804	0.000466	4.663154	1.579919	0.000187
1835	1.8248e+02	-6.9271	-45.565133	0.000456	4.561781	1.545573	0.000183
1836	1.8258e+02	-6.8854	-45.407684	0.000395	3.953544	1.339497	0.000158
1837	1.8268e+02	-6.8469	-45.197753	0.000527	5.271392	1.785996	0.000211
1838	1.8278e+02	-6.8036	-45.048379	0.000375	3.750798	1.270805	0.000150
1839	1.8288e+02	-6.7634	-44.866708	0.000456	4.561781	1.545573	0.000183
1840	1.8298e+02	-6.7249	-44.697148	0.000426	4.257662	1.442535	0.000170
1841	1.8308e+02	-6.6880	-44.511440	0.000466	4.663154	1.579919	0.000187
1842	1.8318e+02	-6.6495	-44.289398	0.000558	5.575510	1.889034	0.000223
1843	1.8328e+02	-6.5982	-44.160209	0.000324	3.243933	1.099074	0.000130
1844	1.8338e+02	-6.5693	-43.958352	0.000507	5.068646	1.717304	0.000203
1845	1.8348e+02	-6.5244	-43.821090	0.000345	3.446679	1.167766	0.000138
1846	1.8358e+02	-6.4875	-43.582899	0.000598	5.981002	2.026418	0.000239
1847	1.8368e+02	-6.4522	-43.377005	0.000517	5.170019	1.751650	0.000207
1848	1.8378e+02	-6.4201	-43.263965	0.000284	2.838442	0.961690	0.000114
1849	1.8388e+02	-6.3800	-43.045960	0.000547	5.474137	1.854688	0.000219
1850	1.8398e+02	-6.3351	-42.868326	0.000446	4.460408	1.511227	0.000179
1851	1.8407e+02	-6.2966	-42.767397	0.000253	2.534323	0.858652	0.000101
1852	1.8417e+02	-6.2533	-42.533244	0.000588	5.879629	1.992072	0.000235
1853	1.8427e+02	-6.2244	-42.343498	0.000476	4.764527	1.614265	0.000191
1854	1.8437e+02	-6.1747	-42.149716	0.000487	4.865900	1.648612	0.000195
1855	1.8447e+02	-6.1458	-41.968045	0.000456	4.561781	1.545573	0.000183
1856	1.8457e+02	-6.1025	-41.794448	0.000436	4.359035	1.476881	0.000174
1857	1.8467e+02	-6.0544	-41.592591	0.000507	5.068646	1.717304	0.000203
1858	1.8477e+02	-6.0159	-41.382660	0.000527	5.271392	1.785996	0.000211
1859	1.8487e+02	-5.9806	-41.217137	0.000416	4.156290	1.408189	0.000166
1860	1.8497e+02	-5.9373	-41.043540	0.000436	4.359035	1.476881	0.000174
1861	1.8507e+02	-5.9020	-40.841684	0.000507	5.068646	1.717304	0.000203
1862	1.8517e+02	-5.8619	-40.704421	0.000345	3.446679	1.167766	0.000138
1863	1.8527e+02	-5.8186	-40.462193	0.000608	6.082375	2.060764	0.000243
1864	1.8537e+02	-5.7752	-40.324930	0.000345	3.446679	1.167766	0.000138
1865	1.8547e+02	-5.7432	-40.155371	0.000426	4.257662	1.442535	0.000170
1866	1.8557e+02	-5.6934	-39.921217	0.000588	5.879629	1.992072	0.000235
1867	1.8567e+02	-5.6581	-39.771843	0.000375	3.750798	1.270805	0.000150
1868	1.8577e+02	-5.6228	-39.541726	0.000578	5.778256	1.957726	0.000231
1869	1.8587e+02	-5.5763	-39.440798	0.000253	2.534323	0.858652	0.000101
1870	1.8597e+02	-5.5346	-39.214718	0.000568	5.676883	1.923380	0.000227
1871	1.8606e+02	-5.5057	-39.081493	0.000335	3.345306	1.133420	0.000134
1872	1.8616e+02	-5.4512	-38.847339	0.000588	5.879629	1.992072	0.000235
1873	1.8626e+02	-5.4175	-38.706039	0.000355	3.548052	1.202113	0.000142
1874	1.8636e+02	-5.3774	-38.508219	0.000497	4.967273	1.682958	0.000199
1875	1.8646e+02	-5.3373	-38.298288	0.000527	5.271392	1.785996	0.000211
1876	1.8656e+02	-5.2956	-38.124691	0.000436	4.359035	1.476881	0.000174
1877	1.8666e+02	-5.2635	-37.955132	0.000426	4.257662	1.442535	0.000170
1878	1.8676e+02	-5.2186	-37.741163	0.000537	5.372764	1.820342	0.000215
1879	1.8686e+02	-5.1913	-37.559492	0.000456	4.561781	1.545573	0.000183
1880	1.8696e+02	-5.1384	-37.398007	0.000405	4.054917	1.373843	0.000162
1881	1.8706e+02	-5.1015	-37.232484	0.000416	4.156290	1.408189	0.000166
1882	1.8716e+02	-5.0581	-36.990256	0.000608	6.082375	2.060764	0.000243
1883	1.8726e+02	-5.0180	-36.852994	0.000345	3.446679	1.167766	0.000138
1884	1.8736e+02	-4.9908	-36.667285	0.000466	4.663154	1.579919	0.000187
1885	1.8746e+02	-4.9426	-36.437169	0.000578	5.778256	1.957726	0.000231
1886	1.8756e+02	-4.9025	-36.316055	0.000304	3.041187	1.030382	0.000122
1887	1.8766e+02	-4.8528	-36.114198	0.000507	5.068646	1.717304	0.000203
1888	1.8776e+02	-4.8159	-35.928490	0.000466	4.663154	1.579919	0.000187
1889	1.8786e+02	-4.7790	-35.742781	0.000466	4.663154	1.579919	0.000187
1890	1.8796e+02	-4.7469	-35.516702	0.000568	5.676883	1.923380	0.000227
1891	1.8806e+02	-4.6956	-35.363290	0.000385	3.852171	1.305151	0.000154
1892	1.8815e+02	-4.6619	-35.181619	0.000456	4.561781	1.545573	0.000183
1893	1.8825e+02	-4.6266	-34.999948	0.000456	4.561781	1.545573	0.000183
1894	1.8835e+02	-4.5849	-34.765794	0.000588	5.879629	1.992072	0.000235
1895	1.8845e+02	-4.5384	-34.628532	0.000345	3.446679	1.167766	0.000138
1896	1.8855e+02	-4.5127	-34.454935	0.000436	4.359035	1.476881	0.000174
1897	1.8865e+02	-4.4517	-34.257115	0.000497	4.967273	1.682958	0.000199
1898	1.8875e+02	-4.4197	-34.026999	0.000578	5.778256	1.957726	0.000231
1899	1.8885e+02	-4.3860	-33.865513	0.000405	4.054917	1.373843	0.000162
1900	1.8895e+02	-4.3394	-33.708065	0.000395	3.953544	1.339497	0.000158
1901	1.8905e+02	-4.3009	-33.510245	0.000497	4.967273	1.682958	0.000199
1902	1.8915e+02	-4.2689	-33.304351	0.000517	5.170019	1.751650	0.000207
1903	1.8925e+02	-4.2288	-33.086346	0.000547	5.474137	1.854688	0.000219
1904	1.8935e+02	-4.1838	-32.932935	0.000385	3.852171	1.305151	0.000154
1905	1.8945e+02	-4.1453	-32.731078	0.000507	5.068646	1.717304	0.000203
1906	1.8955e+02	-4.0972	-32.569593	0.000405	4.054917	1.373843	0.000162
1907	1.8965e+02	-4.0667	-32.355624	0.000537	5.372764	1.820342	0.000215
1908	1.8975e+02	-4.0234	-32.177990	0.000446	4.460408	1.511227	0.000179
1909	1.8985e+02	-3.9817	-31.992282	0.000466	4.663154	1.579919	0.000187
1910	1.8995e+02	-3.9480	-31.814648	0.000446	4.460408	1.511227	0.000179
1911	1.9004e+02	-3.9111	-31.624903	0.000476	4.764527	1.614265	0.000191
1912	1.9014e+02	-3.8630	-31.386712	0.000598	5.981002	2.026418	0.000239
1913	1.9024e+02	-3.8341	-31.257523	0.000324	3.243933	1.099074	0.000130
1914	1.9034e+02	-3.7796	-31.063741	0.000487	4.865900	1.648612	0.000195
1915	1.9044e+02	-3.7459	-30.849773	0.000537	5.372764	1.820342	0.000215
1916	1.9054e+02	-3.7074	-30.660027	0.000476	4.764527	1.614265	0.000191
1917	1.9064e+02	-3.6609	-30.454133	0.000517	5.170019	1.751650	0.000207
1918	1.9074e+02	-3.6256	-30.280537	0.000436	4.359035	1.476881	0.000174
1919	1.9084e+02	-3.5823	-30.082717	0.000497	4.967273	1.682958	0.000199
1920	1.9094e+02	-3.5454	-29.860674	0.000558	5.575510	1.889034	0.000223
1921	1.9104e+02	-3.5101	-29.699189	0.000405	4.054917	1.373843	0.000162
1922	1.9114e+02	-3.4635	-29.497332	0.000507	5.068646	1.717304	0.000203
1923	1.9124e+02	-3.4234	-29.351995	0.000365	3.649425	1.236459	0.000146
1924	1.9134e+02	-3.3801	-29.174361	0.000446	4.460408	1.511227	0.000179
1925	1.9144e+02	-3.3384	-28.928096	0.000618	6.183748	2.095110	0.000248
1926	1.9154e+02	-3.2983	-28.734314	0.000487	4.865900	1.648612	0.000195
1927	1.9164e+02	-3.2694	-28.548605	0.000466	4.663154	1.579919	0.000187
1928	1.9174e+02	-3.2229	-28.375009	0.000436	4.359035	1.476881	0.000174
1929	1.9184e+02	-3.1844	-28.173152	0.000507	5.068646	1.717304	0.000203
1930	1.9194e+02	-3.1491	-28.003592	0.000426	4.257662	1.442535	0.000170
1931	1.9203e+02	-3.1074	-27.829995	0.000436	4.359035	1.476881	0.000174
1932	1.9213e+02	-3.0641	-27.579693	0.000629	6.285121	2.129457	0.000252
1933	1.9223e+02	-3.0368	-27.482802	0.000243	2.432950	0.824306	0.000097
1934	1.9233e+02	-2.9855	-27.244611	0.000598	5.981002	2.026418	0.000239
1935	1.9243e+02	-2.9502	-27.054865	0.000476	4.764527	1.614265	0.000191
1936	1.9253e+02	-2.9037	-26.873194	0.000456	4.561781	1.545573	0.000183
1937	1.9263e+02	-2.8732	-26.630966	0.000608	6.082375	2.060764	0.000243
1938	1.9273e+02	-2.8299	-26.457369	0.000436	4.359035	1.476881	0.000174
1939	1.9283e+02	-2.7946	-26.287809	0.000426	4.257662	1.442535	0.000170
1940	1.9293e+02	-2.7432	-26.114213	0.000436	4.359035	1.476881	0.000174
1941	1.9303e+02	-2.6983	-25.896207	0.000547	5.474137	1.854688	0.000219
1942	1.9313e+02	-2.6646	-25.662053	0.000588	5.879629	1.992072	0.000235
1943	1.9323e+02	-2.6309	-25.492494	0.000426	4.257662	1.442535	0.000170
1944	1.9333e+02	-2.5876	-25.318897	0.000436	4.359035	1.476881	0.000174
1945	1.9343e+02	-2.5459	-25.121077	0.000497	4.967273	1.682958	0.000199
1946	1.9353e+02	-2.5042	-24.939406	0.000456	4.561781	1.545573	0.000183
1947	1.9363e+02	-2.4721	-24.713326	0.000568	5.676883	1.923380	0.000227
1948	1.9373e+02	-2.4240	-24.531655	0.000456	4.561781	1.545573	0.000183
1949	1.9383e+02	-2.3903	-24.362096	0.000426	4.257662	1.442535	0.000170
1950	1.9393e+02	-2.3454	-24.160239	0.000507	5.068646	1.717304	0.000203
1951	1.9403e+02	-2.3133	-23.934159	0.000568	5.676883	1.923380	0.000227
1952	1.9412e+02	-2.2716	-23.760562	0.000436	4.359035	1.476881	0.000174
1953	1.9422e+02	-2.2267	-23.530446	0.000578	5.778256	1.957726	0.000231
1954	1.9432e+02	-2.1898	-23.292255	0.000598	5.981002	2.026418	0.000239
1955	1.9442e+02	-2.1449	-23.138843	0.000385	3.852171	1.305151	0.000154
1956	1.9452e+02	-2.1080	-22.924875	0.000537	5.372764	1.820342	0.000215
1957	1.9462e+02	-2.0727	-22.751278	0.000436	4.359035	1.476881	0.000174
1958	1.9472e+02	-2.0358	-22.529236	0.000558	5.575510	1.889034	0.000223
1959	1.9482e+02	-1.9909	-22.291045	0.000598	5.981002	2.026418	0.000239
1960	1.9492e+02	-1.9491	-22.133597	0.000395	3.953544	1.339497	0.000158
1961	1.9502e+02	-1.8994	-21.955963	0.000446	4.460408	1.511227	0.000179
1962	1.9512e+02	-1.8673	-21.758143	0.000497	4.967273	1.682958	0.000199
1963	1.9522e+02	-1.8240	-21.523989	0.000588	5.879629	1.992072	0.000235
1964	1.9532e+02	-1.7903	-21.310021	0.000537	5.372764	1.820342	0.000215
1965	1.9542e+02	-1.7422	-21.156610	0.000385	3.852171	1.305151	0.000154
1966	1.9552e+02	-1.7101	-20.918419	0.000598	5.981002	2.026418	0.000239
1967	1.9562e+02	-1.6732	-20.748859	0.000426	4.257662	1.442535	0.000170
1968	1.9572e+02	-1.6251	-20.498557	0.000629	6.285121	2.129457	0.000252
1969	1.9582e+02	-1.5914	-20.345146	0.000385	3.852171	1.305151	0.000154
1970	1.9592e+02	-1.5449	-20.119066	0.000568	5.676883	1.923380	0.000227
1971	1.9601e+02	-1.5080	-19.913172	0.000517	5.170019	1.751650	0.000207
1972	1.9611e+02	-1.4711	-19.739575	0.000436	4.359035	1.476881	0.000174
1973	1.9621e+02	-1.4230	-19.521570	0.000547	5.474137	1.854688	0.000219
1974	1.9631e+02	-1.3941	-19.327787	0.000487	4.865900	1.648612	0.000195
1975	1.9641e+02	-1.3524	-19.150153	0.000446	4.460408	1.511227	0.000179
1976	1.9651e+02	-1.3058	-18.916000	0.000588	5.879629	1.992072	0.000235
1977	1.9661e+02	-1.2689	-18.730291	0.000466	4.663154	1.579919	0.000187
1978	1.9671e+02	-1.2272	-18.504212	0.000568	5.676883	1.923380	0.000227
1979	1.9681e+02	-1.1952	-18.326578	0.000446	4.460408	1.511227	0.000179
1980	1.9691e+02	-1.1390	-18.072238	0.000639	6.386494	2.163803	0.000256
1981	1.9701e+02	-1.1133	-17.894604	0.000446	4.460408	1.511227	0.000179
1982	1.9711e+02	-1.0845	-17.700822	0.000487	4.865900	1.648612	0.000195
1983	1.9721e+02	-1.0267	-17.482816	0.000547	5.474137	1.854688	0.000219
1984	1.9731e+02	-0.9962	-17.305182	0.000446	4.460408	1.511227	0.000179
1985	1.9741e+02	-0.9465	-17.071028	0.000588	5.879629	1.992072	0.000235
1986	1.9751e+02	-0.9192	-16.853023	0.000547	5.474137	1.854688	0.000219
1987	1.9761e+02	-0.8743	-16.655203	0.000497	4.967273	1.682958	0.000199
1988	1.9771e+02	-0.8310	-16.485644	0.000426	4.257662	1.442535	0.000170
1989	1.9781e+02	-0.7925	-16.239379	0.000618	6.183748	2.095110	0.000248
1990	1.9791e+02	-0.7444	-16.029447	0.000527	5.271392	1.785996	0.000211
1991	1.9800e+02	-0.7219	-15.855851	0.000436	4.359035	1.476881	0.000174
1992	1.9810e+02	-0.6722	-15.658031	0.000497	4.967273	1.682958	0.000199
1993	1.9820e+02	-0.6401	-15.395617	0.000659	6.589239	2.232495	0.000264
1994	1.9830e+02	-0.5936	-15.189723	0.000517	5.170019	1.751650	0.000207
1995	1.9840e+02	-0.5583	-14.991904	0.000497	4.967273	1.682958	0.000199
1996	1.9850e+02	-0.5246	-14.794084	0.000497	4.967273	1.682958	0.000199
1997	1.9860e+02	-0.4700	-14.620487	0.000436	4.359035	1.476881	0.000174
1998	1.9870e+02	-0.4347	-14.386333	0.000588	5.879629	1.992072	0.000235
1999	1.9880e+02	-0.3930	-14.196588	0.000476	4.764527	1.614265	0.000191
2000	1.9890e+02	-0.3593	-13.994731	0.000507	5.068646	1.717304	0.000203
2001	1.9900e+02	-0.3225	-13.768651	0.000568	5.676883	1.923380	0.000227
2002	1.9910e+02	-0.2823	-13.546609	0.000558	5.575510	1.889034	0.000223
2003	1.9920e+02	-0.2358	-13.360901	0.000466	4.663154	1.579919	0.000187
2004	1.9930e+02	-0.1909	-13.163081	0.000497	4.967273	1.682958	0.000199
2005	1.9940e+02	-0.1700	-12.953150	0.000527	5.271392	1.785996	0.000211
2006	1.9950e+02	-0.1203	-12.755330	0.000497	4.967273	1.682958	0.000199
2007	1.9960e+02	-0.0786	-12.505028	0.000629	6.285121	2.129457	0.000252
2008	1.9970e+02	-0.0465	-12.351617	0.000385	3.852171	1.305151	0.000154
2009	1.9980e+02	-0.0032	-12.109389	0.000385	3.852171	1.305151	0.000243

PMax (uC/cm2):	9.82e+01
Pr (uC/cm2):	7.14e+00
-Pr (uC/cm2):	-4.65e+00
PLoss (uC/cm2):	-4.70e+00
-Vc:	-1.39e+00
C (Max-Eff) (nF):	4.91e-01
K (Eff):	1.67e+03
Vert. (+/-Pr) Shift (uC/cm2):	1.24e+00
Offset (uC/cm2):	7.46e+00

A (Loop Area - uC/cm2·Volts):	2.33e-04



Hysteresis Version: 5.48.1 - Radiant Technologies, Inc., 1999 - 9/12/24

