»»»»»»»»»»»»»»»»»»»»»»»»»»»»»»»»»»»» Hysteresis ««««««««««««««««««««««««««««««««««««
»»»  Executed Version:	5.48.1
»»»  Vision Version:	5.48.4 (R)
»»»  Vision Compiled:	9/18/24
»»»  Driver Version:	5.47.0
»»»  Windows Version:	Windows 8 or 8.1
»»»  Processor Information:	x86 (AMD or Intel) - 32 Processors
»»»  Tester Name:	PMF21124-494 (100V)
»»»  Tester S/N:	PMF21124-494
»»»  Internal Amp Type:	100V RevK 270k
»»»  Internal Amp S/N:	iAB2-596/K     
»»»  Execution Count:	1
»»»»»»»»»»»»»»»»»»»»»»»»»»»»»»»»»»»»»»»»»»««««««««««««««««««««««««««««««««««««««««««

Stored:	6/18/2025 - 12:5:10
Configured:	06/18/25 09:47:30 AM
Executed:	06/18/25 12:04:37 PM

»»»»»»»»»»»»»»»»»»»»»»»»»»»»»»»»»»» Sample Info ««««««««««««««««««««««««««««««««««««
Sample Name:	
Lot Name:	
Wafer Name:	
Die Row/Column:	0/0
Capacitor Number:	0
Sample Area (cm2):	1.00e-04
Sample Thickness (microns):	3.00e-01

Amplifier:	Internal

»»»»»»»»»»»»»»»»»»»»»»»»»»»»»»»»»»» Tester Info «««««««««««««««««««««««««««««««««««
Tester Name:	PMF21124-494 (100V)
Tester Serial Number:	PMF21124-494
Return Signal Amp. Level:	0.19 [Index: 3]

»»»»»»»»»»»»»»»»»»»»»»»»»»»»»»»» Hysteresis Info ««««««««««««««««««««««««««««««««««
Task Name:	Hyst-554
Volts:	20.00
Field:	666.67 (kV/cm)
DCBias:	0.00
DCField:	0.00 (kV/cm)
Hysteresis Period (ms):	2.00e+02
Preset:	Enabled
Preset Delay (ms):	1.00e+03
Profile:	Standard Bipolar

»»»»»»»»»»»»»»»»»»»»»»»»»»»»»»»»»»»»»» Data «««««««««««««««««««««««««««««««««««««««
Points:	2009

Valid Data

Point	Time (ms)	Drive Voltage	Measured Polarization (uC/cm2)	Capacitance (uF)	Normalized Capacitance (uF/cm2)	Dielectric Constant	Instantaneous Current (mA)
   1	0.0000e+00	-0.0048	3.752518	0.000415	4.154123	1.407455	0.000166
   2	9.9500e-02	0.0385	3.918040	0.000415	4.154123	1.407455	0.000166
   3	1.9900e-01	0.0706	4.075489	0.000395	3.951483	1.338799	0.000158
   4	2.9850e-01	0.1027	4.261197	0.000466	4.660723	1.579096	0.000187
   5	3.9800e-01	0.1556	4.479202	0.000547	5.471284	1.853721	0.000219
   6	4.9750e-01	0.1893	4.644725	0.000415	4.154123	1.407455	0.000166
   7	5.9700e-01	0.2278	4.874841	0.000578	5.775244	1.956706	0.000231
   8	6.9650e-01	0.2807	5.004030	0.000324	3.242242	1.098501	0.000130
   9	7.9600e-01	0.3096	5.201849	0.000496	4.964683	1.682080	0.000199
  10	8.9550e-01	0.3561	5.383521	0.000456	4.559403	1.544768	0.000183
  11	9.9500e-01	0.3946	5.585377	0.000507	5.066003	1.716408	0.000203
  12	1.0945e+00	0.4203	5.742826	0.000395	3.951483	1.338799	0.000158
  13	1.1940e+00	0.4652	5.932571	0.000476	4.762043	1.613424	0.000191
  14	1.2935e+00	0.5101	6.102131	0.000426	4.255443	1.441783	0.000170
  15	1.3930e+00	0.5503	6.320136	0.000547	5.471284	1.853721	0.000219
  16	1.4925e+00	0.5936	6.481621	0.000405	4.052803	1.373127	0.000162
  17	1.5920e+00	0.6240	6.659255	0.000446	4.458083	1.510439	0.000179
  18	1.6915e+00	0.6642	6.873224	0.000537	5.369964	1.819393	0.000215
  19	1.7910e+00	0.7091	7.026635	0.000385	3.850163	1.304470	0.000154
  20	1.8905e+00	0.7492	7.224454	0.000496	4.964683	1.682080	0.000199
  21	1.9900e+00	0.7813	7.482831	0.000648	6.484484	2.197003	0.000260
  22	2.0895e+00	0.8262	7.640279	0.000395	3.951483	1.338799	0.000158
  23	2.1890e+00	0.8759	7.789653	0.000375	3.748843	1.270142	0.000150
  24	2.2885e+00	0.9176	7.971325	0.000456	4.559403	1.544768	0.000183
  25	2.3880e+00	0.9337	8.169144	0.000496	4.964683	1.682080	0.000199
  26	2.4875e+00	0.9930	8.371001	0.000507	5.066003	1.716408	0.000203
  27	2.5870e+00	1.0347	8.544598	0.000436	4.356763	1.476111	0.000174
  28	2.6865e+00	1.0636	8.770677	0.000567	5.673924	1.922377	0.000227
  29	2.7860e+00	1.1085	8.883717	0.000284	2.836962	0.961189	0.000114
  30	2.8855e+00	1.1406	9.105760	0.000557	5.572604	1.888049	0.000223
  31	2.9850e+00	1.1855	9.283394	0.000446	4.458083	1.510439	0.000179
  32	3.0845e+00	1.2224	9.505436	0.000557	5.572604	1.888049	0.000223
  33	3.1840e+00	1.2738	9.699219	0.000486	4.863363	1.647752	0.000195
  34	3.2835e+00	1.3091	9.864741	0.000415	4.154123	1.407455	0.000166
  35	3.3830e+00	1.3443	10.038338	0.000436	4.356763	1.476111	0.000174
  36	3.4825e+00	1.3812	10.236158	0.000496	4.964683	1.682080	0.000199
  37	3.5820e+00	1.4246	10.405717	0.000426	4.255443	1.441783	0.000170
  38	3.6815e+00	1.4631	10.607574	0.000507	5.066003	1.716408	0.000203
  39	3.7810e+00	1.5112	10.849802	0.000608	6.079204	2.059690	0.000243
  40	3.8805e+00	1.5497	11.035511	0.000466	4.660723	1.579096	0.000187
  41	3.9800e+00	1.5834	11.225256	0.000476	4.762043	1.613424	0.000191
  42	4.0795e+00	1.6203	11.431150	0.000517	5.167323	1.750737	0.000207
  43	4.1790e+00	1.6588	11.633007	0.000507	5.066003	1.716408	0.000203
  44	4.2785e+00	1.7069	11.794492	0.000405	4.052803	1.373127	0.000162
  45	4.3780e+00	1.7486	12.028646	0.000588	5.876564	1.991034	0.000235
  46	4.4775e+00	1.7791	12.202243	0.000436	4.356763	1.476111	0.000174
  47	4.5770e+00	1.8208	12.363728	0.000405	4.052803	1.373127	0.000162
  48	4.6765e+00	1.8593	12.533288	0.000426	4.255443	1.441783	0.000170
  49	4.7760e+00	1.9042	12.731108	0.000496	4.964683	1.682080	0.000199
  50	4.8755e+00	1.9475	12.920853	0.000476	4.762043	1.613424	0.000191
  51	4.9750e+00	1.9892	13.082338	0.000405	4.052803	1.373127	0.000162
  52	5.0745e+00	2.0245	13.300344	0.000547	5.471284	1.853721	0.000219
  53	5.1740e+00	2.0727	13.502200	0.000507	5.066003	1.716408	0.000203
  54	5.2735e+00	2.0967	13.687909	0.000466	4.660723	1.579096	0.000187
  55	5.3730e+00	2.1417	13.922063	0.000588	5.876564	1.991034	0.000235
  56	5.4725e+00	2.1802	14.119882	0.000496	4.964683	1.682080	0.000199
  57	5.5720e+00	2.2363	14.345962	0.000567	5.673924	1.922377	0.000227
  58	5.6715e+00	2.2684	14.499373	0.000385	3.850163	1.304470	0.000154
  59	5.7710e+00	2.3021	14.672970	0.000436	4.356763	1.476111	0.000174
  60	5.8705e+00	2.3438	14.927309	0.000638	6.383164	2.162675	0.000256
  61	5.9700e+00	2.3743	15.064572	0.000344	3.444882	1.167158	0.000138
  62	6.0695e+00	2.4192	15.294689	0.000578	5.775244	1.956706	0.000231
  63	6.1690e+00	2.4609	15.492508	0.000496	4.964683	1.682080	0.000199
  64	6.2685e+00	2.5042	15.702439	0.000527	5.268644	1.785065	0.000211
  65	6.3680e+00	2.5475	15.876036	0.000436	4.356763	1.476111	0.000174
  66	6.4675e+00	2.5748	16.049633	0.000436	4.356763	1.476111	0.000174
  67	6.5670e+00	2.6229	16.251490	0.000507	5.066003	1.716408	0.000203
  68	6.6665e+00	2.6582	16.429124	0.000446	4.458083	1.510439	0.000179
  69	6.7660e+00	2.7063	16.635018	0.000517	5.167323	1.750737	0.000207
  70	6.8655e+00	2.7481	16.840912	0.000517	5.167323	1.750737	0.000207
  71	6.9650e+00	2.7849	17.058917	0.000547	5.471284	1.853721	0.000219
  72	7.0645e+00	2.8299	17.244625	0.000466	4.660723	1.579096	0.000187
  73	7.1640e+00	2.8571	17.458593	0.000537	5.369964	1.819393	0.000215
  74	7.2635e+00	2.9069	17.656413	0.000496	4.964683	1.682080	0.000199
  75	7.3630e+00	2.9390	17.870381	0.000537	5.369964	1.819393	0.000215
  76	7.4625e+00	2.9823	18.031867	0.000405	4.052803	1.373127	0.000162
  77	7.5620e+00	3.0192	18.245835	0.000537	5.369964	1.819393	0.000215
  78	7.6615e+00	3.0721	18.423469	0.000446	4.458083	1.510439	0.000179
  79	7.7610e+00	3.1058	18.641474	0.000547	5.471284	1.853721	0.000219
  80	7.8605e+00	3.1347	18.835257	0.000486	4.863363	1.647752	0.000195
  81	7.9600e+00	3.1812	19.041151	0.000517	5.167323	1.750737	0.000207
  82	8.0595e+00	3.2213	19.198599	0.000395	3.951483	1.338799	0.000158
  83	8.1590e+00	3.2662	19.408530	0.000527	5.268644	1.785065	0.000211
  84	8.2585e+00	3.3015	19.614424	0.000517	5.167323	1.750737	0.000207
  85	8.3580e+00	3.3352	19.788021	0.000436	4.356763	1.476111	0.000174
  86	8.4575e+00	3.3801	19.993915	0.000517	5.167323	1.750737	0.000207
  87	8.5570e+00	3.4266	20.155400	0.000405	4.052803	1.373127	0.000162
  88	8.6565e+00	3.4700	20.425888	0.000679	6.788445	2.299987	0.000272
  89	8.7560e+00	3.4988	20.583337	0.000395	3.951483	1.338799	0.000158
  90	8.8555e+00	3.5405	20.789230	0.000517	5.167323	1.750737	0.000207
  91	8.9550e+00	3.5694	20.966864	0.000446	4.458083	1.510439	0.000179
  92	9.0545e+00	3.6224	21.201018	0.000588	5.876564	1.991034	0.000235
  93	9.1540e+00	3.6560	21.435172	0.000588	5.876564	1.991034	0.000235
  94	9.2535e+00	3.6929	21.588583	0.000385	3.850163	1.304470	0.000154
  95	9.3530e+00	3.7379	21.810626	0.000557	5.572604	1.888049	0.000223
  96	9.4525e+00	3.7780	21.976148	0.000415	4.154123	1.407455	0.000166
  97	9.5520e+00	3.8165	22.161857	0.000466	4.660723	1.579096	0.000187
  98	9.6515e+00	3.8582	22.367751	0.000517	5.167323	1.750737	0.000207
  99	9.7510e+00	3.8967	22.593830	0.000567	5.673924	1.922377	0.000227
 100	9.8505e+00	3.9288	22.731093	0.000344	3.444882	1.167158	0.000138
 101	9.9500e+00	3.9753	22.965247	0.000588	5.876564	1.991034	0.000235
 102	1.0050e+01	4.0170	23.179215	0.000537	5.369964	1.819393	0.000215
 103	1.0149e+01	4.0459	23.377034	0.000496	4.964683	1.682080	0.000199
 104	1.0248e+01	4.0988	23.558706	0.000456	4.559403	1.544768	0.000183
 105	1.0348e+01	4.1566	23.760562	0.000507	5.066003	1.716408	0.000203
 106	1.0447e+01	4.1790	23.934159	0.000436	4.356763	1.476111	0.000174
 107	1.0547e+01	4.2255	24.168313	0.000588	5.876564	1.991034	0.000235
 108	1.0646e+01	4.2512	24.382281	0.000537	5.369964	1.819393	0.000215
 109	1.0746e+01	4.2993	24.563952	0.000456	4.559403	1.544768	0.000183
 110	1.0845e+01	4.3282	24.806181	0.000608	6.079204	2.059690	0.000243
 111	1.0945e+01	4.3780	24.983815	0.000446	4.458083	1.510439	0.000179
 112	1.1044e+01	4.4213	25.181634	0.000496	4.964683	1.682080	0.000199
 113	1.1144e+01	4.4598	25.395602	0.000537	5.369964	1.819393	0.000215
 114	1.1243e+01	4.4854	25.597459	0.000507	5.066003	1.716408	0.000203
 115	1.1343e+01	4.5336	25.771056	0.000436	4.356763	1.476111	0.000174
 116	1.1443e+01	4.5753	25.989061	0.000547	5.471284	1.853721	0.000219
 117	1.1542e+01	4.6154	26.194955	0.000517	5.167323	1.750737	0.000207
 118	1.1642e+01	4.6459	26.388738	0.000486	4.863363	1.647752	0.000195
 119	1.1741e+01	4.6892	26.586557	0.000496	4.964683	1.682080	0.000199
 120	1.1841e+01	4.7325	26.764191	0.000446	4.458083	1.510439	0.000179
 121	1.1940e+01	4.7662	26.941825	0.000446	4.458083	1.510439	0.000179
 122	1.2040e+01	4.8143	27.175979	0.000588	5.876564	1.991034	0.000235
 123	1.2139e+01	4.8544	27.393985	0.000547	5.471284	1.853721	0.000219
 124	1.2239e+01	4.8913	27.611990	0.000547	5.471284	1.853721	0.000219
 125	1.2338e+01	4.9314	27.761364	0.000375	3.748843	1.270142	0.000150
 126	1.2438e+01	4.9763	27.999555	0.000598	5.977884	2.025362	0.000239
 127	1.2537e+01	5.0132	28.221597	0.000557	5.572604	1.888049	0.000223
 128	1.2636e+01	5.0469	28.451714	0.000578	5.775244	1.956706	0.000231
 129	1.2736e+01	5.0822	28.560717	0.000274	2.735642	0.926861	0.000110
 130	1.2835e+01	5.1351	28.819093	0.000648	6.484484	2.197003	0.000260
 131	1.2935e+01	5.1737	28.976542	0.000395	3.951483	1.338799	0.000158
 132	1.3034e+01	5.2138	29.182436	0.000517	5.167323	1.750737	0.000207
 133	1.3134e+01	5.2619	29.412552	0.000578	5.775244	1.956706	0.000231
 134	1.3233e+01	5.3004	29.618446	0.000517	5.167323	1.750737	0.000207
 135	1.3333e+01	5.3341	29.800117	0.000456	4.559403	1.544768	0.000183
 136	1.3432e+01	5.3806	29.993900	0.000486	4.863363	1.647752	0.000195
 137	1.3532e+01	5.4191	30.207868	0.000537	5.369964	1.819393	0.000215
 138	1.3632e+01	5.4576	30.397614	0.000476	4.762043	1.613424	0.000191
 139	1.3731e+01	5.4881	30.664064	0.000669	6.687124	2.265659	0.000268
 140	1.3831e+01	5.5346	30.857847	0.000486	4.863363	1.647752	0.000195
 141	1.3930e+01	5.5779	31.051630	0.000486	4.863363	1.647752	0.000195
 142	1.4030e+01	5.6036	31.225226	0.000436	4.356763	1.476111	0.000174
 143	1.4129e+01	5.6581	31.431120	0.000517	5.167323	1.750737	0.000207
 144	1.4229e+01	5.6902	31.637014	0.000517	5.167323	1.750737	0.000207
 145	1.4328e+01	5.7287	31.842908	0.000517	5.167323	1.750737	0.000207
 146	1.4428e+01	5.7656	32.060913	0.000547	5.471284	1.853721	0.000219
 147	1.4527e+01	5.8073	32.222399	0.000405	4.052803	1.373127	0.000162
 148	1.4627e+01	5.8538	32.444441	0.000557	5.572604	1.888049	0.000223
 149	1.4726e+01	5.8843	32.646298	0.000507	5.066003	1.716408	0.000203
 150	1.4825e+01	5.9292	32.811821	0.000415	4.154123	1.407455	0.000166
 151	1.4925e+01	5.9774	33.025789	0.000537	5.369964	1.819393	0.000215
 152	1.5024e+01	6.0062	33.231683	0.000517	5.167323	1.750737	0.000207
 153	1.5124e+01	6.0544	33.461800	0.000578	5.775244	1.956706	0.000231
 154	1.5223e+01	6.0865	33.643471	0.000456	4.559403	1.544768	0.000183
 155	1.5323e+01	6.1378	33.881662	0.000598	5.977884	2.025362	0.000239
 156	1.5422e+01	6.1699	34.119853	0.000598	5.977884	2.025362	0.000239
 157	1.5522e+01	6.2132	34.257115	0.000344	3.444882	1.167158	0.000138
 158	1.5621e+01	6.2469	34.471083	0.000537	5.369964	1.819393	0.000215
 159	1.5721e+01	6.2998	34.681015	0.000527	5.268644	1.785065	0.000211
 160	1.5820e+01	6.3271	34.882871	0.000507	5.066003	1.716408	0.000203
 161	1.5920e+01	6.3688	35.096840	0.000537	5.369964	1.819393	0.000215
 162	1.6020e+01	6.4089	35.262362	0.000415	4.154123	1.407455	0.000166
 163	1.6119e+01	6.4394	35.488442	0.000567	5.673924	1.922377	0.000227
 164	1.6218e+01	6.4923	35.653964	0.000415	4.154123	1.407455	0.000166
 165	1.6318e+01	6.5260	35.839673	0.000466	4.660723	1.579096	0.000187
 166	1.6418e+01	6.5661	36.069789	0.000578	5.775244	1.956706	0.000231
 167	1.6517e+01	6.6030	36.259535	0.000476	4.762043	1.613424	0.000191
 168	1.6616e+01	6.6399	36.517911	0.000648	6.484484	2.197003	0.000260
 169	1.6716e+01	6.6800	36.707657	0.000476	4.762043	1.613424	0.000191
 170	1.6816e+01	6.7185	36.937773	0.000578	5.775244	1.956706	0.000231
 171	1.6915e+01	6.7667	37.131556	0.000486	4.863363	1.647752	0.000195
 172	1.7015e+01	6.8036	37.337450	0.000517	5.167323	1.750737	0.000207
 173	1.7114e+01	6.8324	37.498935	0.000405	4.052803	1.373127	0.000162
 174	1.7213e+01	6.8806	37.741163	0.000608	6.079204	2.059690	0.000243
 175	1.7313e+01	6.9239	37.930909	0.000476	4.762043	1.613424	0.000191
 176	1.7413e+01	6.9688	38.108543	0.000446	4.458083	1.510439	0.000179
 177	1.7512e+01	7.0057	38.318474	0.000527	5.268644	1.785065	0.000211
 178	1.7611e+01	7.0394	38.516294	0.000496	4.964683	1.682080	0.000199
 179	1.7711e+01	7.0843	38.746410	0.000578	5.775244	1.956706	0.000231
 180	1.7811e+01	7.1164	38.964416	0.000547	5.471284	1.853721	0.000219
 181	1.7910e+01	7.1661	39.170309	0.000517	5.167323	1.750737	0.000207
 182	1.8009e+01	7.2062	39.388315	0.000547	5.471284	1.853721	0.000219
 183	1.8109e+01	7.2367	39.606320	0.000547	5.471284	1.853721	0.000219
 184	1.8209e+01	7.2784	39.771843	0.000415	4.154123	1.407455	0.000166
 185	1.8308e+01	7.3329	40.014071	0.000608	6.079204	2.059690	0.000243
 186	1.8407e+01	7.3538	40.163445	0.000375	3.748843	1.270142	0.000150
 187	1.8507e+01	7.4100	40.365302	0.000507	5.066003	1.716408	0.000203
 188	1.8607e+01	7.4356	40.607530	0.000608	6.079204	2.059690	0.000243
 189	1.8706e+01	7.4821	40.809387	0.000507	5.066003	1.716408	0.000203
 190	1.8805e+01	7.5255	40.987021	0.000446	4.458083	1.510439	0.000179
 191	1.8905e+01	7.5591	41.209063	0.000557	5.572604	1.888049	0.000223
 192	1.9005e+01	7.5976	41.394771	0.000466	4.660723	1.579096	0.000187
 193	1.9104e+01	7.6538	41.576442	0.000456	4.559403	1.544768	0.000183
 194	1.9203e+01	7.6859	41.838856	0.000659	6.585804	2.231331	0.000264
 195	1.9303e+01	7.7260	42.056862	0.000547	5.471284	1.853721	0.000219
 196	1.9402e+01	7.7565	42.242570	0.000466	4.660723	1.579096	0.000187
 197	1.9502e+01	7.8110	42.444427	0.000507	5.066003	1.716408	0.000203
 198	1.9602e+01	7.8351	42.638209	0.000486	4.863363	1.647752	0.000195
 199	1.9701e+01	7.8752	42.836029	0.000496	4.964683	1.682080	0.000199
 200	1.9800e+01	7.9153	43.049997	0.000537	5.369964	1.819393	0.000215
 201	1.9900e+01	7.9554	43.247817	0.000496	4.964683	1.682080	0.000199
 202	2.0000e+01	8.0019	43.429488	0.000456	4.559403	1.544768	0.000183
 203	2.0099e+01	8.0436	43.627307	0.000496	4.964683	1.682080	0.000199
 204	2.0198e+01	8.0821	43.841276	0.000537	5.369964	1.819393	0.000215
 205	2.0298e+01	8.1094	43.998724	0.000395	3.951483	1.338799	0.000158
 206	2.0398e+01	8.1591	44.236915	0.000598	5.977884	2.025362	0.000239
 207	2.0497e+01	8.2024	44.446846	0.000527	5.268644	1.785065	0.000211
 208	2.0596e+01	8.2361	44.681000	0.000588	5.876564	1.991034	0.000235
 209	2.0696e+01	8.2827	44.903042	0.000557	5.572604	1.888049	0.000223
 210	2.0796e+01	8.3244	45.076639	0.000436	4.356763	1.476111	0.000174
 211	2.0895e+01	8.3629	45.270422	0.000486	4.863363	1.647752	0.000195
 212	2.0994e+01	8.3966	45.492464	0.000557	5.572604	1.888049	0.000223
 213	2.1094e+01	8.4431	45.674135	0.000456	4.559403	1.544768	0.000183
 214	2.1194e+01	8.4896	45.871955	0.000496	4.964683	1.682080	0.000199
 215	2.1293e+01	8.5169	46.081886	0.000527	5.268644	1.785065	0.000211
 216	2.1392e+01	8.5586	46.287780	0.000517	5.167323	1.750737	0.000207
 217	2.1492e+01	8.6003	46.489637	0.000507	5.066003	1.716408	0.000203
 218	2.1591e+01	8.6292	46.703605	0.000537	5.369964	1.819393	0.000215
 219	2.1691e+01	8.6837	46.877202	0.000436	4.356763	1.476111	0.000174
 220	2.1791e+01	8.7222	47.099244	0.000557	5.572604	1.888049	0.000223
 221	2.1890e+01	8.7543	47.309175	0.000527	5.268644	1.785065	0.000211
 222	2.1989e+01	8.8056	47.490846	0.000456	4.559403	1.544768	0.000183
 223	2.2089e+01	8.8425	47.729037	0.000598	5.977884	2.025362	0.000239
 224	2.2189e+01	8.8794	47.926857	0.000496	4.964683	1.682080	0.000199
 225	2.2288e+01	8.9131	48.169085	0.000608	6.079204	2.059690	0.000243
 226	2.2387e+01	8.9596	48.318459	0.000375	3.748843	1.270142	0.000150
 227	2.2487e+01	8.9885	48.508204	0.000476	4.762043	1.613424	0.000191
 228	2.2587e+01	9.0270	48.706024	0.000496	4.964683	1.682080	0.000199
 229	2.2686e+01	9.0767	48.948252	0.000608	6.079204	2.059690	0.000243
 230	2.2785e+01	9.1169	49.125886	0.000446	4.458083	1.510439	0.000179
 231	2.2885e+01	9.1473	49.343892	0.000547	5.471284	1.853721	0.000219
 232	2.2985e+01	9.2035	49.509414	0.000415	4.154123	1.407455	0.000166
 233	2.3084e+01	9.2388	49.703197	0.000486	4.863363	1.647752	0.000195
 234	2.3183e+01	9.2853	49.937351	0.000588	5.876564	1.991034	0.000235
 235	2.3283e+01	9.3110	50.135170	0.000496	4.964683	1.682080	0.000199
 236	2.3383e+01	9.3543	50.361250	0.000567	5.673924	1.922377	0.000227
 237	2.3482e+01	9.3976	50.587329	0.000567	5.673924	1.922377	0.000227
 238	2.3581e+01	9.4393	50.769000	0.000456	4.559403	1.544768	0.000183
 239	2.3681e+01	9.4842	50.958746	0.000476	4.762043	1.613424	0.000191
 240	2.3780e+01	9.5115	51.188863	0.000578	5.775244	1.956706	0.000231
 241	2.3880e+01	9.5644	51.374571	0.000466	4.660723	1.579096	0.000187
 242	2.3980e+01	9.6094	51.552205	0.000446	4.458083	1.510439	0.000179
 243	2.4079e+01	9.6398	51.802507	0.000628	6.281844	2.128346	0.000252
 244	2.4178e+01	9.6751	51.976104	0.000436	4.356763	1.476111	0.000174
 245	2.4278e+01	9.7152	52.186035	0.000527	5.268644	1.785065	0.000211
 246	2.4378e+01	9.7634	52.371743	0.000466	4.660723	1.579096	0.000187
 247	2.4477e+01	9.7987	52.513043	0.000355	3.546202	1.201486	0.000142
 248	2.4576e+01	9.8323	52.755271	0.000608	6.079204	2.059690	0.000243
 249	2.4676e+01	9.8724	52.953091	0.000496	4.964683	1.682080	0.000199
 250	2.4776e+01	9.9061	53.154948	0.000507	5.066003	1.716408	0.000203
 251	2.4875e+01	9.9511	53.389102	0.000588	5.876564	1.991034	0.000235
 252	2.4974e+01	9.9912	53.578847	0.000476	4.762043	1.613424	0.000191
 253	2.5074e+01	10.0329	53.748407	0.000426	4.255443	1.441783	0.000170
 254	2.5174e+01	10.0714	53.917966	0.000426	4.255443	1.441783	0.000170
 255	2.5273e+01	10.1099	54.135972	0.000547	5.471284	1.853721	0.000219
 256	2.5372e+01	10.1452	54.378200	0.000608	6.079204	2.059690	0.000243
 257	2.5472e+01	10.1917	54.539685	0.000405	4.052803	1.373127	0.000162
 258	2.5572e+01	10.2350	54.729431	0.000476	4.762043	1.613424	0.000191
 259	2.5671e+01	10.2687	54.959547	0.000578	5.775244	1.956706	0.000231
 260	2.5770e+01	10.3184	55.177553	0.000547	5.471284	1.853721	0.000219
 261	2.5870e+01	10.3537	55.359224	0.000456	4.559403	1.544768	0.000183
 262	2.5970e+01	10.3874	55.532821	0.000436	4.356763	1.476111	0.000174
 263	2.6069e+01	10.4259	55.714492	0.000456	4.559403	1.544768	0.000183
 264	2.6169e+01	10.4837	55.924423	0.000527	5.268644	1.785065	0.000211
 265	2.6268e+01	10.5093	56.202985	0.000699	6.991085	2.368644	0.000280
 266	2.6367e+01	10.5510	56.348322	0.000365	3.647522	1.235814	0.000146
 267	2.6467e+01	10.5944	56.485585	0.000344	3.444882	1.167158	0.000138
 268	2.6567e+01	10.6313	56.715701	0.000578	5.775244	1.956706	0.000231
 269	2.6666e+01	10.6746	56.929670	0.000537	5.369964	1.819393	0.000215
 270	2.6765e+01	10.7163	57.127489	0.000496	4.964683	1.682080	0.000199
 271	2.6865e+01	10.7516	57.313198	0.000466	4.660723	1.579096	0.000187
 272	2.6965e+01	10.7949	57.478720	0.000415	4.154123	1.407455	0.000166
 273	2.7064e+01	10.8350	57.704800	0.000567	5.673924	1.922377	0.000227
 274	2.7163e+01	10.8639	57.906656	0.000507	5.066003	1.716408	0.000203
 275	2.7263e+01	10.9072	58.112550	0.000517	5.167323	1.750737	0.000207
 276	2.7363e+01	10.9473	58.290184	0.000446	4.458083	1.510439	0.000179
 277	2.7462e+01	10.9938	58.496078	0.000517	5.167323	1.750737	0.000207
 278	2.7561e+01	11.0275	58.693898	0.000496	4.964683	1.682080	0.000199
 279	2.7661e+01	11.0676	58.899792	0.000517	5.167323	1.750737	0.000207
 280	2.7761e+01	11.1045	59.125871	0.000567	5.673924	1.922377	0.000227
 281	2.7860e+01	11.1510	59.275245	0.000375	3.748843	1.270142	0.000150
 282	2.7959e+01	11.1991	59.481139	0.000517	5.167323	1.750737	0.000207
 283	2.8059e+01	11.2232	59.691070	0.000527	5.268644	1.785065	0.000211
 284	2.8159e+01	11.2794	59.888890	0.000496	4.964683	1.682080	0.000199
 285	2.8258e+01	11.3211	60.102858	0.000537	5.369964	1.819393	0.000215
 286	2.8358e+01	11.3564	60.300678	0.000496	4.964683	1.682080	0.000199
 287	2.8457e+01	11.3868	60.530795	0.000578	5.775244	1.956706	0.000231
 288	2.8556e+01	11.4286	60.684206	0.000385	3.850163	1.304470	0.000154
 289	2.8656e+01	11.4622	60.898174	0.000537	5.369964	1.819393	0.000215
 290	2.8756e+01	11.5152	61.075808	0.000446	4.458083	1.510439	0.000179
 291	2.8855e+01	11.5489	61.261516	0.000466	4.660723	1.579096	0.000187
 292	2.8954e+01	11.5954	61.467410	0.000517	5.167323	1.750737	0.000207
 293	2.9054e+01	11.6307	61.641007	0.000436	4.356763	1.476111	0.000174
 294	2.9154e+01	11.6644	61.846901	0.000517	5.167323	1.750737	0.000207
 295	2.9253e+01	11.7013	62.072981	0.000567	5.673924	1.922377	0.000227
 296	2.9352e+01	11.7510	62.250615	0.000446	4.458083	1.510439	0.000179
 297	2.9452e+01	11.7847	62.488806	0.000598	5.977884	2.025362	0.000239
 298	2.9552e+01	11.8248	62.662402	0.000436	4.356763	1.476111	0.000174
 299	2.9651e+01	11.8649	62.864259	0.000507	5.066003	1.716408	0.000203
 300	2.9750e+01	11.9082	63.045930	0.000456	4.559403	1.544768	0.000183
 301	2.9850e+01	11.9451	63.243750	0.000496	4.964683	1.682080	0.000199
 302	2.9950e+01	11.9740	63.461755	0.000547	5.471284	1.853721	0.000219
 303	3.0049e+01	12.0253	63.679761	0.000547	5.471284	1.853721	0.000219
 304	3.0148e+01	12.0670	63.825097	0.000365	3.647522	1.235814	0.000146
 305	3.0248e+01	12.1055	64.030991	0.000517	5.167323	1.750737	0.000207
 306	3.0348e+01	12.1521	64.212662	0.000456	4.559403	1.544768	0.000183
 307	3.0447e+01	12.1841	64.406445	0.000486	4.863363	1.647752	0.000195
 308	3.0547e+01	12.2162	64.584079	0.000446	4.458083	1.510439	0.000179
 309	3.0646e+01	12.2676	64.794010	0.000527	5.268644	1.785065	0.000211
 310	3.0745e+01	12.3045	64.959533	0.000415	4.154123	1.407455	0.000166
 311	3.0845e+01	12.3478	65.177538	0.000547	5.471284	1.853721	0.000219
 312	3.0945e+01	12.3863	65.363246	0.000466	4.660723	1.579096	0.000187
 313	3.1044e+01	12.4232	65.585289	0.000557	5.572604	1.888049	0.000223
 314	3.1143e+01	12.4665	65.791183	0.000517	5.167323	1.750737	0.000207
 315	3.1243e+01	12.5034	66.009188	0.000547	5.471284	1.853721	0.000219
 316	3.1343e+01	12.5451	66.202970	0.000486	4.863363	1.647752	0.000195
 317	3.1442e+01	12.5836	66.408864	0.000517	5.167323	1.750737	0.000207
 318	3.1541e+01	12.6237	66.546127	0.000344	3.444882	1.167158	0.000138
 319	3.1641e+01	12.6670	66.739909	0.000486	4.863363	1.647752	0.000195
 320	3.1741e+01	12.7007	66.982138	0.000608	6.079204	2.059690	0.000243
 321	3.1840e+01	12.7360	67.115363	0.000334	3.343562	1.132830	0.000134
 322	3.1939e+01	12.7841	67.284923	0.000426	4.255443	1.441783	0.000170
 323	3.2039e+01	12.8178	67.470631	0.000466	4.660723	1.579096	0.000187
 324	3.2139e+01	12.8611	67.729008	0.000648	6.484484	2.197003	0.000260
 325	3.2238e+01	12.9028	67.906642	0.000446	4.458083	1.510439	0.000179
 326	3.2337e+01	12.9462	68.136758	0.000578	5.775244	1.956706	0.000231
 327	3.2437e+01	12.9750	68.257872	0.000304	3.039602	1.029845	0.000122
 328	3.2536e+01	13.0248	68.528361	0.000679	6.788445	2.299987	0.000272
 329	3.2636e+01	13.0585	68.653512	0.000314	3.140922	1.064173	0.000126
 330	3.2736e+01	13.0954	68.907851	0.000638	6.383164	2.162675	0.000256
 331	3.2835e+01	13.1306	69.117782	0.000527	5.268644	1.785065	0.000211
 332	3.2934e+01	13.1820	69.327713	0.000527	5.268644	1.785065	0.000211
 333	3.3034e+01	13.2141	69.493236	0.000415	4.154123	1.407455	0.000166
 334	3.3133e+01	13.2670	69.703167	0.000527	5.268644	1.785065	0.000211
 335	3.3233e+01	13.2927	69.852541	0.000375	3.748843	1.270142	0.000150
 336	3.3333e+01	13.3376	70.034212	0.000456	4.559403	1.544768	0.000183
 337	3.3432e+01	13.3841	70.223958	0.000476	4.762043	1.613424	0.000191
 338	3.3532e+01	13.4290	70.454074	0.000578	5.775244	1.956706	0.000231
 339	3.3631e+01	13.4563	70.651894	0.000496	4.964683	1.682080	0.000199
 340	3.3730e+01	13.4948	70.833565	0.000456	4.559403	1.544768	0.000183
 341	3.3830e+01	13.5461	71.031385	0.000496	4.964683	1.682080	0.000199
 342	3.3929e+01	13.5830	71.204982	0.000436	4.356763	1.476111	0.000174
 343	3.4029e+01	13.6135	71.406838	0.000507	5.066003	1.716408	0.000203
 344	3.4129e+01	13.6584	71.632918	0.000567	5.673924	1.922377	0.000227
 345	3.4228e+01	13.7001	71.830738	0.000496	4.964683	1.682080	0.000199
 346	3.4328e+01	13.7354	72.012409	0.000456	4.559403	1.544768	0.000183
 347	3.4427e+01	13.7772	72.270785	0.000648	6.484484	2.197003	0.000260
 348	3.4526e+01	13.8012	72.472642	0.000507	5.066003	1.716408	0.000203
 349	3.4626e+01	13.8574	72.634128	0.000405	4.052803	1.373127	0.000162
 350	3.4725e+01	13.8959	72.856170	0.000557	5.572604	1.888049	0.000223
 351	3.4825e+01	13.9247	73.013618	0.000395	3.951483	1.338799	0.000158
 352	3.4925e+01	13.9841	73.187215	0.000436	4.356763	1.476111	0.000174
 353	3.5024e+01	14.0210	73.380998	0.000486	4.863363	1.647752	0.000195
 354	3.5123e+01	14.0547	73.603040	0.000557	5.572604	1.888049	0.000223
 355	3.5223e+01	14.0948	73.764526	0.000405	4.052803	1.373127	0.000162
 356	3.5322e+01	14.1461	73.958308	0.000486	4.863363	1.647752	0.000195
 357	3.5422e+01	14.1734	74.192462	0.000588	5.876564	1.991034	0.000235
 358	3.5522e+01	14.2103	74.366059	0.000436	4.356763	1.476111	0.000174
 359	3.5621e+01	14.2488	74.551767	0.000466	4.660723	1.579096	0.000187
 360	3.5721e+01	14.2921	74.757661	0.000517	5.167323	1.750737	0.000207
 361	3.5820e+01	14.3354	74.902998	0.000365	3.647522	1.235814	0.000146
 362	3.5919e+01	14.3836	75.133115	0.000578	5.775244	1.956706	0.000231
 363	3.6019e+01	14.4156	75.363231	0.000578	5.775244	1.956706	0.000231
 364	3.6118e+01	14.4525	75.520680	0.000395	3.951483	1.338799	0.000158
 365	3.6218e+01	14.4942	75.702351	0.000456	4.559403	1.544768	0.000183
 366	3.6318e+01	14.5311	75.952653	0.000628	6.281844	2.128346	0.000252
 367	3.6417e+01	14.5745	76.110102	0.000395	3.951483	1.338799	0.000158
 368	3.6517e+01	14.6114	76.356367	0.000618	6.180524	2.094018	0.000248
 369	3.6616e+01	14.6482	76.562261	0.000517	5.167323	1.750737	0.000207
 370	3.6715e+01	14.6948	76.679338	0.000294	2.938282	0.995517	0.000118
 371	3.6815e+01	14.7365	76.913492	0.000588	5.876564	1.991034	0.000235
 372	3.6914e+01	14.7718	77.074977	0.000405	4.052803	1.373127	0.000162
 373	3.7014e+01	14.8167	77.276834	0.000507	5.066003	1.716408	0.000203
 374	3.7114e+01	14.8536	77.426208	0.000375	3.748843	1.270142	0.000150
 375	3.7213e+01	14.8937	77.636139	0.000527	5.268644	1.785065	0.000211
 376	3.7313e+01	14.9290	77.846070	0.000527	5.268644	1.785065	0.000211
 377	3.7412e+01	14.9691	78.027741	0.000456	4.559403	1.544768	0.000183
 378	3.7511e+01	15.0140	78.253821	0.000567	5.673924	1.922377	0.000227
 379	3.7611e+01	15.0509	78.431455	0.000446	4.458083	1.510439	0.000179
 380	3.7711e+01	15.0942	78.649460	0.000547	5.471284	1.853721	0.000219
 381	3.7810e+01	15.1375	78.839205	0.000476	4.762043	1.613424	0.000191
 382	3.7910e+01	15.1632	79.000691	0.000405	4.052803	1.373127	0.000162
 383	3.8009e+01	15.2210	79.255030	0.000638	6.383164	2.162675	0.000256
 384	3.8108e+01	15.2498	79.396330	0.000355	3.546202	1.201486	0.000142
 385	3.8208e+01	15.2883	79.565890	0.000426	4.255443	1.441783	0.000170
 386	3.8307e+01	15.3317	79.763709	0.000496	4.964683	1.682080	0.000199
 387	3.8407e+01	15.3750	79.945380	0.000456	4.559403	1.544768	0.000183
 388	3.8507e+01	15.4022	80.143200	0.000496	4.964683	1.682080	0.000199
 389	3.8606e+01	15.4520	80.341020	0.000496	4.964683	1.682080	0.000199
 390	3.8706e+01	15.4953	80.530765	0.000476	4.762043	1.613424	0.000191
 391	3.8805e+01	15.5290	80.708399	0.000446	4.458083	1.510439	0.000179
 392	3.8904e+01	15.5611	80.910256	0.000507	5.066003	1.716408	0.000203
 393	3.9004e+01	15.6012	81.124224	0.000537	5.369964	1.819393	0.000215
 394	3.9103e+01	15.6461	81.281672	0.000395	3.951483	1.338799	0.000158
 395	3.9203e+01	15.6894	81.523901	0.000608	6.079204	2.059690	0.000243
 396	3.9303e+01	15.7343	81.717683	0.000486	4.863363	1.647752	0.000195
 397	3.9402e+01	15.7664	81.939726	0.000557	5.572604	1.888049	0.000223
 398	3.9502e+01	15.8145	82.133508	0.000486	4.863363	1.647752	0.000195
 399	3.9601e+01	15.8546	82.327291	0.000486	4.863363	1.647752	0.000195
 400	3.9700e+01	15.8819	82.484739	0.000395	3.951483	1.338799	0.000158
 401	3.9800e+01	15.9252	82.638150	0.000385	3.850163	1.304470	0.000154
 402	3.9900e+01	15.9685	82.835970	0.000496	4.964683	1.682080	0.000199
 403	3.9999e+01	16.0183	82.981307	0.000365	3.647522	1.235814	0.000146
 404	4.0099e+01	16.0455	83.211423	0.000578	5.775244	1.956706	0.000231
 405	4.0198e+01	16.0921	83.405206	0.000486	4.863363	1.647752	0.000195
 406	4.0297e+01	16.1338	83.611100	0.000517	5.167323	1.750737	0.000207
 407	4.0397e+01	16.1642	83.784697	0.000436	4.356763	1.476111	0.000174
 408	4.0496e+01	16.2060	84.018850	0.000588	5.876564	1.991034	0.000235
 409	4.0596e+01	16.2493	84.176299	0.000395	3.951483	1.338799	0.000158
 410	4.0696e+01	16.2782	84.366044	0.000476	4.762043	1.613424	0.000191
 411	4.0795e+01	16.3279	84.563864	0.000496	4.964683	1.682080	0.000199
 412	4.0895e+01	16.3696	84.773795	0.000527	5.268644	1.785065	0.000211
 413	4.0994e+01	16.4033	84.935280	0.000405	4.052803	1.373127	0.000162
 414	4.1093e+01	16.4450	85.153286	0.000547	5.471284	1.853721	0.000219
 415	4.1193e+01	16.4851	85.330920	0.000446	4.458083	1.510439	0.000179
 416	4.1292e+01	16.5300	85.500479	0.000426	4.255443	1.441783	0.000170
 417	4.1392e+01	16.5621	85.694262	0.000486	4.863363	1.647752	0.000195
 418	4.1492e+01	16.6038	85.904193	0.000527	5.268644	1.785065	0.000211
 419	4.1591e+01	16.6471	86.097975	0.000486	4.863363	1.647752	0.000195
 420	4.1691e+01	16.6872	86.271572	0.000436	4.356763	1.476111	0.000174
 421	4.1790e+01	16.7225	86.477466	0.000517	5.167323	1.750737	0.000207
 422	4.1889e+01	16.7739	86.626840	0.000375	3.748843	1.270142	0.000150
 423	4.1989e+01	16.8075	86.828697	0.000507	5.066003	1.716408	0.000203
 424	4.2089e+01	16.8493	87.018442	0.000476	4.762043	1.613424	0.000191
 425	4.2188e+01	16.8910	87.179928	0.000405	4.052803	1.373127	0.000162
 426	4.2288e+01	16.9327	87.389859	0.000527	5.268644	1.785065	0.000211
 427	4.2387e+01	16.9648	87.523084	0.000334	3.343562	1.132830	0.000134
 428	4.2486e+01	17.0081	87.737052	0.000537	5.369964	1.819393	0.000215
 429	4.2586e+01	17.0466	87.922761	0.000466	4.660723	1.579096	0.000187
 430	4.2685e+01	17.0883	88.104432	0.000456	4.559403	1.544768	0.000183
 431	4.2785e+01	17.1204	88.306289	0.000507	5.066003	1.716408	0.000203
 432	4.2885e+01	17.1669	88.524294	0.000547	5.471284	1.853721	0.000219
 433	4.2984e+01	17.2166	88.681742	0.000395	3.951483	1.338799	0.000158
 434	4.3084e+01	17.2535	88.855339	0.000436	4.356763	1.476111	0.000174
 435	4.3183e+01	17.2776	89.109679	0.000638	6.383164	2.162675	0.000256
 436	4.3282e+01	17.3209	89.267127	0.000395	3.951483	1.338799	0.000158
 437	4.3382e+01	17.3610	89.460909	0.000486	4.863363	1.647752	0.000195
 438	4.3481e+01	17.3963	89.630469	0.000426	4.255443	1.441783	0.000170
 439	4.3581e+01	17.4476	89.824252	0.000486	4.863363	1.647752	0.000195
 440	4.3681e+01	17.4829	89.989774	0.000415	4.154123	1.407455	0.000166
 441	4.3780e+01	17.5230	90.167408	0.000446	4.458083	1.510439	0.000179
 442	4.3880e+01	17.5647	90.316782	0.000375	3.748843	1.270142	0.000150
 443	4.3979e+01	17.5952	90.534787	0.000547	5.471284	1.853721	0.000219
 444	4.4078e+01	17.6337	90.659939	0.000314	3.140922	1.064173	0.000126
 445	4.4178e+01	17.6754	90.910241	0.000628	6.281844	2.128346	0.000252
 446	4.4278e+01	17.7268	91.051541	0.000355	3.546202	1.201486	0.000142
 447	4.4377e+01	17.7653	91.281658	0.000578	5.775244	1.956706	0.000231
 448	4.4477e+01	17.7925	91.511774	0.000578	5.775244	1.956706	0.000231
 449	4.4576e+01	17.8455	91.681334	0.000426	4.255443	1.441783	0.000170
 450	4.4675e+01	17.8824	91.858968	0.000446	4.458083	1.510439	0.000179
 451	4.4775e+01	17.9193	92.068899	0.000527	5.268644	1.785065	0.000211
 452	4.4874e+01	17.9610	92.242496	0.000436	4.356763	1.476111	0.000174
 453	4.4974e+01	18.0107	92.440316	0.000496	4.964683	1.682080	0.000199
 454	4.5074e+01	18.0444	92.577578	0.000344	3.444882	1.167158	0.000138
 455	4.5173e+01	18.0829	92.783472	0.000517	5.167323	1.750737	0.000207
 456	4.5273e+01	18.1166	92.908623	0.000314	3.140922	1.064173	0.000126
 457	4.5372e+01	18.1535	93.098369	0.000476	4.762043	1.613424	0.000191
 458	4.5471e+01	18.2016	93.316374	0.000547	5.471284	1.853721	0.000219
 459	4.5571e+01	18.2401	93.510157	0.000486	4.863363	1.647752	0.000195
 460	4.5670e+01	18.2722	93.695865	0.000466	4.660723	1.579096	0.000187
 461	4.5770e+01	18.3268	93.861387	0.000415	4.154123	1.407455	0.000166
 462	4.5870e+01	18.3572	94.055170	0.000486	4.863363	1.647752	0.000195
 463	4.5969e+01	18.3877	94.244915	0.000476	4.762043	1.613424	0.000191
 464	4.6069e+01	18.4374	94.462921	0.000547	5.471284	1.853721	0.000219
 465	4.6168e+01	18.4824	94.648629	0.000466	4.660723	1.579096	0.000187
 466	4.6267e+01	18.5145	94.854523	0.000517	5.167323	1.750737	0.000207
 467	4.6367e+01	18.5578	95.016008	0.000405	4.052803	1.373127	0.000162
 468	4.6467e+01	18.5995	95.221902	0.000517	5.167323	1.750737	0.000207
 469	4.6566e+01	18.6444	95.383388	0.000405	4.052803	1.373127	0.000162
 470	4.6666e+01	18.6765	95.540836	0.000395	3.951483	1.338799	0.000158
 471	4.6765e+01	18.7150	95.710396	0.000426	4.255443	1.441783	0.000170
 472	4.6864e+01	18.7631	95.888029	0.000446	4.458083	1.510439	0.000179
 473	4.6964e+01	18.7888	96.049515	0.000405	4.052803	1.373127	0.000162
 474	4.7063e+01	18.8401	96.271557	0.000557	5.572604	1.888049	0.000223
 475	4.7163e+01	18.8834	96.473414	0.000507	5.066003	1.716408	0.000203
 476	4.7263e+01	18.9155	96.638937	0.000415	4.154123	1.407455	0.000166
 477	4.7362e+01	18.9572	96.820608	0.000456	4.559403	1.544768	0.000183
 478	4.7462e+01	18.9989	97.022465	0.000507	5.066003	1.716408	0.000203
 479	4.7561e+01	19.0278	97.196061	0.000436	4.356763	1.476111	0.000174
 480	4.7660e+01	19.0759	97.397918	0.000507	5.066003	1.716408	0.000203
 481	4.7760e+01	19.1144	97.595738	0.000496	4.964683	1.682080	0.000199
 482	4.7859e+01	19.1561	97.805669	0.000527	5.268644	1.785065	0.000211
 483	4.7959e+01	19.1898	97.967154	0.000405	4.052803	1.373127	0.000162
 484	4.8059e+01	19.2428	98.148825	0.000456	4.559403	1.544768	0.000183
 485	4.8158e+01	19.2797	98.306274	0.000395	3.951483	1.338799	0.000158
 486	4.8258e+01	19.3134	98.439499	0.000334	3.343562	1.132830	0.000134
 487	4.8357e+01	19.3503	98.661542	0.000557	5.572604	1.888049	0.000223
 488	4.8456e+01	19.3920	98.827064	0.000415	4.154123	1.407455	0.000166
 489	4.8556e+01	19.4305	99.004698	0.000446	4.458083	1.510439	0.000179
 490	4.8656e+01	19.4738	99.145998	0.000355	3.546202	1.201486	0.000142
 491	4.8755e+01	19.5139	99.372078	0.000567	5.673924	1.922377	0.000227
 492	4.8855e+01	19.5572	99.553749	0.000456	4.559403	1.544768	0.000183
 493	4.8954e+01	19.5925	99.727346	0.000436	4.356763	1.476111	0.000174
 494	4.9053e+01	19.6262	99.929202	0.000507	5.066003	1.716408	0.000203
 495	4.9153e+01	19.6743	100.106836	0.000446	4.458083	1.510439	0.000179
 496	4.9252e+01	19.7128	100.296582	0.000476	4.762043	1.613424	0.000191
 497	4.9352e+01	19.7577	100.514587	0.000547	5.471284	1.853721	0.000219
 498	4.9452e+01	19.7962	100.732592	0.000547	5.471284	1.853721	0.000219
 499	4.9551e+01	19.8299	100.881966	0.000375	3.748843	1.270142	0.000150
 500	4.9651e+01	19.8813	101.075749	0.000486	4.863363	1.647752	0.000195
 501	4.9750e+01	19.9214	101.273569	0.000496	4.964683	1.682080	0.000199
 502	4.9849e+01	19.9518	101.418905	0.000365	3.647522	1.235814	0.000146
 503	4.9949e+01	20.0000	101.576354	0.000395	3.951483	1.338799	0.000158
 504	5.0048e+01	19.9567	101.439091	0.000344	3.444882	1.167158	-0.000138
 505	5.0148e+01	19.9069	101.338163	0.000253	2.533002	0.858204	-0.000101
 506	5.0248e+01	19.8700	101.160529	0.000446	4.458083	1.510439	-0.000179
 507	5.0347e+01	19.8395	101.051526	0.000274	2.735642	0.926861	-0.000110
 508	5.0447e+01	19.7946	100.910226	0.000355	3.546202	1.201486	-0.000142
 509	5.0546e+01	19.7513	100.777001	0.000334	3.343562	1.132830	-0.000134
 510	5.0645e+01	19.7128	100.615515	0.000405	4.052803	1.373127	-0.000162
 511	5.0745e+01	19.6711	100.458067	0.000395	3.951483	1.338799	-0.000158
 512	5.0844e+01	19.6374	100.328879	0.000324	3.242242	1.098501	-0.000130
 513	5.0944e+01	19.5909	100.219876	0.000274	2.735642	0.926861	-0.000110
 514	5.1044e+01	19.5524	100.086651	0.000334	3.343562	1.132830	-0.000134
 515	5.1143e+01	19.5091	99.981685	0.000263	2.634322	0.892532	-0.000105
 516	5.1242e+01	19.4802	99.828274	0.000385	3.850163	1.304470	-0.000154
 517	5.1342e+01	19.4337	99.654677	0.000436	4.356763	1.476111	-0.000174
 518	5.1441e+01	19.3936	99.485117	0.000426	4.255443	1.441783	-0.000170
 519	5.1541e+01	19.3519	99.295372	0.000476	4.762043	1.613424	-0.000191
 520	5.1641e+01	19.3230	99.145998	0.000375	3.748843	1.270142	-0.000150
 521	5.1740e+01	19.2781	99.032958	0.000284	2.836962	0.961189	-0.000114
 522	5.1840e+01	19.2299	98.859361	0.000436	4.356763	1.476111	-0.000174
 523	5.1939e+01	19.1914	98.693839	0.000415	4.154123	1.407455	-0.000166
 524	5.2038e+01	19.1577	98.552539	0.000355	3.546202	1.201486	-0.000142
 525	5.2138e+01	19.1241	98.395091	0.000395	3.951483	1.338799	-0.000158
 526	5.2237e+01	19.0791	98.265902	0.000324	3.242242	1.098501	-0.000130
 527	5.2337e+01	19.0390	98.148825	0.000294	2.938282	0.995517	-0.000118
 528	5.2437e+01	18.9925	97.987340	0.000405	4.052803	1.373127	-0.000162
 529	5.2536e+01	18.9508	97.821818	0.000415	4.154123	1.407455	-0.000166
 530	5.2636e+01	18.9251	97.704741	0.000294	2.938282	0.995517	-0.000118
 531	5.2735e+01	18.8802	97.531144	0.000436	4.356763	1.476111	-0.000174
 532	5.2834e+01	18.8353	97.313138	0.000547	5.471284	1.853721	-0.000219
 533	5.2934e+01	18.8016	97.187987	0.000314	3.140922	1.064173	-0.000126
 534	5.3033e+01	18.7567	97.034576	0.000385	3.850163	1.304470	-0.000154
 535	5.3133e+01	18.7230	96.869053	0.000415	4.154123	1.407455	-0.000166
 536	5.3233e+01	18.6829	96.695457	0.000436	4.356763	1.476111	-0.000174
 537	5.3332e+01	18.6412	96.525897	0.000426	4.255443	1.441783	-0.000170
 538	5.3431e+01	18.5947	96.360374	0.000415	4.154123	1.407455	-0.000166
 539	5.3531e+01	18.5546	96.206963	0.000385	3.850163	1.304470	-0.000154
 540	5.3630e+01	18.5225	96.065663	0.000355	3.546202	1.201486	-0.000142
 541	5.3730e+01	18.4824	95.883992	0.000456	4.559403	1.544768	-0.000183
 542	5.3830e+01	18.4407	95.787101	0.000243	2.431682	0.823876	-0.000097
 543	5.3929e+01	18.4054	95.653876	0.000334	3.343562	1.132830	-0.000134
 544	5.4029e+01	18.3556	95.468167	0.000466	4.660723	1.579096	-0.000187
 545	5.4128e+01	18.3155	95.298608	0.000426	4.255443	1.441783	-0.000170
 546	5.4227e+01	18.2818	95.185568	0.000284	2.836962	0.961189	-0.000114
 547	5.4327e+01	18.2337	94.983711	0.000507	5.066003	1.716408	-0.000203
 548	5.4426e+01	18.2016	94.826263	0.000395	3.951483	1.338799	-0.000158
 549	5.4526e+01	18.1727	94.644592	0.000456	4.559403	1.544768	-0.000183
 550	5.4626e+01	18.1134	94.503292	0.000355	3.546202	1.201486	-0.000142
 551	5.4725e+01	18.0829	94.289324	0.000537	5.369964	1.819393	-0.000215
 552	5.4825e+01	18.0444	94.131875	0.000395	3.951483	1.338799	-0.000158
 553	5.4924e+01	17.9931	93.950204	0.000456	4.559403	1.544768	-0.000183
 554	5.5023e+01	17.9578	93.788719	0.000405	4.052803	1.373127	-0.000162
 555	5.5123e+01	17.9113	93.623196	0.000415	4.154123	1.407455	-0.000166
 556	5.5222e+01	17.8808	93.506119	0.000294	2.938282	0.995517	-0.000118
 557	5.5322e+01	17.8455	93.336560	0.000426	4.255443	1.441783	-0.000170
 558	5.5422e+01	17.7990	93.154889	0.000456	4.559403	1.544768	-0.000183
 559	5.5521e+01	17.7685	93.053960	0.000253	2.533002	0.858204	-0.000101
 560	5.5620e+01	17.7284	92.880363	0.000436	4.356763	1.476111	-0.000174
 561	5.5720e+01	17.6738	92.739064	0.000355	3.546202	1.201486	-0.000142
 562	5.5819e+01	17.6434	92.537207	0.000507	5.066003	1.716408	-0.000203
 563	5.5919e+01	17.6016	92.408018	0.000324	3.242242	1.098501	-0.000130
 564	5.6019e+01	17.5599	92.246533	0.000405	4.052803	1.373127	-0.000162
 565	5.6118e+01	17.5182	92.097159	0.000375	3.748843	1.270142	-0.000150
 566	5.6218e+01	17.4813	91.903377	0.000486	4.863363	1.647752	-0.000195
 567	5.6317e+01	17.4508	91.697483	0.000517	5.167323	1.750737	-0.000207
 568	5.6416e+01	17.4027	91.544071	0.000385	3.850163	1.304470	-0.000154
 569	5.6516e+01	17.3546	91.370475	0.000436	4.356763	1.476111	-0.000174
 570	5.6615e+01	17.3241	91.188803	0.000456	4.559403	1.544768	-0.000183
 571	5.6715e+01	17.2824	91.027318	0.000405	4.052803	1.373127	-0.000162
 572	5.6815e+01	17.2519	90.853721	0.000436	4.356763	1.476111	-0.000174
 573	5.6914e+01	17.2070	90.680124	0.000436	4.356763	1.476111	-0.000174
 574	5.7014e+01	17.1653	90.595345	0.000213	2.127721	0.720892	-0.000085
 575	5.7113e+01	17.1252	90.433859	0.000405	4.052803	1.373127	-0.000162
 576	5.7212e+01	17.0883	90.296596	0.000344	3.444882	1.167158	-0.000138
 577	5.7312e+01	17.0498	90.123000	0.000436	4.356763	1.476111	-0.000174
 578	5.7411e+01	16.9985	89.953440	0.000426	4.255443	1.441783	-0.000170
 579	5.7511e+01	16.9632	89.800029	0.000385	3.850163	1.304470	-0.000154
 580	5.7611e+01	16.9295	89.634506	0.000415	4.154123	1.407455	-0.000166
 581	5.7710e+01	16.8829	89.444761	0.000476	4.762043	1.613424	-0.000191
 582	5.7809e+01	16.8460	89.287313	0.000395	3.951483	1.338799	-0.000158
 583	5.7909e+01	16.7963	89.101604	0.000466	4.660723	1.579096	-0.000187
 584	5.8008e+01	16.7690	88.895710	0.000517	5.167323	1.750737	-0.000207
 585	5.8108e+01	16.7241	88.701928	0.000486	4.863363	1.647752	-0.000195
 586	5.8208e+01	16.6840	88.536405	0.000415	4.154123	1.407455	-0.000166
 587	5.8307e+01	16.6487	88.374920	0.000405	4.052803	1.373127	-0.000162
 588	5.8407e+01	16.6038	88.177100	0.000496	4.964683	1.682080	-0.000199
 589	5.8506e+01	16.5685	88.051949	0.000314	3.140922	1.064173	-0.000126
 590	5.8605e+01	16.5172	87.890464	0.000405	4.052803	1.373127	-0.000162
 591	5.8705e+01	16.4787	87.692644	0.000496	4.964683	1.682080	-0.000199
 592	5.8804e+01	16.4514	87.551344	0.000355	3.546202	1.201486	-0.000142
 593	5.8904e+01	16.4001	87.393896	0.000395	3.951483	1.338799	-0.000158
 594	5.9004e+01	16.3616	87.244522	0.000375	3.748843	1.270142	-0.000150
 595	5.9103e+01	16.3215	87.095148	0.000375	3.748843	1.270142	-0.000150
 596	5.9203e+01	16.2878	86.860994	0.000588	5.876564	1.991034	-0.000235
 597	5.9302e+01	16.2461	86.731806	0.000324	3.242242	1.098501	-0.000130
 598	5.9401e+01	16.2108	86.550135	0.000456	4.559403	1.544768	-0.000183
 599	5.9501e+01	16.1610	86.368463	0.000456	4.559403	1.544768	-0.000183
 600	5.9600e+01	16.1225	86.182755	0.000466	4.660723	1.579096	-0.000187
 601	5.9700e+01	16.0937	86.029344	0.000385	3.850163	1.304470	-0.000154
 602	5.9800e+01	16.0391	85.807302	0.000557	5.572604	1.888049	-0.000223
 603	5.9899e+01	15.9974	85.621593	0.000466	4.660723	1.579096	-0.000187
 604	5.9998e+01	15.9701	85.452034	0.000426	4.255443	1.441783	-0.000170
 605	6.0098e+01	15.9300	85.318808	0.000334	3.343562	1.132830	-0.000134
 606	6.0197e+01	15.8851	85.129063	0.000476	4.762043	1.613424	-0.000191
 607	6.0297e+01	15.8482	85.028134	0.000253	2.533002	0.858204	-0.000101
 608	6.0397e+01	15.8049	84.862612	0.000415	4.154123	1.407455	-0.000166
 609	6.0496e+01	15.7728	84.689015	0.000436	4.356763	1.476111	-0.000174
 610	6.0596e+01	15.7279	84.479084	0.000527	5.268644	1.785065	-0.000211
 611	6.0695e+01	15.6862	84.301450	0.000446	4.458083	1.510439	-0.000179
 612	6.0794e+01	15.6477	84.139964	0.000405	4.052803	1.373127	-0.000162
 613	6.0894e+01	15.6092	83.986553	0.000385	3.850163	1.304470	-0.000154
 614	6.0993e+01	15.5627	83.812956	0.000436	4.356763	1.476111	-0.000174
 615	6.1093e+01	15.5306	83.663582	0.000375	3.748843	1.270142	-0.000150
 616	6.1193e+01	15.4905	83.449614	0.000537	5.369964	1.819393	-0.000215
 617	6.1292e+01	15.4488	83.227572	0.000557	5.572604	1.888049	-0.000223
 618	6.1392e+01	15.4135	83.086272	0.000355	3.546202	1.201486	-0.000142
 619	6.1491e+01	15.3702	82.904601	0.000456	4.559403	1.544768	-0.000183
 620	6.1590e+01	15.3300	82.743116	0.000405	4.052803	1.373127	-0.000162
 621	6.1690e+01	15.2883	82.553370	0.000476	4.762043	1.613424	-0.000191
 622	6.1789e+01	15.2530	82.403996	0.000375	3.748843	1.270142	-0.000150
 623	6.1889e+01	15.2097	82.242511	0.000405	4.052803	1.373127	-0.000162
 624	6.1989e+01	15.1680	82.089100	0.000385	3.850163	1.304470	-0.000154
 625	6.2088e+01	15.1327	81.875131	0.000537	5.369964	1.819393	-0.000215
 626	6.2188e+01	15.0910	81.673275	0.000507	5.066003	1.716408	-0.000203
 627	6.2287e+01	15.0461	81.487566	0.000466	4.660723	1.579096	-0.000187
 628	6.2386e+01	15.0108	81.338192	0.000375	3.748843	1.270142	-0.000150
 629	6.2486e+01	14.9723	81.188818	0.000375	3.748843	1.270142	-0.000150
 630	6.2586e+01	14.9370	80.995036	0.000486	4.863363	1.647752	-0.000195
 631	6.2685e+01	14.8873	80.869885	0.000314	3.140922	1.064173	-0.000126
 632	6.2785e+01	14.8600	80.688213	0.000456	4.559403	1.544768	-0.000183
 633	6.2884e+01	14.8135	80.494431	0.000486	4.863363	1.647752	-0.000195
 634	6.2983e+01	14.7782	80.268351	0.000567	5.673924	1.922377	-0.000227
 635	6.3083e+01	14.7349	80.102829	0.000415	4.154123	1.407455	-0.000166
 636	6.3182e+01	14.6996	79.941343	0.000405	4.052803	1.373127	-0.000162
 637	6.3282e+01	14.6515	79.804081	0.000344	3.444882	1.167158	-0.000138
 638	6.3382e+01	14.6097	79.598187	0.000517	5.167323	1.750737	-0.000207
 639	6.3481e+01	14.5696	79.416516	0.000456	4.559403	1.544768	-0.000183
 640	6.3581e+01	14.5247	79.271179	0.000365	3.647522	1.235814	-0.000146
 641	6.3680e+01	14.4798	79.089508	0.000456	4.559403	1.544768	-0.000183
 642	6.3779e+01	14.4445	78.911874	0.000446	4.458083	1.510439	-0.000179
 643	6.3879e+01	14.4108	78.750388	0.000405	4.052803	1.373127	-0.000162
 644	6.3978e+01	14.3819	78.596977	0.000385	3.850163	1.304470	-0.000154
 645	6.4078e+01	14.3386	78.407232	0.000476	4.762043	1.613424	-0.000191
 646	6.4177e+01	14.3033	78.217486	0.000476	4.762043	1.613424	-0.000191
 647	6.4277e+01	14.2504	78.047927	0.000426	4.255443	1.441783	-0.000170
 648	6.4376e+01	14.2135	77.862218	0.000466	4.660723	1.579096	-0.000187
 649	6.4476e+01	14.1846	77.696696	0.000415	4.154123	1.407455	-0.000166
 650	6.4576e+01	14.1349	77.535210	0.000405	4.052803	1.373127	-0.000162
 651	6.4675e+01	14.0932	77.284908	0.000628	6.281844	2.128346	-0.000252
 652	6.4775e+01	14.0659	77.107274	0.000446	4.458083	1.510439	-0.000179
 653	6.4874e+01	14.0098	76.937714	0.000426	4.255443	1.441783	-0.000170
 654	6.4974e+01	13.9697	76.776229	0.000405	4.052803	1.373127	-0.000162
 655	6.5073e+01	13.9376	76.602632	0.000436	4.356763	1.476111	-0.000174
 656	6.5172e+01	13.8975	76.433072	0.000426	4.255443	1.441783	-0.000170
 657	6.5272e+01	13.8558	76.263513	0.000426	4.255443	1.441783	-0.000170
 658	6.5371e+01	13.8189	76.089916	0.000436	4.356763	1.476111	-0.000174
 659	6.5471e+01	13.7836	75.904208	0.000466	4.660723	1.579096	-0.000187
 660	6.5570e+01	13.7386	75.738685	0.000415	4.154123	1.407455	-0.000166
 661	6.5670e+01	13.6937	75.552977	0.000466	4.660723	1.579096	-0.000187
 662	6.5769e+01	13.6584	75.363231	0.000476	4.762043	1.613424	-0.000191
 663	6.5869e+01	13.6199	75.193672	0.000426	4.255443	1.441783	-0.000170
 664	6.5969e+01	13.5798	74.991815	0.000507	5.066003	1.716408	-0.000203
 665	6.6068e+01	13.5349	74.830329	0.000405	4.052803	1.373127	-0.000162
 666	6.6168e+01	13.4868	74.648658	0.000456	4.559403	1.544768	-0.000183
 667	6.6267e+01	13.4547	74.442764	0.000517	5.167323	1.750737	-0.000207
 668	6.6367e+01	13.4274	74.289353	0.000385	3.850163	1.304470	-0.000154
 669	6.6466e+01	13.3793	74.111719	0.000446	4.458083	1.510439	-0.000179
 670	6.6566e+01	13.3360	73.921974	0.000476	4.762043	1.613424	-0.000191
 671	6.6665e+01	13.2975	73.732229	0.000476	4.762043	1.613424	-0.000191
 672	6.6764e+01	13.2510	73.550557	0.000456	4.559403	1.544768	-0.000183
 673	6.6864e+01	13.2109	73.405221	0.000365	3.647522	1.235814	-0.000146
 674	6.6963e+01	13.1772	73.247772	0.000395	3.951483	1.338799	-0.000158
 675	6.7063e+01	13.1435	73.045915	0.000507	5.066003	1.716408	-0.000203
 676	6.7162e+01	13.0954	72.880393	0.000415	4.154123	1.407455	-0.000166
 677	6.7262e+01	13.0552	72.670462	0.000527	5.268644	1.785065	-0.000211
 678	6.7362e+01	13.0151	72.525125	0.000365	3.647522	1.235814	-0.000146
 679	6.7461e+01	12.9718	72.339417	0.000466	4.660723	1.579096	-0.000187
 680	6.7561e+01	12.9478	72.198117	0.000355	3.546202	1.201486	-0.000142
 681	6.7660e+01	12.9012	72.020483	0.000446	4.458083	1.510439	-0.000179
 682	6.7760e+01	12.8627	71.854960	0.000415	4.154123	1.407455	-0.000166
 683	6.7859e+01	12.8162	71.669252	0.000466	4.660723	1.579096	-0.000187
 684	6.7959e+01	12.7938	71.451247	0.000547	5.471284	1.853721	-0.000219
 685	6.8058e+01	12.7424	71.281687	0.000426	4.255443	1.441783	-0.000170
 686	6.8157e+01	12.7055	71.104053	0.000446	4.458083	1.510439	-0.000179
 687	6.8257e+01	12.6654	70.910271	0.000486	4.863363	1.647752	-0.000195
 688	6.8356e+01	12.6189	70.724562	0.000466	4.660723	1.579096	-0.000187
 689	6.8456e+01	12.5788	70.559040	0.000415	4.154123	1.407455	-0.000166
 690	6.8555e+01	12.5403	70.361220	0.000496	4.964683	1.682080	-0.000199
 691	6.8655e+01	12.5082	70.207809	0.000385	3.850163	1.304470	-0.000154
 692	6.8754e+01	12.4633	70.009989	0.000496	4.964683	1.682080	-0.000199
 693	6.8854e+01	12.4216	69.816207	0.000486	4.863363	1.647752	-0.000195
 694	6.8954e+01	12.3863	69.642610	0.000436	4.356763	1.476111	-0.000174
 695	6.9053e+01	12.3462	69.509385	0.000334	3.343562	1.132830	-0.000134
 696	6.9153e+01	12.2997	69.323676	0.000466	4.660723	1.579096	-0.000187
 697	6.9252e+01	12.2692	69.182377	0.000355	3.546202	1.201486	-0.000142
 698	6.9352e+01	12.2226	68.924000	0.000648	6.484484	2.197003	-0.000260
 699	6.9451e+01	12.1954	68.754440	0.000426	4.255443	1.441783	-0.000170
 700	6.9550e+01	12.1505	68.568732	0.000466	4.660723	1.579096	-0.000187
 701	6.9650e+01	12.1120	68.366875	0.000507	5.066003	1.716408	-0.000203
 702	6.9749e+01	12.0670	68.173093	0.000486	4.863363	1.647752	-0.000195
 703	6.9849e+01	12.0237	68.019681	0.000385	3.850163	1.304470	-0.000154
 704	6.9948e+01	11.9900	67.813788	0.000517	5.167323	1.750737	-0.000207
 705	7.0048e+01	11.9435	67.628079	0.000466	4.660723	1.579096	-0.000187
 706	7.0147e+01	11.8986	67.418148	0.000527	5.268644	1.785065	-0.000211
 707	7.0247e+01	11.8649	67.264737	0.000385	3.850163	1.304470	-0.000154
 708	7.0347e+01	11.8184	67.107289	0.000395	3.951483	1.338799	-0.000158
 709	7.0446e+01	11.7799	66.961952	0.000365	3.647522	1.235814	-0.000146
 710	7.0546e+01	11.7350	66.780281	0.000456	4.559403	1.544768	-0.000183
 711	7.0645e+01	11.7029	66.590535	0.000476	4.762043	1.613424	-0.000191
 712	7.0745e+01	11.6676	66.396753	0.000486	4.863363	1.647752	-0.000195
 713	7.0844e+01	11.6307	66.211045	0.000466	4.660723	1.579096	-0.000187
 714	7.0944e+01	11.5858	66.049559	0.000405	4.052803	1.373127	-0.000162
 715	7.1043e+01	11.5457	65.884037	0.000415	4.154123	1.407455	-0.000166
 716	7.1142e+01	11.5104	65.657957	0.000567	5.673924	1.922377	-0.000227
 717	7.1242e+01	11.4735	65.492435	0.000415	4.154123	1.407455	-0.000166
 718	7.1341e+01	11.4253	65.274429	0.000547	5.471284	1.853721	-0.000219
 719	7.1441e+01	11.3820	65.080647	0.000486	4.863363	1.647752	-0.000195
 720	7.1540e+01	11.3516	64.878790	0.000507	5.066003	1.716408	-0.000203
 721	7.1640e+01	11.3082	64.664822	0.000537	5.369964	1.819393	-0.000215
 722	7.1740e+01	11.2745	64.503336	0.000405	4.052803	1.373127	-0.000162
 723	7.1839e+01	11.2248	64.277257	0.000567	5.673924	1.922377	-0.000227
 724	7.1939e+01	11.1911	64.099623	0.000446	4.458083	1.510439	-0.000179
 725	7.2038e+01	11.1478	63.966397	0.000334	3.343562	1.132830	-0.000134
 726	7.2138e+01	11.1045	63.792800	0.000436	4.356763	1.476111	-0.000174
 727	7.2237e+01	11.0708	63.603055	0.000476	4.762043	1.613424	-0.000191
 728	7.2337e+01	11.0339	63.437532	0.000415	4.154123	1.407455	-0.000166
 729	7.2436e+01	10.9906	63.251824	0.000466	4.660723	1.579096	-0.000187
 730	7.2535e+01	10.9473	63.094376	0.000395	3.951483	1.338799	-0.000158
 731	7.2635e+01	10.9072	62.888482	0.000517	5.167323	1.750737	-0.000207
 732	7.2734e+01	10.8719	62.714885	0.000436	4.356763	1.476111	-0.000174
 733	7.2834e+01	10.8350	62.504954	0.000527	5.268644	1.785065	-0.000211
 734	7.2933e+01	10.7933	62.303097	0.000507	5.066003	1.716408	-0.000203
 735	7.3033e+01	10.7484	62.101240	0.000507	5.066003	1.716408	-0.000203
 736	7.3132e+01	10.7099	61.972052	0.000324	3.242242	1.098501	-0.000130
 737	7.3232e+01	10.6714	61.778270	0.000486	4.863363	1.647752	-0.000195
 738	7.3332e+01	10.6329	61.572376	0.000517	5.167323	1.750737	-0.000207
 739	7.3431e+01	10.5815	61.410890	0.000405	4.052803	1.373127	-0.000162
 740	7.3531e+01	10.5559	61.196922	0.000537	5.369964	1.819393	-0.000215
 741	7.3630e+01	10.5190	61.055622	0.000355	3.546202	1.201486	-0.000142
 742	7.3730e+01	10.4692	60.890100	0.000415	4.154123	1.407455	-0.000166
 743	7.3829e+01	10.4243	60.655946	0.000588	5.876564	1.991034	-0.000235
 744	7.3928e+01	10.3922	60.429866	0.000567	5.673924	1.922377	-0.000227
 745	7.4028e+01	10.3537	60.276455	0.000385	3.850163	1.304470	-0.000154
 746	7.4127e+01	10.3072	60.098821	0.000446	4.458083	1.510439	-0.000179
 747	7.4227e+01	10.2815	59.888890	0.000527	5.268644	1.785065	-0.000211
 748	7.4326e+01	10.2222	59.691070	0.000496	4.964683	1.682080	-0.000199
 749	7.4426e+01	10.1949	59.513436	0.000446	4.458083	1.510439	-0.000179
 750	7.4525e+01	10.1516	59.287357	0.000567	5.673924	1.922377	-0.000227
 751	7.4625e+01	10.1195	59.113760	0.000436	4.356763	1.476111	-0.000174
 752	7.4725e+01	10.0714	58.936126	0.000446	4.458083	1.510439	-0.000179
 753	7.4824e+01	10.0361	58.730232	0.000517	5.167323	1.750737	-0.000207
 754	7.4924e+01	9.9912	58.556635	0.000436	4.356763	1.476111	-0.000174
 755	7.5023e+01	9.9575	58.415336	0.000355	3.546202	1.201486	-0.000142
 756	7.5123e+01	9.9061	58.181182	0.000588	5.876564	1.991034	-0.000235
 757	7.5222e+01	9.8773	58.019696	0.000405	4.052803	1.373127	-0.000162
 758	7.5322e+01	9.8404	57.805728	0.000537	5.369964	1.819393	-0.000215
 759	7.5421e+01	9.7970	57.652317	0.000385	3.850163	1.304470	-0.000154
 760	7.5520e+01	9.7521	57.454497	0.000496	4.964683	1.682080	-0.000199
 761	7.5620e+01	9.7249	57.232455	0.000557	5.572604	1.888049	-0.000223
 762	7.5719e+01	9.6751	57.054821	0.000446	4.458083	1.510439	-0.000179
 763	7.5819e+01	9.6334	56.816630	0.000598	5.977884	2.025362	-0.000239
 764	7.5918e+01	9.5917	56.626884	0.000476	4.762043	1.613424	-0.000191
 765	7.6018e+01	9.5500	56.457325	0.000426	4.255443	1.441783	-0.000170
 766	7.6118e+01	9.5067	56.287765	0.000426	4.255443	1.441783	-0.000170
 767	7.6217e+01	9.4842	56.061685	0.000567	5.673924	1.922377	-0.000227
 768	7.6317e+01	9.4329	55.851754	0.000527	5.268644	1.785065	-0.000211
 769	7.6416e+01	9.4040	55.706417	0.000365	3.647522	1.235814	-0.000146
 770	7.6516e+01	9.3559	55.500524	0.000517	5.167323	1.750737	-0.000207
 771	7.6615e+01	9.3110	55.330964	0.000426	4.255443	1.441783	-0.000170
 772	7.6715e+01	9.2741	55.121033	0.000527	5.268644	1.785065	-0.000211
 773	7.6814e+01	9.2324	54.923213	0.000496	4.964683	1.682080	-0.000199
 774	7.6913e+01	9.1923	54.713282	0.000527	5.268644	1.785065	-0.000211
 775	7.7013e+01	9.1457	54.551797	0.000405	4.052803	1.373127	-0.000162
 776	7.7112e+01	9.1185	54.370126	0.000456	4.559403	1.544768	-0.000183
 777	7.7212e+01	9.0800	54.123860	0.000618	6.180524	2.094018	-0.000248
 778	7.7311e+01	9.0366	53.974486	0.000375	3.748843	1.270142	-0.000150
 779	7.7411e+01	9.0014	53.780704	0.000486	4.863363	1.647752	-0.000195
 780	7.7510e+01	8.9516	53.586921	0.000486	4.863363	1.647752	-0.000195
 781	7.7610e+01	8.9227	53.409287	0.000446	4.458083	1.510439	-0.000179
 782	7.7710e+01	8.8826	53.203393	0.000517	5.167323	1.750737	-0.000207
 783	7.7809e+01	8.8313	52.977314	0.000567	5.673924	1.922377	-0.000227
 784	7.7909e+01	8.7992	52.799680	0.000446	4.458083	1.510439	-0.000179
 785	7.8008e+01	8.7591	52.622046	0.000446	4.458083	1.510439	-0.000179
 786	7.8108e+01	8.7222	52.452486	0.000426	4.255443	1.441783	-0.000170
 787	7.8207e+01	8.6805	52.177961	0.000689	6.889765	2.334315	-0.000276
 788	7.8306e+01	8.6436	52.040698	0.000344	3.444882	1.167158	-0.000138
 789	7.8406e+01	8.6003	51.838841	0.000507	5.066003	1.716408	-0.000203
 790	7.8505e+01	8.5650	51.661207	0.000446	4.458083	1.510439	-0.000179
 791	7.8605e+01	8.5201	51.443202	0.000547	5.471284	1.853721	-0.000219
 792	7.8704e+01	8.4816	51.269605	0.000436	4.356763	1.476111	-0.000174
 793	7.8804e+01	8.4254	51.087934	0.000456	4.559403	1.544768	-0.000183
 794	7.8903e+01	8.4062	50.914337	0.000436	4.356763	1.476111	-0.000174
 795	7.9003e+01	8.3613	50.680183	0.000588	5.876564	1.991034	-0.000235
 796	7.9103e+01	8.3212	50.478327	0.000507	5.066003	1.716408	-0.000203
 797	7.9202e+01	8.2827	50.328953	0.000375	3.748843	1.270142	-0.000150
 798	7.9302e+01	8.2201	50.131133	0.000496	4.964683	1.682080	-0.000199
 799	7.9401e+01	8.1944	49.917165	0.000537	5.369964	1.819393	-0.000215
 800	7.9501e+01	8.1655	49.695122	0.000557	5.572604	1.888049	-0.000223
 801	7.9600e+01	8.1142	49.505377	0.000476	4.762043	1.613424	-0.000191
 802	7.9700e+01	8.0757	49.323706	0.000456	4.559403	1.544768	-0.000183
 803	7.9799e+01	8.0388	49.137998	0.000466	4.660723	1.579096	-0.000187
 804	7.9898e+01	8.0051	48.944215	0.000486	4.863363	1.647752	-0.000195
 805	7.9998e+01	7.9522	48.734284	0.000527	5.268644	1.785065	-0.000211
 806	8.0097e+01	7.9249	48.568761	0.000415	4.154123	1.407455	-0.000166
 807	8.0197e+01	7.8816	48.362868	0.000517	5.167323	1.750737	-0.000207
 808	8.0296e+01	7.8495	48.144862	0.000547	5.471284	1.853721	-0.000219
 809	8.0396e+01	7.8126	47.991451	0.000385	3.850163	1.304470	-0.000154
 810	8.0496e+01	7.7597	47.749223	0.000608	6.079204	2.059690	-0.000243
 811	8.0595e+01	7.7196	47.587738	0.000405	4.052803	1.373127	-0.000162
 812	8.0695e+01	7.6859	47.369732	0.000547	5.471284	1.853721	-0.000219
 813	8.0794e+01	7.6474	47.212284	0.000395	3.951483	1.338799	-0.000158
 814	8.0894e+01	7.5944	46.970056	0.000608	6.079204	2.059690	-0.000243
 815	8.0993e+01	7.5624	46.776273	0.000486	4.863363	1.647752	-0.000195
 816	8.1093e+01	7.5190	46.639011	0.000344	3.444882	1.167158	-0.000138
 817	8.1192e+01	7.4773	46.400820	0.000598	5.977884	2.025362	-0.000239
 818	8.1291e+01	7.4436	46.235297	0.000415	4.154123	1.407455	-0.000166
 819	8.1391e+01	7.4019	46.057663	0.000446	4.458083	1.510439	-0.000179
 820	8.1490e+01	7.3602	45.843695	0.000537	5.369964	1.819393	-0.000215
 821	8.1590e+01	7.3217	45.645875	0.000496	4.964683	1.682080	-0.000199
 822	8.1689e+01	7.2880	45.419796	0.000567	5.673924	1.922377	-0.000227
 823	8.1789e+01	7.2511	45.185642	0.000588	5.876564	1.991034	-0.000235
 824	8.1888e+01	7.2014	44.987822	0.000496	4.964683	1.682080	-0.000199
 825	8.1988e+01	7.1565	44.834411	0.000385	3.850163	1.304470	-0.000154
 826	8.2088e+01	7.1196	44.620443	0.000537	5.369964	1.819393	-0.000215
 827	8.2187e+01	7.0811	44.426660	0.000486	4.863363	1.647752	-0.000195
 828	8.2287e+01	7.0362	44.232878	0.000486	4.863363	1.647752	-0.000195
 829	8.2386e+01	7.0073	44.035058	0.000496	4.964683	1.682080	-0.000199
 830	8.2486e+01	6.9720	43.893758	0.000355	3.546202	1.201486	-0.000142
 831	8.2585e+01	6.9303	43.655567	0.000598	5.977884	2.025362	-0.000239
 832	8.2684e+01	6.8790	43.457748	0.000496	4.964683	1.682080	-0.000199
 833	8.2784e+01	6.8485	43.243779	0.000537	5.369964	1.819393	-0.000215
 834	8.2883e+01	6.8019	43.062108	0.000456	4.559403	1.544768	-0.000183
 835	8.2983e+01	6.7763	42.848140	0.000537	5.369964	1.819393	-0.000215
 836	8.3082e+01	6.7298	42.666469	0.000456	4.559403	1.544768	-0.000183
 837	8.3182e+01	6.6832	42.452501	0.000537	5.369964	1.819393	-0.000215
 838	8.3281e+01	6.6431	42.254681	0.000496	4.964683	1.682080	-0.000199
 839	8.3381e+01	6.6046	42.073010	0.000456	4.559403	1.544768	-0.000183
 840	8.3481e+01	6.5645	41.838856	0.000588	5.876564	1.991034	-0.000235
 841	8.3580e+01	6.5292	41.693519	0.000365	3.647522	1.235814	-0.000146
 842	8.3680e+01	6.4859	41.523960	0.000426	4.255443	1.441783	-0.000170
 843	8.3779e+01	6.4458	41.346326	0.000446	4.458083	1.510439	-0.000179
 844	8.3879e+01	6.4089	41.124283	0.000557	5.572604	1.888049	-0.000223
 845	8.3978e+01	6.3672	40.950686	0.000436	4.356763	1.476111	-0.000174
 846	8.4078e+01	6.3255	40.736718	0.000537	5.369964	1.819393	-0.000215
 847	8.4177e+01	6.2886	40.595418	0.000355	3.546202	1.201486	-0.000142
 848	8.4276e+01	6.2501	40.369339	0.000567	5.673924	1.922377	-0.000227
 849	8.4376e+01	6.2148	40.123074	0.000618	6.180524	2.094018	-0.000248
 850	8.4475e+01	6.1619	39.985811	0.000344	3.444882	1.167158	-0.000138
 851	8.4575e+01	6.1314	39.743583	0.000608	6.079204	2.059690	-0.000243
 852	8.4674e+01	6.0865	39.549800	0.000486	4.863363	1.647752	-0.000195
 853	8.4774e+01	6.0512	39.356018	0.000486	4.863363	1.647752	-0.000195
 854	8.4874e+01	6.0127	39.182421	0.000436	4.356763	1.476111	-0.000174
 855	8.4973e+01	5.9694	38.936156	0.000618	6.180524	2.094018	-0.000248
 856	8.5073e+01	5.9292	38.746410	0.000476	4.762043	1.613424	-0.000191
 857	8.5172e+01	5.8875	38.548591	0.000496	4.964683	1.682080	-0.000199
 858	8.5272e+01	5.8571	38.346734	0.000507	5.066003	1.716408	-0.000203
 859	8.5371e+01	5.8105	38.197360	0.000375	3.748843	1.270142	-0.000150
 860	8.5471e+01	5.7672	37.979354	0.000547	5.471284	1.853721	-0.000219
 861	8.5570e+01	5.7287	37.805758	0.000436	4.356763	1.476111	-0.000174
 862	8.5669e+01	5.6886	37.599864	0.000517	5.167323	1.750737	-0.000207
 863	8.5769e+01	5.6629	37.414155	0.000466	4.660723	1.579096	-0.000187
 864	8.5868e+01	5.6148	37.155779	0.000648	6.484484	2.197003	-0.000260
 865	8.5968e+01	5.5747	36.998330	0.000395	3.951483	1.338799	-0.000158
 866	8.6067e+01	5.5346	36.796474	0.000507	5.066003	1.716408	-0.000203
 867	8.6167e+01	5.4929	36.578468	0.000547	5.471284	1.853721	-0.000219
 868	8.6266e+01	5.4496	36.416983	0.000405	4.052803	1.373127	-0.000162
 869	8.6366e+01	5.4127	36.211089	0.000517	5.167323	1.750737	-0.000207
 870	8.6466e+01	5.3678	35.989047	0.000557	5.572604	1.888049	-0.000223
 871	8.6565e+01	5.3277	35.787190	0.000507	5.066003	1.716408	-0.000203
 872	8.6665e+01	5.2988	35.557073	0.000578	5.775244	1.956706	-0.000231
 873	8.6764e+01	5.2683	35.411736	0.000365	3.647522	1.235814	-0.000146
 874	8.6864e+01	5.2218	35.197768	0.000537	5.369964	1.819393	-0.000215
 875	8.6963e+01	5.1688	35.012060	0.000466	4.660723	1.579096	-0.000187
 876	8.7063e+01	5.1464	34.854611	0.000395	3.951483	1.338799	-0.000158
 877	8.7162e+01	5.0870	34.604309	0.000628	6.281844	2.128346	-0.000252
 878	8.7261e+01	5.0598	34.406489	0.000496	4.964683	1.682080	-0.000199
 879	8.7361e+01	5.0148	34.240967	0.000415	4.154123	1.407455	-0.000166
 880	8.7460e+01	4.9731	34.043147	0.000496	4.964683	1.682080	-0.000199
 881	8.7560e+01	4.9330	33.813030	0.000578	5.775244	1.956706	-0.000231
 882	8.7659e+01	4.8849	33.635396	0.000446	4.458083	1.510439	-0.000179
 883	8.7759e+01	4.8560	33.393168	0.000608	6.079204	2.059690	-0.000243
 884	8.7859e+01	4.8127	33.235720	0.000395	3.951483	1.338799	-0.000158
 885	8.7958e+01	4.7790	33.001566	0.000588	5.876564	1.991034	-0.000235
 886	8.8058e+01	4.7293	32.815858	0.000466	4.660723	1.579096	-0.000187
 887	8.8157e+01	4.6812	32.618038	0.000496	4.964683	1.682080	-0.000199
 888	8.8257e+01	4.6475	32.448478	0.000426	4.255443	1.441783	-0.000170
 889	8.8356e+01	4.6170	32.218362	0.000578	5.775244	1.956706	-0.000231
 890	8.8456e+01	4.5785	32.000356	0.000547	5.471284	1.853721	-0.000219
 891	8.8555e+01	4.5432	31.810611	0.000476	4.762043	1.613424	-0.000191
 892	8.8654e+01	4.4983	31.616829	0.000486	4.863363	1.647752	-0.000195
 893	8.8754e+01	4.4517	31.443232	0.000436	4.356763	1.476111	-0.000174
 894	8.8853e+01	4.4084	31.289821	0.000385	3.850163	1.304470	-0.000154
 895	8.8953e+01	4.3796	31.031444	0.000648	6.484484	2.197003	-0.000260
 896	8.9052e+01	4.3314	30.825550	0.000517	5.167323	1.750737	-0.000207
 897	8.9152e+01	4.2913	30.647916	0.000446	4.458083	1.510439	-0.000179
 898	8.9251e+01	4.2560	30.405688	0.000608	6.079204	2.059690	-0.000243
 899	8.9351e+01	4.2111	30.240165	0.000415	4.154123	1.407455	-0.000166
 900	8.9451e+01	4.1742	30.054457	0.000466	4.660723	1.579096	-0.000187
 901	8.9550e+01	4.1325	29.836452	0.000547	5.471284	1.853721	-0.000219
 902	8.9650e+01	4.1004	29.614409	0.000557	5.572604	1.888049	-0.000223
 903	8.9749e+01	4.0619	29.368144	0.000618	6.180524	2.094018	-0.000248
 904	8.9849e+01	4.0202	29.210696	0.000395	3.951483	1.338799	-0.000158
 905	8.9948e+01	3.9737	29.000765	0.000527	5.268644	1.785065	-0.000211
 906	9.0047e+01	3.9352	28.811019	0.000476	4.762043	1.613424	-0.000191
 907	9.0147e+01	3.8855	28.637422	0.000436	4.356763	1.476111	-0.000174
 908	9.0246e+01	3.8630	28.447677	0.000476	4.762043	1.613424	-0.000191
 909	9.0346e+01	3.8165	28.257932	0.000476	4.762043	1.613424	-0.000191
 910	9.0445e+01	3.7796	28.039926	0.000547	5.471284	1.853721	-0.000219
 911	9.0545e+01	3.7395	27.862292	0.000446	4.458083	1.510439	-0.000179
 912	9.0644e+01	3.6994	27.632176	0.000578	5.775244	1.956706	-0.000231
 913	9.0744e+01	3.6544	27.430319	0.000507	5.066003	1.716408	-0.000203
 914	9.0844e+01	3.6111	27.224425	0.000517	5.167323	1.750737	-0.000207
 915	9.0943e+01	3.5726	27.034679	0.000476	4.762043	1.613424	-0.000191
 916	9.1043e+01	3.5389	26.824748	0.000527	5.268644	1.785065	-0.000211
 917	9.1142e+01	3.4972	26.618854	0.000517	5.167323	1.750737	-0.000207
 918	9.1242e+01	3.4587	26.429109	0.000476	4.762043	1.613424	-0.000191
 919	9.1341e+01	3.4186	26.207067	0.000557	5.572604	1.888049	-0.000223
 920	9.1441e+01	3.3801	26.001173	0.000517	5.167323	1.750737	-0.000207
 921	9.1540e+01	3.3384	25.787205	0.000537	5.369964	1.819393	-0.000215
 922	9.1639e+01	3.2999	25.593422	0.000486	4.863363	1.647752	-0.000195
 923	9.1739e+01	3.2678	25.375417	0.000547	5.471284	1.853721	-0.000219
 924	9.1838e+01	3.2245	25.189708	0.000466	4.660723	1.579096	-0.000187
 925	9.1938e+01	3.1780	25.016112	0.000436	4.356763	1.476111	-0.000174
 926	9.2037e+01	3.1363	24.834440	0.000456	4.559403	1.544768	-0.000183
 927	9.2137e+01	3.1042	24.576064	0.000648	6.484484	2.197003	-0.000260
 928	9.2237e+01	3.0641	24.394393	0.000456	4.559403	1.544768	-0.000183
 929	9.2336e+01	3.0208	24.176387	0.000547	5.471284	1.853721	-0.000219
 930	9.2436e+01	2.9678	23.998753	0.000446	4.458083	1.510439	-0.000179
 931	9.2535e+01	2.9486	23.780748	0.000547	5.471284	1.853721	-0.000219
 932	9.2635e+01	2.9069	23.570817	0.000527	5.268644	1.785065	-0.000211
 933	9.2734e+01	2.8636	23.352812	0.000547	5.471284	1.853721	-0.000219
 934	9.2834e+01	2.8299	23.154992	0.000496	4.964683	1.682080	-0.000199
 935	9.2933e+01	2.7737	22.936987	0.000547	5.471284	1.853721	-0.000219
 936	9.3032e+01	2.7448	22.718981	0.000547	5.471284	1.853721	-0.000219
 937	9.3132e+01	2.7015	22.521162	0.000496	4.964683	1.682080	-0.000199
 938	9.3231e+01	2.6646	22.327379	0.000486	4.863363	1.647752	-0.000195
 939	9.3331e+01	2.6261	22.133597	0.000486	4.863363	1.647752	-0.000195
 940	9.3430e+01	2.5828	21.955963	0.000446	4.458083	1.510439	-0.000179
 941	9.3530e+01	2.5427	21.778329	0.000446	4.458083	1.510439	-0.000179
 942	9.3629e+01	2.5042	21.568398	0.000527	5.268644	1.785065	-0.000211
 943	9.3729e+01	2.4609	21.342318	0.000567	5.673924	1.922377	-0.000227
 944	9.3829e+01	2.4256	21.136424	0.000517	5.167323	1.750737	-0.000207
 945	9.3928e+01	2.3951	20.922456	0.000537	5.369964	1.819393	-0.000215
 946	9.4028e+01	2.3470	20.752896	0.000426	4.255443	1.441783	-0.000170
 947	9.4127e+01	2.2957	20.538928	0.000537	5.369964	1.819393	-0.000215
 948	9.4227e+01	2.2668	20.312848	0.000567	5.673924	1.922377	-0.000227
 949	9.4326e+01	2.2187	20.090806	0.000557	5.572604	1.888049	-0.000223
 950	9.4425e+01	2.1753	19.937395	0.000385	3.850163	1.304470	-0.000154
 951	9.4525e+01	2.1465	19.707278	0.000578	5.775244	1.956706	-0.000231
 952	9.4624e+01	2.1128	19.448901	0.000648	6.484484	2.197003	-0.000260
 953	9.4724e+01	2.0582	19.267230	0.000456	4.559403	1.544768	-0.000183
 954	9.4823e+01	2.0245	19.073448	0.000486	4.863363	1.647752	-0.000195
 955	9.4923e+01	1.9925	18.891777	0.000456	4.559403	1.544768	-0.000183
 956	9.5022e+01	1.9411	18.669734	0.000557	5.572604	1.888049	-0.000223
 957	9.5122e+01	1.9058	18.508249	0.000405	4.052803	1.373127	-0.000162
 958	9.5222e+01	1.8786	18.310429	0.000496	4.964683	1.682080	-0.000199
 959	9.5321e+01	1.8272	18.080312	0.000578	5.775244	1.956706	-0.000231
 960	9.5421e+01	1.7791	17.882493	0.000496	4.964683	1.682080	-0.000199
 961	9.5520e+01	1.7406	17.684673	0.000496	4.964683	1.682080	-0.000199
 962	9.5620e+01	1.7069	17.466668	0.000547	5.471284	1.853721	-0.000219
 963	9.5719e+01	1.6572	17.280960	0.000466	4.660723	1.579096	-0.000187
 964	9.5819e+01	1.6267	17.075066	0.000517	5.167323	1.750737	-0.000207
 965	9.5918e+01	1.5914	16.857060	0.000547	5.471284	1.853721	-0.000219
 966	9.6017e+01	1.5433	16.626944	0.000578	5.775244	1.956706	-0.000231
 967	9.6117e+01	1.5096	16.408938	0.000547	5.471284	1.853721	-0.000219
 968	9.6216e+01	1.4743	16.251490	0.000395	3.951483	1.338799	-0.000158
 969	9.6316e+01	1.4294	16.029447	0.000557	5.572604	1.888049	-0.000223
 970	9.6415e+01	1.3845	15.843739	0.000466	4.660723	1.579096	-0.000187
 971	9.6515e+01	1.3411	15.609585	0.000588	5.876564	1.991034	-0.000235
 972	9.6615e+01	1.3042	15.452137	0.000395	3.951483	1.338799	-0.000158
 973	9.6714e+01	1.2657	15.258355	0.000486	4.863363	1.647752	-0.000195
 974	9.6814e+01	1.2256	15.044386	0.000537	5.369964	1.819393	-0.000215
 975	9.6913e+01	1.1839	14.886938	0.000395	3.951483	1.338799	-0.000158
 976	9.7013e+01	1.1486	14.677007	0.000527	5.268644	1.785065	-0.000211
 977	9.7112e+01	1.1085	14.410556	0.000669	6.687124	2.265659	-0.000268
 978	9.7212e+01	1.0700	14.216774	0.000486	4.863363	1.647752	-0.000195
 979	9.7311e+01	1.0283	14.014917	0.000507	5.066003	1.716408	-0.000203
 980	9.7410e+01	0.9866	13.833246	0.000456	4.559403	1.544768	-0.000183
 981	9.7510e+01	0.9497	13.607166	0.000567	5.673924	1.922377	-0.000227
 982	9.7609e+01	0.9080	13.385124	0.000557	5.572604	1.888049	-0.000223
 983	9.7709e+01	0.8695	13.203452	0.000456	4.559403	1.544768	-0.000183
 984	9.7808e+01	0.8294	12.941039	0.000659	6.585804	2.231331	-0.000264
 985	9.7908e+01	0.7925	12.767442	0.000436	4.356763	1.476111	-0.000174
 986	9.8007e+01	0.7492	12.569622	0.000496	4.964683	1.682080	-0.000199
 987	9.8107e+01	0.7139	12.367765	0.000507	5.066003	1.716408	-0.000203
 988	9.8207e+01	0.6658	12.161871	0.000517	5.167323	1.750737	-0.000207
 989	9.8306e+01	0.6337	11.976163	0.000466	4.660723	1.579096	-0.000187
 990	9.8406e+01	0.6000	11.794492	0.000456	4.559403	1.544768	-0.000183
 991	9.8505e+01	0.5551	11.548227	0.000618	6.180524	2.094018	-0.000248
 992	9.8605e+01	0.5069	11.415001	0.000334	3.343562	1.132830	-0.000134
 993	9.8704e+01	0.4684	11.176810	0.000598	5.977884	2.025362	-0.000239
 994	9.8803e+01	0.4315	11.023399	0.000385	3.850163	1.304470	-0.000154
 995	9.8903e+01	0.3882	10.740800	0.000709	7.092405	2.402972	-0.000284
 996	9.9002e+01	0.3481	10.575277	0.000415	4.154123	1.407455	-0.000166
 997	9.9102e+01	0.3032	10.324975	0.000628	6.281844	2.128346	-0.000252
 998	9.9201e+01	0.2759	10.143304	0.000456	4.559403	1.544768	-0.000183
 999	9.9301e+01	0.2278	9.929335	0.000537	5.369964	1.819393	-0.000215
1000	9.9400e+01	0.1925	9.731516	0.000496	4.964683	1.682080	-0.000199
1001	9.9500e+01	0.1524	9.541770	0.000476	4.762043	1.613424	-0.000191
1002	9.9600e+01	0.1091	9.327802	0.000537	5.369964	1.819393	-0.000215
1003	9.9699e+01	0.0674	9.150168	0.000446	4.458083	1.510439	-0.000179
1004	9.9799e+01	0.0337	8.911977	0.000598	5.977884	2.025362	-0.000239
1005	9.9898e+01	0.0064	8.758566	0.000385	3.850163	1.304470	-0.000154
1006	9.9998e+01	-0.0529	8.560746	0.000496	4.964683	1.682080	-0.000199
1007	1.0010e+02	-0.0818	8.354852	0.000517	5.167323	1.750737	-0.000207
1008	1.0020e+02	-0.1171	8.165107	0.000476	4.762043	1.613424	-0.000191
1009	1.0030e+02	-0.1556	7.967287	0.000496	4.964683	1.682080	-0.000199
1010	1.0040e+02	-0.1925	7.781579	0.000466	4.660723	1.579096	-0.000187
1011	1.0050e+02	-0.2374	7.587797	0.000486	4.863363	1.647752	-0.000195
1012	1.0059e+02	-0.2872	7.410163	0.000446	4.458083	1.510439	-0.000179
1013	1.0069e+02	-0.3160	7.208306	0.000507	5.066003	1.716408	-0.000203
1014	1.0079e+02	-0.3481	7.046820	0.000405	4.052803	1.373127	-0.000162
1015	1.0089e+02	-0.3962	6.808629	0.000598	5.977884	2.025362	-0.000239
1016	1.0099e+02	-0.4299	6.630995	0.000446	4.458083	1.510439	-0.000179
1017	1.0109e+02	-0.4765	6.392804	0.000598	5.977884	2.025362	-0.000239
1018	1.0119e+02	-0.5166	6.219208	0.000436	4.356763	1.476111	-0.000174
1019	1.0129e+02	-0.5567	6.009277	0.000527	5.268644	1.785065	-0.000211
1020	1.0139e+02	-0.6000	5.835680	0.000436	4.356763	1.476111	-0.000174
1021	1.0149e+02	-0.6385	5.573266	0.000659	6.585804	2.231331	-0.000264
1022	1.0159e+02	-0.6786	5.399669	0.000436	4.356763	1.476111	-0.000174
1023	1.0169e+02	-0.7075	5.169552	0.000578	5.775244	1.956706	-0.000231
1024	1.0179e+02	-0.7556	4.923287	0.000618	6.180524	2.094018	-0.000248
1025	1.0189e+02	-0.8053	4.749690	0.000436	4.356763	1.476111	-0.000174
1026	1.0199e+02	-0.8486	4.568019	0.000456	4.559403	1.544768	-0.000183
1027	1.0209e+02	-0.8839	4.378274	0.000476	4.762043	1.613424	-0.000191
1028	1.0219e+02	-0.9192	4.107786	0.000679	6.788445	2.299987	-0.000272
1029	1.0229e+02	-0.9561	3.982634	0.000314	3.140922	1.064173	-0.000126
1030	1.0239e+02	-0.9978	3.809038	0.000436	4.356763	1.476111	-0.000174
1031	1.0248e+02	-1.0444	3.623329	0.000466	4.660723	1.579096	-0.000187
1032	1.0258e+02	-1.0700	3.401287	0.000557	5.572604	1.888049	-0.000223
1033	1.0268e+02	-1.1198	3.215579	0.000466	4.660723	1.579096	-0.000187
1034	1.0278e+02	-1.1567	2.997573	0.000547	5.471284	1.853721	-0.000219
1035	1.0288e+02	-1.2032	2.799754	0.000496	4.964683	1.682080	-0.000199
1036	1.0298e+02	-1.2304	2.581748	0.000547	5.471284	1.853721	-0.000219
1037	1.0308e+02	-1.2770	2.392003	0.000476	4.762043	1.613424	-0.000191
1038	1.0318e+02	-1.3123	2.165923	0.000567	5.673924	1.922377	-0.000227
1039	1.0328e+02	-1.3652	1.988289	0.000446	4.458083	1.510439	-0.000179
1040	1.0338e+02	-1.4053	1.770284	0.000547	5.471284	1.853721	-0.000219
1041	1.0348e+02	-1.4342	1.580539	0.000476	4.762043	1.613424	-0.000191
1042	1.0358e+02	-1.4711	1.390793	0.000476	4.762043	1.613424	-0.000191
1043	1.0368e+02	-1.5224	1.180862	0.000527	5.268644	1.785065	-0.000211
1044	1.0378e+02	-1.5465	0.974968	0.000517	5.167323	1.750737	-0.000207
1045	1.0388e+02	-1.6026	0.765037	0.000527	5.268644	1.785065	-0.000211
1046	1.0398e+02	-1.6315	0.567218	0.000496	4.964683	1.682080	-0.000199
1047	1.0408e+02	-1.6652	0.361324	0.000517	5.167323	1.750737	-0.000207
1048	1.0418e+02	-1.7133	0.139281	0.000557	5.572604	1.888049	-0.000223
1049	1.0428e+02	-1.7582	-0.042390	0.000456	4.559403	1.544768	-0.000183
1050	1.0438e+02	-1.7919	-0.228098	0.000466	4.660723	1.579096	-0.000187
1051	1.0447e+02	-1.8336	-0.417844	0.000476	4.762043	1.613424	-0.000191
1052	1.0457e+02	-1.8705	-0.603552	0.000466	4.660723	1.579096	-0.000187
1053	1.0467e+02	-1.9155	-0.789260	0.000466	4.660723	1.579096	-0.000187
1054	1.0477e+02	-1.9524	-0.966894	0.000446	4.458083	1.510439	-0.000179
1055	1.0487e+02	-1.9892	-1.197011	0.000578	5.775244	1.956706	-0.000231
1056	1.0497e+02	-2.0294	-1.354459	0.000395	3.951483	1.338799	-0.000158
1057	1.0507e+02	-2.0791	-1.584576	0.000578	5.775244	1.956706	-0.000231
1058	1.0517e+02	-2.1128	-1.766247	0.000456	4.559403	1.544768	-0.000183
1059	1.0527e+02	-2.1513	-1.984252	0.000547	5.471284	1.853721	-0.000219
1060	1.0537e+02	-2.1898	-2.206295	0.000557	5.572604	1.888049	-0.000223
1061	1.0547e+02	-2.2331	-2.396040	0.000476	4.762043	1.613424	-0.000191
1062	1.0557e+02	-2.2764	-2.614045	0.000547	5.471284	1.853721	-0.000219
1063	1.0567e+02	-2.3037	-2.803791	0.000476	4.762043	1.613424	-0.000191
1064	1.0577e+02	-2.3614	-2.953165	0.000375	3.748843	1.270142	-0.000150
1065	1.0587e+02	-2.3903	-3.219616	0.000669	6.687124	2.265659	-0.000268
1066	1.0597e+02	-2.4400	-3.417435	0.000496	4.964683	1.682080	-0.000199
1067	1.0607e+02	-2.4705	-3.591032	0.000436	4.356763	1.476111	-0.000174
1068	1.0617e+02	-2.5170	-3.796926	0.000517	5.167323	1.750737	-0.000207
1069	1.0627e+02	-2.5555	-3.954374	0.000395	3.951483	1.338799	-0.000158
1070	1.0637e+02	-2.5860	-4.176417	0.000557	5.572604	1.888049	-0.000223
1071	1.0647e+02	-2.6325	-4.378274	0.000507	5.066003	1.716408	-0.000203
1072	1.0656e+02	-2.6775	-4.539759	0.000405	4.052803	1.373127	-0.000162
1073	1.0666e+02	-2.7063	-4.769876	0.000578	5.775244	1.956706	-0.000231
1074	1.0676e+02	-2.7481	-4.967696	0.000496	4.964683	1.682080	-0.000199
1075	1.0686e+02	-2.7882	-5.165515	0.000496	4.964683	1.682080	-0.000199
1076	1.0696e+02	-2.8170	-5.347186	0.000456	4.559403	1.544768	-0.000183
1077	1.0706e+02	-2.8652	-5.545006	0.000496	4.964683	1.682080	-0.000199
1078	1.0716e+02	-2.9181	-5.722640	0.000446	4.458083	1.510439	-0.000179
1079	1.0726e+02	-2.9502	-5.928534	0.000517	5.167323	1.750737	-0.000207
1080	1.0736e+02	-2.9855	-6.154613	0.000567	5.673924	1.922377	-0.000227
1081	1.0746e+02	-3.0368	-6.332247	0.000446	4.458083	1.510439	-0.000179
1082	1.0756e+02	-3.0593	-6.546216	0.000537	5.369964	1.819393	-0.000215
1083	1.0766e+02	-3.1122	-6.703664	0.000395	3.951483	1.338799	-0.000158
1084	1.0776e+02	-3.1491	-6.897446	0.000486	4.863363	1.647752	-0.000195
1085	1.0786e+02	-3.1796	-7.143712	0.000618	6.180524	2.094018	-0.000248
1086	1.0796e+02	-3.2293	-7.285011	0.000355	3.546202	1.201486	-0.000142
1087	1.0806e+02	-3.2646	-7.490905	0.000517	5.167323	1.750737	-0.000207
1088	1.0816e+02	-3.3015	-7.700836	0.000527	5.268644	1.785065	-0.000211
1089	1.0826e+02	-3.3432	-7.874433	0.000436	4.356763	1.476111	-0.000174
1090	1.0836e+02	-3.3849	-8.112624	0.000598	5.977884	2.025362	-0.000239
1091	1.0845e+02	-3.4266	-8.314481	0.000507	5.066003	1.716408	-0.000203
1092	1.0855e+02	-3.4732	-8.496152	0.000456	4.559403	1.544768	-0.000183
1093	1.0865e+02	-3.5117	-8.742417	0.000618	6.180524	2.094018	-0.000248
1094	1.0875e+02	-3.5486	-8.907940	0.000415	4.154123	1.407455	-0.000166
1095	1.0885e+02	-3.5919	-9.097685	0.000476	4.762043	1.613424	-0.000191
1096	1.0895e+02	-3.6336	-9.327802	0.000578	5.775244	1.956706	-0.000231
1097	1.0905e+02	-3.6689	-9.545807	0.000547	5.471284	1.853721	-0.000219
1098	1.0915e+02	-3.7122	-9.679033	0.000334	3.343562	1.132830	-0.000134
1099	1.0925e+02	-3.7459	-9.872815	0.000486	4.863363	1.647752	-0.000195
1100	1.0935e+02	-3.7844	-10.062561	0.000476	4.762043	1.613424	-0.000191
1101	1.0945e+02	-3.8245	-10.308826	0.000618	6.180524	2.094018	-0.000248
1102	1.0955e+02	-3.8566	-10.486460	0.000446	4.458083	1.510439	-0.000179
1103	1.0965e+02	-3.9047	-10.688317	0.000507	5.066003	1.716408	-0.000203
1104	1.0975e+02	-3.9432	-10.910359	0.000557	5.572604	1.888049	-0.000223
1105	1.0985e+02	-3.9897	-11.100105	0.000476	4.762043	1.613424	-0.000191
1106	1.0995e+02	-4.0266	-11.265627	0.000415	4.154123	1.407455	-0.000166
1107	1.1005e+02	-4.0667	-11.483633	0.000547	5.471284	1.853721	-0.000219
1108	1.1015e+02	-4.0988	-11.669341	0.000466	4.660723	1.579096	-0.000187
1109	1.1025e+02	-4.1389	-11.846975	0.000446	4.458083	1.510439	-0.000179
1110	1.1035e+02	-4.1903	-12.056906	0.000527	5.268644	1.785065	-0.000211
1111	1.1044e+02	-4.2175	-12.250688	0.000486	4.863363	1.647752	-0.000195
1112	1.1054e+02	-4.2608	-12.476768	0.000567	5.673924	1.922377	-0.000227
1113	1.1064e+02	-4.3026	-12.650365	0.000436	4.356763	1.476111	-0.000174
1114	1.1074e+02	-4.3443	-12.840110	0.000476	4.762043	1.613424	-0.000191
1115	1.1084e+02	-4.3812	-13.046004	0.000517	5.167323	1.750737	-0.000207
1116	1.1094e+02	-4.4165	-13.203452	0.000395	3.951483	1.338799	-0.000158
1117	1.1104e+02	-4.4614	-13.409346	0.000517	5.167323	1.750737	-0.000207
1118	1.1114e+02	-4.5031	-13.574869	0.000415	4.154123	1.407455	-0.000166
1119	1.1124e+02	-4.5496	-13.800949	0.000567	5.673924	1.922377	-0.000227
1120	1.1134e+02	-4.5753	-13.986657	0.000466	4.660723	1.579096	-0.000187
1121	1.1144e+02	-4.6234	-14.192551	0.000517	5.167323	1.750737	-0.000207
1122	1.1154e+02	-4.6619	-14.394407	0.000507	5.066003	1.716408	-0.000203
1123	1.1164e+02	-4.7004	-14.592227	0.000496	4.964683	1.682080	-0.000199
1124	1.1174e+02	-4.7389	-14.781973	0.000476	4.762043	1.613424	-0.000191
1125	1.1184e+02	-4.7838	-14.987866	0.000517	5.167323	1.750737	-0.000207
1126	1.1194e+02	-4.8223	-15.173575	0.000466	4.660723	1.579096	-0.000187
1127	1.1204e+02	-4.8688	-15.363320	0.000476	4.762043	1.613424	-0.000191
1128	1.1214e+02	-4.9090	-15.577288	0.000537	5.369964	1.819393	-0.000215
1129	1.1224e+02	-4.9458	-15.722625	0.000365	3.647522	1.235814	-0.000146
1130	1.1234e+02	-4.9731	-15.989076	0.000669	6.687124	2.265659	-0.000268
1131	1.1244e+02	-5.0180	-16.158636	0.000426	4.255443	1.441783	-0.000170
1132	1.1253e+02	-5.0662	-16.340307	0.000456	4.559403	1.544768	-0.000183
1133	1.1263e+02	-5.0950	-16.501792	0.000405	4.052803	1.373127	-0.000162
1134	1.1273e+02	-5.1544	-16.679426	0.000446	4.458083	1.510439	-0.000179
1135	1.1283e+02	-5.1865	-16.905506	0.000567	5.673924	1.922377	-0.000227
1136	1.1293e+02	-5.2298	-17.058917	0.000385	3.850163	1.304470	-0.000154
1137	1.1303e+02	-5.2635	-17.268848	0.000527	5.268644	1.785065	-0.000211
1138	1.1313e+02	-5.2908	-17.446482	0.000446	4.458083	1.510439	-0.000179
1139	1.1323e+02	-5.3341	-17.656413	0.000527	5.268644	1.785065	-0.000211
1140	1.1333e+02	-5.3822	-17.834047	0.000446	4.458083	1.510439	-0.000179
1141	1.1343e+02	-5.4127	-18.052052	0.000547	5.471284	1.853721	-0.000219
1142	1.1353e+02	-5.4608	-18.257946	0.000517	5.167323	1.750737	-0.000207
1143	1.1363e+02	-5.5009	-18.419432	0.000405	4.052803	1.373127	-0.000162
1144	1.1373e+02	-5.5410	-18.621289	0.000507	5.066003	1.716408	-0.000203
1145	1.1383e+02	-5.5843	-18.847368	0.000567	5.673924	1.922377	-0.000227
1146	1.1393e+02	-5.6212	-19.004816	0.000395	3.951483	1.338799	-0.000158
1147	1.1403e+02	-5.6613	-19.222822	0.000547	5.471284	1.853721	-0.000219
1148	1.1413e+02	-5.7030	-19.404493	0.000456	4.559403	1.544768	-0.000183
1149	1.1423e+02	-5.7464	-19.582127	0.000446	4.458083	1.510439	-0.000179
1150	1.1433e+02	-5.7849	-19.735538	0.000385	3.850163	1.304470	-0.000154
1151	1.1442e+02	-5.8250	-19.929321	0.000486	4.863363	1.647752	-0.000195
1152	1.1452e+02	-5.8522	-20.139252	0.000527	5.268644	1.785065	-0.000211
1153	1.1462e+02	-5.8956	-20.341108	0.000507	5.066003	1.716408	-0.000203
1154	1.1472e+02	-5.9437	-20.510668	0.000426	4.255443	1.441783	-0.000170
1155	1.1482e+02	-5.9822	-20.708488	0.000496	4.964683	1.682080	-0.000199
1156	1.1492e+02	-6.0303	-20.902270	0.000486	4.863363	1.647752	-0.000195
1157	1.1502e+02	-6.0656	-21.124313	0.000557	5.572604	1.888049	-0.000223
1158	1.1512e+02	-6.0945	-21.330207	0.000517	5.167323	1.750737	-0.000207
1159	1.1522e+02	-6.1330	-21.491692	0.000405	4.052803	1.373127	-0.000162
1160	1.1532e+02	-6.1731	-21.661252	0.000426	4.255443	1.441783	-0.000170
1161	1.1542e+02	-6.2164	-21.879257	0.000547	5.471284	1.853721	-0.000219
1162	1.1552e+02	-6.2581	-22.073040	0.000486	4.863363	1.647752	-0.000195
1163	1.1562e+02	-6.3030	-22.262785	0.000476	4.762043	1.613424	-0.000191
1164	1.1572e+02	-6.3415	-22.448493	0.000466	4.660723	1.579096	-0.000187
1165	1.1582e+02	-6.3688	-22.638239	0.000476	4.762043	1.613424	-0.000191
1166	1.1592e+02	-6.4137	-22.763390	0.000314	3.140922	1.064173	-0.000126
1167	1.1602e+02	-6.4635	-22.949098	0.000466	4.660723	1.579096	-0.000187
1168	1.1612e+02	-6.4843	-23.171141	0.000557	5.572604	1.888049	-0.000223
1169	1.1622e+02	-6.5292	-23.324552	0.000385	3.850163	1.304470	-0.000154
1170	1.1632e+02	-6.5693	-23.566780	0.000608	6.079204	2.059690	-0.000243
1171	1.1642e+02	-6.6143	-23.744414	0.000446	4.458083	1.510439	-0.000179
1172	1.1651e+02	-6.6528	-23.934159	0.000476	4.762043	1.613424	-0.000191
1173	1.1661e+02	-6.6977	-24.099682	0.000415	4.154123	1.407455	-0.000166
1174	1.1671e+02	-6.7217	-24.289427	0.000476	4.762043	1.613424	-0.000191
1175	1.1681e+02	-6.7699	-24.438801	0.000375	3.748843	1.270142	-0.000150
1176	1.1691e+02	-6.8100	-24.689104	0.000628	6.281844	2.128346	-0.000252
1177	1.1701e+02	-6.8533	-24.858663	0.000426	4.255443	1.441783	-0.000170
1178	1.1711e+02	-6.8950	-25.028223	0.000426	4.255443	1.441783	-0.000170
1179	1.1721e+02	-6.9367	-25.185671	0.000395	3.951483	1.338799	-0.000158
1180	1.1731e+02	-6.9784	-25.363305	0.000446	4.458083	1.510439	-0.000179
1181	1.1741e+02	-7.0089	-25.528828	0.000415	4.154123	1.407455	-0.000166
1182	1.1751e+02	-7.0570	-25.742796	0.000537	5.369964	1.819393	-0.000215
1183	1.1761e+02	-7.0891	-25.920430	0.000446	4.458083	1.510439	-0.000179
1184	1.1771e+02	-7.1324	-26.085953	0.000415	4.154123	1.407455	-0.000166
1185	1.1781e+02	-7.1677	-26.283772	0.000496	4.964683	1.682080	-0.000199
1186	1.1791e+02	-7.2094	-26.445258	0.000405	4.052803	1.373127	-0.000162
1187	1.1801e+02	-7.2479	-26.651152	0.000517	5.167323	1.750737	-0.000207
1188	1.1811e+02	-7.2864	-26.865120	0.000537	5.369964	1.819393	-0.000215
1189	1.1821e+02	-7.3362	-27.030642	0.000415	4.154123	1.407455	-0.000166
1190	1.1831e+02	-7.3682	-27.228462	0.000496	4.964683	1.682080	-0.000199
1191	1.1841e+02	-7.4083	-27.410133	0.000456	4.559403	1.544768	-0.000183
1192	1.1850e+02	-7.4468	-27.591804	0.000456	4.559403	1.544768	-0.000183
1193	1.1860e+02	-7.4870	-27.769438	0.000446	4.458083	1.510439	-0.000179
1194	1.1870e+02	-7.5255	-27.983406	0.000537	5.369964	1.819393	-0.000215
1195	1.1880e+02	-7.5688	-28.197375	0.000537	5.369964	1.819393	-0.000215
1196	1.1890e+02	-7.6169	-28.334637	0.000344	3.444882	1.167158	-0.000138
1197	1.1900e+02	-7.6426	-28.504197	0.000426	4.255443	1.441783	-0.000170
1198	1.1910e+02	-7.6907	-28.710091	0.000517	5.167323	1.750737	-0.000207
1199	1.1920e+02	-7.7324	-28.811019	0.000253	2.533002	0.858204	-0.000101
1200	1.1930e+02	-7.7629	-29.073433	0.000659	6.585804	2.231331	-0.000264
1201	1.1940e+02	-7.8190	-29.230881	0.000395	3.951483	1.338799	-0.000158
1202	1.1950e+02	-7.8447	-29.420627	0.000476	4.762043	1.613424	-0.000191
1203	1.1960e+02	-7.8896	-29.565964	0.000365	3.647522	1.235814	-0.000146
1204	1.1970e+02	-7.9281	-29.775895	0.000527	5.268644	1.785065	-0.000211
1205	1.1980e+02	-7.9682	-29.989863	0.000537	5.369964	1.819393	-0.000215
1206	1.1990e+02	-8.0099	-30.139237	0.000375	3.748843	1.270142	-0.000150
1207	1.2000e+02	-8.0388	-30.369354	0.000578	5.775244	1.956706	-0.000231
1208	1.2010e+02	-8.0885	-30.534876	0.000415	4.154123	1.407455	-0.000166
1209	1.2020e+02	-8.1206	-30.708473	0.000436	4.356763	1.476111	-0.000174
1210	1.2030e+02	-8.1688	-30.898218	0.000476	4.762043	1.613424	-0.000191
1211	1.2039e+02	-8.2073	-31.071815	0.000436	4.356763	1.476111	-0.000174
1212	1.2049e+02	-8.2393	-31.261561	0.000476	4.762043	1.613424	-0.000191
1213	1.2059e+02	-8.2827	-31.435157	0.000436	4.356763	1.476111	-0.000174
1214	1.2069e+02	-8.3308	-31.645088	0.000527	5.268644	1.785065	-0.000211
1215	1.2079e+02	-8.3693	-31.786388	0.000355	3.546202	1.201486	-0.000142
1216	1.2089e+02	-8.4030	-31.943837	0.000395	3.951483	1.338799	-0.000158
1217	1.2099e+02	-8.4447	-32.145693	0.000507	5.066003	1.716408	-0.000203
1218	1.2109e+02	-8.4928	-32.335439	0.000476	4.762043	1.613424	-0.000191
1219	1.2119e+02	-8.5233	-32.460590	0.000314	3.140922	1.064173	-0.000126
1220	1.2129e+02	-8.5650	-32.674558	0.000537	5.369964	1.819393	-0.000215
1221	1.2139e+02	-8.5971	-32.832006	0.000395	3.951483	1.338799	-0.000158
1222	1.2149e+02	-8.6436	-33.058086	0.000567	5.673924	1.922377	-0.000227
1223	1.2159e+02	-8.6853	-33.239757	0.000456	4.559403	1.544768	-0.000183
1224	1.2169e+02	-8.7190	-33.441614	0.000507	5.066003	1.716408	-0.000203
1225	1.2179e+02	-8.7671	-33.578877	0.000344	3.444882	1.167158	-0.000138
1226	1.2189e+02	-8.8024	-33.772659	0.000486	4.863363	1.647752	-0.000195
1227	1.2199e+02	-8.8345	-33.966442	0.000486	4.863363	1.647752	-0.000195
1228	1.2209e+02	-8.8842	-34.164261	0.000496	4.964683	1.682080	-0.000199
1229	1.2219e+02	-8.9243	-34.309598	0.000365	3.647522	1.235814	-0.000146
1230	1.2229e+02	-8.9628	-34.519529	0.000527	5.268644	1.785065	-0.000211
1231	1.2239e+02	-8.9933	-34.729460	0.000527	5.268644	1.785065	-0.000211
1232	1.2248e+02	-9.0415	-34.822314	0.000233	2.330362	0.789548	-0.000093
1233	1.2258e+02	-9.0912	-35.040320	0.000547	5.471284	1.853721	-0.000219
1234	1.2268e+02	-9.1281	-35.177582	0.000344	3.444882	1.167158	-0.000138
1235	1.2278e+02	-9.1698	-35.383476	0.000517	5.167323	1.750737	-0.000207
1236	1.2288e+02	-9.1971	-35.553036	0.000426	4.255443	1.441783	-0.000170
1237	1.2298e+02	-9.2484	-35.710484	0.000395	3.951483	1.338799	-0.000158
1238	1.2308e+02	-9.2789	-35.932527	0.000557	5.572604	1.888049	-0.000223
1239	1.2318e+02	-9.3238	-36.118235	0.000466	4.660723	1.579096	-0.000187
1240	1.2328e+02	-9.3559	-36.303943	0.000466	4.660723	1.579096	-0.000187
1241	1.2338e+02	-9.3928	-36.453317	0.000375	3.748843	1.270142	-0.000150
1242	1.2348e+02	-9.4361	-36.622877	0.000426	4.255443	1.441783	-0.000170
1243	1.2358e+02	-9.4842	-36.828771	0.000517	5.167323	1.750737	-0.000207
1244	1.2368e+02	-9.5324	-36.994293	0.000415	4.154123	1.407455	-0.000166
1245	1.2378e+02	-9.5676	-37.171927	0.000446	4.458083	1.510439	-0.000179
1246	1.2388e+02	-9.6094	-37.357636	0.000466	4.660723	1.579096	-0.000187
1247	1.2398e+02	-9.6366	-37.515084	0.000395	3.951483	1.338799	-0.000158
1248	1.2408e+02	-9.6848	-37.712903	0.000496	4.964683	1.682080	-0.000199
1249	1.2418e+02	-9.7200	-37.874389	0.000405	4.052803	1.373127	-0.000162
1250	1.2428e+02	-9.7585	-38.031837	0.000395	3.951483	1.338799	-0.000158
1251	1.2438e+02	-9.8051	-38.265991	0.000588	5.876564	1.991034	-0.000235
1252	1.2447e+02	-9.8500	-38.379031	0.000284	2.836962	0.961189	-0.000114
1253	1.2457e+02	-9.8821	-38.560702	0.000456	4.559403	1.544768	-0.000183
1254	1.2467e+02	-9.9286	-38.762559	0.000507	5.066003	1.716408	-0.000203
1255	1.2477e+02	-9.9655	-38.948267	0.000466	4.660723	1.579096	-0.000187
1256	1.2487e+02	-9.9960	-39.105715	0.000395	3.951483	1.338799	-0.000158
1257	1.2497e+02	-10.0377	-39.311609	0.000517	5.167323	1.750737	-0.000207
1258	1.2507e+02	-10.0810	-39.440798	0.000324	3.242242	1.098501	-0.000130
1259	1.2517e+02	-10.1243	-39.658803	0.000547	5.471284	1.853721	-0.000219
1260	1.2527e+02	-10.1596	-39.820288	0.000405	4.052803	1.373127	-0.000162
1261	1.2537e+02	-10.1997	-40.005997	0.000466	4.660723	1.579096	-0.000187
1262	1.2547e+02	-10.2366	-40.187668	0.000456	4.559403	1.544768	-0.000183
1263	1.2557e+02	-10.2751	-40.373376	0.000466	4.660723	1.579096	-0.000187
1264	1.2567e+02	-10.3152	-40.546973	0.000436	4.356763	1.476111	-0.000174
1265	1.2577e+02	-10.3585	-40.740755	0.000486	4.863363	1.647752	-0.000195
1266	1.2587e+02	-10.3954	-40.906278	0.000415	4.154123	1.407455	-0.000166
1267	1.2597e+02	-10.4387	-41.083912	0.000446	4.458083	1.510439	-0.000179
1268	1.2607e+02	-10.4821	-41.253472	0.000426	4.255443	1.441783	-0.000170
1269	1.2617e+02	-10.5206	-41.423031	0.000426	4.255443	1.441783	-0.000170
1270	1.2627e+02	-10.5687	-41.608739	0.000466	4.660723	1.579096	-0.000187
1271	1.2636e+02	-10.6008	-41.754076	0.000365	3.647522	1.235814	-0.000146
1272	1.2646e+02	-10.6425	-41.955933	0.000507	5.066003	1.716408	-0.000203
1273	1.2656e+02	-10.6746	-42.153753	0.000496	4.964683	1.682080	-0.000199
1274	1.2666e+02	-10.7083	-42.331387	0.000446	4.458083	1.510439	-0.000179
1275	1.2676e+02	-10.7516	-42.468649	0.000344	3.444882	1.167158	-0.000138
1276	1.2686e+02	-10.8029	-42.613986	0.000365	3.647522	1.235814	-0.000146
1277	1.2696e+02	-10.8398	-42.836029	0.000557	5.572604	1.888049	-0.000223
1278	1.2706e+02	-10.8719	-43.013663	0.000446	4.458083	1.510439	-0.000179
1279	1.2716e+02	-10.9152	-43.183222	0.000426	4.255443	1.441783	-0.000170
1280	1.2726e+02	-10.9553	-43.393153	0.000527	5.268644	1.785065	-0.000211
1281	1.2736e+02	-11.0034	-43.562713	0.000426	4.255443	1.441783	-0.000170
1282	1.2746e+02	-11.0371	-43.752459	0.000476	4.762043	1.613424	-0.000191
1283	1.2756e+02	-11.0692	-43.865498	0.000284	2.836962	0.961189	-0.000114
1284	1.2766e+02	-11.1093	-44.035058	0.000426	4.255443	1.441783	-0.000170
1285	1.2776e+02	-11.1558	-44.249026	0.000537	5.369964	1.819393	-0.000215
1286	1.2786e+02	-11.1943	-44.426660	0.000446	4.458083	1.510439	-0.000179
1287	1.2796e+02	-11.2377	-44.551811	0.000314	3.140922	1.064173	-0.000126
1288	1.2806e+02	-11.2842	-44.741557	0.000476	4.762043	1.613424	-0.000191
1289	1.2816e+02	-11.3195	-44.882857	0.000355	3.546202	1.201486	-0.000142
1290	1.2826e+02	-11.3548	-45.068565	0.000466	4.660723	1.579096	-0.000187
1291	1.2835e+02	-11.4013	-45.234087	0.000415	4.154123	1.407455	-0.000166
1292	1.2845e+02	-11.4366	-45.448056	0.000537	5.369964	1.819393	-0.000215
1293	1.2855e+02	-11.4783	-45.589355	0.000355	3.546202	1.201486	-0.000142
1294	1.2865e+02	-11.5088	-45.779101	0.000476	4.762043	1.613424	-0.000191
1295	1.2875e+02	-11.5585	-45.944623	0.000415	4.154123	1.407455	-0.000166
1296	1.2885e+02	-11.5906	-46.182814	0.000598	5.977884	2.025362	-0.000239
1297	1.2895e+02	-11.6339	-46.312003	0.000324	3.242242	1.098501	-0.000130
1298	1.2905e+02	-11.6708	-46.489637	0.000446	4.458083	1.510439	-0.000179
1299	1.2915e+02	-11.7141	-46.647085	0.000395	3.951483	1.338799	-0.000158
1300	1.2925e+02	-11.7526	-46.804533	0.000395	3.951483	1.338799	-0.000158
1301	1.2935e+02	-11.7927	-46.974093	0.000426	4.255443	1.441783	-0.000170
1302	1.2945e+02	-11.8312	-47.147690	0.000436	4.356763	1.476111	-0.000174
1303	1.2955e+02	-11.8649	-47.321287	0.000436	4.356763	1.476111	-0.000174
1304	1.2965e+02	-11.9082	-47.486809	0.000415	4.154123	1.407455	-0.000166
1305	1.2975e+02	-11.9580	-47.656369	0.000426	4.255443	1.441783	-0.000170
1306	1.2985e+02	-11.9884	-47.809780	0.000385	3.850163	1.304470	-0.000154
1307	1.2995e+02	-12.0334	-48.003562	0.000486	4.863363	1.647752	-0.000195
1308	1.3005e+02	-12.0702	-48.161011	0.000395	3.951483	1.338799	-0.000158
1309	1.3015e+02	-12.1200	-48.322496	0.000405	4.052803	1.373127	-0.000162
1310	1.3025e+02	-12.1473	-48.483982	0.000405	4.052803	1.373127	-0.000162
1311	1.3034e+02	-12.1938	-48.641430	0.000395	3.951483	1.338799	-0.000158
1312	1.3044e+02	-12.2307	-48.863472	0.000557	5.572604	1.888049	-0.000223
1313	1.3054e+02	-12.2579	-49.069366	0.000517	5.167323	1.750737	-0.000207
1314	1.3064e+02	-12.3141	-49.238926	0.000426	4.255443	1.441783	-0.000170
1315	1.3074e+02	-12.3446	-49.400411	0.000405	4.052803	1.373127	-0.000162
1316	1.3084e+02	-12.3879	-49.565934	0.000415	4.154123	1.407455	-0.000166
1317	1.3094e+02	-12.4296	-49.711271	0.000365	3.647522	1.235814	-0.000146
1318	1.3104e+02	-12.4633	-49.876793	0.000415	4.154123	1.407455	-0.000166
1319	1.3114e+02	-12.5082	-50.030205	0.000385	3.850163	1.304470	-0.000154
1320	1.3124e+02	-12.5483	-50.195727	0.000415	4.154123	1.407455	-0.000166
1321	1.3134e+02	-12.5932	-50.377398	0.000456	4.559403	1.544768	-0.000183
1322	1.3144e+02	-12.6253	-50.534847	0.000395	3.951483	1.338799	-0.000158
1323	1.3154e+02	-12.6718	-50.672109	0.000344	3.444882	1.167158	-0.000138
1324	1.3164e+02	-12.7135	-50.873966	0.000507	5.066003	1.716408	-0.000203
1325	1.3174e+02	-12.7424	-51.039489	0.000415	4.154123	1.407455	-0.000166
1326	1.3184e+02	-12.7905	-51.221160	0.000456	4.559403	1.544768	-0.000183
1327	1.3194e+02	-12.8387	-51.398794	0.000446	4.458083	1.510439	-0.000179
1328	1.3204e+02	-12.8708	-51.576428	0.000446	4.458083	1.510439	-0.000179
1329	1.3214e+02	-12.9141	-51.737913	0.000405	4.052803	1.373127	-0.000162
1330	1.3224e+02	-12.9446	-51.891324	0.000385	3.850163	1.304470	-0.000154
1331	1.3234e+02	-12.9863	-52.125478	0.000588	5.876564	1.991034	-0.000235
1332	1.3243e+02	-13.0200	-52.230444	0.000263	2.634322	0.892532	-0.000105
1333	1.3253e+02	-13.0617	-52.424226	0.000486	4.863363	1.647752	-0.000195
1334	1.3263e+02	-13.1114	-52.561489	0.000344	3.444882	1.167158	-0.000138
1335	1.3273e+02	-13.1483	-52.727011	0.000415	4.154123	1.407455	-0.000166
1336	1.3283e+02	-13.1900	-52.880422	0.000385	3.850163	1.304470	-0.000154
1337	1.3293e+02	-13.2333	-53.066131	0.000466	4.660723	1.579096	-0.000187
1338	1.3303e+02	-13.2542	-53.211468	0.000365	3.647522	1.235814	-0.000146
1339	1.3313e+02	-13.3167	-53.368916	0.000395	3.951483	1.338799	-0.000158
1340	1.3323e+02	-13.3392	-53.566736	0.000496	4.964683	1.682080	-0.000199
1341	1.3333e+02	-13.3777	-53.720147	0.000385	3.850163	1.304470	-0.000154
1342	1.3343e+02	-13.4290	-53.881632	0.000405	4.052803	1.373127	-0.000162
1343	1.3353e+02	-13.4707	-54.018895	0.000344	3.444882	1.167158	-0.000138
1344	1.3363e+02	-13.5076	-54.220752	0.000507	5.066003	1.716408	-0.000203
1345	1.3373e+02	-13.5477	-54.390311	0.000426	4.255443	1.441783	-0.000170
1346	1.3383e+02	-13.5798	-54.531611	0.000355	3.546202	1.201486	-0.000142
1347	1.3393e+02	-13.6199	-54.725393	0.000486	4.863363	1.647752	-0.000195
1348	1.3403e+02	-13.6584	-54.866693	0.000355	3.546202	1.201486	-0.000142
1349	1.3413e+02	-13.7001	-55.068550	0.000507	5.066003	1.716408	-0.000203
1350	1.3423e+02	-13.7403	-55.161404	0.000233	2.330362	0.789548	-0.000093
1351	1.3432e+02	-13.7980	-55.306741	0.000365	3.647522	1.235814	-0.000146
1352	1.3442e+02	-13.8253	-55.520709	0.000537	5.369964	1.819393	-0.000215
1353	1.3452e+02	-13.8654	-55.674120	0.000385	3.850163	1.304470	-0.000154
1354	1.3462e+02	-13.9007	-55.851754	0.000446	4.458083	1.510439	-0.000179
1355	1.3472e+02	-13.9488	-55.993054	0.000355	3.546202	1.201486	-0.000142
1356	1.3482e+02	-13.9777	-56.166651	0.000436	4.356763	1.476111	-0.000174
1357	1.3492e+02	-14.0226	-56.340248	0.000436	4.356763	1.476111	-0.000174
1358	1.3502e+02	-14.0707	-56.497696	0.000395	3.951483	1.338799	-0.000158
1359	1.3512e+02	-14.0996	-56.643033	0.000365	3.647522	1.235814	-0.000146
1360	1.3522e+02	-14.1461	-56.840853	0.000496	4.964683	1.682080	-0.000199
1361	1.3532e+02	-14.1862	-56.982152	0.000355	3.546202	1.201486	-0.000142
1362	1.3542e+02	-14.2183	-57.175935	0.000486	4.863363	1.647752	-0.000195
1363	1.3552e+02	-14.2504	-57.337420	0.000405	4.052803	1.373127	-0.000162
1364	1.3562e+02	-14.2985	-57.543314	0.000517	5.167323	1.750737	-0.000207
1365	1.3572e+02	-14.3354	-57.700763	0.000395	3.951483	1.338799	-0.000158
1366	1.3582e+02	-14.3868	-57.870322	0.000426	4.255443	1.441783	-0.000170
1367	1.3592e+02	-14.4188	-58.003548	0.000334	3.343562	1.132830	-0.000134
1368	1.3602e+02	-14.4606	-58.116588	0.000284	2.836962	0.961189	-0.000114
1369	1.3612e+02	-14.5103	-58.310370	0.000486	4.863363	1.647752	-0.000195
1370	1.3622e+02	-14.5408	-58.463781	0.000385	3.850163	1.304470	-0.000154
1371	1.3631e+02	-14.5809	-58.649489	0.000466	4.660723	1.579096	-0.000187
1372	1.3641e+02	-14.6162	-58.790789	0.000355	3.546202	1.201486	-0.000142
1373	1.3651e+02	-14.6579	-58.984572	0.000486	4.863363	1.647752	-0.000195
1374	1.3661e+02	-14.6948	-59.105686	0.000304	3.039602	1.029845	-0.000122
1375	1.3671e+02	-14.7365	-59.263134	0.000395	3.951483	1.338799	-0.000158
1376	1.3681e+02	-14.7862	-59.432694	0.000426	4.255443	1.441783	-0.000170
1377	1.3691e+02	-14.8151	-59.598216	0.000415	4.154123	1.407455	-0.000166
1378	1.3701e+02	-14.8568	-59.808147	0.000527	5.268644	1.785065	-0.000211
1379	1.3711e+02	-14.9001	-59.945410	0.000344	3.444882	1.167158	-0.000138
1380	1.3721e+02	-14.9466	-60.151304	0.000517	5.167323	1.750737	-0.000207
1381	1.3731e+02	-14.9787	-60.292604	0.000355	3.546202	1.201486	-0.000142
1382	1.3741e+02	-15.0156	-60.494460	0.000507	5.066003	1.716408	-0.000203
1383	1.3751e+02	-15.0589	-60.672094	0.000446	4.458083	1.510439	-0.000179
1384	1.3761e+02	-15.1006	-60.817431	0.000365	3.647522	1.235814	-0.000146
1385	1.3771e+02	-15.1424	-60.914323	0.000243	2.431682	0.823876	-0.000097
1386	1.3781e+02	-15.1744	-61.116179	0.000507	5.066003	1.716408	-0.000203
1387	1.3791e+02	-15.2242	-61.273628	0.000395	3.951483	1.338799	-0.000158
1388	1.3801e+02	-15.2675	-61.439150	0.000415	4.154123	1.407455	-0.000166
1389	1.3811e+02	-15.2932	-61.628896	0.000476	4.762043	1.613424	-0.000191
1390	1.3821e+02	-15.3413	-61.770195	0.000355	3.546202	1.201486	-0.000142
1391	1.3831e+02	-15.3798	-61.939755	0.000426	4.255443	1.441783	-0.000170
1392	1.3840e+02	-15.4151	-62.133538	0.000486	4.863363	1.647752	-0.000195
1393	1.3850e+02	-15.4600	-62.299060	0.000415	4.154123	1.407455	-0.000166
1394	1.3860e+02	-15.5033	-62.464583	0.000415	4.154123	1.407455	-0.000166
1395	1.3870e+02	-15.5434	-62.670477	0.000517	5.167323	1.750737	-0.000207
1396	1.3880e+02	-15.5739	-62.831962	0.000405	4.052803	1.373127	-0.000162
1397	1.3890e+02	-15.6124	-62.969225	0.000344	3.444882	1.167158	-0.000138
1398	1.3900e+02	-15.6557	-63.146859	0.000446	4.458083	1.510439	-0.000179
1399	1.3910e+02	-15.6926	-63.364864	0.000547	5.471284	1.853721	-0.000219
1400	1.3920e+02	-15.7488	-63.502127	0.000344	3.444882	1.167158	-0.000138
1401	1.3930e+02	-15.7776	-63.639389	0.000344	3.444882	1.167158	-0.000138
1402	1.3940e+02	-15.8129	-63.776652	0.000344	3.444882	1.167158	-0.000138
1403	1.3950e+02	-15.8546	-63.954286	0.000446	4.458083	1.510439	-0.000179
1404	1.3960e+02	-15.8996	-64.144031	0.000476	4.762043	1.613424	-0.000191
1405	1.3970e+02	-15.9413	-64.297442	0.000385	3.850163	1.304470	-0.000154
1406	1.3980e+02	-15.9750	-64.454891	0.000395	3.951483	1.338799	-0.000158
1407	1.3990e+02	-16.0167	-64.656747	0.000507	5.066003	1.716408	-0.000203
1408	1.4000e+02	-16.0552	-64.798047	0.000355	3.546202	1.201486	-0.000142
1409	1.4010e+02	-16.1033	-64.979718	0.000456	4.559403	1.544768	-0.000183
1410	1.4020e+02	-16.1306	-65.181575	0.000507	5.066003	1.716408	-0.000203
1411	1.4029e+02	-16.1739	-65.403618	0.000557	5.572604	1.888049	-0.000223
1412	1.4039e+02	-16.2076	-65.585289	0.000456	4.559403	1.544768	-0.000183
1413	1.4049e+02	-16.2493	-65.754848	0.000426	4.255443	1.441783	-0.000170
1414	1.4059e+02	-16.2894	-65.952668	0.000496	4.964683	1.682080	-0.000199
1415	1.4069e+02	-16.3359	-66.110116	0.000395	3.951483	1.338799	-0.000158
1416	1.4079e+02	-16.3776	-66.287750	0.000446	4.458083	1.510439	-0.000179
1417	1.4089e+02	-16.4145	-66.501718	0.000537	5.369964	1.819393	-0.000215
1418	1.4099e+02	-16.4482	-66.630907	0.000324	3.242242	1.098501	-0.000130
1419	1.4109e+02	-16.4947	-66.832764	0.000507	5.066003	1.716408	-0.000203
1420	1.4119e+02	-16.5316	-67.014435	0.000456	4.559403	1.544768	-0.000183
1421	1.4129e+02	-16.5765	-67.220329	0.000517	5.167323	1.750737	-0.000207
1422	1.4139e+02	-16.6182	-67.389888	0.000426	4.255443	1.441783	-0.000170
1423	1.4149e+02	-16.6551	-67.591745	0.000507	5.066003	1.716408	-0.000203
1424	1.4159e+02	-16.6953	-67.850122	0.000648	6.484484	2.197003	-0.000260
1425	1.4169e+02	-16.7225	-68.035830	0.000466	4.660723	1.579096	-0.000187
1426	1.4179e+02	-16.7739	-68.282095	0.000618	6.180524	2.094018	-0.000248
1427	1.4189e+02	-16.8059	-68.467804	0.000466	4.660723	1.579096	-0.000187
1428	1.4199e+02	-16.8509	-68.653512	0.000466	4.660723	1.579096	-0.000187
1429	1.4209e+02	-16.8974	-68.851331	0.000496	4.964683	1.682080	-0.000199
1430	1.4219e+02	-16.9295	-69.117782	0.000669	6.687124	2.265659	-0.000268
1431	1.4228e+02	-16.9632	-69.315602	0.000496	4.964683	1.682080	-0.000199
1432	1.4238e+02	-17.0129	-69.517459	0.000507	5.066003	1.716408	-0.000203
1433	1.4248e+02	-17.0482	-69.739501	0.000557	5.572604	1.888049	-0.000223
1434	1.4258e+02	-17.0995	-69.973655	0.000588	5.876564	1.991034	-0.000235
1435	1.4268e+02	-17.1364	-70.171475	0.000496	4.964683	1.682080	-0.000199
1436	1.4278e+02	-17.1717	-70.385443	0.000537	5.369964	1.819393	-0.000215
1437	1.4288e+02	-17.2102	-70.631708	0.000618	6.180524	2.094018	-0.000248
1438	1.4298e+02	-17.2439	-70.877974	0.000618	6.180524	2.094018	-0.000248
1439	1.4308e+02	-17.2968	-71.144425	0.000669	6.687124	2.265659	-0.000268
1440	1.4318e+02	-17.3257	-71.402801	0.000648	6.484484	2.197003	-0.000260
1441	1.4328e+02	-17.3626	-71.653104	0.000628	6.281844	2.128346	-0.000252
1442	1.4338e+02	-17.4059	-71.846886	0.000486	4.863363	1.647752	-0.000195
1443	1.4348e+02	-17.4589	-72.072966	0.000567	5.673924	1.922377	-0.000227
1444	1.4358e+02	-17.4942	-72.371714	0.000750	7.497685	2.540284	-0.000300
1445	1.4368e+02	-17.5343	-72.666425	0.000740	7.396365	2.505956	-0.000296
1446	1.4378e+02	-17.5696	-72.896541	0.000578	5.775244	1.956706	-0.000231
1447	1.4388e+02	-17.6016	-73.154918	0.000648	6.484484	2.197003	-0.000260
1448	1.4398e+02	-17.6434	-73.364849	0.000527	5.268644	1.785065	-0.000211
1449	1.4408e+02	-17.6883	-73.594966	0.000578	5.775244	1.956706	-0.000231
1450	1.4418e+02	-17.7284	-73.921974	0.000821	8.206925	2.780582	-0.000329
1451	1.4428e+02	-17.7701	-74.180351	0.000648	6.484484	2.197003	-0.000260
1452	1.4437e+02	-17.8038	-74.466987	0.000719	7.193725	2.437300	-0.000288
1453	1.4447e+02	-17.8455	-74.745550	0.000699	6.991085	2.368644	-0.000280
1454	1.4457e+02	-17.8856	-75.044298	0.000750	7.497685	2.540284	-0.000300
1455	1.4467e+02	-17.9289	-75.339009	0.000740	7.396365	2.505956	-0.000296
1456	1.4477e+02	-17.9674	-75.625645	0.000719	7.193725	2.437300	-0.000288
1457	1.4487e+02	-18.0187	-75.928430	0.000760	7.599005	2.574613	-0.000304
1458	1.4497e+02	-18.0460	-76.231216	0.000760	7.599005	2.574613	-0.000304
1459	1.4507e+02	-18.0909	-76.546112	0.000790	7.902965	2.677597	-0.000316
1460	1.4517e+02	-18.1278	-76.816600	0.000679	6.788445	2.299987	-0.000272
1461	1.4527e+02	-18.1631	-77.143608	0.000821	8.206925	2.780582	-0.000329
1462	1.4537e+02	-18.2096	-77.490802	0.000871	8.713526	2.952222	-0.000349
1463	1.4547e+02	-18.2417	-77.813773	0.000811	8.105605	2.746253	-0.000325
1464	1.4557e+02	-18.2834	-78.100409	0.000719	7.193725	2.437300	-0.000288
1465	1.4567e+02	-18.3235	-78.447603	0.000871	8.713526	2.952222	-0.000349
1466	1.4577e+02	-18.3701	-78.798834	0.000881	8.814846	2.986551	-0.000353
1467	1.4587e+02	-18.4054	-79.129879	0.000831	8.308246	2.814910	-0.000333
1468	1.4597e+02	-18.4503	-79.477073	0.000871	8.713526	2.952222	-0.000349
1469	1.4607e+02	-18.4952	-79.804081	0.000821	8.206925	2.780582	-0.000329
1470	1.4617e+02	-18.5305	-80.195683	0.000983	9.828047	3.329832	-0.000394
1471	1.4626e+02	-18.5626	-80.583248	0.000973	9.726726	3.295504	-0.000390
1472	1.4636e+02	-18.6027	-80.918330	0.000841	8.409566	2.849238	-0.000337
1473	1.4646e+02	-18.6444	-81.293784	0.000942	9.422766	3.192520	-0.000377
1474	1.4656e+02	-18.6909	-81.673275	0.000952	9.524086	3.226848	-0.000381
1475	1.4666e+02	-18.7294	-82.032580	0.000902	9.017486	3.055207	-0.000361
1476	1.4676e+02	-18.7535	-82.476665	0.001115	11.145207	3.776098	-0.000446
1477	1.4686e+02	-18.8048	-82.892490	0.001044	10.435967	3.535801	-0.000418
1478	1.4696e+02	-18.8481	-83.259869	0.000922	9.220126	3.123863	-0.000369
1479	1.4706e+02	-18.8754	-83.691842	0.001084	10.841247	3.673114	-0.000434
1480	1.4716e+02	-18.9155	-84.115742	0.001064	10.638607	3.604458	-0.000426
1481	1.4726e+02	-18.9684	-84.479084	0.000912	9.118806	3.089535	-0.000365
1482	1.4736e+02	-19.0037	-84.894909	0.001044	10.435967	3.535801	-0.000418
1483	1.4746e+02	-19.0455	-85.347068	0.001135	11.347848	3.844755	-0.000454
1484	1.4756e+02	-19.0936	-85.775004	0.001074	10.739927	3.638786	-0.000430
1485	1.4766e+02	-19.1192	-86.211015	0.001094	10.942567	3.707442	-0.000438
1486	1.4776e+02	-19.1594	-86.703546	0.001236	12.361048	4.188037	-0.000495
1487	1.4786e+02	-19.2123	-87.139556	0.001094	10.942567	3.707442	-0.000438
1488	1.4796e+02	-19.2428	-87.615938	0.001196	11.955768	4.050724	-0.000479
1489	1.4806e+02	-19.2861	-88.088283	0.001185	11.854448	4.016396	-0.000475
1490	1.4816e+02	-19.3310	-88.564665	0.001196	11.955768	4.050724	-0.000479
1491	1.4825e+02	-19.3743	-89.113716	0.001378	13.779529	4.668631	-0.000552
1492	1.4835e+02	-19.3968	-89.582023	0.001175	11.753128	3.982068	-0.000471
1493	1.4845e+02	-19.4305	-90.094740	0.001287	12.867649	4.359677	-0.000515
1494	1.4855e+02	-19.4850	-90.603419	0.001277	12.766329	4.325349	-0.000511
1495	1.4865e+02	-19.5203	-91.120172	0.001297	12.968969	4.394006	-0.000519
1496	1.4875e+02	-19.5508	-91.661148	0.001358	13.576889	4.599975	-0.000544
1497	1.4885e+02	-19.6021	-92.185976	0.001317	13.171609	4.462662	-0.000527
1498	1.4895e+02	-19.6502	-92.739064	0.001388	13.880849	4.702959	-0.000556
1499	1.4905e+02	-19.6823	-93.300225	0.001408	14.083489	4.771615	-0.000564
1500	1.4915e+02	-19.7160	-93.857350	0.001398	13.982169	4.737287	-0.000560
1501	1.4925e+02	-19.7690	-94.422549	0.001418	14.184809	4.805944	-0.000568
1502	1.4935e+02	-19.7994	-94.943340	0.001307	13.070289	4.428334	-0.000523
1503	1.4945e+02	-19.8412	-95.512576	0.001429	14.286130	4.840272	-0.000572
1504	1.4955e+02	-19.8780	-96.130258	0.001550	15.501970	5.252210	-0.000621
1505	1.4965e+02	-19.9101	-96.764088	0.001591	15.907251	5.389522	-0.000637
1506	1.4975e+02	-19.9599	-97.418104	0.001641	16.413851	5.561163	-0.000657
1507	1.4985e+02	-20.0000	-98.043860	0.001570	15.704610	5.320866	-0.000629
1508	1.4995e+02	-19.9631	-98.378942	-0.000841	-8.409566	-2.849238	-0.000337
1509	1.5005e+02	-19.9214	-98.718062	-0.000851	-8.510886	-2.883566	-0.000341
1510	1.5015e+02	-19.8732	-98.984513	-0.000669	-6.687124	-2.265659	-0.000268
1511	1.5025e+02	-19.8412	-99.299409	-0.000790	-7.902965	-2.677597	-0.000316
1512	1.5034e+02	-19.8075	-99.497229	-0.000496	-4.964683	-1.682080	-0.000199
1513	1.5044e+02	-19.7658	-99.755606	-0.000648	-6.484484	-2.197003	-0.000260
1514	1.5054e+02	-19.7208	-99.953425	-0.000496	-4.964683	-1.682080	-0.000199
1515	1.5064e+02	-19.6775	-100.147208	-0.000486	-4.863363	-1.647752	-0.000195
1516	1.5074e+02	-19.6374	-100.324842	-0.000446	-4.458083	-1.510439	-0.000179
1517	1.5084e+02	-19.6069	-100.482290	-0.000395	-3.951483	-1.338799	-0.000158
1518	1.5094e+02	-19.5476	-100.595330	-0.000284	-2.836962	-0.961189	-0.000114
1519	1.5104e+02	-19.5171	-100.748741	-0.000385	-3.850163	-1.304470	-0.000154
1520	1.5114e+02	-19.4866	-100.861781	-0.000284	-2.836962	-0.961189	-0.000114
1521	1.5124e+02	-19.4417	-100.970783	-0.000274	-2.735642	-0.926861	-0.000110
1522	1.5134e+02	-19.4064	-101.059600	-0.000223	-2.229041	-0.755220	-0.000089
1523	1.5144e+02	-19.3647	-101.168603	-0.000274	-2.735642	-0.926861	-0.000110
1524	1.5154e+02	-19.3278	-101.188789	-0.000051	-0.506600	-0.171641	-0.000020
1525	1.5164e+02	-19.2909	-101.338163	-0.000375	-3.748843	-1.270142	-0.000150
1526	1.5174e+02	-19.2508	-101.350274	-0.000030	-0.303960	-0.102985	-0.000012
1527	1.5184e+02	-19.2091	-101.394683	-0.000111	-1.114521	-0.377610	-0.000045
1528	1.5194e+02	-19.1610	-101.451203	-0.000142	-1.418481	-0.480594	-0.000057
1529	1.5204e+02	-19.1192	-101.515797	-0.000162	-1.621121	-0.549251	-0.000065
1530	1.5214e+02	-19.0872	-101.531945	-0.000041	-0.405280	-0.137313	-0.000016
1531	1.5224e+02	-19.0406	-101.552131	-0.000051	-0.506600	-0.171641	-0.000020
1532	1.5233e+02	-19.0086	-101.576354	-0.000061	-0.607920	-0.205969	-0.000024
1533	1.5243e+02	-18.9572	-101.560205	0.000041	0.405280	0.137313	0.000016
1534	1.5253e+02	-18.9203	-101.552131	0.000020	0.202640	0.068656	0.000008
1535	1.5263e+02	-18.8786	-101.499648	0.000132	1.317161	0.446266	0.000053
1536	1.5273e+02	-18.8353	-101.495611	0.000010	0.101320	0.034328	0.000004
1537	1.5283e+02	-18.7968	-101.515797	-0.000051	-0.506600	-0.171641	-0.000020
1538	1.5293e+02	-18.7647	-101.471388	0.000111	1.114521	0.377610	0.000045
1539	1.5303e+02	-18.7262	-101.439091	0.000081	0.810561	0.274625	0.000032
1540	1.5313e+02	-18.6813	-101.390645	0.000122	1.215841	0.411938	0.000049
1541	1.5323e+02	-18.6492	-101.370460	0.000051	0.506600	0.171641	0.000020
1542	1.5333e+02	-18.6027	-101.326051	0.000111	1.114521	0.377610	0.000045
1543	1.5343e+02	-18.5690	-101.305866	0.000051	0.506600	0.171641	0.000020
1544	1.5353e+02	-18.5257	-101.253383	0.000132	1.317161	0.446266	0.000053
1545	1.5363e+02	-18.4792	-101.200900	0.000132	1.317161	0.446266	0.000053
1546	1.5373e+02	-18.4471	-101.184752	0.000041	0.405280	0.137313	0.000016
1547	1.5383e+02	-18.4038	-101.128232	0.000142	1.418481	0.480594	0.000057
1548	1.5393e+02	-18.3653	-101.031340	0.000243	2.431682	0.823876	0.000097
1549	1.5403e+02	-18.3284	-100.946561	0.000213	2.127721	0.720892	0.000085
1550	1.5413e+02	-18.2931	-100.845632	0.000253	2.533002	0.858204	0.000101
1551	1.5422e+02	-18.2449	-100.813335	0.000081	0.810561	0.274625	0.000032
1552	1.5432e+02	-18.2129	-100.728555	0.000213	2.127721	0.720892	0.000085
1553	1.5442e+02	-18.1711	-100.651850	0.000193	1.925081	0.652235	0.000077
1554	1.5452e+02	-18.1375	-100.575144	0.000193	1.925081	0.652235	0.000077
1555	1.5462e+02	-18.0909	-100.514587	0.000152	1.519801	0.514923	0.000061
1556	1.5472e+02	-18.0476	-100.417696	0.000243	2.431682	0.823876	0.000097
1557	1.5482e+02	-18.0075	-100.361176	0.000142	1.418481	0.480594	0.000057
1558	1.5492e+02	-17.9674	-100.300619	0.000152	1.519801	0.514923	0.000061
1559	1.5502e+02	-17.9337	-100.187579	0.000284	2.836962	0.961189	0.000114
1560	1.5512e+02	-17.8888	-100.090688	0.000243	2.431682	0.823876	0.000097
1561	1.5522e+02	-17.8535	-99.981685	0.000274	2.735642	0.926861	0.000110
1562	1.5532e+02	-17.8086	-99.872682	0.000274	2.735642	0.926861	0.000110
1563	1.5542e+02	-17.7637	-99.820200	0.000132	1.317161	0.446266	0.000053
1564	1.5552e+02	-17.7236	-99.699086	0.000304	3.039602	1.029845	0.000122
1565	1.5562e+02	-17.7011	-99.606231	0.000233	2.330362	0.789548	0.000093
1566	1.5572e+02	-17.6482	-99.493192	0.000284	2.836962	0.961189	0.000114
1567	1.5582e+02	-17.6161	-99.392263	0.000253	2.533002	0.858204	0.000101
1568	1.5592e+02	-17.5712	-99.279224	0.000284	2.836962	0.961189	0.000114
1569	1.5602e+02	-17.5230	-99.166184	0.000284	2.836962	0.961189	0.000114
1570	1.5612e+02	-17.4861	-99.093515	0.000182	1.823761	0.617907	0.000073
1571	1.5622e+02	-17.4492	-99.016810	0.000193	1.925081	0.652235	0.000077
1572	1.5631e+02	-17.4059	-98.903770	0.000284	2.836962	0.961189	0.000114
1573	1.5641e+02	-17.3851	-98.766507	0.000344	3.444882	1.167158	0.000138
1574	1.5651e+02	-17.3289	-98.661542	0.000263	2.634322	0.892532	0.000105
1575	1.5661e+02	-17.3033	-98.564650	0.000243	2.431682	0.823876	0.000097
1576	1.5671e+02	-17.2519	-98.435462	0.000324	3.242242	1.098501	0.000130
1577	1.5681e+02	-17.2198	-98.318385	0.000294	2.938282	0.995517	0.000118
1578	1.5691e+02	-17.1717	-98.225531	0.000233	2.330362	0.789548	0.000093
1579	1.5701e+02	-17.1300	-98.120566	0.000263	2.634322	0.892532	0.000105
1580	1.5711e+02	-17.0947	-98.003489	0.000294	2.938282	0.995517	0.000118
1581	1.5721e+02	-17.0450	-97.886412	0.000294	2.938282	0.995517	0.000118
1582	1.5731e+02	-17.0081	-97.737038	0.000375	3.748843	1.270142	0.000150
1583	1.5741e+02	-16.9680	-97.644184	0.000233	2.330362	0.789548	0.000093
1584	1.5751e+02	-16.9407	-97.523069	0.000304	3.039602	1.029845	0.000122
1585	1.5761e+02	-16.8926	-97.373695	0.000375	3.748843	1.270142	0.000150
1586	1.5771e+02	-16.8460	-97.228359	0.000365	3.647522	1.235814	0.000146
1587	1.5781e+02	-16.8108	-97.147616	0.000203	2.026401	0.686563	0.000081
1588	1.5791e+02	-16.7706	-97.046687	0.000253	2.533002	0.858204	0.000101
1589	1.5801e+02	-16.7225	-96.929611	0.000294	2.938282	0.995517	0.000118
1590	1.5811e+02	-16.6936	-96.788311	0.000355	3.546202	1.201486	0.000142
1591	1.5821e+02	-16.6519	-96.667197	0.000304	3.039602	1.029845	0.000122
1592	1.5830e+02	-16.6054	-96.602603	0.000162	1.621121	0.549251	0.000065
1593	1.5840e+02	-16.5797	-96.424969	0.000446	4.458083	1.510439	0.000179
1594	1.5850e+02	-16.5332	-96.332114	0.000233	2.330362	0.789548	0.000093
1595	1.5860e+02	-16.4915	-96.227149	0.000263	2.634322	0.892532	0.000105
1596	1.5870e+02	-16.4498	-96.093923	0.000334	3.343562	1.132830	0.000134
1597	1.5880e+02	-16.4161	-96.025292	0.000172	1.722441	0.583579	0.000069
1598	1.5890e+02	-16.3680	-95.839584	0.000466	4.660723	1.579096	0.000187
1599	1.5900e+02	-16.3279	-95.694247	0.000365	3.647522	1.235814	0.000146
1600	1.5910e+02	-16.2958	-95.609467	0.000213	2.127721	0.720892	0.000085
1601	1.5920e+02	-16.2605	-95.456056	0.000385	3.850163	1.304470	0.000154
1602	1.5930e+02	-16.2076	-95.318793	0.000344	3.444882	1.167158	0.000138
1603	1.5940e+02	-16.1739	-95.234013	0.000213	2.127721	0.720892	0.000085
1604	1.5950e+02	-16.1370	-95.112899	0.000304	3.039602	1.029845	0.000122
1605	1.5960e+02	-16.0953	-95.011971	0.000253	2.533002	0.858204	0.000101
1606	1.5970e+02	-16.0568	-94.854523	0.000395	3.951483	1.338799	0.000158
1607	1.5980e+02	-16.0199	-94.729372	0.000314	3.140922	1.064173	0.000126
1608	1.5990e+02	-15.9685	-94.596146	0.000334	3.343562	1.132830	0.000134
1609	1.6000e+02	-15.9429	-94.495218	0.000253	2.533002	0.858204	0.000101
1610	1.6010e+02	-15.8899	-94.357955	0.000344	3.444882	1.167158	0.000138
1611	1.6019e+02	-15.8627	-94.252990	0.000263	2.634322	0.892532	0.000105
1612	1.6029e+02	-15.8161	-94.135913	0.000294	2.938282	0.995517	0.000118
1613	1.6039e+02	-15.7792	-93.994613	0.000355	3.546202	1.201486	0.000142
1614	1.6049e+02	-15.7391	-93.792756	0.000507	5.066003	1.716408	0.000203
1615	1.6059e+02	-15.7022	-93.679716	0.000284	2.836962	0.961189	0.000114
1616	1.6069e+02	-15.6557	-93.510157	0.000426	4.255443	1.441783	0.000170
1617	1.6079e+02	-15.6188	-93.405191	0.000263	2.634322	0.892532	0.000105
1618	1.6089e+02	-15.5739	-93.304263	0.000253	2.533002	0.858204	0.000101
1619	1.6099e+02	-15.5466	-93.219483	0.000213	2.127721	0.720892	0.000085
1620	1.6109e+02	-15.4937	-93.062034	0.000395	3.951483	1.338799	0.000158
1621	1.6119e+02	-15.4600	-92.892475	0.000426	4.255443	1.441783	0.000170
1622	1.6129e+02	-15.4119	-92.763286	0.000324	3.242242	1.098501	0.000130
1623	1.6139e+02	-15.3782	-92.634098	0.000324	3.242242	1.098501	0.000130
1624	1.6149e+02	-15.3349	-92.508947	0.000314	3.140922	1.064173	0.000126
1625	1.6159e+02	-15.2980	-92.371684	0.000344	3.444882	1.167158	0.000138
1626	1.6169e+02	-15.2546	-92.274793	0.000243	2.431682	0.823876	0.000097
1627	1.6179e+02	-15.2161	-92.113308	0.000405	4.052803	1.373127	0.000162
1628	1.6189e+02	-15.1857	-91.980082	0.000334	3.343562	1.132830	0.000134
1629	1.6199e+02	-15.1424	-91.826671	0.000385	3.850163	1.304470	0.000154
1630	1.6209e+02	-15.0894	-91.681334	0.000365	3.647522	1.235814	0.000146
1631	1.6219e+02	-15.0589	-91.568294	0.000284	2.836962	0.961189	0.000114
1632	1.6228e+02	-15.0204	-91.406809	0.000405	4.052803	1.373127	0.000162
1633	1.6238e+02	-14.9739	-91.330103	0.000193	1.925081	0.652235	0.000077
1634	1.6248e+02	-14.9434	-91.164581	0.000415	4.154123	1.407455	0.000166
1635	1.6258e+02	-14.8969	-91.039429	0.000314	3.140922	1.064173	0.000126
1636	1.6268e+02	-14.8600	-90.894093	0.000365	3.647522	1.235814	0.000146
1637	1.6278e+02	-14.8183	-90.740681	0.000385	3.850163	1.304470	0.000154
1638	1.6288e+02	-14.7830	-90.631679	0.000274	2.735642	0.926861	0.000110
1639	1.6298e+02	-14.7381	-90.522676	0.000274	2.735642	0.926861	0.000110
1640	1.6308e+02	-14.7028	-90.373302	0.000375	3.748843	1.270142	0.000150
1641	1.6318e+02	-14.6643	-90.219891	0.000385	3.850163	1.304470	0.000154
1642	1.6328e+02	-14.6226	-90.078591	0.000355	3.546202	1.201486	0.000142
1643	1.6338e+02	-14.5873	-89.921143	0.000395	3.951483	1.338799	0.000158
1644	1.6348e+02	-14.5376	-89.775806	0.000365	3.647522	1.235814	0.000146
1645	1.6358e+02	-14.5007	-89.602209	0.000436	4.356763	1.476111	0.000174
1646	1.6368e+02	-14.4541	-89.464947	0.000344	3.444882	1.167158	0.000138
1647	1.6378e+02	-14.4204	-89.359981	0.000263	2.634322	0.892532	0.000105
1648	1.6388e+02	-14.3787	-89.230793	0.000324	3.242242	1.098501	0.000130
1649	1.6398e+02	-14.3434	-89.113716	0.000294	2.938282	0.995517	0.000118
1650	1.6408e+02	-14.3065	-88.988565	0.000314	3.140922	1.064173	0.000126
1651	1.6418e+02	-14.2632	-88.790745	0.000496	4.964683	1.682080	0.000199
1652	1.6427e+02	-14.2231	-88.677705	0.000284	2.836962	0.961189	0.000114
1653	1.6437e+02	-14.1830	-88.564665	0.000284	2.836962	0.961189	0.000114
1654	1.6447e+02	-14.1477	-88.403180	0.000405	4.052803	1.373127	0.000162
1655	1.6457e+02	-14.0980	-88.273991	0.000324	3.242242	1.098501	0.000130
1656	1.6467e+02	-14.0563	-88.144803	0.000324	3.242242	1.098501	0.000130
1657	1.6477e+02	-14.0274	-88.011578	0.000334	3.343562	1.132830	0.000134
1658	1.6487e+02	-13.9857	-87.846055	0.000415	4.154123	1.407455	0.000166
1659	1.6497e+02	-13.9440	-87.672458	0.000436	4.356763	1.476111	0.000174
1660	1.6507e+02	-13.9007	-87.543270	0.000324	3.242242	1.098501	0.000130
1661	1.6517e+02	-13.8654	-87.406007	0.000344	3.444882	1.167158	0.000138
1662	1.6527e+02	-13.8269	-87.216262	0.000476	4.762043	1.613424	0.000191
1663	1.6537e+02	-13.7852	-87.147631	0.000172	1.722441	0.583579	0.000069
1664	1.6547e+02	-13.7531	-86.978071	0.000426	4.255443	1.441783	0.000170
1665	1.6557e+02	-13.7018	-86.840808	0.000344	3.444882	1.167158	0.000138
1666	1.6567e+02	-13.6616	-86.719694	0.000304	3.039602	1.029845	0.000122
1667	1.6577e+02	-13.6247	-86.590506	0.000324	3.242242	1.098501	0.000130
1668	1.6587e+02	-13.5911	-86.429020	0.000405	4.052803	1.373127	0.000162
1669	1.6597e+02	-13.5445	-86.287721	0.000355	3.546202	1.201486	0.000142
1670	1.6607e+02	-13.5028	-86.146421	0.000355	3.546202	1.201486	0.000142
1671	1.6616e+02	-13.4723	-86.033381	0.000284	2.836962	0.961189	0.000114
1672	1.6626e+02	-13.4242	-85.847673	0.000466	4.660723	1.579096	0.000187
1673	1.6636e+02	-13.3905	-85.730596	0.000294	2.938282	0.995517	0.000118
1674	1.6646e+02	-13.3472	-85.569111	0.000405	4.052803	1.373127	0.000162
1675	1.6656e+02	-13.3103	-85.419737	0.000375	3.748843	1.270142	0.000150
1676	1.6666e+02	-13.2702	-85.234028	0.000466	4.660723	1.579096	0.000187
1677	1.6676e+02	-13.2349	-85.100803	0.000334	3.343562	1.132830	0.000134
1678	1.6686e+02	-13.1868	-84.939317	0.000405	4.052803	1.373127	0.000162
1679	1.6696e+02	-13.1563	-84.826278	0.000284	2.836962	0.961189	0.000114
1680	1.6706e+02	-13.1034	-84.656718	0.000426	4.255443	1.441783	0.000170
1681	1.6716e+02	-13.0681	-84.515418	0.000355	3.546202	1.201486	0.000142
1682	1.6726e+02	-13.0280	-84.345858	0.000426	4.255443	1.441783	0.000170
1683	1.6736e+02	-12.9879	-84.220707	0.000314	3.140922	1.064173	0.000126
1684	1.6746e+02	-12.9494	-84.071333	0.000375	3.748843	1.270142	0.000150
1685	1.6756e+02	-12.9077	-83.934071	0.000344	3.444882	1.167158	0.000138
1686	1.6766e+02	-12.8676	-83.796808	0.000344	3.444882	1.167158	0.000138
1687	1.6776e+02	-12.8323	-83.607063	0.000476	4.762043	1.613424	0.000191
1688	1.6786e+02	-12.7857	-83.502097	0.000263	2.634322	0.892532	0.000105
1689	1.6796e+02	-12.7456	-83.316389	0.000466	4.660723	1.579096	0.000187
1690	1.6806e+02	-12.6975	-83.175089	0.000355	3.546202	1.201486	0.000142
1691	1.6816e+02	-12.6638	-83.029752	0.000365	3.647522	1.235814	0.000146
1692	1.6825e+02	-12.6285	-82.892490	0.000344	3.444882	1.167158	0.000138
1693	1.6835e+02	-12.5884	-82.686596	0.000517	5.167323	1.750737	0.000207
1694	1.6845e+02	-12.5483	-82.569519	0.000294	2.938282	0.995517	0.000118
1695	1.6855e+02	-12.5114	-82.383810	0.000466	4.660723	1.579096	0.000187
1696	1.6865e+02	-12.4633	-82.250585	0.000334	3.343562	1.132830	0.000134
1697	1.6875e+02	-12.4184	-82.117359	0.000334	3.343562	1.132830	0.000134
1698	1.6885e+02	-12.3895	-81.947800	0.000426	4.255443	1.441783	0.000170
1699	1.6895e+02	-12.3462	-81.798426	0.000375	3.748843	1.270142	0.000150
1700	1.6905e+02	-12.3141	-81.693460	0.000263	2.634322	0.892532	0.000105
1701	1.6915e+02	-12.2692	-81.503715	0.000476	4.762043	1.613424	0.000191
1702	1.6925e+02	-12.2355	-81.342229	0.000405	4.052803	1.373127	0.000162
1703	1.6935e+02	-12.1890	-81.261487	0.000203	2.026401	0.686563	0.000081
1704	1.6945e+02	-12.1553	-81.059630	0.000507	5.066003	1.716408	0.000203
1705	1.6955e+02	-12.1087	-80.894107	0.000415	4.154123	1.407455	0.000166
1706	1.6965e+02	-12.0670	-80.760882	0.000334	3.343562	1.132830	0.000134
1707	1.6975e+02	-12.0317	-80.607471	0.000385	3.850163	1.304470	0.000154
1708	1.6985e+02	-11.9820	-80.458097	0.000375	3.748843	1.270142	0.000150
1709	1.6995e+02	-11.9563	-80.280463	0.000446	4.458083	1.510439	0.000179
1710	1.7005e+02	-11.9114	-80.147237	0.000334	3.343562	1.132830	0.000134
1711	1.7015e+02	-11.8761	-80.018049	0.000324	3.242242	1.098501	0.000130
1712	1.7024e+02	-11.8296	-79.820229	0.000496	4.964683	1.682080	0.000199
1713	1.7034e+02	-11.7943	-79.662781	0.000395	3.951483	1.338799	0.000158
1714	1.7044e+02	-11.7398	-79.533593	0.000324	3.242242	1.098501	0.000130
1715	1.7054e+02	-11.7157	-79.359996	0.000436	4.356763	1.476111	0.000174
1716	1.7064e+02	-11.6740	-79.182362	0.000446	4.458083	1.510439	0.000179
1717	1.7074e+02	-11.6355	-79.057211	0.000314	3.140922	1.064173	0.000126
1718	1.7084e+02	-11.5890	-78.903799	0.000385	3.850163	1.304470	0.000154
1719	1.7094e+02	-11.5681	-78.754425	0.000375	3.748843	1.270142	0.000150
1720	1.7104e+02	-11.5184	-78.665608	0.000223	2.229041	0.755220	0.000089
1721	1.7114e+02	-11.4671	-78.475863	0.000476	4.762043	1.613424	0.000191
1722	1.7124e+02	-11.4334	-78.257858	0.000547	5.471284	1.853721	0.000219
1723	1.7134e+02	-11.3933	-78.132707	0.000314	3.140922	1.064173	0.000126
1724	1.7144e+02	-11.3516	-77.975258	0.000395	3.951483	1.338799	0.000158
1725	1.7154e+02	-11.3130	-77.797624	0.000446	4.458083	1.510439	0.000179
1726	1.7164e+02	-11.2729	-77.680547	0.000294	2.938282	0.995517	0.000118
1727	1.7174e+02	-11.2312	-77.523099	0.000395	3.951483	1.338799	0.000158
1728	1.7184e+02	-11.1943	-77.353539	0.000426	4.255443	1.441783	0.000170
1729	1.7194e+02	-11.1462	-77.212240	0.000355	3.546202	1.201486	0.000142
1730	1.7204e+02	-11.1157	-77.058828	0.000385	3.850163	1.304470	0.000154
1731	1.7213e+02	-11.0852	-76.889269	0.000426	4.255443	1.441783	0.000170
1732	1.7223e+02	-11.0291	-76.739895	0.000375	3.748843	1.270142	0.000150
1733	1.7233e+02	-10.9906	-76.586484	0.000385	3.850163	1.304470	0.000154
1734	1.7243e+02	-10.9569	-76.441147	0.000365	3.647522	1.235814	0.000146
1735	1.7253e+02	-10.9168	-76.251401	0.000476	4.762043	1.613424	0.000191
1736	1.7263e+02	-10.8831	-76.097990	0.000385	3.850163	1.304470	0.000154
1737	1.7273e+02	-10.8254	-75.948616	0.000375	3.748843	1.270142	0.000150
1738	1.7283e+02	-10.7933	-75.791168	0.000395	3.951483	1.338799	0.000158
1739	1.7293e+02	-10.7596	-75.617571	0.000436	4.356763	1.476111	0.000174
1740	1.7303e+02	-10.7179	-75.443974	0.000436	4.356763	1.476111	0.000174
1741	1.7313e+02	-10.6794	-75.318823	0.000314	3.140922	1.064173	0.000126
1742	1.7323e+02	-10.6361	-75.121003	0.000496	4.964683	1.682080	0.000199
1743	1.7333e+02	-10.5992	-74.995852	0.000314	3.140922	1.064173	0.000126
1744	1.7343e+02	-10.5559	-74.826292	0.000426	4.255443	1.441783	0.000170
1745	1.7353e+02	-10.5206	-74.644621	0.000456	4.559403	1.544768	0.000183
1746	1.7363e+02	-10.4724	-74.507359	0.000344	3.444882	1.167158	0.000138
1747	1.7373e+02	-10.4323	-74.378170	0.000324	3.242242	1.098501	0.000130
1748	1.7383e+02	-10.3922	-74.204573	0.000436	4.356763	1.476111	0.000174
1749	1.7393e+02	-10.3601	-74.002717	0.000507	5.066003	1.716408	0.000203
1750	1.7403e+02	-10.3200	-73.800860	0.000507	5.066003	1.716408	0.000203
1751	1.7413e+02	-10.2831	-73.683783	0.000294	2.938282	0.995517	0.000118
1752	1.7422e+02	-10.2430	-73.506149	0.000446	4.458083	1.510439	0.000179
1753	1.7432e+02	-10.2077	-73.360812	0.000365	3.647522	1.235814	0.000146
1754	1.7442e+02	-10.1628	-73.171067	0.000476	4.762043	1.613424	0.000191
1755	1.7452e+02	-10.1131	-73.098398	0.000182	1.823761	0.617907	0.000073
1756	1.7462e+02	-10.0890	-72.924801	0.000436	4.356763	1.476111	0.000174
1757	1.7472e+02	-10.0489	-72.714870	0.000527	5.268644	1.785065	0.000211
1758	1.7482e+02	-9.9976	-72.597793	0.000294	2.938282	0.995517	0.000118
1759	1.7492e+02	-9.9607	-72.399974	0.000496	4.964683	1.682080	0.000199
1760	1.7502e+02	-9.9254	-72.282897	0.000294	2.938282	0.995517	0.000118
1761	1.7512e+02	-9.8708	-72.113337	0.000426	4.255443	1.441783	0.000170
1762	1.7522e+02	-9.8323	-71.947815	0.000415	4.154123	1.407455	0.000166
1763	1.7532e+02	-9.8035	-71.774218	0.000436	4.356763	1.476111	0.000174
1764	1.7542e+02	-9.7666	-71.632918	0.000355	3.546202	1.201486	0.000142
1765	1.7552e+02	-9.7152	-71.459321	0.000436	4.356763	1.476111	0.000174
1766	1.7562e+02	-9.6799	-71.309947	0.000375	3.748843	1.270142	0.000150
1767	1.7572e+02	-9.6398	-71.132313	0.000446	4.458083	1.510439	0.000179
1768	1.7582e+02	-9.5997	-70.954679	0.000446	4.458083	1.510439	0.000179
1769	1.7592e+02	-9.5580	-70.833565	0.000304	3.039602	1.029845	0.000122
1770	1.7602e+02	-9.5179	-70.672080	0.000405	4.052803	1.373127	0.000162
1771	1.7612e+02	-9.4826	-70.490409	0.000456	4.559403	1.544768	0.000183
1772	1.7621e+02	-9.4425	-70.336997	0.000385	3.850163	1.304470	0.000154
1773	1.7631e+02	-9.4056	-70.183586	0.000385	3.850163	1.304470	0.000154
1774	1.7641e+02	-9.3719	-69.981729	0.000507	5.066003	1.716408	0.000203
1775	1.7651e+02	-9.3222	-69.832355	0.000375	3.748843	1.270142	0.000150
1776	1.7661e+02	-9.2789	-69.682981	0.000375	3.748843	1.270142	0.000150
1777	1.7671e+02	-9.2500	-69.541682	0.000355	3.546202	1.201486	0.000142
1778	1.7681e+02	-9.1955	-69.331751	0.000527	5.268644	1.785065	0.000211
1779	1.7691e+02	-9.1586	-69.178339	0.000385	3.850163	1.304470	0.000154
1780	1.7701e+02	-9.1249	-69.028965	0.000375	3.748843	1.270142	0.000150
1781	1.7711e+02	-9.0912	-68.863443	0.000415	4.154123	1.407455	0.000166
1782	1.7721e+02	-9.0334	-68.689846	0.000436	4.356763	1.476111	0.000174
1783	1.7731e+02	-9.0030	-68.544509	0.000365	3.647522	1.235814	0.000146
1784	1.7741e+02	-8.9532	-68.374949	0.000426	4.255443	1.441783	0.000170
1785	1.7751e+02	-8.9211	-68.221538	0.000385	3.850163	1.304470	0.000154
1786	1.7761e+02	-8.8891	-68.064090	0.000395	3.951483	1.338799	0.000158
1787	1.7771e+02	-8.8473	-67.922790	0.000355	3.546202	1.201486	0.000142
1788	1.7781e+02	-8.8072	-67.781490	0.000355	3.546202	1.201486	0.000142
1789	1.7791e+02	-8.7559	-67.535225	0.000618	6.180524	2.094018	0.000248
1790	1.7801e+02	-8.7254	-67.353554	0.000456	4.559403	1.544768	0.000183
1791	1.7810e+02	-8.6789	-67.183994	0.000426	4.255443	1.441783	0.000170
1792	1.7820e+02	-8.6484	-67.014435	0.000426	4.255443	1.441783	0.000170
1793	1.7830e+02	-8.6131	-66.836801	0.000446	4.458083	1.510439	0.000179
1794	1.7840e+02	-8.5570	-66.683390	0.000385	3.850163	1.304470	0.000154
1795	1.7850e+02	-8.5265	-66.546127	0.000344	3.444882	1.167158	0.000138
1796	1.7860e+02	-8.4896	-66.348307	0.000496	4.964683	1.682080	0.000199
1797	1.7870e+02	-8.4463	-66.138376	0.000527	5.268644	1.785065	0.000211
1798	1.7880e+02	-8.4142	-66.069745	0.000172	1.722441	0.583579	0.000069
1799	1.7890e+02	-8.3597	-65.880000	0.000476	4.762043	1.613424	0.000191
1800	1.7900e+02	-8.3340	-65.706403	0.000436	4.356763	1.476111	0.000174
1801	1.7910e+02	-8.2923	-65.561066	0.000365	3.647522	1.235814	0.000146
1802	1.7920e+02	-8.2393	-65.387469	0.000436	4.356763	1.476111	0.000174
1803	1.7930e+02	-8.2040	-65.225984	0.000405	4.052803	1.373127	0.000162
1804	1.7940e+02	-8.1704	-65.072572	0.000385	3.850163	1.304470	0.000154
1805	1.7950e+02	-8.1303	-64.846493	0.000567	5.673924	1.922377	0.000227
1806	1.7960e+02	-8.0853	-64.717304	0.000324	3.242242	1.098501	0.000130
1807	1.7970e+02	-8.0484	-64.519485	0.000496	4.964683	1.682080	0.000199
1808	1.7980e+02	-8.0083	-64.321665	0.000496	4.964683	1.682080	0.000199
1809	1.7990e+02	-7.9666	-64.168254	0.000385	3.850163	1.304470	0.000154
1810	1.8000e+02	-7.9201	-64.022917	0.000365	3.647522	1.235814	0.000146
1811	1.8009e+02	-7.8848	-63.825097	0.000496	4.964683	1.682080	0.000199
1812	1.8019e+02	-7.8495	-63.659575	0.000415	4.154123	1.407455	0.000166
1813	1.8029e+02	-7.8078	-63.506164	0.000385	3.850163	1.304470	0.000154
1814	1.8039e+02	-7.7709	-63.340641	0.000415	4.154123	1.407455	0.000166
1815	1.8049e+02	-7.7388	-63.175119	0.000415	4.154123	1.407455	0.000166
1816	1.8059e+02	-7.6891	-63.001522	0.000436	4.356763	1.476111	0.000174
1817	1.8069e+02	-7.6490	-62.864259	0.000344	3.444882	1.167158	0.000138
1818	1.8079e+02	-7.6041	-62.658365	0.000517	5.167323	1.750737	0.000207
1819	1.8089e+02	-7.5688	-62.500917	0.000395	3.951483	1.338799	0.000158
1820	1.8099e+02	-7.5255	-62.319246	0.000456	4.559403	1.544768	0.000183
1821	1.8109e+02	-7.4918	-62.169872	0.000375	3.748843	1.270142	0.000150
1822	1.8119e+02	-7.4613	-61.943792	0.000567	5.673924	1.922377	0.000227
1823	1.8129e+02	-7.4019	-61.798455	0.000365	3.647522	1.235814	0.000146
1824	1.8139e+02	-7.3666	-61.645044	0.000385	3.850163	1.304470	0.000154
1825	1.8149e+02	-7.3329	-61.455299	0.000476	4.762043	1.613424	0.000191
1826	1.8159e+02	-7.2912	-61.281702	0.000436	4.356763	1.476111	0.000174
1827	1.8169e+02	-7.2479	-61.104068	0.000446	4.458083	1.510439	0.000179
1828	1.8179e+02	-7.2062	-60.926434	0.000446	4.458083	1.510439	0.000179
1829	1.8189e+02	-7.1613	-60.785134	0.000355	3.546202	1.201486	0.000142
1830	1.8199e+02	-7.1244	-60.623649	0.000405	4.052803	1.373127	0.000162
1831	1.8209e+02	-7.0907	-60.441978	0.000456	4.559403	1.544768	0.000183
1832	1.8218e+02	-7.0554	-60.248195	0.000486	4.863363	1.647752	0.000195
1833	1.8228e+02	-7.0073	-60.127081	0.000304	3.039602	1.029845	0.000122
1834	1.8238e+02	-6.9736	-59.921187	0.000517	5.167323	1.750737	0.000207
1835	1.8248e+02	-6.9287	-59.727405	0.000486	4.863363	1.647752	0.000195
1836	1.8258e+02	-6.8950	-59.582068	0.000365	3.647522	1.235814	0.000146
1837	1.8268e+02	-6.8517	-59.372137	0.000527	5.268644	1.785065	0.000211
1838	1.8278e+02	-6.8068	-59.170280	0.000507	5.066003	1.716408	0.000203
1839	1.8288e+02	-6.7731	-58.956312	0.000537	5.369964	1.819393	0.000215
1840	1.8298e+02	-6.7265	-58.798863	0.000395	3.951483	1.338799	0.000158
1841	1.8308e+02	-6.6800	-58.657564	0.000355	3.546202	1.201486	0.000142
1842	1.8318e+02	-6.6495	-58.516264	0.000355	3.546202	1.201486	0.000142
1843	1.8328e+02	-6.6094	-58.318444	0.000496	4.964683	1.682080	0.000199
1844	1.8338e+02	-6.5725	-58.100439	0.000547	5.471284	1.853721	0.000219
1845	1.8348e+02	-6.5292	-57.963176	0.000344	3.444882	1.167158	0.000138
1846	1.8358e+02	-6.4955	-57.789580	0.000436	4.356763	1.476111	0.000174
1847	1.8368e+02	-6.4554	-57.611946	0.000446	4.458083	1.510439	0.000179
1848	1.8378e+02	-6.4137	-57.438349	0.000436	4.356763	1.476111	0.000174
1849	1.8388e+02	-6.3736	-57.244566	0.000486	4.863363	1.647752	0.000195
1850	1.8398e+02	-6.3271	-57.066932	0.000446	4.458083	1.510439	0.000179
1851	1.8407e+02	-6.2998	-56.905447	0.000405	4.052803	1.373127	0.000162
1852	1.8417e+02	-6.2565	-56.715701	0.000476	4.762043	1.613424	0.000191
1853	1.8427e+02	-6.2180	-56.509807	0.000517	5.167323	1.750737	0.000207
1854	1.8437e+02	-6.1779	-56.340248	0.000426	4.255443	1.441783	0.000170
1855	1.8447e+02	-6.1298	-56.174725	0.000415	4.154123	1.407455	0.000166
1856	1.8457e+02	-6.1073	-56.005166	0.000426	4.255443	1.441783	0.000170
1857	1.8467e+02	-6.0512	-55.835606	0.000426	4.255443	1.441783	0.000170
1858	1.8477e+02	-6.0191	-55.625675	0.000527	5.268644	1.785065	0.000211
1859	1.8487e+02	-5.9854	-55.435929	0.000476	4.762043	1.613424	0.000191
1860	1.8497e+02	-5.9373	-55.262333	0.000436	4.356763	1.476111	0.000174
1861	1.8507e+02	-5.8923	-55.084699	0.000446	4.458083	1.510439	0.000179
1862	1.8517e+02	-5.8554	-54.939362	0.000365	3.647522	1.235814	0.000146
1863	1.8527e+02	-5.8202	-54.765765	0.000436	4.356763	1.476111	0.000174
1864	1.8537e+02	-5.7849	-54.592168	0.000436	4.356763	1.476111	0.000174
1865	1.8547e+02	-5.7432	-54.374163	0.000547	5.471284	1.853721	0.000219
1866	1.8557e+02	-5.7014	-54.220752	0.000385	3.850163	1.304470	0.000154
1867	1.8567e+02	-5.6597	-54.022932	0.000496	4.964683	1.682080	0.000199
1868	1.8577e+02	-5.6196	-53.833186	0.000476	4.762043	1.613424	0.000191
1869	1.8587e+02	-5.5795	-53.623255	0.000527	5.268644	1.785065	0.000211
1870	1.8597e+02	-5.5410	-53.485993	0.000344	3.444882	1.167158	0.000138
1871	1.8606e+02	-5.4977	-53.292210	0.000486	4.863363	1.647752	0.000195
1872	1.8616e+02	-5.4592	-53.106502	0.000466	4.660723	1.579096	0.000187
1873	1.8626e+02	-5.4191	-52.928868	0.000446	4.458083	1.510439	0.000179
1874	1.8636e+02	-5.3806	-52.767383	0.000405	4.052803	1.373127	0.000162
1875	1.8646e+02	-5.3517	-52.549377	0.000547	5.471284	1.853721	0.000219
1876	1.8656e+02	-5.2924	-52.375780	0.000436	4.356763	1.476111	0.000174
1877	1.8666e+02	-5.2571	-52.149701	0.000567	5.673924	1.922377	0.000227
1878	1.8676e+02	-5.2170	-52.044735	0.000263	2.634322	0.892532	0.000105
1879	1.8686e+02	-5.1833	-51.927658	0.000294	2.938282	0.995517	0.000118
1880	1.8696e+02	-5.1335	-51.641022	0.000719	7.193725	2.437300	0.000288
1881	1.8706e+02	-5.1015	-51.503759	0.000344	3.444882	1.167158	0.000138
1882	1.8716e+02	-5.0598	-51.338237	0.000415	4.154123	1.407455	0.000166
1883	1.8726e+02	-5.0261	-51.136380	0.000507	5.066003	1.716408	0.000203
1884	1.8736e+02	-4.9731	-50.950672	0.000466	4.660723	1.579096	0.000187
1885	1.8746e+02	-4.9378	-50.760926	0.000476	4.762043	1.613424	0.000191
1886	1.8756e+02	-4.9009	-50.538884	0.000557	5.572604	1.888049	0.000223
1887	1.8766e+02	-4.8672	-50.357213	0.000456	4.559403	1.544768	0.000183
1888	1.8776e+02	-4.8191	-50.211876	0.000365	3.647522	1.235814	0.000146
1889	1.8786e+02	-4.7854	-49.981759	0.000578	5.775244	1.956706	0.000231
1890	1.8796e+02	-4.7389	-49.804125	0.000446	4.458083	1.510439	0.000179
1891	1.8806e+02	-4.7036	-49.618417	0.000466	4.660723	1.579096	0.000187
1892	1.8815e+02	-4.6619	-49.456931	0.000405	4.052803	1.373127	0.000162
1893	1.8825e+02	-4.6218	-49.263149	0.000486	4.863363	1.647752	0.000195
1894	1.8835e+02	-4.5849	-49.097626	0.000415	4.154123	1.407455	0.000166
1895	1.8845e+02	-4.5432	-48.907881	0.000476	4.762043	1.613424	0.000191
1896	1.8855e+02	-4.5031	-48.726210	0.000456	4.559403	1.544768	0.000183
1897	1.8865e+02	-4.4630	-48.568761	0.000395	3.951483	1.338799	0.000158
1898	1.8875e+02	-4.4325	-48.326533	0.000608	6.079204	2.059690	0.000243
1899	1.8885e+02	-4.3828	-48.177159	0.000375	3.748843	1.270142	0.000150
1900	1.8895e+02	-4.3443	-47.991451	0.000466	4.660723	1.579096	0.000187
1901	1.8905e+02	-4.2993	-47.757297	0.000588	5.876564	1.991034	0.000235
1902	1.8915e+02	-4.2560	-47.579663	0.000446	4.458083	1.510439	0.000179
1903	1.8925e+02	-4.2223	-47.385881	0.000486	4.863363	1.647752	0.000195
1904	1.8935e+02	-4.1935	-47.224395	0.000405	4.052803	1.373127	0.000162
1905	1.8945e+02	-4.1405	-47.058873	0.000415	4.154123	1.407455	0.000166
1906	1.8955e+02	-4.1052	-46.836830	0.000557	5.572604	1.888049	0.000223
1907	1.8965e+02	-4.0731	-46.598639	0.000598	5.977884	2.025362	0.000239
1908	1.8975e+02	-4.0298	-46.489637	0.000274	2.735642	0.926861	0.000110
1909	1.8985e+02	-3.9833	-46.255483	0.000588	5.876564	1.991034	0.000235
1910	1.8995e+02	-3.9496	-46.098034	0.000395	3.951483	1.338799	0.000158
1911	1.9004e+02	-3.9095	-45.928475	0.000426	4.255443	1.441783	0.000170
1912	1.9014e+02	-3.8598	-45.726618	0.000507	5.066003	1.716408	0.000203
1913	1.9024e+02	-3.8213	-45.581281	0.000365	3.647522	1.235814	0.000146
1914	1.9034e+02	-3.7844	-45.383461	0.000496	4.964683	1.682080	0.000199
1915	1.9044e+02	-3.7507	-45.189679	0.000486	4.863363	1.647752	0.000195
1916	1.9054e+02	-3.7090	-44.955525	0.000588	5.876564	1.991034	0.000235
1917	1.9064e+02	-3.6641	-44.794040	0.000405	4.052803	1.373127	0.000162
1918	1.9074e+02	-3.6288	-44.567960	0.000567	5.673924	1.922377	0.000227
1919	1.9084e+02	-3.5823	-44.414549	0.000385	3.850163	1.304470	0.000154
1920	1.9094e+02	-3.5357	-44.196543	0.000547	5.471284	1.853721	0.000219
1921	1.9104e+02	-3.5101	-44.022947	0.000436	4.356763	1.476111	0.000174
1922	1.9114e+02	-3.4780	-43.849350	0.000436	4.356763	1.476111	0.000174
1923	1.9124e+02	-3.4266	-43.647493	0.000507	5.066003	1.716408	0.000203
1924	1.9134e+02	-3.3817	-43.469859	0.000446	4.458083	1.510439	0.000179
1925	1.9144e+02	-3.3448	-43.288188	0.000456	4.559403	1.544768	0.000183
1926	1.9154e+02	-3.3031	-43.086331	0.000507	5.066003	1.716408	0.000203
1927	1.9164e+02	-3.2630	-42.957143	0.000324	3.242242	1.098501	0.000130
1928	1.9174e+02	-3.2277	-42.731063	0.000567	5.673924	1.922377	0.000227
1929	1.9184e+02	-3.1876	-42.525169	0.000517	5.167323	1.750737	0.000207
1930	1.9194e+02	-3.1523	-42.343498	0.000456	4.559403	1.544768	0.000183
1931	1.9203e+02	-3.1186	-42.190087	0.000385	3.850163	1.304470	0.000154
1932	1.9213e+02	-3.0641	-41.988230	0.000507	5.066003	1.716408	0.000203
1933	1.9223e+02	-3.0288	-41.770225	0.000547	5.471284	1.853721	0.000219
1934	1.9233e+02	-2.9839	-41.556257	0.000537	5.369964	1.819393	0.000215
1935	1.9243e+02	-2.9470	-41.410920	0.000365	3.647522	1.235814	0.000146
1936	1.9253e+02	-2.9053	-41.192915	0.000547	5.471284	1.853721	0.000219
1937	1.9263e+02	-2.8684	-41.019318	0.000436	4.356763	1.476111	0.000174
1938	1.9273e+02	-2.8267	-40.825535	0.000486	4.863363	1.647752	0.000195
1939	1.9283e+02	-2.7914	-40.627715	0.000496	4.964683	1.682080	0.000199
1940	1.9293e+02	-2.7609	-40.470267	0.000395	3.951483	1.338799	0.000158
1941	1.9303e+02	-2.7047	-40.280522	0.000476	4.762043	1.613424	0.000191
1942	1.9313e+02	-2.6646	-40.090776	0.000476	4.762043	1.613424	0.000191
1943	1.9323e+02	-2.6358	-39.896994	0.000486	4.863363	1.647752	0.000195
1944	1.9333e+02	-2.5908	-39.743583	0.000385	3.850163	1.304470	0.000154
1945	1.9343e+02	-2.5652	-39.509429	0.000588	5.876564	1.991034	0.000235
1946	1.9353e+02	-2.5170	-39.327758	0.000456	4.559403	1.544768	0.000183
1947	1.9363e+02	-2.4721	-39.150124	0.000446	4.458083	1.510439	0.000179
1948	1.9373e+02	-2.4192	-38.976527	0.000436	4.356763	1.476111	0.000174
1949	1.9383e+02	-2.3839	-38.758522	0.000547	5.471284	1.853721	0.000219
1950	1.9393e+02	-2.3518	-38.564739	0.000486	4.863363	1.647752	0.000195
1951	1.9403e+02	-2.3181	-38.302325	0.000659	6.585804	2.231331	0.000264
1952	1.9412e+02	-2.2700	-38.140840	0.000405	4.052803	1.373127	0.000162
1953	1.9422e+02	-2.2363	-37.955132	0.000466	4.660723	1.579096	0.000187
1954	1.9432e+02	-2.1930	-37.793646	0.000405	4.052803	1.373127	0.000162
1955	1.9442e+02	-2.1513	-37.595827	0.000496	4.964683	1.682080	0.000199
1956	1.9452e+02	-2.1160	-37.442415	0.000385	3.850163	1.304470	0.000154
1957	1.9462e+02	-2.0759	-37.216336	0.000567	5.673924	1.922377	0.000227
1958	1.9472e+02	-2.0278	-37.022553	0.000486	4.863363	1.647752	0.000195
1959	1.9482e+02	-1.9892	-36.804548	0.000547	5.471284	1.853721	0.000219
1960	1.9492e+02	-1.9572	-36.634988	0.000426	4.255443	1.441783	0.000170
1961	1.9502e+02	-1.9203	-36.441206	0.000486	4.863363	1.647752	0.000195
1962	1.9512e+02	-1.8753	-36.247423	0.000486	4.863363	1.647752	0.000195
1963	1.9522e+02	-1.8368	-36.037492	0.000527	5.268644	1.785065	0.000211
1964	1.9532e+02	-1.7919	-35.843710	0.000486	4.863363	1.647752	0.000195
1965	1.9542e+02	-1.7486	-35.662039	0.000456	4.559403	1.544768	0.000183
1966	1.9552e+02	-1.7149	-35.423848	0.000598	5.977884	2.025362	0.000239
1967	1.9562e+02	-1.6668	-35.270436	0.000385	3.850163	1.304470	0.000154
1968	1.9572e+02	-1.6363	-35.048394	0.000557	5.572604	1.888049	0.000223
1969	1.9582e+02	-1.5818	-34.874797	0.000436	4.356763	1.476111	0.000174
1970	1.9592e+02	-1.5529	-34.681015	0.000486	4.863363	1.647752	0.000195
1971	1.9601e+02	-1.5112	-34.479158	0.000507	5.066003	1.716408	0.000203
1972	1.9611e+02	-1.4839	-34.297487	0.000456	4.559403	1.544768	0.000183
1973	1.9621e+02	-1.4358	-34.079481	0.000547	5.471284	1.853721	0.000219
1974	1.9631e+02	-1.3957	-33.869550	0.000527	5.268644	1.785065	0.000211
1975	1.9641e+02	-1.3652	-33.732288	0.000344	3.444882	1.167158	0.000138
1976	1.9651e+02	-1.3155	-33.550617	0.000456	4.559403	1.544768	0.000183
1977	1.9661e+02	-1.2722	-33.348760	0.000507	5.066003	1.716408	0.000203
1978	1.9671e+02	-1.2304	-33.146903	0.000507	5.066003	1.716408	0.000203
1979	1.9681e+02	-1.1984	-32.981380	0.000415	4.154123	1.407455	0.000166
1980	1.9691e+02	-1.1518	-32.739152	0.000608	6.079204	2.059690	0.000243
1981	1.9701e+02	-1.1182	-32.541333	0.000496	4.964683	1.682080	0.000199
1982	1.9711e+02	-1.0748	-32.319290	0.000557	5.572604	1.888049	0.000223
1983	1.9721e+02	-1.0428	-32.105322	0.000537	5.369964	1.819393	0.000215
1984	1.9731e+02	-1.0026	-31.923651	0.000456	4.559403	1.544768	0.000183
1985	1.9741e+02	-0.9690	-31.725831	0.000496	4.964683	1.682080	0.000199
1986	1.9751e+02	-0.9256	-31.552234	0.000436	4.356763	1.476111	0.000174
1987	1.9761e+02	-0.8903	-31.318080	0.000588	5.876564	1.991034	0.000235
1988	1.9771e+02	-0.8326	-31.152558	0.000415	4.154123	1.407455	0.000166
1989	1.9781e+02	-0.7925	-30.934553	0.000547	5.471284	1.853721	0.000219
1990	1.9791e+02	-0.7556	-30.833624	0.000253	2.533002	0.858204	0.000101
1991	1.9800e+02	-0.7171	-30.635805	0.000496	4.964683	1.682080	0.000199
1992	1.9810e+02	-0.6786	-30.397614	0.000598	5.977884	2.025362	0.000239
1993	1.9820e+02	-0.6401	-30.252277	0.000365	3.647522	1.235814	0.000146
1994	1.9830e+02	-0.5920	-29.985826	0.000669	6.687124	2.265659	0.000268
1995	1.9840e+02	-0.5599	-29.816266	0.000426	4.255443	1.441783	0.000170
1996	1.9850e+02	-0.5230	-29.650743	0.000415	4.154123	1.407455	0.000166
1997	1.9860e+02	-0.4813	-29.432738	0.000547	5.471284	1.853721	0.000219
1998	1.9870e+02	-0.4347	-29.174361	0.000648	6.484484	2.197003	0.000260
1999	1.9880e+02	-0.3995	-29.008839	0.000415	4.154123	1.407455	0.000166
2000	1.9890e+02	-0.3593	-28.823131	0.000466	4.660723	1.579096	0.000187
2001	1.9900e+02	-0.3192	-28.657608	0.000415	4.154123	1.407455	0.000166
2002	1.9910e+02	-0.2775	-28.419417	0.000598	5.977884	2.025362	0.000239
2003	1.9920e+02	-0.2438	-28.233709	0.000466	4.660723	1.579096	0.000187
2004	1.9930e+02	-0.1925	-28.027815	0.000517	5.167323	1.750737	0.000207
2005	1.9940e+02	-0.1524	-27.838069	0.000476	4.762043	1.613424	0.000191
2006	1.9950e+02	-0.1139	-27.624101	0.000537	5.369964	1.819393	0.000215
2007	1.9960e+02	-0.0898	-27.454542	0.000426	4.255443	1.441783	0.000170
2008	1.9970e+02	-0.0369	-27.240573	0.000537	5.369964	1.819393	0.000215
2009	1.9980e+02	0.0048	-27.046791	0.000537	5.369964	1.819393	0.000195

PMax (uC/cm2):	9.78e+01
Pr (uC/cm2):	5.00e+00
-Pr (uC/cm2):	-3.08e+01
PLoss (uC/cm2):	-3.08e+01
-Vc:	-1.02e+00
C (Max-Eff) (nF):	4.89e-01
K (Eff):	1.66e+03
Vert. (+/-Pr) Shift (uC/cm2):	-1.29e+01
Offset (uC/cm2):	-3.74e+00

A (Loop Area - uC/cm2·Volts):	-1.02e-01



Hysteresis Version: 5.48.1 - Radiant Technologies, Inc., 1999 - 9/12/24

