»»»»»»»»»»»»»»»»»»»»»»»»»»»»»»»»»»»» Hysteresis ««««««««««««««««««««««««««««««««««««
»»»  Executed Version:	5.48.1
»»»  Vision Version:	5.48.4 (R)
»»»  Vision Compiled:	9/18/24
»»»  Driver Version:	5.47.0
»»»  Windows Version:	Windows 8 or 8.1
»»»  Processor Information:	x86 (AMD or Intel) - 32 Processors
»»»  Tester Name:	PMF21124-494 (100V)
»»»  Tester S/N:	PMF21124-494
»»»  Internal Amp Type:	100V RevK 270k
»»»  Internal Amp S/N:	iAB2-596/K     
»»»  Execution Count:	1
»»»»»»»»»»»»»»»»»»»»»»»»»»»»»»»»»»»»»»»»»»««««««««««««««««««««««««««««««««««««««««««

Stored:	6/18/2025 - 17:52:1
Configured:	06/18/25 09:47:30 AM
Executed:	06/18/25 05:51:20 PM

»»»»»»»»»»»»»»»»»»»»»»»»»»»»»»»»»»» Sample Info ««««««««««««««««««««««««««««««««««««
Sample Name:	
Lot Name:	
Wafer Name:	
Die Row/Column:	0/0
Capacitor Number:	0
Sample Area (cm2):	1.00e-04
Sample Thickness (microns):	3.00e-01

Amplifier:	Internal

»»»»»»»»»»»»»»»»»»»»»»»»»»»»»»»»»»» Tester Info «««««««««««««««««««««««««««««««««««
Tester Name:	PMF21124-494 (100V)
Tester Serial Number:	PMF21124-494
Return Signal Amp. Level:	0.19 [Index: 3]

»»»»»»»»»»»»»»»»»»»»»»»»»»»»»»»» Hysteresis Info ««««««««««««««««««««««««««««««««««
Task Name:	Hyst-554
Volts:	20.00
Field:	666.67 (kV/cm)
DCBias:	0.00
DCField:	0.00 (kV/cm)
Hysteresis Period (ms):	2.00e+02
Preset:	Enabled
Preset Delay (ms):	1.00e+03
Profile:	Standard Bipolar

»»»»»»»»»»»»»»»»»»»»»»»»»»»»»»»»»»»»»» Data «««««««««««««««««««««««««««««««««««««««
Points:	2009

Valid Data

Point	Time (ms)	Drive Voltage	Measured Polarization (uC/cm2)	Capacitance (uF)	Normalized Capacitance (uF/cm2)	Dielectric Constant	Instantaneous Current (mA)
   1	0.0000e+00	0.0144	-3.589014	0.000304	3.040516	1.030155	0.000122
   2	9.9500e-02	0.0337	-3.467900	0.000304	3.040516	1.030155	0.000122
   3	1.9900e-01	0.0738	-3.334674	0.000334	3.344568	1.133170	0.000134
   4	2.9850e-01	0.1123	-3.181263	0.000385	3.851321	1.304863	0.000154
   5	3.9800e-01	0.1524	-2.971332	0.000527	5.270229	1.785602	0.000211
   6	4.9750e-01	0.1909	-2.817921	0.000385	3.851321	1.304863	0.000154
   7	5.9700e-01	0.2326	-2.632213	0.000466	4.662125	1.579571	0.000187
   8	6.9650e-01	0.2775	-2.474764	0.000395	3.952671	1.339201	0.000158
   9	7.9600e-01	0.3080	-2.293093	0.000456	4.560775	1.545232	0.000183
  10	8.9550e-01	0.3577	-2.131608	0.000405	4.054022	1.373540	0.000162
  11	9.9500e-01	0.3946	-1.970122	0.000405	4.054022	1.373540	0.000162
  12	1.0945e+00	0.4331	-1.804600	0.000416	4.155373	1.407878	0.000166
  13	1.1940e+00	0.4765	-1.586594	0.000547	5.472930	1.854279	0.000219
  14	1.2935e+00	0.5101	-1.421072	0.000416	4.155373	1.407878	0.000166
  15	1.3930e+00	0.5535	-1.291883	0.000324	3.243218	1.098832	0.000130
  16	1.4925e+00	0.5920	-1.069841	0.000557	5.574280	1.888617	0.000223
  17	1.5920e+00	0.6353	-0.936615	0.000334	3.344568	1.133170	0.000134
  18	1.6915e+00	0.6802	-0.742833	0.000486	4.864826	1.648248	0.000195
  19	1.7910e+00	0.7123	-0.528865	0.000537	5.371579	1.819940	0.000215
  20	1.8905e+00	0.7508	-0.391602	0.000345	3.445919	1.167509	0.000138
  21	1.9900e+00	0.7909	-0.226080	0.000416	4.155373	1.407878	0.000166
  22	2.0895e+00	0.8326	-0.068631	0.000395	3.952671	1.339201	0.000158
  23	2.1890e+00	0.8711	0.121114	0.000476	4.763476	1.613909	0.000191
  24	2.2885e+00	0.9160	0.290674	0.000426	4.256723	1.442217	0.000170
  25	2.3880e+00	0.9481	0.488493	0.000497	4.966177	1.682586	0.000199
  26	2.4875e+00	1.0026	0.694387	0.000517	5.168878	1.751263	0.000207
  27	2.5870e+00	1.0411	0.867984	0.000436	4.358074	1.476555	0.000174
  28	2.6865e+00	1.0700	0.972950	0.000264	2.635114	0.892801	0.000105
  29	2.7860e+00	1.1133	1.158658	0.000466	4.662125	1.579571	0.000187
  30	2.8855e+00	1.1599	1.340329	0.000456	4.560775	1.545232	0.000183
  31	2.9850e+00	1.1984	1.517963	0.000446	4.459424	1.510894	0.000179
  32	3.0845e+00	1.2304	1.679448	0.000405	4.054022	1.373540	0.000162
  33	3.1840e+00	1.2754	1.844971	0.000416	4.155373	1.407878	0.000166
  34	3.2835e+00	1.3123	2.038754	0.000486	4.864826	1.648248	0.000195
  35	3.3830e+00	1.3460	2.212350	0.000436	4.358074	1.476555	0.000174
  36	3.4825e+00	1.3909	2.361724	0.000375	3.749970	1.270524	0.000150
  37	3.5820e+00	1.4310	2.539358	0.000446	4.459424	1.510894	0.000179
  38	3.6815e+00	1.4759	2.729104	0.000476	4.763476	1.613909	0.000191
  39	3.7810e+00	1.5064	2.934998	0.000517	5.168878	1.751263	0.000207
  40	3.8805e+00	1.5497	3.080335	0.000365	3.648620	1.236186	0.000146
  41	3.9800e+00	1.5882	3.249894	0.000426	4.256723	1.442217	0.000170
  42	4.0795e+00	1.6251	3.447714	0.000497	4.966177	1.682586	0.000199
  43	4.1790e+00	1.6700	3.629385	0.000456	4.560775	1.545232	0.000183
  44	4.2785e+00	1.7037	3.786833	0.000395	3.952671	1.339201	0.000158
  45	4.3780e+00	1.7486	4.004839	0.000547	5.472930	1.854279	0.000219
  46	4.4775e+00	1.7887	4.129990	0.000314	3.141867	1.064493	0.000126
  47	4.5770e+00	1.8304	4.315698	0.000466	4.662125	1.579571	0.000187
  48	4.6765e+00	1.8737	4.517555	0.000507	5.067527	1.716925	0.000203
  49	4.7760e+00	1.9106	4.687115	0.000426	4.256723	1.442217	0.000170
  50	4.8755e+00	1.9443	4.844563	0.000395	3.952671	1.339201	0.000158
  51	4.9750e+00	1.9989	5.038345	0.000486	4.864826	1.648248	0.000195
  52	5.0745e+00	2.0390	5.244239	0.000517	5.168878	1.751263	0.000207
  53	5.1740e+00	2.0695	5.401688	0.000395	3.952671	1.339201	0.000158
  54	5.2735e+00	2.1064	5.579322	0.000446	4.459424	1.510894	0.000179
  55	5.3730e+00	2.1481	5.769067	0.000476	4.763476	1.613909	0.000191
  56	5.4725e+00	2.1882	5.950738	0.000456	4.560775	1.545232	0.000183
  57	5.5720e+00	2.2363	6.112224	0.000405	4.054022	1.373540	0.000162
  58	5.6715e+00	2.2732	6.301969	0.000476	4.763476	1.613909	0.000191
  59	5.7710e+00	2.3133	6.487677	0.000466	4.662125	1.579571	0.000187
  60	5.8705e+00	2.3422	6.637051	0.000375	3.749970	1.270524	0.000150
  61	5.9700e+00	2.3855	6.818722	0.000456	4.560775	1.545232	0.000183
  62	6.0695e+00	2.4272	7.016542	0.000497	4.966177	1.682586	0.000199
  63	6.1690e+00	2.4705	7.194176	0.000446	4.459424	1.510894	0.000179
  64	6.2685e+00	2.5090	7.396033	0.000507	5.067527	1.716925	0.000203
  65	6.3680e+00	2.5443	7.533295	0.000345	3.445919	1.167509	0.000138
  66	6.4675e+00	2.5940	7.702855	0.000426	4.256723	1.442217	0.000170
  67	6.5670e+00	2.6261	7.941046	0.000598	5.979682	2.025971	0.000239
  68	6.6665e+00	2.6743	8.106569	0.000416	4.155373	1.407878	0.000166
  69	6.7660e+00	2.7079	8.296314	0.000476	4.763476	1.613909	0.000191
  70	6.8655e+00	2.7481	8.490096	0.000486	4.864826	1.648248	0.000195
  71	6.9650e+00	2.7898	8.671768	0.000456	4.560775	1.545232	0.000183
  72	7.0645e+00	2.8315	8.825179	0.000385	3.851321	1.304863	0.000154
  73	7.1640e+00	2.8716	9.022998	0.000497	4.966177	1.682586	0.000199
  74	7.2635e+00	2.9053	9.212744	0.000476	4.763476	1.613909	0.000191
  75	7.3630e+00	2.9502	9.402489	0.000476	4.763476	1.613909	0.000191
  76	7.4625e+00	2.9839	9.612420	0.000527	5.270229	1.785602	0.000211
  77	7.5620e+00	3.0240	9.761794	0.000375	3.749970	1.270524	0.000150
  78	7.6615e+00	3.0657	9.971725	0.000527	5.270229	1.785602	0.000211
  79	7.7610e+00	3.1106	10.137248	0.000416	4.155373	1.407878	0.000166
  80	7.8605e+00	3.1491	10.326993	0.000476	4.763476	1.613909	0.000191
  81	7.9600e+00	3.1828	10.508664	0.000456	4.560775	1.545232	0.000183
  82	8.0595e+00	3.2277	10.678224	0.000426	4.256723	1.442217	0.000170
  83	8.1590e+00	3.2662	10.859895	0.000456	4.560775	1.545232	0.000183
  84	8.2585e+00	3.3111	11.085975	0.000568	5.675631	1.922956	0.000227
  85	8.3580e+00	3.3496	11.279757	0.000486	4.864826	1.648248	0.000195
  86	8.4575e+00	3.3817	11.469503	0.000476	4.763476	1.613909	0.000191
  87	8.5570e+00	3.4250	11.659248	0.000476	4.763476	1.613909	0.000191
  88	8.6565e+00	3.4651	11.800548	0.000355	3.547269	1.201847	0.000142
  89	8.7560e+00	3.5117	12.002405	0.000507	5.067527	1.716925	0.000203
  90	8.8555e+00	3.5405	12.216373	0.000537	5.371579	1.819940	0.000215
  91	8.9550e+00	3.5839	12.414192	0.000497	4.966177	1.682586	0.000199
  92	9.0545e+00	3.6224	12.523195	0.000274	2.736465	0.927139	0.000110
  93	9.1540e+00	3.6625	12.737163	0.000537	5.371579	1.819940	0.000215
  94	9.2535e+00	3.6994	12.902686	0.000416	4.155373	1.407878	0.000166
  95	9.3530e+00	3.7555	13.116654	0.000537	5.371579	1.819940	0.000215
  96	9.4525e+00	3.7844	13.298325	0.000456	4.560775	1.545232	0.000183
  97	9.5520e+00	3.8277	13.520368	0.000557	5.574280	1.888617	0.000223
  98	9.6515e+00	3.8582	13.649556	0.000324	3.243218	1.098832	0.000130
  99	9.7510e+00	3.9047	13.851413	0.000507	5.067527	1.716925	0.000203
 100	9.8505e+00	3.9384	14.085567	0.000588	5.878332	1.991633	0.000235
 101	9.9500e+00	3.9801	14.243015	0.000395	3.952671	1.339201	0.000158
 102	1.0050e+01	4.0122	14.461020	0.000547	5.472930	1.854279	0.000219
 103	1.0149e+01	4.0603	14.646728	0.000466	4.662125	1.579571	0.000187
 104	1.0248e+01	4.1052	14.848585	0.000507	5.067527	1.716925	0.000203
 105	1.0348e+01	4.1421	15.026219	0.000446	4.459424	1.510894	0.000179
 106	1.0447e+01	4.1854	15.167519	0.000355	3.547269	1.201847	0.000142
 107	1.0547e+01	4.2223	15.421859	0.000639	6.385085	2.163325	0.000256
 108	1.0646e+01	4.2592	15.599492	0.000446	4.459424	1.510894	0.000179
 109	1.0746e+01	4.3026	15.793275	0.000486	4.864826	1.648248	0.000195
 110	1.0845e+01	4.3443	15.966872	0.000436	4.358074	1.476555	0.000174
 111	1.0945e+01	4.3796	16.152580	0.000466	4.662125	1.579571	0.000187
 112	1.1044e+01	4.4245	16.366548	0.000537	5.371579	1.819940	0.000215
 113	1.1144e+01	4.4630	16.528034	0.000405	4.054022	1.373540	0.000162
 114	1.1243e+01	4.5015	16.693556	0.000416	4.155373	1.407878	0.000166
 115	1.1343e+01	4.5400	16.911562	0.000547	5.472930	1.854279	0.000219
 116	1.1443e+01	4.5721	17.133604	0.000557	5.574280	1.888617	0.000223
 117	1.1542e+01	4.6090	17.303164	0.000426	4.256723	1.442217	0.000170
 118	1.1642e+01	4.6619	17.505021	0.000507	5.067527	1.716925	0.000203
 119	1.1741e+01	4.7020	17.706877	0.000507	5.067527	1.716925	0.000203
 120	1.1841e+01	4.7453	17.904697	0.000497	4.966177	1.682586	0.000199
 121	1.1940e+01	4.7694	18.102517	0.000497	4.966177	1.682586	0.000199
 122	1.2040e+01	4.8127	18.264002	0.000405	4.054022	1.373540	0.000162
 123	1.2139e+01	4.8448	18.449710	0.000466	4.662125	1.579571	0.000187
 124	1.2239e+01	4.8945	18.651567	0.000507	5.067527	1.716925	0.000203
 125	1.2338e+01	4.9378	18.825164	0.000436	4.358074	1.476555	0.000174
 126	1.2438e+01	4.9795	19.027021	0.000507	5.067527	1.716925	0.000203
 127	1.2537e+01	5.0180	19.192543	0.000416	4.155373	1.407878	0.000166
 128	1.2636e+01	5.0598	19.382289	0.000476	4.763476	1.613909	0.000191
 129	1.2736e+01	5.0934	19.588183	0.000517	5.168878	1.751263	0.000207
 130	1.2835e+01	5.1351	19.773891	0.000466	4.662125	1.579571	0.000187
 131	1.2935e+01	5.1785	19.983822	0.000527	5.270229	1.785602	0.000211
 132	1.3034e+01	5.2202	20.149344	0.000416	4.155373	1.407878	0.000166
 133	1.3134e+01	5.2523	20.367350	0.000547	5.472930	1.854279	0.000219
 134	1.3233e+01	5.2956	20.520761	0.000385	3.851321	1.304863	0.000154
 135	1.3333e+01	5.3389	20.742803	0.000557	5.574280	1.888617	0.000223
 136	1.3432e+01	5.3822	20.920437	0.000446	4.459424	1.510894	0.000179
 137	1.3532e+01	5.4223	21.146517	0.000568	5.675631	1.922956	0.000227
 138	1.3632e+01	5.4608	21.267631	0.000304	3.040516	1.030155	0.000122
 139	1.3731e+01	5.5009	21.530045	0.000659	6.587786	2.232002	0.000264
 140	1.3831e+01	5.5362	21.711716	0.000456	4.560775	1.545232	0.000183
 141	1.3930e+01	5.5763	21.901461	0.000476	4.763476	1.613909	0.000191
 142	1.4030e+01	5.6084	22.095244	0.000486	4.864826	1.648248	0.000195
 143	1.4129e+01	5.6533	22.301138	0.000517	5.168878	1.751263	0.000207
 144	1.4229e+01	5.7063	22.470698	0.000426	4.256723	1.442217	0.000170
 145	1.4328e+01	5.7399	22.652369	0.000456	4.560775	1.545232	0.000183
 146	1.4428e+01	5.7752	22.878448	0.000568	5.675631	1.922956	0.000227
 147	1.4527e+01	5.8121	23.039934	0.000405	4.054022	1.373540	0.000162
 148	1.4627e+01	5.8490	23.294273	0.000639	6.385085	2.163325	0.000256
 149	1.4726e+01	5.8875	23.431536	0.000345	3.445919	1.167509	0.000138
 150	1.4825e+01	5.9325	23.657615	0.000568	5.675631	1.922956	0.000227
 151	1.4925e+01	5.9806	23.863509	0.000517	5.168878	1.751263	0.000207
 152	1.5024e+01	6.0111	24.033069	0.000426	4.256723	1.442217	0.000170
 153	1.5124e+01	6.0592	24.198592	0.000416	4.155373	1.407878	0.000166
 154	1.5223e+01	6.0913	24.396411	0.000497	4.966177	1.682586	0.000199
 155	1.5323e+01	6.1346	24.594231	0.000497	4.966177	1.682586	0.000199
 156	1.5422e+01	6.1667	24.739568	0.000365	3.648620	1.236186	0.000146
 157	1.5522e+01	6.2036	24.989870	0.000628	6.283734	2.128987	0.000252
 158	1.5621e+01	6.2501	25.139244	0.000375	3.749970	1.270524	0.000150
 159	1.5721e+01	6.2950	25.369361	0.000578	5.776981	1.957294	0.000231
 160	1.5820e+01	6.3271	25.534884	0.000416	4.155373	1.407878	0.000166
 161	1.5920e+01	6.3752	25.720592	0.000466	4.662125	1.579571	0.000187
 162	1.6020e+01	6.4185	25.890151	0.000426	4.256723	1.442217	0.000170
 163	1.6119e+01	6.4554	26.112194	0.000557	5.574280	1.888617	0.000223
 164	1.6218e+01	6.4827	26.293865	0.000456	4.560775	1.545232	0.000183
 165	1.6318e+01	6.5292	26.467462	0.000436	4.358074	1.476555	0.000174
 166	1.6418e+01	6.5790	26.693541	0.000568	5.675631	1.922956	0.000227
 167	1.6517e+01	6.6223	26.855027	0.000405	4.054022	1.373540	0.000162
 168	1.6616e+01	6.6479	27.032661	0.000446	4.459424	1.510894	0.000179
 169	1.6716e+01	6.6880	27.250666	0.000547	5.472930	1.854279	0.000219
 170	1.6816e+01	6.7201	27.420226	0.000426	4.256723	1.442217	0.000170
 171	1.6915e+01	6.7699	27.638231	0.000547	5.472930	1.854279	0.000219
 172	1.7015e+01	6.8148	27.799717	0.000405	4.054022	1.373540	0.000162
 173	1.7114e+01	6.8356	27.981388	0.000456	4.560775	1.545232	0.000183
 174	1.7213e+01	6.8838	28.179207	0.000497	4.966177	1.682586	0.000199
 175	1.7313e+01	6.9287	28.324544	0.000365	3.648620	1.236186	0.000146
 176	1.7413e+01	6.9816	28.582921	0.000649	6.486435	2.197664	0.000260
 177	1.7512e+01	7.0089	28.732295	0.000375	3.749970	1.270524	0.000150
 178	1.7611e+01	7.0522	28.938189	0.000517	5.168878	1.751263	0.000207
 179	1.7711e+01	7.0795	29.103712	0.000416	4.155373	1.407878	0.000166
 180	1.7811e+01	7.1228	29.305568	0.000507	5.067527	1.716925	0.000203
 181	1.7910e+01	7.1709	29.515499	0.000527	5.270229	1.785602	0.000211
 182	1.8009e+01	7.2046	29.697170	0.000456	4.560775	1.545232	0.000183
 183	1.8109e+01	7.2543	29.907102	0.000527	5.270229	1.785602	0.000211
 184	1.8209e+01	7.2928	30.048401	0.000355	3.547269	1.201847	0.000142
 185	1.8308e+01	7.3281	30.286592	0.000598	5.979682	2.025971	0.000239
 186	1.8407e+01	7.3650	30.484412	0.000497	4.966177	1.682586	0.000199
 187	1.8507e+01	7.4148	30.641860	0.000395	3.952671	1.339201	0.000158
 188	1.8607e+01	7.4485	30.823531	0.000456	4.560775	1.545232	0.000183
 189	1.8706e+01	7.4950	31.021351	0.000497	4.966177	1.682586	0.000199
 190	1.8805e+01	7.5206	31.182836	0.000405	4.054022	1.373540	0.000162
 191	1.8905e+01	7.5624	31.392767	0.000527	5.270229	1.785602	0.000211
 192	1.9005e+01	7.6073	31.590587	0.000497	4.966177	1.682586	0.000199
 193	1.9104e+01	7.6361	31.760147	0.000426	4.256723	1.442217	0.000170
 194	1.9203e+01	7.6939	31.921632	0.000405	4.054022	1.373540	0.000162
 195	1.9303e+01	7.7308	32.143675	0.000557	5.574280	1.888617	0.000223
 196	1.9402e+01	7.7709	32.301123	0.000395	3.952671	1.339201	0.000158
 197	1.9502e+01	7.8014	32.482794	0.000456	4.560775	1.545232	0.000183
 198	1.9602e+01	7.8527	32.700799	0.000547	5.472930	1.854279	0.000219
 199	1.9701e+01	7.8976	32.874396	0.000436	4.358074	1.476555	0.000174
 200	1.9800e+01	7.9329	33.064142	0.000476	4.763476	1.613909	0.000191
 201	1.9900e+01	7.9666	33.270036	0.000517	5.168878	1.751263	0.000207
 202	2.0000e+01	8.0083	33.427484	0.000395	3.952671	1.339201	0.000158
 203	2.0099e+01	8.0452	33.629341	0.000507	5.067527	1.716925	0.000203
 204	2.0198e+01	8.0869	33.831197	0.000507	5.067527	1.716925	0.000203
 205	2.0298e+01	8.1238	34.020943	0.000476	4.763476	1.613909	0.000191
 206	2.0398e+01	8.1752	34.182428	0.000405	4.054022	1.373540	0.000162
 207	2.0497e+01	8.2008	34.368137	0.000466	4.662125	1.579571	0.000187
 208	2.0596e+01	8.2345	34.529622	0.000405	4.054022	1.373540	0.000162
 209	2.0696e+01	8.2875	34.727442	0.000497	4.966177	1.682586	0.000199
 210	2.0796e+01	8.3244	34.897001	0.000426	4.256723	1.442217	0.000170
 211	2.0895e+01	8.3709	35.123081	0.000568	5.675631	1.922956	0.000227
 212	2.0994e+01	8.4078	35.308789	0.000466	4.662125	1.579571	0.000187
 213	2.1094e+01	8.4431	35.490460	0.000456	4.560775	1.545232	0.000183
 214	2.1194e+01	8.4800	35.672131	0.000456	4.560775	1.545232	0.000183
 215	2.1293e+01	8.5233	35.853802	0.000456	4.560775	1.545232	0.000183
 216	2.1392e+01	8.5698	36.116216	0.000659	6.587786	2.232002	0.000264
 217	2.1492e+01	8.6051	36.301925	0.000466	4.662125	1.579571	0.000187
 218	2.1591e+01	8.6356	36.447261	0.000365	3.648620	1.236186	0.000146
 219	2.1691e+01	8.6789	36.628933	0.000456	4.560775	1.545232	0.000183
 220	2.1791e+01	8.7238	36.810604	0.000456	4.560775	1.545232	0.000183
 221	2.1890e+01	8.7623	36.980163	0.000426	4.256723	1.442217	0.000170
 222	2.1989e+01	8.8040	37.194132	0.000537	5.371579	1.819940	0.000215
 223	2.2089e+01	8.8441	37.367728	0.000436	4.358074	1.476555	0.000174
 224	2.2189e+01	8.8874	37.577659	0.000527	5.270229	1.785602	0.000211
 225	2.2288e+01	8.9115	37.791628	0.000537	5.371579	1.819940	0.000215
 226	2.2387e+01	8.9645	37.920816	0.000324	3.243218	1.098832	0.000130
 227	2.2487e+01	8.9965	38.122673	0.000507	5.067527	1.716925	0.000203
 228	2.2587e+01	9.0479	38.308381	0.000466	4.662125	1.579571	0.000187
 229	2.2686e+01	9.0864	38.486015	0.000446	4.459424	1.510894	0.000179
 230	2.2785e+01	9.1185	38.695946	0.000527	5.270229	1.785602	0.000211
 231	2.2885e+01	9.1634	38.893766	0.000497	4.966177	1.682586	0.000199
 232	2.2985e+01	9.1971	39.043140	0.000375	3.749970	1.270524	0.000150
 233	2.3084e+01	9.2388	39.244997	0.000507	5.067527	1.716925	0.000203
 234	2.3183e+01	9.2901	39.438779	0.000486	4.864826	1.648248	0.000195
 235	2.3283e+01	9.3222	39.612376	0.000436	4.358074	1.476555	0.000174
 236	2.3383e+01	9.3559	39.806158	0.000486	4.864826	1.648248	0.000195
 237	2.3482e+01	9.3944	39.983792	0.000446	4.459424	1.510894	0.000179
 238	2.3581e+01	9.4457	40.197761	0.000537	5.371579	1.819940	0.000215
 239	2.3681e+01	9.4778	40.411729	0.000537	5.371579	1.819940	0.000215
 240	2.3780e+01	9.5195	40.540917	0.000324	3.243218	1.098832	0.000130
 241	2.3880e+01	9.5564	40.754885	0.000537	5.371579	1.819940	0.000215
 242	2.3980e+01	9.6045	40.904259	0.000375	3.749970	1.270524	0.000150
 243	2.4079e+01	9.6398	41.134376	0.000578	5.776981	1.957294	0.000231
 244	2.4178e+01	9.6783	41.279713	0.000365	3.648620	1.236186	0.000146
 245	2.4278e+01	9.7104	41.497718	0.000547	5.472930	1.854279	0.000219
 246	2.4378e+01	9.7602	41.683426	0.000466	4.662125	1.579571	0.000187
 247	2.4477e+01	9.8067	41.893358	0.000527	5.270229	1.785602	0.000211
 248	2.4576e+01	9.8388	42.054843	0.000405	4.054022	1.373540	0.000162
 249	2.4676e+01	9.8789	42.264774	0.000527	5.270229	1.785602	0.000211
 250	2.4776e+01	9.9238	42.454519	0.000476	4.763476	1.613909	0.000191
 251	2.4875e+01	9.9623	42.624079	0.000426	4.256723	1.442217	0.000170
 252	2.4974e+01	10.0040	42.805750	0.000456	4.560775	1.545232	0.000183
 253	2.5074e+01	10.0409	43.043941	0.000598	5.979682	2.025971	0.000239
 254	2.5174e+01	10.0762	43.185241	0.000355	3.547269	1.201847	0.000142
 255	2.5273e+01	10.1115	43.370949	0.000466	4.662125	1.579571	0.000187
 256	2.5372e+01	10.1644	43.588955	0.000547	5.472930	1.854279	0.000219
 257	2.5472e+01	10.1965	43.734291	0.000365	3.648620	1.236186	0.000146
 258	2.5572e+01	10.2350	43.924037	0.000476	4.763476	1.613909	0.000191
 259	2.5671e+01	10.2799	44.150116	0.000568	5.675631	1.922956	0.000227
 260	2.5770e+01	10.3152	44.343899	0.000486	4.864826	1.648248	0.000195
 261	2.5870e+01	10.3617	44.493273	0.000375	3.749970	1.270524	0.000150
 262	2.5970e+01	10.4034	44.727427	0.000588	5.878332	1.991633	0.000235
 263	2.6069e+01	10.4387	44.913135	0.000466	4.662125	1.579571	0.000187
 264	2.6169e+01	10.4740	45.110955	0.000497	4.966177	1.682586	0.000199
 265	2.6268e+01	10.5222	45.272440	0.000405	4.054022	1.373540	0.000162
 266	2.6367e+01	10.5559	45.478334	0.000517	5.168878	1.751263	0.000207
 267	2.6467e+01	10.5944	45.631745	0.000385	3.851321	1.304863	0.000154
 268	2.6567e+01	10.6409	45.849751	0.000547	5.472930	1.854279	0.000219
 269	2.6666e+01	10.6826	46.011236	0.000405	4.054022	1.373540	0.000162
 270	2.6765e+01	10.7115	46.205019	0.000486	4.864826	1.648248	0.000195
 271	2.6865e+01	10.7580	46.410912	0.000517	5.168878	1.751263	0.000207
 272	2.6965e+01	10.7933	46.604695	0.000486	4.864826	1.648248	0.000195
 273	2.7064e+01	10.8350	46.774255	0.000426	4.256723	1.442217	0.000170
 274	2.7163e+01	10.8735	46.972074	0.000497	4.966177	1.682586	0.000199
 275	2.7263e+01	10.9088	47.153745	0.000456	4.560775	1.545232	0.000183
 276	2.7363e+01	10.9473	47.347528	0.000486	4.864826	1.648248	0.000195
 277	2.7462e+01	10.9874	47.529199	0.000456	4.560775	1.545232	0.000183
 278	2.7561e+01	11.0307	47.727019	0.000497	4.966177	1.682586	0.000199
 279	2.7661e+01	11.0692	47.884467	0.000395	3.952671	1.339201	0.000158
 280	2.7761e+01	11.1221	48.134769	0.000628	6.283734	2.128987	0.000252
 281	2.7860e+01	11.1526	48.259921	0.000314	3.141867	1.064493	0.000126
 282	2.7959e+01	11.1991	48.498112	0.000598	5.979682	2.025971	0.000239
 283	2.8059e+01	11.2280	48.687857	0.000476	4.763476	1.613909	0.000191
 284	2.8159e+01	11.2826	48.853380	0.000416	4.155373	1.407878	0.000166
 285	2.8258e+01	11.3066	49.043125	0.000476	4.763476	1.613909	0.000191
 286	2.8358e+01	11.3548	49.244982	0.000507	5.067527	1.716925	0.000203
 287	2.8457e+01	11.3949	49.410504	0.000416	4.155373	1.407878	0.000166
 288	2.8556e+01	11.4302	49.608324	0.000497	4.966177	1.682586	0.000199
 289	2.8656e+01	11.4671	49.789995	0.000456	4.560775	1.545232	0.000183
 290	2.8756e+01	11.5152	49.983778	0.000486	4.864826	1.648248	0.000195
 291	2.8855e+01	11.5553	50.213894	0.000578	5.776981	1.957294	0.000231
 292	2.8954e+01	11.5842	50.363268	0.000375	3.749970	1.270524	0.000150
 293	2.9054e+01	11.6307	50.532828	0.000426	4.256723	1.442217	0.000170
 294	2.9154e+01	11.6724	50.698351	0.000416	4.155373	1.407878	0.000166
 295	2.9253e+01	11.7173	50.892133	0.000486	4.864826	1.648248	0.000195
 296	2.9352e+01	11.7574	51.081878	0.000476	4.763476	1.613909	0.000191
 297	2.9452e+01	11.7959	51.303921	0.000557	5.574280	1.888617	0.000223
 298	2.9552e+01	11.8280	51.457332	0.000385	3.851321	1.304863	0.000154
 299	2.9651e+01	11.8649	51.675337	0.000547	5.472930	1.854279	0.000219
 300	2.9750e+01	11.9130	51.848934	0.000436	4.358074	1.476555	0.000174
 301	2.9850e+01	11.9467	52.038680	0.000476	4.763476	1.613909	0.000191
 302	2.9950e+01	11.9916	52.252648	0.000537	5.371579	1.819940	0.000215
 303	3.0049e+01	12.0269	52.458542	0.000517	5.168878	1.751263	0.000207
 304	3.0148e+01	12.0670	52.656361	0.000497	4.966177	1.682586	0.000199
 305	3.0248e+01	12.1120	52.793624	0.000345	3.445919	1.167509	0.000138
 306	3.0348e+01	12.1505	52.967221	0.000436	4.358074	1.476555	0.000174
 307	3.0447e+01	12.1858	53.152929	0.000466	4.662125	1.579571	0.000187
 308	3.0547e+01	12.2339	53.350749	0.000497	4.966177	1.682586	0.000199
 309	3.0646e+01	12.2676	53.564717	0.000537	5.371579	1.819940	0.000215
 310	3.0745e+01	12.3045	53.693905	0.000324	3.243218	1.098832	0.000130
 311	3.0845e+01	12.3414	53.911911	0.000547	5.472930	1.854279	0.000219
 312	3.0945e+01	12.3943	54.065322	0.000385	3.851321	1.304863	0.000154
 313	3.1044e+01	12.4296	54.283327	0.000547	5.472930	1.854279	0.000219
 314	3.1143e+01	12.4665	54.517481	0.000588	5.878332	1.991633	0.000235
 315	3.1243e+01	12.5050	54.638595	0.000304	3.040516	1.030155	0.000122
 316	3.1343e+01	12.5515	54.816229	0.000446	4.459424	1.510894	0.000179
 317	3.1442e+01	12.5852	55.010012	0.000486	4.864826	1.648248	0.000195
 318	3.1541e+01	12.6221	55.195720	0.000466	4.662125	1.579571	0.000187
 319	3.1641e+01	12.6622	55.421799	0.000568	5.675631	1.922956	0.000227
 320	3.1741e+01	12.6991	55.619619	0.000497	4.966177	1.682586	0.000199
 321	3.1840e+01	12.7504	55.777067	0.000395	3.952671	1.339201	0.000158
 322	3.1939e+01	12.7873	55.934516	0.000395	3.952671	1.339201	0.000158
 323	3.2039e+01	12.8242	56.104075	0.000426	4.256723	1.442217	0.000170
 324	3.2139e+01	12.8627	56.322081	0.000547	5.472930	1.854279	0.000219
 325	3.2238e+01	12.9109	56.540086	0.000547	5.472930	1.854279	0.000219
 326	3.2337e+01	12.9542	56.705609	0.000416	4.155373	1.407878	0.000166
 327	3.2437e+01	12.9782	56.838834	0.000334	3.344568	1.133170	0.000134
 328	3.2536e+01	13.0264	57.040691	0.000507	5.067527	1.716925	0.000203
 329	3.2636e+01	13.0681	57.194102	0.000385	3.851321	1.304863	0.000154
 330	3.2736e+01	13.1034	57.424219	0.000578	5.776981	1.957294	0.000231
 331	3.2835e+01	13.1371	57.589741	0.000416	4.155373	1.407878	0.000166
 332	3.2934e+01	13.1772	57.775450	0.000466	4.662125	1.579571	0.000187
 333	3.3034e+01	13.2189	57.920786	0.000365	3.648620	1.236186	0.000146
 334	3.3133e+01	13.2670	58.098420	0.000446	4.459424	1.510894	0.000179
 335	3.3233e+01	13.3071	58.296240	0.000497	4.966177	1.682586	0.000199
 336	3.3333e+01	13.3408	58.502134	0.000517	5.168878	1.751263	0.000207
 337	3.3432e+01	13.3873	58.691879	0.000476	4.763476	1.613909	0.000191
 338	3.3532e+01	13.4162	58.845291	0.000385	3.851321	1.304863	0.000154
 339	3.3631e+01	13.4611	59.035036	0.000476	4.763476	1.613909	0.000191
 340	3.3730e+01	13.4964	59.180373	0.000365	3.648620	1.236186	0.000146
 341	3.3830e+01	13.5461	59.418564	0.000598	5.979682	2.025971	0.000239
 342	3.3929e+01	13.5862	59.600235	0.000456	4.560775	1.545232	0.000183
 343	3.4029e+01	13.6296	59.733460	0.000334	3.344568	1.133170	0.000134
 344	3.4129e+01	13.6584	59.951466	0.000547	5.472930	1.854279	0.000219
 345	3.4228e+01	13.7001	60.121025	0.000426	4.256723	1.442217	0.000170
 346	3.4328e+01	13.7435	60.306734	0.000466	4.662125	1.579571	0.000187
 347	3.4427e+01	13.7948	60.480330	0.000436	4.358074	1.476555	0.000174
 348	3.4526e+01	13.8205	60.625667	0.000365	3.648620	1.236186	0.000146
 349	3.4626e+01	13.8622	60.847710	0.000557	5.574280	1.888617	0.000223
 350	3.4725e+01	13.8911	61.041492	0.000486	4.864826	1.648248	0.000195
 351	3.4825e+01	13.9392	61.211052	0.000426	4.256723	1.442217	0.000170
 352	3.4925e+01	13.9841	61.364463	0.000385	3.851321	1.304863	0.000154
 353	3.5024e+01	14.0210	61.590543	0.000568	5.675631	1.922956	0.000227
 354	3.5123e+01	14.0611	61.723768	0.000334	3.344568	1.133170	0.000134
 355	3.5223e+01	14.0964	61.953885	0.000578	5.776981	1.957294	0.000231
 356	3.5322e+01	14.1365	62.143630	0.000476	4.763476	1.613909	0.000191
 357	3.5422e+01	14.1814	62.264744	0.000304	3.040516	1.030155	0.000122
 358	3.5522e+01	14.2167	62.482750	0.000547	5.472930	1.854279	0.000219
 359	3.5621e+01	14.2648	62.664421	0.000456	4.560775	1.545232	0.000183
 360	3.5721e+01	14.3001	62.805721	0.000355	3.547269	1.201847	0.000142
 361	3.5820e+01	14.3370	63.007577	0.000507	5.067527	1.716925	0.000203
 362	3.5919e+01	14.3787	63.160989	0.000385	3.851321	1.304863	0.000154
 363	3.6019e+01	14.4204	63.383031	0.000557	5.574280	1.888617	0.000223
 364	3.6118e+01	14.4525	63.520294	0.000345	3.445919	1.167509	0.000138
 365	3.6218e+01	14.5039	63.726188	0.000517	5.168878	1.751263	0.000207
 366	3.6318e+01	14.5408	63.891710	0.000416	4.155373	1.407878	0.000166
 367	3.6417e+01	14.5777	64.085493	0.000486	4.864826	1.648248	0.000195
 368	3.6517e+01	14.6162	64.226792	0.000355	3.547269	1.201847	0.000142
 369	3.6616e+01	14.6466	64.404426	0.000446	4.459424	1.510894	0.000179
 370	3.6715e+01	14.7028	64.569949	0.000416	4.155373	1.407878	0.000166
 371	3.6815e+01	14.7397	64.775843	0.000517	5.168878	1.751263	0.000207
 372	3.6914e+01	14.7702	64.957514	0.000456	4.560775	1.545232	0.000183
 373	3.7014e+01	14.8199	65.139185	0.000456	4.560775	1.545232	0.000183
 374	3.7114e+01	14.8584	65.280485	0.000355	3.547269	1.201847	0.000142
 375	3.7213e+01	14.8905	65.466193	0.000466	4.662125	1.579571	0.000187
 376	3.7313e+01	14.9338	65.639790	0.000436	4.358074	1.476555	0.000174
 377	3.7412e+01	14.9803	65.853758	0.000537	5.371579	1.819940	0.000215
 378	3.7511e+01	15.0172	66.015244	0.000405	4.054022	1.373540	0.000162
 379	3.7611e+01	15.0573	66.176729	0.000405	4.054022	1.373540	0.000162
 380	3.7711e+01	15.0958	66.358400	0.000456	4.560775	1.545232	0.000183
 381	3.7810e+01	15.1311	66.596591	0.000598	5.979682	2.025971	0.000239
 382	3.7910e+01	15.1744	66.705594	0.000274	2.736465	0.927139	0.000110
 383	3.8009e+01	15.2145	66.903413	0.000497	4.966177	1.682586	0.000199
 384	3.8108e+01	15.2546	67.093159	0.000476	4.763476	1.613909	0.000191
 385	3.8208e+01	15.2899	67.286941	0.000486	4.864826	1.648248	0.000195
 386	3.8307e+01	15.3365	67.440353	0.000385	3.851321	1.304863	0.000154
 387	3.8407e+01	15.3782	67.626061	0.000466	4.662125	1.579571	0.000187
 388	3.8507e+01	15.4071	67.771398	0.000365	3.648620	1.236186	0.000146
 389	3.8606e+01	15.4520	67.965180	0.000486	4.864826	1.648248	0.000195
 390	3.8706e+01	15.4921	68.187223	0.000557	5.574280	1.888617	0.000223
 391	3.8805e+01	15.5370	68.316411	0.000324	3.243218	1.098832	0.000130
 392	3.8904e+01	15.5787	68.481934	0.000416	4.155373	1.407878	0.000166
 393	3.9004e+01	15.6060	68.659567	0.000446	4.459424	1.510894	0.000179
 394	3.9103e+01	15.6557	68.853350	0.000486	4.864826	1.648248	0.000195
 395	3.9203e+01	15.6958	69.026947	0.000436	4.358074	1.476555	0.000174
 396	3.9303e+01	15.7391	69.192469	0.000416	4.155373	1.407878	0.000166
 397	3.9402e+01	15.7824	69.386252	0.000486	4.864826	1.648248	0.000195
 398	3.9502e+01	15.8193	69.551774	0.000416	4.155373	1.407878	0.000166
 399	3.9601e+01	15.8578	69.713260	0.000405	4.054022	1.373540	0.000162
 400	3.9700e+01	15.8931	69.898968	0.000466	4.662125	1.579571	0.000187
 401	3.9800e+01	15.9316	70.084676	0.000466	4.662125	1.579571	0.000187
 402	3.9900e+01	15.9685	70.294607	0.000527	5.270229	1.785602	0.000211
 403	3.9999e+01	16.0151	70.423796	0.000324	3.243218	1.098832	0.000130
 404	4.0099e+01	16.0568	70.613541	0.000476	4.763476	1.613909	0.000191
 405	4.0198e+01	16.0905	70.807324	0.000486	4.864826	1.648248	0.000195
 406	4.0297e+01	16.1322	70.980921	0.000436	4.358074	1.476555	0.000174
 407	4.0397e+01	16.1691	71.170666	0.000476	4.763476	1.613909	0.000191
 408	4.0496e+01	16.2092	71.344263	0.000436	4.358074	1.476555	0.000174
 409	4.0596e+01	16.2396	71.517860	0.000436	4.358074	1.476555	0.000174
 410	4.0696e+01	16.2926	71.691456	0.000436	4.358074	1.476555	0.000174
 411	4.0795e+01	16.3311	71.873128	0.000456	4.560775	1.545232	0.000183
 412	4.0895e+01	16.3632	72.006353	0.000334	3.344568	1.133170	0.000134
 413	4.0994e+01	16.4065	72.252618	0.000618	6.182384	2.094648	0.000248
 414	4.1093e+01	16.4530	72.393918	0.000355	3.547269	1.201847	0.000142
 415	4.1193e+01	16.4979	72.555403	0.000405	4.054022	1.373540	0.000162
 416	4.1292e+01	16.5268	72.753223	0.000497	4.966177	1.682586	0.000199
 417	4.1392e+01	16.5830	72.930857	0.000446	4.459424	1.510894	0.000179
 418	4.1492e+01	16.6102	73.120602	0.000476	4.763476	1.613909	0.000191
 419	4.1591e+01	16.6535	73.330534	0.000527	5.270229	1.785602	0.000211
 420	4.1691e+01	16.6904	73.479908	0.000375	3.749970	1.270524	0.000150
 421	4.1790e+01	16.7257	73.621207	0.000355	3.547269	1.201847	0.000142
 422	4.1889e+01	16.7739	73.827101	0.000517	5.168878	1.751263	0.000207
 423	4.1989e+01	16.8124	74.004735	0.000446	4.459424	1.510894	0.000179
 424	4.2089e+01	16.8477	74.214666	0.000527	5.270229	1.785602	0.000211
 425	4.2188e+01	16.8846	74.380189	0.000416	4.155373	1.407878	0.000166
 426	4.2288e+01	16.9198	74.549749	0.000426	4.256723	1.442217	0.000170
 427	4.2387e+01	16.9744	74.719308	0.000426	4.256723	1.442217	0.000170
 428	4.2486e+01	17.0033	74.896942	0.000446	4.459424	1.510894	0.000179
 429	4.2586e+01	17.0466	75.070539	0.000436	4.358074	1.476555	0.000174
 430	4.2685e+01	17.0899	75.248173	0.000446	4.459424	1.510894	0.000179
 431	4.2785e+01	17.1300	75.445993	0.000497	4.966177	1.682586	0.000199
 432	4.2885e+01	17.1669	75.631701	0.000466	4.662125	1.579571	0.000187
 433	4.2984e+01	17.2038	75.773001	0.000355	3.547269	1.201847	0.000142
 434	4.3084e+01	17.2423	75.962746	0.000476	4.763476	1.613909	0.000191
 435	4.3183e+01	17.2792	76.152491	0.000476	4.763476	1.613909	0.000191
 436	4.3282e+01	17.3353	76.318014	0.000416	4.155373	1.407878	0.000166
 437	4.3382e+01	17.3658	76.491611	0.000436	4.358074	1.476555	0.000174
 438	4.3481e+01	17.4059	76.657133	0.000416	4.155373	1.407878	0.000166
 439	4.3581e+01	17.4476	76.850916	0.000486	4.864826	1.648248	0.000195
 440	4.3681e+01	17.4813	77.044698	0.000486	4.864826	1.648248	0.000195
 441	4.3780e+01	17.5295	77.218295	0.000436	4.358074	1.476555	0.000174
 442	4.3880e+01	17.5680	77.399966	0.000456	4.560775	1.545232	0.000183
 443	4.3979e+01	17.6161	77.557415	0.000395	3.952671	1.339201	0.000158
 444	4.4078e+01	17.6482	77.731012	0.000436	4.358074	1.476555	0.000174
 445	4.4178e+01	17.6883	77.920757	0.000476	4.763476	1.613909	0.000191
 446	4.4278e+01	17.7316	78.098391	0.000446	4.459424	1.510894	0.000179
 447	4.4377e+01	17.7621	78.288136	0.000476	4.763476	1.613909	0.000191
 448	4.4477e+01	17.7974	78.437510	0.000375	3.749970	1.270524	0.000150
 449	4.4576e+01	17.8471	78.643404	0.000517	5.168878	1.751263	0.000207
 450	4.4675e+01	17.8920	78.829112	0.000466	4.662125	1.579571	0.000187
 451	4.4775e+01	17.9225	79.002709	0.000436	4.358074	1.476555	0.000174
 452	4.4874e+01	17.9594	79.168232	0.000416	4.155373	1.407878	0.000166
 453	4.4974e+01	18.0043	79.345866	0.000446	4.459424	1.510894	0.000179
 454	4.5074e+01	18.0380	79.523500	0.000446	4.459424	1.510894	0.000179
 455	4.5173e+01	18.0861	79.705171	0.000456	4.560775	1.545232	0.000183
 456	4.5273e+01	18.1262	79.870693	0.000416	4.155373	1.407878	0.000166
 457	4.5372e+01	18.1695	80.056402	0.000466	4.662125	1.579571	0.000187
 458	4.5471e+01	18.2016	80.238073	0.000456	4.560775	1.545232	0.000183
 459	4.5571e+01	18.2369	80.419744	0.000456	4.560775	1.545232	0.000183
 460	4.5670e+01	18.2850	80.561044	0.000355	3.547269	1.201847	0.000142
 461	4.5770e+01	18.3284	80.775012	0.000537	5.371579	1.819940	0.000215
 462	4.5870e+01	18.3685	80.952646	0.000446	4.459424	1.510894	0.000179
 463	4.5969e+01	18.4038	81.158540	0.000517	5.168878	1.751263	0.000207
 464	4.6069e+01	18.4391	81.291765	0.000334	3.344568	1.133170	0.000134
 465	4.6168e+01	18.4727	81.481511	0.000476	4.763476	1.613909	0.000191
 466	4.6267e+01	18.5225	81.691442	0.000527	5.270229	1.785602	0.000211
 467	4.6367e+01	18.5658	81.856964	0.000416	4.155373	1.407878	0.000166
 468	4.6467e+01	18.5995	82.006338	0.000375	3.749970	1.270524	0.000150
 469	4.6566e+01	18.6428	82.216269	0.000527	5.270229	1.785602	0.000211
 470	4.6666e+01	18.6829	82.353532	0.000345	3.445919	1.167509	0.000138
 471	4.6765e+01	18.7246	82.555389	0.000507	5.067527	1.716925	0.000203
 472	4.6864e+01	18.7631	82.708800	0.000385	3.851321	1.304863	0.000154
 473	4.6964e+01	18.8000	82.842025	0.000334	3.344568	1.133170	0.000134
 474	4.7063e+01	18.8433	83.092328	0.000628	6.283734	2.128987	0.000252
 475	4.7163e+01	18.8866	83.241702	0.000375	3.749970	1.270524	0.000150
 476	4.7263e+01	18.9235	83.435484	0.000486	4.864826	1.648248	0.000195
 477	4.7362e+01	18.9572	83.580821	0.000365	3.648620	1.236186	0.000146
 478	4.7462e+01	18.9989	83.790752	0.000527	5.270229	1.785602	0.000211
 479	4.7561e+01	19.0390	83.948201	0.000395	3.952671	1.339201	0.000158
 480	4.7660e+01	19.0840	84.141983	0.000486	4.864826	1.648248	0.000195
 481	4.7760e+01	19.1209	84.331728	0.000476	4.763476	1.613909	0.000191
 482	4.7859e+01	19.1561	84.473028	0.000355	3.547269	1.201847	0.000142
 483	4.7959e+01	19.2027	84.638551	0.000416	4.155373	1.407878	0.000166
 484	4.8059e+01	19.2428	84.812148	0.000436	4.358074	1.476555	0.000174
 485	4.8158e+01	19.2861	84.993819	0.000456	4.560775	1.545232	0.000183
 486	4.8258e+01	19.3214	85.171453	0.000446	4.459424	1.510894	0.000179
 487	4.8357e+01	19.3567	85.316790	0.000365	3.648620	1.236186	0.000146
 488	4.8456e+01	19.4080	85.522683	0.000517	5.168878	1.751263	0.000207
 489	4.8556e+01	19.4417	85.700317	0.000446	4.459424	1.510894	0.000179
 490	4.8656e+01	19.4722	85.833543	0.000334	3.344568	1.133170	0.000134
 491	4.8755e+01	19.5171	86.059623	0.000568	5.675631	1.922956	0.000227
 492	4.8855e+01	19.5572	86.204959	0.000365	3.648620	1.236186	0.000146
 493	4.8954e+01	19.6037	86.374519	0.000426	4.256723	1.442217	0.000170
 494	4.9053e+01	19.6374	86.572339	0.000497	4.966177	1.682586	0.000199
 495	4.9153e+01	19.6775	86.697490	0.000314	3.141867	1.064493	0.000126
 496	4.9252e+01	19.7080	86.899347	0.000507	5.067527	1.716925	0.000203
 497	4.9352e+01	19.7609	87.117352	0.000547	5.472930	1.854279	0.000219
 498	4.9452e+01	19.8026	87.266726	0.000375	3.749970	1.270524	0.000150
 499	4.9551e+01	19.8492	87.395914	0.000324	3.243218	1.098832	0.000130
 500	4.9651e+01	19.8732	87.589697	0.000486	4.864826	1.648248	0.000195
 501	4.9750e+01	19.9182	87.779442	0.000476	4.763476	1.613909	0.000191
 502	4.9849e+01	19.9615	87.961113	0.000456	4.560775	1.545232	0.000183
 503	4.9949e+01	20.0016	88.102413	0.000355	3.547269	1.201847	0.000142
 504	5.0048e+01	19.9615	87.969188	0.000334	3.344568	1.133170	-0.000134
 505	5.0148e+01	19.9246	87.835962	0.000334	3.344568	1.133170	-0.000134
 506	5.0248e+01	19.8748	87.670440	0.000416	4.155373	1.407878	-0.000166
 507	5.0347e+01	19.8299	87.549326	0.000304	3.040516	1.030155	-0.000122
 508	5.0447e+01	19.7914	87.428212	0.000304	3.040516	1.030155	-0.000122
 509	5.0546e+01	19.7529	87.315172	0.000284	2.837815	0.961478	-0.000114
 510	5.0645e+01	19.7160	87.149649	0.000416	4.155373	1.407878	-0.000166
 511	5.0745e+01	19.6727	86.996238	0.000385	3.851321	1.304863	-0.000154
 512	5.0844e+01	19.6422	86.863013	0.000334	3.344568	1.133170	-0.000134
 513	5.0944e+01	19.5925	86.754010	0.000274	2.736465	0.927139	-0.000110
 514	5.1044e+01	19.5540	86.588487	0.000416	4.155373	1.407878	-0.000166
 515	5.1143e+01	19.5235	86.414890	0.000436	4.358074	1.476555	-0.000174
 516	5.1242e+01	19.4770	86.281665	0.000334	3.344568	1.133170	-0.000134
 517	5.1342e+01	19.4433	86.136328	0.000365	3.648620	1.236186	-0.000146
 518	5.1441e+01	19.3759	86.007140	0.000324	3.243218	1.098832	-0.000130
 519	5.1541e+01	19.3599	85.873914	0.000334	3.344568	1.133170	-0.000134
 520	5.1641e+01	19.3182	85.708392	0.000416	4.155373	1.407878	-0.000166
 521	5.1740e+01	19.2845	85.554981	0.000385	3.851321	1.304863	-0.000154
 522	5.1840e+01	19.2428	85.405607	0.000375	3.749970	1.270524	-0.000150
 523	5.1939e+01	19.1995	85.232010	0.000436	4.358074	1.476555	-0.000174
 524	5.2038e+01	19.1545	85.131081	0.000253	2.533764	0.858462	-0.000101
 525	5.2138e+01	19.1160	84.985744	0.000365	3.648620	1.236186	-0.000146
 526	5.2237e+01	19.0904	84.820222	0.000416	4.155373	1.407878	-0.000166
 527	5.2337e+01	19.0487	84.646625	0.000436	4.358074	1.476555	-0.000174
 528	5.2437e+01	18.9989	84.497251	0.000375	3.749970	1.270524	-0.000150
 529	5.2536e+01	18.9588	84.351914	0.000365	3.648620	1.236186	-0.000146
 530	5.2636e+01	18.9187	84.206577	0.000365	3.648620	1.236186	-0.000146
 531	5.2735e+01	18.8818	84.032980	0.000436	4.358074	1.476555	-0.000174
 532	5.2834e+01	18.8481	83.875532	0.000395	3.952671	1.339201	-0.000158
 533	5.2934e+01	18.8016	83.734232	0.000355	3.547269	1.201847	-0.000142
 534	5.3033e+01	18.7647	83.596970	0.000345	3.445919	1.167509	-0.000138
 535	5.3133e+01	18.7198	83.415299	0.000456	4.560775	1.545232	-0.000183
 536	5.3233e+01	18.6845	83.273999	0.000355	3.547269	1.201847	-0.000142
 537	5.3332e+01	18.6476	83.164996	0.000274	2.736465	0.927139	-0.000110
 538	5.3431e+01	18.5995	82.963139	0.000507	5.067527	1.716925	-0.000203
 539	5.3531e+01	18.5578	82.813765	0.000375	3.749970	1.270524	-0.000150
 540	5.3630e+01	18.5305	82.668429	0.000365	3.648620	1.236186	-0.000146
 541	5.3730e+01	18.4759	82.523092	0.000365	3.648620	1.236186	-0.000146
 542	5.3830e+01	18.4487	82.357569	0.000416	4.155373	1.407878	-0.000166
 543	5.3929e+01	18.4054	82.188009	0.000426	4.256723	1.442217	-0.000170
 544	5.4029e+01	18.3588	82.058821	0.000324	3.243218	1.098832	-0.000130
 545	5.4128e+01	18.3219	81.913484	0.000365	3.648620	1.236186	-0.000146
 546	5.4227e+01	18.2850	81.715664	0.000497	4.966177	1.682586	-0.000199
 547	5.4327e+01	18.2401	81.590513	0.000314	3.141867	1.064493	-0.000126
 548	5.4426e+01	18.1984	81.412879	0.000446	4.459424	1.510894	-0.000179
 549	5.4526e+01	18.1679	81.263505	0.000375	3.749970	1.270524	-0.000150
 550	5.4626e+01	18.1198	81.126243	0.000345	3.445919	1.167509	-0.000138
 551	5.4725e+01	18.0893	80.924386	0.000507	5.067527	1.716925	-0.000203
 552	5.4825e+01	18.0476	80.770975	0.000385	3.851321	1.304863	-0.000154
 553	5.4924e+01	18.0059	80.637749	0.000334	3.344568	1.133170	-0.000134
 554	5.5023e+01	17.9594	80.496449	0.000355	3.547269	1.201847	-0.000142
 555	5.5123e+01	17.9289	80.298630	0.000497	4.966177	1.682586	-0.000199
 556	5.5222e+01	17.8856	80.116959	0.000456	4.560775	1.545232	-0.000183
 557	5.5322e+01	17.8407	79.991808	0.000314	3.141867	1.064493	-0.000126
 558	5.5422e+01	17.8134	79.854545	0.000345	3.445919	1.167509	-0.000138
 559	5.5521e+01	17.7733	79.680948	0.000436	4.358074	1.476555	-0.000174
 560	5.5620e+01	17.7252	79.519463	0.000405	4.054022	1.373540	-0.000162
 561	5.5720e+01	17.6802	79.349903	0.000426	4.256723	1.442217	-0.000170
 562	5.5819e+01	17.6450	79.228789	0.000304	3.040516	1.030155	-0.000122
 563	5.5919e+01	17.6065	79.071341	0.000395	3.952671	1.339201	-0.000158
 564	5.6019e+01	17.5680	78.897744	0.000436	4.358074	1.476555	-0.000174
 565	5.6118e+01	17.5246	78.728184	0.000426	4.256723	1.442217	-0.000170
 566	5.6218e+01	17.4910	78.534402	0.000486	4.864826	1.648248	-0.000195
 567	5.6317e+01	17.4412	78.409250	0.000314	3.141867	1.064493	-0.000126
 568	5.6416e+01	17.4027	78.276025	0.000334	3.344568	1.133170	-0.000134
 569	5.6516e+01	17.3770	78.102428	0.000436	4.358074	1.476555	-0.000174
 570	5.6615e+01	17.3305	77.916720	0.000466	4.662125	1.579571	-0.000187
 571	5.6715e+01	17.2840	77.763309	0.000385	3.851321	1.304863	-0.000154
 572	5.6815e+01	17.2503	77.593749	0.000426	4.256723	1.442217	-0.000170
 573	5.6914e+01	17.2070	77.468598	0.000314	3.141867	1.064493	-0.000126
 574	5.7014e+01	17.1701	77.290964	0.000446	4.459424	1.510894	-0.000179
 575	5.7113e+01	17.1236	77.169850	0.000304	3.040516	1.030155	-0.000122
 576	5.7212e+01	17.0867	76.976067	0.000486	4.864826	1.648248	-0.000195
 577	5.7312e+01	17.0402	76.818619	0.000395	3.952671	1.339201	-0.000158
 578	5.7411e+01	17.0177	76.665208	0.000385	3.851321	1.304863	-0.000154
 579	5.7511e+01	16.9680	76.519871	0.000365	3.648620	1.236186	-0.000146
 580	5.7611e+01	16.9263	76.354348	0.000416	4.155373	1.407878	-0.000166
 581	5.7710e+01	16.8846	76.196900	0.000395	3.952671	1.339201	-0.000158
 582	5.7809e+01	16.8541	76.023303	0.000436	4.358074	1.476555	-0.000174
 583	5.7909e+01	16.8059	75.882003	0.000355	3.547269	1.201847	-0.000142
 584	5.8008e+01	16.7771	75.700332	0.000456	4.560775	1.545232	-0.000183
 585	5.8108e+01	16.7321	75.550958	0.000375	3.749970	1.270524	-0.000150
 586	5.8208e+01	16.6888	75.377361	0.000436	4.358074	1.476555	-0.000174
 587	5.8307e+01	16.6567	75.232024	0.000365	3.648620	1.236186	-0.000146
 588	5.8407e+01	16.6086	75.078613	0.000385	3.851321	1.304863	-0.000154
 589	5.8506e+01	16.5717	74.900979	0.000446	4.459424	1.510894	-0.000179
 590	5.8605e+01	16.5284	74.763717	0.000345	3.445919	1.167509	-0.000138
 591	5.8705e+01	16.4931	74.602231	0.000405	4.054022	1.373540	-0.000162
 592	5.8804e+01	16.4546	74.420560	0.000456	4.560775	1.545232	-0.000183
 593	5.8904e+01	16.4081	74.279260	0.000355	3.547269	1.201847	-0.000142
 594	5.9004e+01	16.3680	74.121812	0.000395	3.952671	1.339201	-0.000158
 595	5.9103e+01	16.3279	73.932067	0.000476	4.763476	1.613909	-0.000191
 596	5.9203e+01	16.2942	73.774618	0.000395	3.952671	1.339201	-0.000158
 597	5.9302e+01	16.2461	73.653504	0.000304	3.040516	1.030155	-0.000122
 598	5.9401e+01	16.2092	73.508168	0.000365	3.648620	1.236186	-0.000146
 599	5.9501e+01	16.1691	73.290162	0.000547	5.472930	1.854279	-0.000219
 600	5.9600e+01	16.1241	73.165011	0.000314	3.141867	1.064493	-0.000126
 601	5.9700e+01	16.0872	72.999488	0.000416	4.155373	1.407878	-0.000166
 602	5.9800e+01	16.0600	72.829929	0.000426	4.256723	1.442217	-0.000170
 603	5.9899e+01	16.0183	72.692666	0.000345	3.445919	1.167509	-0.000138
 604	5.9998e+01	15.9814	72.486772	0.000517	5.168878	1.751263	-0.000207
 605	6.0098e+01	15.9348	72.361621	0.000314	3.141867	1.064493	-0.000126
 606	6.0197e+01	15.8931	72.208210	0.000385	3.851321	1.304863	-0.000154
 607	6.0297e+01	15.8578	72.058836	0.000375	3.749970	1.270524	-0.000150
 608	6.0397e+01	15.8161	71.836793	0.000557	5.574280	1.888617	-0.000223
 609	6.0496e+01	15.7712	71.735865	0.000253	2.533764	0.858462	-0.000101
 610	6.0596e+01	15.7391	71.562268	0.000436	4.358074	1.476555	-0.000174
 611	6.0695e+01	15.7006	71.356374	0.000517	5.168878	1.751263	-0.000207
 612	6.0794e+01	15.6509	71.207000	0.000375	3.749970	1.270524	-0.000150
 613	6.0894e+01	15.6076	71.069738	0.000345	3.445919	1.167509	-0.000138
 614	6.0993e+01	15.5819	70.908252	0.000405	4.054022	1.373540	-0.000162
 615	6.1093e+01	15.5322	70.730618	0.000446	4.459424	1.510894	-0.000179
 616	6.1193e+01	15.4905	70.573170	0.000395	3.952671	1.339201	-0.000158
 617	6.1292e+01	15.4488	70.415722	0.000395	3.952671	1.339201	-0.000158
 618	6.1392e+01	15.4135	70.282496	0.000334	3.344568	1.133170	-0.000134
 619	6.1491e+01	15.3846	70.084676	0.000497	4.966177	1.682586	-0.000199
 620	6.1590e+01	15.3284	69.959525	0.000314	3.141867	1.064493	-0.000126
 621	6.1690e+01	15.2899	69.769780	0.000476	4.763476	1.613909	-0.000191
 622	6.1789e+01	15.2498	69.596183	0.000436	4.358074	1.476555	-0.000174
 623	6.1889e+01	15.2226	69.466995	0.000324	3.243218	1.098832	-0.000130
 624	6.1989e+01	15.1776	69.273212	0.000486	4.864826	1.648248	-0.000195
 625	6.2088e+01	15.1375	69.164209	0.000274	2.736465	0.927139	-0.000110
 626	6.2188e+01	15.0958	68.958316	0.000517	5.168878	1.751263	-0.000207
 627	6.2287e+01	15.0509	68.825090	0.000334	3.344568	1.133170	-0.000134
 628	6.2386e+01	15.0188	68.647456	0.000446	4.459424	1.510894	-0.000179
 629	6.2486e+01	14.9755	68.498082	0.000375	3.749970	1.270524	-0.000150
 630	6.2586e+01	14.9354	68.276040	0.000557	5.574280	1.888617	-0.000223
 631	6.2685e+01	14.8905	68.163000	0.000284	2.837815	0.961478	-0.000114
 632	6.2785e+01	14.8664	68.005552	0.000395	3.952671	1.339201	-0.000158
 633	6.2884e+01	14.8199	67.795620	0.000527	5.270229	1.785602	-0.000211
 634	6.2983e+01	14.7718	67.666432	0.000324	3.243218	1.098832	-0.000130
 635	6.3083e+01	14.7333	67.500910	0.000416	4.155373	1.407878	-0.000166
 636	6.3182e+01	14.6932	67.335387	0.000416	4.155373	1.407878	-0.000166
 637	6.3282e+01	14.6515	67.190050	0.000365	3.648620	1.236186	-0.000146
 638	6.3382e+01	14.6081	67.004342	0.000466	4.662125	1.579571	-0.000187
 639	6.3481e+01	14.5761	66.850931	0.000385	3.851321	1.304863	-0.000154
 640	6.3581e+01	14.5376	66.693482	0.000395	3.952671	1.339201	-0.000158
 641	6.3680e+01	14.5055	66.511811	0.000456	4.560775	1.545232	-0.000183
 642	6.3779e+01	14.4557	66.366474	0.000365	3.648620	1.236186	-0.000146
 643	6.3879e+01	14.4204	66.188840	0.000446	4.459424	1.510894	-0.000179
 644	6.3978e+01	14.3755	65.999095	0.000476	4.763476	1.613909	-0.000191
 645	6.4078e+01	14.3418	65.841647	0.000395	3.952671	1.339201	-0.000158
 646	6.4177e+01	14.3017	65.700347	0.000355	3.547269	1.201847	-0.000142
 647	6.4277e+01	14.2584	65.546936	0.000385	3.851321	1.304863	-0.000154
 648	6.4376e+01	14.2215	65.357190	0.000476	4.763476	1.613909	-0.000191
 649	6.4476e+01	14.1766	65.203779	0.000385	3.851321	1.304863	-0.000154
 650	6.4576e+01	14.1349	65.005960	0.000497	4.966177	1.682586	-0.000199
 651	6.4675e+01	14.0980	64.844474	0.000405	4.054022	1.373540	-0.000162
 652	6.4775e+01	14.0643	64.699137	0.000365	3.648620	1.236186	-0.000146
 653	6.4874e+01	14.0178	64.525541	0.000436	4.358074	1.476555	-0.000174
 654	6.4974e+01	13.9809	64.339832	0.000466	4.662125	1.579571	-0.000187
 655	6.5073e+01	13.9440	64.166235	0.000436	4.358074	1.476555	-0.000174
 656	6.5172e+01	13.9087	64.045121	0.000304	3.040516	1.030155	-0.000122
 657	6.5272e+01	13.8638	63.843265	0.000507	5.067527	1.716925	-0.000203
 658	6.5371e+01	13.8173	63.706002	0.000345	3.445919	1.167509	-0.000138
 659	6.5471e+01	13.7836	63.540479	0.000416	4.155373	1.407878	-0.000166
 660	6.5570e+01	13.7403	63.350734	0.000476	4.763476	1.613909	-0.000191
 661	6.5670e+01	13.6985	63.156951	0.000486	4.864826	1.648248	-0.000195
 662	6.5769e+01	13.6552	62.983355	0.000436	4.358074	1.476555	-0.000174
 663	6.5869e+01	13.6167	62.846092	0.000345	3.445919	1.167509	-0.000138
 664	6.5969e+01	13.5782	62.672495	0.000436	4.358074	1.476555	-0.000174
 665	6.6068e+01	13.5413	62.523121	0.000375	3.749970	1.270524	-0.000150
 666	6.6168e+01	13.4900	62.317227	0.000517	5.168878	1.751263	-0.000207
 667	6.6267e+01	13.4611	62.159779	0.000395	3.952671	1.339201	-0.000158
 668	6.6367e+01	13.4242	61.974071	0.000466	4.662125	1.579571	-0.000187
 669	6.6466e+01	13.3809	61.804511	0.000426	4.256723	1.442217	-0.000170
 670	6.6566e+01	13.3424	61.643026	0.000405	4.054022	1.373540	-0.000162
 671	6.6665e+01	13.3087	61.481540	0.000405	4.054022	1.373540	-0.000162
 672	6.6764e+01	13.2622	61.311980	0.000426	4.256723	1.442217	-0.000170
 673	6.6864e+01	13.2317	61.158569	0.000385	3.851321	1.304863	-0.000154
 674	6.6963e+01	13.1852	60.960750	0.000497	4.966177	1.682586	-0.000199
 675	6.7063e+01	13.1451	60.803301	0.000395	3.952671	1.339201	-0.000158
 676	6.7162e+01	13.1018	60.625667	0.000446	4.459424	1.510894	-0.000179
 677	6.7262e+01	13.0681	60.407662	0.000547	5.472930	1.854279	-0.000219
 678	6.7362e+01	13.0151	60.262325	0.000365	3.648620	1.236186	-0.000146
 679	6.7461e+01	12.9863	60.112951	0.000375	3.749970	1.270524	-0.000150
 680	6.7561e+01	12.9430	59.963577	0.000375	3.749970	1.270524	-0.000150
 681	6.7660e+01	12.9061	59.798055	0.000416	4.155373	1.407878	-0.000166
 682	6.7760e+01	12.8708	59.600235	0.000497	4.966177	1.682586	-0.000199
 683	6.7859e+01	12.8194	59.450861	0.000375	3.749970	1.270524	-0.000150
 684	6.7959e+01	12.7889	59.244967	0.000517	5.168878	1.751263	-0.000207
 685	6.8058e+01	12.7537	59.067333	0.000446	4.459424	1.510894	-0.000179
 686	6.8157e+01	12.7071	58.889699	0.000446	4.459424	1.510894	-0.000179
 687	6.8257e+01	12.6622	58.744362	0.000365	3.648620	1.236186	-0.000146
 688	6.8356e+01	12.6301	58.550580	0.000486	4.864826	1.648248	-0.000195
 689	6.8456e+01	12.5820	58.376983	0.000436	4.358074	1.476555	-0.000174
 690	6.8555e+01	12.5499	58.219534	0.000395	3.952671	1.339201	-0.000158
 691	6.8655e+01	12.5098	58.041901	0.000446	4.459424	1.510894	-0.000179
 692	6.8754e+01	12.4617	57.880415	0.000405	4.054022	1.373540	-0.000162
 693	6.8854e+01	12.4328	57.682595	0.000497	4.966177	1.682586	-0.000199
 694	6.8954e+01	12.3863	57.557444	0.000314	3.141867	1.064493	-0.000126
 695	6.9053e+01	12.3446	57.355587	0.000507	5.067527	1.716925	-0.000203
 696	6.9153e+01	12.3013	57.137582	0.000547	5.472930	1.854279	-0.000219
 697	6.9252e+01	12.2660	57.000319	0.000345	3.445919	1.167509	-0.000138
 698	6.9352e+01	12.2275	56.826723	0.000436	4.358074	1.476555	-0.000174
 699	6.9451e+01	12.1874	56.628903	0.000497	4.966177	1.682586	-0.000199
 700	6.9550e+01	12.1440	56.463380	0.000416	4.155373	1.407878	-0.000166
 701	6.9650e+01	12.1168	56.309969	0.000385	3.851321	1.304863	-0.000154
 702	6.9749e+01	12.0686	56.108112	0.000507	5.067527	1.716925	-0.000203
 703	6.9849e+01	12.0301	55.938553	0.000426	4.256723	1.442217	-0.000170
 704	6.9948e+01	11.9868	55.768993	0.000426	4.256723	1.442217	-0.000170
 705	7.0048e+01	11.9515	55.563099	0.000517	5.168878	1.751263	-0.000207
 706	7.0147e+01	11.9082	55.409688	0.000385	3.851321	1.304863	-0.000154
 707	7.0247e+01	11.8713	55.240128	0.000426	4.256723	1.442217	-0.000170
 708	7.0347e+01	11.8248	55.034234	0.000517	5.168878	1.751263	-0.000207
 709	7.0446e+01	11.7959	54.864675	0.000426	4.256723	1.442217	-0.000170
 710	7.0546e+01	11.7510	54.691078	0.000436	4.358074	1.476555	-0.000174
 711	7.0645e+01	11.7125	54.525555	0.000416	4.155373	1.407878	-0.000166
 712	7.0745e+01	11.6644	54.343884	0.000456	4.560775	1.545232	-0.000183
 713	7.0844e+01	11.6275	54.137990	0.000517	5.168878	1.751263	-0.000207
 714	7.0944e+01	11.5858	53.952282	0.000466	4.662125	1.579571	-0.000187
 715	7.1043e+01	11.5553	53.810982	0.000355	3.547269	1.201847	-0.000142
 716	7.1142e+01	11.5056	53.645460	0.000416	4.155373	1.407878	-0.000166
 717	7.1242e+01	11.4574	53.439566	0.000517	5.168878	1.751263	-0.000207
 718	7.1341e+01	11.4270	53.274043	0.000416	4.155373	1.407878	-0.000166
 719	7.1441e+01	11.4013	53.104483	0.000426	4.256723	1.442217	-0.000170
 720	7.1540e+01	11.3596	52.979332	0.000314	3.141867	1.064493	-0.000126
 721	7.1640e+01	11.3195	52.729030	0.000628	6.283734	2.128987	-0.000252
 722	7.1740e+01	11.2778	52.547359	0.000456	4.560775	1.545232	-0.000183
 723	7.1839e+01	11.2328	52.381836	0.000416	4.155373	1.407878	-0.000166
 724	7.1939e+01	11.1863	52.216314	0.000416	4.155373	1.407878	-0.000166
 725	7.2038e+01	11.1462	52.010420	0.000517	5.168878	1.751263	-0.000207
 726	7.2138e+01	11.1141	51.869120	0.000355	3.547269	1.201847	-0.000142
 727	7.2237e+01	11.0724	51.659189	0.000527	5.270229	1.785602	-0.000211
 728	7.2337e+01	11.0387	51.501741	0.000395	3.952671	1.339201	-0.000158
 729	7.2436e+01	10.9986	51.299884	0.000507	5.067527	1.716925	-0.000203
 730	7.2535e+01	10.9617	51.138398	0.000405	4.054022	1.373540	-0.000162
 731	7.2635e+01	10.9120	50.980950	0.000395	3.952671	1.339201	-0.000158
 732	7.2734e+01	10.8655	50.783130	0.000497	4.966177	1.682586	-0.000199
 733	7.2834e+01	10.8350	50.621645	0.000405	4.054022	1.373540	-0.000162
 734	7.2933e+01	10.8029	50.423825	0.000497	4.966177	1.682586	-0.000199
 735	7.3033e+01	10.7612	50.254266	0.000426	4.256723	1.442217	-0.000170
 736	7.3132e+01	10.7099	50.076632	0.000446	4.459424	1.510894	-0.000179
 737	7.3232e+01	10.6778	49.886886	0.000476	4.763476	1.613909	-0.000191
 738	7.3332e+01	10.6393	49.717327	0.000426	4.256723	1.442217	-0.000170
 739	7.3431e+01	10.5992	49.547767	0.000426	4.256723	1.442217	-0.000170
 740	7.3531e+01	10.5542	49.349947	0.000497	4.966177	1.682586	-0.000199
 741	7.3630e+01	10.5174	49.200573	0.000375	3.749970	1.270524	-0.000150
 742	7.3730e+01	10.4788	49.035051	0.000416	4.155373	1.407878	-0.000166
 743	7.3829e+01	10.4387	48.817045	0.000547	5.472930	1.854279	-0.000219
 744	7.3928e+01	10.3954	48.643449	0.000436	4.358074	1.476555	-0.000174
 745	7.4028e+01	10.3569	48.429480	0.000537	5.371579	1.819940	-0.000215
 746	7.4127e+01	10.3152	48.276069	0.000385	3.851321	1.304863	-0.000154
 747	7.4227e+01	10.2912	48.086324	0.000476	4.763476	1.613909	-0.000191
 748	7.4326e+01	10.2382	47.932913	0.000385	3.851321	1.304863	-0.000154
 749	7.4426e+01	10.1965	47.743167	0.000476	4.763476	1.613909	-0.000191
 750	7.4525e+01	10.1516	47.589756	0.000385	3.851321	1.304863	-0.000154
 751	7.4625e+01	10.1163	47.416159	0.000436	4.358074	1.476555	-0.000174
 752	7.4725e+01	10.0778	47.182005	0.000588	5.878332	1.991633	-0.000235
 753	7.4824e+01	10.0377	47.028594	0.000385	3.851321	1.304863	-0.000154
 754	7.4924e+01	9.9976	46.838849	0.000476	4.763476	1.613909	-0.000191
 755	7.5023e+01	9.9591	46.681401	0.000395	3.952671	1.339201	-0.000158
 756	7.5123e+01	9.9190	46.503767	0.000446	4.459424	1.510894	-0.000179
 757	7.5222e+01	9.8869	46.293836	0.000527	5.270229	1.785602	-0.000211
 758	7.5322e+01	9.8436	46.140424	0.000385	3.851321	1.304863	-0.000154
 759	7.5421e+01	9.8115	45.978939	0.000405	4.054022	1.373540	-0.000162
 760	7.5520e+01	9.7585	45.809379	0.000426	4.256723	1.442217	-0.000170
 761	7.5620e+01	9.7184	45.599448	0.000527	5.270229	1.785602	-0.000211
 762	7.5719e+01	9.6783	45.437963	0.000405	4.054022	1.373540	-0.000162
 763	7.5819e+01	9.6446	45.280514	0.000395	3.952671	1.339201	-0.000158
 764	7.5918e+01	9.6013	45.070583	0.000527	5.270229	1.785602	-0.000211
 765	7.6018e+01	9.5548	44.905061	0.000416	4.155373	1.407878	-0.000166
 766	7.6118e+01	9.5227	44.735501	0.000426	4.256723	1.442217	-0.000170
 767	7.6217e+01	9.4778	44.553830	0.000456	4.560775	1.545232	-0.000183
 768	7.6317e+01	9.4425	44.380233	0.000436	4.358074	1.476555	-0.000174
 769	7.6416e+01	9.4008	44.202599	0.000446	4.459424	1.510894	-0.000179
 770	7.6516e+01	9.3575	44.012854	0.000476	4.763476	1.613909	-0.000191
 771	7.6615e+01	9.3318	43.847331	0.000416	4.155373	1.407878	-0.000166
 772	7.6715e+01	9.2869	43.641437	0.000517	5.168878	1.751263	-0.000207
 773	7.6814e+01	9.2468	43.508212	0.000334	3.344568	1.133170	-0.000134
 774	7.6913e+01	9.1906	43.265984	0.000608	6.081033	2.060310	-0.000243
 775	7.7013e+01	9.1634	43.112573	0.000385	3.851321	1.304863	-0.000154
 776	7.7112e+01	9.1233	42.918790	0.000486	4.864826	1.648248	-0.000195
 777	7.7212e+01	9.0816	42.741156	0.000446	4.459424	1.510894	-0.000179
 778	7.7311e+01	9.0415	42.636191	0.000264	2.635114	0.892801	-0.000105
 779	7.7411e+01	9.0030	42.402037	0.000588	5.878332	1.991633	-0.000235
 780	7.7510e+01	8.9596	42.236514	0.000416	4.155373	1.407878	-0.000166
 781	7.7610e+01	8.9276	42.058880	0.000446	4.459424	1.510894	-0.000179
 782	7.7710e+01	8.8874	41.865098	0.000486	4.864826	1.648248	-0.000195
 783	7.7809e+01	8.8409	41.707649	0.000395	3.952671	1.339201	-0.000158
 784	7.7909e+01	8.8072	41.493681	0.000537	5.371579	1.819940	-0.000215
 785	7.8008e+01	8.7655	41.352381	0.000355	3.547269	1.201847	-0.000142
 786	7.8108e+01	8.7222	41.126302	0.000568	5.675631	1.922956	-0.000227
 787	7.8207e+01	8.6837	40.952705	0.000436	4.358074	1.476555	-0.000174
 788	7.8306e+01	8.6404	40.811405	0.000355	3.547269	1.201847	-0.000142
 789	7.8406e+01	8.6003	40.613586	0.000497	4.966177	1.682586	-0.000199
 790	7.8505e+01	8.5666	40.468249	0.000365	3.648620	1.236186	-0.000146
 791	7.8605e+01	8.5185	40.270429	0.000497	4.966177	1.682586	-0.000199
 792	7.8704e+01	8.4800	40.088758	0.000456	4.560775	1.545232	-0.000183
 793	7.8804e+01	8.4383	39.894975	0.000486	4.864826	1.648248	-0.000195
 794	7.8903e+01	8.3982	39.717341	0.000446	4.459424	1.510894	-0.000179
 795	7.9003e+01	8.3677	39.527596	0.000476	4.763476	1.613909	-0.000191
 796	7.9103e+01	8.3260	39.349962	0.000446	4.459424	1.510894	-0.000179
 797	7.9202e+01	8.2794	39.184439	0.000416	4.155373	1.407878	-0.000166
 798	7.9302e+01	8.2393	39.010843	0.000436	4.358074	1.476555	-0.000174
 799	7.9401e+01	8.2105	38.829172	0.000456	4.560775	1.545232	-0.000183
 800	7.9501e+01	8.1623	38.639426	0.000476	4.763476	1.613909	-0.000191
 801	7.9600e+01	8.1190	38.461792	0.000446	4.459424	1.510894	-0.000179
 802	7.9700e+01	8.0885	38.263973	0.000497	4.966177	1.682586	-0.000199
 803	7.9799e+01	8.0532	38.102487	0.000405	4.054022	1.373540	-0.000162
 804	7.9898e+01	8.0164	37.904667	0.000497	4.966177	1.682586	-0.000199
 805	7.9998e+01	7.9618	37.735108	0.000426	4.256723	1.442217	-0.000170
 806	8.0097e+01	7.9233	37.569585	0.000416	4.155373	1.407878	-0.000166
 807	8.0197e+01	7.8816	37.400025	0.000426	4.256723	1.442217	-0.000170
 808	8.0296e+01	7.8415	37.206243	0.000486	4.864826	1.648248	-0.000195
 809	8.0396e+01	7.7982	37.040720	0.000416	4.155373	1.407878	-0.000166
 810	8.0496e+01	7.7661	36.826752	0.000537	5.371579	1.819940	-0.000215
 811	8.0595e+01	7.7308	36.685452	0.000355	3.547269	1.201847	-0.000142
 812	8.0695e+01	7.6939	36.479559	0.000517	5.168878	1.751263	-0.000207
 813	8.0794e+01	7.6458	36.297887	0.000456	4.560775	1.545232	-0.000183
 814	8.0894e+01	7.6057	36.087956	0.000527	5.270229	1.785602	-0.000211
 815	8.0993e+01	7.5688	35.934545	0.000385	3.851321	1.304863	-0.000154
 816	8.1093e+01	7.5351	35.756911	0.000446	4.459424	1.510894	-0.000179
 817	8.1192e+01	7.4886	35.583314	0.000436	4.358074	1.476555	-0.000174
 818	8.1291e+01	7.4452	35.401643	0.000456	4.560775	1.545232	-0.000183
 819	8.1391e+01	7.4019	35.219972	0.000456	4.560775	1.545232	-0.000183
 820	8.1490e+01	7.3714	35.022153	0.000497	4.966177	1.682586	-0.000199
 821	8.1590e+01	7.3265	34.860667	0.000405	4.054022	1.373540	-0.000162
 822	8.1689e+01	7.2800	34.674959	0.000466	4.662125	1.579571	-0.000187
 823	8.1789e+01	7.2447	34.460991	0.000537	5.371579	1.819940	-0.000215
 824	8.1888e+01	7.2078	34.267208	0.000486	4.864826	1.648248	-0.000195
 825	8.1988e+01	7.1773	34.053240	0.000537	5.371579	1.819940	-0.000215
 826	8.2088e+01	7.1228	33.924052	0.000324	3.243218	1.098832	-0.000130
 827	8.2187e+01	7.0907	33.710083	0.000537	5.371579	1.819940	-0.000215
 828	8.2287e+01	7.0474	33.548598	0.000405	4.054022	1.373540	-0.000162
 829	8.2386e+01	7.0057	33.362890	0.000466	4.662125	1.579571	-0.000187
 830	8.2486e+01	6.9672	33.189293	0.000436	4.358074	1.476555	-0.000174
 831	8.2585e+01	6.9271	32.991473	0.000497	4.966177	1.682586	-0.000199
 832	8.2684e+01	6.8918	32.838062	0.000385	3.851321	1.304863	-0.000154
 833	8.2784e+01	6.8565	32.595834	0.000608	6.081033	2.060310	-0.000243
 834	8.2883e+01	6.8100	32.434349	0.000405	4.054022	1.373540	-0.000162
 835	8.2983e+01	6.7667	32.220380	0.000537	5.371579	1.819940	-0.000215
 836	8.3082e+01	6.7265	32.054858	0.000416	4.155373	1.407878	-0.000166
 837	8.3182e+01	6.6848	31.857038	0.000497	4.966177	1.682586	-0.000199
 838	8.3281e+01	6.6511	31.699590	0.000395	3.952671	1.339201	-0.000158
 839	8.3381e+01	6.6078	31.501770	0.000497	4.966177	1.682586	-0.000199
 840	8.3481e+01	6.5661	31.316062	0.000466	4.662125	1.579571	-0.000187
 841	8.3580e+01	6.5340	31.106131	0.000527	5.270229	1.785602	-0.000211
 842	8.3680e+01	6.4859	30.924460	0.000456	4.560775	1.545232	-0.000183
 843	8.3779e+01	6.4442	30.803346	0.000304	3.040516	1.030155	-0.000122
 844	8.3879e+01	6.4169	30.565155	0.000598	5.979682	2.025971	-0.000239
 845	8.3978e+01	6.3784	30.399632	0.000416	4.155373	1.407878	-0.000166
 846	8.4078e+01	6.3303	30.177590	0.000557	5.574280	1.888617	-0.000223
 847	8.4177e+01	6.2950	30.003993	0.000436	4.358074	1.476555	-0.000174
 848	8.4276e+01	6.2485	29.818285	0.000466	4.662125	1.579571	-0.000187
 849	8.4376e+01	6.2180	29.656799	0.000405	4.054022	1.373540	-0.000162
 850	8.4475e+01	6.1859	29.450905	0.000517	5.168878	1.751263	-0.000207
 851	8.4575e+01	6.1314	29.253086	0.000497	4.966177	1.682586	-0.000199
 852	8.4674e+01	6.1041	29.087563	0.000416	4.155373	1.407878	-0.000166
 853	8.4774e+01	6.0528	28.909929	0.000446	4.459424	1.510894	-0.000179
 854	8.4874e+01	6.0207	28.691924	0.000547	5.472930	1.854279	-0.000219
 855	8.4973e+01	5.9758	28.502178	0.000476	4.763476	1.613909	-0.000191
 856	8.5073e+01	5.9325	28.312433	0.000476	4.763476	1.613909	-0.000191
 857	8.5172e+01	5.8891	28.159022	0.000385	3.851321	1.304863	-0.000154
 858	8.5272e+01	5.8571	27.932942	0.000568	5.675631	1.922956	-0.000227
 859	8.5371e+01	5.8153	27.763382	0.000426	4.256723	1.442217	-0.000170
 860	8.5471e+01	5.7736	27.585748	0.000446	4.459424	1.510894	-0.000179
 861	8.5570e+01	5.7464	27.412152	0.000436	4.358074	1.476555	-0.000174
 862	8.5669e+01	5.6886	27.202221	0.000527	5.270229	1.785602	-0.000211
 863	8.5769e+01	5.6581	27.024587	0.000446	4.459424	1.510894	-0.000179
 864	8.5868e+01	5.6084	26.822730	0.000507	5.067527	1.716925	-0.000203
 865	8.5968e+01	5.5699	26.637022	0.000466	4.662125	1.579571	-0.000187
 866	8.6067e+01	5.5410	26.435165	0.000507	5.067527	1.716925	-0.000203
 867	8.6167e+01	5.4849	26.265605	0.000426	4.256723	1.442217	-0.000170
 868	8.6266e+01	5.4544	26.051637	0.000537	5.371579	1.819940	-0.000215
 869	8.6366e+01	5.4223	25.882077	0.000426	4.256723	1.442217	-0.000170
 870	8.6466e+01	5.3790	25.704443	0.000446	4.459424	1.510894	-0.000179
 871	8.6565e+01	5.3405	25.494512	0.000527	5.270229	1.785602	-0.000211
 872	8.6665e+01	5.2859	25.296693	0.000497	4.966177	1.682586	-0.000199
 873	8.6764e+01	5.2635	25.102910	0.000486	4.864826	1.648248	-0.000195
 874	8.6864e+01	5.2234	24.929313	0.000436	4.358074	1.476555	-0.000174
 875	8.6963e+01	5.1704	24.707271	0.000557	5.574280	1.888617	-0.000223
 876	8.7063e+01	5.1255	24.537711	0.000426	4.256723	1.442217	-0.000170
 877	8.7162e+01	5.0950	24.372188	0.000416	4.155373	1.407878	-0.000166
 878	8.7261e+01	5.0646	24.162257	0.000527	5.270229	1.785602	-0.000211
 879	8.7361e+01	5.0277	23.964438	0.000497	4.966177	1.682586	-0.000199
 880	8.7460e+01	4.9763	23.766618	0.000497	4.966177	1.682586	-0.000199
 881	8.7560e+01	4.9346	23.548613	0.000547	5.472930	1.854279	-0.000219
 882	8.7659e+01	4.9025	23.383090	0.000416	4.155373	1.407878	-0.000166
 883	8.7759e+01	4.8512	23.181233	0.000507	5.067527	1.716925	-0.000203
 884	8.7859e+01	4.8207	23.031859	0.000375	3.749970	1.270524	-0.000150
 885	8.7958e+01	4.7790	22.850188	0.000456	4.560775	1.545232	-0.000183
 886	8.8058e+01	4.7517	22.620072	0.000578	5.776981	1.957294	-0.000231
 887	8.8157e+01	4.7036	22.438400	0.000456	4.560775	1.545232	-0.000183
 888	8.8257e+01	4.6651	22.256729	0.000456	4.560775	1.545232	-0.000183
 889	8.8356e+01	4.6074	22.079095	0.000446	4.459424	1.510894	-0.000179
 890	8.8456e+01	4.5881	21.885313	0.000486	4.864826	1.648248	-0.000195
 891	8.8555e+01	4.5432	21.687493	0.000497	4.966177	1.682586	-0.000199
 892	8.8654e+01	4.4935	21.521971	0.000416	4.155373	1.407878	-0.000166
 893	8.8754e+01	4.4630	21.303965	0.000547	5.472930	1.854279	-0.000219
 894	8.8853e+01	4.4229	21.106146	0.000497	4.966177	1.682586	-0.000199
 895	8.8953e+01	4.3780	20.920437	0.000466	4.662125	1.579571	-0.000187
 896	8.9052e+01	4.3427	20.718581	0.000507	5.067527	1.716925	-0.000203
 897	8.9152e+01	4.3154	20.516724	0.000507	5.067527	1.716925	-0.000203
 898	8.9251e+01	4.2608	20.355238	0.000405	4.054022	1.373540	-0.000162
 899	8.9351e+01	4.2207	20.149344	0.000517	5.168878	1.751263	-0.000207
 900	8.9451e+01	4.1774	19.979785	0.000426	4.256723	1.442217	-0.000170
 901	8.9550e+01	4.1389	19.769854	0.000527	5.270229	1.785602	-0.000211
 902	8.9650e+01	4.1052	19.580108	0.000476	4.763476	1.613909	-0.000191
 903	8.9749e+01	4.0571	19.390363	0.000476	4.763476	1.613909	-0.000191
 904	8.9849e+01	4.0218	19.176395	0.000537	5.371579	1.819940	-0.000215
 905	8.9948e+01	3.9849	19.022984	0.000385	3.851321	1.304863	-0.000154
 906	9.0047e+01	3.9336	18.804978	0.000547	5.472930	1.854279	-0.000219
 907	9.0147e+01	3.8999	18.635419	0.000426	4.256723	1.442217	-0.000170
 908	9.0246e+01	3.8582	18.461822	0.000436	4.358074	1.476555	-0.000174
 909	9.0346e+01	3.8245	18.284188	0.000446	4.459424	1.510894	-0.000179
 910	9.0445e+01	3.7796	18.054071	0.000578	5.776981	1.957294	-0.000231
 911	9.0545e+01	3.7379	17.852214	0.000507	5.067527	1.716925	-0.000203
 912	9.0644e+01	3.7010	17.694766	0.000395	3.952671	1.339201	-0.000158
 913	9.0744e+01	3.6544	17.541355	0.000385	3.851321	1.304863	-0.000154
 914	9.0844e+01	3.6304	17.299127	0.000608	6.081033	2.060310	-0.000243
 915	9.0943e+01	3.5903	17.117456	0.000456	4.560775	1.545232	-0.000183
 916	9.1043e+01	3.5405	16.955970	0.000405	4.054022	1.373540	-0.000162
 917	9.1142e+01	3.5052	16.782373	0.000436	4.358074	1.476555	-0.000174
 918	9.1242e+01	3.4684	16.564368	0.000547	5.472930	1.854279	-0.000219
 919	9.1341e+01	3.4298	16.382697	0.000456	4.560775	1.545232	-0.000183
 920	9.1441e+01	3.3737	16.221211	0.000405	4.054022	1.373540	-0.000162
 921	9.1540e+01	3.3480	16.007243	0.000537	5.371579	1.819940	-0.000215
 922	9.1639e+01	3.2983	15.797312	0.000527	5.270229	1.785602	-0.000211
 923	9.1739e+01	3.2646	15.639864	0.000395	3.952671	1.339201	-0.000158
 924	9.1838e+01	3.2245	15.421859	0.000547	5.472930	1.854279	-0.000219
 925	9.1938e+01	3.1812	15.268447	0.000385	3.851321	1.304863	-0.000154
 926	9.2037e+01	3.1507	15.038331	0.000578	5.776981	1.957294	-0.000231
 927	9.2137e+01	3.1058	14.868771	0.000426	4.256723	1.442217	-0.000170
 928	9.2237e+01	3.0657	14.703248	0.000416	4.155373	1.407878	-0.000166
 929	9.2336e+01	3.0256	14.509466	0.000486	4.864826	1.648248	-0.000195
 930	9.2436e+01	2.9775	14.295498	0.000537	5.371579	1.819940	-0.000215
 931	9.2535e+01	2.9454	14.101715	0.000486	4.864826	1.648248	-0.000195
 932	9.2635e+01	2.9101	13.936193	0.000416	4.155373	1.407878	-0.000166
 933	9.2734e+01	2.8571	13.742410	0.000486	4.864826	1.648248	-0.000195
 934	9.2834e+01	2.8299	13.552665	0.000476	4.763476	1.613909	-0.000191
 935	9.2933e+01	2.7817	13.366956	0.000466	4.662125	1.579571	-0.000187
 936	9.3032e+01	2.7545	13.144914	0.000557	5.574280	1.888617	-0.000223
 937	9.3132e+01	2.7063	12.983429	0.000405	4.054022	1.373540	-0.000162
 938	9.3231e+01	2.6646	12.801757	0.000456	4.560775	1.545232	-0.000183
 939	9.3331e+01	2.6229	12.624123	0.000446	4.459424	1.510894	-0.000179
 940	9.3430e+01	2.5924	12.426304	0.000497	4.966177	1.682586	-0.000199
 941	9.3530e+01	2.5427	12.232521	0.000486	4.864826	1.648248	-0.000195
 942	9.3629e+01	2.5138	12.046813	0.000466	4.662125	1.579571	-0.000187
 943	9.3729e+01	2.4705	11.865142	0.000456	4.560775	1.545232	-0.000183
 944	9.3829e+01	2.4208	11.707694	0.000395	3.952671	1.339201	-0.000158
 945	9.3928e+01	2.3871	11.477577	0.000578	5.776981	1.957294	-0.000231
 946	9.4028e+01	2.3502	11.324166	0.000385	3.851321	1.304863	-0.000154
 947	9.4127e+01	2.3053	11.162680	0.000405	4.054022	1.373540	-0.000162
 948	9.4227e+01	2.2700	10.936601	0.000568	5.675631	1.922956	-0.000227
 949	9.4326e+01	2.2331	10.722633	0.000537	5.371579	1.819940	-0.000215
 950	9.4425e+01	2.1882	10.577296	0.000365	3.648620	1.236186	-0.000146
 951	9.4525e+01	2.1481	10.391587	0.000466	4.662125	1.579571	-0.000187
 952	9.4624e+01	2.1064	10.173582	0.000547	5.472930	1.854279	-0.000219
 953	9.4724e+01	2.0630	9.991911	0.000456	4.560775	1.545232	-0.000183
 954	9.4823e+01	2.0374	9.798128	0.000486	4.864826	1.648248	-0.000195
 955	9.4923e+01	1.9844	9.596272	0.000507	5.067527	1.716925	-0.000203
 956	9.5022e+01	1.9427	9.463046	0.000334	3.344568	1.133170	-0.000134
 957	9.5122e+01	1.9122	9.261189	0.000507	5.067527	1.716925	-0.000203
 958	9.5222e+01	1.8673	9.075481	0.000466	4.662125	1.579571	-0.000187
 959	9.5321e+01	1.8304	8.869587	0.000517	5.168878	1.751263	-0.000207
 960	9.5421e+01	1.7903	8.691953	0.000446	4.459424	1.510894	-0.000179
 961	9.5520e+01	1.7454	8.522394	0.000426	4.256723	1.442217	-0.000170
 962	9.5620e+01	1.7101	8.308425	0.000537	5.371579	1.819940	-0.000215
 963	9.5719e+01	1.6732	8.098494	0.000527	5.270229	1.785602	-0.000211
 964	9.5819e+01	1.6235	7.953157	0.000365	3.648620	1.236186	-0.000146
 965	9.5918e+01	1.5834	7.779561	0.000436	4.358074	1.476555	-0.000174
 966	9.6017e+01	1.5529	7.581741	0.000497	4.966177	1.682586	-0.000199
 967	9.6117e+01	1.5064	7.424293	0.000395	3.952671	1.339201	-0.000158
 968	9.6216e+01	1.4679	7.226473	0.000497	4.966177	1.682586	-0.000199
 969	9.6316e+01	1.4278	6.992319	0.000588	5.878332	1.991633	-0.000235
 970	9.6415e+01	1.3941	6.846982	0.000365	3.648620	1.236186	-0.000146
 971	9.6515e+01	1.3492	6.645125	0.000507	5.067527	1.716925	-0.000203
 972	9.6615e+01	1.3155	6.455380	0.000476	4.763476	1.613909	-0.000191
 973	9.6714e+01	1.2722	6.265635	0.000476	4.763476	1.613909	-0.000191
 974	9.6814e+01	1.2321	6.088001	0.000446	4.459424	1.510894	-0.000179
 975	9.6913e+01	1.1935	5.910367	0.000446	4.459424	1.510894	-0.000179
 976	9.7013e+01	1.1550	5.704473	0.000517	5.168878	1.751263	-0.000207
 977	9.7112e+01	1.1069	5.514727	0.000476	4.763476	1.613909	-0.000191
 978	9.7212e+01	1.0652	5.329019	0.000466	4.662125	1.579571	-0.000187
 979	9.7311e+01	1.0315	5.139274	0.000476	4.763476	1.613909	-0.000191
 980	9.7410e+01	0.9946	4.937417	0.000507	5.067527	1.716925	-0.000203
 981	9.7510e+01	0.9481	4.771894	0.000416	4.155373	1.407878	-0.000166
 982	9.7609e+01	0.9096	4.586186	0.000466	4.662125	1.579571	-0.000187
 983	9.7709e+01	0.8791	4.384329	0.000507	5.067527	1.716925	-0.000203
 984	9.7808e+01	0.8342	4.194584	0.000476	4.763476	1.613909	-0.000191
 985	9.7908e+01	0.7941	4.045210	0.000375	3.749970	1.270524	-0.000150
 986	9.8007e+01	0.7524	3.823168	0.000557	5.574280	1.888617	-0.000223
 987	9.8107e+01	0.7123	3.677831	0.000365	3.648620	1.236186	-0.000146
 988	9.8207e+01	0.6770	3.484048	0.000486	4.864826	1.648248	-0.000195
 989	9.8306e+01	0.6273	3.266043	0.000547	5.472930	1.854279	-0.000219
 990	9.8406e+01	0.5904	3.124743	0.000355	3.547269	1.201847	-0.000142
 991	9.8505e+01	0.5438	2.882515	0.000608	6.081033	2.060310	-0.000243
 992	9.8605e+01	0.5150	2.700844	0.000456	4.560775	1.545232	-0.000183
 993	9.8704e+01	0.4716	2.551470	0.000375	3.749970	1.270524	-0.000150
 994	9.8803e+01	0.4412	2.373836	0.000446	4.459424	1.510894	-0.000179
 995	9.8903e+01	0.3962	2.176016	0.000497	4.966177	1.682586	-0.000199
 996	9.9002e+01	0.3577	1.925714	0.000628	6.283734	2.128987	-0.000252
 997	9.9102e+01	0.3192	1.760191	0.000416	4.155373	1.407878	-0.000166
 998	9.9201e+01	0.2759	1.582557	0.000446	4.459424	1.510894	-0.000179
 999	9.9301e+01	0.2278	1.392812	0.000476	4.763476	1.613909	-0.000191
1000	9.9400e+01	0.1909	1.215178	0.000446	4.459424	1.510894	-0.000179
1001	9.9500e+01	0.1652	1.017358	0.000497	4.966177	1.682586	-0.000199
1002	9.9600e+01	0.1091	0.807427	0.000527	5.270229	1.785602	-0.000211
1003	9.9699e+01	0.0770	0.649979	0.000395	3.952671	1.339201	-0.000158
1004	9.9799e+01	0.0305	0.456196	0.000486	4.864826	1.648248	-0.000195
1005	9.9898e+01	0.0064	0.290674	0.000416	4.155373	1.407878	-0.000166
1006	9.9998e+01	-0.0305	0.064594	0.000568	5.675631	1.922956	-0.000227
1007	1.0010e+02	-0.0770	-0.064594	0.000324	3.243218	1.098832	-0.000130
1008	1.0020e+02	-0.1139	-0.266451	0.000507	5.067527	1.716925	-0.000203
1009	1.0030e+02	-0.1604	-0.456196	0.000476	4.763476	1.613909	-0.000191
1010	1.0040e+02	-0.2005	-0.629793	0.000436	4.358074	1.476555	-0.000174
1011	1.0050e+02	-0.2326	-0.815501	0.000466	4.662125	1.579571	-0.000187
1012	1.0059e+02	-0.2759	-1.021395	0.000517	5.168878	1.751263	-0.000207
1013	1.0069e+02	-0.3176	-1.215178	0.000486	4.864826	1.648248	-0.000195
1014	1.0079e+02	-0.3626	-1.400886	0.000466	4.662125	1.579571	-0.000187
1015	1.0089e+02	-0.3930	-1.566409	0.000416	4.155373	1.407878	-0.000166
1016	1.0099e+02	-0.4364	-1.792488	0.000568	5.675631	1.922956	-0.000227
1017	1.0109e+02	-0.4765	-1.974159	0.000456	4.560775	1.545232	-0.000183
1018	1.0119e+02	-0.5214	-2.204276	0.000578	5.776981	1.957294	-0.000231
1019	1.0129e+02	-0.5535	-2.333464	0.000324	3.243218	1.098832	-0.000130
1020	1.0139e+02	-0.5888	-2.543396	0.000527	5.270229	1.785602	-0.000211
1021	1.0149e+02	-0.6401	-2.741215	0.000497	4.966177	1.682586	-0.000199
1022	1.0159e+02	-0.6754	-2.902701	0.000405	4.054022	1.373540	-0.000162
1023	1.0169e+02	-0.7155	-3.140892	0.000598	5.979682	2.025971	-0.000239
1024	1.0179e+02	-0.7604	-3.282191	0.000355	3.547269	1.201847	-0.000142
1025	1.0189e+02	-0.7877	-3.516345	0.000588	5.878332	1.991633	-0.000235
1026	1.0199e+02	-0.8342	-3.649571	0.000334	3.344568	1.133170	-0.000134
1027	1.0209e+02	-0.8647	-3.835279	0.000466	4.662125	1.579571	-0.000187
1028	1.0219e+02	-0.9160	-4.045210	0.000527	5.270229	1.785602	-0.000211
1029	1.0229e+02	-0.9577	-4.251104	0.000517	5.168878	1.751263	-0.000207
1030	1.0239e+02	-0.9898	-4.416626	0.000416	4.155373	1.407878	-0.000166
1031	1.0248e+02	-1.0347	-4.602335	0.000466	4.662125	1.579571	-0.000187
1032	1.0258e+02	-1.0700	-4.824377	0.000557	5.574280	1.888617	-0.000223
1033	1.0268e+02	-1.1101	-4.977788	0.000385	3.851321	1.304863	-0.000154
1034	1.0278e+02	-1.1599	-5.179645	0.000507	5.067527	1.716925	-0.000203
1035	1.0288e+02	-1.1919	-5.365353	0.000466	4.662125	1.579571	-0.000187
1036	1.0298e+02	-1.2304	-5.571247	0.000517	5.168878	1.751263	-0.000207
1037	1.0308e+02	-1.2754	-5.744844	0.000436	4.358074	1.476555	-0.000174
1038	1.0318e+02	-1.3074	-5.930552	0.000466	4.662125	1.579571	-0.000187
1039	1.0328e+02	-1.3524	-6.164706	0.000588	5.878332	1.991633	-0.000235
1040	1.0338e+02	-1.3845	-6.346377	0.000456	4.560775	1.545232	-0.000183
1041	1.0348e+02	-1.4326	-6.524011	0.000446	4.459424	1.510894	-0.000179
1042	1.0358e+02	-1.4631	-6.697608	0.000436	4.358074	1.476555	-0.000174
1043	1.0368e+02	-1.5080	-6.895428	0.000497	4.966177	1.682586	-0.000199
1044	1.0378e+02	-1.5465	-7.089210	0.000486	4.864826	1.648248	-0.000195
1045	1.0388e+02	-1.5850	-7.287030	0.000497	4.966177	1.682586	-0.000199
1046	1.0398e+02	-1.6331	-7.468701	0.000456	4.560775	1.545232	-0.000183
1047	1.0408e+02	-1.6700	-7.654409	0.000466	4.662125	1.579571	-0.000187
1048	1.0418e+02	-1.7133	-7.840118	0.000466	4.662125	1.579571	-0.000187
1049	1.0428e+02	-1.7486	-8.029863	0.000476	4.763476	1.613909	-0.000191
1050	1.0438e+02	-1.7855	-8.231720	0.000507	5.067527	1.716925	-0.000203
1051	1.0447e+02	-1.8320	-8.425502	0.000486	4.864826	1.648248	-0.000195
1052	1.0457e+02	-1.8625	-8.615248	0.000476	4.763476	1.613909	-0.000191
1053	1.0467e+02	-1.9026	-8.813067	0.000497	4.966177	1.682586	-0.000199
1054	1.0477e+02	-1.9524	-8.970516	0.000395	3.952671	1.339201	-0.000158
1055	1.0487e+02	-1.9844	-9.132001	0.000405	4.054022	1.373540	-0.000162
1056	1.0497e+02	-2.0278	-9.345969	0.000537	5.371579	1.819940	-0.000215
1057	1.0507e+02	-2.0711	-9.568012	0.000557	5.574280	1.888617	-0.000223
1058	1.0517e+02	-2.1064	-9.725460	0.000395	3.952671	1.339201	-0.000158
1059	1.0527e+02	-2.1465	-9.878871	0.000385	3.851321	1.304863	-0.000154
1060	1.0537e+02	-2.1850	-10.108988	0.000578	5.776981	1.957294	-0.000231
1061	1.0547e+02	-2.2331	-10.234139	0.000314	3.141867	1.064493	-0.000126
1062	1.0557e+02	-2.2700	-10.440033	0.000517	5.168878	1.751263	-0.000207
1063	1.0567e+02	-2.3005	-10.633816	0.000486	4.864826	1.648248	-0.000195
1064	1.0577e+02	-2.3438	-10.839709	0.000517	5.168878	1.751263	-0.000207
1065	1.0587e+02	-2.3775	-11.009269	0.000426	4.256723	1.442217	-0.000170
1066	1.0597e+02	-2.4240	-11.231312	0.000557	5.574280	1.888617	-0.000223
1067	1.0607e+02	-2.4673	-11.392797	0.000405	4.054022	1.373540	-0.000162
1068	1.0617e+02	-2.5122	-11.550245	0.000395	3.952671	1.339201	-0.000158
1069	1.0627e+02	-2.5475	-11.731916	0.000456	4.560775	1.545232	-0.000183
1070	1.0637e+02	-2.5828	-11.970107	0.000598	5.979682	2.025971	-0.000239
1071	1.0647e+02	-2.6309	-12.131593	0.000405	4.054022	1.373540	-0.000162
1072	1.0656e+02	-2.6614	-12.325375	0.000486	4.864826	1.648248	-0.000195
1073	1.0666e+02	-2.6999	-12.503009	0.000446	4.459424	1.510894	-0.000179
1074	1.0676e+02	-2.7448	-12.741200	0.000598	5.979682	2.025971	-0.000239
1075	1.0686e+02	-2.7849	-12.870389	0.000324	3.243218	1.098832	-0.000130
1076	1.0696e+02	-2.8186	-13.056097	0.000466	4.662125	1.579571	-0.000187
1077	1.0706e+02	-2.8620	-13.253917	0.000497	4.966177	1.682586	-0.000199
1078	1.0716e+02	-2.9069	-13.455773	0.000507	5.067527	1.716925	-0.000203
1079	1.0726e+02	-2.9454	-13.657630	0.000507	5.067527	1.716925	-0.000203
1080	1.0736e+02	-2.9839	-13.811041	0.000385	3.851321	1.304863	-0.000154
1081	1.0746e+02	-3.0368	-14.016935	0.000517	5.168878	1.751263	-0.000207
1082	1.0756e+02	-3.0705	-14.198606	0.000456	4.560775	1.545232	-0.000183
1083	1.0766e+02	-3.1026	-14.396426	0.000497	4.966177	1.682586	-0.000199
1084	1.0776e+02	-3.1347	-14.545800	0.000375	3.749970	1.270524	-0.000150
1085	1.0786e+02	-3.1876	-14.703248	0.000395	3.952671	1.339201	-0.000158
1086	1.0796e+02	-3.2245	-14.937402	0.000588	5.878332	1.991633	-0.000235
1087	1.0806e+02	-3.2646	-15.062553	0.000314	3.141867	1.064493	-0.000126
1088	1.0816e+02	-3.3063	-15.256336	0.000486	4.864826	1.648248	-0.000195
1089	1.0826e+02	-3.3480	-15.482416	0.000568	5.675631	1.922956	-0.000227
1090	1.0836e+02	-3.3753	-15.647938	0.000416	4.155373	1.407878	-0.000166
1091	1.0845e+02	-3.4250	-15.821535	0.000436	4.358074	1.476555	-0.000174
1092	1.0855e+02	-3.4635	-16.003206	0.000456	4.560775	1.545232	-0.000183
1093	1.0865e+02	-3.5069	-16.213137	0.000527	5.270229	1.785602	-0.000211
1094	1.0875e+02	-3.5325	-16.362511	0.000375	3.749970	1.270524	-0.000150
1095	1.0885e+02	-3.5823	-16.540145	0.000446	4.459424	1.510894	-0.000179
1096	1.0895e+02	-3.6240	-16.697593	0.000395	3.952671	1.339201	-0.000158
1097	1.0905e+02	-3.6560	-16.875227	0.000446	4.459424	1.510894	-0.000179
1098	1.0915e+02	-3.6978	-17.085158	0.000527	5.270229	1.785602	-0.000211
1099	1.0925e+02	-3.7427	-17.278941	0.000486	4.864826	1.648248	-0.000195
1100	1.0935e+02	-3.7828	-17.468686	0.000476	4.763476	1.613909	-0.000191
1101	1.0945e+02	-3.8277	-17.601912	0.000334	3.344568	1.133170	-0.000134
1102	1.0955e+02	-3.8662	-17.791657	0.000476	4.763476	1.613909	-0.000191
1103	1.0965e+02	-3.9079	-18.005625	0.000537	5.371579	1.819940	-0.000215
1104	1.0975e+02	-3.9304	-18.219594	0.000537	5.371579	1.819940	-0.000215
1105	1.0985e+02	-3.9865	-18.348782	0.000324	3.243218	1.098832	-0.000130
1106	1.0995e+02	-4.0138	-18.538527	0.000476	4.763476	1.613909	-0.000191
1107	1.1005e+02	-4.0603	-18.740384	0.000507	5.067527	1.716925	-0.000203
1108	1.1015e+02	-4.1068	-18.881684	0.000355	3.547269	1.201847	-0.000142
1109	1.1025e+02	-4.1405	-19.099689	0.000547	5.472930	1.854279	-0.000219
1110	1.1035e+02	-4.1919	-19.220803	0.000304	3.040516	1.030155	-0.000122
1111	1.1044e+02	-4.2223	-19.410549	0.000476	4.763476	1.613909	-0.000191
1112	1.1054e+02	-4.2657	-19.600294	0.000476	4.763476	1.613909	-0.000191
1113	1.1064e+02	-4.3042	-19.786002	0.000466	4.662125	1.579571	-0.000187
1114	1.1074e+02	-4.3330	-19.967673	0.000456	4.560775	1.545232	-0.000183
1115	1.1084e+02	-4.3731	-20.165493	0.000497	4.966177	1.682586	-0.000199
1116	1.1094e+02	-4.4197	-20.343127	0.000446	4.459424	1.510894	-0.000179
1117	1.1104e+02	-4.4662	-20.496538	0.000385	3.851321	1.304863	-0.000154
1118	1.1114e+02	-4.4935	-20.678209	0.000456	4.560775	1.545232	-0.000183
1119	1.1124e+02	-4.5384	-20.884103	0.000517	5.168878	1.751263	-0.000207
1120	1.1134e+02	-4.5801	-21.033477	0.000375	3.749970	1.270524	-0.000150
1121	1.1144e+02	-4.6218	-21.223223	0.000476	4.763476	1.613909	-0.000191
1122	1.1154e+02	-4.6507	-21.380671	0.000395	3.952671	1.339201	-0.000158
1123	1.1164e+02	-4.7004	-21.566379	0.000466	4.662125	1.579571	-0.000187
1124	1.1174e+02	-4.7405	-21.735939	0.000426	4.256723	1.442217	-0.000170
1125	1.1184e+02	-4.7726	-21.917610	0.000456	4.560775	1.545232	-0.000183
1126	1.1194e+02	-4.8191	-22.107355	0.000476	4.763476	1.613909	-0.000191
1127	1.1204e+02	-4.8560	-22.276915	0.000426	4.256723	1.442217	-0.000170
1128	1.1214e+02	-4.8993	-22.438400	0.000405	4.054022	1.373540	-0.000162
1129	1.1224e+02	-4.9314	-22.636220	0.000497	4.966177	1.682586	-0.000199
1130	1.1234e+02	-4.9827	-22.801743	0.000416	4.155373	1.407878	-0.000166
1131	1.1244e+02	-5.0180	-22.971302	0.000426	4.256723	1.442217	-0.000170
1132	1.1253e+02	-5.0549	-23.148936	0.000446	4.459424	1.510894	-0.000179
1133	1.1263e+02	-5.0999	-23.395202	0.000618	6.182384	2.094648	-0.000248
1134	1.1273e+02	-5.1368	-23.512279	0.000294	2.939166	0.995816	-0.000118
1135	1.1283e+02	-5.1785	-23.697987	0.000466	4.662125	1.579571	-0.000187
1136	1.1293e+02	-5.2138	-23.863509	0.000416	4.155373	1.407878	-0.000166
1137	1.1303e+02	-5.2603	-24.041143	0.000446	4.459424	1.510894	-0.000179
1138	1.1313e+02	-5.2972	-24.247037	0.000517	5.168878	1.751263	-0.000207
1139	1.1323e+02	-5.3277	-24.384300	0.000345	3.445919	1.167509	-0.000138
1140	1.1333e+02	-5.3790	-24.565971	0.000456	4.560775	1.545232	-0.000183
1141	1.1343e+02	-5.4175	-24.739568	0.000436	4.358074	1.476555	-0.000174
1142	1.1353e+02	-5.4528	-24.897016	0.000395	3.952671	1.339201	-0.000158
1143	1.1363e+02	-5.4993	-25.078687	0.000456	4.560775	1.545232	-0.000183
1144	1.1373e+02	-5.5234	-25.260358	0.000456	4.560775	1.545232	-0.000183
1145	1.1383e+02	-5.5779	-25.450104	0.000476	4.763476	1.613909	-0.000191
1146	1.1393e+02	-5.6100	-25.647923	0.000497	4.966177	1.682586	-0.000199
1147	1.1403e+02	-5.6517	-25.817483	0.000426	4.256723	1.442217	-0.000170
1148	1.1413e+02	-5.6886	-25.974931	0.000395	3.952671	1.339201	-0.000158
1149	1.1423e+02	-5.7351	-26.152565	0.000446	4.459424	1.510894	-0.000179
1150	1.1433e+02	-5.7720	-26.366534	0.000537	5.371579	1.819940	-0.000215
1151	1.1442e+02	-5.8202	-26.487648	0.000304	3.040516	1.030155	-0.000122
1152	1.1452e+02	-5.8603	-26.661244	0.000436	4.358074	1.476555	-0.000174
1153	1.1462e+02	-5.9020	-26.863101	0.000507	5.067527	1.716925	-0.000203
1154	1.1472e+02	-5.9373	-27.077069	0.000537	5.371579	1.819940	-0.000215
1155	1.1482e+02	-5.9677	-27.169924	0.000233	2.331063	0.789785	-0.000093
1156	1.1492e+02	-6.0143	-27.375817	0.000517	5.168878	1.751263	-0.000207
1157	1.1502e+02	-6.0544	-27.545377	0.000426	4.256723	1.442217	-0.000170
1158	1.1512e+02	-6.0945	-27.755308	0.000527	5.270229	1.785602	-0.000211
1159	1.1522e+02	-6.1410	-27.920831	0.000416	4.155373	1.407878	-0.000166
1160	1.1532e+02	-6.1763	-28.070205	0.000375	3.749970	1.270524	-0.000150
1161	1.1542e+02	-6.2164	-28.235727	0.000416	4.155373	1.407878	-0.000166
1162	1.1552e+02	-6.2533	-28.473918	0.000598	5.979682	2.025971	-0.000239
1163	1.1562e+02	-6.2902	-28.603107	0.000324	3.243218	1.098832	-0.000130
1164	1.1572e+02	-6.3255	-28.817075	0.000537	5.371579	1.819940	-0.000215
1165	1.1582e+02	-6.3768	-28.958375	0.000355	3.547269	1.201847	-0.000142
1166	1.1592e+02	-6.4073	-29.148120	0.000476	4.763476	1.613909	-0.000191
1167	1.1602e+02	-6.4474	-29.293457	0.000365	3.648620	1.236186	-0.000146
1168	1.1612e+02	-6.4811	-29.483202	0.000476	4.763476	1.613909	-0.000191
1169	1.1622e+02	-6.5244	-29.668911	0.000466	4.662125	1.579571	-0.000187
1170	1.1632e+02	-6.5661	-29.814247	0.000365	3.648620	1.236186	-0.000146
1171	1.1642e+02	-6.6062	-30.008030	0.000486	4.864826	1.648248	-0.000195
1172	1.1651e+02	-6.6479	-30.169515	0.000405	4.054022	1.373540	-0.000162
1173	1.1661e+02	-6.6848	-30.310815	0.000355	3.547269	1.201847	-0.000142
1174	1.1671e+02	-6.7169	-30.524783	0.000537	5.371579	1.819940	-0.000215
1175	1.1681e+02	-6.7699	-30.722603	0.000497	4.966177	1.682586	-0.000199
1176	1.1691e+02	-6.8164	-30.904274	0.000456	4.560775	1.545232	-0.000183
1177	1.1701e+02	-6.8437	-31.041537	0.000345	3.445919	1.167509	-0.000138
1178	1.1711e+02	-6.8854	-31.219171	0.000446	4.459424	1.510894	-0.000179
1179	1.1721e+02	-6.9335	-31.392767	0.000436	4.358074	1.476555	-0.000174
1180	1.1731e+02	-6.9624	-31.602699	0.000527	5.270229	1.785602	-0.000211
1181	1.1741e+02	-7.0169	-31.760147	0.000395	3.952671	1.339201	-0.000158
1182	1.1751e+02	-7.0458	-31.929707	0.000426	4.256723	1.442217	-0.000170
1183	1.1761e+02	-7.0859	-32.135600	0.000517	5.168878	1.751263	-0.000207
1184	1.1771e+02	-7.1244	-32.309197	0.000436	4.358074	1.476555	-0.000174
1185	1.1781e+02	-7.1677	-32.458571	0.000375	3.749970	1.270524	-0.000150
1186	1.1791e+02	-7.2110	-32.603908	0.000365	3.648620	1.236186	-0.000146
1187	1.1801e+02	-7.2463	-32.757319	0.000385	3.851321	1.304863	-0.000154
1188	1.1811e+02	-7.2848	-32.999548	0.000608	6.081033	2.060310	-0.000243
1189	1.1821e+02	-7.3233	-33.128736	0.000324	3.243218	1.098832	-0.000130
1190	1.1831e+02	-7.3618	-33.302333	0.000436	4.358074	1.476555	-0.000174
1191	1.1841e+02	-7.4067	-33.463818	0.000405	4.054022	1.373540	-0.000162
1192	1.1850e+02	-7.4388	-33.645489	0.000456	4.560775	1.545232	-0.000183
1193	1.1860e+02	-7.4854	-33.867532	0.000557	5.574280	1.888617	-0.000223
1194	1.1870e+02	-7.5190	-33.996720	0.000324	3.243218	1.098832	-0.000130
1195	1.1880e+02	-7.5688	-34.214725	0.000547	5.472930	1.854279	-0.000219
1196	1.1890e+02	-7.5993	-34.360062	0.000365	3.648620	1.236186	-0.000146
1197	1.1900e+02	-7.6410	-34.545771	0.000466	4.662125	1.579571	-0.000187
1198	1.1910e+02	-7.6891	-34.703219	0.000395	3.952671	1.339201	-0.000158
1199	1.1920e+02	-7.7164	-34.876816	0.000436	4.358074	1.476555	-0.000174
1200	1.1930e+02	-7.7661	-35.030227	0.000385	3.851321	1.304863	-0.000154
1201	1.1940e+02	-7.8030	-35.219972	0.000476	4.763476	1.613909	-0.000191
1202	1.1950e+02	-7.8479	-35.397606	0.000446	4.459424	1.510894	-0.000179
1203	1.1960e+02	-7.8752	-35.595426	0.000497	4.966177	1.682586	-0.000199
1204	1.1970e+02	-7.9281	-35.732688	0.000345	3.445919	1.167509	-0.000138
1205	1.1980e+02	-7.9618	-35.910322	0.000446	4.459424	1.510894	-0.000179
1206	1.1990e+02	-8.0051	-36.096031	0.000466	4.662125	1.579571	-0.000187
1207	1.2000e+02	-8.0404	-36.281739	0.000466	4.662125	1.579571	-0.000187
1208	1.2010e+02	-8.0869	-36.467447	0.000466	4.662125	1.579571	-0.000187
1209	1.2020e+02	-8.1222	-36.588561	0.000304	3.040516	1.030155	-0.000122
1210	1.2030e+02	-8.1607	-36.806567	0.000547	5.472930	1.854279	-0.000219
1211	1.2039e+02	-8.2024	-36.951903	0.000365	3.648620	1.236186	-0.000146
1212	1.2049e+02	-8.2393	-37.149723	0.000497	4.966177	1.682586	-0.000199
1213	1.2059e+02	-8.2843	-37.327357	0.000446	4.459424	1.510894	-0.000179
1214	1.2069e+02	-8.3308	-37.472694	0.000365	3.648620	1.236186	-0.000146
1215	1.2079e+02	-8.3661	-37.678588	0.000517	5.168878	1.751263	-0.000207
1216	1.2089e+02	-8.4094	-37.819888	0.000355	3.547269	1.201847	-0.000142
1217	1.2099e+02	-8.4335	-37.989447	0.000426	4.256723	1.442217	-0.000170
1218	1.2109e+02	-8.4816	-38.179193	0.000476	4.763476	1.613909	-0.000191
1219	1.2119e+02	-8.5185	-38.320492	0.000355	3.547269	1.201847	-0.000142
1220	1.2129e+02	-8.5650	-38.558683	0.000598	5.979682	2.025971	-0.000239
1221	1.2139e+02	-8.5923	-38.691909	0.000334	3.344568	1.133170	-0.000134
1222	1.2149e+02	-8.6340	-38.873580	0.000456	4.560775	1.545232	-0.000183
1223	1.2159e+02	-8.6789	-39.031028	0.000395	3.952671	1.339201	-0.000158
1224	1.2169e+02	-8.7238	-39.164254	0.000334	3.344568	1.133170	-0.000134
1225	1.2179e+02	-8.7559	-39.406482	0.000608	6.081033	2.060310	-0.000243
1226	1.2189e+02	-8.8056	-39.551819	0.000365	3.648620	1.236186	-0.000146
1227	1.2199e+02	-8.8345	-39.697156	0.000365	3.648620	1.236186	-0.000146
1228	1.2209e+02	-8.8810	-39.894975	0.000497	4.966177	1.682586	-0.000199
1229	1.2219e+02	-8.9276	-40.084721	0.000476	4.763476	1.613909	-0.000191
1230	1.2229e+02	-8.9532	-40.226020	0.000355	3.547269	1.201847	-0.000142
1231	1.2239e+02	-8.9949	-40.379432	0.000385	3.851321	1.304863	-0.000154
1232	1.2248e+02	-9.0431	-40.553028	0.000436	4.358074	1.476555	-0.000174
1233	1.2258e+02	-9.0816	-40.746811	0.000486	4.864826	1.648248	-0.000195
1234	1.2268e+02	-9.1120	-40.912334	0.000416	4.155373	1.407878	-0.000166
1235	1.2278e+02	-9.1586	-41.098042	0.000466	4.662125	1.579571	-0.000187
1236	1.2288e+02	-9.2003	-41.231267	0.000334	3.344568	1.133170	-0.000134
1237	1.2298e+02	-9.2404	-41.441198	0.000527	5.270229	1.785602	-0.000211
1238	1.2308e+02	-9.2773	-41.610758	0.000426	4.256723	1.442217	-0.000170
1239	1.2318e+02	-9.3222	-41.752058	0.000355	3.547269	1.201847	-0.000142
1240	1.2328e+02	-9.3559	-41.921618	0.000426	4.256723	1.442217	-0.000170
1241	1.2338e+02	-9.4024	-42.079066	0.000395	3.952671	1.339201	-0.000158
1242	1.2348e+02	-9.4313	-42.256700	0.000446	4.459424	1.510894	-0.000179
1243	1.2358e+02	-9.4682	-42.434334	0.000446	4.459424	1.510894	-0.000179
1244	1.2368e+02	-9.5067	-42.579671	0.000365	3.648620	1.236186	-0.000146
1245	1.2378e+02	-9.5580	-42.737119	0.000395	3.952671	1.339201	-0.000158
1246	1.2388e+02	-9.5885	-42.951087	0.000537	5.371579	1.819940	-0.000215
1247	1.2398e+02	-9.6414	-43.056053	0.000264	2.635114	0.892801	-0.000105
1248	1.2408e+02	-9.6767	-43.217538	0.000405	4.054022	1.373540	-0.000162
1249	1.2418e+02	-9.7040	-43.399209	0.000456	4.560775	1.545232	-0.000183
1250	1.2428e+02	-9.7537	-43.580880	0.000456	4.560775	1.545232	-0.000183
1251	1.2438e+02	-9.7954	-43.762551	0.000456	4.560775	1.545232	-0.000183
1252	1.2447e+02	-9.8291	-43.911925	0.000375	3.749970	1.270524	-0.000150
1253	1.2457e+02	-9.8789	-44.069374	0.000395	3.952671	1.339201	-0.000158
1254	1.2467e+02	-9.9110	-44.251045	0.000456	4.560775	1.545232	-0.000183
1255	1.2477e+02	-9.9478	-44.428679	0.000446	4.459424	1.510894	-0.000179
1256	1.2487e+02	-9.9944	-44.549793	0.000304	3.040516	1.030155	-0.000122
1257	1.2497e+02	-10.0297	-44.711278	0.000405	4.054022	1.373540	-0.000162
1258	1.2507e+02	-10.0714	-44.888912	0.000446	4.459424	1.510894	-0.000179
1259	1.2517e+02	-10.1227	-45.086732	0.000497	4.966177	1.682586	-0.000199
1260	1.2527e+02	-10.1564	-45.195735	0.000274	2.736465	0.927139	-0.000110
1261	1.2537e+02	-10.1949	-45.385480	0.000476	4.763476	1.613909	-0.000191
1262	1.2547e+02	-10.2318	-45.583300	0.000497	4.966177	1.682586	-0.000199
1263	1.2557e+02	-10.2767	-45.712488	0.000324	3.243218	1.098832	-0.000130
1264	1.2567e+02	-10.3200	-45.886085	0.000436	4.358074	1.476555	-0.000174
1265	1.2577e+02	-10.3553	-46.047570	0.000405	4.054022	1.373540	-0.000162
1266	1.2587e+02	-10.3922	-46.209056	0.000405	4.054022	1.373540	-0.000162
1267	1.2597e+02	-10.4259	-46.378615	0.000426	4.256723	1.442217	-0.000170
1268	1.2607e+02	-10.4756	-46.536064	0.000395	3.952671	1.339201	-0.000158
1269	1.2617e+02	-10.4997	-46.661215	0.000314	3.141867	1.064493	-0.000126
1270	1.2627e+02	-10.5510	-46.842886	0.000456	4.560775	1.545232	-0.000183
1271	1.2636e+02	-10.5831	-47.040706	0.000497	4.966177	1.682586	-0.000199
1272	1.2646e+02	-10.6329	-47.206228	0.000416	4.155373	1.407878	-0.000166
1273	1.2656e+02	-10.6730	-47.359639	0.000385	3.851321	1.304863	-0.000154
1274	1.2666e+02	-10.7179	-47.476716	0.000294	2.939166	0.995816	-0.000118
1275	1.2676e+02	-10.7564	-47.686647	0.000527	5.270229	1.785602	-0.000211
1276	1.2686e+02	-10.7820	-47.795650	0.000274	2.736465	0.927139	-0.000110
1277	1.2696e+02	-10.8302	-47.977321	0.000456	4.560775	1.545232	-0.000183
1278	1.2706e+02	-10.8783	-48.134769	0.000395	3.952671	1.339201	-0.000158
1279	1.2716e+02	-10.9024	-48.288181	0.000385	3.851321	1.304863	-0.000154
1280	1.2726e+02	-10.9569	-48.477926	0.000476	4.763476	1.613909	-0.000191
1281	1.2736e+02	-10.9954	-48.647486	0.000426	4.256723	1.442217	-0.000170
1282	1.2746e+02	-11.0307	-48.764563	0.000294	2.939166	0.995816	-0.000118
1283	1.2756e+02	-11.0740	-49.002754	0.000598	5.979682	2.025971	-0.000239
1284	1.2766e+02	-11.1141	-49.091571	0.000223	2.229712	0.755447	-0.000089
1285	1.2776e+02	-11.1574	-49.281316	0.000476	4.763476	1.613909	-0.000191
1286	1.2786e+02	-11.1895	-49.430690	0.000375	3.749970	1.270524	-0.000150
1287	1.2796e+02	-11.2296	-49.604287	0.000436	4.358074	1.476555	-0.000174
1288	1.2806e+02	-11.2633	-49.737512	0.000334	3.344568	1.133170	-0.000134
1289	1.2816e+02	-11.3163	-49.894961	0.000395	3.952671	1.339201	-0.000158
1290	1.2826e+02	-11.3419	-50.060483	0.000416	4.155373	1.407878	-0.000166
1291	1.2835e+02	-11.3884	-50.189671	0.000324	3.243218	1.098832	-0.000130
1292	1.2845e+02	-11.4286	-50.395565	0.000517	5.168878	1.751263	-0.000207
1293	1.2855e+02	-11.4687	-50.553014	0.000395	3.952671	1.339201	-0.000158
1294	1.2865e+02	-11.5168	-50.706425	0.000385	3.851321	1.304863	-0.000154
1295	1.2875e+02	-11.5505	-50.855799	0.000375	3.749970	1.270524	-0.000150
1296	1.2885e+02	-11.5858	-51.025359	0.000426	4.256723	1.442217	-0.000170
1297	1.2895e+02	-11.6211	-51.126287	0.000253	2.533764	0.858462	-0.000101
1298	1.2905e+02	-11.6724	-51.303921	0.000446	4.459424	1.510894	-0.000179
1299	1.2915e+02	-11.7029	-51.481555	0.000446	4.459424	1.510894	-0.000179
1300	1.2925e+02	-11.7462	-51.643040	0.000405	4.054022	1.373540	-0.000162
1301	1.2935e+02	-11.7895	-51.804526	0.000405	4.054022	1.373540	-0.000162
1302	1.2945e+02	-11.8248	-51.929677	0.000314	3.141867	1.064493	-0.000126
1303	1.2955e+02	-11.8585	-52.070977	0.000355	3.547269	1.201847	-0.000142
1304	1.2965e+02	-11.9098	-52.268796	0.000497	4.966177	1.682586	-0.000199
1305	1.2975e+02	-11.9515	-52.442393	0.000436	4.358074	1.476555	-0.000174
1306	1.2985e+02	-11.9868	-52.563507	0.000304	3.040516	1.030155	-0.000122
1307	1.2995e+02	-12.0285	-52.688659	0.000314	3.141867	1.064493	-0.000126
1308	1.3005e+02	-12.0606	-52.882441	0.000486	4.864826	1.648248	-0.000195
1309	1.3015e+02	-12.1071	-53.043926	0.000405	4.054022	1.373540	-0.000162
1310	1.3025e+02	-12.1489	-53.189263	0.000365	3.648620	1.236186	-0.000146
1311	1.3034e+02	-12.1874	-53.350749	0.000405	4.054022	1.373540	-0.000162
1312	1.3044e+02	-12.2243	-53.540494	0.000476	4.763476	1.613909	-0.000191
1313	1.3054e+02	-12.2756	-53.710054	0.000426	4.256723	1.442217	-0.000170
1314	1.3064e+02	-12.3077	-53.802908	0.000233	2.331063	0.789785	-0.000093
1315	1.3074e+02	-12.3526	-54.008802	0.000517	5.168878	1.751263	-0.000207
1316	1.3084e+02	-12.3815	-54.133953	0.000314	3.141867	1.064493	-0.000126
1317	1.3094e+02	-12.4296	-54.368107	0.000588	5.878332	1.991633	-0.000235
1318	1.3104e+02	-12.4665	-54.485184	0.000294	2.939166	0.995816	-0.000118
1319	1.3114e+02	-12.5002	-54.638595	0.000385	3.851321	1.304863	-0.000154
1320	1.3124e+02	-12.5419	-54.812192	0.000436	4.358074	1.476555	-0.000174
1321	1.3134e+02	-12.5900	-54.925232	0.000284	2.837815	0.961478	-0.000114
1322	1.3144e+02	-12.6221	-55.114977	0.000476	4.763476	1.613909	-0.000191
1323	1.3154e+02	-12.6718	-55.268388	0.000385	3.851321	1.304863	-0.000154
1324	1.3164e+02	-12.6991	-55.425837	0.000395	3.952671	1.339201	-0.000158
1325	1.3174e+02	-12.7520	-55.542913	0.000294	2.939166	0.995816	-0.000118
1326	1.3184e+02	-12.7889	-55.716510	0.000436	4.358074	1.476555	-0.000174
1327	1.3194e+02	-12.8178	-55.853773	0.000345	3.445919	1.167509	-0.000138
1328	1.3204e+02	-12.8643	-56.003147	0.000375	3.749970	1.270524	-0.000150
1329	1.3214e+02	-12.9012	-56.188855	0.000466	4.662125	1.579571	-0.000187
1330	1.3224e+02	-12.9413	-56.354378	0.000416	4.155373	1.407878	-0.000166
1331	1.3234e+02	-12.9815	-56.495678	0.000355	3.547269	1.201847	-0.000142
1332	1.3243e+02	-13.0119	-56.661200	0.000416	4.155373	1.407878	-0.000166
1333	1.3253e+02	-13.0601	-56.802500	0.000355	3.547269	1.201847	-0.000142
1334	1.3263e+02	-13.1050	-56.947837	0.000365	3.648620	1.236186	-0.000146
1335	1.3273e+02	-13.1371	-57.121434	0.000436	4.358074	1.476555	-0.000174
1336	1.3283e+02	-13.1836	-57.266770	0.000365	3.648620	1.236186	-0.000146
1337	1.3293e+02	-13.2189	-57.428256	0.000405	4.054022	1.373540	-0.000162
1338	1.3303e+02	-13.2638	-57.618001	0.000476	4.763476	1.613909	-0.000191
1339	1.3313e+02	-13.2975	-57.771412	0.000385	3.851321	1.304863	-0.000154
1340	1.3323e+02	-13.3360	-57.900601	0.000324	3.243218	1.098832	-0.000130
1341	1.3333e+02	-13.3809	-58.074198	0.000436	4.358074	1.476555	-0.000174
1342	1.3343e+02	-13.4274	-58.239720	0.000416	4.155373	1.407878	-0.000166
1343	1.3353e+02	-13.4611	-58.409280	0.000426	4.256723	1.442217	-0.000170
1344	1.3363e+02	-13.4932	-58.562691	0.000385	3.851321	1.304863	-0.000154
1345	1.3373e+02	-13.5413	-58.695916	0.000334	3.344568	1.133170	-0.000134
1346	1.3383e+02	-13.5718	-58.841253	0.000365	3.648620	1.236186	-0.000146
1347	1.3393e+02	-13.6199	-59.022924	0.000456	4.560775	1.545232	-0.000183
1348	1.3403e+02	-13.6584	-59.184410	0.000405	4.054022	1.373540	-0.000162
1349	1.3413e+02	-13.6969	-59.337821	0.000385	3.851321	1.304863	-0.000154
1350	1.3423e+02	-13.7386	-59.499307	0.000405	4.054022	1.373540	-0.000162
1351	1.3432e+02	-13.7852	-59.608309	0.000274	2.736465	0.927139	-0.000110
1352	1.3442e+02	-13.8173	-59.794017	0.000466	4.662125	1.579571	-0.000187
1353	1.3452e+02	-13.8542	-59.955503	0.000405	4.054022	1.373540	-0.000162
1354	1.3462e+02	-13.8959	-60.092765	0.000345	3.445919	1.167509	-0.000138
1355	1.3472e+02	-13.9456	-60.270399	0.000446	4.459424	1.510894	-0.000179
1356	1.3482e+02	-13.9777	-60.452071	0.000456	4.560775	1.545232	-0.000183
1357	1.3492e+02	-14.0162	-60.581259	0.000324	3.243218	1.098832	-0.000130
1358	1.3502e+02	-14.0531	-60.714484	0.000334	3.344568	1.133170	-0.000134
1359	1.3512e+02	-14.1012	-60.908267	0.000486	4.864826	1.648248	-0.000195
1360	1.3522e+02	-14.1413	-61.073789	0.000416	4.155373	1.407878	-0.000166
1361	1.3532e+02	-14.1702	-61.235275	0.000405	4.054022	1.373540	-0.000162
1362	1.3542e+02	-14.2103	-61.344278	0.000274	2.736465	0.927139	-0.000110
1363	1.3552e+02	-14.2632	-61.513837	0.000426	4.256723	1.442217	-0.000170
1364	1.3562e+02	-14.2905	-61.699545	0.000466	4.662125	1.579571	-0.000187
1365	1.3572e+02	-14.3418	-61.812585	0.000284	2.837815	0.961478	-0.000114
1366	1.3582e+02	-14.3884	-61.986182	0.000436	4.358074	1.476555	-0.000174
1367	1.3592e+02	-14.4188	-62.139593	0.000385	3.851321	1.304863	-0.000154
1368	1.3602e+02	-14.4638	-62.272819	0.000334	3.344568	1.133170	-0.000134
1369	1.3612e+02	-14.4910	-62.450453	0.000446	4.459424	1.510894	-0.000179
1370	1.3622e+02	-14.5392	-62.603864	0.000385	3.851321	1.304863	-0.000154
1371	1.3631e+02	-14.5696	-62.769386	0.000416	4.155373	1.407878	-0.000166
1372	1.3641e+02	-14.6290	-62.934909	0.000416	4.155373	1.407878	-0.000166
1373	1.3651e+02	-14.6579	-63.096394	0.000405	4.054022	1.373540	-0.000162
1374	1.3661e+02	-14.7028	-63.233657	0.000345	3.445919	1.167509	-0.000138
1375	1.3671e+02	-14.7301	-63.370920	0.000345	3.445919	1.167509	-0.000138
1376	1.3681e+02	-14.7734	-63.536442	0.000416	4.155373	1.407878	-0.000166
1377	1.3691e+02	-14.8183	-63.689853	0.000385	3.851321	1.304863	-0.000154
1378	1.3701e+02	-14.8568	-63.863450	0.000436	4.358074	1.476555	-0.000174
1379	1.3711e+02	-14.8985	-64.028973	0.000416	4.155373	1.407878	-0.000166
1380	1.3721e+02	-14.9386	-64.166235	0.000345	3.445919	1.167509	-0.000138
1381	1.3731e+02	-14.9707	-64.327721	0.000405	4.054022	1.373540	-0.000162
1382	1.3741e+02	-15.0204	-64.505355	0.000446	4.459424	1.510894	-0.000179
1383	1.3751e+02	-15.0525	-64.642617	0.000345	3.445919	1.167509	-0.000138
1384	1.3761e+02	-15.0926	-64.812177	0.000426	4.256723	1.442217	-0.000170
1385	1.3771e+02	-15.1391	-64.953477	0.000355	3.547269	1.201847	-0.000142
1386	1.3781e+02	-15.1696	-65.127074	0.000436	4.358074	1.476555	-0.000174
1387	1.3791e+02	-15.2194	-65.296633	0.000426	4.256723	1.442217	-0.000170
1388	1.3801e+02	-15.2498	-65.437933	0.000355	3.547269	1.201847	-0.000142
1389	1.3811e+02	-15.2899	-65.575196	0.000345	3.445919	1.167509	-0.000138
1390	1.3821e+02	-15.3300	-65.748793	0.000436	4.358074	1.476555	-0.000174
1391	1.3831e+02	-15.3734	-65.906241	0.000395	3.952671	1.339201	-0.000158
1392	1.3840e+02	-15.4071	-66.043504	0.000345	3.445919	1.167509	-0.000138
1393	1.3850e+02	-15.4584	-66.217100	0.000436	4.358074	1.476555	-0.000174
1394	1.3860e+02	-15.4873	-66.334177	0.000294	2.939166	0.995816	-0.000118
1395	1.3870e+02	-15.5322	-66.527960	0.000486	4.864826	1.648248	-0.000195
1396	1.3880e+02	-15.5787	-66.653111	0.000314	3.141867	1.064493	-0.000126
1397	1.3890e+02	-15.6108	-66.822671	0.000426	4.256723	1.442217	-0.000170
1398	1.3900e+02	-15.6493	-66.955896	0.000334	3.344568	1.133170	-0.000134
1399	1.3910e+02	-15.7006	-67.145642	0.000476	4.763476	1.613909	-0.000191
1400	1.3920e+02	-15.7343	-67.262719	0.000294	2.939166	0.995816	-0.000118
1401	1.3930e+02	-15.7728	-67.436315	0.000436	4.358074	1.476555	-0.000174
1402	1.3940e+02	-15.8258	-67.569541	0.000334	3.344568	1.133170	-0.000134
1403	1.3950e+02	-15.8610	-67.763323	0.000486	4.864826	1.648248	-0.000195
1404	1.3960e+02	-15.8883	-67.876363	0.000284	2.837815	0.961478	-0.000114
1405	1.3970e+02	-15.9381	-68.062071	0.000466	4.662125	1.579571	-0.000187
1406	1.3980e+02	-15.9750	-68.195297	0.000334	3.344568	1.133170	-0.000134
1407	1.3990e+02	-16.0102	-68.381005	0.000466	4.662125	1.579571	-0.000187
1408	1.4000e+02	-16.0552	-68.514231	0.000334	3.344568	1.133170	-0.000134
1409	1.4010e+02	-16.0921	-68.679753	0.000416	4.155373	1.407878	-0.000166
1410	1.4020e+02	-16.1418	-68.817016	0.000345	3.445919	1.167509	-0.000138
1411	1.4029e+02	-16.1787	-68.998687	0.000456	4.560775	1.545232	-0.000183
1412	1.4039e+02	-16.2092	-69.148061	0.000375	3.749970	1.270524	-0.000150
1413	1.4049e+02	-16.2493	-69.309546	0.000405	4.054022	1.373540	-0.000162
1414	1.4059e+02	-16.2894	-69.426623	0.000294	2.939166	0.995816	-0.000118
1415	1.4069e+02	-16.3231	-69.584072	0.000395	3.952671	1.339201	-0.000158
1416	1.4079e+02	-16.3696	-69.745557	0.000405	4.054022	1.373540	-0.000162
1417	1.4089e+02	-16.4065	-69.915117	0.000426	4.256723	1.442217	-0.000170
1418	1.4099e+02	-16.4482	-70.048342	0.000334	3.344568	1.133170	-0.000134
1419	1.4109e+02	-16.4851	-70.161382	0.000284	2.837815	0.961478	-0.000114
1420	1.4119e+02	-16.5236	-70.359202	0.000497	4.966177	1.682586	-0.000199
1421	1.4129e+02	-16.5685	-70.548947	0.000476	4.763476	1.613909	-0.000191
1422	1.4139e+02	-16.6022	-70.637764	0.000223	2.229712	0.755447	-0.000089
1423	1.4149e+02	-16.6439	-70.811361	0.000436	4.358074	1.476555	-0.000174
1424	1.4159e+02	-16.6856	-70.964772	0.000385	3.851321	1.304863	-0.000154
1425	1.4169e+02	-16.7289	-71.106072	0.000355	3.547269	1.201847	-0.000142
1426	1.4179e+02	-16.7674	-71.295817	0.000476	4.763476	1.613909	-0.000191
1427	1.4189e+02	-16.8043	-71.429043	0.000334	3.344568	1.133170	-0.000134
1428	1.4199e+02	-16.8493	-71.594565	0.000416	4.155373	1.407878	-0.000166
1429	1.4209e+02	-16.8894	-71.752013	0.000395	3.952671	1.339201	-0.000158
1430	1.4219e+02	-16.9182	-71.881202	0.000324	3.243218	1.098832	-0.000130
1431	1.4228e+02	-16.9696	-72.062873	0.000456	4.560775	1.545232	-0.000183
1432	1.4238e+02	-17.0049	-72.204173	0.000355	3.547269	1.201847	-0.000142
1433	1.4248e+02	-17.0418	-72.410067	0.000517	5.168878	1.751263	-0.000207
1434	1.4258e+02	-17.0883	-72.551366	0.000355	3.547269	1.201847	-0.000142
1435	1.4268e+02	-17.1252	-72.733037	0.000456	4.560775	1.545232	-0.000183
1436	1.4278e+02	-17.1701	-72.882411	0.000375	3.749970	1.270524	-0.000150
1437	1.4288e+02	-17.2070	-72.991414	0.000274	2.736465	0.927139	-0.000110
1438	1.4298e+02	-17.2471	-73.148862	0.000395	3.952671	1.339201	-0.000158
1439	1.4308e+02	-17.2808	-73.302274	0.000385	3.851321	1.304863	-0.000154
1440	1.4318e+02	-17.3289	-73.516242	0.000537	5.371579	1.819940	-0.000215
1441	1.4328e+02	-17.3626	-73.653504	0.000345	3.445919	1.167509	-0.000138
1442	1.4338e+02	-17.4011	-73.814990	0.000405	4.054022	1.373540	-0.000162
1443	1.4348e+02	-17.4492	-73.996661	0.000456	4.560775	1.545232	-0.000183
1444	1.4358e+02	-17.4813	-74.141998	0.000365	3.648620	1.236186	-0.000146
1445	1.4368e+02	-17.5262	-74.303483	0.000405	4.054022	1.373540	-0.000162
1446	1.4378e+02	-17.5583	-74.469006	0.000416	4.155373	1.407878	-0.000166
1447	1.4388e+02	-17.6081	-74.654714	0.000466	4.662125	1.579571	-0.000187
1448	1.4398e+02	-17.6434	-74.832348	0.000446	4.459424	1.510894	-0.000179
1449	1.4408e+02	-17.6802	-74.953462	0.000304	3.040516	1.030155	-0.000122
1450	1.4418e+02	-17.7220	-75.139170	0.000466	4.662125	1.579571	-0.000187
1451	1.4428e+02	-17.7605	-75.300656	0.000405	4.054022	1.373540	-0.000162
1452	1.4437e+02	-17.8070	-75.510587	0.000527	5.270229	1.785602	-0.000211
1453	1.4447e+02	-17.8503	-75.651887	0.000355	3.547269	1.201847	-0.000142
1454	1.4457e+02	-17.8824	-75.841632	0.000476	4.763476	1.613909	-0.000191
1455	1.4467e+02	-17.9209	-76.035414	0.000486	4.864826	1.648248	-0.000195
1456	1.4477e+02	-17.9626	-76.168640	0.000334	3.344568	1.133170	-0.000134
1457	1.4487e+02	-17.9995	-76.382608	0.000537	5.371579	1.819940	-0.000215
1458	1.4497e+02	-18.0444	-76.548131	0.000416	4.155373	1.407878	-0.000166
1459	1.4507e+02	-18.0781	-76.729802	0.000456	4.560775	1.545232	-0.000183
1460	1.4517e+02	-18.1214	-76.927621	0.000497	4.966177	1.682586	-0.000199
1461	1.4527e+02	-18.1711	-77.085070	0.000395	3.952671	1.339201	-0.000158
1462	1.4537e+02	-18.2000	-77.290964	0.000517	5.168878	1.751263	-0.000207
1463	1.4547e+02	-18.2353	-77.488783	0.000497	4.966177	1.682586	-0.000199
1464	1.4557e+02	-18.2834	-77.710826	0.000557	5.574280	1.888617	-0.000223
1465	1.4567e+02	-18.3219	-77.811754	0.000253	2.533764	0.858462	-0.000101
1466	1.4577e+02	-18.3620	-78.074168	0.000659	6.587786	2.232002	-0.000264
1467	1.4587e+02	-18.4022	-78.255839	0.000456	4.560775	1.545232	-0.000183
1468	1.4597e+02	-18.4326	-78.441547	0.000466	4.662125	1.579571	-0.000187
1469	1.4607e+02	-18.4840	-78.611107	0.000426	4.256723	1.442217	-0.000170
1470	1.4617e+02	-18.5241	-78.833150	0.000557	5.574280	1.888617	-0.000223
1471	1.4626e+02	-18.5594	-79.047118	0.000537	5.371579	1.819940	-0.000215
1472	1.4636e+02	-18.5995	-79.297420	0.000628	6.283734	2.128987	-0.000252
1473	1.4646e+02	-18.6444	-79.483128	0.000466	4.662125	1.579571	-0.000187
1474	1.4656e+02	-18.6701	-79.660762	0.000446	4.459424	1.510894	-0.000179
1475	1.4666e+02	-18.7118	-79.862619	0.000507	5.067527	1.716925	-0.000203
1476	1.4676e+02	-18.7535	-80.088699	0.000568	5.675631	1.922956	-0.000227
1477	1.4686e+02	-18.8032	-80.318816	0.000578	5.776981	1.957294	-0.000231
1478	1.4696e+02	-18.8433	-80.516635	0.000497	4.966177	1.682586	-0.000199
1479	1.4706e+02	-18.8738	-80.694269	0.000446	4.459424	1.510894	-0.000179
1480	1.4716e+02	-18.9187	-80.972831	0.000699	6.993188	2.369356	-0.000280
1481	1.4726e+02	-18.9636	-81.166614	0.000486	4.864826	1.648248	-0.000195
1482	1.4736e+02	-19.0021	-81.392694	0.000568	5.675631	1.922956	-0.000227
1483	1.4746e+02	-19.0406	-81.634922	0.000608	6.081033	2.060310	-0.000243
1484	1.4756e+02	-19.0759	-81.856964	0.000557	5.574280	1.888617	-0.000223
1485	1.4766e+02	-19.1209	-82.107267	0.000628	6.283734	2.128987	-0.000252
1486	1.4776e+02	-19.1529	-82.325272	0.000547	5.472930	1.854279	-0.000219
1487	1.4786e+02	-19.1930	-82.567500	0.000608	6.081033	2.060310	-0.000243
1488	1.4796e+02	-19.2331	-82.793580	0.000568	5.675631	1.922956	-0.000227
1489	1.4806e+02	-19.2765	-83.064068	0.000679	6.790487	2.300679	-0.000272
1490	1.4816e+02	-19.3134	-83.322444	0.000649	6.486435	2.197664	-0.000260
1491	1.4825e+02	-19.3631	-83.560636	0.000598	5.979682	2.025971	-0.000239
1492	1.4835e+02	-19.4000	-83.810938	0.000628	6.283734	2.128987	-0.000252
1493	1.4845e+02	-19.4417	-84.000683	0.000476	4.763476	1.613909	-0.000191
1494	1.4855e+02	-19.4818	-84.299431	0.000750	7.499941	2.541049	-0.000300
1495	1.4865e+02	-19.5171	-84.553771	0.000639	6.385085	2.163325	-0.000256
1496	1.4875e+02	-19.5524	-84.828296	0.000689	6.891837	2.335018	-0.000276
1497	1.4885e+02	-19.5957	-85.066487	0.000598	5.979682	2.025971	-0.000239
1498	1.4895e+02	-19.6358	-85.328901	0.000659	6.587786	2.232002	-0.000264
1499	1.4905e+02	-19.6679	-85.635723	0.000770	7.702642	2.609726	-0.000308
1500	1.4915e+02	-19.7128	-85.898137	0.000659	6.587786	2.232002	-0.000264
1501	1.4925e+02	-19.7513	-86.217071	0.000801	8.006693	2.712741	-0.000321
1502	1.4935e+02	-19.7978	-86.495633	0.000699	6.993188	2.369356	-0.000280
1503	1.4945e+02	-19.8315	-86.749973	0.000639	6.385085	2.163325	-0.000256
1504	1.4955e+02	-19.8668	-87.024498	0.000689	6.891837	2.335018	-0.000276
1505	1.4965e+02	-19.9182	-87.339395	0.000791	7.905343	2.678403	-0.000316
1506	1.4975e+02	-19.9470	-87.634105	0.000740	7.398590	2.506710	-0.000296
1507	1.4985e+02	-19.9919	-87.916705	0.000709	7.094538	2.403695	-0.000284
1508	1.4995e+02	-19.9518	-87.961113	-0.000111	-1.114856	-0.377723	-0.000045
1509	1.5005e+02	-19.9230	-88.013596	-0.000132	-1.317557	-0.446400	-0.000053
1510	1.5015e+02	-19.8716	-88.029745	-0.000041	-0.405402	-0.137354	-0.000016
1511	1.5025e+02	-19.8331	-88.045893	-0.000041	-0.405402	-0.137354	-0.000016
1512	1.5034e+02	-19.7946	-88.090302	-0.000111	-1.114856	-0.377723	-0.000045
1513	1.5044e+02	-19.7690	-88.094339	-0.000010	-0.101351	-0.034338	-0.000004
1514	1.5054e+02	-19.7144	-88.102413	-0.000020	-0.202701	-0.068677	-0.000008
1515	1.5064e+02	-19.6695	-88.053968	0.000122	1.216207	0.412062	0.000049
1516	1.5074e+02	-19.6326	-88.053968	0.000000	0.000000	0.000000	0.000000
1517	1.5084e+02	-19.5973	-88.037819	0.000041	0.405402	0.137354	0.000016
1518	1.5094e+02	-19.5556	-88.001485	0.000091	0.912155	0.309046	0.000037
1519	1.5104e+02	-19.5219	-87.977262	0.000061	0.608103	0.206031	0.000024
1520	1.5114e+02	-19.4706	-87.928816	0.000122	1.216207	0.412062	0.000049
1521	1.5124e+02	-19.4417	-87.908631	0.000051	0.506753	0.171692	0.000020
1522	1.5134e+02	-19.3968	-87.844037	0.000162	1.621609	0.549416	0.000065
1523	1.5144e+02	-19.3615	-87.819814	0.000061	0.608103	0.206031	0.000024
1524	1.5154e+02	-19.3246	-87.791554	0.000071	0.709454	0.240369	0.000028
1525	1.5164e+02	-19.2700	-87.718885	0.000182	1.824310	0.618093	0.000073
1526	1.5174e+02	-19.2444	-87.654291	0.000162	1.621609	0.549416	0.000065
1527	1.5184e+02	-19.1962	-87.638143	0.000041	0.405402	0.137354	0.000016
1528	1.5194e+02	-19.1577	-87.525103	0.000284	2.837815	0.961478	0.000114
1529	1.5204e+02	-19.1112	-87.464546	0.000152	1.520258	0.515077	0.000061
1530	1.5214e+02	-19.0791	-87.403989	0.000152	1.520258	0.515077	0.000061
1531	1.5224e+02	-19.0438	-87.343432	0.000152	1.520258	0.515077	0.000061
1532	1.5233e+02	-19.0021	-87.234429	0.000274	2.736465	0.927139	0.000110
1533	1.5243e+02	-18.9572	-87.173872	0.000152	1.520258	0.515077	0.000061
1534	1.5253e+02	-18.9171	-87.117352	0.000142	1.418908	0.480739	0.000057
1535	1.5263e+02	-18.8834	-87.004312	0.000284	2.837815	0.961478	0.000114
1536	1.5273e+02	-18.8337	-86.927607	0.000193	1.925660	0.652431	0.000077
1537	1.5283e+02	-18.7968	-86.883198	0.000111	1.114856	0.377723	0.000045
1538	1.5293e+02	-18.7583	-86.782270	0.000253	2.533764	0.858462	0.000101
1539	1.5303e+02	-18.7214	-86.689416	0.000233	2.331063	0.789785	0.000093
1540	1.5313e+02	-18.6765	-86.636933	0.000132	1.317557	0.446400	0.000053
1541	1.5323e+02	-18.6364	-86.548116	0.000223	2.229712	0.755447	0.000089
1542	1.5333e+02	-18.6027	-86.439113	0.000274	2.736465	0.927139	0.000110
1543	1.5343e+02	-18.5594	-86.342222	0.000243	2.432413	0.824124	0.000097
1544	1.5353e+02	-18.5193	-86.289739	0.000132	1.317557	0.446400	0.000053
1545	1.5363e+02	-18.4711	-86.184774	0.000264	2.635114	0.892801	0.000105
1546	1.5373e+02	-18.4374	-86.039437	0.000365	3.648620	1.236186	0.000146
1547	1.5383e+02	-18.4006	-86.003103	0.000091	0.912155	0.309046	0.000037
1548	1.5393e+02	-18.3572	-85.902174	0.000253	2.533764	0.858462	0.000101
1549	1.5403e+02	-18.3235	-85.801246	0.000253	2.533764	0.858462	0.000101
1550	1.5413e+02	-18.2899	-85.728577	0.000182	1.824310	0.618093	0.000073
1551	1.5422e+02	-18.2385	-85.607463	0.000304	3.040516	1.030155	0.000122
1552	1.5432e+02	-18.2000	-85.510572	0.000243	2.432413	0.824124	0.000097
1553	1.5442e+02	-18.1679	-85.393495	0.000294	2.939166	0.995816	0.000118
1554	1.5452e+02	-18.1246	-85.268344	0.000314	3.141867	1.064493	0.000126
1555	1.5462e+02	-18.0781	-85.159341	0.000274	2.736465	0.927139	0.000110
1556	1.5472e+02	-18.0412	-85.086673	0.000182	1.824310	0.618093	0.000073
1557	1.5482e+02	-18.0011	-84.993819	0.000233	2.331063	0.789785	0.000093
1558	1.5492e+02	-17.9594	-84.868667	0.000314	3.141867	1.064493	0.000126
1559	1.5502e+02	-17.9225	-84.723331	0.000365	3.648620	1.236186	0.000146
1560	1.5512e+02	-17.8824	-84.646625	0.000193	1.925660	0.652431	0.000077
1561	1.5522e+02	-17.8423	-84.537622	0.000274	2.736465	0.927139	0.000110
1562	1.5532e+02	-17.8022	-84.468991	0.000172	1.722959	0.583754	0.000069
1563	1.5542e+02	-17.7653	-84.323654	0.000365	3.648620	1.236186	0.000146
1564	1.5552e+02	-17.7268	-84.226763	0.000243	2.432413	0.824124	0.000097
1565	1.5562e+02	-17.6835	-84.141983	0.000213	2.128362	0.721108	0.000085
1566	1.5572e+02	-17.6401	-83.984535	0.000395	3.952671	1.339201	0.000158
1567	1.5582e+02	-17.6032	-83.915903	0.000172	1.722959	0.583754	0.000069
1568	1.5592e+02	-17.5647	-83.734232	0.000456	4.560775	1.545232	0.000183
1569	1.5602e+02	-17.5134	-83.677712	0.000142	1.418908	0.480739	0.000057
1570	1.5612e+02	-17.4781	-83.568710	0.000274	2.736465	0.927139	0.000110
1571	1.5622e+02	-17.4412	-83.475856	0.000233	2.331063	0.789785	0.000093
1572	1.5631e+02	-17.3995	-83.378964	0.000243	2.432413	0.824124	0.000097
1573	1.5641e+02	-17.3674	-83.225553	0.000385	3.851321	1.304863	0.000154
1574	1.5651e+02	-17.3241	-83.100402	0.000314	3.141867	1.064493	0.000126
1575	1.5661e+02	-17.2904	-82.995437	0.000264	2.635114	0.892801	0.000105
1576	1.5671e+02	-17.2423	-82.870285	0.000314	3.141867	1.064493	0.000126
1577	1.5681e+02	-17.2102	-82.716874	0.000385	3.851321	1.304863	0.000154
1578	1.5691e+02	-17.1621	-82.644206	0.000182	1.824310	0.618093	0.000073
1579	1.5701e+02	-17.1220	-82.486757	0.000395	3.952671	1.339201	0.000158
1580	1.5711e+02	-17.0931	-82.406015	0.000203	2.027011	0.686770	0.000081
1581	1.5721e+02	-17.0466	-82.288938	0.000294	2.939166	0.995816	0.000118
1582	1.5731e+02	-17.0065	-82.167824	0.000304	3.040516	1.030155	0.000122
1583	1.5741e+02	-16.9680	-82.062858	0.000264	2.635114	0.892801	0.000105
1584	1.5751e+02	-16.9247	-81.933670	0.000324	3.243218	1.098832	0.000130
1585	1.5761e+02	-16.8846	-81.832741	0.000253	2.533764	0.858462	0.000101
1586	1.5771e+02	-16.8444	-81.671256	0.000405	4.054022	1.373540	0.000162
1587	1.5781e+02	-16.8108	-81.554179	0.000294	2.939166	0.995816	0.000118
1588	1.5791e+02	-16.7642	-81.445176	0.000274	2.736465	0.927139	0.000110
1589	1.5801e+02	-16.7273	-81.356359	0.000223	2.229712	0.755447	0.000089
1590	1.5811e+02	-16.6824	-81.182763	0.000436	4.358074	1.476555	0.000174
1591	1.5821e+02	-16.6423	-81.077797	0.000264	2.635114	0.892801	0.000105
1592	1.5830e+02	-16.6070	-80.944572	0.000334	3.344568	1.133170	0.000134
1593	1.5840e+02	-16.5669	-80.835569	0.000274	2.736465	0.927139	0.000110
1594	1.5850e+02	-16.5380	-80.710418	0.000314	3.141867	1.064493	0.000126
1595	1.5860e+02	-16.4771	-80.561044	0.000375	3.749970	1.270524	0.000150
1596	1.5870e+02	-16.4434	-80.443967	0.000294	2.939166	0.995816	0.000118
1597	1.5880e+02	-16.4097	-80.294593	0.000375	3.749970	1.270524	0.000150
1598	1.5890e+02	-16.3712	-80.217887	0.000193	1.925660	0.652431	0.000077
1599	1.5900e+02	-16.3295	-80.016030	0.000507	5.067527	1.716925	0.000203
1600	1.5910e+02	-16.2862	-79.983733	0.000081	0.810804	0.274708	0.000032
1601	1.5920e+02	-16.2413	-79.830322	0.000385	3.851321	1.304863	0.000154
1602	1.5930e+02	-16.2140	-79.701134	0.000324	3.243218	1.098832	0.000130
1603	1.5940e+02	-16.1707	-79.555797	0.000365	3.648620	1.236186	0.000146
1604	1.5950e+02	-16.1257	-79.458906	0.000243	2.432413	0.824124	0.000097
1605	1.5960e+02	-16.0905	-79.333754	0.000314	3.141867	1.064493	0.000126
1606	1.5970e+02	-16.0503	-79.180343	0.000385	3.851321	1.304863	0.000154
1607	1.5980e+02	-16.0118	-79.059229	0.000304	3.040516	1.030155	0.000122
1608	1.5990e+02	-15.9701	-78.958301	0.000253	2.533764	0.858462	0.000101
1609	1.6000e+02	-15.9332	-78.768555	0.000476	4.763476	1.613909	0.000191
1610	1.6010e+02	-15.8915	-78.667627	0.000253	2.533764	0.858462	0.000101
1611	1.6019e+02	-15.8546	-78.514216	0.000385	3.851321	1.304863	0.000154
1612	1.6029e+02	-15.8097	-78.397139	0.000294	2.939166	0.995816	0.000118
1613	1.6039e+02	-15.7760	-78.292173	0.000264	2.635114	0.892801	0.000105
1614	1.6049e+02	-15.7327	-78.150874	0.000355	3.547269	1.201847	0.000142
1615	1.6059e+02	-15.6862	-77.977277	0.000436	4.358074	1.476555	0.000174
1616	1.6069e+02	-15.6525	-77.872311	0.000264	2.635114	0.892801	0.000105
1617	1.6079e+02	-15.6124	-77.759271	0.000284	2.837815	0.961478	0.000114
1618	1.6089e+02	-15.5755	-77.589712	0.000426	4.256723	1.442217	0.000170
1619	1.6099e+02	-15.5274	-77.472635	0.000294	2.939166	0.995816	0.000118
1620	1.6109e+02	-15.4921	-77.387855	0.000213	2.128362	0.721108	0.000085
1621	1.6119e+02	-15.4504	-77.202147	0.000466	4.662125	1.579571	0.000187
1622	1.6129e+02	-15.4071	-77.101218	0.000253	2.533764	0.858462	0.000101
1623	1.6139e+02	-15.3750	-76.943770	0.000395	3.952671	1.339201	0.000158
1624	1.6149e+02	-15.3445	-76.834767	0.000274	2.736465	0.927139	0.000110
1625	1.6159e+02	-15.2980	-76.709616	0.000314	3.141867	1.064493	0.000126
1626	1.6169e+02	-15.2579	-76.568316	0.000355	3.547269	1.201847	0.000142
1627	1.6179e+02	-15.2161	-76.443165	0.000314	3.141867	1.064493	0.000126
1628	1.6189e+02	-15.1809	-76.269568	0.000436	4.358074	1.476555	0.000174
1629	1.6199e+02	-15.1263	-76.160566	0.000274	2.736465	0.927139	0.000110
1630	1.6209e+02	-15.0926	-76.011192	0.000375	3.749970	1.270524	0.000150
1631	1.6219e+02	-15.0589	-75.857781	0.000385	3.851321	1.304863	0.000154
1632	1.6228e+02	-15.0220	-75.744741	0.000284	2.837815	0.961478	0.000114
1633	1.6238e+02	-14.9787	-75.619590	0.000314	3.141867	1.064493	0.000126
1634	1.6248e+02	-14.9418	-75.450030	0.000426	4.256723	1.442217	0.000170
1635	1.6258e+02	-14.8921	-75.332953	0.000294	2.939166	0.995816	0.000118
1636	1.6268e+02	-14.8584	-75.199727	0.000334	3.344568	1.133170	0.000134
1637	1.6278e+02	-14.8199	-75.058428	0.000355	3.547269	1.201847	0.000142
1638	1.6288e+02	-14.7782	-74.921165	0.000345	3.445919	1.167509	0.000138
1639	1.6298e+02	-14.7381	-74.787940	0.000334	3.344568	1.133170	0.000134
1640	1.6308e+02	-14.6932	-74.670863	0.000294	2.939166	0.995816	0.000118
1641	1.6318e+02	-14.6482	-74.557823	0.000284	2.837815	0.961478	0.000114
1642	1.6328e+02	-14.6178	-74.392300	0.000416	4.155373	1.407878	0.000166
1643	1.6338e+02	-14.5825	-74.242926	0.000375	3.749970	1.270524	0.000150
1644	1.6348e+02	-14.5456	-74.085478	0.000395	3.952671	1.339201	0.000158
1645	1.6358e+02	-14.4942	-73.948215	0.000345	3.445919	1.167509	0.000138
1646	1.6368e+02	-14.4686	-73.782693	0.000416	4.155373	1.407878	0.000166
1647	1.6378e+02	-14.4140	-73.693876	0.000223	2.229712	0.755447	0.000089
1648	1.6388e+02	-14.3755	-73.536427	0.000395	3.952671	1.339201	0.000158
1649	1.6398e+02	-14.3402	-73.403202	0.000334	3.344568	1.133170	0.000134
1650	1.6408e+02	-14.2953	-73.286125	0.000294	2.939166	0.995816	0.000118
1651	1.6418e+02	-14.2536	-73.120602	0.000416	4.155373	1.407878	0.000166
1652	1.6427e+02	-14.2247	-73.023711	0.000243	2.432413	0.824124	0.000097
1653	1.6437e+02	-14.1878	-72.874337	0.000375	3.749970	1.270524	0.000150
1654	1.6447e+02	-14.1381	-72.688629	0.000466	4.662125	1.579571	0.000187
1655	1.6457e+02	-14.0932	-72.559441	0.000324	3.243218	1.098832	0.000130
1656	1.6467e+02	-14.0499	-72.454475	0.000264	2.635114	0.892801	0.000105
1657	1.6477e+02	-14.0178	-72.309138	0.000365	3.648620	1.236186	0.000146
1658	1.6487e+02	-13.9825	-72.159764	0.000375	3.749970	1.270524	0.000150
1659	1.6497e+02	-13.9408	-72.054799	0.000264	2.635114	0.892801	0.000105
1660	1.6507e+02	-13.8959	-71.889276	0.000416	4.155373	1.407878	0.000166
1661	1.6517e+02	-13.8670	-71.752013	0.000345	3.445919	1.167509	0.000138
1662	1.6527e+02	-13.8253	-71.610714	0.000355	3.547269	1.201847	0.000142
1663	1.6537e+02	-13.7755	-71.501711	0.000274	2.736465	0.927139	0.000110
1664	1.6547e+02	-13.7435	-71.352337	0.000375	3.749970	1.270524	0.000150
1665	1.6557e+02	-13.6969	-71.207000	0.000365	3.648620	1.236186	0.000146
1666	1.6567e+02	-13.6488	-71.069738	0.000345	3.445919	1.167509	0.000138
1667	1.6577e+02	-13.6231	-70.940549	0.000324	3.243218	1.098832	0.000130
1668	1.6587e+02	-13.5798	-70.770989	0.000426	4.256723	1.442217	0.000170
1669	1.6597e+02	-13.5413	-70.645838	0.000314	3.141867	1.064493	0.000126
1670	1.6607e+02	-13.4996	-70.480316	0.000416	4.155373	1.407878	0.000166
1671	1.6616e+02	-13.4563	-70.371313	0.000274	2.736465	0.927139	0.000110
1672	1.6626e+02	-13.4194	-70.238088	0.000334	3.344568	1.133170	0.000134
1673	1.6636e+02	-13.3793	-70.100825	0.000345	3.445919	1.167509	0.000138
1674	1.6646e+02	-13.3344	-69.975674	0.000314	3.141867	1.064493	0.000126
1675	1.6656e+02	-13.3071	-69.810151	0.000416	4.155373	1.407878	0.000166
1676	1.6666e+02	-13.2622	-69.652703	0.000395	3.952671	1.339201	0.000158
1677	1.6676e+02	-13.2237	-69.539663	0.000284	2.837815	0.961478	0.000114
1678	1.6686e+02	-13.1852	-69.382215	0.000395	3.952671	1.339201	0.000158
1679	1.6696e+02	-13.1435	-69.240915	0.000355	3.547269	1.201847	0.000142
1680	1.6706e+02	-13.0937	-69.083467	0.000395	3.952671	1.339201	0.000158
1681	1.6716e+02	-13.0649	-68.958316	0.000314	3.141867	1.064493	0.000126
1682	1.6726e+02	-13.0216	-68.804904	0.000385	3.851321	1.304863	0.000154
1683	1.6736e+02	-12.9766	-68.699939	0.000264	2.635114	0.892801	0.000105
1684	1.6746e+02	-12.9381	-68.542491	0.000395	3.952671	1.339201	0.000158
1685	1.6756e+02	-12.9012	-68.364857	0.000446	4.459424	1.510894	0.000179
1686	1.6766e+02	-12.8676	-68.284114	0.000203	2.027011	0.686770	0.000081
1687	1.6776e+02	-12.8258	-68.106480	0.000446	4.459424	1.510894	0.000179
1688	1.6786e+02	-12.7857	-68.009589	0.000243	2.432413	0.824124	0.000097
1689	1.6796e+02	-12.7472	-67.819843	0.000476	4.763476	1.613909	0.000191
1690	1.6806e+02	-12.7039	-67.710841	0.000274	2.736465	0.927139	0.000110
1691	1.6816e+02	-12.6686	-67.549355	0.000405	4.054022	1.373540	0.000162
1692	1.6825e+02	-12.6189	-67.420167	0.000324	3.243218	1.098832	0.000130
1693	1.6835e+02	-12.5788	-67.286941	0.000334	3.344568	1.133170	0.000134
1694	1.6845e+02	-12.5371	-67.145642	0.000355	3.547269	1.201847	0.000142
1695	1.6855e+02	-12.5034	-66.972045	0.000436	4.358074	1.476555	0.000174
1696	1.6865e+02	-12.4697	-66.859005	0.000284	2.837815	0.961478	0.000114
1697	1.6875e+02	-12.4216	-66.709631	0.000375	3.749970	1.270524	0.000150
1698	1.6885e+02	-12.3831	-66.556220	0.000385	3.851321	1.304863	0.000154
1699	1.6895e+02	-12.3430	-66.398771	0.000395	3.952671	1.339201	0.000158
1700	1.6905e+02	-12.3029	-66.269583	0.000324	3.243218	1.098832	0.000130
1701	1.6915e+02	-12.2612	-66.164618	0.000264	2.635114	0.892801	0.000105
1702	1.6925e+02	-12.2307	-66.023318	0.000355	3.547269	1.201847	0.000142
1703	1.6935e+02	-12.1793	-65.849721	0.000436	4.358074	1.476555	0.000174
1704	1.6945e+02	-12.1473	-65.684198	0.000416	4.155373	1.407878	0.000166
1705	1.6955e+02	-12.1087	-65.559047	0.000314	3.141867	1.064493	0.000126
1706	1.6965e+02	-12.0719	-65.478305	0.000203	2.027011	0.686770	0.000081
1707	1.6975e+02	-12.0205	-65.256262	0.000557	5.574280	1.888617	0.000223
1708	1.6985e+02	-11.9916	-65.167445	0.000223	2.229712	0.755447	0.000089
1709	1.6995e+02	-11.9515	-64.985774	0.000456	4.560775	1.545232	0.000183
1710	1.7005e+02	-11.9130	-64.876771	0.000274	2.736465	0.927139	0.000110
1711	1.7015e+02	-11.8729	-64.703174	0.000436	4.358074	1.476555	0.000174
1712	1.7024e+02	-11.8280	-64.594172	0.000274	2.736465	0.927139	0.000110
1713	1.7034e+02	-11.7831	-64.428649	0.000416	4.155373	1.407878	0.000166
1714	1.7044e+02	-11.7510	-64.246978	0.000456	4.560775	1.545232	0.000183
1715	1.7054e+02	-11.7093	-64.129901	0.000294	2.939166	0.995816	0.000118
1716	1.7064e+02	-11.6612	-63.960341	0.000426	4.256723	1.442217	0.000170
1717	1.7074e+02	-11.6195	-63.855376	0.000264	2.635114	0.892801	0.000105
1718	1.7084e+02	-11.5858	-63.673705	0.000456	4.560775	1.545232	0.000183
1719	1.7094e+02	-11.5505	-63.580851	0.000233	2.331063	0.789785	0.000093
1720	1.7104e+02	-11.5056	-63.475885	0.000264	2.635114	0.892801	0.000105
1721	1.7114e+02	-11.4655	-63.294214	0.000456	4.560775	1.545232	0.000183
1722	1.7124e+02	-11.4253	-63.120617	0.000436	4.358074	1.476555	0.000174
1723	1.7134e+02	-11.3933	-62.947020	0.000436	4.358074	1.476555	0.000174
1724	1.7144e+02	-11.3516	-62.813795	0.000334	3.344568	1.133170	0.000134
1725	1.7154e+02	-11.3082	-62.676532	0.000345	3.445919	1.167509	0.000138
1726	1.7164e+02	-11.2697	-62.563493	0.000284	2.837815	0.961478	0.000114
1727	1.7174e+02	-11.2312	-62.389896	0.000436	4.358074	1.476555	0.000174
1728	1.7184e+02	-11.1879	-62.256670	0.000334	3.344568	1.133170	0.000134
1729	1.7194e+02	-11.1494	-62.107296	0.000375	3.749970	1.270524	0.000150
1730	1.7204e+02	-11.1141	-61.974071	0.000334	3.344568	1.133170	0.000134
1731	1.7213e+02	-11.0724	-61.816622	0.000395	3.952671	1.339201	0.000158
1732	1.7223e+02	-11.0179	-61.651100	0.000416	4.155373	1.407878	0.000166
1733	1.7233e+02	-10.9922	-61.517874	0.000334	3.344568	1.133170	0.000134
1734	1.7243e+02	-10.9537	-61.348315	0.000426	4.256723	1.442217	0.000170
1735	1.7253e+02	-10.9056	-61.227201	0.000304	3.040516	1.030155	0.000122
1736	1.7263e+02	-10.8751	-61.093975	0.000334	3.344568	1.133170	0.000134
1737	1.7273e+02	-10.8318	-60.924415	0.000426	4.256723	1.442217	0.000170
1738	1.7283e+02	-10.7949	-60.754856	0.000426	4.256723	1.442217	0.000170
1739	1.7293e+02	-10.7516	-60.621630	0.000334	3.344568	1.133170	0.000134
1740	1.7303e+02	-10.7147	-60.468219	0.000385	3.851321	1.304863	0.000154
1741	1.7313e+02	-10.6730	-60.306734	0.000405	4.054022	1.373540	0.000162
1742	1.7323e+02	-10.6329	-60.193694	0.000284	2.837815	0.961478	0.000114
1743	1.7333e+02	-10.5911	-60.048357	0.000365	3.648620	1.236186	0.000146
1744	1.7343e+02	-10.5575	-59.870723	0.000446	4.459424	1.510894	0.000179
1745	1.7353e+02	-10.5125	-59.705200	0.000416	4.155373	1.407878	0.000166
1746	1.7363e+02	-10.4724	-59.563901	0.000355	3.547269	1.201847	0.000142
1747	1.7373e+02	-10.4436	-59.430675	0.000334	3.344568	1.133170	0.000134
1748	1.7383e+02	-10.3922	-59.244967	0.000466	4.662125	1.579571	0.000187
1749	1.7393e+02	-10.3521	-59.099630	0.000365	3.648620	1.236186	0.000146
1750	1.7403e+02	-10.3168	-58.954293	0.000365	3.648620	1.236186	0.000146
1751	1.7413e+02	-10.2783	-58.792808	0.000405	4.054022	1.373540	0.000162
1752	1.7422e+02	-10.2270	-58.655545	0.000345	3.445919	1.167509	0.000138
1753	1.7432e+02	-10.1965	-58.530394	0.000314	3.141867	1.064493	0.000126
1754	1.7442e+02	-10.1516	-58.364871	0.000416	4.155373	1.407878	0.000166
1755	1.7452e+02	-10.1163	-58.219534	0.000365	3.648620	1.236186	0.000146
1756	1.7462e+02	-10.0762	-58.066123	0.000385	3.851321	1.304863	0.000154
1757	1.7472e+02	-10.0393	-57.856192	0.000527	5.270229	1.785602	0.000211
1758	1.7482e+02	-9.9976	-57.706818	0.000375	3.749970	1.270524	0.000150
1759	1.7492e+02	-9.9511	-57.557444	0.000375	3.749970	1.270524	0.000150
1760	1.7502e+02	-9.9206	-57.416144	0.000355	3.547269	1.201847	0.000142
1761	1.7512e+02	-9.8837	-57.258696	0.000395	3.952671	1.339201	0.000158
1762	1.7522e+02	-9.8307	-57.113359	0.000365	3.648620	1.236186	0.000146
1763	1.7532e+02	-9.7938	-56.980134	0.000334	3.344568	1.133170	0.000134
1764	1.7542e+02	-9.7537	-56.802500	0.000446	4.459424	1.510894	0.000179
1765	1.7552e+02	-9.7136	-56.649089	0.000385	3.851321	1.304863	0.000154
1766	1.7562e+02	-9.6767	-56.507789	0.000355	3.547269	1.201847	0.000142
1767	1.7572e+02	-9.6366	-56.362452	0.000365	3.648620	1.236186	0.000146
1768	1.7582e+02	-9.5917	-56.180781	0.000456	4.560775	1.545232	0.000183
1769	1.7592e+02	-9.5676	-56.031407	0.000375	3.749970	1.270524	0.000150
1770	1.7602e+02	-9.5131	-55.865884	0.000416	4.155373	1.407878	0.000166
1771	1.7612e+02	-9.4778	-55.708436	0.000395	3.952671	1.339201	0.000158
1772	1.7621e+02	-9.4281	-55.575211	0.000334	3.344568	1.133170	0.000134
1773	1.7631e+02	-9.3992	-55.393539	0.000456	4.560775	1.545232	0.000183
1774	1.7641e+02	-9.3607	-55.211868	0.000456	4.560775	1.545232	0.000183
1775	1.7651e+02	-9.3206	-55.058457	0.000385	3.851321	1.304863	0.000154
1776	1.7661e+02	-9.2725	-54.937343	0.000304	3.040516	1.030155	0.000122
1777	1.7671e+02	-9.2420	-54.751635	0.000466	4.662125	1.579571	0.000187
1778	1.7681e+02	-9.2099	-54.634558	0.000294	2.939166	0.995816	0.000118
1779	1.7691e+02	-9.1650	-54.424627	0.000527	5.270229	1.785602	0.000211
1780	1.7701e+02	-9.1169	-54.303513	0.000304	3.040516	1.030155	0.000122
1781	1.7711e+02	-9.0848	-54.133953	0.000426	4.256723	1.442217	0.000170
1782	1.7721e+02	-9.0382	-53.944208	0.000476	4.763476	1.613909	0.000191
1783	1.7731e+02	-8.9965	-53.823094	0.000304	3.040516	1.030155	0.000122
1784	1.7741e+02	-8.9564	-53.693905	0.000324	3.243218	1.098832	0.000130
1785	1.7751e+02	-8.9260	-53.483974	0.000527	5.270229	1.785602	0.000211
1786	1.7761e+02	-8.8891	-53.314415	0.000426	4.256723	1.442217	0.000170
1787	1.7771e+02	-8.8377	-53.165041	0.000375	3.749970	1.270524	0.000150
1788	1.7781e+02	-8.7912	-53.015667	0.000375	3.749970	1.270524	0.000150
1789	1.7791e+02	-8.7543	-52.858218	0.000395	3.952671	1.339201	0.000158
1790	1.7801e+02	-8.7222	-52.716918	0.000355	3.547269	1.201847	0.000142
1791	1.7810e+02	-8.6789	-52.543322	0.000436	4.358074	1.476555	0.000174
1792	1.7820e+02	-8.6356	-52.377799	0.000416	4.155373	1.407878	0.000166
1793	1.7830e+02	-8.6003	-52.200165	0.000446	4.459424	1.510894	0.000179
1794	1.7840e+02	-8.5618	-52.034643	0.000416	4.155373	1.407878	0.000166
1795	1.7850e+02	-8.5185	-51.901417	0.000334	3.344568	1.133170	0.000134
1796	1.7860e+02	-8.4720	-51.699560	0.000507	5.067527	1.716925	0.000203
1797	1.7870e+02	-8.4383	-51.578446	0.000304	3.040516	1.030155	0.000122
1798	1.7880e+02	-8.3933	-51.408886	0.000426	4.256723	1.442217	0.000170
1799	1.7890e+02	-8.3564	-51.211067	0.000497	4.966177	1.682586	0.000199
1800	1.7900e+02	-8.3308	-51.077841	0.000334	3.344568	1.133170	0.000134
1801	1.7910e+02	-8.2810	-50.904245	0.000436	4.358074	1.476555	0.000174
1802	1.7920e+02	-8.2329	-50.750833	0.000385	3.851321	1.304863	0.000154
1803	1.7930e+02	-8.2040	-50.609534	0.000355	3.547269	1.201847	0.000142
1804	1.7940e+02	-8.1704	-50.407677	0.000507	5.067527	1.716925	0.000203
1805	1.7950e+02	-8.1206	-50.242154	0.000416	4.155373	1.407878	0.000166
1806	1.7960e+02	-8.0821	-50.084706	0.000395	3.952671	1.339201	0.000158
1807	1.7970e+02	-8.0500	-49.911109	0.000436	4.358074	1.476555	0.000174
1808	1.7980e+02	-8.0067	-49.741549	0.000426	4.256723	1.442217	0.000170
1809	1.7990e+02	-7.9634	-49.604287	0.000345	3.445919	1.167509	0.000138
1810	1.8000e+02	-7.9169	-49.398393	0.000517	5.168878	1.751263	0.000207
1811	1.8009e+02	-7.8848	-49.261130	0.000345	3.445919	1.167509	0.000138
1812	1.8019e+02	-7.8431	-49.083496	0.000446	4.459424	1.510894	0.000179
1813	1.8029e+02	-7.7982	-48.950271	0.000334	3.344568	1.133170	0.000134
1814	1.8039e+02	-7.7629	-48.780711	0.000426	4.256723	1.442217	0.000170
1815	1.8049e+02	-7.7228	-48.619226	0.000405	4.054022	1.373540	0.000162
1816	1.8059e+02	-7.6843	-48.453703	0.000416	4.155373	1.407878	0.000166
1817	1.8069e+02	-7.6442	-48.296255	0.000395	3.952671	1.339201	0.000158
1818	1.8079e+02	-7.6025	-48.134769	0.000405	4.054022	1.373540	0.000162
1819	1.8089e+02	-7.5591	-47.932913	0.000507	5.067527	1.716925	0.000203
1820	1.8099e+02	-7.5255	-47.803724	0.000324	3.243218	1.098832	0.000130
1821	1.8109e+02	-7.4837	-47.638202	0.000416	4.155373	1.407878	0.000166
1822	1.8119e+02	-7.4356	-47.472679	0.000416	4.155373	1.407878	0.000166
1823	1.8129e+02	-7.4067	-47.295045	0.000446	4.459424	1.510894	0.000179
1824	1.8139e+02	-7.3634	-47.129523	0.000416	4.155373	1.407878	0.000166
1825	1.8149e+02	-7.3281	-46.927666	0.000507	5.067527	1.716925	0.000203
1826	1.8159e+02	-7.2816	-46.766180	0.000405	4.054022	1.373540	0.000162
1827	1.8169e+02	-7.2319	-46.653141	0.000284	2.837815	0.961478	0.000114
1828	1.8179e+02	-7.2126	-46.455321	0.000497	4.966177	1.682586	0.000199
1829	1.8189e+02	-7.1725	-46.273650	0.000456	4.560775	1.545232	0.000183
1830	1.8199e+02	-7.1196	-46.140424	0.000334	3.344568	1.133170	0.000134
1831	1.8209e+02	-7.0907	-46.019310	0.000304	3.040516	1.030155	0.000122
1832	1.8218e+02	-7.0426	-45.817453	0.000507	5.067527	1.716925	0.000203
1833	1.8228e+02	-7.0089	-45.631745	0.000466	4.662125	1.579571	0.000187
1834	1.8238e+02	-6.9720	-45.478334	0.000385	3.851321	1.304863	0.000154
1835	1.8248e+02	-6.9207	-45.288589	0.000476	4.763476	1.613909	0.000191
1836	1.8258e+02	-6.8870	-45.159400	0.000324	3.243218	1.098832	0.000130
1837	1.8268e+02	-6.8437	-44.957544	0.000507	5.067527	1.716925	0.000203
1838	1.8278e+02	-6.7987	-44.832392	0.000314	3.141867	1.064493	0.000126
1839	1.8288e+02	-6.7779	-44.662833	0.000426	4.256723	1.442217	0.000170
1840	1.8298e+02	-6.7249	-44.517496	0.000365	3.648620	1.236186	0.000146
1841	1.8308e+02	-6.6897	-44.327750	0.000476	4.763476	1.613909	0.000191
1842	1.8318e+02	-6.6528	-44.154154	0.000436	4.358074	1.476555	0.000174
1843	1.8328e+02	-6.6143	-43.976520	0.000446	4.459424	1.510894	0.000179
1844	1.8338e+02	-6.5645	-43.823108	0.000385	3.851321	1.304863	0.000154
1845	1.8348e+02	-6.5276	-43.629326	0.000486	4.864826	1.648248	0.000195
1846	1.8358e+02	-6.4891	-43.512249	0.000294	2.939166	0.995816	0.000118
1847	1.8368e+02	-6.4410	-43.302318	0.000527	5.270229	1.785602	0.000211
1848	1.8378e+02	-6.4121	-43.201390	0.000253	2.533764	0.858462	0.000101
1849	1.8388e+02	-6.3752	-42.999533	0.000507	5.067527	1.716925	0.000203
1850	1.8398e+02	-6.3351	-42.834010	0.000416	4.155373	1.407878	0.000166
1851	1.8407e+02	-6.2854	-42.684636	0.000375	3.749970	1.270524	0.000150
1852	1.8417e+02	-6.2533	-42.498928	0.000466	4.662125	1.579571	0.000187
1853	1.8427e+02	-6.2132	-42.341480	0.000395	3.952671	1.339201	0.000158
1854	1.8437e+02	-6.1667	-42.192106	0.000375	3.749970	1.270524	0.000150
1855	1.8447e+02	-6.1298	-42.038694	0.000385	3.851321	1.304863	0.000154
1856	1.8457e+02	-6.0961	-41.848949	0.000476	4.763476	1.613909	0.000191
1857	1.8467e+02	-6.0447	-41.655167	0.000486	4.864826	1.648248	0.000195
1858	1.8477e+02	-6.0095	-41.517904	0.000345	3.445919	1.167509	0.000138
1859	1.8487e+02	-5.9742	-41.340270	0.000446	4.459424	1.510894	0.000179
1860	1.8497e+02	-5.9292	-41.162636	0.000446	4.459424	1.510894	0.000179
1861	1.8507e+02	-5.8940	-40.985002	0.000446	4.459424	1.510894	0.000179
1862	1.8517e+02	-5.8538	-40.863888	0.000304	3.040516	1.030155	0.000122
1863	1.8527e+02	-5.8218	-40.702403	0.000405	4.054022	1.373540	0.000162
1864	1.8537e+02	-5.7752	-40.504583	0.000497	4.966177	1.682586	0.000199
1865	1.8547e+02	-5.7383	-40.367320	0.000345	3.445919	1.167509	0.000138
1866	1.8557e+02	-5.7063	-40.177575	0.000476	4.763476	1.613909	0.000191
1867	1.8567e+02	-5.6533	-40.028201	0.000375	3.749970	1.270524	0.000150
1868	1.8577e+02	-5.6260	-39.838455	0.000476	4.763476	1.613909	0.000191
1869	1.8587e+02	-5.5763	-39.701193	0.000345	3.445919	1.167509	0.000138
1870	1.8597e+02	-5.5346	-39.523559	0.000446	4.459424	1.510894	0.000179
1871	1.8606e+02	-5.4977	-39.341888	0.000456	4.560775	1.545232	0.000183
1872	1.8616e+02	-5.4544	-39.156180	0.000466	4.662125	1.579571	0.000187
1873	1.8626e+02	-5.4207	-38.970471	0.000466	4.662125	1.579571	0.000187
1874	1.8636e+02	-5.3710	-38.829172	0.000355	3.547269	1.201847	0.000142
1875	1.8646e+02	-5.3325	-38.667686	0.000405	4.054022	1.373540	0.000162
1876	1.8656e+02	-5.2972	-38.502164	0.000416	4.155373	1.407878	0.000166
1877	1.8666e+02	-5.2539	-38.344715	0.000395	3.952671	1.339201	0.000158
1878	1.8676e+02	-5.2170	-38.130747	0.000537	5.371579	1.819940	0.000215
1879	1.8686e+02	-5.1737	-38.021744	0.000274	2.736465	0.927139	0.000110
1880	1.8696e+02	-5.1384	-37.836036	0.000466	4.662125	1.579571	0.000187
1881	1.8706e+02	-5.0983	-37.634179	0.000507	5.067527	1.716925	0.000203
1882	1.8716e+02	-5.0598	-37.504991	0.000324	3.243218	1.098832	0.000130
1883	1.8726e+02	-5.0132	-37.327357	0.000446	4.459424	1.510894	0.000179
1884	1.8736e+02	-4.9763	-37.190094	0.000345	3.445919	1.167509	0.000138
1885	1.8746e+02	-4.9362	-36.980163	0.000527	5.270229	1.785602	0.000211
1886	1.8756e+02	-4.8897	-36.818678	0.000405	4.054022	1.373540	0.000162
1887	1.8766e+02	-4.8576	-36.645081	0.000436	4.358074	1.476555	0.000174
1888	1.8776e+02	-4.8159	-36.491670	0.000385	3.851321	1.304863	0.000154
1889	1.8786e+02	-4.7774	-36.297887	0.000486	4.864826	1.648248	0.000195
1890	1.8796e+02	-4.7421	-36.124291	0.000436	4.358074	1.476555	0.000174
1891	1.8806e+02	-4.6988	-35.918397	0.000517	5.168878	1.751263	0.000207
1892	1.8815e+02	-4.6507	-35.789208	0.000324	3.243218	1.098832	0.000130
1893	1.8825e+02	-4.6154	-35.599463	0.000476	4.763476	1.613909	0.000191
1894	1.8835e+02	-4.5817	-35.470275	0.000324	3.243218	1.098832	0.000130
1895	1.8845e+02	-4.5239	-35.316863	0.000385	3.851321	1.304863	0.000154
1896	1.8855e+02	-4.5031	-35.102895	0.000537	5.371579	1.819940	0.000215
1897	1.8865e+02	-4.4614	-34.913150	0.000476	4.763476	1.613909	0.000191
1898	1.8875e+02	-4.4213	-34.767813	0.000365	3.648620	1.236186	0.000146
1899	1.8885e+02	-4.3763	-34.578068	0.000476	4.763476	1.613909	0.000191
1900	1.8895e+02	-4.3427	-34.392359	0.000466	4.662125	1.579571	0.000187
1901	1.8905e+02	-4.2993	-34.202614	0.000476	4.763476	1.613909	0.000191
1902	1.8915e+02	-4.2528	-34.065351	0.000345	3.445919	1.167509	0.000138
1903	1.8925e+02	-4.2207	-33.879643	0.000466	4.662125	1.579571	0.000187
1904	1.8935e+02	-4.1774	-33.730269	0.000375	3.749970	1.270524	0.000150
1905	1.8945e+02	-4.1389	-33.532449	0.000497	4.966177	1.682586	0.000199
1906	1.8955e+02	-4.1004	-33.370964	0.000405	4.054022	1.373540	0.000162
1907	1.8965e+02	-4.0603	-33.197367	0.000436	4.358074	1.476555	0.000174
1908	1.8975e+02	-4.0250	-33.019733	0.000446	4.459424	1.510894	0.000179
1909	1.8985e+02	-3.9769	-32.850174	0.000426	4.256723	1.442217	0.000170
1910	1.8995e+02	-3.9400	-32.672540	0.000446	4.459424	1.510894	0.000179
1911	1.9004e+02	-3.8935	-32.519128	0.000385	3.851321	1.304863	0.000154
1912	1.9014e+02	-3.8534	-32.341494	0.000446	4.459424	1.510894	0.000179
1913	1.9024e+02	-3.8197	-32.151749	0.000476	4.763476	1.613909	0.000191
1914	1.9034e+02	-3.7732	-31.962004	0.000476	4.763476	1.613909	0.000191
1915	1.9044e+02	-3.7427	-31.820704	0.000355	3.547269	1.201847	0.000142
1916	1.9054e+02	-3.6994	-31.659218	0.000405	4.054022	1.373540	0.000162
1917	1.9064e+02	-3.6593	-31.497733	0.000405	4.054022	1.373540	0.000162
1918	1.9074e+02	-3.6336	-31.291839	0.000517	5.168878	1.751263	0.000207
1919	1.9084e+02	-3.5855	-31.142465	0.000375	3.749970	1.270524	0.000150
1920	1.9094e+02	-3.5454	-30.896200	0.000618	6.182384	2.094648	0.000248
1921	1.9104e+02	-3.5020	-30.742789	0.000385	3.851321	1.304863	0.000154
1922	1.9114e+02	-3.4635	-30.585340	0.000395	3.952671	1.339201	0.000158
1923	1.9124e+02	-3.4234	-30.415781	0.000426	4.256723	1.442217	0.000170
1924	1.9134e+02	-3.3801	-30.213924	0.000507	5.067527	1.716925	0.000203
1925	1.9144e+02	-3.3496	-30.028216	0.000466	4.662125	1.579571	0.000187
1926	1.9154e+02	-3.3015	-29.874804	0.000385	3.851321	1.304863	0.000154
1927	1.9164e+02	-3.2582	-29.668911	0.000517	5.168878	1.751263	0.000207
1928	1.9174e+02	-3.2197	-29.511462	0.000395	3.952671	1.339201	0.000158
1929	1.9184e+02	-3.1780	-29.289420	0.000557	5.574280	1.888617	0.000223
1930	1.9194e+02	-3.1395	-29.144083	0.000365	3.648620	1.236186	0.000146
1931	1.9203e+02	-3.1042	-28.974523	0.000426	4.256723	1.442217	0.000170
1932	1.9213e+02	-3.0721	-28.772666	0.000507	5.067527	1.716925	0.000203
1933	1.9223e+02	-3.0272	-28.627330	0.000365	3.648620	1.236186	0.000146
1934	1.9233e+02	-2.9775	-28.445658	0.000456	4.560775	1.545232	0.000183
1935	1.9243e+02	-2.9357	-28.243802	0.000507	5.067527	1.716925	0.000203
1936	1.9253e+02	-2.9005	-28.041945	0.000507	5.067527	1.716925	0.000203
1937	1.9263e+02	-2.8587	-27.884497	0.000395	3.952671	1.339201	0.000158
1938	1.9273e+02	-2.8331	-27.694751	0.000476	4.763476	1.613909	0.000191
1939	1.9283e+02	-2.7882	-27.509043	0.000466	4.662125	1.579571	0.000187
1940	1.9293e+02	-2.7529	-27.315260	0.000486	4.864826	1.648248	0.000195
1941	1.9303e+02	-2.6919	-27.161849	0.000385	3.851321	1.304863	0.000154
1942	1.9313e+02	-2.6598	-26.980178	0.000456	4.560775	1.545232	0.000183
1943	1.9323e+02	-2.6293	-26.802544	0.000446	4.459424	1.510894	0.000179
1944	1.9333e+02	-2.5796	-26.592613	0.000527	5.270229	1.785602	0.000211
1945	1.9343e+02	-2.5491	-26.431128	0.000405	4.054022	1.373540	0.000162
1946	1.9353e+02	-2.4994	-26.285791	0.000365	3.648620	1.236186	0.000146
1947	1.9363e+02	-2.4753	-26.071823	0.000537	5.371579	1.819940	0.000215
1948	1.9373e+02	-2.4256	-25.894189	0.000446	4.459424	1.510894	0.000179
1949	1.9383e+02	-2.3951	-25.708480	0.000466	4.662125	1.579571	0.000187
1950	1.9393e+02	-2.3518	-25.522772	0.000466	4.662125	1.579571	0.000187
1951	1.9403e+02	-2.3069	-25.341101	0.000456	4.560775	1.545232	0.000183
1952	1.9412e+02	-2.2572	-25.175578	0.000416	4.155373	1.407878	0.000166
1953	1.9422e+02	-2.2170	-24.977759	0.000497	4.966177	1.682586	0.000199
1954	1.9432e+02	-2.1850	-24.804162	0.000436	4.358074	1.476555	0.000174
1955	1.9442e+02	-2.1529	-24.622491	0.000456	4.560775	1.545232	0.000183
1956	1.9452e+02	-2.1096	-24.432745	0.000476	4.763476	1.613909	0.000191
1957	1.9462e+02	-2.0727	-24.279334	0.000385	3.851321	1.304863	0.000154
1958	1.9472e+02	-2.0278	-24.053255	0.000568	5.675631	1.922956	0.000227
1959	1.9482e+02	-1.9844	-23.859472	0.000486	4.864826	1.648248	0.000195
1960	1.9492e+02	-1.9540	-23.693950	0.000416	4.155373	1.407878	0.000166
1961	1.9502e+02	-1.9058	-23.492093	0.000507	5.067527	1.716925	0.000203
1962	1.9512e+02	-1.8705	-23.322533	0.000426	4.256723	1.442217	0.000170
1963	1.9522e+02	-1.8320	-23.144899	0.000446	4.459424	1.510894	0.000179
1964	1.9532e+02	-1.7871	-22.955154	0.000476	4.763476	1.613909	0.000191
1965	1.9542e+02	-1.7502	-22.757334	0.000497	4.966177	1.682586	0.000199
1966	1.9552e+02	-1.7101	-22.563552	0.000486	4.864826	1.648248	0.000195
1967	1.9562e+02	-1.6732	-22.381881	0.000456	4.560775	1.545232	0.000183
1968	1.9572e+02	-1.6331	-22.184061	0.000497	4.966177	1.682586	0.000199
1969	1.9582e+02	-1.5914	-22.010464	0.000436	4.358074	1.476555	0.000174
1970	1.9592e+02	-1.5497	-21.861090	0.000375	3.749970	1.270524	0.000150
1971	1.9601e+02	-1.5080	-21.687493	0.000436	4.358074	1.476555	0.000174
1972	1.9611e+02	-1.4631	-21.497748	0.000476	4.763476	1.613909	0.000191
1973	1.9621e+02	-1.4278	-21.299928	0.000497	4.966177	1.682586	0.000199
1974	1.9631e+02	-1.3861	-21.162666	0.000345	3.445919	1.167509	0.000138
1975	1.9641e+02	-1.3443	-20.888140	0.000689	6.891837	2.335018	0.000276
1976	1.9651e+02	-1.3123	-20.718581	0.000426	4.256723	1.442217	0.000170
1977	1.9661e+02	-1.2754	-20.524798	0.000486	4.864826	1.648248	0.000195
1978	1.9671e+02	-1.2240	-20.383498	0.000355	3.547269	1.201847	0.000142
1979	1.9681e+02	-1.1919	-20.145307	0.000598	5.979682	2.025971	0.000239
1980	1.9691e+02	-1.1583	-20.028230	0.000294	2.939166	0.995816	0.000118
1981	1.9701e+02	-1.1182	-19.826374	0.000507	5.067527	1.716925	0.000203
1982	1.9711e+02	-1.0636	-19.656814	0.000426	4.256723	1.442217	0.000170
1983	1.9721e+02	-1.0283	-19.467069	0.000476	4.763476	1.613909	0.000191
1984	1.9731e+02	-0.9898	-19.253100	0.000537	5.371579	1.819940	0.000215
1985	1.9741e+02	-0.9481	-19.099689	0.000385	3.851321	1.304863	0.000154
1986	1.9751e+02	-0.9160	-18.873610	0.000568	5.675631	1.922956	0.000227
1987	1.9761e+02	-0.8823	-18.691938	0.000456	4.560775	1.545232	0.000183
1988	1.9771e+02	-0.8246	-18.502193	0.000476	4.763476	1.613909	0.000191
1989	1.9781e+02	-0.7797	-18.332633	0.000426	4.256723	1.442217	0.000170
1990	1.9791e+02	-0.7572	-18.163074	0.000426	4.256723	1.442217	0.000170
1991	1.9800e+02	-0.7123	-17.932957	0.000578	5.776981	1.957294	0.000231
1992	1.9810e+02	-0.6818	-17.767434	0.000416	4.155373	1.407878	0.000166
1993	1.9820e+02	-0.6240	-17.561540	0.000517	5.168878	1.751263	0.000207
1994	1.9830e+02	-0.5920	-17.383906	0.000446	4.459424	1.510894	0.000179
1995	1.9840e+02	-0.5519	-17.226458	0.000395	3.952671	1.339201	0.000158
1996	1.9850e+02	-0.5198	-17.032676	0.000486	4.864826	1.648248	0.000195
1997	1.9860e+02	-0.4668	-16.810633	0.000557	5.574280	1.888617	0.000223
1998	1.9870e+02	-0.4347	-16.632999	0.000446	4.459424	1.510894	0.000179
1999	1.9880e+02	-0.3898	-16.447291	0.000466	4.662125	1.579571	0.000187
2000	1.9890e+02	-0.3465	-16.269657	0.000446	4.459424	1.510894	0.000179
2001	1.9900e+02	-0.3144	-16.100097	0.000426	4.256723	1.442217	0.000170
2002	1.9910e+02	-0.2727	-15.922463	0.000446	4.459424	1.510894	0.000179
2003	1.9920e+02	-0.2422	-15.740792	0.000456	4.560775	1.545232	0.000183
2004	1.9930e+02	-0.1957	-15.534898	0.000517	5.168878	1.751263	0.000207
2005	1.9940e+02	-0.1636	-15.349190	0.000466	4.662125	1.579571	0.000187
2006	1.9950e+02	-0.1171	-15.171556	0.000446	4.459424	1.510894	0.000179
2007	1.9960e+02	-0.0786	-14.997959	0.000436	4.358074	1.476555	0.000174
2008	1.9970e+02	-0.0385	-14.812251	0.000466	4.662125	1.579571	0.000187
2009	1.9980e+02	0.0128	-14.594246	0.000466	4.662125	1.579571	0.000219

PMax (uC/cm2):	9.17e+01
Pr (uC/cm2):	3.86e+00
-Pr (uC/cm2):	-1.10e+01
PLoss (uC/cm2):	-1.10e+01
-Vc:	-8.19e-01
C (Max-Eff) (nF):	4.59e-01
K (Eff):	1.55e+03
Vert. (+/-Pr) Shift (uC/cm2):	-3.57e+00
Offset (uC/cm2):	3.61e+00

A (Loop Area - uC/cm2·Volts):	1.83e-01



Hysteresis Version: 5.48.1 - Radiant Technologies, Inc., 1999 - 9/12/24

