»»»»»»»»»»»»»»»»»»»»»»»»»»»»»»»»»»»» Hysteresis ««««««««««««««««««««««««««««««««««««
»»»  Executed Version:	5.48.1
»»»  Vision Version:	5.48.4 (R)
»»»  Vision Compiled:	9/18/24
»»»  Driver Version:	5.47.0
»»»  Windows Version:	Windows 8 or 8.1
»»»  Processor Information:	x86 (AMD or Intel) - 32 Processors
»»»  Tester Name:	PMF21124-494 (100V)
»»»  Tester S/N:	PMF21124-494
»»»  Internal Amp Type:	100V RevK 270k
»»»  Internal Amp S/N:	iAB2-596/K     
»»»  Execution Count:	1
»»»»»»»»»»»»»»»»»»»»»»»»»»»»»»»»»»»»»»»»»»««««««««««««««««««««««««««««««««««««««««««

Stored:	6/18/2025 - 11:55:40
Configured:	06/18/25 09:47:30 AM
Executed:	06/18/25 11:55:07 AM

»»»»»»»»»»»»»»»»»»»»»»»»»»»»»»»»»»» Sample Info ««««««««««««««««««««««««««««««««««««
Sample Name:	
Lot Name:	
Wafer Name:	
Die Row/Column:	0/0
Capacitor Number:	0
Sample Area (cm2):	1.00e-04
Sample Thickness (microns):	3.00e-01

Amplifier:	Internal

»»»»»»»»»»»»»»»»»»»»»»»»»»»»»»»»»»» Tester Info «««««««««««««««««««««««««««««««««««
Tester Name:	PMF21124-494 (100V)
Tester Serial Number:	PMF21124-494
Return Signal Amp. Level:	0.19 [Index: 3]

»»»»»»»»»»»»»»»»»»»»»»»»»»»»»»»» Hysteresis Info ««««««««««««««««««««««««««««««««««
Task Name:	Hyst-554
Volts:	20.00
Field:	666.67 (kV/cm)
DCBias:	0.00
DCField:	0.00 (kV/cm)
Hysteresis Period (ms):	2.00e+02
Preset:	Enabled
Preset Delay (ms):	1.00e+03
Profile:	Standard Bipolar

»»»»»»»»»»»»»»»»»»»»»»»»»»»»»»»»»»»»»» Data «««««««««««««««««««««««««««««««««««««««
Points:	2009

Valid Data

Point	Time (ms)	Drive Voltage	Measured Polarization (uC/cm2)	Capacitance (uF)	Normalized Capacitance (uF/cm2)	Dielectric Constant	Instantaneous Current (mA)
   1	0.0000e+00	0.0112	-3.734351	0.000233	2.331343	0.789880	0.000093
   2	9.9500e-02	0.0337	-3.641496	0.000233	2.331343	0.789880	0.000093
   3	1.9900e-01	0.0738	-3.399268	0.000608	6.081765	2.060558	0.000243
   4	2.9850e-01	0.1075	-3.253931	0.000365	3.649059	1.236335	0.000146
   5	3.9800e-01	0.1444	-3.076297	0.000446	4.459961	1.511076	0.000179
   6	4.9750e-01	0.1893	-2.894626	0.000456	4.561324	1.545418	0.000183
   7	5.9700e-01	0.2246	-2.737178	0.000395	3.953147	1.339363	0.000158
   8	6.9650e-01	0.2631	-2.535321	0.000507	5.068137	1.717131	0.000203
   9	7.9600e-01	0.3112	-2.369799	0.000416	4.155873	1.408048	0.000166
  10	8.9550e-01	0.3465	-2.204276	0.000416	4.155873	1.408048	0.000166
  11	9.9500e-01	0.3914	-2.010494	0.000487	4.865412	1.648446	0.000195
  12	1.0945e+00	0.4219	-1.824785	0.000466	4.662686	1.579761	0.000187
  13	1.1940e+00	0.4652	-1.635040	0.000476	4.764049	1.614104	0.000191
  14	1.2935e+00	0.5069	-1.465480	0.000426	4.257235	1.442390	0.000170
  15	1.3930e+00	0.5438	-1.299958	0.000416	4.155873	1.408048	0.000166
  16	1.4925e+00	0.5823	-1.158658	0.000355	3.547696	1.201992	0.000142
  17	1.5920e+00	0.6321	-0.932578	0.000568	5.676314	1.923187	0.000227
  18	1.6915e+00	0.6722	-0.734759	0.000497	4.966775	1.682789	0.000199
  19	1.7910e+00	0.7091	-0.565199	0.000426	4.257235	1.442390	0.000170
  20	1.8905e+00	0.7524	-0.351231	0.000537	5.372226	1.820159	0.000215
  21	1.9900e+00	0.7941	-0.218005	0.000334	3.344971	1.133307	0.000134
  22	2.0895e+00	0.8278	0.016149	0.000588	5.879039	1.991872	0.000235
  23	2.1890e+00	0.8679	0.161485	0.000365	3.649059	1.236335	0.000146
  24	2.2885e+00	0.9080	0.371416	0.000527	5.270863	1.785817	0.000211
  25	2.3880e+00	0.9433	0.524828	0.000385	3.851784	1.305020	0.000154
  26	2.4875e+00	0.9882	0.742833	0.000547	5.473588	1.854502	0.000219
  27	2.5870e+00	1.0299	0.944690	0.000507	5.068137	1.717131	0.000203
  28	2.6865e+00	1.0732	1.122324	0.000446	4.459961	1.511076	0.000179
  29	2.7860e+00	1.0989	1.295921	0.000436	4.358598	1.476733	0.000174
  30	2.8855e+00	1.1486	1.509889	0.000537	5.372226	1.820159	0.000215
  31	2.9850e+00	1.1823	1.695597	0.000466	4.662686	1.579761	0.000187
  32	3.0845e+00	1.2321	1.869194	0.000436	4.358598	1.476733	0.000174
  33	3.1840e+00	1.2722	2.079125	0.000527	5.270863	1.785817	0.000211
  34	3.2835e+00	1.3074	2.248685	0.000426	4.257235	1.442390	0.000170
  35	3.3830e+00	1.3476	2.422281	0.000436	4.358598	1.476733	0.000174
  36	3.4825e+00	1.3845	2.644324	0.000557	5.574951	1.888845	0.000223
  37	3.5820e+00	1.4230	2.821958	0.000446	4.459961	1.511076	0.000179
  38	3.6815e+00	1.4631	2.991518	0.000426	4.257235	1.442390	0.000170
  39	3.7810e+00	1.5064	3.197412	0.000517	5.169500	1.751474	0.000207
  40	3.8805e+00	1.5481	3.403305	0.000517	5.169500	1.751474	0.000207
  41	3.9800e+00	1.5786	3.564791	0.000405	4.054510	1.373705	0.000162
  42	4.0795e+00	1.6219	3.762611	0.000497	4.966775	1.682789	0.000199
  43	4.1790e+00	1.6620	3.968504	0.000517	5.169500	1.751474	0.000207
  44	4.2785e+00	1.6973	4.142101	0.000436	4.358598	1.476733	0.000174
  45	4.3780e+00	1.7470	4.368181	0.000568	5.676314	1.923187	0.000227
  46	4.4775e+00	1.7855	4.557926	0.000476	4.764049	1.614104	0.000191
  47	4.5770e+00	1.8208	4.751709	0.000487	4.865412	1.648446	0.000195
  48	4.6765e+00	1.8705	4.945491	0.000487	4.865412	1.648446	0.000195
  49	4.7760e+00	1.9026	5.143311	0.000497	4.966775	1.682789	0.000199
  50	4.8755e+00	1.9491	5.320945	0.000446	4.459961	1.511076	0.000179
  51	4.9750e+00	1.9876	5.567210	0.000618	6.183128	2.094900	0.000248
  52	5.0745e+00	2.0213	5.724658	0.000395	3.953147	1.339363	0.000158
  53	5.1740e+00	2.0679	5.942664	0.000547	5.473588	1.854502	0.000219
  54	5.2735e+00	2.1112	6.124335	0.000456	4.561324	1.545418	0.000183
  55	5.3730e+00	2.1352	6.334266	0.000527	5.270863	1.785817	0.000211
  56	5.4725e+00	2.1882	6.536123	0.000507	5.068137	1.717131	0.000203
  57	5.5720e+00	2.2170	6.717794	0.000456	4.561324	1.545418	0.000183
  58	5.6715e+00	2.2556	6.927725	0.000527	5.270863	1.785817	0.000211
  59	5.7710e+00	2.3053	7.085173	0.000395	3.953147	1.339363	0.000158
  60	5.8705e+00	2.3486	7.327401	0.000608	6.081765	2.060558	0.000243
  61	5.9700e+00	2.3839	7.541370	0.000537	5.372226	1.820159	0.000215
  62	6.0695e+00	2.4224	7.735152	0.000487	4.865412	1.648446	0.000195
  63	6.1690e+00	2.4673	7.920860	0.000466	4.662686	1.579761	0.000187
  64	6.2685e+00	2.5026	8.102531	0.000456	4.561324	1.545418	0.000183
  65	6.3680e+00	2.5395	8.312462	0.000527	5.270863	1.785817	0.000211
  66	6.4675e+00	2.5684	8.518356	0.000517	5.169500	1.751474	0.000207
  67	6.5670e+00	2.6197	8.708102	0.000476	4.764049	1.614104	0.000191
  68	6.6665e+00	2.6662	8.934181	0.000568	5.676314	1.923187	0.000227
  69	6.7660e+00	2.7047	9.103741	0.000426	4.257235	1.442390	0.000170
  70	6.8655e+00	2.7352	9.321746	0.000547	5.473588	1.854502	0.000219
  71	6.9650e+00	2.7817	9.511492	0.000476	4.764049	1.614104	0.000191
  72	7.0645e+00	2.8283	9.689126	0.000446	4.459961	1.511076	0.000179
  73	7.1640e+00	2.8603	9.890983	0.000507	5.068137	1.717131	0.000203
  74	7.2635e+00	2.9053	10.125136	0.000588	5.879039	1.991872	0.000235
  75	7.3630e+00	2.9454	10.266436	0.000355	3.547696	1.201992	0.000142
  76	7.4625e+00	2.9775	10.500590	0.000588	5.879039	1.991872	0.000235
  77	7.5620e+00	3.0240	10.690335	0.000476	4.764049	1.614104	0.000191
  78	7.6615e+00	3.0625	10.924489	0.000588	5.879039	1.991872	0.000235
  79	7.7610e+00	3.0978	11.122309	0.000497	4.966775	1.682789	0.000199
  80	7.8605e+00	3.1491	11.312054	0.000476	4.764049	1.614104	0.000191
  81	7.9600e+00	3.1796	11.501800	0.000476	4.764049	1.614104	0.000191
  82	8.0595e+00	3.2213	11.723842	0.000557	5.574951	1.888845	0.000223
  83	8.1590e+00	3.2614	11.941848	0.000547	5.473588	1.854502	0.000219
  84	8.2585e+00	3.3047	12.111407	0.000426	4.257235	1.442390	0.000170
  85	8.3580e+00	3.3320	12.321338	0.000527	5.270863	1.785817	0.000211
  86	8.4575e+00	3.3817	12.498972	0.000446	4.459961	1.511076	0.000179
  87	8.5570e+00	3.4202	12.680643	0.000456	4.561324	1.545418	0.000183
  88	8.6565e+00	3.4684	12.906723	0.000568	5.676314	1.923187	0.000227
  89	8.7560e+00	3.5020	13.108580	0.000507	5.068137	1.717131	0.000203
  90	8.8555e+00	3.5373	13.282177	0.000436	4.358598	1.476733	0.000174
  91	8.9550e+00	3.5790	13.504219	0.000557	5.574951	1.888845	0.000223
  92	9.0545e+00	3.6175	13.722224	0.000547	5.473588	1.854502	0.000219
  93	9.1540e+00	3.6641	13.932155	0.000527	5.270863	1.785817	0.000211
  94	9.2535e+00	3.6913	14.117864	0.000466	4.662686	1.579761	0.000187
  95	9.3530e+00	3.7282	14.291461	0.000436	4.358598	1.476733	0.000174
  96	9.4525e+00	3.7780	14.541763	0.000628	6.284490	2.129243	0.000252
  97	9.5520e+00	3.8181	14.703248	0.000405	4.054510	1.373705	0.000162
  98	9.6515e+00	3.8470	14.897031	0.000487	4.865412	1.648446	0.000195
  99	9.7510e+00	3.8951	15.086776	0.000476	4.764049	1.614104	0.000191
 100	9.8505e+00	3.9320	15.316893	0.000578	5.777677	1.957530	0.000231
 101	9.9500e+00	3.9769	15.514713	0.000497	4.966775	1.682789	0.000199
 102	1.0050e+01	4.0138	15.688309	0.000436	4.358598	1.476733	0.000174
 103	1.0149e+01	4.0571	15.938612	0.000628	6.284490	2.129243	0.000252
 104	1.0248e+01	4.0908	16.124320	0.000466	4.662686	1.579761	0.000187
 105	1.0348e+01	4.1453	16.318103	0.000487	4.865412	1.648446	0.000195
 106	1.0447e+01	4.1662	16.523997	0.000517	5.169500	1.751474	0.000207
 107	1.0547e+01	4.2159	16.725853	0.000507	5.068137	1.717131	0.000203
 108	1.0646e+01	4.2624	16.887339	0.000405	4.054510	1.373705	0.000162
 109	1.0746e+01	4.2945	17.125530	0.000598	5.980402	2.026215	0.000239
 110	1.0845e+01	4.3394	17.335461	0.000527	5.270863	1.785817	0.000211
 111	1.0945e+01	4.3699	17.529243	0.000487	4.865412	1.648446	0.000195
 112	1.1044e+01	4.4197	17.735137	0.000517	5.169500	1.751474	0.000207
 113	1.1144e+01	4.4469	17.932957	0.000497	4.966775	1.682789	0.000199
 114	1.1243e+01	4.4919	18.122702	0.000476	4.764049	1.614104	0.000191
 115	1.1343e+01	4.5336	18.381079	0.000649	6.487216	2.197928	0.000260
 116	1.1443e+01	4.5817	18.566787	0.000466	4.662686	1.579761	0.000187
 117	1.1542e+01	4.6074	18.736347	0.000426	4.257235	1.442390	0.000170
 118	1.1642e+01	4.6571	18.962427	0.000568	5.676314	1.923187	0.000227
 119	1.1741e+01	4.6795	19.172358	0.000527	5.270863	1.785817	0.000211
 120	1.1841e+01	4.7245	19.390363	0.000547	5.473588	1.854502	0.000219
 121	1.1940e+01	4.7726	19.527626	0.000345	3.446333	1.167649	0.000138
 122	1.2040e+01	4.8111	19.745631	0.000547	5.473588	1.854502	0.000219
 123	1.2139e+01	4.8496	19.995933	0.000628	6.284490	2.129243	0.000252
 124	1.2239e+01	4.8945	20.137233	0.000355	3.547696	1.201992	0.000142
 125	1.2338e+01	4.9330	20.347164	0.000527	5.270863	1.785817	0.000211
 126	1.2438e+01	4.9811	20.536909	0.000476	4.764049	1.614104	0.000191
 127	1.2537e+01	5.0100	20.807398	0.000679	6.791304	2.300956	0.000272
 128	1.2636e+01	5.0533	21.009254	0.000507	5.068137	1.717131	0.000203
 129	1.2736e+01	5.0870	21.162666	0.000385	3.851784	1.305020	0.000154
 130	1.2835e+01	5.1368	21.352411	0.000476	4.764049	1.614104	0.000191
 131	1.2935e+01	5.1704	21.574453	0.000557	5.574951	1.888845	0.000223
 132	1.3034e+01	5.2122	21.784384	0.000527	5.270863	1.785817	0.000211
 133	1.3134e+01	5.2635	22.006427	0.000557	5.574951	1.888845	0.000223
 134	1.3233e+01	5.2876	22.155801	0.000375	3.750422	1.270677	0.000150
 135	1.3333e+01	5.3325	22.361695	0.000517	5.169500	1.751474	0.000207
 136	1.3432e+01	5.3742	22.571626	0.000527	5.270863	1.785817	0.000211
 137	1.3532e+01	5.4111	22.801743	0.000578	5.777677	1.957530	0.000231
 138	1.3632e+01	5.4496	22.987451	0.000466	4.662686	1.579761	0.000187
 139	1.3731e+01	5.4897	23.169122	0.000456	4.561324	1.545418	0.000183
 140	1.3831e+01	5.5362	23.399239	0.000578	5.777677	1.957530	0.000231
 141	1.3930e+01	5.5795	23.601096	0.000507	5.068137	1.717131	0.000203
 142	1.4030e+01	5.6068	23.782767	0.000456	4.561324	1.545418	0.000183
 143	1.4129e+01	5.6581	23.996735	0.000537	5.372226	1.820159	0.000215
 144	1.4229e+01	5.6966	24.218777	0.000557	5.574951	1.888845	0.000223
 145	1.4328e+01	5.7367	24.392374	0.000436	4.358598	1.476733	0.000174
 146	1.4428e+01	5.7672	24.606342	0.000537	5.372226	1.820159	0.000215
 147	1.4527e+01	5.8153	24.848570	0.000608	6.081765	2.060558	0.000243
 148	1.4627e+01	5.8587	25.042353	0.000487	4.865412	1.648446	0.000195
 149	1.4726e+01	5.8811	25.256321	0.000537	5.372226	1.820159	0.000215
 150	1.4825e+01	5.9276	25.450104	0.000487	4.865412	1.648446	0.000195
 151	1.4925e+01	5.9645	25.647923	0.000497	4.966775	1.682789	0.000199
 152	1.5024e+01	6.0095	25.805372	0.000395	3.953147	1.339363	0.000158
 153	1.5124e+01	6.0447	26.019340	0.000537	5.372226	1.820159	0.000215
 154	1.5223e+01	6.0865	26.225234	0.000517	5.169500	1.751474	0.000207
 155	1.5323e+01	6.1362	26.455350	0.000578	5.777677	1.957530	0.000231
 156	1.5422e+01	6.1667	26.628947	0.000436	4.358598	1.476733	0.000174
 157	1.5522e+01	6.2116	26.863101	0.000588	5.879039	1.991872	0.000235
 158	1.5621e+01	6.2453	27.081107	0.000547	5.473588	1.854502	0.000219
 159	1.5721e+01	6.2870	27.266815	0.000466	4.662686	1.579761	0.000187
 160	1.5820e+01	6.3239	27.480783	0.000537	5.372226	1.820159	0.000215
 161	1.5920e+01	6.3672	27.702825	0.000557	5.574951	1.888845	0.000223
 162	1.6020e+01	6.4121	27.896608	0.000487	4.865412	1.648446	0.000195
 163	1.6119e+01	6.4474	28.054056	0.000395	3.953147	1.339363	0.000158
 164	1.6218e+01	6.4795	28.316470	0.000659	6.588579	2.232271	0.000264
 165	1.6318e+01	6.5244	28.477955	0.000405	4.054510	1.373705	0.000162
 166	1.6418e+01	6.5741	28.683849	0.000517	5.169500	1.751474	0.000207
 167	1.6517e+01	6.6014	28.918003	0.000588	5.879039	1.991872	0.000235
 168	1.6616e+01	6.6479	29.119860	0.000507	5.068137	1.717131	0.000203
 169	1.6716e+01	6.6800	29.293457	0.000436	4.358598	1.476733	0.000174
 170	1.6816e+01	6.7233	29.572019	0.000699	6.994030	2.369641	0.000280
 171	1.6915e+01	6.7731	29.729468	0.000395	3.953147	1.339363	0.000158
 172	1.7015e+01	6.8052	29.939399	0.000527	5.270863	1.785817	0.000211
 173	1.7114e+01	6.8453	30.129144	0.000476	4.764049	1.614104	0.000191
 174	1.7213e+01	6.8854	30.355224	0.000568	5.676314	1.923187	0.000227
 175	1.7313e+01	6.9207	30.565155	0.000527	5.270863	1.785817	0.000211
 176	1.7413e+01	6.9720	30.799309	0.000588	5.879039	1.991872	0.000235
 177	1.7512e+01	7.0057	30.964831	0.000416	4.155873	1.408048	0.000166
 178	1.7611e+01	7.0346	31.174762	0.000527	5.270863	1.785817	0.000211
 179	1.7711e+01	7.0763	31.396805	0.000557	5.574951	1.888845	0.000223
 180	1.7811e+01	7.1260	31.626921	0.000578	5.777677	1.957530	0.000231
 181	1.7910e+01	7.1597	31.796481	0.000426	4.257235	1.442390	0.000170
 182	1.8009e+01	7.2142	32.002375	0.000517	5.169500	1.751474	0.000207
 183	1.8109e+01	7.2399	32.192120	0.000476	4.764049	1.614104	0.000191
 184	1.8209e+01	7.2800	32.414163	0.000557	5.574951	1.888845	0.000223
 185	1.8308e+01	7.3265	32.636205	0.000557	5.574951	1.888845	0.000223
 186	1.8407e+01	7.3618	32.825951	0.000476	4.764049	1.614104	0.000191
 187	1.8507e+01	7.3939	33.047993	0.000557	5.574951	1.888845	0.000223
 188	1.8607e+01	7.4501	33.233701	0.000466	4.662686	1.579761	0.000187
 189	1.8706e+01	7.4805	33.451707	0.000547	5.473588	1.854502	0.000219
 190	1.8805e+01	7.5239	33.649526	0.000497	4.966775	1.682789	0.000199
 191	1.8905e+01	7.5527	33.875606	0.000568	5.676314	1.923187	0.000227
 192	1.9005e+01	7.6041	34.069388	0.000487	4.865412	1.648446	0.000195
 193	1.9104e+01	7.6394	34.283357	0.000537	5.372226	1.820159	0.000215
 194	1.9203e+01	7.6827	34.505399	0.000557	5.574951	1.888845	0.000223
 195	1.9303e+01	7.7228	34.711293	0.000517	5.169500	1.751474	0.000207
 196	1.9402e+01	7.7677	34.876816	0.000416	4.155873	1.408048	0.000166
 197	1.9502e+01	7.7982	35.119044	0.000608	6.081765	2.060558	0.000243
 198	1.9602e+01	7.8399	35.337049	0.000547	5.473588	1.854502	0.000219
 199	1.9701e+01	7.8704	35.526794	0.000476	4.764049	1.614104	0.000191
 200	1.9800e+01	7.9281	35.712503	0.000466	4.662686	1.579761	0.000187
 201	1.9900e+01	7.9650	35.938582	0.000568	5.676314	1.923187	0.000227
 202	2.0000e+01	8.0003	36.136402	0.000497	4.966775	1.682789	0.000199
 203	2.0099e+01	8.0404	36.382667	0.000618	6.183128	2.094900	0.000248
 204	2.0198e+01	8.0853	36.564338	0.000456	4.561324	1.545418	0.000183
 205	2.0298e+01	8.1222	36.794455	0.000578	5.777677	1.957530	0.000231
 206	2.0398e+01	8.1511	37.004386	0.000527	5.270863	1.785817	0.000211
 207	2.0497e+01	8.1960	37.222392	0.000547	5.473588	1.854502	0.000219
 208	2.0596e+01	8.2377	37.416174	0.000487	4.865412	1.648446	0.000195
 209	2.0696e+01	8.2714	37.597845	0.000456	4.561324	1.545418	0.000183
 210	2.0796e+01	8.3179	37.807776	0.000527	5.270863	1.785817	0.000211
 211	2.0895e+01	8.3516	38.054041	0.000618	6.183128	2.094900	0.000248
 212	2.0994e+01	8.4046	38.243787	0.000476	4.764049	1.614104	0.000191
 213	2.1094e+01	8.4351	38.445644	0.000507	5.068137	1.717131	0.000203
 214	2.1194e+01	8.4768	38.647500	0.000507	5.068137	1.717131	0.000203
 215	2.1293e+01	8.5265	38.877617	0.000578	5.777677	1.957530	0.000231
 216	2.1392e+01	8.5570	39.047177	0.000426	4.257235	1.442390	0.000170
 217	2.1492e+01	8.6003	39.281331	0.000588	5.879039	1.991872	0.000235
 218	2.1591e+01	8.6420	39.495299	0.000537	5.372226	1.820159	0.000215
 219	2.1691e+01	8.6805	39.697156	0.000507	5.068137	1.717131	0.000203
 220	2.1791e+01	8.7238	39.911124	0.000537	5.372226	1.820159	0.000215
 221	2.1890e+01	8.7543	40.133166	0.000557	5.574951	1.888845	0.000223
 222	2.1989e+01	8.8056	40.306763	0.000436	4.358598	1.476733	0.000174
 223	2.2089e+01	8.8441	40.540917	0.000588	5.879039	1.991872	0.000235
 224	2.2189e+01	8.8778	40.750848	0.000527	5.270863	1.785817	0.000211
 225	2.2288e+01	8.9308	40.968853	0.000547	5.473588	1.854502	0.000219
 226	2.2387e+01	8.9564	41.138413	0.000426	4.257235	1.442390	0.000170
 227	2.2487e+01	8.9981	41.352381	0.000537	5.372226	1.820159	0.000215
 228	2.2587e+01	9.0350	41.590572	0.000598	5.980402	2.026215	0.000239
 229	2.2686e+01	9.0735	41.776281	0.000466	4.662686	1.579761	0.000187
 230	2.2785e+01	9.1088	41.998323	0.000557	5.574951	1.888845	0.000223
 231	2.2885e+01	9.1441	42.200180	0.000507	5.068137	1.717131	0.000203
 232	2.2985e+01	9.1971	42.406074	0.000517	5.169500	1.751474	0.000207
 233	2.3084e+01	9.2404	42.607931	0.000507	5.068137	1.717131	0.000203
 234	2.3183e+01	9.2789	42.834010	0.000568	5.676314	1.923187	0.000227
 235	2.3283e+01	9.3110	43.039904	0.000517	5.169500	1.751474	0.000207
 236	2.3383e+01	9.3575	43.241761	0.000507	5.068137	1.717131	0.000203
 237	2.3482e+01	9.4008	43.439581	0.000497	4.966775	1.682789	0.000199
 238	2.3581e+01	9.4313	43.653549	0.000537	5.372226	1.820159	0.000215
 239	2.3681e+01	9.4730	43.875591	0.000557	5.574951	1.888845	0.000223
 240	2.3780e+01	9.5083	44.053225	0.000446	4.459961	1.511076	0.000179
 241	2.3880e+01	9.5516	44.291416	0.000598	5.980402	2.026215	0.000239
 242	2.3980e+01	9.5981	44.493273	0.000507	5.068137	1.717131	0.000203
 243	2.4079e+01	9.6350	44.678981	0.000466	4.662686	1.579761	0.000187
 244	2.4178e+01	9.6687	44.892949	0.000537	5.372226	1.820159	0.000215
 245	2.4278e+01	9.7184	45.131140	0.000598	5.980402	2.026215	0.000239
 246	2.4378e+01	9.7521	45.300700	0.000426	4.257235	1.442390	0.000170
 247	2.4477e+01	9.7922	45.506594	0.000517	5.169500	1.751474	0.000207
 248	2.4576e+01	9.8339	45.700377	0.000487	4.865412	1.648446	0.000195
 249	2.4676e+01	9.8676	45.890122	0.000476	4.764049	1.614104	0.000191
 250	2.4776e+01	9.9174	46.104090	0.000537	5.372226	1.820159	0.000215
 251	2.4875e+01	9.9607	46.346318	0.000608	6.081765	2.060558	0.000243
 252	2.4974e+01	9.9960	46.503767	0.000395	3.953147	1.339363	0.000158
 253	2.5074e+01	10.0329	46.745995	0.000608	6.081765	2.060558	0.000243
 254	2.5174e+01	10.0698	46.903443	0.000395	3.953147	1.339363	0.000158
 255	2.5273e+01	10.1099	47.169894	0.000669	6.689941	2.266613	0.000268
 256	2.5372e+01	10.1532	47.379825	0.000527	5.270863	1.785817	0.000211
 257	2.5472e+01	10.1901	47.541310	0.000405	4.054510	1.373705	0.000162
 258	2.5572e+01	10.2334	47.727019	0.000466	4.662686	1.579761	0.000187
 259	2.5671e+01	10.2751	47.932913	0.000517	5.169500	1.751474	0.000207
 260	2.5770e+01	10.3200	48.158992	0.000568	5.676314	1.923187	0.000227
 261	2.5870e+01	10.3505	48.344700	0.000466	4.662686	1.579761	0.000187
 262	2.5970e+01	10.3874	48.574817	0.000578	5.777677	1.957530	0.000231
 263	2.6069e+01	10.4307	48.780711	0.000517	5.169500	1.751474	0.000207
 264	2.6169e+01	10.4740	48.986605	0.000517	5.169500	1.751474	0.000207
 265	2.6268e+01	10.5061	49.200573	0.000537	5.372226	1.820159	0.000215
 266	2.6367e+01	10.5430	49.358022	0.000395	3.953147	1.339363	0.000158
 267	2.6467e+01	10.5927	49.543730	0.000466	4.662686	1.579761	0.000187
 268	2.6567e+01	10.6296	49.781921	0.000598	5.980402	2.026215	0.000239
 269	2.6666e+01	10.6681	49.991852	0.000527	5.270863	1.785817	0.000211
 270	2.6765e+01	10.7179	50.185634	0.000487	4.865412	1.648446	0.000195
 271	2.6865e+01	10.7419	50.375380	0.000476	4.764049	1.614104	0.000191
 272	2.6965e+01	10.7885	50.557051	0.000456	4.561324	1.545418	0.000183
 273	2.7064e+01	10.8350	50.779093	0.000557	5.574951	1.888845	0.000223
 274	2.7163e+01	10.8687	51.009210	0.000578	5.777677	1.957530	0.000231
 275	2.7263e+01	10.9040	51.178770	0.000426	4.257235	1.442390	0.000170
 276	2.7363e+01	10.9425	51.368515	0.000476	4.764049	1.614104	0.000191
 277	2.7462e+01	10.9922	51.610743	0.000608	6.081765	2.060558	0.000243
 278	2.7561e+01	11.0339	51.804526	0.000487	4.865412	1.648446	0.000195
 279	2.7661e+01	11.0724	51.982160	0.000446	4.459961	1.511076	0.000179
 280	2.7761e+01	11.1125	52.220351	0.000598	5.980402	2.026215	0.000239
 281	2.7860e+01	11.1510	52.402022	0.000456	4.561324	1.545418	0.000183
 282	2.7959e+01	11.1879	52.603879	0.000507	5.068137	1.717131	0.000203
 283	2.8059e+01	11.2264	52.821884	0.000547	5.473588	1.854502	0.000219
 284	2.8159e+01	11.2762	52.995481	0.000436	4.358598	1.476733	0.000174
 285	2.8258e+01	11.3066	53.209449	0.000537	5.372226	1.820159	0.000215
 286	2.8358e+01	11.3499	53.419380	0.000527	5.270863	1.785817	0.000211
 287	2.8457e+01	11.3820	53.621237	0.000507	5.068137	1.717131	0.000203
 288	2.8556e+01	11.4318	53.819057	0.000497	4.966775	1.682789	0.000199
 289	2.8656e+01	11.4687	53.972468	0.000385	3.851784	1.305020	0.000154
 290	2.8756e+01	11.5056	54.178362	0.000517	5.169500	1.751474	0.000207
 291	2.8855e+01	11.5473	54.392330	0.000537	5.372226	1.820159	0.000215
 292	2.8954e+01	11.5874	54.610335	0.000547	5.473588	1.854502	0.000219
 293	2.9054e+01	11.6195	54.767783	0.000395	3.953147	1.339363	0.000158
 294	2.9154e+01	11.6596	54.997900	0.000578	5.777677	1.957530	0.000231
 295	2.9253e+01	11.7061	55.187646	0.000476	4.764049	1.614104	0.000191
 296	2.9352e+01	11.7462	55.413725	0.000568	5.676314	1.923187	0.000227
 297	2.9452e+01	11.7703	55.611545	0.000497	4.966775	1.682789	0.000199
 298	2.9552e+01	11.8232	55.785142	0.000436	4.358598	1.476733	0.000174
 299	2.9651e+01	11.8633	55.950664	0.000416	4.155873	1.408048	0.000166
 300	2.9750e+01	11.9002	56.164632	0.000537	5.372226	1.820159	0.000215
 301	2.9850e+01	11.9451	56.382638	0.000547	5.473588	1.854502	0.000219
 302	2.9950e+01	11.9804	56.588532	0.000517	5.169500	1.751474	0.000207
 303	3.0049e+01	12.0221	56.810574	0.000557	5.574951	1.888845	0.000223
 304	3.0148e+01	12.0638	57.000319	0.000476	4.764049	1.614104	0.000191
 305	3.0248e+01	12.0975	57.173916	0.000436	4.358598	1.476733	0.000174
 306	3.0348e+01	12.1553	57.395959	0.000557	5.574951	1.888845	0.000223
 307	3.0447e+01	12.1890	57.557444	0.000405	4.054510	1.373705	0.000162
 308	3.0547e+01	12.2210	57.791598	0.000588	5.879039	1.991872	0.000235
 309	3.0646e+01	12.2531	57.989418	0.000497	4.966775	1.682789	0.000199
 310	3.0745e+01	12.2980	58.138792	0.000375	3.750422	1.270677	0.000150
 311	3.0845e+01	12.3366	58.368909	0.000578	5.777677	1.957530	0.000231
 312	3.0945e+01	12.3895	58.574802	0.000517	5.169500	1.751474	0.000207
 313	3.1044e+01	12.4232	58.764548	0.000476	4.764049	1.614104	0.000191
 314	3.1143e+01	12.4617	58.930070	0.000416	4.155873	1.408048	0.000166
 315	3.1243e+01	12.5066	59.196521	0.000669	6.689941	2.266613	0.000268
 316	3.1343e+01	12.5499	59.370118	0.000436	4.358598	1.476733	0.000174
 317	3.1442e+01	12.5852	59.563901	0.000487	4.865412	1.648446	0.000195
 318	3.1541e+01	12.6157	59.773832	0.000527	5.270863	1.785817	0.000211
 319	3.1641e+01	12.6590	59.963577	0.000476	4.764049	1.614104	0.000191
 320	3.1741e+01	12.7119	60.197731	0.000588	5.879039	1.991872	0.000235
 321	3.1840e+01	12.7408	60.379402	0.000456	4.561324	1.545418	0.000183
 322	3.1939e+01	12.7857	60.552999	0.000436	4.358598	1.476733	0.000174
 323	3.2039e+01	12.8226	60.762930	0.000527	5.270863	1.785817	0.000211
 324	3.2139e+01	12.8708	60.972861	0.000527	5.270863	1.785817	0.000211
 325	3.2238e+01	12.8996	61.154532	0.000456	4.561324	1.545418	0.000183
 326	3.2337e+01	12.9365	61.332166	0.000446	4.459961	1.511076	0.000179
 327	3.2437e+01	12.9734	61.529986	0.000497	4.966775	1.682789	0.000199
 328	3.2536e+01	13.0151	61.715694	0.000466	4.662686	1.579761	0.000187
 329	3.2636e+01	13.0601	61.893328	0.000446	4.459961	1.511076	0.000179
 330	3.2736e+01	13.0986	62.131519	0.000598	5.980402	2.026215	0.000239
 331	3.2835e+01	13.1403	62.333376	0.000507	5.068137	1.717131	0.000203
 332	3.2934e+01	13.1724	62.502935	0.000426	4.257235	1.442390	0.000170
 333	3.3034e+01	13.2141	62.716904	0.000537	5.372226	1.820159	0.000215
 334	3.3133e+01	13.2542	62.902612	0.000466	4.662686	1.579761	0.000187
 335	3.3233e+01	13.3039	63.140803	0.000598	5.980402	2.026215	0.000239
 336	3.3333e+01	13.3312	63.322474	0.000456	4.561324	1.545418	0.000183
 337	3.3432e+01	13.3809	63.536442	0.000537	5.372226	1.820159	0.000215
 338	3.3532e+01	13.4178	63.701965	0.000416	4.155873	1.408048	0.000166
 339	3.3631e+01	13.4643	63.903822	0.000507	5.068137	1.717131	0.000203
 340	3.3730e+01	13.4996	64.117790	0.000537	5.372226	1.820159	0.000215
 341	3.3830e+01	13.5301	64.323684	0.000517	5.169500	1.751474	0.000207
 342	3.3929e+01	13.5846	64.521503	0.000497	4.966775	1.682789	0.000199
 343	3.4029e+01	13.6151	64.727397	0.000517	5.169500	1.751474	0.000207
 344	3.4129e+01	13.6552	64.933291	0.000517	5.169500	1.751474	0.000207
 345	3.4228e+01	13.6953	65.098814	0.000416	4.155873	1.408048	0.000166
 346	3.4328e+01	13.7354	65.320856	0.000557	5.574951	1.888845	0.000223
 347	3.4427e+01	13.7772	65.518676	0.000497	4.966775	1.682789	0.000199
 348	3.4526e+01	13.8124	65.688236	0.000426	4.257235	1.442390	0.000170
 349	3.4626e+01	13.8622	65.906241	0.000547	5.473588	1.854502	0.000219
 350	3.4725e+01	13.8943	66.095986	0.000476	4.764049	1.614104	0.000191
 351	3.4825e+01	13.9408	66.293806	0.000497	4.966775	1.682789	0.000199
 352	3.4925e+01	13.9761	66.540071	0.000618	6.183128	2.094900	0.000248
 353	3.5024e+01	14.0146	66.701557	0.000405	4.054510	1.373705	0.000162
 354	3.5123e+01	14.0547	66.931673	0.000578	5.777677	1.957530	0.000231
 355	3.5223e+01	14.0932	67.125456	0.000487	4.865412	1.648446	0.000195
 356	3.5322e+01	14.1397	67.315201	0.000476	4.764049	1.614104	0.000191
 357	3.5422e+01	14.1766	67.517058	0.000507	5.068137	1.717131	0.000203
 358	3.5522e+01	14.2103	67.706803	0.000476	4.764049	1.614104	0.000191
 359	3.5621e+01	14.2536	67.912697	0.000517	5.169500	1.751474	0.000207
 360	3.5721e+01	14.2857	68.094368	0.000456	4.561324	1.545418	0.000183
 361	3.5820e+01	14.3306	68.308337	0.000537	5.372226	1.820159	0.000215
 362	3.5919e+01	14.3723	68.506156	0.000497	4.966775	1.682789	0.000199
 363	3.6019e+01	14.4188	68.708013	0.000507	5.068137	1.717131	0.000203
 364	3.6118e+01	14.4557	68.917944	0.000527	5.270863	1.785817	0.000211
 365	3.6218e+01	14.5023	69.119801	0.000507	5.068137	1.717131	0.000203
 366	3.6318e+01	14.5343	69.313583	0.000487	4.865412	1.648446	0.000195
 367	3.6417e+01	14.5745	69.551774	0.000598	5.980402	2.026215	0.000239
 368	3.6517e+01	14.6097	69.705186	0.000385	3.851784	1.305020	0.000154
 369	3.6616e+01	14.6434	69.907042	0.000507	5.068137	1.717131	0.000203
 370	3.6715e+01	14.6996	70.121011	0.000537	5.372226	1.820159	0.000215
 371	3.6815e+01	14.7236	70.334979	0.000537	5.372226	1.820159	0.000215
 372	3.6914e+01	14.7670	70.508576	0.000436	4.358598	1.476733	0.000174
 373	3.7014e+01	14.8055	70.726581	0.000547	5.473588	1.854502	0.000219
 374	3.7114e+01	14.8472	70.916326	0.000476	4.764049	1.614104	0.000191
 375	3.7213e+01	14.8873	71.130295	0.000537	5.372226	1.820159	0.000215
 376	3.7313e+01	14.9402	71.299854	0.000426	4.257235	1.442390	0.000170
 377	3.7412e+01	14.9691	71.546120	0.000618	6.183128	2.094900	0.000248
 378	3.7511e+01	15.0076	71.711642	0.000416	4.155873	1.408048	0.000166
 379	3.7611e+01	15.0461	71.905425	0.000487	4.865412	1.648446	0.000195
 380	3.7711e+01	15.0830	72.107281	0.000507	5.068137	1.717131	0.000203
 381	3.7810e+01	15.1279	72.292990	0.000466	4.662686	1.579761	0.000187
 382	3.7910e+01	15.1664	72.510995	0.000547	5.473588	1.854502	0.000219
 383	3.8009e+01	15.2081	72.729000	0.000547	5.473588	1.854502	0.000219
 384	3.8108e+01	15.2563	72.926820	0.000497	4.966775	1.682789	0.000199
 385	3.8208e+01	15.2851	73.120602	0.000487	4.865412	1.648446	0.000195
 386	3.8307e+01	15.3300	73.286125	0.000416	4.155873	1.408048	0.000166
 387	3.8407e+01	15.3782	73.540465	0.000639	6.385853	2.163586	0.000256
 388	3.8507e+01	15.4135	73.697913	0.000395	3.953147	1.339363	0.000158
 389	3.8606e+01	15.4584	73.915918	0.000547	5.473588	1.854502	0.000219
 390	3.8706e+01	15.4937	74.137961	0.000557	5.574951	1.888845	0.000223
 391	3.8805e+01	15.5258	74.319632	0.000456	4.561324	1.545418	0.000183
 392	3.8904e+01	15.5723	74.525526	0.000517	5.169500	1.751474	0.000207
 393	3.9004e+01	15.6076	74.715271	0.000476	4.764049	1.614104	0.000191
 394	3.9103e+01	15.6493	74.905016	0.000476	4.764049	1.614104	0.000191
 395	3.9203e+01	15.6942	75.123022	0.000547	5.473588	1.854502	0.000219
 396	3.9303e+01	15.7279	75.296619	0.000436	4.358598	1.476733	0.000174
 397	3.9402e+01	15.7648	75.514624	0.000547	5.473588	1.854502	0.000219
 398	3.9502e+01	15.8049	75.724555	0.000527	5.270863	1.785817	0.000211
 399	3.9601e+01	15.8466	75.898152	0.000436	4.358598	1.476733	0.000174
 400	3.9700e+01	15.8931	76.116157	0.000547	5.473588	1.854502	0.000219
 401	3.9800e+01	15.9300	76.318014	0.000507	5.068137	1.717131	0.000203
 402	3.9900e+01	15.9717	76.503722	0.000466	4.662686	1.579761	0.000187
 403	3.9999e+01	16.0151	76.737876	0.000588	5.879039	1.991872	0.000235
 404	4.0099e+01	16.0471	76.923584	0.000466	4.662686	1.579761	0.000187
 405	4.0198e+01	16.0808	77.109293	0.000466	4.662686	1.579761	0.000187
 406	4.0297e+01	16.1225	77.311149	0.000507	5.068137	1.717131	0.000203
 407	4.0397e+01	16.1594	77.533192	0.000557	5.574951	1.888845	0.000223
 408	4.0496e+01	16.2092	77.670454	0.000345	3.446333	1.167649	0.000138
 409	4.0596e+01	16.2413	77.944980	0.000689	6.892667	2.335299	0.000276
 410	4.0696e+01	16.2782	78.082242	0.000345	3.446333	1.167649	0.000138
 411	4.0795e+01	16.3311	78.324470	0.000608	6.081765	2.060558	0.000243
 412	4.0895e+01	16.3616	78.498067	0.000436	4.358598	1.476733	0.000174
 413	4.0994e+01	16.3969	78.712035	0.000537	5.372226	1.820159	0.000215
 414	4.1093e+01	16.4418	78.897744	0.000466	4.662686	1.579761	0.000187
 415	4.1193e+01	16.4787	79.071341	0.000436	4.358598	1.476733	0.000174
 416	4.1292e+01	16.5268	79.277234	0.000517	5.169500	1.751474	0.000207
 417	4.1392e+01	16.5669	79.450831	0.000436	4.358598	1.476733	0.000174
 418	4.1492e+01	16.6070	79.660762	0.000527	5.270863	1.785817	0.000211
 419	4.1591e+01	16.6471	79.890879	0.000578	5.777677	1.957530	0.000231
 420	4.1691e+01	16.6792	80.044290	0.000385	3.851784	1.305020	0.000154
 421	4.1790e+01	16.7193	80.201739	0.000395	3.953147	1.339363	0.000158
 422	4.1889e+01	16.7723	80.472227	0.000679	6.791304	2.300956	0.000272
 423	4.1989e+01	16.8059	80.649861	0.000446	4.459961	1.511076	0.000179
 424	4.2089e+01	16.8509	80.884015	0.000588	5.879039	1.991872	0.000235
 425	4.2188e+01	16.8846	81.069723	0.000466	4.662686	1.579761	0.000187
 426	4.2288e+01	16.9327	81.243320	0.000436	4.358598	1.476733	0.000174
 427	4.2387e+01	16.9648	81.416916	0.000436	4.358598	1.476733	0.000174
 428	4.2486e+01	17.0033	81.618773	0.000507	5.068137	1.717131	0.000203
 429	4.2586e+01	17.0434	81.776222	0.000395	3.953147	1.339363	0.000158
 430	4.2685e+01	17.0835	82.010375	0.000588	5.879039	1.991872	0.000235
 431	4.2785e+01	17.1236	82.188009	0.000446	4.459961	1.511076	0.000179
 432	4.2885e+01	17.1717	82.401978	0.000537	5.372226	1.820159	0.000215
 433	4.2984e+01	17.2054	82.619983	0.000547	5.473588	1.854502	0.000219
 434	4.3084e+01	17.2423	82.801654	0.000456	4.561324	1.545418	0.000183
 435	4.3183e+01	17.2856	82.971214	0.000426	4.257235	1.442390	0.000170
 436	4.3282e+01	17.3257	83.185182	0.000537	5.372226	1.820159	0.000215
 437	4.3382e+01	17.3578	83.407224	0.000557	5.574951	1.888845	0.000223
 438	4.3481e+01	17.3979	83.560636	0.000385	3.851784	1.305020	0.000154
 439	4.3581e+01	17.4508	83.750381	0.000476	4.764049	1.614104	0.000191
 440	4.3681e+01	17.4829	83.964349	0.000537	5.372226	1.820159	0.000215
 441	4.3780e+01	17.5198	84.141983	0.000446	4.459961	1.511076	0.000179
 442	4.3880e+01	17.5631	84.303468	0.000405	4.054510	1.373705	0.000162
 443	4.3979e+01	17.6081	84.517437	0.000537	5.372226	1.820159	0.000215
 444	4.4078e+01	17.6385	84.727368	0.000527	5.270863	1.785817	0.000211
 445	4.4178e+01	17.6770	84.896927	0.000426	4.257235	1.442390	0.000170
 446	4.4278e+01	17.7123	85.090710	0.000487	4.865412	1.648446	0.000195
 447	4.4377e+01	17.7621	85.300641	0.000527	5.270863	1.785817	0.000211
 448	4.4477e+01	17.7909	85.458089	0.000395	3.953147	1.339363	0.000158
 449	4.4576e+01	17.8439	85.696280	0.000598	5.980402	2.026215	0.000239
 450	4.4675e+01	17.8808	85.837580	0.000355	3.547696	1.201992	0.000142
 451	4.4775e+01	17.9209	86.055585	0.000547	5.473588	1.854502	0.000219
 452	4.4874e+01	17.9674	86.281665	0.000568	5.676314	1.923187	0.000227
 453	4.4974e+01	18.0011	86.463336	0.000456	4.561324	1.545418	0.000183
 454	4.5074e+01	18.0364	86.624822	0.000405	4.054510	1.373705	0.000162
 455	4.5173e+01	18.0813	86.826678	0.000507	5.068137	1.717131	0.000203
 456	4.5273e+01	18.1214	87.048721	0.000557	5.574951	1.888845	0.000223
 457	4.5372e+01	18.1599	87.190021	0.000355	3.547696	1.201992	0.000142
 458	4.5471e+01	18.1904	87.391877	0.000507	5.068137	1.717131	0.000203
 459	4.5571e+01	18.2449	87.565474	0.000436	4.358598	1.476733	0.000174
 460	4.5670e+01	18.2866	87.755220	0.000476	4.764049	1.614104	0.000191
 461	4.5770e+01	18.3203	87.973225	0.000547	5.473588	1.854502	0.000219
 462	4.5870e+01	18.3572	88.130673	0.000395	3.953147	1.339363	0.000158
 463	4.5969e+01	18.4006	88.336567	0.000517	5.169500	1.751474	0.000207
 464	4.6069e+01	18.4423	88.518238	0.000456	4.561324	1.545418	0.000183
 465	4.6168e+01	18.4776	88.736244	0.000547	5.473588	1.854502	0.000219
 466	4.6267e+01	18.5177	88.909840	0.000436	4.358598	1.476733	0.000174
 467	4.6367e+01	18.5578	89.091511	0.000456	4.561324	1.545418	0.000183
 468	4.6467e+01	18.6027	89.297405	0.000517	5.169500	1.751474	0.000207
 469	4.6566e+01	18.6316	89.458891	0.000405	4.054510	1.373705	0.000162
 470	4.6666e+01	18.6781	89.689008	0.000578	5.777677	1.957530	0.000231
 471	4.6765e+01	18.7118	89.830307	0.000355	3.547696	1.201992	0.000142
 472	4.6864e+01	18.7615	90.016016	0.000466	4.662686	1.579761	0.000187
 473	4.6964e+01	18.7968	90.213835	0.000497	4.966775	1.682789	0.000199
 474	4.7063e+01	18.8321	90.407618	0.000487	4.865412	1.648446	0.000195
 475	4.7163e+01	18.8674	90.597363	0.000476	4.764049	1.614104	0.000191
 476	4.7263e+01	18.9187	90.770960	0.000436	4.358598	1.476733	0.000174
 477	4.7362e+01	18.9588	90.976854	0.000517	5.169500	1.751474	0.000207
 478	4.7462e+01	19.0053	91.158525	0.000456	4.561324	1.545418	0.000183
 479	4.7561e+01	19.0310	91.336159	0.000446	4.459961	1.511076	0.000179
 480	4.7660e+01	19.0775	91.554164	0.000547	5.473588	1.854502	0.000219
 481	4.7760e+01	19.1160	91.715650	0.000405	4.054510	1.373705	0.000162
 482	4.7859e+01	19.1529	91.937692	0.000557	5.574951	1.888845	0.000223
 483	4.7959e+01	19.2059	92.115326	0.000446	4.459961	1.511076	0.000179
 484	4.8059e+01	19.2364	92.288923	0.000436	4.358598	1.476733	0.000174
 485	4.8158e+01	19.2765	92.494817	0.000517	5.169500	1.751474	0.000207
 486	4.8258e+01	19.3069	92.664377	0.000426	4.257235	1.442390	0.000170
 487	4.8357e+01	19.3535	92.846048	0.000456	4.561324	1.545418	0.000183
 488	4.8456e+01	19.3904	93.080202	0.000588	5.879039	1.991872	0.000235
 489	4.8556e+01	19.4401	93.233613	0.000385	3.851784	1.305020	0.000154
 490	4.8656e+01	19.4658	93.443544	0.000527	5.270863	1.785817	0.000211
 491	4.8755e+01	19.5107	93.637326	0.000487	4.865412	1.648446	0.000195
 492	4.8855e+01	19.5588	93.766515	0.000324	3.243608	1.098964	0.000130
 493	4.8954e+01	19.5925	93.960297	0.000487	4.865412	1.648446	0.000195
 494	4.9053e+01	19.6406	94.194451	0.000588	5.879039	1.991872	0.000235
 495	4.9153e+01	19.6647	94.359974	0.000416	4.155873	1.408048	0.000166
 496	4.9252e+01	19.7048	94.545682	0.000466	4.662686	1.579761	0.000187
 497	4.9352e+01	19.7449	94.723316	0.000446	4.459961	1.511076	0.000179
 498	4.9452e+01	19.7898	94.913061	0.000476	4.764049	1.614104	0.000191
 499	4.9551e+01	19.8315	95.078584	0.000416	4.155873	1.408048	0.000166
 500	4.9651e+01	19.8732	95.272366	0.000487	4.865412	1.648446	0.000195
 501	4.9750e+01	19.9085	95.482297	0.000527	5.270863	1.785817	0.000211
 502	4.9849e+01	19.9502	95.696266	0.000537	5.372226	1.820159	0.000215
 503	4.9949e+01	19.9887	95.833528	0.000345	3.446333	1.167649	0.000138
 504	5.0048e+01	19.9551	95.764897	0.000172	1.723167	0.583825	-0.000069
 505	5.0148e+01	19.9149	95.639746	0.000314	3.142245	1.064621	-0.000126
 506	5.0248e+01	19.8764	95.510557	0.000324	3.243608	1.098964	-0.000130
 507	5.0347e+01	19.8283	95.405592	0.000264	2.635431	0.892908	-0.000105
 508	5.0447e+01	19.7994	95.264292	0.000355	3.547696	1.201992	-0.000142
 509	5.0546e+01	19.7513	95.175475	0.000223	2.229980	0.755538	-0.000089
 510	5.0645e+01	19.7224	95.062435	0.000284	2.838157	0.961594	-0.000114
 511	5.0745e+01	19.6775	94.892876	0.000426	4.257235	1.442390	-0.000170
 512	5.0844e+01	19.6294	94.779836	0.000284	2.838157	0.961594	-0.000114
 513	5.0944e+01	19.5973	94.606239	0.000436	4.358598	1.476733	-0.000174
 514	5.1044e+01	19.5428	94.533570	0.000182	1.824529	0.618167	-0.000073
 515	5.1143e+01	19.5171	94.388234	0.000365	3.649059	1.236335	-0.000146
 516	5.1242e+01	19.4802	94.250971	0.000345	3.446333	1.167649	-0.000138
 517	5.1342e+01	19.4385	94.085448	0.000416	4.155873	1.408048	-0.000166
 518	5.1441e+01	19.3888	93.952223	0.000334	3.344971	1.133307	-0.000134
 519	5.1541e+01	19.3503	93.835146	0.000294	2.939520	0.995936	-0.000118
 520	5.1641e+01	19.3134	93.685772	0.000375	3.750422	1.270677	-0.000150
 521	5.1740e+01	19.2716	93.560621	0.000314	3.142245	1.064621	-0.000126
 522	5.1840e+01	19.2508	93.415284	0.000365	3.649059	1.236335	-0.000146
 523	5.1939e+01	19.1930	93.229576	0.000466	4.662686	1.579761	-0.000187
 524	5.2038e+01	19.1529	93.160944	0.000172	1.723167	0.583825	-0.000069
 525	5.2138e+01	19.1128	93.007533	0.000385	3.851784	1.305020	-0.000154
 526	5.2237e+01	19.0711	92.866233	0.000355	3.547696	1.201992	-0.000142
 527	5.2337e+01	19.0422	92.692637	0.000436	4.358598	1.476733	-0.000174
 528	5.2437e+01	18.9925	92.575560	0.000294	2.939520	0.995936	-0.000118
 529	5.2536e+01	18.9572	92.397926	0.000446	4.459961	1.511076	-0.000179
 530	5.2636e+01	18.9299	92.264700	0.000334	3.344971	1.133307	-0.000134
 531	5.2735e+01	18.8818	92.091103	0.000436	4.358598	1.476733	-0.000174
 532	5.2834e+01	18.8401	91.974026	0.000294	2.939520	0.995936	-0.000118
 533	5.2934e+01	18.7984	91.820615	0.000385	3.851784	1.305020	-0.000154
 534	5.3033e+01	18.7535	91.695464	0.000314	3.142245	1.064621	-0.000126
 535	5.3133e+01	18.7118	91.533979	0.000405	4.054510	1.373705	-0.000162
 536	5.3233e+01	18.6813	91.368456	0.000416	4.155873	1.408048	-0.000166
 537	5.3332e+01	18.6364	91.247342	0.000304	3.040882	1.030279	-0.000122
 538	5.3431e+01	18.6027	91.114116	0.000334	3.344971	1.133307	-0.000134
 539	5.3531e+01	18.5562	90.952631	0.000405	4.054510	1.373705	-0.000162
 540	5.3630e+01	18.5257	90.795183	0.000395	3.953147	1.339363	-0.000158
 541	5.3730e+01	18.4759	90.633697	0.000405	4.054510	1.373705	-0.000162
 542	5.3830e+01	18.4342	90.452026	0.000456	4.561324	1.545418	-0.000183
 543	5.3929e+01	18.3941	90.326875	0.000314	3.142245	1.064621	-0.000126
 544	5.4029e+01	18.3572	90.193650	0.000334	3.344971	1.133307	-0.000134
 545	5.4128e+01	18.3252	90.016016	0.000446	4.459961	1.511076	-0.000179
 546	5.4227e+01	18.2818	89.870679	0.000365	3.649059	1.236335	-0.000146
 547	5.4327e+01	18.2465	89.749565	0.000304	3.040882	1.030279	-0.000122
 548	5.4426e+01	18.2000	89.543671	0.000517	5.169500	1.751474	-0.000207
 549	5.4526e+01	18.1695	89.430631	0.000284	2.838157	0.961594	-0.000114
 550	5.4626e+01	18.1118	89.301443	0.000324	3.243608	1.098964	-0.000130
 551	5.4725e+01	18.0781	89.131883	0.000426	4.257235	1.442390	-0.000170
 552	5.4825e+01	18.0428	88.974435	0.000395	3.953147	1.339363	-0.000158
 553	5.4924e+01	17.9963	88.816986	0.000395	3.953147	1.339363	-0.000158
 554	5.5023e+01	17.9514	88.647427	0.000426	4.257235	1.442390	-0.000170
 555	5.5123e+01	17.9193	88.550535	0.000243	2.432706	0.824223	-0.000097
 556	5.5222e+01	17.8808	88.344641	0.000517	5.169500	1.751474	-0.000207
 557	5.5322e+01	17.8407	88.167007	0.000446	4.459961	1.511076	-0.000179
 558	5.5422e+01	17.7974	88.049930	0.000294	2.939520	0.995936	-0.000118
 559	5.5521e+01	17.7573	87.920742	0.000324	3.243608	1.098964	-0.000130
 560	5.5620e+01	17.7236	87.710811	0.000527	5.270863	1.785817	-0.000211
 561	5.5720e+01	17.6802	87.581623	0.000324	3.243608	1.098964	-0.000130
 562	5.5819e+01	17.6401	87.424174	0.000395	3.953147	1.339363	-0.000158
 563	5.5919e+01	17.5968	87.258652	0.000416	4.155873	1.408048	-0.000166
 564	5.6019e+01	17.5551	87.113315	0.000365	3.649059	1.236335	-0.000146
 565	5.6118e+01	17.5166	86.967978	0.000365	3.649059	1.236335	-0.000146
 566	5.6218e+01	17.4829	86.794381	0.000436	4.358598	1.476733	-0.000174
 567	5.6317e+01	17.4444	86.665193	0.000324	3.243608	1.098964	-0.000130
 568	5.6416e+01	17.3915	86.491596	0.000436	4.358598	1.476733	-0.000174
 569	5.6516e+01	17.3578	86.354333	0.000345	3.446333	1.167649	-0.000138
 570	5.6615e+01	17.3257	86.192848	0.000405	4.054510	1.373705	-0.000162
 571	5.6715e+01	17.2824	86.003103	0.000476	4.764049	1.614104	-0.000191
 572	5.6815e+01	17.2439	85.861803	0.000355	3.547696	1.201992	-0.000142
 573	5.6914e+01	17.2006	85.692243	0.000426	4.257235	1.442390	-0.000170
 574	5.7014e+01	17.1653	85.526721	0.000416	4.155873	1.408048	-0.000166
 575	5.7113e+01	17.1204	85.389458	0.000345	3.446333	1.167649	-0.000138
 576	5.7212e+01	17.0819	85.219898	0.000426	4.257235	1.442390	-0.000170
 577	5.7312e+01	17.0466	85.070524	0.000375	3.750422	1.270677	-0.000150
 578	5.7411e+01	16.9952	84.925187	0.000365	3.649059	1.236335	-0.000146
 579	5.7511e+01	16.9648	84.711219	0.000537	5.372226	1.820159	-0.000215
 580	5.7611e+01	16.9295	84.561845	0.000375	3.750422	1.270677	-0.000150
 581	5.7710e+01	16.8878	84.416508	0.000365	3.649059	1.236335	-0.000146
 582	5.7809e+01	16.8396	84.267134	0.000375	3.750422	1.270677	-0.000150
 583	5.7909e+01	16.8108	84.089500	0.000446	4.459961	1.511076	-0.000179
 584	5.8008e+01	16.7642	83.915903	0.000436	4.358598	1.476733	-0.000174
 585	5.8108e+01	16.7241	83.738269	0.000446	4.459961	1.511076	-0.000179
 586	5.8208e+01	16.6840	83.584858	0.000385	3.851784	1.305020	-0.000154
 587	5.8307e+01	16.6423	83.435484	0.000375	3.750422	1.270677	-0.000150
 588	5.8407e+01	16.6070	83.257850	0.000446	4.459961	1.511076	-0.000179
 589	5.8506e+01	16.5621	83.096365	0.000405	4.054510	1.373705	-0.000162
 590	5.8605e+01	16.5252	82.938917	0.000395	3.953147	1.339363	-0.000158
 591	5.8705e+01	16.4819	82.789543	0.000375	3.750422	1.270677	-0.000150
 592	5.8804e+01	16.4514	82.607871	0.000456	4.561324	1.545418	-0.000183
 593	5.8904e+01	16.4065	82.422163	0.000466	4.662686	1.579761	-0.000187
 594	5.9004e+01	16.3760	82.264715	0.000395	3.953147	1.339363	-0.000158
 595	5.9103e+01	16.3311	82.123415	0.000355	3.547696	1.201992	-0.000142
 596	5.9203e+01	16.2926	81.917521	0.000517	5.169500	1.751474	-0.000207
 597	5.9302e+01	16.2445	81.768147	0.000375	3.750422	1.270677	-0.000150
 598	5.9401e+01	16.2028	81.586476	0.000456	4.561324	1.545418	-0.000183
 599	5.9501e+01	16.1691	81.429028	0.000395	3.953147	1.339363	-0.000158
 600	5.9600e+01	16.1274	81.263505	0.000416	4.155873	1.408048	-0.000166
 601	5.9700e+01	16.0921	81.110094	0.000385	3.851784	1.305020	-0.000154
 602	5.9800e+01	16.0455	80.904200	0.000517	5.169500	1.751474	-0.000207
 603	5.9899e+01	16.0086	80.803272	0.000253	2.534069	0.858566	-0.000101
 604	5.9998e+01	15.9717	80.613526	0.000476	4.764049	1.614104	-0.000191
 605	6.0098e+01	15.9300	80.443967	0.000426	4.257235	1.442390	-0.000170
 606	6.0197e+01	15.8819	80.274407	0.000426	4.257235	1.442390	-0.000170
 607	6.0297e+01	15.8530	80.088699	0.000466	4.662686	1.579761	-0.000187
 608	6.0397e+01	15.8161	79.919139	0.000426	4.257235	1.442390	-0.000170
 609	6.0496e+01	15.7664	79.789951	0.000324	3.243608	1.098964	-0.000130
 610	6.0596e+01	15.7311	79.612317	0.000446	4.459961	1.511076	-0.000179
 611	6.0695e+01	15.6814	79.402386	0.000527	5.270863	1.785817	-0.000211
 612	6.0794e+01	15.6445	79.248975	0.000385	3.851784	1.305020	-0.000154
 613	6.0894e+01	15.6092	79.059229	0.000476	4.764049	1.614104	-0.000191
 614	6.0993e+01	15.5627	78.897744	0.000405	4.054510	1.373705	-0.000162
 615	6.1093e+01	15.5306	78.736258	0.000405	4.054510	1.373705	-0.000162
 616	6.1193e+01	15.4969	78.562661	0.000436	4.358598	1.476733	-0.000174
 617	6.1292e+01	15.4616	78.380990	0.000456	4.561324	1.545418	-0.000183
 618	6.1392e+01	15.4087	78.207394	0.000436	4.358598	1.476733	-0.000174
 619	6.1491e+01	15.3686	78.066094	0.000355	3.547696	1.201992	-0.000142
 620	6.1590e+01	15.3317	77.868274	0.000497	4.966775	1.682789	-0.000199
 621	6.1690e+01	15.2980	77.718900	0.000375	3.750422	1.270677	-0.000150
 622	6.1789e+01	15.2498	77.513006	0.000517	5.169500	1.751474	-0.000207
 623	6.1889e+01	15.2145	77.327298	0.000466	4.662686	1.579761	-0.000187
 624	6.1989e+01	15.1680	77.165812	0.000405	4.054510	1.373705	-0.000162
 625	6.2088e+01	15.1311	77.020476	0.000365	3.649059	1.236335	-0.000146
 626	6.2188e+01	15.0862	76.834767	0.000466	4.662686	1.579761	-0.000187
 627	6.2287e+01	15.0493	76.640985	0.000487	4.865412	1.648446	-0.000195
 628	6.2386e+01	15.0156	76.467388	0.000436	4.358598	1.476733	-0.000174
 629	6.2486e+01	14.9627	76.309940	0.000395	3.953147	1.339363	-0.000158
 630	6.2586e+01	14.9242	76.132306	0.000446	4.459961	1.511076	-0.000179
 631	6.2685e+01	14.8889	75.942560	0.000476	4.764049	1.614104	-0.000191
 632	6.2785e+01	14.8568	75.760889	0.000456	4.561324	1.545418	-0.000183
 633	6.2884e+01	14.8151	75.579218	0.000456	4.561324	1.545418	-0.000183
 634	6.2983e+01	14.7734	75.450030	0.000324	3.243608	1.098964	-0.000130
 635	6.3083e+01	14.7285	75.296619	0.000385	3.851784	1.305020	-0.000154
 636	6.3182e+01	14.6948	75.078613	0.000547	5.473588	1.854502	-0.000219
 637	6.3282e+01	14.6434	74.905016	0.000436	4.358598	1.476733	-0.000174
 638	6.3382e+01	14.6130	74.715271	0.000476	4.764049	1.614104	-0.000191
 639	6.3481e+01	14.5712	74.513414	0.000507	5.068137	1.717131	-0.000203
 640	6.3581e+01	14.5279	74.380189	0.000334	3.344971	1.133307	-0.000134
 641	6.3680e+01	14.4926	74.186406	0.000487	4.865412	1.648446	-0.000195
 642	6.3779e+01	14.4509	74.012809	0.000436	4.358598	1.476733	-0.000174
 643	6.3879e+01	14.4140	73.810953	0.000507	5.068137	1.717131	-0.000203
 644	6.3978e+01	14.3739	73.657542	0.000385	3.851784	1.305020	-0.000154
 645	6.4078e+01	14.3274	73.479908	0.000446	4.459961	1.511076	-0.000179
 646	6.4177e+01	14.2905	73.302274	0.000446	4.459961	1.511076	-0.000179
 647	6.4277e+01	14.2552	73.132714	0.000426	4.257235	1.442390	-0.000170
 648	6.4376e+01	14.2199	72.942969	0.000476	4.764049	1.614104	-0.000191
 649	6.4476e+01	14.1734	72.777446	0.000416	4.155873	1.408048	-0.000166
 650	6.4576e+01	14.1429	72.595775	0.000456	4.561324	1.545418	-0.000183
 651	6.4675e+01	14.0980	72.353547	0.000608	6.081765	2.060558	-0.000243
 652	6.4775e+01	14.0627	72.224358	0.000324	3.243608	1.098964	-0.000130
 653	6.4874e+01	14.0162	72.066910	0.000395	3.953147	1.339363	-0.000158
 654	6.4974e+01	13.9681	71.905425	0.000405	4.054510	1.373705	-0.000162
 655	6.5073e+01	13.9344	71.743939	0.000405	4.054510	1.373705	-0.000162
 656	6.5172e+01	13.8911	71.517860	0.000568	5.676314	1.923187	-0.000227
 657	6.5272e+01	13.8509	71.364448	0.000385	3.851784	1.305020	-0.000154
 658	6.5371e+01	13.8157	71.138369	0.000568	5.676314	1.923187	-0.000227
 659	6.5471e+01	13.7772	70.980921	0.000395	3.953147	1.339363	-0.000158
 660	6.5570e+01	13.7338	70.791175	0.000476	4.764049	1.614104	-0.000191
 661	6.5670e+01	13.6985	70.649875	0.000355	3.547696	1.201992	-0.000142
 662	6.5769e+01	13.6472	70.452056	0.000497	4.966775	1.682789	-0.000199
 663	6.5869e+01	13.6199	70.258273	0.000487	4.865412	1.648446	-0.000195
 664	6.5969e+01	13.5766	70.088714	0.000426	4.257235	1.442390	-0.000170
 665	6.6068e+01	13.5397	69.939340	0.000375	3.750422	1.270677	-0.000150
 666	6.6168e+01	13.4980	69.737483	0.000507	5.068137	1.717131	-0.000203
 667	6.6267e+01	13.4515	69.596183	0.000355	3.547696	1.201992	-0.000142
 668	6.6367e+01	13.4210	69.378178	0.000547	5.473588	1.854502	-0.000219
 669	6.6466e+01	13.3809	69.232841	0.000365	3.649059	1.236335	-0.000146
 670	6.6566e+01	13.3360	69.002724	0.000578	5.777677	1.957530	-0.000231
 671	6.6665e+01	13.2927	68.829127	0.000436	4.358598	1.476733	-0.000174
 672	6.6764e+01	13.2510	68.675716	0.000385	3.851784	1.305020	-0.000154
 673	6.6864e+01	13.2205	68.490008	0.000466	4.662686	1.579761	-0.000187
 674	6.6963e+01	13.1820	68.284114	0.000517	5.169500	1.751474	-0.000207
 675	6.7063e+01	13.1339	68.114554	0.000426	4.257235	1.442390	-0.000170
 676	6.7162e+01	13.0954	67.957106	0.000395	3.953147	1.339363	-0.000158
 677	6.7262e+01	13.0585	67.751212	0.000517	5.169500	1.751474	-0.000207
 678	6.7362e+01	13.0151	67.577615	0.000436	4.358598	1.476733	-0.000174
 679	6.7461e+01	12.9766	67.395944	0.000456	4.561324	1.545418	-0.000183
 680	6.7561e+01	12.9430	67.202161	0.000487	4.865412	1.648446	-0.000195
 681	6.7660e+01	12.9077	67.081047	0.000304	3.040882	1.030279	-0.000122
 682	6.7760e+01	12.8595	66.875154	0.000517	5.169500	1.751474	-0.000207
 683	6.7859e+01	12.8258	66.689445	0.000466	4.662686	1.579761	-0.000187
 684	6.7959e+01	12.7777	66.527960	0.000405	4.054510	1.373705	-0.000162
 685	6.8058e+01	12.7408	66.366474	0.000405	4.054510	1.373705	-0.000162
 686	6.8157e+01	12.7055	66.156543	0.000527	5.270863	1.785817	-0.000211
 687	6.8257e+01	12.6654	65.978909	0.000446	4.459961	1.511076	-0.000179
 688	6.8356e+01	12.6157	65.805313	0.000436	4.358598	1.476733	-0.000174
 689	6.8456e+01	12.5836	65.603456	0.000507	5.068137	1.717131	-0.000203
 690	6.8555e+01	12.5483	65.433896	0.000426	4.257235	1.442390	-0.000170
 691	6.8655e+01	12.5050	65.260299	0.000436	4.358598	1.476733	-0.000174
 692	6.8754e+01	12.4537	65.090740	0.000426	4.257235	1.442390	-0.000170
 693	6.8854e+01	12.4136	64.941365	0.000375	3.750422	1.270677	-0.000150
 694	6.8954e+01	12.3847	64.763732	0.000446	4.459961	1.511076	-0.000179
 695	6.9053e+01	12.3494	64.557838	0.000517	5.169500	1.751474	-0.000207
 696	6.9153e+01	12.2997	64.364055	0.000487	4.865412	1.648446	-0.000195
 697	6.9252e+01	12.2612	64.170273	0.000487	4.865412	1.648446	-0.000195
 698	6.9352e+01	12.2178	64.012824	0.000395	3.953147	1.339363	-0.000158
 699	6.9451e+01	12.1858	63.823079	0.000476	4.764049	1.614104	-0.000191
 700	6.9550e+01	12.1456	63.677742	0.000365	3.649059	1.236335	-0.000146
 701	6.9650e+01	12.1055	63.467811	0.000527	5.270863	1.785817	-0.000211
 702	6.9749e+01	12.0670	63.294214	0.000436	4.358598	1.476733	-0.000174
 703	6.9849e+01	12.0301	63.096394	0.000497	4.966775	1.682789	-0.000199
 704	6.9948e+01	11.9868	62.918760	0.000446	4.459961	1.511076	-0.000179
 705	7.0048e+01	11.9499	62.749201	0.000426	4.257235	1.442390	-0.000170
 706	7.0147e+01	11.9162	62.527158	0.000557	5.574951	1.888845	-0.000223
 707	7.0247e+01	11.8665	62.402007	0.000314	3.142245	1.064621	-0.000126
 708	7.0347e+01	11.8312	62.167853	0.000588	5.879039	1.991872	-0.000235
 709	7.0446e+01	11.7911	61.982145	0.000466	4.662686	1.579761	-0.000187
 710	7.0546e+01	11.7526	61.816622	0.000416	4.155873	1.408048	-0.000166
 711	7.0645e+01	11.7013	61.679360	0.000345	3.446333	1.167649	-0.000138
 712	7.0745e+01	11.6660	61.457317	0.000557	5.574951	1.888845	-0.000223
 713	7.0844e+01	11.6227	61.275646	0.000456	4.561324	1.545418	-0.000183
 714	7.0944e+01	11.5890	61.081864	0.000487	4.865412	1.648446	-0.000195
 715	7.1043e+01	11.5473	60.932490	0.000375	3.750422	1.270677	-0.000150
 716	7.1142e+01	11.5104	60.734670	0.000497	4.966775	1.682789	-0.000199
 717	7.1242e+01	11.4719	60.532813	0.000507	5.068137	1.717131	-0.000203
 718	7.1341e+01	11.4286	60.363254	0.000426	4.257235	1.442390	-0.000170
 719	7.1441e+01	11.3836	60.213880	0.000375	3.750422	1.270677	-0.000150
 720	7.1540e+01	11.3548	60.020097	0.000487	4.865412	1.648446	-0.000195
 721	7.1640e+01	11.3130	59.830352	0.000476	4.764049	1.614104	-0.000191
 722	7.1740e+01	11.2681	59.664829	0.000416	4.155873	1.408048	-0.000166
 723	7.1839e+01	11.2216	59.479121	0.000466	4.662686	1.579761	-0.000187
 724	7.1939e+01	11.1815	59.273227	0.000517	5.169500	1.751474	-0.000207
 725	7.2038e+01	11.1462	59.115779	0.000395	3.953147	1.339363	-0.000158
 726	7.2138e+01	11.1045	58.909885	0.000517	5.169500	1.751474	-0.000207
 727	7.2237e+01	11.0676	58.708028	0.000507	5.068137	1.717131	-0.000203
 728	7.2337e+01	11.0195	58.526357	0.000456	4.561324	1.545418	-0.000183
 729	7.2436e+01	10.9858	58.344686	0.000456	4.561324	1.545418	-0.000183
 730	7.2535e+01	10.9505	58.215497	0.000324	3.243608	1.098964	-0.000130
 731	7.2635e+01	10.9136	57.997492	0.000547	5.473588	1.854502	-0.000219
 732	7.2734e+01	10.8687	57.795635	0.000507	5.068137	1.717131	-0.000203
 733	7.2834e+01	10.8238	57.626076	0.000426	4.257235	1.442390	-0.000170
 734	7.2933e+01	10.7853	57.456516	0.000426	4.257235	1.442390	-0.000170
 735	7.3033e+01	10.7532	57.266770	0.000476	4.764049	1.614104	-0.000191
 736	7.3132e+01	10.7131	57.048765	0.000547	5.473588	1.854502	-0.000219
 737	7.3232e+01	10.6794	56.907465	0.000355	3.547696	1.201992	-0.000142
 738	7.3332e+01	10.6216	56.701571	0.000517	5.169500	1.751474	-0.000207
 739	7.3431e+01	10.5944	56.523937	0.000446	4.459961	1.511076	-0.000179
 740	7.3531e+01	10.5510	56.350341	0.000436	4.358598	1.476733	-0.000174
 741	7.3630e+01	10.5061	56.156558	0.000487	4.865412	1.648446	-0.000195
 742	7.3730e+01	10.4692	55.950664	0.000517	5.169500	1.751474	-0.000207
 743	7.3829e+01	10.4387	55.752845	0.000497	4.966775	1.682789	-0.000199
 744	7.3928e+01	10.3906	55.579248	0.000436	4.358598	1.476733	-0.000174
 745	7.4028e+01	10.3473	55.381428	0.000497	4.966775	1.682789	-0.000199
 746	7.4127e+01	10.3152	55.215905	0.000416	4.155873	1.408048	-0.000166
 747	7.4227e+01	10.2703	55.030197	0.000466	4.662686	1.579761	-0.000187
 748	7.4326e+01	10.2334	54.860638	0.000426	4.257235	1.442390	-0.000170
 749	7.4426e+01	10.1885	54.618409	0.000608	6.081765	2.060558	-0.000243
 750	7.4525e+01	10.1532	54.460961	0.000395	3.953147	1.339363	-0.000158
 751	7.4625e+01	10.1131	54.295439	0.000416	4.155873	1.408048	-0.000166
 752	7.4725e+01	10.0746	54.093582	0.000507	5.068137	1.717131	-0.000203
 753	7.4824e+01	10.0361	53.915948	0.000446	4.459961	1.511076	-0.000179
 754	7.4924e+01	9.9847	53.673720	0.000608	6.081765	2.060558	-0.000243
 755	7.5023e+01	9.9543	53.496086	0.000446	4.459961	1.511076	-0.000179
 756	7.5123e+01	9.9190	53.338637	0.000395	3.953147	1.339363	-0.000158
 757	7.5222e+01	9.8676	53.108521	0.000578	5.777677	1.957530	-0.000231
 758	7.5322e+01	9.8291	52.942998	0.000416	4.155873	1.408048	-0.000166
 759	7.5421e+01	9.7954	52.761327	0.000456	4.561324	1.545418	-0.000183
 760	7.5520e+01	9.7569	52.559470	0.000507	5.068137	1.717131	-0.000203
 761	7.5620e+01	9.7168	52.333391	0.000568	5.676314	1.923187	-0.000227
 762	7.5719e+01	9.6735	52.208239	0.000314	3.142245	1.064621	-0.000126
 763	7.5819e+01	9.6334	51.998308	0.000527	5.270863	1.785817	-0.000211
 764	7.5918e+01	9.5965	51.800489	0.000497	4.966775	1.682789	-0.000199
 765	7.6018e+01	9.5596	51.578446	0.000557	5.574951	1.888845	-0.000223
 766	7.6118e+01	9.5227	51.376589	0.000507	5.068137	1.717131	-0.000203
 767	7.6217e+01	9.4794	51.219141	0.000395	3.953147	1.339363	-0.000158
 768	7.6317e+01	9.4425	51.029396	0.000476	4.764049	1.614104	-0.000191
 769	7.6416e+01	9.3928	50.875985	0.000385	3.851784	1.305020	-0.000154
 770	7.6516e+01	9.3527	50.653942	0.000557	5.574951	1.888845	-0.000223
 771	7.6615e+01	9.3142	50.435937	0.000547	5.473588	1.854502	-0.000219
 772	7.6715e+01	9.2837	50.234080	0.000507	5.068137	1.717131	-0.000203
 773	7.6814e+01	9.2308	50.072595	0.000405	4.054510	1.373705	-0.000162
 774	7.6913e+01	9.1923	49.911109	0.000405	4.054510	1.373705	-0.000162
 775	7.7013e+01	9.1554	49.664844	0.000618	6.183128	2.094900	-0.000248
 776	7.7112e+01	9.1201	49.523544	0.000355	3.547696	1.201992	-0.000142
 777	7.7212e+01	9.0767	49.281316	0.000608	6.081765	2.060558	-0.000243
 778	7.7311e+01	9.0366	49.087533	0.000487	4.865412	1.648446	-0.000195
 779	7.7411e+01	8.9949	48.905862	0.000456	4.561324	1.545418	-0.000183
 780	7.7510e+01	8.9580	48.708043	0.000497	4.966775	1.682789	-0.000199
 781	7.7610e+01	8.9131	48.498112	0.000527	5.270863	1.785817	-0.000211
 782	7.7710e+01	8.8842	48.312403	0.000466	4.662686	1.579761	-0.000187
 783	7.7809e+01	8.8345	48.126695	0.000466	4.662686	1.579761	-0.000187
 784	7.7909e+01	8.7976	47.969247	0.000395	3.953147	1.339363	-0.000158
 785	7.8008e+01	8.7575	47.735093	0.000588	5.879039	1.991872	-0.000235
 786	7.8108e+01	8.7206	47.545348	0.000476	4.764049	1.614104	-0.000191
 787	7.8207e+01	8.6677	47.371751	0.000436	4.358598	1.476733	-0.000174
 788	7.8306e+01	8.6308	47.153745	0.000547	5.473588	1.854502	-0.000219
 789	7.8406e+01	8.6019	46.927666	0.000568	5.676314	1.923187	-0.000227
 790	7.8505e+01	8.5570	46.762143	0.000416	4.155873	1.408048	-0.000166
 791	7.8605e+01	8.5217	46.576435	0.000466	4.662686	1.579761	-0.000187
 792	7.8704e+01	8.4784	46.370541	0.000517	5.169500	1.751474	-0.000207
 793	7.8804e+01	8.4351	46.156573	0.000537	5.372226	1.820159	-0.000215
 794	7.8903e+01	8.3982	45.978939	0.000446	4.459961	1.511076	-0.000179
 795	7.9003e+01	8.3661	45.777082	0.000507	5.068137	1.717131	-0.000203
 796	7.9103e+01	8.3292	45.579262	0.000497	4.966775	1.682789	-0.000199
 797	7.9202e+01	8.2746	45.361257	0.000547	5.473588	1.854502	-0.000219
 798	7.9302e+01	8.2490	45.195735	0.000416	4.155873	1.408048	-0.000166
 799	7.9401e+01	8.2008	44.993878	0.000507	5.068137	1.717131	-0.000203
 800	7.9501e+01	8.1623	44.787984	0.000517	5.169500	1.751474	-0.000207
 801	7.9600e+01	8.1126	44.586127	0.000507	5.068137	1.717131	-0.000203
 802	7.9700e+01	8.0741	44.396382	0.000476	4.764049	1.614104	-0.000191
 803	7.9799e+01	8.0420	44.174339	0.000557	5.574951	1.888845	-0.000223
 804	7.9898e+01	8.0003	44.004780	0.000426	4.257235	1.442390	-0.000170
 805	7.9998e+01	7.9634	43.806960	0.000497	4.966775	1.682789	-0.000199
 806	8.0097e+01	7.9169	43.605103	0.000507	5.068137	1.717131	-0.000203
 807	8.0197e+01	7.8800	43.395172	0.000527	5.270863	1.785817	-0.000211
 808	8.0296e+01	7.8447	43.229649	0.000416	4.155873	1.408048	-0.000166
 809	8.0396e+01	7.8030	43.015681	0.000537	5.372226	1.820159	-0.000215
 810	8.0496e+01	7.7645	42.781527	0.000588	5.879039	1.991872	-0.000235
 811	8.0595e+01	7.7196	42.644265	0.000345	3.446333	1.167649	-0.000138
 812	8.0695e+01	7.6843	42.393962	0.000628	6.284490	2.129243	-0.000252
 813	8.0794e+01	7.6426	42.224403	0.000426	4.257235	1.442390	-0.000170
 814	8.0894e+01	7.6073	41.990249	0.000588	5.879039	1.991872	-0.000235
 815	8.0993e+01	7.5624	41.816652	0.000436	4.358598	1.476733	-0.000174
 816	8.1093e+01	7.5287	41.630944	0.000466	4.662686	1.579761	-0.000187
 817	8.1192e+01	7.4870	41.388716	0.000608	6.081765	2.060558	-0.000243
 818	8.1291e+01	7.4501	41.190896	0.000497	4.966775	1.682789	-0.000199
 819	8.1391e+01	7.4019	41.005188	0.000466	4.662686	1.579761	-0.000187
 820	8.1490e+01	7.3618	40.803331	0.000507	5.068137	1.717131	-0.000203
 821	8.1590e+01	7.3297	40.621660	0.000456	4.561324	1.545418	-0.000183
 822	8.1689e+01	7.2848	40.399617	0.000557	5.574951	1.888845	-0.000223
 823	8.1789e+01	7.2463	40.201798	0.000497	4.966775	1.682789	-0.000199
 824	8.1888e+01	7.2094	39.995904	0.000517	5.169500	1.751474	-0.000207
 825	8.1988e+01	7.1645	39.830381	0.000416	4.155873	1.408048	-0.000166
 826	8.2088e+01	7.1308	39.644673	0.000466	4.662686	1.579761	-0.000187
 827	8.2187e+01	7.0843	39.386296	0.000649	6.487216	2.197928	-0.000260
 828	8.2287e+01	7.0474	39.192514	0.000487	4.865412	1.648446	-0.000195
 829	8.2386e+01	7.0057	39.002768	0.000476	4.764049	1.614104	-0.000191
 830	8.2486e+01	6.9624	38.821097	0.000456	4.561324	1.545418	-0.000183
 831	8.2585e+01	6.9223	38.595018	0.000568	5.676314	1.923187	-0.000227
 832	8.2684e+01	6.8790	38.425458	0.000426	4.257235	1.442390	-0.000170
 833	8.2784e+01	6.8469	38.207453	0.000547	5.473588	1.854502	-0.000219
 834	8.2883e+01	6.8052	37.985410	0.000557	5.574951	1.888845	-0.000223
 835	8.2983e+01	6.7522	37.799702	0.000466	4.662686	1.579761	-0.000187
 836	8.3082e+01	6.7346	37.626105	0.000436	4.358598	1.476733	-0.000174
 837	8.3182e+01	6.6800	37.379840	0.000618	6.183128	2.094900	-0.000248
 838	8.3281e+01	6.6495	37.222392	0.000395	3.953147	1.339363	-0.000158
 839	8.3381e+01	6.5982	37.008423	0.000537	5.372226	1.820159	-0.000215
 840	8.3481e+01	6.5709	36.846938	0.000405	4.054510	1.373705	-0.000162
 841	8.3580e+01	6.5228	36.645081	0.000507	5.068137	1.717131	-0.000203
 842	8.3680e+01	6.4827	36.398816	0.000618	6.183128	2.094900	-0.000248
 843	8.3779e+01	6.4490	36.257516	0.000355	3.547696	1.201992	-0.000142
 844	8.3879e+01	6.4073	36.051622	0.000517	5.169500	1.751474	-0.000207
 845	8.3978e+01	6.3608	35.837654	0.000537	5.372226	1.820159	-0.000215
 846	8.4078e+01	6.3303	35.655983	0.000456	4.561324	1.545418	-0.000183
 847	8.4177e+01	6.2854	35.433940	0.000557	5.574951	1.888845	-0.000223
 848	8.4276e+01	6.2581	35.256306	0.000446	4.459961	1.511076	-0.000179
 849	8.4376e+01	6.2036	35.026190	0.000578	5.777677	1.957530	-0.000231
 850	8.4475e+01	6.1715	34.836444	0.000476	4.764049	1.614104	-0.000191
 851	8.4575e+01	6.1298	34.658810	0.000446	4.459961	1.511076	-0.000179
 852	8.4674e+01	6.0881	34.412545	0.000618	6.183128	2.094900	-0.000248
 853	8.4774e+01	6.0415	34.234911	0.000446	4.459961	1.511076	-0.000179
 854	8.4874e+01	6.0095	34.061314	0.000436	4.358598	1.476733	-0.000174
 855	8.4973e+01	5.9742	33.895792	0.000416	4.155873	1.408048	-0.000166
 856	8.5073e+01	5.9308	33.665675	0.000578	5.777677	1.957530	-0.000231
 857	8.5172e+01	5.8956	33.463818	0.000507	5.068137	1.717131	-0.000203
 858	8.5272e+01	5.8426	33.225627	0.000598	5.980402	2.026215	-0.000239
 859	8.5371e+01	5.8089	33.076253	0.000375	3.750422	1.270677	-0.000150
 860	8.5471e+01	5.7672	32.846136	0.000578	5.777677	1.957530	-0.000231
 861	8.5570e+01	5.7223	32.648317	0.000497	4.966775	1.682789	-0.000199
 862	8.5669e+01	5.6934	32.458571	0.000476	4.764049	1.614104	-0.000191
 863	8.5769e+01	5.6549	32.256715	0.000507	5.068137	1.717131	-0.000203
 864	8.5868e+01	5.5988	32.062932	0.000487	4.865412	1.648446	-0.000195
 865	8.5968e+01	5.5715	31.848964	0.000537	5.372226	1.820159	-0.000215
 866	8.6067e+01	5.5282	31.651144	0.000497	4.966775	1.682789	-0.000199
 867	8.6167e+01	5.4929	31.457362	0.000487	4.865412	1.648446	-0.000195
 868	8.6266e+01	5.4400	31.227245	0.000578	5.777677	1.957530	-0.000231
 869	8.6366e+01	5.4159	31.017314	0.000527	5.270863	1.785817	-0.000211
 870	8.6466e+01	5.3710	30.807383	0.000527	5.270863	1.785817	-0.000211
 871	8.6565e+01	5.3309	30.641860	0.000416	4.155873	1.408048	-0.000166
 872	8.6665e+01	5.2940	30.472301	0.000426	4.257235	1.442390	-0.000170
 873	8.6764e+01	5.2555	30.242184	0.000578	5.777677	1.957530	-0.000231
 874	8.6864e+01	5.2170	30.024178	0.000547	5.473588	1.854502	-0.000219
 875	8.6963e+01	5.1592	29.862693	0.000405	4.054510	1.373705	-0.000162
 876	8.7063e+01	5.1368	29.644688	0.000547	5.473588	1.854502	-0.000219
 877	8.7162e+01	5.0918	29.446868	0.000497	4.966775	1.682789	-0.000199
 878	8.7261e+01	5.0517	29.257123	0.000476	4.764049	1.614104	-0.000191
 879	8.7361e+01	5.0020	29.079489	0.000446	4.459961	1.511076	-0.000179
 880	8.7460e+01	4.9779	28.841298	0.000598	5.980402	2.026215	-0.000239
 881	8.7560e+01	4.9314	28.635404	0.000517	5.169500	1.751474	-0.000207
 882	8.7659e+01	4.8929	28.469881	0.000416	4.155873	1.408048	-0.000166
 883	8.7759e+01	4.8432	28.247839	0.000557	5.574951	1.888845	-0.000223
 884	8.7859e+01	4.8079	28.050019	0.000497	4.966775	1.682789	-0.000199
 885	8.7958e+01	4.7822	27.832014	0.000547	5.473588	1.854502	-0.000219
 886	8.8058e+01	4.7357	27.650343	0.000456	4.561324	1.545418	-0.000183
 887	8.8157e+01	4.6940	27.460597	0.000476	4.764049	1.614104	-0.000191
 888	8.8257e+01	4.6571	27.262778	0.000497	4.966775	1.682789	-0.000199
 889	8.8356e+01	4.6154	27.020549	0.000608	6.081765	2.060558	-0.000243
 890	8.8456e+01	4.5737	26.838878	0.000456	4.561324	1.545418	-0.000183
 891	8.8555e+01	4.5496	26.661244	0.000446	4.459961	1.511076	-0.000179
 892	8.8654e+01	4.5047	26.435165	0.000568	5.676314	1.923187	-0.000227
 893	8.8754e+01	4.4534	26.229271	0.000517	5.169500	1.751474	-0.000207
 894	8.8853e+01	4.4181	26.071823	0.000395	3.953147	1.339363	-0.000158
 895	8.8953e+01	4.3763	25.853817	0.000547	5.473588	1.854502	-0.000219
 896	8.9052e+01	4.3394	25.619663	0.000588	5.879039	1.991872	-0.000235
 897	8.9152e+01	4.2945	25.437992	0.000456	4.561324	1.545418	-0.000183
 898	8.9251e+01	4.2592	25.224024	0.000537	5.372226	1.820159	-0.000215
 899	8.9351e+01	4.2159	25.034279	0.000476	4.764049	1.614104	-0.000191
 900	8.9451e+01	4.1726	24.860682	0.000436	4.358598	1.476733	-0.000174
 901	8.9550e+01	4.1325	24.638639	0.000557	5.574951	1.888845	-0.000223
 902	8.9650e+01	4.0972	24.428708	0.000527	5.270863	1.785817	-0.000211
 903	8.9749e+01	4.0555	24.243000	0.000466	4.662686	1.579761	-0.000187
 904	8.9849e+01	4.0138	24.033069	0.000527	5.270863	1.785817	-0.000211
 905	8.9948e+01	3.9737	23.811027	0.000557	5.574951	1.888845	-0.000223
 906	9.0047e+01	3.9384	23.633393	0.000446	4.459961	1.511076	-0.000179
 907	9.0147e+01	3.8967	23.423462	0.000527	5.270863	1.785817	-0.000211
 908	9.0246e+01	3.8486	23.253902	0.000426	4.257235	1.442390	-0.000170
 909	9.0346e+01	3.8101	23.011674	0.000608	6.081765	2.060558	-0.000243
 910	9.0445e+01	3.7764	22.834040	0.000446	4.459961	1.511076	-0.000179
 911	9.0545e+01	3.7395	22.624109	0.000527	5.270863	1.785817	-0.000211
 912	9.0644e+01	3.6994	22.418215	0.000517	5.169500	1.751474	-0.000207
 913	9.0744e+01	3.6641	22.220395	0.000497	4.966775	1.682789	-0.000199
 914	9.0844e+01	3.6143	22.038724	0.000456	4.561324	1.545418	-0.000183
 915	9.0943e+01	3.5855	21.820719	0.000547	5.473588	1.854502	-0.000219
 916	9.1043e+01	3.5325	21.598676	0.000557	5.574951	1.888845	-0.000223
 917	9.1142e+01	3.5036	21.400857	0.000497	4.966775	1.682789	-0.000199
 918	9.1242e+01	3.4571	21.203037	0.000497	4.966775	1.682789	-0.000199
 919	9.1341e+01	3.4202	20.985032	0.000547	5.473588	1.854502	-0.000219
 920	9.1441e+01	3.3721	20.775101	0.000527	5.270863	1.785817	-0.000211
 921	9.1540e+01	3.3336	20.565169	0.000527	5.270863	1.785817	-0.000211
 922	9.1639e+01	3.2999	20.351201	0.000537	5.372226	1.820159	-0.000215
 923	9.1739e+01	3.2614	20.177604	0.000436	4.358598	1.476733	-0.000174
 924	9.1838e+01	3.2165	19.967673	0.000527	5.270863	1.785817	-0.000211
 925	9.1938e+01	3.1780	19.717371	0.000628	6.284490	2.129243	-0.000252
 926	9.2037e+01	3.1347	19.563960	0.000385	3.851784	1.305020	-0.000154
 927	9.2137e+01	3.1058	19.349992	0.000537	5.372226	1.820159	-0.000215
 928	9.2237e+01	3.0641	19.111801	0.000598	5.980402	2.026215	-0.000239
 929	9.2336e+01	3.0224	18.918018	0.000487	4.865412	1.648446	-0.000195
 930	9.2436e+01	2.9791	18.756533	0.000405	4.054510	1.373705	-0.000162
 931	9.2535e+01	2.9341	18.522379	0.000588	5.879039	1.991872	-0.000235
 932	9.2635e+01	2.9101	18.320522	0.000507	5.068137	1.717131	-0.000203
 933	9.2734e+01	2.8571	18.106554	0.000537	5.372226	1.820159	-0.000215
 934	9.2834e+01	2.8202	17.864326	0.000608	6.081765	2.060558	-0.000243
 935	9.2933e+01	2.7866	17.674580	0.000476	4.764049	1.614104	-0.000191
 936	9.3032e+01	2.7400	17.484835	0.000476	4.764049	1.614104	-0.000191
 937	9.3132e+01	2.7095	17.246644	0.000598	5.980402	2.026215	-0.000239
 938	9.3231e+01	2.6598	17.064973	0.000456	4.561324	1.545418	-0.000183
 939	9.3331e+01	2.6261	16.879265	0.000466	4.662686	1.579761	-0.000187
 940	9.3430e+01	2.5748	16.653185	0.000568	5.676314	1.923187	-0.000227
 941	9.3530e+01	2.5443	16.427105	0.000568	5.676314	1.923187	-0.000227
 942	9.3629e+01	2.4962	16.237360	0.000476	4.764049	1.614104	-0.000191
 943	9.3729e+01	2.4673	16.007243	0.000578	5.777677	1.957530	-0.000231
 944	9.3829e+01	2.4256	15.825572	0.000456	4.561324	1.545418	-0.000183
 945	9.3928e+01	2.3775	15.647938	0.000446	4.459961	1.511076	-0.000179
 946	9.4028e+01	2.3406	15.393599	0.000639	6.385853	2.163586	-0.000256
 947	9.4127e+01	2.3021	15.191742	0.000507	5.068137	1.717131	-0.000203
 948	9.4227e+01	2.2684	15.006034	0.000466	4.662686	1.579761	-0.000187
 949	9.4326e+01	2.2315	14.755731	0.000628	6.284490	2.129243	-0.000252
 950	9.4425e+01	2.1866	14.598283	0.000395	3.953147	1.339363	-0.000158
 951	9.4525e+01	2.1384	14.368166	0.000578	5.777677	1.957530	-0.000231
 952	9.4624e+01	2.0967	14.146124	0.000557	5.574951	1.888845	-0.000223
 953	9.4724e+01	2.0550	13.924081	0.000557	5.574951	1.888845	-0.000223
 954	9.4823e+01	2.0165	13.742410	0.000456	4.561324	1.545418	-0.000183
 955	9.4923e+01	1.9860	13.528442	0.000537	5.372226	1.820159	-0.000215
 956	9.5022e+01	1.9475	13.314474	0.000537	5.372226	1.820159	-0.000215
 957	9.5122e+01	1.9058	13.100505	0.000537	5.372226	1.820159	-0.000215
 958	9.5222e+01	1.8593	12.898649	0.000507	5.068137	1.717131	-0.000203
 959	9.5321e+01	1.8256	12.696792	0.000507	5.068137	1.717131	-0.000203
 960	9.5421e+01	1.7839	12.466675	0.000578	5.777677	1.957530	-0.000231
 961	9.5520e+01	1.7454	12.280967	0.000466	4.662686	1.579761	-0.000187
 962	9.5620e+01	1.7037	12.071036	0.000527	5.270863	1.785817	-0.000211
 963	9.5719e+01	1.6620	11.840919	0.000578	5.777677	1.957530	-0.000231
 964	9.5819e+01	1.6187	11.635025	0.000517	5.169500	1.751474	-0.000207
 965	9.5918e+01	1.5882	11.433168	0.000507	5.068137	1.717131	-0.000203
 966	9.6017e+01	1.5433	11.170755	0.000659	6.588579	2.232271	-0.000264
 967	9.6117e+01	1.5080	10.976972	0.000487	4.865412	1.648446	-0.000195
 968	9.6216e+01	1.4631	10.803375	0.000436	4.358598	1.476733	-0.000174
 969	9.6316e+01	1.4246	10.593444	0.000527	5.270863	1.785817	-0.000211
 970	9.6415e+01	1.3861	10.367365	0.000568	5.676314	1.923187	-0.000227
 971	9.6515e+01	1.3443	10.169545	0.000497	4.966775	1.682789	-0.000199
 972	9.6615e+01	1.2994	9.907131	0.000659	6.588579	2.232271	-0.000264
 973	9.6714e+01	1.2609	9.737571	0.000426	4.257235	1.442390	-0.000170
 974	9.6814e+01	1.2256	9.511492	0.000568	5.676314	1.923187	-0.000227
 975	9.6913e+01	1.1968	9.317709	0.000487	4.865412	1.648446	-0.000195
 976	9.7013e+01	1.1438	9.067407	0.000628	6.284490	2.129243	-0.000252
 977	9.7112e+01	1.1053	8.873624	0.000487	4.865412	1.648446	-0.000195
 978	9.7212e+01	1.0636	8.663693	0.000527	5.270863	1.785817	-0.000211
 979	9.7311e+01	1.0299	8.457799	0.000517	5.169500	1.751474	-0.000207
 980	9.7410e+01	0.9898	8.284203	0.000436	4.358598	1.476733	-0.000174
 981	9.7510e+01	0.9417	8.013714	0.000679	6.791304	2.300956	-0.000272
 982	9.7609e+01	0.9128	7.828006	0.000466	4.662686	1.579761	-0.000187
 983	9.7709e+01	0.8679	7.638261	0.000476	4.764049	1.614104	-0.000191
 984	9.7808e+01	0.8278	7.424293	0.000537	5.372226	1.820159	-0.000215
 985	9.7908e+01	0.7893	7.218399	0.000517	5.169500	1.751474	-0.000207
 986	9.8007e+01	0.7492	6.996356	0.000557	5.574951	1.888845	-0.000223
 987	9.8107e+01	0.7059	6.782388	0.000537	5.372226	1.820159	-0.000215
 988	9.8207e+01	0.6754	6.544197	0.000598	5.980402	2.026215	-0.000239
 989	9.8306e+01	0.6337	6.346377	0.000497	4.966775	1.682789	-0.000199
 990	9.8406e+01	0.5839	6.168743	0.000446	4.459961	1.511076	-0.000179
 991	9.8505e+01	0.5519	5.918441	0.000628	6.284490	2.129243	-0.000252
 992	9.8605e+01	0.5134	5.736770	0.000456	4.561324	1.545418	-0.000183
 993	9.8704e+01	0.4716	5.494542	0.000608	6.081765	2.060558	-0.000243
 994	9.8803e+01	0.4219	5.268462	0.000568	5.676314	1.923187	-0.000227
 995	9.8903e+01	0.3914	5.050457	0.000547	5.473588	1.854502	-0.000219
 996	9.9002e+01	0.3545	4.884934	0.000416	4.155873	1.408048	-0.000166
 997	9.9102e+01	0.3048	4.666929	0.000547	5.473588	1.854502	-0.000219
 998	9.9201e+01	0.2743	4.473146	0.000487	4.865412	1.648446	-0.000195
 999	9.9301e+01	0.2310	4.234955	0.000598	5.980402	2.026215	-0.000239
1000	9.9400e+01	0.1813	4.020987	0.000537	5.372226	1.820159	-0.000215
1001	9.9500e+01	0.1524	3.831242	0.000476	4.764049	1.614104	-0.000191
1002	9.9600e+01	0.1059	3.621311	0.000527	5.270863	1.785817	-0.000211
1003	9.9699e+01	0.0722	3.443677	0.000446	4.459961	1.511076	-0.000179
1004	9.9799e+01	0.0321	3.201449	0.000608	6.081765	2.060558	-0.000243
1005	9.9898e+01	0.0000	3.031889	0.000426	4.257235	1.442390	-0.000170
1006	9.9998e+01	-0.0321	2.821958	0.000527	5.270863	1.785817	-0.000211
1007	1.0010e+02	-0.0818	2.652398	0.000426	4.257235	1.442390	-0.000170
1008	1.0020e+02	-0.1251	2.410170	0.000608	6.081765	2.060558	-0.000243
1009	1.0030e+02	-0.1668	2.171979	0.000598	5.980402	2.026215	-0.000239
1010	1.0040e+02	-0.2021	1.978197	0.000487	4.865412	1.648446	-0.000195
1011	1.0050e+02	-0.2438	1.812674	0.000416	4.155873	1.408048	-0.000166
1012	1.0059e+02	-0.2759	1.574483	0.000598	5.980402	2.026215	-0.000239
1013	1.0069e+02	-0.3096	1.372626	0.000507	5.068137	1.717131	-0.000203
1014	1.0079e+02	-0.3529	1.166732	0.000517	5.169500	1.751474	-0.000207
1015	1.0089e+02	-0.3995	0.956801	0.000527	5.270863	1.785817	-0.000211
1016	1.0099e+02	-0.4444	0.750907	0.000517	5.169500	1.751474	-0.000207
1017	1.0109e+02	-0.4861	0.545013	0.000517	5.169500	1.751474	-0.000207
1018	1.0119e+02	-0.5230	0.343157	0.000507	5.068137	1.717131	-0.000203
1019	1.0129e+02	-0.5631	0.157448	0.000466	4.662686	1.579761	-0.000187
1020	1.0139e+02	-0.6016	-0.080743	0.000598	5.980402	2.026215	-0.000239
1021	1.0149e+02	-0.6369	-0.286637	0.000517	5.169500	1.751474	-0.000207
1022	1.0159e+02	-0.6786	-0.476382	0.000476	4.764049	1.614104	-0.000191
1023	1.0169e+02	-0.7139	-0.678239	0.000507	5.068137	1.717131	-0.000203
1024	1.0179e+02	-0.7572	-0.884133	0.000517	5.169500	1.751474	-0.000207
1025	1.0189e+02	-0.8005	-1.114249	0.000578	5.777677	1.957530	-0.000231
1026	1.0199e+02	-0.8374	-1.336292	0.000557	5.574951	1.888845	-0.000223
1027	1.0209e+02	-0.8807	-1.538149	0.000507	5.068137	1.717131	-0.000203
1028	1.0219e+02	-0.9112	-1.740006	0.000507	5.068137	1.717131	-0.000203
1029	1.0229e+02	-0.9561	-1.909565	0.000426	4.257235	1.442390	-0.000170
1030	1.0239e+02	-0.9978	-2.167942	0.000649	6.487216	2.197928	-0.000260
1031	1.0248e+02	-1.0395	-2.357687	0.000476	4.764049	1.614104	-0.000191
1032	1.0258e+02	-1.0796	-2.551470	0.000487	4.865412	1.648446	-0.000195
1033	1.0268e+02	-1.1133	-2.793698	0.000608	6.081765	2.060558	-0.000243
1034	1.0278e+02	-1.1647	-2.967295	0.000436	4.358598	1.476733	-0.000174
1035	1.0288e+02	-1.1984	-3.185300	0.000547	5.473588	1.854502	-0.000219
1036	1.0298e+02	-1.2353	-3.375045	0.000476	4.764049	1.614104	-0.000191
1037	1.0308e+02	-1.2754	-3.597088	0.000557	5.574951	1.888845	-0.000223
1038	1.0318e+02	-1.3187	-3.782796	0.000466	4.662686	1.579761	-0.000187
1039	1.0328e+02	-1.3588	-3.988690	0.000517	5.169500	1.751474	-0.000207
1040	1.0338e+02	-1.3941	-4.214770	0.000568	5.676314	1.923187	-0.000227
1041	1.0348e+02	-1.4422	-4.392404	0.000446	4.459961	1.511076	-0.000179
1042	1.0358e+02	-1.4743	-4.602335	0.000527	5.270863	1.785817	-0.000211
1043	1.0368e+02	-1.5096	-4.836489	0.000588	5.879039	1.991872	-0.000235
1044	1.0378e+02	-1.5609	-5.038345	0.000507	5.068137	1.717131	-0.000203
1045	1.0388e+02	-1.5882	-5.195794	0.000395	3.953147	1.339363	-0.000158
1046	1.0398e+02	-1.6363	-5.425910	0.000578	5.777677	1.957530	-0.000231
1047	1.0408e+02	-1.6780	-5.631804	0.000517	5.169500	1.751474	-0.000207
1048	1.0418e+02	-1.7181	-5.825587	0.000487	4.865412	1.648446	-0.000195
1049	1.0428e+02	-1.7647	-6.039555	0.000537	5.372226	1.820159	-0.000215
1050	1.0438e+02	-1.7919	-6.253523	0.000537	5.372226	1.820159	-0.000215
1051	1.0447e+02	-1.8385	-6.455380	0.000507	5.068137	1.717131	-0.000203
1052	1.0457e+02	-1.8786	-6.665311	0.000527	5.270863	1.785817	-0.000211
1053	1.0467e+02	-1.9219	-6.879279	0.000537	5.372226	1.820159	-0.000215
1054	1.0477e+02	-1.9475	-7.121507	0.000608	6.081765	2.060558	-0.000243
1055	1.0487e+02	-1.9973	-7.274919	0.000385	3.851784	1.305020	-0.000154
1056	1.0497e+02	-2.0358	-7.460627	0.000466	4.662686	1.579761	-0.000187
1057	1.0507e+02	-2.0695	-7.674595	0.000537	5.372226	1.820159	-0.000215
1058	1.0517e+02	-2.1144	-7.896638	0.000557	5.574951	1.888845	-0.000223
1059	1.0527e+02	-2.1593	-8.094457	0.000497	4.966775	1.682789	-0.000199
1060	1.0537e+02	-2.1994	-8.308425	0.000537	5.372226	1.820159	-0.000215
1061	1.0547e+02	-2.2363	-8.534505	0.000568	5.676314	1.923187	-0.000227
1062	1.0557e+02	-2.2716	-8.732325	0.000497	4.966775	1.682789	-0.000199
1063	1.0567e+02	-2.3181	-8.881699	0.000375	3.750422	1.270677	-0.000150
1064	1.0577e+02	-2.3518	-9.111815	0.000578	5.777677	1.957530	-0.000231
1065	1.0587e+02	-2.3871	-9.301561	0.000476	4.764049	1.614104	-0.000191
1066	1.0597e+02	-2.4320	-9.535715	0.000588	5.879039	1.991872	-0.000235
1067	1.0607e+02	-2.4705	-9.717386	0.000456	4.561324	1.545418	-0.000183
1068	1.0617e+02	-2.5106	-9.915205	0.000497	4.966775	1.682789	-0.000199
1069	1.0627e+02	-2.5555	-10.108988	0.000487	4.865412	1.648446	-0.000195
1070	1.0637e+02	-2.6053	-10.314882	0.000517	5.169500	1.751474	-0.000207
1071	1.0647e+02	-2.6325	-10.532887	0.000547	5.473588	1.854502	-0.000219
1072	1.0656e+02	-2.6743	-10.750892	0.000547	5.473588	1.854502	-0.000219
1073	1.0666e+02	-2.7095	-10.936601	0.000466	4.662686	1.579761	-0.000187
1074	1.0676e+02	-2.7464	-11.134420	0.000497	4.966775	1.682789	-0.000199
1075	1.0686e+02	-2.7930	-11.376649	0.000608	6.081765	2.060558	-0.000243
1076	1.0696e+02	-2.8251	-11.530060	0.000385	3.851784	1.305020	-0.000154
1077	1.0706e+02	-2.8700	-11.780362	0.000628	6.284490	2.129243	-0.000252
1078	1.0716e+02	-2.9165	-11.978182	0.000497	4.966775	1.682789	-0.000199
1079	1.0726e+02	-2.9470	-12.151779	0.000436	4.358598	1.476733	-0.000174
1080	1.0736e+02	-2.9935	-12.349598	0.000497	4.966775	1.682789	-0.000199
1081	1.0746e+02	-3.0240	-12.567604	0.000547	5.473588	1.854502	-0.000219
1082	1.0756e+02	-3.0769	-12.781572	0.000537	5.372226	1.820159	-0.000215
1083	1.0766e+02	-3.1202	-12.922871	0.000355	3.547696	1.201992	-0.000142
1084	1.0776e+02	-3.1491	-13.193360	0.000679	6.791304	2.300956	-0.000272
1085	1.0786e+02	-3.1908	-13.370994	0.000446	4.459961	1.511076	-0.000179
1086	1.0796e+02	-3.2293	-13.621296	0.000628	6.284490	2.129243	-0.000252
1087	1.0806e+02	-3.2726	-13.823153	0.000507	5.068137	1.717131	-0.000203
1088	1.0816e+02	-3.3095	-13.992712	0.000426	4.257235	1.442390	-0.000170
1089	1.0826e+02	-3.3400	-14.182458	0.000476	4.764049	1.614104	-0.000191
1090	1.0836e+02	-3.3865	-14.396426	0.000537	5.372226	1.820159	-0.000215
1091	1.0845e+02	-3.4234	-14.582134	0.000466	4.662686	1.579761	-0.000187
1092	1.0855e+02	-3.4635	-14.808214	0.000568	5.676314	1.923187	-0.000227
1093	1.0865e+02	-3.4972	-15.018145	0.000527	5.270863	1.785817	-0.000211
1094	1.0875e+02	-3.5582	-15.207890	0.000476	4.764049	1.614104	-0.000191
1095	1.0885e+02	-3.5935	-15.425896	0.000547	5.473588	1.854502	-0.000219
1096	1.0895e+02	-3.6288	-15.607567	0.000456	4.561324	1.545418	-0.000183
1097	1.0905e+02	-3.6641	-15.829609	0.000557	5.574951	1.888845	-0.000223
1098	1.0915e+02	-3.7026	-16.047615	0.000547	5.473588	1.854502	-0.000219
1099	1.0925e+02	-3.7475	-16.249471	0.000507	5.068137	1.717131	-0.000203
1100	1.0935e+02	-3.7796	-16.451328	0.000507	5.068137	1.717131	-0.000203
1101	1.0945e+02	-3.8325	-16.685482	0.000588	5.879039	1.991872	-0.000235
1102	1.0955e+02	-3.8662	-16.859079	0.000436	4.358598	1.476733	-0.000174
1103	1.0965e+02	-3.9063	-17.089196	0.000578	5.777677	1.957530	-0.000231
1104	1.0975e+02	-3.9496	-17.287015	0.000497	4.966775	1.682789	-0.000199
1105	1.0985e+02	-3.9929	-17.444464	0.000395	3.953147	1.339363	-0.000158
1106	1.0995e+02	-4.0202	-17.710914	0.000669	6.689941	2.266613	-0.000268
1107	1.1005e+02	-4.0603	-17.884511	0.000436	4.358598	1.476733	-0.000174
1108	1.1015e+02	-4.1004	-18.090405	0.000517	5.169500	1.751474	-0.000207
1109	1.1025e+02	-4.1502	-18.292262	0.000507	5.068137	1.717131	-0.000203
1110	1.1035e+02	-4.1887	-18.518342	0.000568	5.676314	1.923187	-0.000227
1111	1.1044e+02	-4.2272	-18.700013	0.000456	4.561324	1.545418	-0.000183
1112	1.1054e+02	-4.2641	-18.901870	0.000507	5.068137	1.717131	-0.000203
1113	1.1064e+02	-4.3074	-19.119875	0.000547	5.473588	1.854502	-0.000219
1114	1.1074e+02	-4.3475	-19.341917	0.000557	5.574951	1.888845	-0.000223
1115	1.1084e+02	-4.3812	-19.495328	0.000385	3.851784	1.305020	-0.000154
1116	1.1094e+02	-4.4181	-19.697185	0.000507	5.068137	1.717131	-0.000203
1117	1.1104e+02	-4.4646	-19.931339	0.000588	5.879039	1.991872	-0.000235
1118	1.1114e+02	-4.5047	-20.173567	0.000608	6.081765	2.060558	-0.000243
1119	1.1124e+02	-4.5416	-20.339090	0.000416	4.155873	1.408048	-0.000166
1120	1.1134e+02	-4.5961	-20.565169	0.000568	5.676314	1.923187	-0.000227
1121	1.1144e+02	-4.6282	-20.718581	0.000385	3.851784	1.305020	-0.000154
1122	1.1154e+02	-4.6619	-20.948697	0.000578	5.777677	1.957530	-0.000231
1123	1.1164e+02	-4.7036	-21.211111	0.000659	6.588579	2.232271	-0.000264
1124	1.1174e+02	-4.7357	-21.340300	0.000324	3.243608	1.098964	-0.000130
1125	1.1184e+02	-4.7774	-21.566379	0.000568	5.676314	1.923187	-0.000227
1126	1.1194e+02	-4.8271	-21.776310	0.000527	5.270863	1.785817	-0.000211
1127	1.1204e+02	-4.8576	-21.966056	0.000476	4.764049	1.614104	-0.000191
1128	1.1214e+02	-4.8977	-22.159838	0.000487	4.865412	1.648446	-0.000195
1129	1.1224e+02	-4.9426	-22.393992	0.000588	5.879039	1.991872	-0.000235
1130	1.1234e+02	-4.9795	-22.563552	0.000426	4.257235	1.442390	-0.000170
1131	1.1244e+02	-5.0261	-22.805780	0.000608	6.081765	2.060558	-0.000243
1132	1.1253e+02	-5.0598	-23.011674	0.000517	5.169500	1.751474	-0.000207
1133	1.1263e+02	-5.1015	-23.209493	0.000497	4.966775	1.682789	-0.000199
1134	1.1273e+02	-5.1384	-23.391164	0.000456	4.561324	1.545418	-0.000183
1135	1.1283e+02	-5.1801	-23.593021	0.000507	5.068137	1.717131	-0.000203
1136	1.1293e+02	-5.2266	-23.794878	0.000507	5.068137	1.717131	-0.000203
1137	1.1303e+02	-5.2635	-24.016921	0.000557	5.574951	1.888845	-0.000223
1138	1.1313e+02	-5.3004	-24.202629	0.000466	4.662686	1.579761	-0.000187
1139	1.1323e+02	-5.3421	-24.436783	0.000588	5.879039	1.991872	-0.000235
1140	1.1333e+02	-5.3822	-24.638639	0.000507	5.068137	1.717131	-0.000203
1141	1.1343e+02	-5.4271	-24.840496	0.000507	5.068137	1.717131	-0.000203
1142	1.1353e+02	-5.4592	-25.038316	0.000497	4.966775	1.682789	-0.000199
1143	1.1363e+02	-5.5057	-25.244210	0.000517	5.169500	1.751474	-0.000207
1144	1.1373e+02	-5.5426	-25.413769	0.000426	4.257235	1.442390	-0.000170
1145	1.1383e+02	-5.5875	-25.660035	0.000618	6.183128	2.094900	-0.000248
1146	1.1393e+02	-5.6164	-25.825557	0.000416	4.155873	1.408048	-0.000166
1147	1.1403e+02	-5.6662	-26.051637	0.000568	5.676314	1.923187	-0.000227
1148	1.1413e+02	-5.7014	-26.225234	0.000436	4.358598	1.476733	-0.000174
1149	1.1423e+02	-5.7415	-26.451313	0.000568	5.676314	1.923187	-0.000227
1150	1.1433e+02	-5.7865	-26.665282	0.000537	5.372226	1.820159	-0.000215
1151	1.1442e+02	-5.8186	-26.822730	0.000395	3.953147	1.339363	-0.000158
1152	1.1452e+02	-5.8603	-27.048809	0.000568	5.676314	1.923187	-0.000227
1153	1.1462e+02	-5.8956	-27.234518	0.000466	4.662686	1.579761	-0.000187
1154	1.1472e+02	-5.9373	-27.436374	0.000507	5.068137	1.717131	-0.000203
1155	1.1482e+02	-5.9822	-27.642268	0.000517	5.169500	1.751474	-0.000207
1156	1.1492e+02	-6.0207	-27.844125	0.000507	5.068137	1.717131	-0.000203
1157	1.1502e+02	-6.0592	-28.033871	0.000476	4.764049	1.614104	-0.000191
1158	1.1512e+02	-6.1025	-28.263987	0.000578	5.777677	1.957530	-0.000231
1159	1.1522e+02	-6.1378	-28.429510	0.000416	4.155873	1.408048	-0.000166
1160	1.1532e+02	-6.1827	-28.627330	0.000497	4.966775	1.682789	-0.000199
1161	1.1542e+02	-6.2148	-28.841298	0.000537	5.372226	1.820159	-0.000215
1162	1.1552e+02	-6.2709	-29.055266	0.000537	5.372226	1.820159	-0.000215
1163	1.1562e+02	-6.2998	-29.273271	0.000547	5.473588	1.854502	-0.000219
1164	1.1572e+02	-6.3287	-29.430720	0.000395	3.953147	1.339363	-0.000158
1165	1.1582e+02	-6.3784	-29.628539	0.000497	4.966775	1.682789	-0.000199
1166	1.1592e+02	-6.4250	-29.834433	0.000517	5.169500	1.751474	-0.000207
1167	1.1602e+02	-6.4474	-29.995919	0.000405	4.054510	1.373705	-0.000162
1168	1.1612e+02	-6.4971	-30.217961	0.000557	5.574951	1.888845	-0.000223
1169	1.1622e+02	-6.5276	-30.452115	0.000588	5.879039	1.991872	-0.000235
1170	1.1632e+02	-6.5709	-30.629749	0.000446	4.459961	1.511076	-0.000179
1171	1.1642e+02	-6.6126	-30.855828	0.000568	5.676314	1.923187	-0.000227
1172	1.1651e+02	-6.6495	-31.005202	0.000375	3.750422	1.270677	-0.000150
1173	1.1661e+02	-6.6929	-31.194948	0.000476	4.764049	1.614104	-0.000191
1174	1.1671e+02	-6.7410	-31.384693	0.000476	4.764049	1.614104	-0.000191
1175	1.1681e+02	-6.7683	-31.634996	0.000628	6.284490	2.129243	-0.000252
1176	1.1691e+02	-6.8212	-31.780333	0.000365	3.649059	1.236335	-0.000146
1177	1.1701e+02	-6.8549	-32.034672	0.000639	6.385853	2.163586	-0.000256
1178	1.1711e+02	-6.8918	-32.200195	0.000416	4.155873	1.408048	-0.000166
1179	1.1721e+02	-6.9415	-32.406089	0.000517	5.169500	1.751474	-0.000207
1180	1.1731e+02	-6.9656	-32.559500	0.000385	3.851784	1.305020	-0.000154
1181	1.1741e+02	-7.0105	-32.797691	0.000598	5.980402	2.026215	-0.000239
1182	1.1751e+02	-7.0554	-32.967250	0.000426	4.257235	1.442390	-0.000170
1183	1.1761e+02	-7.0923	-33.213516	0.000618	6.183128	2.094900	-0.000248
1184	1.1771e+02	-7.1276	-33.379038	0.000416	4.155873	1.408048	-0.000166
1185	1.1781e+02	-7.1757	-33.597044	0.000547	5.473588	1.854502	-0.000219
1186	1.1791e+02	-7.2110	-33.734306	0.000345	3.446333	1.167649	-0.000138
1187	1.1801e+02	-7.2592	-33.960386	0.000568	5.676314	1.923187	-0.000227
1188	1.1811e+02	-7.2928	-34.154168	0.000487	4.865412	1.648446	-0.000195
1189	1.1821e+02	-7.3378	-34.327765	0.000436	4.358598	1.476733	-0.000174
1190	1.1831e+02	-7.3714	-34.537696	0.000527	5.270863	1.785817	-0.000211
1191	1.1841e+02	-7.4116	-34.735516	0.000497	4.966775	1.682789	-0.000199
1192	1.1850e+02	-7.4468	-34.925261	0.000476	4.764049	1.614104	-0.000191
1193	1.1860e+02	-7.4934	-35.094821	0.000426	4.257235	1.442390	-0.000170
1194	1.1870e+02	-7.5255	-35.264381	0.000426	4.257235	1.442390	-0.000170
1195	1.1880e+02	-7.5656	-35.442015	0.000446	4.459961	1.511076	-0.000179
1196	1.1890e+02	-7.6121	-35.708466	0.000669	6.689941	2.266613	-0.000268
1197	1.1900e+02	-7.6458	-35.898211	0.000476	4.764049	1.614104	-0.000191
1198	1.1910e+02	-7.6907	-36.075845	0.000446	4.459961	1.511076	-0.000179
1199	1.1920e+02	-7.7356	-36.289813	0.000537	5.372226	1.820159	-0.000215
1200	1.1930e+02	-7.7677	-36.463410	0.000436	4.358598	1.476733	-0.000174
1201	1.1940e+02	-7.8014	-36.637007	0.000436	4.358598	1.476733	-0.000174
1202	1.1950e+02	-7.8495	-36.818678	0.000456	4.561324	1.545418	-0.000183
1203	1.1960e+02	-7.8816	-37.048795	0.000578	5.777677	1.957530	-0.000231
1204	1.1970e+02	-7.9265	-37.202206	0.000385	3.851784	1.305020	-0.000154
1205	1.1980e+02	-7.9682	-37.367728	0.000416	4.155873	1.408048	-0.000166
1206	1.1990e+02	-8.0083	-37.605919	0.000598	5.980402	2.026215	-0.000239
1207	1.2000e+02	-8.0484	-37.807776	0.000507	5.068137	1.717131	-0.000203
1208	1.2010e+02	-8.0918	-37.973299	0.000416	4.155873	1.408048	-0.000166
1209	1.2020e+02	-8.1286	-38.183230	0.000527	5.270863	1.785817	-0.000211
1210	1.2030e+02	-8.1688	-38.372975	0.000476	4.764049	1.614104	-0.000191
1211	1.2039e+02	-8.1992	-38.578869	0.000517	5.169500	1.751474	-0.000207
1212	1.2049e+02	-8.2586	-38.732280	0.000385	3.851784	1.305020	-0.000154
1213	1.2059e+02	-8.2971	-38.901840	0.000426	4.257235	1.442390	-0.000170
1214	1.2069e+02	-8.3276	-39.079474	0.000446	4.459961	1.511076	-0.000179
1215	1.2079e+02	-8.3597	-39.309591	0.000578	5.777677	1.957530	-0.000231
1216	1.2089e+02	-8.4078	-39.454928	0.000365	3.649059	1.236335	-0.000146
1217	1.2099e+02	-8.4479	-39.644673	0.000476	4.764049	1.614104	-0.000191
1218	1.2109e+02	-8.4832	-39.858641	0.000537	5.372226	1.820159	-0.000215
1219	1.2119e+02	-8.5249	-40.064535	0.000517	5.169500	1.751474	-0.000207
1220	1.2129e+02	-8.5682	-40.262355	0.000497	4.966775	1.682789	-0.000199
1221	1.2139e+02	-8.6051	-40.391543	0.000324	3.243608	1.098964	-0.000130
1222	1.2149e+02	-8.6516	-40.613586	0.000557	5.574951	1.888845	-0.000223
1223	1.2159e+02	-8.6805	-40.783145	0.000426	4.257235	1.442390	-0.000170
1224	1.2169e+02	-8.7270	-40.985002	0.000507	5.068137	1.717131	-0.000203
1225	1.2179e+02	-8.7623	-41.170710	0.000466	4.662686	1.579761	-0.000187
1226	1.2189e+02	-8.7992	-41.356419	0.000466	4.662686	1.579761	-0.000187
1227	1.2199e+02	-8.8409	-41.530015	0.000436	4.358598	1.476733	-0.000174
1228	1.2209e+02	-8.8762	-41.715724	0.000466	4.662686	1.579761	-0.000187
1229	1.2219e+02	-8.9276	-41.925655	0.000527	5.270863	1.785817	-0.000211
1230	1.2229e+02	-8.9645	-42.066954	0.000355	3.547696	1.201992	-0.000142
1231	1.2239e+02	-9.0014	-42.288997	0.000557	5.574951	1.888845	-0.000223
1232	1.2248e+02	-9.0415	-42.458557	0.000426	4.257235	1.442390	-0.000170
1233	1.2258e+02	-9.0944	-42.620042	0.000405	4.054510	1.373705	-0.000162
1234	1.2268e+02	-9.1185	-42.809787	0.000476	4.764049	1.614104	-0.000191
1235	1.2278e+02	-9.1650	-43.011644	0.000507	5.068137	1.717131	-0.000203
1236	1.2288e+02	-9.2035	-43.229649	0.000547	5.473588	1.854502	-0.000219
1237	1.2298e+02	-9.2468	-43.395172	0.000416	4.155873	1.408048	-0.000166
1238	1.2308e+02	-9.2853	-43.580880	0.000466	4.662686	1.579761	-0.000187
1239	1.2318e+02	-9.3222	-43.766589	0.000466	4.662686	1.579761	-0.000187
1240	1.2328e+02	-9.3655	-43.956334	0.000476	4.764049	1.614104	-0.000191
1241	1.2338e+02	-9.4008	-44.146079	0.000476	4.764049	1.614104	-0.000191
1242	1.2348e+02	-9.4409	-44.323713	0.000446	4.459961	1.511076	-0.000179
1243	1.2358e+02	-9.4826	-44.537681	0.000537	5.372226	1.820159	-0.000215
1244	1.2368e+02	-9.5179	-44.703204	0.000416	4.155873	1.408048	-0.000166
1245	1.2378e+02	-9.5628	-44.917172	0.000537	5.372226	1.820159	-0.000215
1246	1.2388e+02	-9.5981	-45.058472	0.000355	3.547696	1.201992	-0.000142
1247	1.2398e+02	-9.6430	-45.268403	0.000527	5.270863	1.785817	-0.000211
1248	1.2408e+02	-9.6880	-45.474297	0.000517	5.169500	1.751474	-0.000207
1249	1.2418e+02	-9.7217	-45.615597	0.000355	3.547696	1.201992	-0.000142
1250	1.2428e+02	-9.7537	-45.777082	0.000405	4.054510	1.373705	-0.000162
1251	1.2438e+02	-9.7987	-45.974902	0.000497	4.966775	1.682789	-0.000199
1252	1.2447e+02	-9.8404	-46.156573	0.000456	4.561324	1.545418	-0.000183
1253	1.2457e+02	-9.8837	-46.354393	0.000497	4.966775	1.682789	-0.000199
1254	1.2467e+02	-9.9174	-46.523952	0.000426	4.257235	1.442390	-0.000170
1255	1.2477e+02	-9.9607	-46.741958	0.000547	5.473588	1.854502	-0.000219
1256	1.2487e+02	-9.9896	-46.947851	0.000517	5.169500	1.751474	-0.000207
1257	1.2497e+02	-10.0313	-47.129523	0.000456	4.561324	1.545418	-0.000183
1258	1.2507e+02	-10.0778	-47.262748	0.000334	3.344971	1.133307	-0.000134
1259	1.2517e+02	-10.1243	-47.460568	0.000497	4.966775	1.682789	-0.000199
1260	1.2527e+02	-10.1596	-47.686647	0.000568	5.676314	1.923187	-0.000227
1261	1.2537e+02	-10.1965	-47.807761	0.000304	3.040882	1.030279	-0.000122
1262	1.2547e+02	-10.2318	-48.066138	0.000649	6.487216	2.197928	-0.000260
1263	1.2557e+02	-10.2783	-48.239735	0.000436	4.358598	1.476733	-0.000174
1264	1.2567e+02	-10.3216	-48.385072	0.000365	3.649059	1.236335	-0.000146
1265	1.2577e+02	-10.3537	-48.570780	0.000466	4.662686	1.579761	-0.000187
1266	1.2587e+02	-10.3986	-48.776674	0.000517	5.169500	1.751474	-0.000207
1267	1.2597e+02	-10.4403	-48.970457	0.000487	4.865412	1.648446	-0.000195
1268	1.2607e+02	-10.4772	-49.152128	0.000456	4.561324	1.545418	-0.000183
1269	1.2617e+02	-10.5206	-49.366096	0.000537	5.372226	1.820159	-0.000215
1270	1.2627e+02	-10.5639	-49.527581	0.000405	4.054510	1.373705	-0.000162
1271	1.2636e+02	-10.6024	-49.685030	0.000395	3.953147	1.339363	-0.000158
1272	1.2646e+02	-10.6393	-49.907072	0.000557	5.574951	1.888845	-0.000223
1273	1.2656e+02	-10.6794	-50.044335	0.000345	3.446333	1.167649	-0.000138
1274	1.2666e+02	-10.7179	-50.250229	0.000517	5.169500	1.751474	-0.000207
1275	1.2676e+02	-10.7580	-50.444011	0.000487	4.865412	1.648446	-0.000195
1276	1.2686e+02	-10.8045	-50.649905	0.000517	5.169500	1.751474	-0.000207
1277	1.2696e+02	-10.8398	-50.783130	0.000334	3.344971	1.133307	-0.000134
1278	1.2706e+02	-10.8703	-50.984987	0.000507	5.068137	1.717131	-0.000203
1279	1.2716e+02	-10.9136	-51.158584	0.000436	4.358598	1.476733	-0.000174
1280	1.2726e+02	-10.9617	-51.356404	0.000497	4.966775	1.682789	-0.000199
1281	1.2736e+02	-11.0018	-51.530001	0.000436	4.358598	1.476733	-0.000174
1282	1.2746e+02	-11.0323	-51.731857	0.000507	5.068137	1.717131	-0.000203
1283	1.2756e+02	-11.0852	-51.905454	0.000436	4.358598	1.476733	-0.000174
1284	1.2766e+02	-11.1125	-52.075014	0.000426	4.257235	1.442390	-0.000170
1285	1.2776e+02	-11.1542	-52.252648	0.000446	4.459961	1.511076	-0.000179
1286	1.2786e+02	-11.1911	-52.466616	0.000537	5.372226	1.820159	-0.000215
1287	1.2796e+02	-11.2328	-52.644250	0.000446	4.459961	1.511076	-0.000179
1288	1.2806e+02	-11.2745	-52.817847	0.000436	4.358598	1.476733	-0.000174
1289	1.2816e+02	-11.3179	-52.975295	0.000395	3.953147	1.339363	-0.000158
1290	1.2826e+02	-11.3516	-53.201375	0.000568	5.676314	1.923187	-0.000227
1291	1.2835e+02	-11.3949	-53.379009	0.000446	4.459961	1.511076	-0.000179
1292	1.2845e+02	-11.4334	-53.560680	0.000456	4.561324	1.545418	-0.000183
1293	1.2855e+02	-11.4783	-53.754462	0.000487	4.865412	1.648446	-0.000195
1294	1.2865e+02	-11.5072	-53.887688	0.000334	3.344971	1.133307	-0.000134
1295	1.2875e+02	-11.5473	-54.125879	0.000598	5.980402	2.026215	-0.000239
1296	1.2885e+02	-11.5922	-54.303513	0.000446	4.459961	1.511076	-0.000179
1297	1.2895e+02	-11.6371	-54.456924	0.000385	3.851784	1.305020	-0.000154
1298	1.2905e+02	-11.6708	-54.642632	0.000466	4.662686	1.579761	-0.000187
1299	1.2915e+02	-11.7013	-54.828340	0.000466	4.662686	1.579761	-0.000187
1300	1.2925e+02	-11.7446	-55.010012	0.000456	4.561324	1.545418	-0.000183
1301	1.2935e+02	-11.7927	-55.199757	0.000476	4.764049	1.614104	-0.000191
1302	1.2945e+02	-11.8248	-55.349131	0.000375	3.750422	1.270677	-0.000150
1303	1.2955e+02	-11.8665	-55.555025	0.000517	5.169500	1.751474	-0.000207
1304	1.2965e+02	-11.9146	-55.728622	0.000436	4.358598	1.476733	-0.000174
1305	1.2975e+02	-11.9483	-55.938553	0.000527	5.270863	1.785817	-0.000211
1306	1.2985e+02	-11.9836	-56.104075	0.000416	4.155873	1.408048	-0.000166
1307	1.2995e+02	-12.0350	-56.297858	0.000487	4.865412	1.648446	-0.000195
1308	1.3005e+02	-12.0751	-56.479529	0.000456	4.561324	1.545418	-0.000183
1309	1.3015e+02	-12.1168	-56.628903	0.000375	3.750422	1.270677	-0.000150
1310	1.3025e+02	-12.1617	-56.846908	0.000547	5.473588	1.854502	-0.000219
1311	1.3034e+02	-12.1970	-57.012431	0.000416	4.155873	1.408048	-0.000166
1312	1.3044e+02	-12.2339	-57.210251	0.000497	4.966775	1.682789	-0.000199
1313	1.3054e+02	-12.2660	-57.375773	0.000416	4.155873	1.408048	-0.000166
1314	1.3064e+02	-12.3077	-57.553407	0.000446	4.459961	1.511076	-0.000179
1315	1.3074e+02	-12.3414	-57.787561	0.000588	5.879039	1.991872	-0.000235
1316	1.3084e+02	-12.3847	-57.916749	0.000324	3.243608	1.098964	-0.000130
1317	1.3094e+02	-12.4392	-58.074198	0.000395	3.953147	1.339363	-0.000158
1318	1.3104e+02	-12.4841	-58.296240	0.000557	5.574951	1.888845	-0.000223
1319	1.3114e+02	-12.5146	-58.498097	0.000507	5.068137	1.717131	-0.000203
1320	1.3124e+02	-12.5531	-58.691879	0.000487	4.865412	1.648446	-0.000195
1321	1.3134e+02	-12.5868	-58.841253	0.000375	3.750422	1.270677	-0.000150
1322	1.3144e+02	-12.6398	-59.030999	0.000476	4.764049	1.614104	-0.000191
1323	1.3154e+02	-12.6670	-59.172299	0.000355	3.547696	1.201992	-0.000142
1324	1.3164e+02	-12.7087	-59.402415	0.000578	5.777677	1.957530	-0.000231
1325	1.3174e+02	-12.7633	-59.499307	0.000243	2.432706	0.824223	-0.000097
1326	1.3184e+02	-12.7938	-59.717312	0.000547	5.473588	1.854502	-0.000219
1327	1.3194e+02	-12.8307	-59.911094	0.000487	4.865412	1.648446	-0.000195
1328	1.3204e+02	-12.8724	-60.088728	0.000446	4.459961	1.511076	-0.000179
1329	1.3214e+02	-12.9077	-60.254251	0.000416	4.155873	1.408048	-0.000166
1330	1.3224e+02	-12.9510	-60.468219	0.000537	5.372226	1.820159	-0.000215
1331	1.3234e+02	-12.9879	-60.621630	0.000385	3.851784	1.305020	-0.000154
1332	1.3243e+02	-13.0360	-60.795227	0.000436	4.358598	1.476733	-0.000174
1333	1.3253e+02	-13.0633	-61.005158	0.000527	5.270863	1.785817	-0.000211
1334	1.3263e+02	-13.1066	-61.166644	0.000405	4.054510	1.373705	-0.000162
1335	1.3273e+02	-13.1467	-61.344278	0.000446	4.459961	1.511076	-0.000179
1336	1.3283e+02	-13.1820	-61.493652	0.000375	3.750422	1.270677	-0.000150
1337	1.3293e+02	-13.2365	-61.691471	0.000497	4.966775	1.682789	-0.000199
1338	1.3303e+02	-13.2590	-61.865068	0.000436	4.358598	1.476733	-0.000174
1339	1.3313e+02	-13.3007	-62.038665	0.000436	4.358598	1.476733	-0.000174
1340	1.3323e+02	-13.3376	-62.212262	0.000436	4.358598	1.476733	-0.000174
1341	1.3333e+02	-13.3873	-62.389896	0.000446	4.459961	1.511076	-0.000179
1342	1.3343e+02	-13.4274	-62.527158	0.000345	3.446333	1.167649	-0.000138
1343	1.3353e+02	-13.4707	-62.753238	0.000568	5.676314	1.923187	-0.000227
1344	1.3363e+02	-13.4948	-62.874352	0.000304	3.040882	1.030279	-0.000122
1345	1.3373e+02	-13.5510	-63.096394	0.000557	5.574951	1.888845	-0.000223
1346	1.3383e+02	-13.5830	-63.274028	0.000446	4.459961	1.511076	-0.000179
1347	1.3393e+02	-13.6199	-63.439551	0.000416	4.155873	1.408048	-0.000166
1348	1.3403e+02	-13.6649	-63.613148	0.000436	4.358598	1.476733	-0.000174
1349	1.3413e+02	-13.7018	-63.770596	0.000395	3.953147	1.339363	-0.000158
1350	1.3423e+02	-13.7419	-63.960341	0.000476	4.764049	1.614104	-0.000191
1351	1.3432e+02	-13.7852	-64.137975	0.000446	4.459961	1.511076	-0.000179
1352	1.3442e+02	-13.8173	-64.368092	0.000578	5.777677	1.957530	-0.000231
1353	1.3452e+02	-13.8622	-64.452872	0.000213	2.128618	0.721195	-0.000085
1354	1.3462e+02	-13.9071	-64.650692	0.000497	4.966775	1.682789	-0.000199
1355	1.3472e+02	-13.9376	-64.860623	0.000527	5.270863	1.785817	-0.000211
1356	1.3482e+02	-13.9857	-64.993848	0.000334	3.344971	1.133307	-0.000134
1357	1.3492e+02	-14.0210	-65.143222	0.000375	3.750422	1.270677	-0.000150
1358	1.3502e+02	-14.0563	-65.349116	0.000517	5.169500	1.751474	-0.000207
1359	1.3512e+02	-14.1060	-65.534824	0.000466	4.662686	1.579761	-0.000187
1360	1.3522e+02	-14.1397	-65.676124	0.000355	3.547696	1.201992	-0.000142
1361	1.3532e+02	-14.1862	-65.886055	0.000527	5.270863	1.785817	-0.000211
1362	1.3542e+02	-14.2279	-66.031392	0.000365	3.649059	1.236335	-0.000146
1363	1.3552e+02	-14.2616	-66.160580	0.000324	3.243608	1.098964	-0.000130
1364	1.3562e+02	-14.3065	-66.358400	0.000497	4.966775	1.682789	-0.000199
1365	1.3572e+02	-14.3450	-66.544108	0.000466	4.662686	1.579761	-0.000187
1366	1.3582e+02	-14.3852	-66.709631	0.000416	4.155873	1.408048	-0.000166
1367	1.3592e+02	-14.4156	-66.883228	0.000436	4.358598	1.476733	-0.000174
1368	1.3602e+02	-14.4493	-67.056825	0.000436	4.358598	1.476733	-0.000174
1369	1.3612e+02	-14.5023	-67.254644	0.000497	4.966775	1.682789	-0.000199
1370	1.3622e+02	-14.5456	-67.363647	0.000274	2.736794	0.927251	-0.000110
1371	1.3631e+02	-14.5745	-67.573578	0.000527	5.270863	1.785817	-0.000211
1372	1.3641e+02	-14.6306	-67.751212	0.000446	4.459961	1.511076	-0.000179
1373	1.3651e+02	-14.6643	-67.912697	0.000405	4.054510	1.373705	-0.000162
1374	1.3661e+02	-14.6948	-68.058034	0.000365	3.649059	1.236335	-0.000146
1375	1.3671e+02	-14.7477	-68.263928	0.000517	5.169500	1.751474	-0.000207
1376	1.3681e+02	-14.7814	-68.445599	0.000456	4.561324	1.545418	-0.000183
1377	1.3691e+02	-14.8215	-68.586899	0.000355	3.547696	1.201992	-0.000142
1378	1.3701e+02	-14.8680	-68.736273	0.000375	3.750422	1.270677	-0.000150
1379	1.3711e+02	-14.8985	-68.897759	0.000405	4.054510	1.373705	-0.000162
1380	1.3721e+02	-14.9402	-69.103652	0.000517	5.169500	1.751474	-0.000207
1381	1.3731e+02	-14.9819	-69.248989	0.000365	3.649059	1.236335	-0.000146
1382	1.3741e+02	-15.0204	-69.406438	0.000395	3.953147	1.339363	-0.000158
1383	1.3751e+02	-15.0589	-69.555812	0.000375	3.750422	1.270677	-0.000150
1384	1.3761e+02	-15.0990	-69.773817	0.000547	5.473588	1.854502	-0.000219
1385	1.3771e+02	-15.1359	-69.951451	0.000446	4.459961	1.511076	-0.000179
1386	1.3781e+02	-15.1809	-70.096788	0.000365	3.649059	1.236335	-0.000146
1387	1.3791e+02	-15.2161	-70.266348	0.000426	4.257235	1.442390	-0.000170
1388	1.3801e+02	-15.2530	-70.403610	0.000345	3.446333	1.167649	-0.000138
1389	1.3811e+02	-15.2948	-70.577207	0.000436	4.358598	1.476733	-0.000174
1390	1.3821e+02	-15.3413	-70.795212	0.000547	5.473588	1.854502	-0.000219
1391	1.3831e+02	-15.3846	-70.968809	0.000436	4.358598	1.476733	-0.000174
1392	1.3840e+02	-15.4135	-71.093960	0.000314	3.142245	1.064621	-0.000126
1393	1.3850e+02	-15.4616	-71.259483	0.000416	4.155873	1.408048	-0.000166
1394	1.3860e+02	-15.4969	-71.412894	0.000385	3.851784	1.305020	-0.000154
1395	1.3870e+02	-15.5450	-71.602639	0.000476	4.764049	1.614104	-0.000191
1396	1.3880e+02	-15.5883	-71.784311	0.000456	4.561324	1.545418	-0.000183
1397	1.3890e+02	-15.6140	-71.965982	0.000456	4.561324	1.545418	-0.000183
1398	1.3900e+02	-15.6557	-72.083059	0.000294	2.939520	0.995936	-0.000118
1399	1.3910e+02	-15.6958	-72.276841	0.000487	4.865412	1.648446	-0.000195
1400	1.3920e+02	-15.7295	-72.438327	0.000405	4.054510	1.373705	-0.000162
1401	1.3930e+02	-15.7760	-72.611923	0.000436	4.358598	1.476733	-0.000174
1402	1.3940e+02	-15.8177	-72.785520	0.000436	4.358598	1.476733	-0.000174
1403	1.3950e+02	-15.8578	-72.955080	0.000426	4.257235	1.442390	-0.000170
1404	1.3960e+02	-15.8931	-73.108491	0.000385	3.851784	1.305020	-0.000154
1405	1.3970e+02	-15.9348	-73.282088	0.000436	4.358598	1.476733	-0.000174
1406	1.3980e+02	-15.9814	-73.451648	0.000426	4.257235	1.442390	-0.000170
1407	1.3990e+02	-16.0167	-73.601022	0.000375	3.750422	1.270677	-0.000150
1408	1.4000e+02	-16.0503	-73.742321	0.000355	3.547696	1.201992	-0.000142
1409	1.4010e+02	-16.0969	-73.895733	0.000385	3.851784	1.305020	-0.000154
1410	1.4020e+02	-16.1322	-74.113738	0.000547	5.473588	1.854502	-0.000219
1411	1.4029e+02	-16.1883	-74.283298	0.000426	4.257235	1.442390	-0.000170
1412	1.4039e+02	-16.2140	-74.444783	0.000405	4.054510	1.373705	-0.000162
1413	1.4049e+02	-16.2477	-74.569934	0.000314	3.142245	1.064621	-0.000126
1414	1.4059e+02	-16.2974	-74.779865	0.000527	5.270863	1.785817	-0.000211
1415	1.4069e+02	-16.3391	-74.937314	0.000395	3.953147	1.339363	-0.000158
1416	1.4079e+02	-16.3712	-75.098799	0.000405	4.054510	1.373705	-0.000162
1417	1.4089e+02	-16.4161	-75.328916	0.000578	5.777677	1.957530	-0.000231
1418	1.4099e+02	-16.4482	-75.466178	0.000345	3.446333	1.167649	-0.000138
1419	1.4109e+02	-16.4947	-75.627664	0.000405	4.054510	1.373705	-0.000162
1420	1.4119e+02	-16.5332	-75.829521	0.000507	5.068137	1.717131	-0.000203
1421	1.4129e+02	-16.5830	-76.011192	0.000456	4.561324	1.545418	-0.000183
1422	1.4139e+02	-16.6150	-76.192863	0.000456	4.561324	1.545418	-0.000183
1423	1.4149e+02	-16.6455	-76.318014	0.000314	3.142245	1.064621	-0.000126
1424	1.4159e+02	-16.6920	-76.511797	0.000487	4.865412	1.648446	-0.000195
1425	1.4169e+02	-16.7321	-76.685393	0.000436	4.358598	1.476733	-0.000174
1426	1.4179e+02	-16.7771	-76.854953	0.000426	4.257235	1.442390	-0.000170
1427	1.4189e+02	-16.8108	-76.984141	0.000324	3.243608	1.098964	-0.000130
1428	1.4199e+02	-16.8509	-77.218295	0.000588	5.879039	1.991872	-0.000235
1429	1.4209e+02	-16.8958	-77.379781	0.000405	4.054510	1.373705	-0.000162
1430	1.4219e+02	-16.9343	-77.553378	0.000436	4.358598	1.476733	-0.000174
1431	1.4228e+02	-16.9744	-77.731012	0.000446	4.459961	1.511076	-0.000179
1432	1.4238e+02	-17.0033	-77.900571	0.000426	4.257235	1.442390	-0.000170
1433	1.4248e+02	-17.0482	-78.102428	0.000507	5.068137	1.717131	-0.000203
1434	1.4258e+02	-17.0883	-78.300248	0.000497	4.966775	1.682789	-0.000199
1435	1.4268e+02	-17.1412	-78.473844	0.000436	4.358598	1.476733	-0.000174
1436	1.4278e+02	-17.1733	-78.651478	0.000446	4.459961	1.511076	-0.000179
1437	1.4288e+02	-17.2086	-78.861410	0.000527	5.270863	1.785817	-0.000211
1438	1.4298e+02	-17.2567	-79.022895	0.000405	4.054510	1.373705	-0.000162
1439	1.4308e+02	-17.2936	-79.164195	0.000355	3.547696	1.201992	-0.000142
1440	1.4318e+02	-17.3273	-79.418534	0.000639	6.385853	2.163586	-0.000256
1441	1.4328e+02	-17.3642	-79.563871	0.000365	3.649059	1.236335	-0.000146
1442	1.4338e+02	-17.4172	-79.769765	0.000517	5.169500	1.751474	-0.000207
1443	1.4348e+02	-17.4508	-79.955473	0.000466	4.662686	1.579761	-0.000187
1444	1.4358e+02	-17.4893	-80.129070	0.000436	4.358598	1.476733	-0.000174
1445	1.4368e+02	-17.5246	-80.322853	0.000487	4.865412	1.648446	-0.000195
1446	1.4378e+02	-17.5663	-80.532784	0.000527	5.270863	1.785817	-0.000211
1447	1.4388e+02	-17.6193	-80.734640	0.000507	5.068137	1.717131	-0.000203
1448	1.4398e+02	-17.6530	-80.920349	0.000466	4.662686	1.579761	-0.000187
1449	1.4408e+02	-17.6883	-81.097983	0.000446	4.459961	1.511076	-0.000179
1450	1.4418e+02	-17.7412	-81.307914	0.000527	5.270863	1.785817	-0.000211
1451	1.4428e+02	-17.7749	-81.489585	0.000456	4.561324	1.545418	-0.000183
1452	1.4437e+02	-17.8070	-81.651070	0.000405	4.054510	1.373705	-0.000162
1453	1.4447e+02	-17.8519	-81.925596	0.000689	6.892667	2.335299	-0.000276
1454	1.4457e+02	-17.8856	-82.079007	0.000385	3.851784	1.305020	-0.000154
1455	1.4467e+02	-17.9225	-82.309123	0.000578	5.777677	1.957530	-0.000231
1456	1.4477e+02	-17.9690	-82.515017	0.000517	5.169500	1.751474	-0.000207
1457	1.4487e+02	-18.0171	-82.749171	0.000588	5.879039	1.991872	-0.000235
1458	1.4497e+02	-18.0412	-82.951028	0.000507	5.068137	1.717131	-0.000203
1459	1.4507e+02	-18.0877	-83.136736	0.000466	4.662686	1.579761	-0.000187
1460	1.4517e+02	-18.1262	-83.334556	0.000497	4.966775	1.682789	-0.000199
1461	1.4527e+02	-18.1695	-83.560636	0.000568	5.676314	1.923187	-0.000227
1462	1.4537e+02	-18.2113	-83.778641	0.000547	5.473588	1.854502	-0.000219
1463	1.4547e+02	-18.2433	-84.028943	0.000628	6.284490	2.129243	-0.000252
1464	1.4557e+02	-18.2834	-84.230800	0.000507	5.068137	1.717131	-0.000203
1465	1.4567e+02	-18.3203	-84.424583	0.000487	4.865412	1.648446	-0.000195
1466	1.4577e+02	-18.3685	-84.678922	0.000639	6.385853	2.163586	-0.000256
1467	1.4587e+02	-18.3973	-84.864630	0.000466	4.662686	1.579761	-0.000187
1468	1.4597e+02	-18.4439	-85.102821	0.000598	5.980402	2.026215	-0.000239
1469	1.4607e+02	-18.4904	-85.300641	0.000497	4.966775	1.682789	-0.000199
1470	1.4617e+02	-18.5273	-85.554981	0.000639	6.385853	2.163586	-0.000256
1471	1.4626e+02	-18.5658	-85.756837	0.000507	5.068137	1.717131	-0.000203
1472	1.4636e+02	-18.6059	-86.015214	0.000649	6.487216	2.197928	-0.000260
1473	1.4646e+02	-18.6508	-86.257442	0.000608	6.081765	2.060558	-0.000243
1474	1.4656e+02	-18.6845	-86.487559	0.000578	5.777677	1.957530	-0.000231
1475	1.4666e+02	-18.7278	-86.721713	0.000588	5.879039	1.991872	-0.000235
1476	1.4676e+02	-18.7647	-87.000275	0.000699	6.994030	2.369641	-0.000280
1477	1.4686e+02	-18.8000	-87.230392	0.000578	5.777677	1.957530	-0.000231
1478	1.4696e+02	-18.8433	-87.432249	0.000507	5.068137	1.717131	-0.000203
1479	1.4706e+02	-18.8818	-87.718885	0.000720	7.196755	2.438327	-0.000288
1480	1.4716e+02	-18.9187	-87.932854	0.000537	5.372226	1.820159	-0.000215
1481	1.4726e+02	-18.9636	-88.203342	0.000679	6.791304	2.300956	-0.000272
1482	1.4736e+02	-19.0037	-88.421347	0.000547	5.473588	1.854502	-0.000219
1483	1.4746e+02	-19.0471	-88.699909	0.000699	6.994030	2.369641	-0.000280
1484	1.4756e+02	-19.0775	-88.962323	0.000659	6.588579	2.232271	-0.000264
1485	1.4766e+02	-19.1241	-89.192440	0.000578	5.777677	1.957530	-0.000231
1486	1.4776e+02	-19.1610	-89.503299	0.000780	7.804932	2.644382	-0.000312
1487	1.4786e+02	-19.2123	-89.733416	0.000578	5.777677	1.957530	-0.000231
1488	1.4796e+02	-19.2508	-90.007941	0.000689	6.892667	2.335299	-0.000276
1489	1.4806e+02	-19.2797	-90.330912	0.000811	8.109020	2.747410	-0.000325
1490	1.4816e+02	-19.3246	-90.565066	0.000588	5.879039	1.991872	-0.000235
1491	1.4825e+02	-19.3663	-90.859777	0.000740	7.399481	2.507012	-0.000296
1492	1.4835e+02	-19.4016	-91.077782	0.000547	5.473588	1.854502	-0.000219
1493	1.4845e+02	-19.4529	-91.364419	0.000720	7.196755	2.438327	-0.000288
1494	1.4855e+02	-19.4834	-91.663167	0.000750	7.500843	2.541355	-0.000300
1495	1.4865e+02	-19.5235	-91.945766	0.000710	7.095392	2.403984	-0.000284
1496	1.4875e+02	-19.5508	-92.236440	0.000730	7.298118	2.472669	-0.000292
1497	1.4885e+02	-19.6037	-92.482705	0.000618	6.183128	2.094900	-0.000248
1498	1.4895e+02	-19.6422	-92.825862	0.000862	8.615834	2.919123	-0.000345
1499	1.4905e+02	-19.6839	-93.148833	0.000811	8.109020	2.747410	-0.000325
1500	1.4915e+02	-19.7176	-93.439507	0.000730	7.298118	2.472669	-0.000292
1501	1.4925e+02	-19.7658	-93.689809	0.000628	6.284490	2.129243	-0.000252
1502	1.4935e+02	-19.8026	-94.008743	0.000801	8.007657	2.713068	-0.000321
1503	1.4945e+02	-19.8347	-94.307491	0.000750	7.500843	2.541355	-0.000300
1504	1.4955e+02	-19.8780	-94.646610	0.000851	8.514471	2.884781	-0.000341
1505	1.4965e+02	-19.9198	-94.941321	0.000740	7.399481	2.507012	-0.000296
1506	1.4975e+02	-19.9647	-95.264292	0.000811	8.109020	2.747410	-0.000325
1507	1.4985e+02	-20.0032	-95.563040	0.000750	7.500843	2.541355	-0.000300
1508	1.4995e+02	-19.9518	-95.643783	-0.000203	-2.027255	-0.686853	-0.000081
1509	1.5005e+02	-19.9085	-95.692228	-0.000122	-1.216353	-0.412112	-0.000049
1510	1.5015e+02	-19.8829	-95.748748	-0.000142	-1.419078	-0.480797	-0.000057
1511	1.5025e+02	-19.8428	-95.772971	-0.000061	-0.608176	-0.206056	-0.000024
1512	1.5034e+02	-19.7914	-95.789120	-0.000041	-0.405451	-0.137371	-0.000016
1513	1.5044e+02	-19.7641	-95.825454	-0.000091	-0.912265	-0.309084	-0.000037
1514	1.5054e+02	-19.7240	-95.817380	0.000020	0.202725	0.068685	0.000008
1515	1.5064e+02	-19.6743	-95.833528	-0.000041	-0.405451	-0.137371	-0.000016
1516	1.5074e+02	-19.6390	-95.785083	0.000122	1.216353	0.412112	0.000049
1517	1.5084e+02	-19.6117	-95.829491	-0.000111	-1.114990	-0.377769	-0.000045
1518	1.5094e+02	-19.5588	-95.752785	0.000193	1.925892	0.652510	0.000077
1519	1.5104e+02	-19.5235	-95.736637	0.000041	0.405451	0.137371	0.000016
1520	1.5114e+02	-19.4738	-95.704340	0.000081	0.810902	0.274741	0.000032
1521	1.5124e+02	-19.4465	-95.647820	0.000142	1.419078	0.480797	0.000057
1522	1.5134e+02	-19.4128	-95.619560	0.000071	0.709539	0.240398	0.000028
1523	1.5144e+02	-19.3631	-95.583226	0.000091	0.912265	0.309084	0.000037
1524	1.5154e+02	-19.3134	-95.550929	0.000081	0.810902	0.274741	0.000032
1525	1.5164e+02	-19.2877	-95.478260	0.000182	1.824529	0.618167	0.000073
1526	1.5174e+02	-19.2396	-95.441926	0.000091	0.912265	0.309084	0.000037
1527	1.5184e+02	-19.2139	-95.336960	0.000264	2.635431	0.892908	0.000105
1528	1.5194e+02	-19.1658	-95.292552	0.000111	1.114990	0.377769	0.000045
1529	1.5204e+02	-19.1209	-95.248143	0.000111	1.114990	0.377769	0.000045
1530	1.5214e+02	-19.0888	-95.179512	0.000172	1.723167	0.583825	0.000069
1531	1.5224e+02	-19.0519	-95.098769	0.000203	2.027255	0.686853	0.000081
1532	1.5233e+02	-19.0102	-95.042250	0.000142	1.419078	0.480797	0.000057
1533	1.5243e+02	-18.9701	-94.925173	0.000294	2.939520	0.995936	0.000118
1534	1.5253e+02	-18.9267	-94.828281	0.000243	2.432706	0.824223	0.000097
1535	1.5263e+02	-18.8754	-94.747539	0.000203	2.027255	0.686853	0.000081
1536	1.5273e+02	-18.8481	-94.691019	0.000142	1.419078	0.480797	0.000057
1537	1.5283e+02	-18.8160	-94.602202	0.000223	2.229980	0.755538	0.000089
1538	1.5293e+02	-18.7615	-94.481088	0.000304	3.040882	1.030279	0.000122
1539	1.5303e+02	-18.7278	-94.392271	0.000223	2.229980	0.755538	0.000089
1540	1.5313e+02	-18.6861	-94.295379	0.000243	2.432706	0.824223	0.000097
1541	1.5323e+02	-18.6380	-94.214637	0.000203	2.027255	0.686853	0.000081
1542	1.5333e+02	-18.6123	-94.129857	0.000213	2.128618	0.721195	0.000085
1543	1.5343e+02	-18.5562	-94.008743	0.000304	3.040882	1.030279	0.000122
1544	1.5353e+02	-18.5289	-93.915889	0.000233	2.331343	0.789880	0.000093
1545	1.5363e+02	-18.4856	-93.863406	0.000132	1.317716	0.446454	0.000053
1546	1.5373e+02	-18.4487	-93.754403	0.000274	2.736794	0.927251	0.000110
1547	1.5383e+02	-18.4038	-93.645401	0.000274	2.736794	0.927251	0.000110
1548	1.5393e+02	-18.3685	-93.516212	0.000324	3.243608	1.098964	0.000130
1549	1.5403e+02	-18.3203	-93.431432	0.000213	2.128618	0.721195	0.000085
1550	1.5413e+02	-18.2866	-93.334541	0.000243	2.432706	0.824223	0.000097
1551	1.5422e+02	-18.2578	-93.156907	0.000446	4.459961	1.511076	0.000179
1552	1.5432e+02	-18.2048	-93.084239	0.000182	1.824529	0.618167	0.000073
1553	1.5442e+02	-18.1663	-92.979273	0.000264	2.635431	0.892908	0.000105
1554	1.5452e+02	-18.1294	-92.890456	0.000223	2.229980	0.755538	0.000089
1555	1.5462e+02	-18.0829	-92.741082	0.000375	3.750422	1.270677	0.000150
1556	1.5472e+02	-18.0476	-92.652265	0.000223	2.229980	0.755538	0.000089
1557	1.5482e+02	-18.0123	-92.559411	0.000233	2.331343	0.789880	0.000093
1558	1.5492e+02	-17.9674	-92.438297	0.000304	3.040882	1.030279	0.000122
1559	1.5502e+02	-17.9337	-92.288923	0.000375	3.750422	1.270677	0.000150
1560	1.5512e+02	-17.8904	-92.187995	0.000253	2.534069	0.858566	0.000101
1561	1.5522e+02	-17.8519	-92.066881	0.000304	3.040882	1.030279	0.000122
1562	1.5532e+02	-17.8038	-91.978064	0.000223	2.229980	0.755538	0.000089
1563	1.5542e+02	-17.7701	-91.840801	0.000345	3.446333	1.167649	0.000138
1564	1.5552e+02	-17.7220	-91.731798	0.000274	2.736794	0.927251	0.000110
1565	1.5562e+02	-17.6979	-91.590498	0.000355	3.547696	1.201992	0.000142
1566	1.5572e+02	-17.6530	-91.489570	0.000253	2.534069	0.858566	0.000101
1567	1.5582e+02	-17.6081	-91.352307	0.000345	3.446333	1.167649	0.000138
1568	1.5592e+02	-17.5663	-91.247342	0.000264	2.635431	0.892908	0.000105
1569	1.5602e+02	-17.5375	-91.102005	0.000365	3.649059	1.236335	0.000146
1570	1.5612e+02	-17.4861	-90.948594	0.000385	3.851784	1.305020	0.000154
1571	1.5622e+02	-17.4460	-90.847666	0.000253	2.534069	0.858566	0.000101
1572	1.5631e+02	-17.4043	-90.718477	0.000324	3.243608	1.098964	0.000130
1573	1.5641e+02	-17.3738	-90.633697	0.000213	2.128618	0.721195	0.000085
1574	1.5651e+02	-17.3305	-90.488360	0.000365	3.649059	1.236335	0.000146
1575	1.5661e+02	-17.2952	-90.387432	0.000253	2.534069	0.858566	0.000101
1576	1.5671e+02	-17.2487	-90.258244	0.000324	3.243608	1.098964	0.000130
1577	1.5681e+02	-17.2198	-90.137130	0.000304	3.040882	1.030279	0.000122
1578	1.5691e+02	-17.1701	-90.011978	0.000314	3.142245	1.064621	0.000126
1579	1.5701e+02	-17.1252	-89.886827	0.000314	3.142245	1.064621	0.000126
1580	1.5711e+02	-17.0947	-89.749565	0.000345	3.446333	1.167649	0.000138
1581	1.5721e+02	-17.0562	-89.620376	0.000324	3.243608	1.098964	0.000130
1582	1.5731e+02	-17.0177	-89.483114	0.000345	3.446333	1.167649	0.000138
1583	1.5741e+02	-16.9728	-89.357962	0.000314	3.142245	1.064621	0.000126
1584	1.5751e+02	-16.9343	-89.236848	0.000304	3.040882	1.030279	0.000122
1585	1.5761e+02	-16.8990	-89.127846	0.000274	2.736794	0.927251	0.000110
1586	1.5771e+02	-16.8621	-88.958286	0.000426	4.257235	1.442390	0.000170
1587	1.5781e+02	-16.8140	-88.869469	0.000223	2.229980	0.755538	0.000089
1588	1.5791e+02	-16.7690	-88.695872	0.000436	4.358598	1.476733	0.000174
1589	1.5801e+02	-16.7305	-88.611092	0.000213	2.128618	0.721195	0.000085
1590	1.5811e+02	-16.6840	-88.429421	0.000456	4.561324	1.545418	0.000183
1591	1.5821e+02	-16.6503	-88.348678	0.000203	2.027255	0.686853	0.000081
1592	1.5830e+02	-16.6150	-88.215453	0.000334	3.344971	1.133307	0.000134
1593	1.5840e+02	-16.5653	-88.053968	0.000405	4.054510	1.373705	0.000162
1594	1.5850e+02	-16.5445	-87.957076	0.000243	2.432706	0.824223	0.000097
1595	1.5860e+02	-16.4931	-87.807702	0.000375	3.750422	1.270677	0.000150
1596	1.5870e+02	-16.4466	-87.670440	0.000345	3.446333	1.167649	0.000138
1597	1.5880e+02	-16.4113	-87.553363	0.000294	2.939520	0.995936	0.000118
1598	1.5890e+02	-16.3744	-87.416100	0.000345	3.446333	1.167649	0.000138
1599	1.5900e+02	-16.3263	-87.327283	0.000223	2.229980	0.755538	0.000089
1600	1.5910e+02	-16.2958	-87.177909	0.000375	3.750422	1.270677	0.000150
1601	1.5920e+02	-16.2557	-87.056795	0.000304	3.040882	1.030279	0.000122
1602	1.5930e+02	-16.2060	-86.919532	0.000345	3.446333	1.167649	0.000138
1603	1.5940e+02	-16.1723	-86.770158	0.000375	3.750422	1.270677	0.000150
1604	1.5950e+02	-16.1338	-86.653081	0.000294	2.939520	0.995936	0.000118
1605	1.5960e+02	-16.0969	-86.536005	0.000294	2.939520	0.995936	0.000118
1606	1.5970e+02	-16.0503	-86.346259	0.000476	4.764049	1.614104	0.000191
1607	1.5980e+02	-16.0086	-86.229182	0.000294	2.939520	0.995936	0.000118
1608	1.5990e+02	-15.9733	-86.104031	0.000314	3.142245	1.064621	0.000126
1609	1.6000e+02	-15.9268	-85.962731	0.000355	3.547696	1.201992	0.000142
1610	1.6010e+02	-15.8996	-85.865840	0.000243	2.432706	0.824223	0.000097
1611	1.6019e+02	-15.8594	-85.708392	0.000395	3.953147	1.339363	0.000158
1612	1.6029e+02	-15.8177	-85.546906	0.000405	4.054510	1.373705	0.000162
1613	1.6039e+02	-15.7792	-85.445978	0.000253	2.534069	0.858566	0.000101
1614	1.6049e+02	-15.7375	-85.324864	0.000304	3.040882	1.030279	0.000122
1615	1.6059e+02	-15.7022	-85.167416	0.000395	3.953147	1.339363	0.000158
1616	1.6069e+02	-15.6557	-85.054376	0.000284	2.838157	0.961594	0.000114
1617	1.6079e+02	-15.6284	-84.909039	0.000365	3.649059	1.236335	0.000146
1618	1.6089e+02	-15.5739	-84.795999	0.000284	2.838157	0.961594	0.000114
1619	1.6099e+02	-15.5402	-84.622402	0.000436	4.358598	1.476733	0.000174
1620	1.6109e+02	-15.4921	-84.436694	0.000466	4.662686	1.579761	0.000187
1621	1.6119e+02	-15.4664	-84.351914	0.000213	2.128618	0.721195	0.000085
1622	1.6129e+02	-15.4183	-84.202540	0.000375	3.750422	1.270677	0.000150
1623	1.6139e+02	-15.3798	-84.041055	0.000405	4.054510	1.373705	0.000162
1624	1.6149e+02	-15.3429	-83.923978	0.000294	2.939520	0.995936	0.000118
1625	1.6159e+02	-15.3028	-83.814975	0.000274	2.736794	0.927251	0.000110
1626	1.6169e+02	-15.2546	-83.697898	0.000294	2.939520	0.995936	0.000118
1627	1.6179e+02	-15.2145	-83.552561	0.000365	3.649059	1.236335	0.000146
1628	1.6189e+02	-15.1857	-83.383002	0.000426	4.257235	1.442390	0.000170
1629	1.6199e+02	-15.1359	-83.253813	0.000324	3.243608	1.098964	0.000130
1630	1.6209e+02	-15.1055	-83.124625	0.000324	3.243608	1.098964	0.000130
1631	1.6219e+02	-15.0605	-82.983325	0.000355	3.547696	1.201992	0.000142
1632	1.6228e+02	-15.0268	-82.862211	0.000304	3.040882	1.030279	0.000122
1633	1.6238e+02	-14.9867	-82.704763	0.000395	3.953147	1.339363	0.000158
1634	1.6248e+02	-14.9402	-82.579612	0.000314	3.142245	1.064621	0.000126
1635	1.6258e+02	-14.9065	-82.422163	0.000395	3.953147	1.339363	0.000158
1636	1.6268e+02	-14.8600	-82.329309	0.000233	2.331343	0.789880	0.000093
1637	1.6278e+02	-14.8327	-82.131489	0.000497	4.966775	1.682789	0.000199
1638	1.6288e+02	-14.7830	-82.062858	0.000172	1.723167	0.583825	0.000069
1639	1.6298e+02	-14.7333	-81.885224	0.000446	4.459961	1.511076	0.000179
1640	1.6308e+02	-14.7044	-81.727776	0.000395	3.953147	1.339363	0.000158
1641	1.6318e+02	-14.6611	-81.586476	0.000355	3.547696	1.201992	0.000142
1642	1.6328e+02	-14.6226	-81.469399	0.000294	2.939520	0.995936	0.000118
1643	1.6338e+02	-14.5809	-81.299839	0.000426	4.257235	1.442390	0.000170
1644	1.6348e+02	-14.5392	-81.186800	0.000284	2.838157	0.961594	0.000114
1645	1.6358e+02	-14.5087	-81.033389	0.000385	3.851784	1.305020	0.000154
1646	1.6368e+02	-14.4606	-80.912274	0.000304	3.040882	1.030279	0.000122
1647	1.6378e+02	-14.4204	-80.742715	0.000426	4.257235	1.442390	0.000170
1648	1.6388e+02	-14.3868	-80.613526	0.000324	3.243608	1.098964	0.000130
1649	1.6398e+02	-14.3402	-80.484338	0.000324	3.243608	1.098964	0.000130
1650	1.6408e+02	-14.3033	-80.318816	0.000416	4.155873	1.408048	0.000166
1651	1.6418e+02	-14.2616	-80.201739	0.000294	2.939520	0.995936	0.000118
1652	1.6427e+02	-14.2215	-80.056402	0.000365	3.649059	1.236335	0.000146
1653	1.6437e+02	-14.1894	-79.907028	0.000375	3.750422	1.270677	0.000150
1654	1.6447e+02	-14.1365	-79.777839	0.000324	3.243608	1.098964	0.000130
1655	1.6457e+02	-14.1108	-79.596168	0.000456	4.561324	1.545418	0.000183
1656	1.6467e+02	-14.0627	-79.487166	0.000274	2.736794	0.927251	0.000110
1657	1.6477e+02	-14.0258	-79.345866	0.000355	3.547696	1.201992	0.000142
1658	1.6487e+02	-13.9873	-79.192455	0.000385	3.851784	1.305020	0.000154
1659	1.6497e+02	-13.9472	-79.035006	0.000395	3.953147	1.339363	0.000158
1660	1.6507e+02	-13.9039	-78.889669	0.000365	3.649059	1.236335	0.000146
1661	1.6517e+02	-13.8622	-78.756444	0.000334	3.344971	1.133307	0.000134
1662	1.6527e+02	-13.8301	-78.603033	0.000385	3.851784	1.305020	0.000154
1663	1.6537e+02	-13.7755	-78.449622	0.000385	3.851784	1.305020	0.000154
1664	1.6547e+02	-13.7467	-78.308322	0.000355	3.547696	1.201992	0.000142
1665	1.6557e+02	-13.7066	-78.167022	0.000355	3.547696	1.201992	0.000142
1666	1.6567e+02	-13.6633	-78.053982	0.000284	2.838157	0.961594	0.000114
1667	1.6577e+02	-13.6183	-77.896534	0.000395	3.953147	1.339363	0.000158
1668	1.6587e+02	-13.5846	-77.722937	0.000436	4.358598	1.476733	0.000174
1669	1.6597e+02	-13.5526	-77.622009	0.000253	2.534069	0.858566	0.000101
1670	1.6607e+02	-13.5092	-77.444375	0.000446	4.459961	1.511076	0.000179
1671	1.6616e+02	-13.4659	-77.286927	0.000395	3.953147	1.339363	0.000158
1672	1.6626e+02	-13.4306	-77.137553	0.000375	3.750422	1.270677	0.000150
1673	1.6636e+02	-13.3937	-76.959919	0.000446	4.459961	1.511076	0.000179
1674	1.6646e+02	-13.3504	-76.858990	0.000253	2.534069	0.858566	0.000101
1675	1.6656e+02	-13.3023	-76.709616	0.000375	3.750422	1.270677	0.000150
1676	1.6666e+02	-13.2590	-76.560242	0.000375	3.750422	1.270677	0.000150
1677	1.6676e+02	-13.2237	-76.410868	0.000375	3.750422	1.270677	0.000150
1678	1.6686e+02	-13.1724	-76.261494	0.000375	3.750422	1.270677	0.000150
1679	1.6696e+02	-13.1435	-76.059637	0.000507	5.068137	1.717131	0.000203
1680	1.6706e+02	-13.1114	-75.970820	0.000223	2.229980	0.755538	0.000089
1681	1.6716e+02	-13.0665	-75.817409	0.000385	3.851784	1.305020	0.000154
1682	1.6726e+02	-13.0248	-75.619590	0.000497	4.966775	1.682789	0.000199
1683	1.6736e+02	-12.9831	-75.474253	0.000365	3.649059	1.236335	0.000146
1684	1.6746e+02	-12.9542	-75.336990	0.000345	3.446333	1.167649	0.000138
1685	1.6756e+02	-12.9044	-75.179542	0.000395	3.953147	1.339363	0.000158
1686	1.6766e+02	-12.8627	-75.030168	0.000375	3.750422	1.270677	0.000150
1687	1.6776e+02	-12.8226	-74.896942	0.000334	3.344971	1.133307	0.000134
1688	1.6786e+02	-12.7922	-74.755642	0.000355	3.547696	1.201992	0.000142
1689	1.6796e+02	-12.7456	-74.594157	0.000405	4.054510	1.373705	0.000162
1690	1.6806e+02	-12.7071	-74.424597	0.000426	4.257235	1.442390	0.000170
1691	1.6816e+02	-12.6654	-74.242926	0.000456	4.561324	1.545418	0.000183
1692	1.6825e+02	-12.6253	-74.093552	0.000375	3.750422	1.270677	0.000150
1693	1.6835e+02	-12.5868	-73.923992	0.000426	4.257235	1.442390	0.000170
1694	1.6845e+02	-12.5531	-73.835176	0.000223	2.229980	0.755538	0.000089
1695	1.6855e+02	-12.5082	-73.637356	0.000497	4.966775	1.682789	0.000199
1696	1.6865e+02	-12.4713	-73.467796	0.000426	4.257235	1.442390	0.000170
1697	1.6875e+02	-12.4392	-73.326496	0.000355	3.547696	1.201992	0.000142
1698	1.6885e+02	-12.3943	-73.144825	0.000456	4.561324	1.545418	0.000183
1699	1.6895e+02	-12.3510	-73.011600	0.000334	3.344971	1.133307	0.000134
1700	1.6905e+02	-12.3109	-72.858189	0.000385	3.851784	1.305020	0.000154
1701	1.6915e+02	-12.2708	-72.753223	0.000264	2.635431	0.892908	0.000105
1702	1.6925e+02	-12.2323	-72.583663	0.000426	4.257235	1.442390	0.000170
1703	1.6935e+02	-12.1841	-72.426215	0.000395	3.953147	1.339363	0.000158
1704	1.6945e+02	-12.1537	-72.224358	0.000507	5.068137	1.717131	0.000203
1705	1.6955e+02	-12.1136	-72.091133	0.000334	3.344971	1.133307	0.000134
1706	1.6965e+02	-12.0735	-71.929647	0.000405	4.054510	1.373705	0.000162
1707	1.6975e+02	-12.0366	-71.792385	0.000345	3.446333	1.167649	0.000138
1708	1.6985e+02	-11.9868	-71.602639	0.000476	4.764049	1.614104	0.000191
1709	1.6995e+02	-11.9628	-71.477488	0.000314	3.142245	1.064621	0.000126
1710	1.7005e+02	-11.9211	-71.303891	0.000436	4.358598	1.476733	0.000174
1711	1.7015e+02	-11.8826	-71.162592	0.000355	3.547696	1.201992	0.000142
1712	1.7024e+02	-11.8216	-71.001106	0.000405	4.054510	1.373705	0.000162
1713	1.7034e+02	-11.7943	-70.831547	0.000426	4.257235	1.442390	0.000170
1714	1.7044e+02	-11.7590	-70.666024	0.000416	4.155873	1.408048	0.000166
1715	1.7054e+02	-11.7157	-70.468204	0.000497	4.966775	1.682789	0.000199
1716	1.7064e+02	-11.6724	-70.314793	0.000385	3.851784	1.305020	0.000154
1717	1.7074e+02	-11.6323	-70.173493	0.000355	3.547696	1.201992	0.000142
1718	1.7084e+02	-11.5938	-69.975674	0.000497	4.966775	1.682789	0.000199
1719	1.7094e+02	-11.5601	-69.846485	0.000324	3.243608	1.098964	0.000130
1720	1.7104e+02	-11.5088	-69.648666	0.000497	4.966775	1.682789	0.000199
1721	1.7114e+02	-11.4751	-69.531589	0.000294	2.939520	0.995936	0.000118
1722	1.7124e+02	-11.4398	-69.378178	0.000385	3.851784	1.305020	0.000154
1723	1.7134e+02	-11.3949	-69.208618	0.000426	4.257235	1.442390	0.000170
1724	1.7144e+02	-11.3612	-69.018873	0.000476	4.764049	1.614104	0.000191
1725	1.7154e+02	-11.3179	-68.849313	0.000426	4.257235	1.442390	0.000170
1726	1.7164e+02	-11.2681	-68.687827	0.000405	4.054510	1.373705	0.000162
1727	1.7174e+02	-11.2344	-68.550565	0.000345	3.446333	1.167649	0.000138
1728	1.7184e+02	-11.1959	-68.397154	0.000385	3.851784	1.305020	0.000154
1729	1.7194e+02	-11.1494	-68.247780	0.000375	3.750422	1.270677	0.000150
1730	1.7204e+02	-11.1173	-68.062071	0.000466	4.662686	1.579761	0.000187
1731	1.7213e+02	-11.0724	-67.888475	0.000436	4.358598	1.476733	0.000174
1732	1.7223e+02	-11.0355	-67.726989	0.000405	4.054510	1.373705	0.000162
1733	1.7233e+02	-10.9922	-67.609912	0.000294	2.939520	0.995936	0.000118
1734	1.7243e+02	-10.9569	-67.395944	0.000537	5.372226	1.820159	0.000215
1735	1.7253e+02	-10.9200	-67.250607	0.000365	3.649059	1.236335	0.000146
1736	1.7263e+02	-10.8735	-67.077010	0.000436	4.358598	1.476733	0.000174
1737	1.7273e+02	-10.8478	-66.915525	0.000405	4.054510	1.373705	0.000162
1738	1.7283e+02	-10.8045	-66.733854	0.000456	4.561324	1.545418	0.000183
1739	1.7293e+02	-10.7484	-66.604665	0.000324	3.243608	1.098964	0.000130
1740	1.7303e+02	-10.7099	-66.427031	0.000446	4.459961	1.511076	0.000179
1741	1.7313e+02	-10.6762	-66.253435	0.000436	4.358598	1.476733	0.000174
1742	1.7323e+02	-10.6409	-66.095986	0.000395	3.953147	1.339363	0.000158
1743	1.7333e+02	-10.6024	-65.910278	0.000466	4.662686	1.579761	0.000187
1744	1.7343e+02	-10.5575	-65.744755	0.000416	4.155873	1.408048	0.000166
1745	1.7353e+02	-10.5222	-65.615567	0.000324	3.243608	1.098964	0.000130
1746	1.7363e+02	-10.4885	-65.425822	0.000476	4.764049	1.614104	0.000191
1747	1.7373e+02	-10.4436	-65.244151	0.000456	4.561324	1.545418	0.000183
1748	1.7383e+02	-10.3986	-65.098814	0.000365	3.649059	1.236335	0.000146
1749	1.7393e+02	-10.3537	-64.905031	0.000487	4.865412	1.648446	0.000195
1750	1.7403e+02	-10.3264	-64.779880	0.000314	3.142245	1.064621	0.000126
1751	1.7413e+02	-10.2719	-64.578023	0.000507	5.068137	1.717131	0.000203
1752	1.7422e+02	-10.2302	-64.404426	0.000436	4.358598	1.476733	0.000174
1753	1.7432e+02	-10.2029	-64.214681	0.000476	4.764049	1.614104	0.000191
1754	1.7442e+02	-10.1596	-64.065307	0.000375	3.750422	1.270677	0.000150
1755	1.7452e+02	-10.1195	-63.915933	0.000375	3.750422	1.270677	0.000150
1756	1.7462e+02	-10.0858	-63.762522	0.000385	3.851784	1.305020	0.000154
1757	1.7472e+02	-10.0297	-63.601036	0.000405	4.054510	1.373705	0.000162
1758	1.7482e+02	-9.9992	-63.459737	0.000355	3.547696	1.201992	0.000142
1759	1.7492e+02	-9.9655	-63.274028	0.000466	4.662686	1.579761	0.000187
1760	1.7502e+02	-9.9206	-63.088320	0.000466	4.662686	1.579761	0.000187
1761	1.7512e+02	-9.8741	-62.938946	0.000375	3.750422	1.270677	0.000150
1762	1.7522e+02	-9.8404	-62.720941	0.000547	5.473588	1.854502	0.000219
1763	1.7532e+02	-9.8083	-62.611938	0.000274	2.736794	0.927251	0.000110
1764	1.7542e+02	-9.7569	-62.426230	0.000466	4.662686	1.579761	0.000187
1765	1.7552e+02	-9.7233	-62.224373	0.000507	5.068137	1.717131	0.000203
1766	1.7562e+02	-9.6687	-62.074999	0.000375	3.750422	1.270677	0.000150
1767	1.7572e+02	-9.6382	-61.929662	0.000365	3.649059	1.236335	0.000146
1768	1.7582e+02	-9.5981	-61.788362	0.000355	3.547696	1.201992	0.000142
1769	1.7592e+02	-9.5548	-61.602654	0.000466	4.662686	1.579761	0.000187
1770	1.7602e+02	-9.5147	-61.441169	0.000405	4.054510	1.373705	0.000162
1771	1.7612e+02	-9.4906	-61.303906	0.000345	3.446333	1.167649	0.000138
1772	1.7621e+02	-9.4489	-61.110124	0.000487	4.865412	1.648446	0.000195
1773	1.7631e+02	-9.3976	-60.936527	0.000436	4.358598	1.476733	0.000174
1774	1.7641e+02	-9.3591	-60.779079	0.000395	3.953147	1.339363	0.000158
1775	1.7651e+02	-9.3286	-60.593370	0.000466	4.662686	1.579761	0.000187
1776	1.7661e+02	-9.2901	-60.452071	0.000355	3.547696	1.201992	0.000142
1777	1.7671e+02	-9.2420	-60.246177	0.000517	5.169500	1.751474	0.000207
1778	1.7681e+02	-9.1971	-60.092765	0.000385	3.851784	1.305020	0.000154
1779	1.7691e+02	-9.1570	-59.923206	0.000426	4.257235	1.442390	0.000170
1780	1.7701e+02	-9.1201	-59.822277	0.000253	2.534069	0.858566	0.000101
1781	1.7711e+02	-9.0944	-59.576012	0.000618	6.183128	2.094900	0.000248
1782	1.7721e+02	-9.0495	-59.406452	0.000426	4.257235	1.442390	0.000170
1783	1.7731e+02	-9.0158	-59.220744	0.000466	4.662686	1.579761	0.000187
1784	1.7741e+02	-8.9693	-59.075407	0.000365	3.649059	1.236335	0.000146
1785	1.7751e+02	-8.9356	-58.909885	0.000416	4.155873	1.408048	0.000166
1786	1.7761e+02	-8.8810	-58.720139	0.000476	4.764049	1.614104	0.000191
1787	1.7771e+02	-8.8393	-58.538468	0.000456	4.561324	1.545418	0.000183
1788	1.7781e+02	-8.8056	-58.445614	0.000233	2.331343	0.789880	0.000093
1789	1.7791e+02	-8.7623	-58.211460	0.000588	5.879039	1.991872	0.000235
1790	1.7801e+02	-8.7254	-58.062086	0.000375	3.750422	1.270677	0.000150
1791	1.7810e+02	-8.6821	-57.928861	0.000334	3.344971	1.133307	0.000134
1792	1.7820e+02	-8.6452	-57.710855	0.000547	5.473588	1.854502	0.000219
1793	1.7830e+02	-8.6035	-57.537259	0.000436	4.358598	1.476733	0.000174
1794	1.7840e+02	-8.5554	-57.359625	0.000446	4.459961	1.511076	0.000179
1795	1.7850e+02	-8.5249	-57.222362	0.000345	3.446333	1.167649	0.000138
1796	1.7860e+02	-8.4912	-57.020505	0.000507	5.068137	1.717131	0.000203
1797	1.7870e+02	-8.4543	-56.854983	0.000416	4.155873	1.408048	0.000166
1798	1.7880e+02	-8.4174	-56.701571	0.000385	3.851784	1.305020	0.000154
1799	1.7890e+02	-8.3597	-56.483566	0.000547	5.473588	1.854502	0.000219
1800	1.7900e+02	-8.3212	-56.334192	0.000375	3.750422	1.270677	0.000150
1801	1.7910e+02	-8.2939	-56.188855	0.000365	3.649059	1.236335	0.000146
1802	1.7920e+02	-8.2393	-56.047555	0.000355	3.547696	1.201992	0.000142
1803	1.7930e+02	-8.2073	-55.849736	0.000497	4.966775	1.682789	0.000199
1804	1.7940e+02	-8.1720	-55.700362	0.000375	3.750422	1.270677	0.000150
1805	1.7950e+02	-8.1254	-55.498505	0.000507	5.068137	1.717131	0.000203
1806	1.7960e+02	-8.0837	-55.316834	0.000456	4.561324	1.545418	0.000183
1807	1.7970e+02	-8.0404	-55.175534	0.000355	3.547696	1.201992	0.000142
1808	1.7980e+02	-8.0067	-54.961566	0.000537	5.372226	1.820159	0.000215
1809	1.7990e+02	-7.9666	-54.808155	0.000385	3.851784	1.305020	0.000154
1810	1.8000e+02	-7.9233	-54.614372	0.000487	4.865412	1.648446	0.000195
1811	1.8009e+02	-7.8848	-54.477110	0.000345	3.446333	1.167649	0.000138
1812	1.8019e+02	-7.8463	-54.327736	0.000375	3.750422	1.270677	0.000150
1813	1.8029e+02	-7.8078	-54.121842	0.000517	5.169500	1.751474	0.000207
1814	1.8039e+02	-7.7645	-53.956319	0.000416	4.155873	1.408048	0.000166
1815	1.8049e+02	-7.7244	-53.782722	0.000436	4.358598	1.476733	0.000174
1816	1.8059e+02	-7.6955	-53.588940	0.000487	4.865412	1.648446	0.000195
1817	1.8069e+02	-7.6506	-53.419380	0.000426	4.257235	1.442390	0.000170
1818	1.8079e+02	-7.6089	-53.261932	0.000395	3.953147	1.339363	0.000158
1819	1.8089e+02	-7.5559	-53.100446	0.000405	4.054510	1.373705	0.000162
1820	1.8099e+02	-7.5335	-52.926850	0.000436	4.358598	1.476733	0.000174
1821	1.8109e+02	-7.4934	-52.745178	0.000456	4.561324	1.545418	0.000183
1822	1.8119e+02	-7.4501	-52.555433	0.000476	4.764049	1.614104	0.000191
1823	1.8129e+02	-7.4051	-52.373762	0.000456	4.561324	1.545418	0.000183
1824	1.8139e+02	-7.3698	-52.188054	0.000466	4.662686	1.579761	0.000187
1825	1.8149e+02	-7.3394	-52.042717	0.000365	3.649059	1.236335	0.000146
1826	1.8159e+02	-7.2928	-51.873157	0.000426	4.257235	1.442390	0.000170
1827	1.8169e+02	-7.2463	-51.659189	0.000537	5.372226	1.820159	0.000215
1828	1.8179e+02	-7.2078	-51.477518	0.000456	4.561324	1.545418	0.000183
1829	1.8189e+02	-7.1725	-51.368515	0.000274	2.736794	0.927251	0.000110
1830	1.8199e+02	-7.1292	-51.166658	0.000507	5.068137	1.717131	0.000203
1831	1.8209e+02	-7.0971	-50.944616	0.000557	5.574951	1.888845	0.000223
1832	1.8218e+02	-7.0458	-50.783130	0.000405	4.054510	1.373705	0.000162
1833	1.8228e+02	-7.0089	-50.621645	0.000405	4.054510	1.373705	0.000162
1834	1.8238e+02	-6.9736	-50.456122	0.000416	4.155873	1.408048	0.000166
1835	1.8248e+02	-6.9367	-50.254266	0.000507	5.068137	1.717131	0.000203
1836	1.8258e+02	-6.8806	-50.096817	0.000395	3.953147	1.339363	0.000158
1837	1.8268e+02	-6.8517	-49.882849	0.000537	5.372226	1.820159	0.000215
1838	1.8278e+02	-6.8244	-49.725401	0.000395	3.953147	1.339363	0.000158
1839	1.8288e+02	-6.7699	-49.535656	0.000476	4.764049	1.614104	0.000191
1840	1.8298e+02	-6.7330	-49.370133	0.000416	4.155873	1.408048	0.000166
1841	1.8308e+02	-6.6945	-49.176350	0.000487	4.865412	1.648446	0.000195
1842	1.8318e+02	-6.6495	-48.998716	0.000446	4.459961	1.511076	0.000179
1843	1.8328e+02	-6.6126	-48.804934	0.000487	4.865412	1.648446	0.000195
1844	1.8338e+02	-6.5693	-48.623263	0.000456	4.561324	1.545418	0.000183
1845	1.8348e+02	-6.5340	-48.486000	0.000345	3.446333	1.167649	0.000138
1846	1.8358e+02	-6.4891	-48.272032	0.000537	5.372226	1.820159	0.000215
1847	1.8368e+02	-6.4506	-48.106509	0.000416	4.155873	1.408048	0.000166
1848	1.8378e+02	-6.4137	-47.904653	0.000507	5.068137	1.717131	0.000203
1849	1.8388e+02	-6.3784	-47.722982	0.000456	4.561324	1.545418	0.000183
1850	1.8398e+02	-6.3351	-47.537273	0.000466	4.662686	1.579761	0.000187
1851	1.8407e+02	-6.3094	-47.383862	0.000385	3.851784	1.305020	0.000154
1852	1.8417e+02	-6.2533	-47.186043	0.000497	4.966775	1.682789	0.000199
1853	1.8427e+02	-6.2212	-47.008409	0.000446	4.459961	1.511076	0.000179
1854	1.8437e+02	-6.1843	-46.814626	0.000487	4.865412	1.648446	0.000195
1855	1.8447e+02	-6.1378	-46.628918	0.000466	4.662686	1.579761	0.000187
1856	1.8457e+02	-6.1073	-46.463395	0.000416	4.155873	1.408048	0.000166
1857	1.8467e+02	-6.0560	-46.301910	0.000405	4.054510	1.373705	0.000162
1858	1.8477e+02	-6.0191	-46.075830	0.000568	5.676314	1.923187	0.000227
1859	1.8487e+02	-5.9758	-45.942605	0.000334	3.344971	1.133307	0.000134
1860	1.8497e+02	-5.9405	-45.732674	0.000527	5.270863	1.785817	0.000211
1861	1.8507e+02	-5.8940	-45.542928	0.000476	4.764049	1.614104	0.000191
1862	1.8517e+02	-5.8651	-45.341071	0.000507	5.068137	1.717131	0.000203
1863	1.8527e+02	-5.8202	-45.163438	0.000446	4.459961	1.511076	0.000179
1864	1.8537e+02	-5.7768	-44.949469	0.000537	5.372226	1.820159	0.000215
1865	1.8547e+02	-5.7383	-44.787984	0.000405	4.054510	1.373705	0.000162
1866	1.8557e+02	-5.7063	-44.626498	0.000405	4.054510	1.373705	0.000162
1867	1.8567e+02	-5.6678	-44.372159	0.000639	6.385853	2.163586	0.000256
1868	1.8577e+02	-5.6164	-44.259119	0.000284	2.838157	0.961594	0.000114
1869	1.8587e+02	-5.5795	-44.037077	0.000557	5.574951	1.888845	0.000223
1870	1.8597e+02	-5.5394	-43.847331	0.000476	4.764049	1.614104	0.000191
1871	1.8606e+02	-5.4977	-43.645474	0.000507	5.068137	1.717131	0.000203
1872	1.8616e+02	-5.4560	-43.475915	0.000426	4.257235	1.442390	0.000170
1873	1.8626e+02	-5.4111	-43.294244	0.000456	4.561324	1.545418	0.000183
1874	1.8636e+02	-5.3806	-43.072201	0.000557	5.574951	1.888845	0.000223
1875	1.8646e+02	-5.3453	-42.922827	0.000375	3.750422	1.270677	0.000150
1876	1.8656e+02	-5.2956	-42.692710	0.000578	5.777677	1.957530	0.000231
1877	1.8666e+02	-5.2699	-42.523151	0.000426	4.257235	1.442390	0.000170
1878	1.8676e+02	-5.2282	-42.305145	0.000547	5.473588	1.854502	0.000219
1879	1.8686e+02	-5.1785	-42.139623	0.000416	4.155873	1.408048	0.000166
1880	1.8696e+02	-5.1448	-41.941803	0.000497	4.966775	1.682789	0.000199
1881	1.8706e+02	-5.0950	-41.788392	0.000385	3.851784	1.305020	0.000154
1882	1.8716e+02	-5.0630	-41.590572	0.000497	4.966775	1.682789	0.000199
1883	1.8726e+02	-5.0196	-41.404864	0.000466	4.662686	1.579761	0.000187
1884	1.8736e+02	-4.9795	-41.194933	0.000527	5.270863	1.785817	0.000211
1885	1.8746e+02	-4.9442	-40.997113	0.000497	4.966775	1.682789	0.000199
1886	1.8756e+02	-4.8961	-40.771034	0.000568	5.676314	1.923187	0.000227
1887	1.8766e+02	-4.8592	-40.617623	0.000385	3.851784	1.305020	0.000154
1888	1.8776e+02	-4.8271	-40.379432	0.000598	5.980402	2.026215	0.000239
1889	1.8786e+02	-4.7854	-40.197761	0.000456	4.561324	1.545418	0.000183
1890	1.8796e+02	-4.7373	-40.016089	0.000456	4.561324	1.545418	0.000183
1891	1.8806e+02	-4.7068	-39.826344	0.000476	4.764049	1.614104	0.000191
1892	1.8815e+02	-4.6539	-39.632562	0.000487	4.865412	1.648446	0.000195
1893	1.8825e+02	-4.6250	-39.450890	0.000456	4.561324	1.545418	0.000183
1894	1.8835e+02	-4.5849	-39.257108	0.000487	4.865412	1.648446	0.000195
1895	1.8845e+02	-4.5416	-39.067363	0.000476	4.764049	1.614104	0.000191
1896	1.8855e+02	-4.5111	-38.857431	0.000527	5.270863	1.785817	0.000211
1897	1.8865e+02	-4.4646	-38.639426	0.000547	5.473588	1.854502	0.000219
1898	1.8875e+02	-4.4357	-38.506201	0.000334	3.344971	1.133307	0.000134
1899	1.8885e+02	-4.3828	-38.276084	0.000578	5.777677	1.957530	0.000231
1900	1.8895e+02	-4.3523	-38.090376	0.000466	4.662686	1.579761	0.000187
1901	1.8905e+02	-4.3074	-37.888519	0.000507	5.068137	1.717131	0.000203
1902	1.8915e+02	-4.2641	-37.706848	0.000456	4.561324	1.545418	0.000183
1903	1.8925e+02	-4.2143	-37.529214	0.000446	4.459961	1.511076	0.000179
1904	1.8935e+02	-4.1903	-37.351580	0.000446	4.459961	1.511076	0.000179
1905	1.8945e+02	-4.1437	-37.141649	0.000527	5.270863	1.785817	0.000211
1906	1.8955e+02	-4.1068	-36.976126	0.000416	4.155873	1.408048	0.000166
1907	1.8965e+02	-4.0619	-36.746009	0.000578	5.777677	1.957530	0.000231
1908	1.8975e+02	-4.0330	-36.507818	0.000598	5.980402	2.026215	0.000239
1909	1.8985e+02	-3.9897	-36.370556	0.000345	3.446333	1.167649	0.000138
1910	1.8995e+02	-3.9432	-36.152551	0.000547	5.473588	1.854502	0.000219
1911	1.9004e+02	-3.9079	-35.950694	0.000507	5.068137	1.717131	0.000203
1912	1.9014e+02	-3.8694	-35.777097	0.000436	4.358598	1.476733	0.000174
1913	1.9024e+02	-3.8261	-35.607537	0.000426	4.257235	1.442390	0.000170
1914	1.9034e+02	-3.7828	-35.312826	0.000740	7.399481	2.507012	0.000296
1915	1.9044e+02	-3.7555	-35.123081	0.000476	4.764049	1.614104	0.000191
1916	1.9054e+02	-3.7106	-34.965633	0.000395	3.953147	1.339363	0.000158
1917	1.9064e+02	-3.6689	-34.808184	0.000395	3.953147	1.339363	0.000158
1918	1.9074e+02	-3.6288	-34.549808	0.000649	6.487216	2.197928	0.000260
1919	1.9084e+02	-3.5871	-34.408508	0.000355	3.547696	1.201992	0.000142
1920	1.9094e+02	-3.5454	-34.194540	0.000537	5.372226	1.820159	0.000215
1921	1.9104e+02	-3.5149	-34.020943	0.000436	4.358598	1.476733	0.000174
1922	1.9114e+02	-3.4716	-33.786789	0.000588	5.879039	1.991872	0.000235
1923	1.9124e+02	-3.4298	-33.584932	0.000507	5.068137	1.717131	0.000203
1924	1.9134e+02	-3.3913	-33.423447	0.000405	4.054510	1.373705	0.000162
1925	1.9144e+02	-3.3577	-33.217553	0.000517	5.169500	1.751474	0.000207
1926	1.9154e+02	-3.2951	-33.015696	0.000507	5.068137	1.717131	0.000203
1927	1.9164e+02	-3.2710	-32.829988	0.000466	4.662686	1.579761	0.000187
1928	1.9174e+02	-3.2341	-32.672540	0.000395	3.953147	1.339363	0.000158
1929	1.9184e+02	-3.1924	-32.357643	0.000791	7.906294	2.678725	0.000316
1930	1.9194e+02	-3.1491	-32.252677	0.000264	2.635431	0.892908	0.000105
1931	1.9203e+02	-3.1138	-32.030635	0.000557	5.574951	1.888845	0.000223
1932	1.9213e+02	-3.0705	-31.832815	0.000497	4.966775	1.682789	0.000199
1933	1.9223e+02	-3.0304	-31.643070	0.000476	4.764049	1.614104	0.000191
1934	1.9233e+02	-2.9919	-31.449287	0.000487	4.865412	1.648446	0.000195
1935	1.9243e+02	-2.9550	-31.251468	0.000497	4.966775	1.682789	0.000199
1936	1.9253e+02	-2.9021	-31.061722	0.000476	4.764049	1.614104	0.000191
1937	1.9263e+02	-2.8668	-30.880051	0.000456	4.561324	1.545418	0.000183
1938	1.9273e+02	-2.8283	-30.658009	0.000557	5.574951	1.888845	0.000223
1939	1.9283e+02	-2.7849	-30.484412	0.000436	4.358598	1.476733	0.000174
1940	1.9293e+02	-2.7513	-30.266407	0.000547	5.473588	1.854502	0.000219
1941	1.9303e+02	-2.7176	-30.072624	0.000487	4.865412	1.648446	0.000195
1942	1.9313e+02	-2.6759	-29.882879	0.000476	4.764049	1.614104	0.000191
1943	1.9323e+02	-2.6261	-29.705245	0.000446	4.459961	1.511076	0.000179
1944	1.9333e+02	-2.5940	-29.483202	0.000557	5.574951	1.888845	0.000223
1945	1.9343e+02	-2.5507	-29.309605	0.000436	4.358598	1.476733	0.000174
1946	1.9353e+02	-2.5186	-29.107749	0.000507	5.068137	1.717131	0.000203
1947	1.9363e+02	-2.4609	-28.869558	0.000598	5.980402	2.026215	0.000239
1948	1.9373e+02	-2.4256	-28.724221	0.000365	3.649059	1.236335	0.000146
1949	1.9383e+02	-2.3919	-28.538513	0.000466	4.662686	1.579761	0.000187
1950	1.9393e+02	-2.3614	-28.276099	0.000659	6.588579	2.232271	0.000264
1951	1.9403e+02	-2.3133	-28.102502	0.000436	4.358598	1.476733	0.000174
1952	1.9412e+02	-2.2764	-27.900645	0.000507	5.068137	1.717131	0.000203
1953	1.9422e+02	-2.2363	-27.690714	0.000527	5.270863	1.785817	0.000211
1954	1.9432e+02	-2.1898	-27.517117	0.000436	4.358598	1.476733	0.000174
1955	1.9442e+02	-2.1577	-27.311223	0.000517	5.169500	1.751474	0.000207
1956	1.9452e+02	-2.1144	-27.113404	0.000497	4.966775	1.682789	0.000199
1957	1.9462e+02	-2.0727	-26.911547	0.000507	5.068137	1.717131	0.000203
1958	1.9472e+02	-2.0454	-26.721801	0.000476	4.764049	1.614104	0.000191
1959	1.9482e+02	-1.9941	-26.511870	0.000527	5.270863	1.785817	0.000211
1960	1.9492e+02	-1.9491	-26.301939	0.000527	5.270863	1.785817	0.000211
1961	1.9502e+02	-1.9138	-26.104120	0.000497	4.966775	1.682789	0.000199
1962	1.9512e+02	-1.8657	-25.934560	0.000426	4.257235	1.442390	0.000170
1963	1.9522e+02	-1.8304	-25.748852	0.000466	4.662686	1.579761	0.000187
1964	1.9532e+02	-1.7903	-25.518735	0.000578	5.777677	1.957530	0.000231
1965	1.9542e+02	-1.7631	-25.353212	0.000416	4.155873	1.408048	0.000166
1966	1.9552e+02	-1.7149	-25.123096	0.000578	5.777677	1.957530	0.000231
1967	1.9562e+02	-1.6748	-24.909128	0.000537	5.372226	1.820159	0.000215
1968	1.9572e+02	-1.6267	-24.731494	0.000446	4.459961	1.511076	0.000179
1969	1.9582e+02	-1.5914	-24.541748	0.000476	4.764049	1.614104	0.000191
1970	1.9592e+02	-1.5561	-24.287409	0.000639	6.385853	2.163586	0.000256
1971	1.9601e+02	-1.5208	-24.109775	0.000446	4.459961	1.511076	0.000179
1972	1.9611e+02	-1.4759	-23.891769	0.000547	5.473588	1.854502	0.000219
1973	1.9621e+02	-1.4342	-23.742395	0.000375	3.750422	1.270677	0.000150
1974	1.9631e+02	-1.3989	-23.544576	0.000497	4.966775	1.682789	0.000199
1975	1.9641e+02	-1.3572	-23.338682	0.000517	5.169500	1.751474	0.000207
1976	1.9651e+02	-1.3171	-23.140862	0.000497	4.966775	1.682789	0.000199
1977	1.9661e+02	-1.2754	-22.955154	0.000466	4.662686	1.579761	0.000187
1978	1.9671e+02	-1.2304	-22.721000	0.000588	5.879039	1.991872	0.000235
1979	1.9681e+02	-1.1919	-22.547403	0.000436	4.358598	1.476733	0.000174
1980	1.9691e+02	-1.1567	-22.293064	0.000639	6.385853	2.163586	0.000256
1981	1.9701e+02	-1.1149	-22.139652	0.000385	3.851784	1.305020	0.000154
1982	1.9711e+02	-1.0764	-21.917610	0.000557	5.574951	1.888845	0.000223
1983	1.9721e+02	-1.0379	-21.768236	0.000375	3.750422	1.270677	0.000150
1984	1.9731e+02	-1.0091	-21.509859	0.000649	6.487216	2.197928	0.000260
1985	1.9741e+02	-0.9706	-21.344337	0.000416	4.155873	1.408048	0.000166
1986	1.9751e+02	-0.9144	-21.110183	0.000588	5.879039	1.991872	0.000235
1987	1.9761e+02	-0.8727	-20.912363	0.000497	4.966775	1.682789	0.000199
1988	1.9771e+02	-0.8374	-20.698395	0.000537	5.372226	1.820159	0.000215
1989	1.9781e+02	-0.7973	-20.508650	0.000476	4.764049	1.614104	0.000191
1990	1.9791e+02	-0.7668	-20.363313	0.000365	3.649059	1.236335	0.000146
1991	1.9800e+02	-0.7123	-20.141270	0.000557	5.574951	1.888845	0.000223
1992	1.9810e+02	-0.6818	-19.939413	0.000507	5.068137	1.717131	0.000203
1993	1.9820e+02	-0.6353	-19.729482	0.000527	5.270863	1.785817	0.000211
1994	1.9830e+02	-0.5984	-19.507440	0.000557	5.574951	1.888845	0.000223
1995	1.9840e+02	-0.5599	-19.289435	0.000547	5.473588	1.854502	0.000219
1996	1.9850e+02	-0.5182	-19.087578	0.000507	5.068137	1.717131	0.000203
1997	1.9860e+02	-0.4749	-18.885721	0.000507	5.068137	1.717131	0.000203
1998	1.9870e+02	-0.4364	-18.728273	0.000395	3.953147	1.339363	0.000158
1999	1.9880e+02	-0.4011	-18.510267	0.000547	5.473588	1.854502	0.000219
2000	1.9890e+02	-0.3642	-18.304373	0.000517	5.169500	1.751474	0.000207
2001	1.9900e+02	-0.3208	-18.106554	0.000497	4.966775	1.682789	0.000199
2002	1.9910e+02	-0.2791	-17.932957	0.000436	4.358598	1.476733	0.000174
2003	1.9920e+02	-0.2471	-17.718989	0.000537	5.372226	1.820159	0.000215
2004	1.9930e+02	-0.2005	-17.533281	0.000466	4.662686	1.579761	0.000187
2005	1.9940e+02	-0.1620	-17.299127	0.000588	5.879039	1.991872	0.000235
2006	1.9950e+02	-0.1123	-17.101307	0.000497	4.966775	1.682789	0.000199
2007	1.9960e+02	-0.0786	-16.867153	0.000588	5.879039	1.991872	0.000235
2008	1.9970e+02	-0.0401	-16.677408	0.000476	4.764049	1.614104	0.000191
2009	1.9980e+02	0.0032	-16.459402	0.000476	4.764049	1.614104	0.000219

PMax (uC/cm2):	9.95e+01
Pr (uC/cm2):	6.74e+00
-Pr (uC/cm2):	-1.28e+01
PLoss (uC/cm2):	-1.27e+01
-Vc:	-1.30e+00
C (Max-Eff) (nF):	4.98e-01
K (Eff):	1.69e+03
Vert. (+/-Pr) Shift (uC/cm2):	-3.01e+00
Offset (uC/cm2):	3.71e+00

A (Loop Area - uC/cm2·Volts):	8.89e-02



Hysteresis Version: 5.48.1 - Radiant Technologies, Inc., 1999 - 9/12/24

