»»»»»»»»»»»»»»»»»»»»»»»»»»»»»»»»»»»» Hysteresis ««««««««««««««««««««««««««««««««««««
»»»  Executed Version:	5.48.1
»»»  Vision Version:	5.48.4 (R)
»»»  Vision Compiled:	9/18/24
»»»  Driver Version:	5.47.0
»»»  Windows Version:	Windows 8 or 8.1
»»»  Processor Information:	x86 (AMD or Intel) - 32 Processors
»»»  Tester Name:	PMF21124-494 (100V)
»»»  Tester S/N:	PMF21124-494
»»»  Internal Amp Type:	100V RevK 270k
»»»  Internal Amp S/N:	iAB2-596/K     
»»»  Execution Count:	1
»»»»»»»»»»»»»»»»»»»»»»»»»»»»»»»»»»»»»»»»»»««««««««««««««««««««««««««««««««««««««««««

Stored:	6/18/2025 - 12:16:12
Configured:	06/18/25 09:47:30 AM
Executed:	06/18/25 12:15:47 PM

»»»»»»»»»»»»»»»»»»»»»»»»»»»»»»»»»»» Sample Info ««««««««««««««««««««««««««««««««««««
Sample Name:	
Lot Name:	
Wafer Name:	
Die Row/Column:	0/0
Capacitor Number:	0
Sample Area (cm2):	1.00e-04
Sample Thickness (microns):	3.00e-01

Amplifier:	Internal

»»»»»»»»»»»»»»»»»»»»»»»»»»»»»»»»»»» Tester Info «««««««««««««««««««««««««««««««««««
Tester Name:	PMF21124-494 (100V)
Tester Serial Number:	PMF21124-494
Return Signal Amp. Level:	0.19 [Index: 3]

»»»»»»»»»»»»»»»»»»»»»»»»»»»»»»»» Hysteresis Info ««««««««««««««««««««««««««««««««««
Task Name:	Hyst-554
Volts:	20.00
Field:	666.67 (kV/cm)
DCBias:	0.00
DCField:	0.00 (kV/cm)
Hysteresis Period (ms):	1.00e+00
Preset:	Enabled
Preset Delay (ms):	1.00e+03
Profile:	Standard Bipolar

»»»»»»»»»»»»»»»»»»»»»»»»»»»»»»»»»»»»»» Data «««««««««««««««««««««««««««««««««««««««
Points:	2001

Valid Data

Point	Time (ms)	Drive Voltage	Measured Polarization (uC/cm2)	Capacitance (uF)	Normalized Capacitance (uF/cm2)	Dielectric Constant	Instantaneous Current (mA)
   1	0.0000e+00	0.0209	-9.699602	0.000485	4.850327	1.643335	0.038718
   2	5.0000e-04	0.0289	-9.506013	0.000485	4.850327	1.643335	0.038718
   3	1.0000e-03	0.0561	-9.360822	0.000364	3.637745	1.232502	0.029038
   4	1.5000e-03	0.1059	-9.316458	0.000111	1.111533	0.376598	0.008873
   5	2.0000e-03	0.1364	-9.066406	0.000627	6.265006	2.122642	0.050010
   6	2.5000e-03	0.1781	-8.828453	0.000596	5.961861	2.019933	0.047591
   7	3.0000e-03	0.2069	-8.538070	0.000728	7.275491	2.465003	0.058077
   8	3.5000e-03	0.2519	-8.259786	0.000697	6.972345	2.362295	0.055657
   9	4.0000e-03	0.2920	-7.908906	0.000879	8.791218	2.978545	0.070176
  10	4.5000e-03	0.3337	-7.691119	0.000546	5.456618	1.848752	0.043557
  11	5.0000e-03	0.3818	-7.594325	0.000243	2.425164	0.821668	0.019359
  12	5.5000e-03	0.4123	-7.239412	0.000889	8.892267	3.012781	0.070983
  13	6.0000e-03	0.4556	-7.025658	0.000536	5.355570	1.814516	0.042751
  14	6.5000e-03	0.4941	-6.836102	0.000475	4.749279	1.609099	0.037911
  15	7.0000e-03	0.5278	-6.521520	0.000788	7.881782	2.670420	0.062916
  16	7.5000e-03	0.5663	-6.231137	0.000728	7.275491	2.465003	0.058077
  17	8.0000e-03	0.6112	-5.876225	0.000889	8.892267	3.012781	0.070983
  18	8.5000e-03	0.6593	-5.662470	0.000536	5.355570	1.814516	0.042751
  19	9.0000e-03	0.6962	-5.372087	0.000728	7.275491	2.465003	0.058077
  20	9.5000e-03	0.7347	-5.105903	0.000667	6.669200	2.259586	0.053237
  21	1.0000e-02	0.7700	-4.900215	0.000515	5.153473	1.746044	0.041138
  22	1.0500e-02	0.8101	-4.678394	0.000556	5.557667	1.882988	0.044364
  23	1.1000e-02	0.8567	-4.460607	0.000546	5.456618	1.848752	0.043557
  24	1.1500e-02	0.8936	-4.174257	0.000717	7.174442	2.430767	0.057270
  25	1.2000e-02	0.9305	-3.900006	0.000687	6.871297	2.328058	0.054850
  26	1.2500e-02	0.9690	-3.601557	0.000748	7.477588	2.533475	0.059690
  27	1.3000e-02	1.0123	-3.303108	0.000748	7.477588	2.533475	0.059690
  28	1.3500e-02	1.0588	-2.992559	0.000778	7.780733	2.636184	0.062110
  29	1.4000e-02	1.0829	-2.722342	0.000677	6.770248	2.293822	0.054044
  30	1.4500e-02	1.1278	-2.440025	0.000707	7.073394	2.396531	0.056463
  31	1.5000e-02	1.1791	-2.339197	0.000253	2.526212	0.855904	0.020165
  32	1.5500e-02	1.2128	-2.040748	0.000748	7.477588	2.533475	0.059690
  33	1.6000e-02	1.2577	-1.770530	0.000677	6.770248	2.293822	0.054044
  34	1.6500e-02	1.2978	-1.496280	0.000687	6.871297	2.328058	0.054850
  35	1.7000e-02	1.3379	-1.274459	0.000556	5.557667	1.882988	0.044364
  36	1.7500e-02	1.3732	-0.923580	0.000879	8.791218	2.978545	0.070176
  37	1.8000e-02	1.4165	-0.685627	0.000596	5.961861	2.019933	0.047591
  38	1.8500e-02	1.4582	-0.508170	0.000445	4.446133	1.506391	0.035491
  39	1.9000e-02	1.4855	-0.209721	0.000748	7.477588	2.533475	0.059690
  40	1.9500e-02	1.5465	-0.036298	0.000435	4.345085	1.472155	0.034685
  41	2.0000e-02	1.5641	0.330714	0.000920	9.195412	3.115490	0.073402
  42	2.0500e-02	1.6090	0.520270	0.000475	4.749279	1.609099	0.037911
  43	2.1000e-02	1.6540	0.855017	0.000839	8.387024	2.841601	0.066949
  44	2.1500e-02	1.6893	1.213963	0.000899	8.993315	3.047018	0.071789
  45	2.2000e-02	1.7390	1.435783	0.000556	5.557667	1.882988	0.044364
  46	2.2500e-02	1.7775	1.738265	0.000758	7.578636	2.567711	0.060496
  47	2.3000e-02	1.8112	1.988318	0.000627	6.265006	2.122642	0.050010
  48	2.3500e-02	1.8545	2.242403	0.000637	6.366055	2.156878	0.050817
  49	2.4000e-02	1.8898	2.488422	0.000616	6.163958	2.088405	0.049204
  50	2.4500e-02	1.9315	2.883666	0.000990	9.902751	3.355143	0.079049
  51	2.5000e-02	1.9796	3.073221	0.000475	4.749279	1.609099	0.037911
  52	2.5500e-02	2.0133	3.262777	0.000475	4.749279	1.609099	0.037911
  53	2.6000e-02	2.0534	3.549127	0.000717	7.174442	2.430767	0.057270
  54	2.6500e-02	2.0951	3.714484	0.000414	4.142988	1.403682	0.033071
  55	2.7000e-02	2.1352	4.020999	0.000768	7.679685	2.601948	0.061303
  56	2.7500e-02	2.1705	4.412210	0.000980	9.801703	3.320907	0.078242
  57	2.8000e-02	2.1994	4.589666	0.000445	4.446133	1.506391	0.035491
  58	2.8500e-02	2.2539	4.912314	0.000808	8.083879	2.738892	0.064530
  59	2.9000e-02	2.2892	5.178499	0.000667	6.669200	2.259586	0.053237
  60	2.9500e-02	2.3261	5.468882	0.000728	7.275491	2.465003	0.058077
  61	3.0000e-02	2.3711	5.710868	0.000606	6.062909	2.054169	0.048397
  62	3.0500e-02	2.4192	6.017383	0.000768	7.679685	2.601948	0.061303
  63	3.1000e-02	2.4481	6.291634	0.000687	6.871297	2.328058	0.054850
  64	3.1500e-02	2.4898	6.586050	0.000738	7.376539	2.499239	0.058883
  65	3.2000e-02	2.5379	6.856268	0.000677	6.770248	2.293822	0.054044
  66	3.2500e-02	2.5684	7.126485	0.000677	6.770248	2.293822	0.054044
  67	3.3000e-02	2.6101	7.328140	0.000505	5.052424	1.711808	0.040331
  68	3.3500e-02	2.6502	7.481398	0.000384	3.839842	1.300974	0.030652
  69	3.4000e-02	2.6887	7.880675	0.001000	10.003800	3.389379	0.079855
  70	3.4500e-02	2.7448	8.146859	0.000667	6.669200	2.259586	0.053237
  71	3.5000e-02	2.7769	8.457408	0.000778	7.780733	2.636184	0.062110
  72	3.5500e-02	2.8106	8.747791	0.000728	7.275491	2.465003	0.058077
  73	3.6000e-02	2.8507	8.961545	0.000536	5.355570	1.814516	0.042751
  74	3.6500e-02	2.8940	9.231763	0.000677	6.770248	2.293822	0.054044
  75	3.7000e-02	2.9341	9.453583	0.000556	5.557667	1.882988	0.044364
  76	3.7500e-02	2.9710	9.687503	0.000586	5.860812	1.985697	0.046784
  77	3.8000e-02	3.0111	10.050482	0.000909	9.094364	3.081254	0.072596
  78	3.8500e-02	3.0577	10.348931	0.000748	7.477588	2.533475	0.059690
  79	3.9000e-02	3.0930	10.639314	0.000728	7.275491	2.465003	0.058077
  80	3.9500e-02	3.1347	10.845002	0.000515	5.153473	1.746044	0.041138
  81	4.0000e-02	3.1748	11.095054	0.000627	6.265006	2.122642	0.050010
  82	4.0500e-02	3.2053	11.498364	0.001010	10.104848	3.423615	0.080662
  83	4.1000e-02	3.2502	11.732284	0.000586	5.860812	1.985697	0.046784
  84	4.1500e-02	3.2935	11.877475	0.000364	3.637745	1.232502	0.029038
  85	4.2000e-02	3.3368	12.224322	0.000869	8.690170	2.944309	0.069369
  86	4.2500e-02	3.3705	12.425977	0.000505	5.052424	1.711808	0.040331
  87	4.3000e-02	3.4186	12.651830	0.000566	5.658715	1.917225	0.045171
  88	4.3500e-02	3.4523	12.905916	0.000637	6.366055	2.156878	0.050817
  89	4.4000e-02	3.4972	13.317292	0.001031	10.306945	3.492088	0.082275
  90	4.4500e-02	3.5325	13.502814	0.000465	4.648230	1.574863	0.037105
  91	4.5000e-02	3.5742	13.736734	0.000586	5.860812	1.985697	0.046784
  92	4.5500e-02	3.6143	14.103746	0.000920	9.195412	3.115490	0.073402
  93	4.6000e-02	3.6560	14.361864	0.000647	6.467103	2.191114	0.051624
  94	4.6500e-02	3.7010	14.684512	0.000808	8.083879	2.738892	0.064530
  95	4.7000e-02	3.7363	14.930531	0.000616	6.163958	2.088405	0.049204
  96	4.7500e-02	3.7619	15.168484	0.000596	5.961861	2.019933	0.047591
  97	4.8000e-02	3.8068	15.535496	0.000920	9.195412	3.115490	0.073402
  98	4.8500e-02	3.8453	15.761349	0.000566	5.658715	1.917225	0.045171
  99	4.9000e-02	3.8951	15.886375	0.000313	3.132503	1.061321	0.025005
 100	4.9500e-02	3.9288	16.225156	0.000849	8.488073	2.875837	0.067756
 101	5.0000e-02	3.9673	16.567969	0.000859	8.589121	2.910073	0.068563
 102	5.0500e-02	4.0138	16.862385	0.000738	7.376539	2.499239	0.058883
 103	5.1000e-02	4.0507	17.245530	0.000960	9.599606	3.252435	0.076629
 104	5.1500e-02	4.0940	17.418953	0.000435	4.345085	1.472155	0.034685
 105	5.2000e-02	4.1325	17.697237	0.000697	6.972345	2.362295	0.055657
 106	5.2500e-02	4.1726	18.036017	0.000849	8.488073	2.875837	0.067756
 107	5.3000e-02	4.2095	18.290102	0.000637	6.366055	2.156878	0.050817
 108	5.3500e-02	4.2496	18.455459	0.000414	4.142988	1.403682	0.033071
 109	5.4000e-02	4.2945	18.830537	0.000940	9.397509	3.183962	0.075016
 110	5.4500e-02	4.3378	19.181417	0.000879	8.791218	2.978545	0.070176
 111	5.5000e-02	4.3763	19.536330	0.000889	8.892267	3.012781	0.070983
 112	5.5500e-02	4.4165	19.717819	0.000455	4.547182	1.540627	0.036298
 113	5.6000e-02	4.4598	19.975937	0.000647	6.467103	2.191114	0.051624
 114	5.6500e-02	4.4983	20.290519	0.000788	7.881782	2.670420	0.062916
 115	5.7000e-02	4.5255	20.431678	0.000354	3.536697	1.198265	0.028232
 116	5.7500e-02	4.5673	20.734160	0.000758	7.578636	2.567711	0.060496
 117	5.8000e-02	4.6106	21.068907	0.000839	8.387024	2.841601	0.066949
 118	5.8500e-02	4.6507	21.484316	0.001041	10.407994	3.526324	0.083082
 119	5.9000e-02	4.6892	21.681938	0.000495	4.951376	1.677572	0.039524
 120	5.9500e-02	4.7405	22.012652	0.000829	8.285976	2.807365	0.066143
 121	6.0000e-02	4.7790	22.178009	0.000414	4.142988	1.403682	0.033071
 122	6.0500e-02	4.8111	22.561154	0.000960	9.599606	3.252435	0.076629
 123	6.1000e-02	4.8560	22.899934	0.000849	8.488073	2.875837	0.067756
 124	6.1500e-02	4.8945	22.944298	0.000111	1.111533	0.376598	0.008873
 125	6.2000e-02	4.9314	23.250813	0.000768	7.679685	2.601948	0.061303
 126	6.2500e-02	4.9731	23.625892	0.000940	9.397509	3.183962	0.075016
 127	6.3000e-02	5.0180	23.787216	0.000404	4.041939	1.369446	0.032265
 128	6.3500e-02	5.0485	24.279254	0.001233	12.327915	4.176811	0.098408
 129	6.4000e-02	5.0918	24.367982	0.000222	2.223067	0.753195	0.017746
 130	6.4500e-02	5.1255	24.702729	0.000839	8.387024	2.841601	0.066949
 131	6.5000e-02	5.1688	24.940682	0.000596	5.961861	2.019933	0.047591
 132	6.5500e-02	5.2170	25.162502	0.000556	5.557667	1.882988	0.044364
 133	6.6000e-02	5.2490	25.569845	0.001021	10.205897	3.457851	0.081469
 134	6.6500e-02	5.2892	25.844096	0.000687	6.871297	2.328058	0.054850
 135	6.7000e-02	5.3325	26.158678	0.000788	7.881782	2.670420	0.062916
 136	6.7500e-02	5.3758	26.295803	0.000344	3.435648	1.164029	0.027425
 137	6.8000e-02	5.4175	26.735411	0.001101	11.014285	3.731741	0.087922
 138	6.8500e-02	5.4608	26.985463	0.000627	6.265006	2.122642	0.050010
 139	6.9000e-02	5.4961	27.203250	0.000546	5.456618	1.848752	0.043557
 140	6.9500e-02	5.5250	27.445236	0.000606	6.062909	2.054169	0.048397
 141	7.0000e-02	5.5715	27.707387	0.000657	6.568151	2.225350	0.052430
 142	7.0500e-02	5.6004	28.026002	0.000798	7.982830	2.704656	0.063723
 143	7.1000e-02	5.6565	28.288154	0.000657	6.568151	2.225350	0.052430
 144	7.1500e-02	5.6886	28.739861	0.001132	11.317430	3.834449	0.090341
 145	7.2000e-02	5.7319	28.872953	0.000333	3.334600	1.129793	0.026618
 146	7.2500e-02	5.7736	29.175435	0.000758	7.578636	2.567711	0.060496
 147	7.3000e-02	5.8057	29.465818	0.000728	7.275491	2.465003	0.058077
 148	7.3500e-02	5.8490	29.631175	0.000414	4.142988	1.403682	0.033071
 149	7.4000e-02	5.8907	30.070783	0.001101	11.014285	3.731741	0.087922
 150	7.4500e-02	5.9260	30.280504	0.000525	5.254521	1.780280	0.041944
 151	7.5000e-02	5.9742	30.470060	0.000475	4.749279	1.609099	0.037911
 152	7.5500e-02	6.0111	30.744311	0.000687	6.871297	2.328058	0.054850
 153	7.6000e-02	6.0512	31.066959	0.000808	8.083879	2.738892	0.064530
 154	7.6500e-02	6.0945	31.317011	0.000627	6.265006	2.122642	0.050010
 155	7.7000e-02	6.1362	31.607394	0.000728	7.275491	2.465003	0.058077
 156	7.7500e-02	6.1715	31.833247	0.000566	5.658715	1.917225	0.045171
 157	7.8000e-02	6.2164	32.260756	0.001071	10.711139	3.629032	0.085502
 158	7.8500e-02	6.2565	32.486609	0.000566	5.658715	1.917225	0.045171
 159	7.9000e-02	6.2950	32.821356	0.000839	8.387024	2.841601	0.066949
 160	7.9500e-02	6.3287	33.152071	0.000829	8.285976	2.807365	0.066143
 161	8.0000e-02	6.3816	33.313394	0.000404	4.041939	1.369446	0.032265
 162	8.0500e-02	6.4073	33.603778	0.000728	7.275491	2.465003	0.058077
 163	8.1000e-02	6.4586	34.059518	0.001142	11.418479	3.868685	0.091148
 164	8.1500e-02	6.4923	34.236974	0.000445	4.446133	1.506391	0.035491
 165	8.2000e-02	6.5276	34.430563	0.000485	4.850327	1.643335	0.038718
 166	8.2500e-02	6.5677	34.716913	0.000717	7.174442	2.430767	0.057270
 167	8.3000e-02	6.6239	35.096024	0.000950	9.498558	3.218198	0.075822
 168	8.3500e-02	6.6511	35.273480	0.000445	4.446133	1.506391	0.035491
 169	8.4000e-02	6.6848	35.608228	0.000839	8.387024	2.841601	0.066949
 170	8.4500e-02	6.7265	35.793750	0.000465	4.648230	1.574863	0.037105
 171	8.5000e-02	6.7795	36.108332	0.000788	7.881782	2.670420	0.062916
 172	8.5500e-02	6.8148	36.414847	0.000768	7.679685	2.601948	0.061303
 173	8.6000e-02	6.8533	36.709263	0.000738	7.376539	2.499239	0.058883
 174	8.6500e-02	6.8934	37.003680	0.000738	7.376539	2.499239	0.058883
 175	8.7000e-02	6.9255	37.314228	0.000778	7.780733	2.636184	0.062110
 176	8.7500e-02	6.9736	37.580413	0.000667	6.669200	2.259586	0.053237
 177	8.8000e-02	7.0121	37.753836	0.000435	4.345085	1.472155	0.034685
 178	8.8500e-02	7.0554	38.084550	0.000829	8.285976	2.807365	0.066143
 179	8.9000e-02	7.0875	38.209576	0.000313	3.132503	1.061321	0.025005
 180	8.9500e-02	7.1308	38.540290	0.000829	8.285976	2.807365	0.066143
 181	9.0000e-02	7.1725	38.810508	0.000677	6.770248	2.293822	0.054044
 182	9.0500e-02	7.2062	39.262215	0.001132	11.317430	3.834449	0.090341
 183	9.1000e-02	7.2447	39.451771	0.000475	4.749279	1.609099	0.037911
 184	9.1500e-02	7.2896	39.625194	0.000435	4.345085	1.472155	0.034685
 185	9.2000e-02	7.3329	40.121265	0.001243	12.428964	4.211047	0.099214
 186	9.2500e-02	7.3731	40.359218	0.000596	5.961861	2.019933	0.047591
 187	9.3000e-02	7.4100	40.564906	0.000515	5.153473	1.746044	0.041138
 188	9.3500e-02	7.4549	40.915785	0.000879	8.791218	2.978545	0.070176
 189	9.4000e-02	7.4982	41.226334	0.000778	7.780733	2.636184	0.062110
 190	9.4500e-02	7.5287	41.359426	0.000333	3.334600	1.129793	0.026618
 191	9.5000e-02	7.5704	41.617544	0.000647	6.467103	2.191114	0.051624
 192	9.5500e-02	7.6185	41.815166	0.000495	4.951376	1.677572	0.039524
 193	9.6000e-02	7.6506	42.178145	0.000909	9.094364	3.081254	0.072596
 194	9.6500e-02	7.6827	42.432230	0.000637	6.366055	2.156878	0.050817
 195	9.7000e-02	7.7292	42.593554	0.000404	4.041939	1.369446	0.032265
 196	9.7500e-02	7.7677	42.976699	0.000960	9.599606	3.252435	0.076629
 197	9.8000e-02	7.8094	43.371942	0.000990	9.902751	3.355143	0.079049
 198	9.8500e-02	7.8527	43.569564	0.000495	4.951376	1.677572	0.039524
 199	9.9000e-02	7.8880	43.876080	0.000768	7.679685	2.601948	0.061303
 200	9.9500e-02	7.9329	44.077735	0.000505	5.052424	1.711808	0.040331
 201	1.0000e-01	7.9714	44.376184	0.000748	7.477588	2.533475	0.059690
 202	1.0050e-01	8.0099	44.811759	0.001091	10.913236	3.697505	0.087115
 203	1.0100e-01	8.0484	44.948884	0.000344	3.435648	1.164029	0.027425
 204	1.0150e-01	8.0869	45.211035	0.000657	6.568151	2.225350	0.052430
 205	1.0200e-01	8.1174	45.485286	0.000687	6.871297	2.328058	0.054850
 206	1.0250e-01	8.1720	45.699040	0.000536	5.355570	1.814516	0.042751
 207	1.0300e-01	8.2089	46.070085	0.000930	9.296461	3.149726	0.074209
 208	1.0350e-01	8.2442	46.392733	0.000808	8.083879	2.738892	0.064530
 209	1.0400e-01	8.2875	46.691183	0.000748	7.477588	2.533475	0.059690
 210	1.0450e-01	8.3372	46.941235	0.000627	6.265006	2.122642	0.050010
 211	1.0500e-01	8.3757	47.203386	0.000657	6.568151	2.225350	0.052430
 212	1.0550e-01	8.4094	47.441339	0.000596	5.961861	2.019933	0.047591
 213	1.0600e-01	8.4527	47.667192	0.000566	5.658715	1.917225	0.045171
 214	1.0650e-01	8.4880	47.933377	0.000667	6.669200	2.259586	0.053237
 215	1.0700e-01	8.5377	48.167297	0.000586	5.860812	1.985697	0.046784
 216	1.0750e-01	8.5698	48.506077	0.000849	8.488073	2.875837	0.067756
 217	1.0800e-01	8.6099	48.812592	0.000768	7.679685	2.601948	0.061303
 218	1.0850e-01	8.6500	49.006181	0.000485	4.850327	1.643335	0.038718
 219	1.0900e-01	8.6917	49.369160	0.000909	9.094364	3.081254	0.072596
 220	1.0950e-01	8.7334	49.554683	0.000465	4.648230	1.574863	0.037105
 221	1.1000e-01	8.7623	49.812801	0.000647	6.467103	2.191114	0.051624
 222	1.1050e-01	8.8104	50.046721	0.000586	5.860812	1.985697	0.046784
 223	1.1100e-01	8.8489	50.304839	0.000647	6.467103	2.191114	0.051624
 224	1.1150e-01	8.8923	50.756546	0.001132	11.317430	3.834449	0.090341
 225	1.1200e-01	8.9372	50.950135	0.000485	4.850327	1.643335	0.038718
 226	1.1250e-01	8.9677	51.188087	0.000596	5.961861	2.019933	0.047591
 227	1.1300e-01	9.0094	51.623662	0.001091	10.913236	3.697505	0.087115
 228	1.1350e-01	9.0559	51.728523	0.000263	2.627261	0.890140	0.020972
 229	1.1400e-01	9.0960	51.946310	0.000546	5.456618	1.848752	0.043557
 230	1.1450e-01	9.1361	52.232660	0.000717	7.174442	2.430767	0.057270
 231	1.1500e-01	9.1714	52.591606	0.000899	8.993315	3.047018	0.071789
 232	1.1550e-01	9.2131	52.732764	0.000354	3.536697	1.198265	0.028232
 233	1.1600e-01	9.2564	53.119942	0.000970	9.700654	3.286671	0.077435
 234	1.1650e-01	9.3013	53.507119	0.000970	9.700654	3.286671	0.077435
 235	1.1700e-01	9.3350	53.599880	0.000232	2.324115	0.787432	0.018552
 236	1.1750e-01	9.3767	53.825734	0.000566	5.658715	1.917225	0.045171
 237	1.1800e-01	9.4136	54.055621	0.000576	5.759764	1.951461	0.045977
 238	1.1850e-01	9.4521	54.503295	0.001122	11.216382	3.800213	0.089535
 239	1.1900e-01	9.4826	54.797711	0.000738	7.376539	2.499239	0.058883
 240	1.1950e-01	9.5356	54.999366	0.000505	5.052424	1.711808	0.040331
 241	1.2000e-01	9.5660	55.301848	0.000758	7.578636	2.567711	0.060496
 242	1.2050e-01	9.6126	55.592231	0.000728	7.275491	2.465003	0.058077
 243	1.2100e-01	9.6511	55.963276	0.000930	9.296461	3.149726	0.074209
 244	1.2150e-01	9.6960	56.156865	0.000485	4.850327	1.643335	0.038718
 245	1.2200e-01	9.7345	56.342387	0.000465	4.648230	1.574863	0.037105
 246	1.2250e-01	9.7794	56.616638	0.000687	6.871297	2.328058	0.054850
 247	1.2300e-01	9.8099	56.822326	0.000515	5.153473	1.746044	0.041138
 248	1.2350e-01	9.8420	57.096577	0.000687	6.871297	2.328058	0.054850
 249	1.2400e-01	9.8965	57.322430	0.000566	5.658715	1.917225	0.045171
 250	1.2450e-01	9.9318	57.612814	0.000728	7.275491	2.465003	0.058077
 251	1.2500e-01	9.9735	57.830601	0.000546	5.456618	1.848752	0.043557
 252	1.2550e-01	10.0104	58.169381	0.000849	8.488073	2.875837	0.067756
 253	1.2600e-01	10.0521	58.455731	0.000717	7.174442	2.430767	0.057270
 254	1.2650e-01	10.1002	58.568658	0.000283	2.829358	0.958612	0.022585
 255	1.2700e-01	10.1371	58.992133	0.001061	10.610091	3.594796	0.084695
 256	1.2750e-01	10.1740	59.201854	0.000525	5.254521	1.780280	0.041944
 257	1.2800e-01	10.2142	59.496271	0.000738	7.376539	2.499239	0.058883
 258	1.2850e-01	10.2527	59.665661	0.000424	4.244036	1.437918	0.033878
 259	1.2900e-01	10.2879	60.113335	0.001122	11.216382	3.800213	0.089535
 260	1.2950e-01	10.3409	60.290791	0.000445	4.446133	1.506391	0.035491
 261	1.3000e-01	10.3762	60.565042	0.000687	6.871297	2.328058	0.054850
 262	1.3050e-01	10.4099	60.730399	0.000414	4.142988	1.403682	0.033071
 263	1.3100e-01	10.4500	61.028848	0.000748	7.477588	2.533475	0.059690
 264	1.3150e-01	10.4997	61.347463	0.000798	7.982830	2.704656	0.063723
 265	1.3200e-01	10.5270	61.609614	0.000657	6.568151	2.225350	0.052430
 266	1.3250e-01	10.5767	61.871766	0.000657	6.568151	2.225350	0.052430
 267	1.3300e-01	10.6168	62.186347	0.000788	7.881782	2.670420	0.062916
 268	1.3350e-01	10.6489	62.492863	0.000768	7.679685	2.601948	0.061303
 269	1.3400e-01	10.6970	62.706617	0.000536	5.355570	1.814516	0.042751
 270	1.3450e-01	10.7403	62.871974	0.000414	4.142988	1.403682	0.033071
 271	1.3500e-01	10.7740	63.142192	0.000677	6.770248	2.293822	0.054044
 272	1.3550e-01	10.8157	63.509204	0.000920	9.195412	3.115490	0.073402
 273	1.3600e-01	10.8430	63.831852	0.000808	8.083879	2.738892	0.064530
 274	1.3650e-01	10.8895	64.057705	0.000566	5.658715	1.917225	0.045171
 275	1.3700e-01	10.9296	64.352121	0.000738	7.376539	2.499239	0.058883
 276	1.3750e-01	10.9794	64.573942	0.000556	5.557667	1.882988	0.044364
 277	1.3800e-01	11.0179	64.771564	0.000495	4.951376	1.677572	0.039524
 278	1.3850e-01	11.0548	64.961119	0.000475	4.749279	1.609099	0.037911
 279	1.3900e-01	11.0981	65.328131	0.000920	9.195412	3.115490	0.073402
 280	1.3950e-01	11.1334	65.521720	0.000485	4.850327	1.643335	0.038718
 281	1.4000e-01	11.1751	65.820169	0.000748	7.477588	2.533475	0.059690
 282	1.4050e-01	11.2104	66.090387	0.000677	6.770248	2.293822	0.054044
 283	1.4100e-01	11.2441	66.368671	0.000697	6.972345	2.362295	0.055657
 284	1.4150e-01	11.2938	66.590491	0.000556	5.557667	1.882988	0.044364
 285	1.4200e-01	11.3339	66.921205	0.000829	8.285976	2.807365	0.066143
 286	1.4250e-01	11.3772	67.195456	0.000687	6.871297	2.328058	0.054850
 287	1.4300e-01	11.4125	67.506004	0.000778	7.780733	2.636184	0.062110
 288	1.4350e-01	11.4494	67.643130	0.000344	3.435648	1.164029	0.027425
 289	1.4400e-01	11.4943	67.957711	0.000788	7.881782	2.670420	0.062916
 290	1.4450e-01	11.5344	68.191631	0.000586	5.860812	1.985697	0.046784
 291	1.4500e-01	11.5745	68.449749	0.000647	6.467103	2.191114	0.051624
 292	1.4550e-01	11.6146	68.643338	0.000485	4.850327	1.643335	0.038718
 293	1.4600e-01	11.6467	68.978085	0.000839	8.387024	2.841601	0.066949
 294	1.4650e-01	11.6949	69.248303	0.000677	6.770248	2.293822	0.054044
 295	1.4700e-01	11.7269	69.595149	0.000869	8.690170	2.944309	0.069369
 296	1.4750e-01	11.7735	69.808904	0.000536	5.355570	1.814516	0.042751
 297	1.4800e-01	11.8120	70.067022	0.000647	6.467103	2.191114	0.051624
 298	1.4850e-01	11.8457	70.260611	0.000485	4.850327	1.643335	0.038718
 299	1.4900e-01	11.8922	70.546961	0.000717	7.174442	2.430767	0.057270
 300	1.4950e-01	11.9307	70.829278	0.000707	7.073394	2.396531	0.056463
 301	1.5000e-01	11.9692	71.147892	0.000798	7.982830	2.704656	0.063723
 302	1.5050e-01	12.0077	71.337448	0.000475	4.749279	1.609099	0.037911
 303	1.5100e-01	12.0510	71.668162	0.000829	8.285976	2.807365	0.066143
 304	1.5150e-01	12.0879	71.894016	0.000566	5.658715	1.917225	0.045171
 305	1.5200e-01	12.1473	72.055340	0.000404	4.041939	1.369446	0.032265
 306	1.5250e-01	12.1697	72.212630	0.000394	3.940891	1.335210	0.031458
 307	1.5300e-01	12.2098	72.599808	0.000970	9.700654	3.286671	0.077435
 308	1.5350e-01	12.2499	72.878092	0.000697	6.972345	2.362295	0.055657
 309	1.5400e-01	12.2884	73.120078	0.000606	6.062909	2.054169	0.048397
 310	1.5450e-01	12.3333	73.366097	0.000616	6.163958	2.088405	0.049204
 311	1.5500e-01	12.3734	73.591950	0.000566	5.658715	1.917225	0.045171
 312	1.5550e-01	12.4136	73.837969	0.000616	6.163958	2.088405	0.049204
 313	1.5600e-01	12.4505	74.124319	0.000717	7.174442	2.430767	0.057270
 314	1.5650e-01	12.4890	74.313875	0.000475	4.749279	1.609099	0.037911
 315	1.5700e-01	12.5291	74.721218	0.001021	10.205897	3.457851	0.081469
 316	1.5750e-01	12.5692	74.793814	0.000182	1.818873	0.616251	0.014519
 317	1.5800e-01	12.6205	75.180991	0.000970	9.700654	3.286671	0.077435
 318	1.5850e-01	12.6478	75.487507	0.000768	7.679685	2.601948	0.061303
 319	1.5900e-01	12.6895	75.765790	0.000697	6.972345	2.362295	0.055657
 320	1.5950e-01	12.7456	75.967445	0.000505	5.052424	1.711808	0.040331
 321	1.6000e-01	12.7681	76.124736	0.000394	3.940891	1.335210	0.031458
 322	1.6050e-01	12.8082	76.495781	0.000930	9.296461	3.149726	0.074209
 323	1.6100e-01	12.8531	76.782131	0.000717	7.174442	2.430767	0.057270
 324	1.6150e-01	12.8964	77.149143	0.000920	9.195412	3.115490	0.073402
 325	1.6200e-01	12.9237	77.241904	0.000232	2.324115	0.787432	0.018552
 326	1.6250e-01	12.9734	77.423394	0.000455	4.547182	1.540627	0.036298
 327	1.6300e-01	13.0151	77.621016	0.000495	4.951376	1.677572	0.039524
 328	1.6350e-01	13.0504	77.931564	0.000778	7.780733	2.636184	0.062110
 329	1.6400e-01	13.0921	78.104988	0.000435	4.345085	1.472155	0.034685
 330	1.6450e-01	13.1306	78.387304	0.000707	7.073394	2.396531	0.056463
 331	1.6500e-01	13.1643	78.609125	0.000556	5.557667	1.882988	0.044364
 332	1.6550e-01	13.2060	78.939839	0.000829	8.285976	2.807365	0.066143
 333	1.6600e-01	13.2462	79.145527	0.000515	5.153473	1.746044	0.041138
 334	1.6650e-01	13.2911	79.322983	0.000445	4.446133	1.506391	0.035491
 335	1.6700e-01	13.3344	79.710161	0.000970	9.700654	3.286671	0.077435
 336	1.6750e-01	13.3681	79.988445	0.000697	6.972345	2.362295	0.055657
 337	1.6800e-01	13.4034	80.133636	0.000364	3.637745	1.232502	0.029038
 338	1.6850e-01	13.4483	80.476450	0.000859	8.589121	2.910073	0.068563
 339	1.6900e-01	13.4948	80.666005	0.000475	4.749279	1.609099	0.037911
 340	1.6950e-01	13.5205	80.936223	0.000677	6.770248	2.293822	0.054044
 341	1.7000e-01	13.5654	81.202407	0.000667	6.669200	2.259586	0.053237
 342	1.7050e-01	13.6071	81.468592	0.000667	6.669200	2.259586	0.053237
 343	1.7100e-01	13.6456	81.702511	0.000586	5.860812	1.985697	0.046784
 344	1.7150e-01	13.6953	81.879968	0.000445	4.446133	1.506391	0.035491
 345	1.7200e-01	13.7290	82.142119	0.000657	6.568151	2.225350	0.052430
 346	1.7250e-01	13.7611	82.521231	0.000950	9.498558	3.218198	0.075822
 347	1.7300e-01	13.8124	82.739018	0.000546	5.456618	1.848752	0.043557
 348	1.7350e-01	13.8509	82.843878	0.000263	2.627261	0.890140	0.020972
 349	1.7400e-01	13.8943	83.227023	0.000960	9.599606	3.252435	0.076629
 350	1.7450e-01	13.9296	83.380281	0.000384	3.839842	1.300974	0.030652
 351	1.7500e-01	13.9745	83.674697	0.000738	7.376539	2.499239	0.058883
 352	1.7550e-01	14.0162	83.880385	0.000515	5.153473	1.746044	0.041138
 353	1.7600e-01	14.0547	84.053808	0.000435	4.345085	1.472155	0.034685
 354	1.7650e-01	14.0836	84.404688	0.000879	8.791218	2.978545	0.070176
 355	1.7700e-01	14.1301	84.626508	0.000556	5.557667	1.882988	0.044364
 356	1.7750e-01	14.1638	84.949156	0.000808	8.083879	2.738892	0.064530
 357	1.7800e-01	14.2055	85.195175	0.000616	6.163958	2.088405	0.049204
 358	1.7850e-01	14.2472	85.533955	0.000849	8.488073	2.875837	0.067756
 359	1.7900e-01	14.2809	85.828371	0.000738	7.376539	2.499239	0.058883
 360	1.7950e-01	14.3322	85.977596	0.000374	3.738794	1.266738	0.029845
 361	1.8000e-01	14.3723	86.102622	0.000313	3.132503	1.061321	0.025005
 362	1.8050e-01	14.4076	86.292178	0.000475	4.749279	1.609099	0.037911
 363	1.8100e-01	14.4477	86.602726	0.000778	7.780733	2.636184	0.062110
 364	1.8150e-01	14.4878	86.881010	0.000697	6.972345	2.362295	0.055657
 365	1.8200e-01	14.5392	87.094764	0.000536	5.355570	1.814516	0.042751
 366	1.8250e-01	14.5745	87.457743	0.000909	9.094364	3.081254	0.072596
 367	1.8300e-01	14.6130	87.639233	0.000455	4.547182	1.540627	0.036298
 368	1.8350e-01	14.6531	87.893318	0.000637	6.366055	2.156878	0.050817
 369	1.8400e-01	14.6932	88.123204	0.000576	5.759764	1.951461	0.045977
 370	1.8450e-01	14.7285	88.425687	0.000758	7.578636	2.567711	0.060496
 371	1.8500e-01	14.7686	88.623309	0.000495	4.951376	1.677572	0.039524
 372	1.8550e-01	14.8087	88.816897	0.000485	4.850327	1.643335	0.038718
 373	1.8600e-01	14.8504	89.091148	0.000687	6.871297	2.328058	0.054850
 374	1.8650e-01	14.8921	89.268604	0.000445	4.446133	1.506391	0.035491
 375	1.8700e-01	14.9242	89.579153	0.000778	7.780733	2.636184	0.062110
 376	1.8750e-01	14.9579	89.857437	0.000697	6.972345	2.362295	0.055657
 377	1.8800e-01	15.0092	90.022794	0.000414	4.142988	1.403682	0.033071
 378	1.8850e-01	15.0461	90.349475	0.000818	8.184927	2.773128	0.065336
 379	1.8900e-01	15.0910	90.651957	0.000758	7.578636	2.567711	0.060496
 380	1.8950e-01	15.1391	90.712454	0.000152	1.515727	0.513542	0.012099
 381	1.9000e-01	15.1712	90.922175	0.000525	5.254521	1.780280	0.041944
 382	1.9050e-01	15.2049	91.273054	0.000879	8.791218	2.978545	0.070176
 383	1.9100e-01	15.2482	91.583603	0.000778	7.780733	2.636184	0.062110
 384	1.9150e-01	15.2883	91.825589	0.000606	6.062909	2.054169	0.048397
 385	1.9200e-01	15.3365	92.027244	0.000505	5.052424	1.711808	0.040331
 386	1.9250e-01	15.3669	92.208733	0.000455	4.547182	1.540627	0.036298
 387	1.9300e-01	15.4103	92.478951	0.000677	6.770248	2.293822	0.054044
 388	1.9350e-01	15.4488	92.720937	0.000606	6.062909	2.054169	0.048397
 389	1.9400e-01	15.4905	92.910493	0.000475	4.749279	1.609099	0.037911
 390	1.9450e-01	15.5354	93.152478	0.000606	6.062909	2.054169	0.048397
 391	1.9500e-01	15.5707	93.475126	0.000808	8.083879	2.738892	0.064530
 392	1.9550e-01	15.6156	93.737278	0.000657	6.568151	2.225350	0.052430
 393	1.9600e-01	15.6477	94.084124	0.000869	8.690170	2.944309	0.069369
 394	1.9650e-01	15.6830	94.378540	0.000738	7.376539	2.499239	0.058883
 395	1.9700e-01	15.7343	94.390640	0.000030	0.303145	0.102708	0.002420
 396	1.9750e-01	15.7712	94.572129	0.000455	4.547182	1.540627	0.036298
 397	1.9800e-01	15.8113	94.995604	0.001061	10.610091	3.594796	0.084695
 398	1.9850e-01	15.8578	95.048035	0.000131	1.313630	0.445070	0.010486
 399	1.9900e-01	15.8883	95.398914	0.000879	8.791218	2.978545	0.070176
 400	1.9950e-01	15.9316	95.636867	0.000596	5.961861	2.019933	0.047591
 401	2.0000e-01	15.9637	95.907085	0.000677	6.770248	2.293822	0.054044
 402	2.0050e-01	16.0151	96.116806	0.000525	5.254521	1.780280	0.041944
 403	2.0100e-01	16.0600	96.249898	0.000333	3.334600	1.129793	0.026618
 404	2.0150e-01	16.0905	96.532215	0.000707	7.073394	2.396531	0.056463
 405	2.0200e-01	16.1274	96.919393	0.000970	9.700654	3.286671	0.077435
 406	2.0250e-01	16.1691	97.060551	0.000354	3.536697	1.198265	0.028232
 407	2.0300e-01	16.2044	97.278338	0.000546	5.456618	1.848752	0.043557
 408	2.0350e-01	16.2541	97.520324	0.000606	6.062909	2.054169	0.048397
 409	2.0400e-01	16.2894	97.838939	0.000798	7.982830	2.704656	0.063723
 410	2.0450e-01	16.3375	98.036561	0.000495	4.951376	1.677572	0.039524
 411	2.0500e-01	16.3760	98.250315	0.000536	5.355570	1.814516	0.042751
 412	2.0550e-01	16.4177	98.500367	0.000627	6.265006	2.122642	0.050010
 413	2.0600e-01	16.4578	98.572963	0.000182	1.818873	0.616251	0.014519
 414	2.0650e-01	16.4835	98.964174	0.000980	9.801703	3.320907	0.078242
 415	2.0700e-01	16.5300	99.141630	0.000445	4.446133	1.506391	0.035491
 416	2.0750e-01	16.5653	99.387649	0.000616	6.163958	2.088405	0.049204
 417	2.0800e-01	16.6134	99.601403	0.000536	5.355570	1.814516	0.042751
 418	2.0850e-01	16.6519	99.799025	0.000495	4.951376	1.677572	0.039524
 419	2.0900e-01	16.6953	100.174103	0.000940	9.397509	3.183962	0.075016
 420	2.0950e-01	16.7273	100.367692	0.000485	4.850327	1.643335	0.038718
 421	2.1000e-01	16.7690	100.609678	0.000606	6.062909	2.054169	0.048397
 422	2.1050e-01	16.8075	100.984756	0.000940	9.397509	3.183962	0.075016
 423	2.1100e-01	16.8509	101.182378	0.000495	4.951376	1.677572	0.039524
 424	2.1150e-01	16.8926	101.460662	0.000697	6.972345	2.362295	0.055657
 425	2.1200e-01	16.9263	101.714747	0.000637	6.366055	2.156878	0.050817
 426	2.1250e-01	16.9712	101.859938	0.000364	3.637745	1.232502	0.029038
 427	2.1300e-01	17.0161	102.073693	0.000536	5.355570	1.814516	0.042751
 428	2.1350e-01	17.0546	102.327778	0.000637	6.366055	2.156878	0.050817
 429	2.1400e-01	17.0851	102.634293	0.000768	7.679685	2.601948	0.061303
 430	2.1450e-01	17.1284	102.880312	0.000616	6.163958	2.088405	0.049204
 431	2.1500e-01	17.1749	103.017438	0.000344	3.435648	1.164029	0.027425
 432	2.1550e-01	17.2134	103.219093	0.000505	5.052424	1.711808	0.040331
 433	2.1600e-01	17.2551	103.481244	0.000657	6.568151	2.225350	0.052430
 434	2.1650e-01	17.2984	103.674833	0.000485	4.850327	1.643335	0.038718
 435	2.1700e-01	17.3321	104.066043	0.000980	9.801703	3.320907	0.078242
 436	2.1750e-01	17.3658	104.352393	0.000717	7.174442	2.430767	0.057270
 437	2.1800e-01	17.4123	104.683107	0.000829	8.285976	2.807365	0.066143
 438	2.1850e-01	17.4508	104.735538	0.000131	1.313630	0.445070	0.010486
 439	2.1900e-01	17.4926	104.900895	0.000414	4.142988	1.403682	0.033071
 440	2.1950e-01	17.5375	105.070285	0.000424	4.244036	1.437918	0.033878
 441	2.2000e-01	17.5760	105.368734	0.000748	7.477588	2.533475	0.059690
 442	2.2050e-01	17.6145	105.590555	0.000556	5.557667	1.882988	0.044364
 443	2.2100e-01	17.6546	105.784143	0.000485	4.850327	1.643335	0.038718
 444	2.2150e-01	17.6915	106.151155	0.000920	9.195412	3.115490	0.073402
 445	2.2200e-01	17.7316	106.288281	0.000344	3.435648	1.164029	0.027425
 446	2.2250e-01	17.7733	106.623028	0.000839	8.387024	2.841601	0.066949
 447	2.2300e-01	17.8150	106.780319	0.000394	3.940891	1.335210	0.031458
 448	2.2350e-01	17.8631	107.014238	0.000586	5.860812	1.985697	0.046784
 449	2.2400e-01	17.8936	107.199761	0.000465	4.648230	1.574863	0.037105
 450	2.2450e-01	17.9273	107.401416	0.000505	5.052424	1.711808	0.040331
 451	2.2500e-01	17.9738	107.635335	0.000586	5.860812	1.985697	0.046784
 452	2.2550e-01	18.0187	107.933785	0.000748	7.477588	2.533475	0.059690
 453	2.2600e-01	18.0556	108.087043	0.000384	3.839842	1.300974	0.030652
 454	2.2650e-01	18.0893	108.429856	0.000859	8.589121	2.910073	0.068563
 455	2.2700e-01	18.1326	108.724272	0.000738	7.376539	2.499239	0.058883
 456	2.2750e-01	18.1744	108.946093	0.000556	5.557667	1.882988	0.044364
 457	2.2800e-01	18.1984	109.204211	0.000647	6.467103	2.191114	0.051624
 458	2.2850e-01	18.2578	109.405866	0.000505	5.052424	1.711808	0.040331
 459	2.2900e-01	18.2883	109.587355	0.000455	4.547182	1.540627	0.036298
 460	2.2950e-01	18.3300	109.918069	0.000829	8.285976	2.807365	0.066143
 461	2.3000e-01	18.3781	110.055195	0.000344	3.435648	1.164029	0.027425
 462	2.3050e-01	18.4102	110.305247	0.000627	6.265006	2.122642	0.050010
 463	2.3100e-01	18.4583	110.531100	0.000566	5.658715	1.917225	0.045171
 464	2.3150e-01	18.5000	110.760987	0.000576	5.759764	1.951461	0.045977
 465	2.3200e-01	18.5417	110.910212	0.000374	3.738794	1.266738	0.029845
 466	2.3250e-01	18.5722	111.051370	0.000354	3.536697	1.198265	0.028232
 467	2.3300e-01	18.6139	111.422415	0.000930	9.296461	3.149726	0.074209
 468	2.3350e-01	18.6556	111.628103	0.000515	5.153473	1.746044	0.041138
 469	2.3400e-01	18.6909	111.797493	0.000424	4.244036	1.437918	0.033878
 470	2.3450e-01	18.7310	112.116108	0.000798	7.982830	2.704656	0.063723
 471	2.3500e-01	18.7679	112.237101	0.000303	3.031455	1.027085	0.024199
 472	2.3550e-01	18.8144	112.495219	0.000647	6.467103	2.191114	0.051624
 473	2.3600e-01	18.8497	112.660576	0.000414	4.142988	1.403682	0.033071
 474	2.3650e-01	18.8898	113.003390	0.000859	8.589121	2.910073	0.068563
 475	2.3700e-01	18.9412	113.209078	0.000515	5.153473	1.746044	0.041138
 476	2.3750e-01	18.9701	113.483328	0.000687	6.871297	2.328058	0.054850
 477	2.3800e-01	18.9989	113.725314	0.000606	6.062909	2.054169	0.048397
 478	2.3850e-01	19.0535	113.922936	0.000495	4.951376	1.677572	0.039524
 479	2.3900e-01	19.0920	114.108459	0.000465	4.648230	1.574863	0.037105
 480	2.3950e-01	19.1289	114.419007	0.000778	7.780733	2.636184	0.062110
 481	2.4000e-01	19.1690	114.677126	0.000647	6.467103	2.191114	0.051624
 482	2.4050e-01	19.2091	114.850549	0.000435	4.345085	1.472155	0.034685
 483	2.4100e-01	19.2460	115.072369	0.000556	5.557667	1.882988	0.044364
 484	2.4150e-01	19.3005	115.201428	0.000323	3.233551	1.095557	0.025812
 485	2.4200e-01	19.3422	115.560374	0.000899	8.993315	3.047018	0.071789
 486	2.4250e-01	19.3775	115.987883	0.001071	10.711139	3.629032	0.085502
 487	2.4300e-01	19.4128	116.108876	0.000303	3.031455	1.027085	0.024199
 488	2.4350e-01	19.4545	116.177438	0.000172	1.717824	0.582015	0.013713
 489	2.4400e-01	19.4898	116.383126	0.000515	5.153473	1.746044	0.041138
 490	2.4450e-01	19.5347	116.600914	0.000546	5.456618	1.848752	0.043557
 491	2.4500e-01	19.5813	116.834833	0.000586	5.860812	1.985697	0.046784
 492	2.4550e-01	19.6150	117.004224	0.000424	4.244036	1.437918	0.033878
 493	2.4600e-01	19.6535	117.294607	0.000728	7.275491	2.465003	0.058077
 494	2.4650e-01	19.6968	117.516427	0.000556	5.557667	1.882988	0.044364
 495	2.4700e-01	19.7353	117.746314	0.000576	5.759764	1.951461	0.045977
 496	2.4750e-01	19.7754	118.024597	0.000697	6.972345	2.362295	0.055657
 497	2.4800e-01	19.8091	118.250451	0.000566	5.658715	1.917225	0.045171
 498	2.4850e-01	19.8620	118.520669	0.000677	6.770248	2.293822	0.054044
 499	2.4900e-01	19.8861	118.613430	0.000232	2.324115	0.787432	0.018552
 500	2.4950e-01	19.9246	118.859449	0.000616	6.163958	2.088405	0.049204
 501	2.5000e-01	19.9727	119.073203	0.000536	5.355570	1.814516	0.042751
 502	2.5050e-01	19.9791	119.109501	0.000091	0.909436	0.308125	0.007260
 503	2.5100e-01	19.9534	119.073203	0.000091	0.909436	0.308125	-0.007260
 504	2.5150e-01	19.9149	118.968343	0.000263	2.627261	0.890140	-0.020972
 505	2.5200e-01	19.8813	118.750555	0.000546	5.456618	1.848752	-0.043557
 506	2.5250e-01	19.8331	118.532768	0.000546	5.456618	1.848752	-0.043557
 507	2.5300e-01	19.7898	118.512602	0.000051	0.505242	0.171181	-0.004033
 508	2.5350e-01	19.7529	118.331113	0.000455	4.547182	1.540627	-0.036298
 509	2.5400e-01	19.7256	118.068962	0.000657	6.568151	2.225350	-0.052430
 510	2.5450e-01	19.6791	117.927803	0.000354	3.536697	1.198265	-0.028232
 511	2.5500e-01	19.6358	117.710016	0.000546	5.456618	1.848752	-0.043557
 512	2.5550e-01	19.6037	117.524493	0.000465	4.648230	1.574863	-0.037105
 513	2.5600e-01	19.5572	117.383335	0.000354	3.536697	1.198265	-0.028232
 514	2.5650e-01	19.5155	117.157481	0.000566	5.658715	1.917225	-0.045171
 515	2.5700e-01	19.4802	117.016323	0.000354	3.536697	1.198265	-0.028232
 516	2.5750e-01	19.4369	116.729973	0.000717	7.174442	2.430767	-0.057270
 517	2.5800e-01	19.3872	116.467821	0.000657	6.568151	2.225350	-0.052430
 518	2.5850e-01	19.3647	116.326663	0.000354	3.536697	1.198265	-0.028232
 519	2.5900e-01	19.3166	116.165339	0.000404	4.041939	1.369446	-0.032265
 520	2.5950e-01	19.2797	116.108876	0.000141	1.414679	0.479306	-0.011293
 521	2.6000e-01	19.2299	115.895121	0.000536	5.355570	1.814516	-0.042751
 522	2.6050e-01	19.2043	115.628937	0.000667	6.669200	2.259586	-0.053237
 523	2.6100e-01	19.1481	115.503911	0.000313	3.132503	1.061321	-0.025005
 524	2.6150e-01	19.1128	115.261925	0.000606	6.062909	2.054169	-0.048397
 525	2.6200e-01	19.0775	114.979608	0.000707	7.073394	2.396531	-0.056463
 526	2.6250e-01	19.0326	114.798119	0.000455	4.547182	1.540627	-0.036298
 527	2.6300e-01	18.9925	114.753755	0.000111	1.111533	0.376598	-0.008873
 528	2.6350e-01	18.9588	114.479504	0.000687	6.871297	2.328058	-0.054850
 529	2.6400e-01	18.9187	114.382709	0.000243	2.425164	0.821668	-0.019359
 530	2.6450e-01	18.8754	114.056028	0.000818	8.184927	2.773128	-0.065336
 531	2.6500e-01	18.8369	113.939069	0.000293	2.930406	0.992848	-0.023392
 532	2.6550e-01	18.7968	113.656752	0.000707	7.073394	2.396531	-0.056463
 533	2.6600e-01	18.7487	113.438964	0.000546	5.456618	1.848752	-0.043557
 534	2.6650e-01	18.7134	113.313938	0.000313	3.132503	1.061321	-0.025005
 535	2.6700e-01	18.6781	113.088085	0.000566	5.658715	1.917225	-0.045171
 536	2.6750e-01	18.6396	112.862231	0.000566	5.658715	1.917225	-0.045171
 537	2.6800e-01	18.5915	112.660576	0.000505	5.052424	1.711808	-0.040331
 538	2.6850e-01	18.5610	112.414557	0.000616	6.163958	2.088405	-0.049204
 539	2.6900e-01	18.5161	112.249200	0.000414	4.142988	1.403682	-0.033071
 540	2.6950e-01	18.4776	112.160472	0.000222	2.223067	0.753195	-0.017746
 541	2.7000e-01	18.4342	112.091909	0.000172	1.717824	0.582015	-0.013713
 542	2.7050e-01	18.3877	111.708765	0.000960	9.599606	3.252435	-0.076629
 543	2.7100e-01	18.3460	111.458713	0.000627	6.265006	2.122642	-0.050010
 544	2.7150e-01	18.3139	111.341753	0.000293	2.930406	0.992848	-0.023392
 545	2.7200e-01	18.2690	111.132032	0.000525	5.254521	1.780280	-0.041944
 546	2.7250e-01	18.2417	110.853748	0.000697	6.972345	2.362295	-0.055657
 547	2.7300e-01	18.1968	110.664193	0.000475	4.749279	1.609099	-0.037911
 548	2.7350e-01	18.1631	110.462538	0.000505	5.052424	1.711808	-0.040331
 549	2.7400e-01	18.1150	110.240717	0.000556	5.557667	1.882988	-0.044364
 550	2.7450e-01	18.0749	110.039062	0.000505	5.052424	1.711808	-0.040331
 551	2.7500e-01	18.0364	109.938235	0.000253	2.526212	0.855904	-0.020165
 552	2.7550e-01	17.9963	109.587355	0.000879	8.791218	2.978545	-0.070176
 553	2.7600e-01	17.9562	109.502660	0.000212	2.122018	0.718959	-0.016939
 554	2.7650e-01	17.9161	109.159847	0.000859	8.589121	2.910073	-0.068563
 555	2.7700e-01	17.8744	109.067086	0.000232	2.324115	0.787432	-0.018552
 556	2.7750e-01	17.8391	108.837199	0.000576	5.759764	1.951461	-0.045977
 557	2.7800e-01	17.7942	108.566981	0.000677	6.770248	2.293822	-0.054044
 558	2.7850e-01	17.7540	108.345161	0.000556	5.557667	1.882988	-0.044364
 559	2.7900e-01	17.7188	108.111241	0.000586	5.860812	1.985697	-0.046784
 560	2.7950e-01	17.6738	107.941851	0.000424	4.244036	1.437918	-0.033878
 561	2.8000e-01	17.6337	107.820858	0.000303	3.031455	1.027085	-0.024199
 562	2.8050e-01	17.5952	107.534508	0.000717	7.174442	2.430767	-0.057270
 563	2.8100e-01	17.5551	107.276390	0.000647	6.467103	2.191114	-0.051624
 564	2.8150e-01	17.5166	107.183628	0.000232	2.324115	0.787432	-0.018552
 565	2.8200e-01	17.4861	106.885179	0.000748	7.477588	2.533475	-0.059690
 566	2.8250e-01	17.4364	106.784352	0.000253	2.526212	0.855904	-0.020165
 567	2.8300e-01	17.3883	106.546399	0.000596	5.961861	2.019933	-0.047591
 568	2.8350e-01	17.3610	106.344744	0.000505	5.052424	1.711808	-0.040331
 569	2.8400e-01	17.3177	106.094692	0.000627	6.265006	2.122642	-0.050010
 570	2.8450e-01	17.2792	105.953533	0.000354	3.536697	1.198265	-0.028232
 571	2.8500e-01	17.2375	105.776077	0.000445	4.446133	1.506391	-0.035491
 572	2.8550e-01	17.1926	105.485694	0.000728	7.275491	2.465003	-0.058077
 573	2.8600e-01	17.1509	105.433264	0.000131	1.313630	0.445070	-0.010486
 574	2.8650e-01	17.1220	105.231609	0.000505	5.052424	1.711808	-0.040331
 575	2.8700e-01	17.0771	104.945259	0.000717	7.174442	2.430767	-0.057270
 576	2.8750e-01	17.0386	104.707306	0.000596	5.961861	2.019933	-0.047591
 577	2.8800e-01	16.9936	104.501618	0.000515	5.153473	1.746044	-0.041138
 578	2.8850e-01	16.9648	104.158805	0.000859	8.589121	2.910073	-0.068563
 579	2.8900e-01	16.9134	103.957150	0.000505	5.052424	1.711808	-0.040331
 580	2.8950e-01	16.8717	103.707097	0.000627	6.265006	2.122642	-0.050010
 581	2.9000e-01	16.8444	103.598204	0.000273	2.728309	0.924376	-0.021779
 582	2.9050e-01	16.8011	103.392516	0.000515	5.153473	1.746044	-0.041138
 583	2.9100e-01	16.7562	103.247324	0.000364	3.637745	1.232502	-0.029038
 584	2.9150e-01	16.7113	103.005338	0.000606	6.062909	2.054169	-0.048397
 585	2.9200e-01	16.6728	102.731088	0.000687	6.871297	2.328058	-0.054850
 586	2.9250e-01	16.6311	102.460870	0.000677	6.770248	2.293822	-0.054044
 587	2.9300e-01	16.5958	102.226950	0.000586	5.860812	1.985697	-0.046784
 588	2.9350e-01	16.5477	102.073693	0.000384	3.839842	1.300974	-0.030652
 589	2.9400e-01	16.5092	101.912369	0.000404	4.041939	1.369446	-0.032265
 590	2.9450e-01	16.4787	101.738945	0.000435	4.345085	1.472155	-0.034685
 591	2.9500e-01	16.4354	101.384033	0.000889	8.892267	3.012781	-0.070983
 592	2.9550e-01	16.4001	101.186411	0.000495	4.951376	1.677572	-0.039524
 593	2.9600e-01	16.3535	101.085583	0.000253	2.526212	0.855904	-0.020165
 594	2.9650e-01	16.3134	100.783101	0.000758	7.578636	2.567711	-0.060496
 595	2.9700e-01	16.2782	100.609678	0.000435	4.345085	1.472155	-0.034685
 596	2.9750e-01	16.2380	100.476585	0.000333	3.334600	1.129793	-0.026618
 597	2.9800e-01	16.1931	100.238633	0.000596	5.961861	2.019933	-0.047591
 598	2.9850e-01	16.1562	99.988581	0.000627	6.265006	2.122642	-0.050010
 599	2.9900e-01	16.1225	99.722396	0.000667	6.669200	2.259586	-0.053237
 600	2.9950e-01	16.0824	99.480410	0.000606	6.062909	2.054169	-0.048397
 601	3.0000e-01	16.0327	99.315053	0.000414	4.142988	1.403682	-0.033071
 602	3.0050e-01	15.9926	99.133564	0.000455	4.547182	1.540627	-0.036298
 603	3.0100e-01	15.9493	98.851247	0.000707	7.073394	2.396531	-0.056463
 604	3.0150e-01	15.9188	98.625393	0.000566	5.658715	1.917225	-0.045171
 605	3.0200e-01	15.8707	98.488268	0.000344	3.435648	1.164029	-0.027425
 606	3.0250e-01	15.8354	98.310812	0.000445	4.446133	1.506391	-0.035491
 607	3.0300e-01	15.7937	98.072859	0.000596	5.961861	2.019933	-0.047591
 608	3.0350e-01	15.7584	97.834906	0.000596	5.961861	2.019933	-0.047591
 609	3.0400e-01	15.7167	97.637284	0.000495	4.951376	1.677572	-0.039524
 610	3.0450e-01	15.6750	97.471927	0.000414	4.142988	1.403682	-0.033071
 611	3.0500e-01	15.6332	97.125081	0.000869	8.690170	2.944309	-0.069369
 612	3.0550e-01	15.5883	97.056518	0.000172	1.717824	0.582015	-0.013713
 613	3.0600e-01	15.5595	96.750002	0.000768	7.679685	2.601948	-0.061303
 614	3.0650e-01	15.5210	96.471719	0.000697	6.972345	2.362295	-0.055657
 615	3.0700e-01	15.4776	96.270064	0.000505	5.052424	1.711808	-0.040331
 616	3.0750e-01	15.4359	96.132938	0.000344	3.435648	1.164029	-0.027425
 617	3.0800e-01	15.4038	95.903052	0.000576	5.759764	1.951461	-0.045977
 618	3.0850e-01	15.3541	95.612669	0.000728	7.275491	2.465003	-0.058077
 619	3.0900e-01	15.3156	95.427146	0.000465	4.648230	1.574863	-0.037105
 620	3.0950e-01	15.2787	95.269855	0.000394	3.940891	1.335210	-0.031458
 621	3.1000e-01	15.2402	94.939141	0.000829	8.285976	2.807365	-0.066143
 622	3.1050e-01	15.1937	94.721354	0.000546	5.456618	1.848752	-0.043557
 623	3.1100e-01	15.1456	94.604394	0.000293	2.930406	0.992848	-0.023392
 624	3.1150e-01	15.1199	94.362408	0.000606	6.062909	2.054169	-0.048397
 625	3.1200e-01	15.0686	93.975231	0.000970	9.700654	3.286671	-0.077435
 626	3.1250e-01	15.0301	93.902635	0.000182	1.818873	0.616251	-0.014519
 627	3.1300e-01	14.9883	93.737278	0.000414	4.142988	1.403682	-0.033071
 628	3.1350e-01	14.9531	93.527557	0.000525	5.254521	1.780280	-0.041944
 629	3.1400e-01	14.9162	93.136346	0.000980	9.801703	3.320907	-0.078242
 630	3.1450e-01	14.8777	92.946790	0.000475	4.749279	1.609099	-0.037911
 631	3.1500e-01	14.8311	92.849996	0.000243	2.425164	0.821668	-0.019359
 632	3.1550e-01	14.7942	92.555580	0.000738	7.376539	2.499239	-0.058883
 633	3.1600e-01	14.7654	92.333759	0.000556	5.557667	1.882988	-0.044364
 634	3.1650e-01	14.7188	91.982880	0.000879	8.791218	2.978545	-0.070176
 635	3.1700e-01	14.6691	91.789291	0.000485	4.850327	1.643335	-0.038718
 636	3.1750e-01	14.6290	91.619901	0.000424	4.244036	1.437918	-0.033878
 637	3.1800e-01	14.5905	91.377915	0.000606	6.062909	2.054169	-0.048397
 638	3.1850e-01	14.5520	91.188359	0.000475	4.749279	1.609099	-0.037911
 639	3.1900e-01	14.5135	90.998804	0.000475	4.749279	1.609099	-0.037911
 640	3.1950e-01	14.4830	90.833447	0.000414	4.142988	1.403682	-0.033071
 641	3.2000e-01	14.4237	90.611626	0.000556	5.557667	1.882988	-0.044364
 642	3.2050e-01	14.3916	90.474501	0.000344	3.435648	1.164029	-0.027425
 643	3.2100e-01	14.3563	90.030860	0.001112	11.115333	3.765977	-0.088728
 644	3.2150e-01	14.3049	89.752576	0.000697	6.972345	2.362295	-0.055657
 645	3.2200e-01	14.2697	89.607385	0.000364	3.637745	1.232502	-0.029038
 646	3.2250e-01	14.2456	89.260538	0.000869	8.690170	2.944309	-0.069369
 647	3.2300e-01	14.1894	89.268604	-0.000020	-0.202097	-0.068472	0.001613
 648	3.2350e-01	14.1525	88.998387	0.000677	6.770248	2.293822	-0.054044
 649	3.2400e-01	14.1076	88.824964	0.000435	4.345085	1.472155	-0.034685
 650	3.2450e-01	14.0755	88.615242	0.000525	5.254521	1.780280	-0.041944
 651	3.2500e-01	14.0338	88.264363	0.000879	8.791218	2.978545	-0.070176
 652	3.2550e-01	13.9921	88.034476	0.000576	5.759764	1.951461	-0.045977
 653	3.2600e-01	13.9600	87.760226	0.000687	6.871297	2.328058	-0.054850
 654	3.2650e-01	13.9119	87.619067	0.000354	3.536697	1.198265	-0.028232
 655	3.2700e-01	13.8782	87.239956	0.000950	9.498558	3.218198	-0.075822
 656	3.2750e-01	13.8365	87.090731	0.000374	3.738794	1.266738	-0.029845
 657	3.2800e-01	13.7900	86.973771	0.000293	2.930406	0.992848	-0.023392
 658	3.2850e-01	13.7515	86.784216	0.000475	4.749279	1.609099	-0.037911
 659	3.2900e-01	13.7194	86.384939	0.001000	10.003800	3.389379	-0.079855
 660	3.2950e-01	13.6745	86.207483	0.000445	4.446133	1.506391	-0.035491
 661	3.3000e-01	13.6280	86.046159	0.000404	4.041939	1.369446	-0.032265
 662	3.3050e-01	13.5879	85.820305	0.000566	5.658715	1.917225	-0.045171
 663	3.3100e-01	13.5574	85.554121	0.000667	6.669200	2.259586	-0.053237
 664	3.3150e-01	13.5173	85.283903	0.000677	6.770248	2.293822	-0.054044
 665	3.3200e-01	13.4788	84.981421	0.000758	7.578636	2.567711	-0.060496
 666	3.3250e-01	13.4371	84.864461	0.000293	2.930406	0.992848	-0.023392
 667	3.3300e-01	13.4018	84.695071	0.000424	4.244036	1.437918	-0.033878
 668	3.3350e-01	13.3536	84.388555	0.000768	7.679685	2.601948	-0.061303
 669	3.3400e-01	13.3183	84.154635	0.000586	5.860812	1.985697	-0.046784
 670	3.3450e-01	13.2830	83.896517	0.000647	6.467103	2.191114	-0.051624
 671	3.3500e-01	13.2333	83.686796	0.000525	5.254521	1.780280	-0.041944
 672	3.3550e-01	13.1980	83.420611	0.000667	6.669200	2.259586	-0.053237
 673	3.3600e-01	13.1579	83.158460	0.000657	6.568151	2.225350	-0.052430
 674	3.3650e-01	13.1098	82.892276	0.000667	6.669200	2.259586	-0.053237
 675	3.3700e-01	13.0697	82.670455	0.000556	5.557667	1.882988	-0.044364
 676	3.3750e-01	13.0376	82.533330	0.000344	3.435648	1.164029	-0.027425
 677	3.3800e-01	12.9975	82.327642	0.000515	5.153473	1.746044	-0.041138
 678	3.3850e-01	12.9574	82.041292	0.000717	7.174442	2.430767	-0.057270
 679	3.3900e-01	12.9221	81.646048	0.000990	9.902751	3.355143	-0.079049
 680	3.3950e-01	12.8804	81.444393	0.000505	5.052424	1.711808	-0.040331
 681	3.4000e-01	12.8419	81.327433	0.000293	2.930406	0.992848	-0.023392
 682	3.4050e-01	12.8018	81.105613	0.000556	5.557667	1.882988	-0.044364
 683	3.4100e-01	12.7504	80.996719	0.000273	2.728309	0.924376	-0.021779
 684	3.4150e-01	12.7232	80.843461	0.000384	3.839842	1.300974	-0.030652
 685	3.4200e-01	12.6847	80.460317	0.000960	9.599606	3.252435	-0.076629
 686	3.4250e-01	12.6398	80.327225	0.000333	3.334600	1.129793	-0.026618
 687	3.4300e-01	12.6045	80.040875	0.000717	7.174442	2.430767	-0.057270
 688	3.4350e-01	12.5644	79.819054	0.000556	5.557667	1.882988	-0.044364
 689	3.4400e-01	12.5226	79.480274	0.000849	8.488073	2.875837	-0.067756
 690	3.4450e-01	12.4713	79.165692	0.000788	7.881782	2.670420	-0.062916
 691	3.4500e-01	12.4376	78.984203	0.000455	4.547182	1.540627	-0.036298
 692	3.4550e-01	12.4039	78.935806	0.000121	1.212582	0.410834	-0.009679
 693	3.4600e-01	12.3494	78.588959	0.000869	8.690170	2.944309	-0.069369
 694	3.4650e-01	12.3285	78.403437	0.000465	4.648230	1.574863	-0.037105
 695	3.4700e-01	12.2804	78.096921	0.000768	7.679685	2.601948	-0.061303
 696	3.4750e-01	12.2403	77.802505	0.000738	7.376539	2.499239	-0.058883
 697	3.4800e-01	12.1954	77.681512	0.000303	3.031455	1.027085	-0.024199
 698	3.4850e-01	12.1665	77.419361	0.000657	6.568151	2.225350	-0.052430
 699	3.4900e-01	12.1232	77.096713	0.000808	8.083879	2.738892	-0.064530
 700	3.4950e-01	12.0719	76.959588	0.000344	3.435648	1.164029	-0.027425
 701	3.5000e-01	12.0446	76.697436	0.000657	6.568151	2.225350	-0.052430
 702	3.5050e-01	12.0061	76.503847	0.000485	4.850327	1.643335	-0.038718
 703	3.5100e-01	11.9563	76.217497	0.000717	7.174442	2.430767	-0.057270
 704	3.5150e-01	11.9275	75.999710	0.000546	5.456618	1.848752	-0.043557
 705	3.5200e-01	11.8793	75.769823	0.000576	5.759764	1.951461	-0.045977
 706	3.5250e-01	11.8360	75.483473	0.000717	7.174442	2.430767	-0.057270
 707	3.5300e-01	11.7975	75.237454	0.000616	6.163958	2.088405	-0.049204
 708	3.5350e-01	11.7606	75.096296	0.000354	3.536697	1.198265	-0.028232
 709	3.5400e-01	11.7109	74.926906	0.000424	4.244036	1.437918	-0.033878
 710	3.5450e-01	11.6804	74.612324	0.000788	7.881782	2.670420	-0.062916
 711	3.5500e-01	11.6435	74.241279	0.000930	9.296461	3.149726	-0.074209
 712	3.5550e-01	11.5906	73.930730	0.000778	7.780733	2.636184	-0.062110
 713	3.5600e-01	11.5649	73.785539	0.000364	3.637745	1.232502	-0.029038
 714	3.5650e-01	11.5136	73.612116	0.000435	4.345085	1.472155	-0.034685
 715	3.5700e-01	11.4735	73.358030	0.000637	6.366055	2.156878	-0.050817
 716	3.5750e-01	11.4430	73.095879	0.000657	6.568151	2.225350	-0.052430
 717	3.5800e-01	11.3917	72.821628	0.000687	6.871297	2.328058	-0.054850
 718	3.5850e-01	11.3580	72.692569	0.000323	3.233551	1.095557	-0.025812
 719	3.5900e-01	11.3130	72.377988	0.000788	7.881782	2.670420	-0.062916
 720	3.5950e-01	11.2826	72.176333	0.000505	5.052424	1.711808	-0.040331
 721	3.6000e-01	11.2360	71.910148	0.000667	6.669200	2.259586	-0.053237
 722	3.6050e-01	11.1975	71.724626	0.000465	4.648230	1.574863	-0.037105
 723	3.6100e-01	11.1446	71.482640	0.000606	6.062909	2.054169	-0.048397
 724	3.6150e-01	11.1173	71.135793	0.000869	8.690170	2.944309	-0.069369
 725	3.6200e-01	11.0772	70.897840	0.000596	5.961861	2.019933	-0.047591
 726	3.6250e-01	11.0419	70.764748	0.000333	3.334600	1.129793	-0.026618
 727	3.6300e-01	10.9906	70.413868	0.000879	8.791218	2.978545	-0.070176
 728	3.6350e-01	10.9553	70.220280	0.000485	4.850327	1.643335	-0.038718
 729	3.6400e-01	10.9184	70.067022	0.000384	3.839842	1.300974	-0.030652
 730	3.6450e-01	10.8799	69.812937	0.000637	6.366055	2.156878	-0.050817
 731	3.6500e-01	10.8366	69.534653	0.000697	6.972345	2.362295	-0.055657
 732	3.6550e-01	10.7981	69.341064	0.000485	4.850327	1.643335	-0.038718
 733	3.6600e-01	10.7500	69.086979	0.000637	6.366055	2.156878	-0.050817
 734	3.6650e-01	10.7115	68.732066	0.000889	8.892267	3.012781	-0.070983
 735	3.6700e-01	10.6826	68.558643	0.000435	4.345085	1.472155	-0.034685
 736	3.6750e-01	10.6425	68.264227	0.000738	7.376539	2.499239	-0.058883
 737	3.6800e-01	10.6008	68.151300	0.000283	2.829358	0.958612	-0.022585
 738	3.6850e-01	10.5542	67.877049	0.000687	6.871297	2.328058	-0.054850
 739	3.6900e-01	10.5190	67.554402	0.000808	8.083879	2.738892	-0.064530
 740	3.6950e-01	10.4772	67.251919	0.000758	7.578636	2.567711	-0.060496
 741	3.7000e-01	10.4339	67.034132	0.000546	5.456618	1.848752	-0.043557
 742	3.7050e-01	10.3922	66.856676	0.000445	4.446133	1.506391	-0.035491
 743	3.7100e-01	10.3698	66.634855	0.000556	5.557667	1.882988	-0.044364
 744	3.7150e-01	10.3088	66.433200	0.000505	5.052424	1.711808	-0.040331
 745	3.7200e-01	10.2799	66.126685	0.000768	7.679685	2.601948	-0.061303
 746	3.7250e-01	10.2398	65.791937	0.000839	8.387024	2.841601	-0.066949
 747	3.7300e-01	10.1965	65.344264	0.001122	11.216382	3.800213	-0.089535
 748	3.7350e-01	10.1484	65.372495	-0.000071	-0.707339	-0.239653	0.005646
 749	3.7400e-01	10.1099	65.227304	0.000364	3.637745	1.232502	-0.029038
 750	3.7450e-01	10.0714	64.880457	0.000869	8.690170	2.944309	-0.069369
 751	3.7500e-01	10.0281	64.622339	0.000647	6.467103	2.191114	-0.051624
 752	3.7550e-01	10.0024	64.311790	0.000778	7.780733	2.636184	-0.062110
 753	3.7600e-01	9.9559	64.049639	0.000657	6.568151	2.225350	-0.052430
 754	3.7650e-01	9.9206	63.807653	0.000606	6.062909	2.054169	-0.048397
 755	3.7700e-01	9.8885	63.549535	0.000647	6.467103	2.191114	-0.051624
 756	3.7750e-01	9.8339	63.339814	0.000525	5.254521	1.780280	-0.041944
 757	3.7800e-01	9.7954	63.182523	0.000394	3.940891	1.335210	-0.031458
 758	3.7850e-01	9.7618	62.859875	0.000808	8.083879	2.738892	-0.064530
 759	3.7900e-01	9.7056	62.513028	0.000869	8.690170	2.944309	-0.069369
 760	3.7950e-01	9.6799	62.319440	0.000485	4.850327	1.643335	-0.038718
 761	3.8000e-01	9.6350	62.093586	0.000566	5.658715	1.917225	-0.045171
 762	3.8050e-01	9.5981	61.904030	0.000475	4.749279	1.609099	-0.037911
 763	3.8100e-01	9.5612	61.609614	0.000738	7.376539	2.499239	-0.058883
 764	3.8150e-01	9.5195	61.411992	0.000495	4.951376	1.677572	-0.039524
 765	3.8200e-01	9.4778	61.194205	0.000546	5.456618	1.848752	-0.043557
 766	3.8250e-01	9.4441	60.815094	0.000950	9.498558	3.218198	-0.075822
 767	3.8300e-01	9.3976	60.645704	0.000424	4.244036	1.437918	-0.033878
 768	3.8350e-01	9.3463	60.488413	0.000394	3.940891	1.335210	-0.031458
 769	3.8400e-01	9.3142	60.193997	0.000738	7.376539	2.499239	-0.058883
 770	3.8450e-01	9.2789	59.939911	0.000637	6.366055	2.156878	-0.050817
 771	3.8500e-01	9.2372	59.681793	0.000647	6.467103	2.191114	-0.051624
 772	3.8550e-01	9.2019	59.423675	0.000647	6.467103	2.191114	-0.051624
 773	3.8600e-01	9.1473	59.129259	0.000738	7.376539	2.499239	-0.058883
 774	3.8650e-01	9.1201	58.951802	0.000445	4.446133	1.506391	-0.035491
 775	3.8700e-01	9.0719	58.613022	0.000849	8.488073	2.875837	-0.067756
 776	3.8750e-01	9.0399	58.403301	0.000525	5.254521	1.780280	-0.041944
 777	3.8800e-01	8.9997	58.145183	0.000647	6.467103	2.191114	-0.051624
 778	3.8850e-01	8.9612	57.919329	0.000566	5.658715	1.917225	-0.045171
 779	3.8900e-01	8.9227	57.612814	0.000768	7.679685	2.601948	-0.061303
 780	3.8950e-01	8.8810	57.342596	0.000677	6.770248	2.293822	-0.054044
 781	3.9000e-01	8.8329	57.128842	0.000536	5.355570	1.814516	-0.042751
 782	3.9050e-01	8.7880	56.967518	0.000404	4.041939	1.369446	-0.032265
 783	3.9100e-01	8.7623	56.628737	0.000849	8.488073	2.875837	-0.067756
 784	3.9150e-01	8.7174	56.310123	0.000798	7.982830	2.704656	-0.063723
 785	3.9200e-01	8.6725	56.168964	0.000354	3.536697	1.198265	-0.028232
 786	3.9250e-01	8.6404	55.826151	0.000859	8.589121	2.910073	-0.068563
 787	3.9300e-01	8.6035	55.515602	0.000778	7.780733	2.636184	-0.062110
 788	3.9350e-01	8.5570	55.213120	0.000758	7.578636	2.567711	-0.060496
 789	3.9400e-01	8.5201	55.075995	0.000344	3.435648	1.164029	-0.027425
 790	3.9450e-01	8.4752	54.886439	0.000475	4.749279	1.609099	-0.037911
 791	3.9500e-01	8.4463	54.636387	0.000627	6.265006	2.122642	-0.050010
 792	3.9550e-01	8.3982	54.390368	0.000616	6.163958	2.088405	-0.049204
 793	3.9600e-01	8.3516	54.047554	0.000859	8.589121	2.910073	-0.068563
 794	3.9650e-01	8.3179	53.716840	0.000829	8.285976	2.807365	-0.066143
 795	3.9700e-01	8.2746	53.660377	0.000141	1.414679	0.479306	-0.011293
 796	3.9750e-01	8.2377	53.301431	0.000899	8.993315	3.047018	-0.071789
 797	3.9800e-01	8.1944	53.007015	0.000738	7.376539	2.499239	-0.058883
 798	3.9850e-01	8.1559	52.825525	0.000455	4.547182	1.540627	-0.036298
 799	3.9900e-01	8.1110	52.684367	0.000354	3.536697	1.198265	-0.028232
 800	3.9950e-01	8.0789	52.321388	0.000909	9.094364	3.081254	-0.072596
 801	4.0000e-01	8.0324	52.123766	0.000495	4.951376	1.677572	-0.039524
 802	4.0050e-01	7.9987	51.809185	0.000788	7.881782	2.670420	-0.062916
 803	4.0100e-01	7.9474	51.555099	0.000637	6.366055	2.156878	-0.050817
 804	4.0150e-01	7.9137	51.305047	0.000627	6.265006	2.122642	-0.050010
 805	4.0200e-01	7.8720	51.054995	0.000627	6.265006	2.122642	-0.050010
 806	4.0250e-01	7.8319	50.800910	0.000637	6.366055	2.156878	-0.050817
 807	4.0300e-01	7.7918	50.599255	0.000505	5.052424	1.711808	-0.040331
 808	4.0350e-01	7.7581	50.260475	0.000849	8.488073	2.875837	-0.067756
 809	4.0400e-01	7.7180	50.083018	0.000445	4.446133	1.506391	-0.035491
 810	4.0450e-01	7.6795	49.707940	0.000940	9.397509	3.183962	-0.075016
 811	4.0500e-01	7.6345	49.486120	0.000556	5.557667	1.882988	-0.044364
 812	4.0550e-01	7.5976	49.183637	0.000758	7.578636	2.567711	-0.060496
 813	4.0600e-01	7.5511	48.889221	0.000738	7.376539	2.499239	-0.058883
 814	4.0650e-01	7.5222	48.748063	0.000354	3.536697	1.198265	-0.028232
 815	4.0700e-01	7.4805	48.433481	0.000788	7.881782	2.670420	-0.062916
 816	4.0750e-01	7.4324	48.215694	0.000546	5.456618	1.848752	-0.043557
 817	4.0800e-01	7.3939	47.985807	0.000576	5.759764	1.951461	-0.045977
 818	4.0850e-01	7.3490	47.655093	0.000829	8.285976	2.807365	-0.066143
 819	4.0900e-01	7.3169	47.340511	0.000788	7.881782	2.670420	-0.062916
 820	4.0950e-01	7.2688	47.094492	0.000616	6.163958	2.088405	-0.049204
 821	4.1000e-01	7.2287	46.868639	0.000566	5.658715	1.917225	-0.045171
 822	4.1050e-01	7.1966	46.646818	0.000556	5.557667	1.882988	-0.044364
 823	4.1100e-01	7.1533	46.299972	0.000869	8.690170	2.944309	-0.069369
 824	4.1150e-01	7.1148	45.949092	0.000879	8.791218	2.978545	-0.070176
 825	4.1200e-01	7.0634	45.868430	0.000202	2.020970	0.684723	-0.016132
 826	4.1250e-01	7.0410	45.561915	0.000768	7.679685	2.601948	-0.061303
 827	4.1300e-01	6.9961	45.344128	0.000546	5.456618	1.848752	-0.043557
 828	4.1350e-01	6.9527	45.081976	0.000657	6.568151	2.225350	-0.052430
 829	4.1400e-01	6.9223	44.831924	0.000627	6.265006	2.122642	-0.050010
 830	4.1450e-01	6.8725	44.481044	0.000879	8.791218	2.978545	-0.070176
 831	4.1500e-01	6.8372	44.235025	0.000616	6.163958	2.088405	-0.049204
 832	4.1550e-01	6.7907	43.960775	0.000687	6.871297	2.328058	-0.054850
 833	4.1600e-01	6.7458	43.936576	0.000061	0.606291	0.205417	-0.004840
 834	4.1650e-01	6.7185	43.613928	0.000808	8.083879	2.738892	-0.064530
 835	4.1700e-01	6.6736	43.250949	0.000909	9.094364	3.081254	-0.072596
 836	4.1750e-01	6.6415	42.908136	0.000859	8.589121	2.910073	-0.068563
 837	4.1800e-01	6.5870	42.706481	0.000505	5.052424	1.711808	-0.040331
 838	4.1850e-01	6.5629	42.537091	0.000424	4.244036	1.437918	-0.033878
 839	4.1900e-01	6.5196	42.162013	0.000940	9.397509	3.183962	-0.075016
 840	4.1950e-01	6.4827	41.682074	0.001202	12.024770	4.074102	-0.095988
 841	4.2000e-01	6.4217	41.633677	0.000121	1.212582	0.410834	-0.009679
 842	4.2050e-01	6.3945	41.403790	0.000576	5.759764	1.951461	-0.045977
 843	4.2100e-01	6.3544	41.008547	0.000990	9.902751	3.355143	-0.079049
 844	4.2150e-01	6.3223	40.931918	0.000192	1.919921	0.650487	-0.015326
 845	4.2200e-01	6.2758	40.665733	0.000667	6.669200	2.259586	-0.053237
 846	4.2250e-01	6.2308	40.310821	0.000889	8.892267	3.012781	-0.070983
 847	4.2300e-01	6.2084	39.923643	0.000970	9.700654	3.286671	-0.077435
 848	4.2350e-01	6.1490	39.790551	0.000333	3.334600	1.129793	-0.026618
 849	4.2400e-01	6.1137	39.544532	0.000616	6.163958	2.088405	-0.049204
 850	4.2450e-01	6.0784	39.314645	0.000576	5.759764	1.951461	-0.045977
 851	4.2500e-01	6.0367	39.036361	0.000697	6.972345	2.362295	-0.055657
 852	4.2550e-01	5.9934	38.725813	0.000778	7.780733	2.636184	-0.062110
 853	4.2600e-01	5.9597	38.524158	0.000505	5.052424	1.711808	-0.040331
 854	4.2650e-01	5.9148	38.201510	0.000808	8.083879	2.738892	-0.064530
 855	4.2700e-01	5.8779	37.991789	0.000525	5.254521	1.780280	-0.041944
 856	4.2750e-01	5.8394	37.636876	0.000889	8.892267	3.012781	-0.070983
 857	4.2800e-01	5.7929	37.342460	0.000738	7.376539	2.499239	-0.058883
 858	4.2850e-01	5.7464	37.052077	0.000728	7.275491	2.465003	-0.058077
 859	4.2900e-01	5.7127	36.866554	0.000465	4.648230	1.574863	-0.037105
 860	4.2950e-01	5.6806	36.471311	0.000990	9.902751	3.355143	-0.079049
 861	4.3000e-01	5.6293	36.346285	0.000313	3.132503	1.061321	-0.025005
 862	4.3050e-01	5.5940	36.172861	0.000435	4.345085	1.472155	-0.034685
 863	4.3100e-01	5.5651	35.817949	0.000889	8.892267	3.012781	-0.070983
 864	4.3150e-01	5.5234	35.644525	0.000435	4.345085	1.472155	-0.034685
 865	4.3200e-01	5.4720	35.386407	0.000647	6.467103	2.191114	-0.051624
 866	4.3250e-01	5.4367	35.023428	0.000909	9.094364	3.081254	-0.072596
 867	4.3300e-01	5.3950	34.729012	0.000738	7.376539	2.499239	-0.058883
 868	4.3350e-01	5.3485	34.454761	0.000687	6.871297	2.328058	-0.054850
 869	4.3400e-01	5.3116	34.228908	0.000566	5.658715	1.917225	-0.045171
 870	4.3450e-01	5.2876	33.970790	0.000647	6.467103	2.191114	-0.051624
 871	4.3500e-01	5.2346	33.551347	0.001051	10.509042	3.560560	-0.083888
 872	4.3550e-01	5.2009	33.381957	0.000424	4.244036	1.437918	-0.033878
 873	4.3600e-01	5.1480	33.172236	0.000525	5.254521	1.780280	-0.041944
 874	4.3650e-01	5.1175	32.910085	0.000657	6.568151	2.225350	-0.052430
 875	4.3700e-01	5.0806	32.543073	0.000920	9.195412	3.115490	-0.073402
 876	4.3750e-01	5.0389	32.381749	0.000404	4.041939	1.369446	-0.032265
 877	4.3800e-01	4.9972	32.026836	0.000889	8.892267	3.012781	-0.070983
 878	4.3850e-01	4.9523	31.716287	0.000778	7.780733	2.636184	-0.062110
 879	4.3900e-01	4.9218	31.442037	0.000687	6.871297	2.328058	-0.054850
 880	4.3950e-01	4.8785	31.163753	0.000697	6.972345	2.362295	-0.055657
 881	4.4000e-01	4.8223	31.006462	0.000394	3.940891	1.335210	-0.031458
 882	4.4050e-01	4.7951	30.784642	0.000556	5.557667	1.882988	-0.044364
 883	4.4100e-01	4.7533	30.385365	0.001000	10.003800	3.389379	-0.079855
 884	4.4150e-01	4.7148	30.195809	0.000475	4.749279	1.609099	-0.037911
 885	4.4200e-01	4.6731	29.873161	0.000808	8.083879	2.738892	-0.064530
 886	4.4250e-01	4.6378	29.526315	0.000869	8.690170	2.944309	-0.069369
 887	4.4300e-01	4.5961	29.227866	0.000748	7.477588	2.533475	-0.059690
 888	4.4350e-01	4.5544	29.123005	0.000263	2.627261	0.890140	-0.020972
 889	4.4400e-01	4.5143	28.768092	0.000889	8.892267	3.012781	-0.070983
 890	4.4450e-01	4.4710	28.526106	0.000606	6.062909	2.054169	-0.048397
 891	4.4500e-01	4.4389	28.207492	0.000798	7.982830	2.704656	-0.063723
 892	4.4550e-01	4.3956	28.046168	0.000404	4.041939	1.369446	-0.032265
 893	4.4600e-01	4.3539	27.743685	0.000758	7.578636	2.567711	-0.060496
 894	4.4650e-01	4.3154	27.521865	0.000556	5.557667	1.882988	-0.044364
 895	4.4700e-01	4.2737	27.243581	0.000697	6.972345	2.362295	-0.055657
 896	4.4750e-01	4.2304	26.812040	0.001081	10.812188	3.663268	-0.086308
 897	4.4800e-01	4.1903	26.598285	0.000536	5.355570	1.814516	-0.042751
 898	4.4850e-01	4.1518	26.231273	0.000920	9.195412	3.115490	-0.073402
 899	4.4900e-01	4.1181	25.961056	0.000677	6.770248	2.293822	-0.054044
 900	4.4950e-01	4.0667	25.723103	0.000596	5.961861	2.019933	-0.047591
 901	4.5000e-01	4.0346	25.598077	0.000313	3.132503	1.061321	-0.025005
 902	4.5050e-01	3.9961	25.331892	0.000667	6.669200	2.259586	-0.053237
 903	4.5100e-01	3.9592	24.924549	0.001021	10.205897	3.457851	-0.081469
 904	4.5150e-01	3.9127	24.722894	0.000505	5.052424	1.711808	-0.040331
 905	4.5200e-01	3.8726	24.553504	0.000424	4.244036	1.437918	-0.033878
 906	4.5250e-01	3.8373	24.206658	0.000869	8.690170	2.944309	-0.069369
 907	4.5300e-01	3.7860	23.779149	0.001071	10.711139	3.629032	-0.085502
 908	4.5350e-01	3.7523	23.504899	0.000687	6.871297	2.328058	-0.054850
 909	4.5400e-01	3.7090	23.311310	0.000485	4.850327	1.643335	-0.038718
 910	4.5450e-01	3.6721	23.137887	0.000435	4.345085	1.472155	-0.034685
 911	4.5500e-01	3.6352	22.835404	0.000758	7.578636	2.567711	-0.060496
 912	4.5550e-01	3.5999	22.621650	0.000536	5.355570	1.814516	-0.042751
 913	4.5600e-01	3.5614	22.323201	0.000748	7.477588	2.533475	-0.059690
 914	4.5650e-01	3.5165	22.012652	0.000778	7.780733	2.636184	-0.062110
 915	4.5700e-01	3.4635	21.722269	0.000728	7.275491	2.465003	-0.058077
 916	4.5750e-01	3.4395	21.403654	0.000798	7.982830	2.704656	-0.063723
 917	4.5800e-01	3.3946	21.044709	0.000899	8.993315	3.047018	-0.071789
 918	4.5850e-01	3.3561	20.782557	0.000657	6.568151	2.225350	-0.052430
 919	4.5900e-01	3.3095	20.548637	0.000586	5.860812	1.985697	-0.046784
 920	4.5950e-01	3.2791	20.242122	0.000768	7.679685	2.601948	-0.061303
 921	4.6000e-01	3.2325	19.891242	0.000879	8.791218	2.978545	-0.070176
 922	4.6050e-01	3.1972	19.673455	0.000546	5.456618	1.848752	-0.043557
 923	4.6100e-01	3.1571	19.439535	0.000586	5.860812	1.985697	-0.046784
 924	4.6150e-01	3.1090	19.229814	0.000525	5.254521	1.780280	-0.041944
 925	4.6200e-01	3.0785	18.907166	0.000808	8.083879	2.738892	-0.064530
 926	4.6250e-01	3.0256	18.661147	0.000616	6.163958	2.088405	-0.049204
 927	4.6300e-01	2.9951	18.532088	0.000323	3.233551	1.095557	-0.025812
 928	4.6350e-01	2.9470	18.092480	0.001101	11.014285	3.731741	-0.087922
 929	4.6400e-01	2.9053	17.858561	0.000586	5.860812	1.985697	-0.046784
 930	4.6450e-01	2.8796	17.576244	0.000707	7.073394	2.396531	-0.056463
 931	4.6500e-01	2.8315	17.330225	0.000616	6.163958	2.088405	-0.049204
 932	4.6550e-01	2.7914	16.963213	0.000920	9.195412	3.115490	-0.073402
 933	4.6600e-01	2.7529	16.576035	0.000970	9.700654	3.286671	-0.077435
 934	4.6650e-01	2.7208	16.463108	0.000283	2.829358	0.958612	-0.022585
 935	4.6700e-01	2.6807	16.100130	0.000909	9.094364	3.081254	-0.072596
 936	4.6750e-01	2.6358	15.833945	0.000667	6.669200	2.259586	-0.053237
 937	4.6800e-01	2.6021	15.507264	0.000818	8.184927	2.773128	-0.065336
 938	4.6850e-01	2.5555	15.293510	0.000536	5.355570	1.814516	-0.042751
 939	4.6900e-01	2.5219	14.982961	0.000778	7.780733	2.636184	-0.062110
 940	4.6950e-01	2.4721	14.785339	0.000495	4.951376	1.677572	-0.039524
 941	4.7000e-01	2.4320	14.474791	0.000778	7.780733	2.636184	-0.062110
 942	4.7050e-01	2.3903	14.236838	0.000596	5.961861	2.019933	-0.047591
 943	4.7100e-01	2.3502	13.950488	0.000717	7.174442	2.430767	-0.057270
 944	4.7150e-01	2.3149	13.712535	0.000596	5.961861	2.019933	-0.047591
 945	4.7200e-01	2.2796	13.385854	0.000818	8.184927	2.773128	-0.065336
 946	4.7250e-01	2.2331	13.151935	0.000586	5.860812	1.985697	-0.046784
 947	4.7300e-01	2.1914	12.805088	0.000869	8.690170	2.944309	-0.069369
 948	4.7350e-01	2.1561	12.538904	0.000667	6.669200	2.259586	-0.053237
 949	4.7400e-01	2.1144	12.296918	0.000606	6.062909	2.054169	-0.048397
 950	4.7450e-01	2.0759	12.030733	0.000667	6.669200	2.259586	-0.053237
 951	4.7500e-01	2.0342	11.776648	0.000637	6.366055	2.156878	-0.050817
 952	4.7550e-01	2.0021	11.397537	0.000950	9.498558	3.218198	-0.075822
 953	4.7600e-01	1.9540	11.147485	0.000627	6.265006	2.122642	-0.050010
 954	4.7650e-01	1.9122	10.937763	0.000525	5.254521	1.780280	-0.041944
 955	4.7700e-01	1.8802	10.651413	0.000717	7.174442	2.430767	-0.057270
 956	4.7750e-01	1.8336	10.356997	0.000738	7.376539	2.499239	-0.058883
 957	4.7800e-01	1.7935	10.058548	0.000748	7.477588	2.533475	-0.059690
 958	4.7850e-01	1.7502	9.768165	0.000728	7.275491	2.465003	-0.058077
 959	4.7900e-01	1.7181	9.461649	0.000768	7.679685	2.601948	-0.061303
 960	4.7950e-01	1.6748	9.106737	0.000889	8.892267	3.012781	-0.070983
 961	4.8000e-01	1.6379	8.711493	0.000990	9.902751	3.355143	-0.079049
 962	4.8050e-01	1.5946	8.562268	0.000374	3.738794	1.266738	-0.029845
 963	4.8100e-01	1.5561	8.283985	0.000697	6.972345	2.362295	-0.055657
 964	4.8150e-01	1.5128	8.150892	0.000333	3.334600	1.129793	-0.026618
 965	4.8200e-01	1.4679	7.868575	0.000707	7.073394	2.396531	-0.056463
 966	4.8250e-01	1.4406	7.505596	0.000909	9.094364	3.081254	-0.072596
 967	4.8300e-01	1.3989	7.178916	0.000818	8.184927	2.773128	-0.065336
 968	4.8350e-01	1.3572	6.872400	0.000768	7.679685	2.601948	-0.061303
 969	4.8400e-01	1.3155	6.513454	0.000899	8.993315	3.047018	-0.071789
 970	4.8450e-01	1.2802	6.303733	0.000525	5.254521	1.780280	-0.041944
 971	4.8500e-01	1.2240	6.077880	0.000566	5.658715	1.917225	-0.045171
 972	4.8550e-01	1.1968	5.960920	0.000293	2.930406	0.992848	-0.023392
 973	4.8600e-01	1.1583	5.670537	0.000728	7.275491	2.465003	-0.058077
 974	4.8650e-01	1.1165	5.404352	0.000667	6.669200	2.259586	-0.053237
 975	4.8700e-01	1.0652	5.057506	0.000869	8.690170	2.944309	-0.069369
 976	4.8750e-01	1.0347	4.694527	0.000909	9.094364	3.081254	-0.072596
 977	4.8800e-01	0.9834	4.500938	0.000485	4.850327	1.643335	-0.038718
 978	4.8850e-01	0.9481	4.226687	0.000687	6.871297	2.328058	-0.054850
 979	4.8900e-01	0.9144	3.924205	0.000758	7.578636	2.567711	-0.060496
 980	4.8950e-01	0.8807	3.621723	0.000758	7.578636	2.567711	-0.060496
 981	4.9000e-01	0.8390	3.327306	0.000738	7.376539	2.499239	-0.058883
 982	4.9050e-01	0.7973	2.936096	0.000980	9.801703	3.320907	-0.078242
 983	4.9100e-01	0.7556	2.702176	0.000586	5.860812	1.985697	-0.046784
 984	4.9150e-01	0.7091	2.448091	0.000637	6.366055	2.156878	-0.050817
 985	4.9200e-01	0.6690	2.133509	0.000788	7.881782	2.670420	-0.062916
 986	4.9250e-01	0.6401	1.935887	0.000495	4.951376	1.677572	-0.039524
 987	4.9300e-01	0.5968	1.540644	0.000990	9.902751	3.355143	-0.079049
 988	4.9350e-01	0.5454	1.242194	0.000748	7.477588	2.533475	-0.059690
 989	4.9400e-01	0.5085	1.064738	0.000445	4.446133	1.506391	-0.035491
 990	4.9450e-01	0.4700	0.838885	0.000566	5.658715	1.917225	-0.045171
 991	4.9500e-01	0.4315	0.383144	0.001142	11.418479	3.868685	-0.091148
 992	4.9550e-01	0.3978	0.133092	0.000627	6.265006	2.122642	-0.050010
 993	4.9600e-01	0.3577	-0.020165	0.000384	3.839842	1.300974	-0.030652
 994	4.9650e-01	0.3128	-0.278284	0.000647	6.467103	2.191114	-0.051624
 995	4.9700e-01	0.2839	-0.705792	0.001071	10.711139	3.629032	-0.085502
 996	4.9750e-01	0.2310	-0.931646	0.000566	5.658715	1.917225	-0.045171
 997	4.9800e-01	0.1989	-1.213963	0.000707	7.073394	2.396531	-0.056463
 998	4.9850e-01	0.1540	-1.415618	0.000505	5.052424	1.711808	-0.040331
 999	4.9900e-01	0.1123	-1.794729	0.000950	9.498558	3.218198	-0.075822
1000	4.9950e-01	0.0690	-2.101244	0.000768	7.679685	2.601948	-0.061303
1001	5.0000e-01	0.0289	-2.407760	0.000768	7.679685	2.601948	-0.061303
1002	5.0050e-01	0.0048	-2.617481	0.000525	5.254521	1.780280	-0.041944
1003	5.0100e-01	-0.0401	-2.879632	0.000657	6.568151	2.225350	-0.052430
1004	5.0150e-01	-0.0770	-3.129685	0.000627	6.265006	2.122642	-0.050010
1005	5.0200e-01	-0.1299	-3.286975	0.000394	3.940891	1.335210	-0.031458
1006	5.0250e-01	-0.1588	-3.520895	0.000586	5.860812	1.985697	-0.046784
1007	5.0300e-01	-0.2021	-3.867742	0.000869	8.690170	2.944309	-0.069369
1008	5.0350e-01	-0.2358	-4.178290	0.000778	7.780733	2.636184	-0.062110
1009	5.0400e-01	-0.2711	-4.488839	0.000778	7.780733	2.636184	-0.062110
1010	5.0450e-01	-0.3241	-4.674361	0.000465	4.648230	1.574863	-0.037105
1011	5.0500e-01	-0.3561	-5.021208	0.000869	8.690170	2.944309	-0.069369
1012	5.0550e-01	-0.3914	-5.214796	0.000485	4.850327	1.643335	-0.038718
1013	5.0600e-01	-0.4412	-5.493080	0.000697	6.972345	2.362295	-0.055657
1014	5.0650e-01	-0.4909	-5.759265	0.000667	6.669200	2.259586	-0.053237
1015	5.0700e-01	-0.5230	-6.166608	0.001021	10.205897	3.457851	-0.081469
1016	5.0750e-01	-0.5631	-6.461024	0.000738	7.376539	2.499239	-0.058883
1017	5.0800e-01	-0.6048	-6.743341	0.000707	7.073394	2.396531	-0.056463
1018	5.0850e-01	-0.6369	-6.924830	0.000455	4.547182	1.540627	-0.036298
1019	5.0900e-01	-0.6834	-7.303942	0.000950	9.498558	3.218198	-0.075822
1020	5.0950e-01	-0.7091	-7.598358	0.000738	7.376539	2.499239	-0.058883
1021	5.1000e-01	-0.7620	-7.816145	0.000546	5.456618	1.848752	-0.043557
1022	5.1050e-01	-0.7973	-8.162992	0.000869	8.690170	2.944309	-0.069369
1023	5.1100e-01	-0.8390	-8.360613	0.000495	4.951376	1.677572	-0.039524
1024	5.1150e-01	-0.8775	-8.695361	0.000839	8.387024	2.841601	-0.066949
1025	5.1200e-01	-0.9176	-8.961545	0.000667	6.669200	2.259586	-0.053237
1026	5.1250e-01	-0.9593	-9.215630	0.000637	6.366055	2.156878	-0.050817
1027	5.1300e-01	-0.9946	-9.385020	0.000424	4.244036	1.437918	-0.033878
1028	5.1350e-01	-1.0428	-9.796397	0.001031	10.306945	3.492088	-0.082275
1029	5.1400e-01	-1.0700	-9.953687	0.000394	3.940891	1.335210	-0.031458
1030	5.1450e-01	-1.1069	-10.340865	0.000970	9.700654	3.286671	-0.077435
1031	5.1500e-01	-1.1534	-10.639314	0.000748	7.477588	2.533475	-0.059690
1032	5.1550e-01	-1.1935	-10.820804	0.000455	4.547182	1.540627	-0.036298
1033	5.1600e-01	-1.2353	-11.171683	0.000879	8.791218	2.978545	-0.070176
1034	5.1650e-01	-1.2802	-11.421735	0.000627	6.265006	2.122642	-0.050010
1035	5.1700e-01	-1.3187	-11.724218	0.000758	7.578636	2.567711	-0.060496
1036	5.1750e-01	-1.3620	-11.929906	0.000515	5.153473	1.746044	-0.041138
1037	5.1800e-01	-1.3925	-12.377580	0.001122	11.216382	3.800213	-0.089535
1038	5.1850e-01	-1.4390	-12.526804	0.000374	3.738794	1.266738	-0.029845
1039	5.1900e-01	-1.4775	-12.619566	0.000232	2.324115	0.787432	-0.018552
1040	5.1950e-01	-1.5160	-13.051107	0.001081	10.812188	3.663268	-0.086308
1041	5.2000e-01	-1.5561	-13.430218	0.000950	9.498558	3.218198	-0.075822
1042	5.2050e-01	-1.5946	-13.740767	0.000778	7.780733	2.636184	-0.062110
1043	5.2100e-01	-1.6299	-13.950488	0.000525	5.254521	1.780280	-0.041944
1044	5.2150e-01	-1.6812	-14.164242	0.000536	5.355570	1.814516	-0.042751
1045	5.2200e-01	-1.7197	-14.309434	0.000364	3.637745	1.232502	-0.029038
1046	5.2250e-01	-1.7582	-14.595784	0.000717	7.174442	2.430767	-0.057270
1047	5.2300e-01	-1.8048	-15.067656	0.001182	11.822673	4.005630	-0.094375
1048	5.2350e-01	-1.8481	-15.297543	0.000576	5.759764	1.951461	-0.045977
1049	5.2400e-01	-1.8914	-15.604058	0.000768	7.679685	2.601948	-0.061303
1050	5.2450e-01	-1.9203	-15.890408	0.000717	7.174442	2.430767	-0.057270
1051	5.2500e-01	-1.9491	-16.136428	0.000616	6.163958	2.088405	-0.049204
1052	5.2550e-01	-2.0069	-16.342116	0.000515	5.153473	1.746044	-0.041138
1053	5.2600e-01	-2.0374	-16.604267	0.000657	6.568151	2.225350	-0.052430
1054	5.2650e-01	-2.0727	-16.955147	0.000879	8.791218	2.978545	-0.070176
1055	5.2700e-01	-2.1224	-17.132603	0.000445	4.446133	1.506391	-0.035491
1056	5.2750e-01	-2.1529	-17.435085	0.000758	7.578636	2.567711	-0.060496
1057	5.2800e-01	-2.2026	-17.628674	0.000485	4.850327	1.643335	-0.038718
1058	5.2850e-01	-2.2379	-18.007785	0.000950	9.498558	3.218198	-0.075822
1059	5.2900e-01	-2.2828	-18.310268	0.000758	7.578636	2.567711	-0.060496
1060	5.2950e-01	-2.3261	-18.374797	0.000162	1.616776	0.547778	-0.012906
1061	5.3000e-01	-2.3534	-18.814405	0.001101	11.014285	3.731741	-0.087922
1062	5.3050e-01	-2.3887	-19.060424	0.000616	6.163958	2.088405	-0.049204
1063	5.3100e-01	-2.4352	-19.395171	0.000839	8.387024	2.841601	-0.066949
1064	5.3150e-01	-2.4785	-19.633124	0.000596	5.961861	2.019933	-0.047591
1065	5.3200e-01	-2.5219	-19.984004	0.000879	8.791218	2.978545	-0.070176
1066	5.3250e-01	-2.5620	-20.225989	0.000606	6.062909	2.054169	-0.048397
1067	5.3300e-01	-2.5924	-20.556704	0.000829	8.285976	2.807365	-0.066143
1068	5.3350e-01	-2.6309	-20.701895	0.000364	3.637745	1.232502	-0.029038
1069	5.3400e-01	-2.6855	-20.911616	0.000525	5.254521	1.780280	-0.041944
1070	5.3450e-01	-2.7240	-21.189900	0.000697	6.972345	2.362295	-0.055657
1071	5.3500e-01	-2.7513	-21.468184	0.000697	6.972345	2.362295	-0.055657
1072	5.3550e-01	-2.7930	-21.746468	0.000697	6.972345	2.362295	-0.055657
1073	5.3600e-01	-2.8363	-22.057016	0.000778	7.780733	2.636184	-0.062110
1074	5.3650e-01	-2.8780	-22.351432	0.000738	7.376539	2.499239	-0.058883
1075	5.3700e-01	-2.9277	-22.532922	0.000455	4.547182	1.540627	-0.036298
1076	5.3750e-01	-2.9550	-22.843470	0.000778	7.780733	2.636184	-0.062110
1077	5.3800e-01	-2.9935	-23.266946	0.001061	10.610091	3.594796	-0.084695
1078	5.3850e-01	-3.0432	-23.448435	0.000455	4.547182	1.540627	-0.036298
1079	5.3900e-01	-3.0705	-23.674289	0.000566	5.658715	1.917225	-0.045171
1080	5.3950e-01	-3.1186	-23.871911	0.000495	4.951376	1.677572	-0.039524
1081	5.4000e-01	-3.1507	-24.279254	0.001021	10.205897	3.457851	-0.081469
1082	5.4050e-01	-3.2053	-24.593835	0.000788	7.881782	2.670420	-0.062916
1083	5.4100e-01	-3.2422	-24.779358	0.000465	4.648230	1.574863	-0.037105
1084	5.4150e-01	-3.2758	-25.097973	0.000798	7.982830	2.704656	-0.063723
1085	5.4200e-01	-3.3272	-25.227032	0.000323	3.233551	1.095557	-0.025812
1086	5.4250e-01	-3.3577	-25.553713	0.000818	8.184927	2.773128	-0.065336
1087	5.4300e-01	-3.4010	-25.775533	0.000556	5.557667	1.882988	-0.044364
1088	5.4350e-01	-3.4331	-25.985254	0.000525	5.254521	1.780280	-0.041944
1089	5.4400e-01	-3.4764	-26.340167	0.000889	8.892267	3.012781	-0.070983
1090	5.4450e-01	-3.5101	-26.695080	0.000889	8.892267	3.012781	-0.070983
1091	5.4500e-01	-3.5598	-26.892701	0.000495	4.951376	1.677572	-0.039524
1092	5.4550e-01	-3.5919	-27.267780	0.000940	9.397509	3.183962	-0.075016
1093	5.4600e-01	-3.6432	-27.404905	0.000344	3.435648	1.164029	-0.027425
1094	5.4650e-01	-3.6737	-27.667056	0.000657	6.568151	2.225350	-0.052430
1095	5.4700e-01	-3.7234	-27.989704	0.000808	8.083879	2.738892	-0.064530
1096	5.4750e-01	-3.7571	-28.288154	0.000748	7.477588	2.533475	-0.059690
1097	5.4800e-01	-3.7956	-28.489809	0.000505	5.052424	1.711808	-0.040331
1098	5.4850e-01	-3.8373	-28.711629	0.000556	5.557667	1.882988	-0.044364
1099	5.4900e-01	-3.8871	-28.973780	0.000657	6.568151	2.225350	-0.052430
1100	5.4950e-01	-3.9143	-29.320627	0.000869	8.690170	2.944309	-0.069369
1101	5.5000e-01	-3.9528	-29.570679	0.000627	6.265006	2.122642	-0.050010
1102	5.5050e-01	-3.9929	-29.921559	0.000879	8.791218	2.978545	-0.070176
1103	5.5100e-01	-4.0379	-30.099015	0.000445	4.446133	1.506391	-0.035491
1104	5.5150e-01	-4.0828	-30.260339	0.000404	4.041939	1.369446	-0.032265
1105	5.5200e-01	-4.1341	-30.599119	0.000849	8.488073	2.875837	-0.067756
1106	5.5250e-01	-4.1598	-30.949999	0.000879	8.791218	2.978545	-0.070176
1107	5.5300e-01	-4.1919	-31.107290	0.000394	3.940891	1.335210	-0.031458
1108	5.5350e-01	-4.2432	-31.506566	0.001000	10.003800	3.389379	-0.079855
1109	5.5400e-01	-4.2801	-31.756618	0.000627	6.265006	2.122642	-0.050010
1110	5.5450e-01	-4.3266	-32.010704	0.000637	6.366055	2.156878	-0.050817
1111	5.5500e-01	-4.3603	-32.252690	0.000606	6.062909	2.054169	-0.048397
1112	5.5550e-01	-4.3988	-32.547106	0.000738	7.376539	2.499239	-0.058883
1113	5.5600e-01	-4.4357	-32.752794	0.000515	5.153473	1.746044	-0.041138
1114	5.5650e-01	-4.4758	-32.930250	0.000445	4.446133	1.506391	-0.035491
1115	5.5700e-01	-4.5239	-33.127872	0.000495	4.951376	1.677572	-0.039524
1116	5.5750e-01	-4.5640	-33.454553	0.000818	8.184927	2.773128	-0.065336
1117	5.5800e-01	-4.5945	-33.680406	0.000566	5.658715	1.917225	-0.045171
1118	5.5850e-01	-4.6443	-33.958690	0.000697	6.972345	2.362295	-0.055657
1119	5.5900e-01	-4.6699	-34.232941	0.000687	6.871297	2.328058	-0.054850
1120	5.5950e-01	-4.7277	-34.547523	0.000788	7.881782	2.670420	-0.062916
1121	5.6000e-01	-4.7566	-34.741111	0.000485	4.850327	1.643335	-0.038718
1122	5.6050e-01	-4.8015	-35.071825	0.000829	8.285976	2.807365	-0.066143
1123	5.6100e-01	-4.8416	-35.317844	0.000616	6.163958	2.088405	-0.049204
1124	5.6150e-01	-4.8801	-35.491268	0.000435	4.345085	1.472155	-0.034685
1125	5.6200e-01	-4.9218	-35.777618	0.000717	7.174442	2.430767	-0.057270
1126	5.6250e-01	-4.9603	-35.938942	0.000404	4.041939	1.369446	-0.032265
1127	5.6300e-01	-5.0036	-36.390649	0.001132	11.317430	3.834449	-0.090341
1128	5.6350e-01	-5.0421	-36.592304	0.000505	5.052424	1.711808	-0.040331
1129	5.6400e-01	-5.0774	-36.830256	0.000596	5.961861	2.019933	-0.047591
1130	5.6450e-01	-5.1207	-37.019812	0.000475	4.749279	1.609099	-0.037911
1131	5.6500e-01	-5.1608	-37.326328	0.000768	7.679685	2.601948	-0.061303
1132	5.6550e-01	-5.2025	-37.608644	0.000707	7.073394	2.396531	-0.056463
1133	5.6600e-01	-5.2330	-37.850630	0.000606	6.062909	2.054169	-0.048397
1134	5.6650e-01	-5.2747	-38.088583	0.000596	5.961861	2.019933	-0.047591
1135	5.6700e-01	-5.3148	-38.370900	0.000707	7.073394	2.396531	-0.056463
1136	5.6750e-01	-5.3597	-38.560456	0.000475	4.749279	1.609099	-0.037911
1137	5.6800e-01	-5.4047	-38.875037	0.000788	7.881782	2.670420	-0.062916
1138	5.6850e-01	-5.4335	-39.157354	0.000707	7.073394	2.396531	-0.056463
1139	5.6900e-01	-5.4801	-39.407406	0.000627	6.265006	2.122642	-0.050010
1140	5.6950e-01	-5.5266	-39.641326	0.000586	5.860812	1.985697	-0.046784
1141	5.7000e-01	-5.5619	-39.963974	0.000808	8.083879	2.738892	-0.064530
1142	5.7050e-01	-5.6036	-40.298721	0.000839	8.387024	2.841601	-0.066949
1143	5.7100e-01	-5.6373	-40.435847	0.000344	3.435648	1.164029	-0.027425
1144	5.7150e-01	-5.6886	-40.641535	0.000515	5.153473	1.746044	-0.041138
1145	5.7200e-01	-5.7175	-40.927885	0.000717	7.174442	2.430767	-0.057270
1146	5.7250e-01	-5.7592	-41.141639	0.000536	5.355570	1.814516	-0.042751
1147	5.7300e-01	-5.8137	-41.391691	0.000627	6.265006	2.122642	-0.050010
1148	5.7350e-01	-5.8474	-41.524783	0.000333	3.334600	1.129793	-0.026618
1149	5.7400e-01	-5.8747	-41.964391	0.001101	11.014285	3.731741	-0.087922
1150	5.7450e-01	-5.9276	-42.137814	0.000435	4.345085	1.472155	-0.034685
1151	5.7500e-01	-5.9597	-42.416098	0.000697	6.972345	2.362295	-0.055657
1152	5.7550e-01	-6.0030	-42.726647	0.000778	7.780733	2.636184	-0.062110
1153	5.7600e-01	-6.0399	-43.045261	0.000798	7.982830	2.704656	-0.063723
1154	5.7650e-01	-6.0833	-43.267082	0.000556	5.557667	1.882988	-0.044364
1155	5.7700e-01	-6.1282	-43.416306	0.000374	3.738794	1.266738	-0.029845
1156	5.7750e-01	-6.1586	-43.698623	0.000707	7.073394	2.396531	-0.056463
1157	5.7800e-01	-6.1939	-43.835749	0.000344	3.435648	1.164029	-0.027425
1158	5.7850e-01	-6.2389	-44.142264	0.000768	7.679685	2.601948	-0.061303
1159	5.7900e-01	-6.2774	-44.593971	0.001132	11.317430	3.834449	-0.090341
1160	5.7950e-01	-6.3143	-44.779494	0.000465	4.648230	1.574863	-0.037105
1161	5.8000e-01	-6.3656	-45.102142	0.000808	8.083879	2.738892	-0.064530
1162	5.8050e-01	-6.3993	-45.259433	0.000394	3.940891	1.335210	-0.031458
1163	5.8100e-01	-6.4378	-45.642577	0.000960	9.599606	3.252435	-0.076629
1164	5.8150e-01	-6.4843	-45.787768	0.000364	3.637745	1.232502	-0.029038
1165	5.8200e-01	-6.5212	-45.949092	0.000404	4.041939	1.369446	-0.032265
1166	5.8250e-01	-6.5533	-46.207211	0.000647	6.467103	2.191114	-0.051624
1167	5.8300e-01	-6.5934	-46.404833	0.000495	4.951376	1.677572	-0.039524
1168	5.8350e-01	-6.6383	-46.711348	0.000768	7.679685	2.601948	-0.061303
1169	5.8400e-01	-6.6816	-46.872672	0.000404	4.041939	1.369446	-0.032265
1170	5.8450e-01	-6.7153	-47.146923	0.000687	6.871297	2.328058	-0.054850
1171	5.8500e-01	-6.7538	-47.308247	0.000404	4.041939	1.369446	-0.032265
1172	5.8550e-01	-6.8052	-47.594597	0.000717	7.174442	2.430767	-0.057270
1173	5.8600e-01	-6.8372	-47.872880	0.000697	6.972345	2.362295	-0.055657
1174	5.8650e-01	-6.8693	-48.090668	0.000546	5.456618	1.848752	-0.043557
1175	5.8700e-01	-6.9207	-48.405249	0.000788	7.881782	2.670420	-0.062916
1176	5.8750e-01	-6.9543	-48.635136	0.000576	5.759764	1.951461	-0.045977
1177	5.8800e-01	-6.9977	-48.925519	0.000728	7.275491	2.465003	-0.058077
1178	5.8850e-01	-7.0410	-49.074744	0.000374	3.738794	1.266738	-0.029845
1179	5.8900e-01	-7.0699	-49.437723	0.000909	9.094364	3.081254	-0.072596
1180	5.8950e-01	-7.1212	-49.542583	0.000263	2.627261	0.890140	-0.020972
1181	5.9000e-01	-7.1533	-49.905562	0.000909	9.094364	3.081254	-0.072596
1182	5.9050e-01	-7.2014	-50.087052	0.000455	4.547182	1.540627	-0.036298
1183	5.9100e-01	-7.2319	-50.417766	0.000829	8.285976	2.807365	-0.066143
1184	5.9150e-01	-7.2752	-50.526659	0.000273	2.728309	0.924376	-0.021779
1185	5.9200e-01	-7.3249	-50.768645	0.000606	6.062909	2.054169	-0.048397
1186	5.9250e-01	-7.3570	-51.046929	0.000697	6.972345	2.362295	-0.055657
1187	5.9300e-01	-7.3939	-51.252617	0.000515	5.153473	1.746044	-0.041138
1188	5.9350e-01	-7.4356	-51.490570	0.000596	5.961861	2.019933	-0.047591
1189	5.9400e-01	-7.4789	-51.724490	0.000586	5.860812	1.985697	-0.046784
1190	5.9450e-01	-7.5222	-52.035038	0.000778	7.780733	2.636184	-0.062110
1191	5.9500e-01	-7.5527	-52.240726	0.000515	5.153473	1.746044	-0.041138
1192	5.9550e-01	-7.5944	-52.454480	0.000536	5.355570	1.814516	-0.042751
1193	5.9600e-01	-7.6442	-52.756963	0.000758	7.578636	2.567711	-0.060496
1194	5.9650e-01	-7.6763	-53.075578	0.000798	7.982830	2.704656	-0.063723
1195	5.9700e-01	-7.7115	-53.281266	0.000515	5.153473	1.746044	-0.041138
1196	5.9750e-01	-7.7549	-53.535351	0.000637	6.366055	2.156878	-0.050817
1197	5.9800e-01	-7.7998	-53.636178	0.000253	2.526212	0.855904	-0.020165
1198	5.9850e-01	-7.8399	-53.898330	0.000657	6.568151	2.225350	-0.052430
1199	5.9900e-01	-7.8800	-54.216945	0.000798	7.982830	2.704656	-0.063723
1200	5.9950e-01	-7.9217	-54.523460	0.000768	7.679685	2.601948	-0.061303
1201	6.0000e-01	-7.9650	-54.604122	0.000202	2.020970	0.684723	-0.016132
1202	6.0050e-01	-7.9955	-54.829975	0.000566	5.658715	1.917225	-0.045171
1203	6.0100e-01	-8.0420	-55.245385	0.001041	10.407994	3.526324	-0.083082
1204	6.0150e-01	-8.0741	-55.305881	0.000152	1.515727	0.513542	-0.012099
1205	6.0200e-01	-8.1126	-55.576099	0.000677	6.770248	2.293822	-0.054044
1206	6.0250e-01	-8.1575	-55.749522	0.000435	4.345085	1.472155	-0.034685
1207	6.0300e-01	-8.1976	-56.080236	0.000829	8.285976	2.807365	-0.066143
1208	6.0350e-01	-8.2377	-56.374652	0.000738	7.376539	2.499239	-0.058883
1209	6.0400e-01	-8.2714	-56.620671	0.000616	6.163958	2.088405	-0.049204
1210	6.0450e-01	-8.3196	-56.838459	0.000546	5.456618	1.848752	-0.043557
1211	6.0500e-01	-8.3597	-56.987683	0.000374	3.738794	1.266738	-0.029845
1212	6.0550e-01	-8.3950	-57.274033	0.000717	7.174442	2.430767	-0.057270
1213	6.0600e-01	-8.4399	-57.495854	0.000556	5.557667	1.882988	-0.044364
1214	6.0650e-01	-8.4639	-57.850766	0.000889	8.892267	3.012781	-0.070983
1215	6.0700e-01	-8.5233	-58.016123	0.000414	4.142988	1.403682	-0.033071
1216	6.0750e-01	-8.5586	-58.193580	0.000445	4.446133	1.506391	-0.035491
1217	6.0800e-01	-8.6003	-58.391202	0.000495	4.951376	1.677572	-0.039524
1218	6.0850e-01	-8.6388	-58.584790	0.000485	4.850327	1.643335	-0.038718
1219	6.0900e-01	-8.6773	-58.887273	0.000758	7.578636	2.567711	-0.060496
1220	6.0950e-01	-8.7110	-59.084895	0.000495	4.951376	1.677572	-0.039524
1221	6.1000e-01	-8.7543	-59.226053	0.000354	3.536697	1.198265	-0.028232
1222	6.1050e-01	-8.7992	-59.560800	0.000839	8.387024	2.841601	-0.066949
1223	6.1100e-01	-8.8345	-59.826985	0.000667	6.669200	2.259586	-0.053237
1224	6.1150e-01	-8.8794	-59.988309	0.000404	4.041939	1.369446	-0.032265
1225	6.1200e-01	-8.9227	-60.242394	0.000637	6.366055	2.156878	-0.050817
1226	6.1250e-01	-8.9548	-60.492446	0.000627	6.265006	2.122642	-0.050010
1227	6.1300e-01	-8.9997	-60.754597	0.000657	6.568151	2.225350	-0.052430
1228	6.1350e-01	-9.0415	-60.887690	0.000333	3.334600	1.129793	-0.026618
1229	6.1400e-01	-9.0751	-61.170007	0.000707	7.073394	2.396531	-0.056463
1230	6.1450e-01	-9.1185	-61.436191	0.000667	6.669200	2.259586	-0.053237
1231	6.1500e-01	-9.1618	-61.577349	0.000354	3.536697	1.198265	-0.028232
1232	6.1550e-01	-9.2019	-61.899997	0.000808	8.083879	2.738892	-0.064530
1233	6.1600e-01	-9.2420	-62.137950	0.000596	5.961861	2.019933	-0.047591
1234	6.1650e-01	-9.2725	-62.311373	0.000435	4.345085	1.472155	-0.034685
1235	6.1700e-01	-9.3238	-62.634021	0.000808	8.083879	2.738892	-0.064530
1236	6.1750e-01	-9.3607	-62.900206	0.000667	6.669200	2.259586	-0.053237
1237	6.1800e-01	-9.4008	-63.085728	0.000465	4.648230	1.574863	-0.037105
1238	6.1850e-01	-9.4345	-63.283350	0.000495	4.951376	1.677572	-0.039524
1239	6.1900e-01	-9.4778	-63.432575	0.000374	3.738794	1.266738	-0.029845
1240	6.1950e-01	-9.5147	-63.706826	0.000687	6.871297	2.328058	-0.054850
1241	6.2000e-01	-9.5516	-63.989142	0.000707	7.073394	2.396531	-0.056463
1242	6.2050e-01	-9.5949	-64.299691	0.000778	7.780733	2.636184	-0.062110
1243	6.2100e-01	-9.6398	-64.432783	0.000333	3.334600	1.129793	-0.026618
1244	6.2150e-01	-9.6783	-64.610240	0.000445	4.446133	1.506391	-0.035491
1245	6.2200e-01	-9.7184	-64.868358	0.000647	6.467103	2.191114	-0.051624
1246	6.2250e-01	-9.7521	-65.122443	0.000637	6.366055	2.156878	-0.050817
1247	6.2300e-01	-9.8003	-65.356363	0.000586	5.860812	1.985697	-0.046784
1248	6.2350e-01	-9.8323	-65.493488	0.000344	3.435648	1.164029	-0.027425
1249	6.2400e-01	-9.8805	-65.719342	0.000566	5.658715	1.917225	-0.045171
1250	6.2450e-01	-9.9254	-65.961328	0.000606	6.062909	2.054169	-0.048397
1251	6.2500e-01	-9.9559	-66.231545	0.000677	6.770248	2.293822	-0.054044
1252	6.2550e-01	-9.9928	-66.445299	0.000536	5.355570	1.814516	-0.042751
1253	6.2600e-01	-10.0313	-66.598557	0.000384	3.839842	1.300974	-0.030652
1254	6.2650e-01	-10.0858	-66.921205	0.000808	8.083879	2.738892	-0.064530
1255	6.2700e-01	-10.1179	-67.022033	0.000253	2.526212	0.855904	-0.020165
1256	6.2750e-01	-10.1468	-67.312416	0.000728	7.275491	2.465003	-0.058077
1257	6.2800e-01	-10.1917	-67.497938	0.000465	4.648230	1.574863	-0.037105
1258	6.2850e-01	-10.2366	-67.739924	0.000606	6.062909	2.054169	-0.048397
1259	6.2900e-01	-10.2863	-67.925447	0.000465	4.648230	1.574863	-0.037105
1260	6.2950e-01	-10.3168	-68.300525	0.000940	9.397509	3.183962	-0.075016
1261	6.3000e-01	-10.3537	-68.582842	0.000707	7.073394	2.396531	-0.056463
1262	6.3050e-01	-10.3938	-68.788530	0.000515	5.153473	1.746044	-0.041138
1263	6.3100e-01	-10.4420	-68.857092	0.000172	1.717824	0.582015	-0.013713
1264	6.3150e-01	-10.4708	-69.163608	0.000768	7.679685	2.601948	-0.061303
1265	6.3200e-01	-10.5190	-69.337031	0.000435	4.345085	1.472155	-0.034685
1266	6.3250e-01	-10.5542	-69.562885	0.000566	5.658715	1.917225	-0.045171
1267	6.3300e-01	-10.5976	-69.792771	0.000576	5.759764	1.951461	-0.045977
1268	6.3350e-01	-10.6232	-69.946029	0.000384	3.839842	1.300974	-0.030652
1269	6.3400e-01	-10.6810	-70.248511	0.000758	7.578636	2.567711	-0.060496
1270	6.3450e-01	-10.7163	-70.470332	0.000556	5.557667	1.882988	-0.044364
1271	6.3500e-01	-10.7580	-70.684086	0.000536	5.355570	1.814516	-0.042751
1272	6.3550e-01	-10.7949	-70.752649	0.000172	1.717824	0.582015	-0.013713
1273	6.3600e-01	-10.8302	-71.087396	0.000839	8.387024	2.841601	-0.066949
1274	6.3650e-01	-10.8767	-71.228554	0.000354	3.536697	1.198265	-0.028232
1275	6.3700e-01	-10.9248	-71.401978	0.000435	4.345085	1.472155	-0.034685
1276	6.3750e-01	-10.9521	-71.773023	0.000930	9.296461	3.149726	-0.074209
1277	6.3800e-01	-10.9970	-72.039207	0.000667	6.669200	2.259586	-0.053237
1278	6.3850e-01	-11.0484	-72.204564	0.000414	4.142988	1.403682	-0.033071
1279	6.3900e-01	-11.0644	-72.321524	0.000293	2.930406	0.992848	-0.023392
1280	6.3950e-01	-11.1125	-72.523179	0.000505	5.052424	1.711808	-0.040331
1281	6.4000e-01	-11.1703	-72.765165	0.000606	6.062909	2.054169	-0.048397
1282	6.4050e-01	-11.1959	-73.007151	0.000606	6.062909	2.054169	-0.048397
1283	6.4100e-01	-11.2344	-73.261236	0.000637	6.366055	2.156878	-0.050817
1284	6.4150e-01	-11.2810	-73.470957	0.000525	5.254521	1.780280	-0.041944
1285	6.4200e-01	-11.3179	-73.741175	0.000677	6.770248	2.293822	-0.054044
1286	6.4250e-01	-11.3612	-73.942830	0.000505	5.052424	1.711808	-0.040331
1287	6.4300e-01	-11.4029	-74.108187	0.000414	4.142988	1.403682	-0.033071
1288	6.4350e-01	-11.4302	-74.350173	0.000606	6.062909	2.054169	-0.048397
1289	6.4400e-01	-11.4815	-74.596192	0.000616	6.163958	2.088405	-0.049204
1290	6.4450e-01	-11.5184	-74.842211	0.000616	6.163958	2.088405	-0.049204
1291	6.4500e-01	-11.5553	-75.035799	0.000485	4.850327	1.643335	-0.038718
1292	6.4550e-01	-11.5954	-75.277785	0.000606	6.062909	2.054169	-0.048397
1293	6.4600e-01	-11.6451	-75.334249	0.000141	1.414679	0.479306	-0.011293
1294	6.4650e-01	-11.6692	-75.584301	0.000627	6.265006	2.122642	-0.050010
1295	6.4700e-01	-11.7141	-75.846452	0.000657	6.568151	2.225350	-0.052430
1296	6.4750e-01	-11.7574	-76.031975	0.000465	4.648230	1.574863	-0.037105
1297	6.4800e-01	-11.8023	-76.346557	0.000788	7.881782	2.670420	-0.062916
1298	6.4850e-01	-11.8280	-76.568377	0.000556	5.557667	1.882988	-0.044364
1299	6.4900e-01	-11.8697	-76.882959	0.000788	7.881782	2.670420	-0.062916
1300	6.4950e-01	-11.9178	-76.814396	-0.000172	-1.717824	-0.582015	0.013713
1301	6.5000e-01	-11.9596	-77.076547	0.000657	6.568151	2.225350	-0.052430
1302	6.5050e-01	-12.0077	-77.370964	0.000738	7.376539	2.499239	-0.058883
1303	6.5100e-01	-12.0446	-77.572619	0.000505	5.052424	1.711808	-0.040331
1304	6.5150e-01	-12.0751	-77.742009	0.000424	4.244036	1.437918	-0.033878
1305	6.5200e-01	-12.1152	-77.963829	0.000556	5.557667	1.882988	-0.044364
1306	6.5250e-01	-12.1521	-78.109021	0.000364	3.637745	1.232502	-0.029038
1307	6.5300e-01	-12.2002	-78.306642	0.000495	4.951376	1.677572	-0.039524
1308	6.5350e-01	-12.2387	-78.677688	0.000930	9.296461	3.149726	-0.074209
1309	6.5400e-01	-12.2772	-78.883376	0.000515	5.153473	1.746044	-0.041138
1310	6.5450e-01	-12.3189	-79.181825	0.000748	7.477588	2.533475	-0.059690
1311	6.5500e-01	-12.3462	-79.415745	0.000586	5.860812	1.985697	-0.046784
1312	6.5550e-01	-12.4007	-79.536738	0.000303	3.031455	1.027085	-0.024199
1313	6.5600e-01	-12.4392	-79.665797	0.000323	3.233551	1.095557	-0.025812
1314	6.5650e-01	-12.4777	-79.984411	0.000798	7.982830	2.704656	-0.063723
1315	6.5700e-01	-12.5291	-80.186066	0.000505	5.052424	1.711808	-0.040331
1316	6.5750e-01	-12.5563	-80.323192	0.000344	3.435648	1.164029	-0.027425
1317	6.5800e-01	-12.6109	-80.496615	0.000435	4.345085	1.472155	-0.034685
1318	6.5850e-01	-12.6317	-80.750700	0.000637	6.366055	2.156878	-0.050817
1319	6.5900e-01	-12.6831	-80.964454	0.000536	5.355570	1.814516	-0.042751
1320	6.5950e-01	-12.7200	-81.158043	0.000485	4.850327	1.643335	-0.038718
1321	6.6000e-01	-12.7649	-81.343566	0.000465	4.648230	1.574863	-0.037105
1322	6.6050e-01	-12.8002	-81.512956	0.000424	4.244036	1.437918	-0.033878
1323	6.6100e-01	-12.8419	-81.730743	0.000546	5.456618	1.848752	-0.043557
1324	6.6150e-01	-12.8788	-82.097755	0.000920	9.195412	3.115490	-0.073402
1325	6.6200e-01	-12.9221	-82.206649	0.000273	2.728309	0.924376	-0.021779
1326	6.6250e-01	-12.9558	-82.476866	0.000677	6.770248	2.293822	-0.054044
1327	6.6300e-01	-13.0007	-82.605926	0.000323	3.233551	1.095557	-0.025812
1328	6.6350e-01	-13.0424	-82.739018	0.000333	3.334600	1.129793	-0.026618
1329	6.6400e-01	-13.0729	-83.045533	0.000768	7.679685	2.601948	-0.061303
1330	6.6450e-01	-13.1210	-83.335916	0.000728	7.275491	2.465003	-0.058077
1331	6.6500e-01	-13.1515	-83.501273	0.000414	4.142988	1.403682	-0.033071
1332	6.6550e-01	-13.2012	-83.791657	0.000728	7.275491	2.465003	-0.058077
1333	6.6600e-01	-13.2413	-83.803756	0.000030	0.303145	0.102708	-0.002420
1334	6.6650e-01	-13.2847	-83.977179	0.000435	4.345085	1.472155	-0.034685
1335	6.6700e-01	-13.3232	-84.239331	0.000657	6.568151	2.225350	-0.052430
1336	6.6750e-01	-13.3584	-84.368390	0.000323	3.233551	1.095557	-0.025812
1337	6.6800e-01	-13.4034	-84.699104	0.000829	8.285976	2.807365	-0.066143
1338	6.6850e-01	-13.4387	-84.828163	0.000323	3.233551	1.095557	-0.025812
1339	6.6900e-01	-13.4723	-85.009652	0.000455	4.547182	1.540627	-0.036298
1340	6.6950e-01	-13.5189	-85.150811	0.000354	3.536697	1.198265	-0.028232
1341	6.7000e-01	-13.5542	-85.344400	0.000485	4.850327	1.643335	-0.038718
1342	6.7050e-01	-13.5879	-85.743676	0.001000	10.003800	3.389379	-0.079855
1343	6.7100e-01	-13.6312	-86.038092	0.000738	7.376539	2.499239	-0.058883
1344	6.7150e-01	-13.6729	-86.231681	0.000485	4.850327	1.643335	-0.038718
1345	6.7200e-01	-13.7178	-86.300244	0.000172	1.717824	0.582015	-0.013713
1346	6.7250e-01	-13.7627	-86.368807	0.000172	1.717824	0.582015	-0.013713
1347	6.7300e-01	-13.7996	-86.751951	0.000960	9.599606	3.252435	-0.076629
1348	6.7350e-01	-13.8301	-86.973771	0.000556	5.557667	1.882988	-0.044364
1349	6.7400e-01	-13.8766	-87.235923	0.000657	6.568151	2.225350	-0.052430
1350	6.7450e-01	-13.9119	-87.364982	0.000323	3.233551	1.095557	-0.025812
1351	6.7500e-01	-13.9504	-87.554538	0.000475	4.749279	1.609099	-0.037911
1352	6.7550e-01	-13.9985	-87.699729	0.000364	3.637745	1.232502	-0.029038
1353	6.7600e-01	-14.0386	-88.042542	0.000859	8.589121	2.910073	-0.068563
1354	6.7650e-01	-14.0852	-88.099006	0.000141	1.414679	0.479306	-0.011293
1355	6.7700e-01	-14.1189	-88.369223	0.000677	6.770248	2.293822	-0.054044
1356	6.7750e-01	-14.1525	-88.530547	0.000404	4.041939	1.369446	-0.032265
1357	6.7800e-01	-14.1991	-88.724136	0.000485	4.850327	1.643335	-0.038718
1358	6.7850e-01	-14.2408	-88.885460	0.000404	4.041939	1.369446	-0.032265
1359	6.7900e-01	-14.2729	-89.208108	0.000808	8.083879	2.738892	-0.064530
1360	6.7950e-01	-14.3194	-89.341200	0.000333	3.334600	1.129793	-0.026618
1361	6.8000e-01	-14.3611	-89.611418	0.000677	6.770248	2.293822	-0.054044
1362	6.8050e-01	-14.3964	-89.800973	0.000475	4.749279	1.609099	-0.037911
1363	6.8100e-01	-14.4461	-90.026827	0.000566	5.658715	1.917225	-0.045171
1364	6.8150e-01	-14.4718	-90.224449	0.000495	4.951376	1.677572	-0.039524
1365	6.8200e-01	-14.5167	-90.434170	0.000525	5.254521	1.780280	-0.041944
1366	6.8250e-01	-14.5440	-90.571295	0.000344	3.435648	1.164029	-0.027425
1367	6.8300e-01	-14.5969	-90.829414	0.000647	6.467103	2.191114	-0.051624
1368	6.8350e-01	-14.6386	-90.966539	0.000344	3.435648	1.164029	-0.027425
1369	6.8400e-01	-14.6755	-91.236757	0.000677	6.770248	2.293822	-0.054044
1370	6.8450e-01	-14.7124	-91.385981	0.000374	3.738794	1.266738	-0.029845
1371	6.8500e-01	-14.7525	-91.563438	0.000445	4.446133	1.506391	-0.035491
1372	6.8550e-01	-14.7942	-91.736861	0.000435	4.345085	1.472155	-0.034685
1373	6.8600e-01	-14.8359	-91.861887	0.000313	3.132503	1.061321	-0.025005
1374	6.8650e-01	-14.8857	-92.200667	0.000849	8.488073	2.875837	-0.067756
1375	6.8700e-01	-14.9162	-92.450719	0.000627	6.265006	2.122642	-0.050010
1376	6.8750e-01	-14.9627	-92.559613	0.000273	2.728309	0.924376	-0.021779
1377	6.8800e-01	-14.9964	-92.793533	0.000586	5.860812	1.985697	-0.046784
1378	6.8850e-01	-15.0349	-93.079883	0.000717	7.174442	2.430767	-0.057270
1379	6.8900e-01	-15.0766	-93.188776	0.000273	2.728309	0.924376	-0.021779
1380	6.8950e-01	-15.1231	-93.346067	0.000394	3.940891	1.335210	-0.031458
1381	6.9000e-01	-15.1472	-93.656616	0.000778	7.780733	2.636184	-0.062110
1382	6.9050e-01	-15.1953	-93.882469	0.000566	5.658715	1.917225	-0.045171
1383	6.9100e-01	-15.2450	-94.011528	0.000323	3.233551	1.095557	-0.025812
1384	6.9150e-01	-15.2867	-94.172852	0.000404	4.041939	1.369446	-0.032265
1385	6.9200e-01	-15.3124	-94.382573	0.000525	5.254521	1.780280	-0.041944
1386	6.9250e-01	-15.3573	-94.612460	0.000576	5.759764	1.951461	-0.045977
1387	6.9300e-01	-15.3958	-94.745552	0.000333	3.334600	1.129793	-0.026618
1388	6.9350e-01	-15.4407	-94.955273	0.000525	5.254521	1.780280	-0.041944
1389	6.9400e-01	-15.4728	-95.181127	0.000566	5.658715	1.917225	-0.045171
1390	6.9450e-01	-15.5129	-95.358583	0.000445	4.446133	1.506391	-0.035491
1391	6.9500e-01	-15.5546	-95.604602	0.000616	6.163958	2.088405	-0.049204
1392	6.9550e-01	-15.5980	-95.838522	0.000586	5.860812	1.985697	-0.046784
1393	6.9600e-01	-15.6365	-96.060343	0.000556	5.557667	1.882988	-0.044364
1394	6.9650e-01	-15.6782	-96.330560	0.000677	6.770248	2.293822	-0.054044
1395	6.9700e-01	-15.7135	-96.463652	0.000333	3.334600	1.129793	-0.026618
1396	6.9750e-01	-15.7552	-96.580612	0.000293	2.930406	0.992848	-0.023392
1397	6.9800e-01	-15.7985	-96.854863	0.000687	6.871297	2.328058	-0.054850
1398	6.9850e-01	-15.8434	-97.084750	0.000576	5.759764	1.951461	-0.045977
1399	6.9900e-01	-15.8771	-97.181544	0.000243	2.425164	0.821668	-0.019359
1400	6.9950e-01	-15.9236	-97.371100	0.000475	4.749279	1.609099	-0.037911
1401	7.0000e-01	-15.9669	-97.568721	0.000495	4.951376	1.677572	-0.039524
1402	7.0050e-01	-15.9942	-97.818774	0.000627	6.265006	2.122642	-0.050010
1403	7.0100e-01	-16.0359	-98.036561	0.000546	5.456618	1.848752	-0.043557
1404	7.0150e-01	-16.0856	-98.181752	0.000364	3.637745	1.232502	-0.029038
1405	7.0200e-01	-16.1161	-98.419705	0.000596	5.961861	2.019933	-0.047591
1406	7.0250e-01	-16.1659	-98.625393	0.000515	5.153473	1.746044	-0.041138
1407	7.0300e-01	-16.1915	-98.867379	0.000606	6.062909	2.054169	-0.048397
1408	7.0350e-01	-16.2461	-99.101299	0.000586	5.860812	1.985697	-0.046784
1409	7.0400e-01	-16.2765	-99.319086	0.000546	5.456618	1.848752	-0.043557
1410	7.0450e-01	-16.3199	-99.508642	0.000475	4.749279	1.609099	-0.037911
1411	7.0500e-01	-16.3584	-99.669966	0.000404	4.041939	1.369446	-0.032265
1412	7.0550e-01	-16.3888	-99.794992	0.000313	3.132503	1.061321	-0.025005
1413	7.0600e-01	-16.4418	-100.089408	0.000738	7.376539	2.499239	-0.058883
1414	7.0650e-01	-16.4787	-100.246699	0.000394	3.940891	1.335210	-0.031458
1415	7.0700e-01	-16.5252	-100.496751	0.000627	6.265006	2.122642	-0.050010
1416	7.0750e-01	-16.5557	-100.734704	0.000596	5.961861	2.019933	-0.047591
1417	7.0800e-01	-16.5974	-100.847631	0.000283	2.829358	0.958612	-0.022585
1418	7.0850e-01	-16.6343	-101.041219	0.000485	4.850327	1.643335	-0.038718
1419	7.0900e-01	-16.6744	-101.174312	0.000333	3.334600	1.129793	-0.026618
1420	7.0950e-01	-16.7161	-101.670383	0.001243	12.428964	4.211047	-0.099214
1421	7.1000e-01	-16.7498	-101.747012	0.000192	1.919921	0.650487	-0.015326
1422	7.1050e-01	-16.8011	-101.859938	0.000283	2.829358	0.958612	-0.022585
1423	7.1100e-01	-16.8460	-102.013196	0.000384	3.839842	1.300974	-0.030652
1424	7.1150e-01	-16.8781	-102.275347	0.000657	6.568151	2.225350	-0.052430
1425	7.1200e-01	-16.9198	-102.529433	0.000637	6.366055	2.156878	-0.050817
1426	7.1250e-01	-16.9519	-102.694790	0.000414	4.142988	1.403682	-0.033071
1427	7.1300e-01	-17.0001	-102.924676	0.000576	5.759764	1.951461	-0.045977
1428	7.1350e-01	-17.0386	-103.122298	0.000495	4.951376	1.677572	-0.039524
1429	7.1400e-01	-17.0787	-103.404615	0.000707	7.073394	2.396531	-0.056463
1430	7.1450e-01	-17.1172	-103.574005	0.000424	4.244036	1.437918	-0.033878
1431	7.1500e-01	-17.1605	-103.731296	0.000394	3.940891	1.335210	-0.031458
1432	7.1550e-01	-17.1861	-103.924885	0.000485	4.850327	1.643335	-0.038718
1433	7.1600e-01	-17.2471	-104.150738	0.000566	5.658715	1.917225	-0.045171
1434	7.1650e-01	-17.2792	-104.308029	0.000394	3.940891	1.335210	-0.031458
1435	7.1700e-01	-17.3209	-104.541949	0.000586	5.860812	1.985697	-0.046784
1436	7.1750e-01	-17.3530	-104.731505	0.000475	4.749279	1.609099	-0.037911
1437	7.1800e-01	-17.3963	-104.912994	0.000455	4.547182	1.540627	-0.036298
1438	7.1850e-01	-17.4412	-105.203377	0.000728	7.275491	2.465003	-0.058077
1439	7.1900e-01	-17.4845	-105.340502	0.000344	3.435648	1.164029	-0.027425
1440	7.1950e-01	-17.5118	-105.542157	0.000505	5.052424	1.711808	-0.040331
1441	7.2000e-01	-17.5631	-105.699448	0.000394	3.940891	1.335210	-0.031458
1442	7.2050e-01	-17.6081	-106.098725	0.001000	10.003800	3.389379	-0.079855
1443	7.2100e-01	-17.6434	-106.219718	0.000303	3.031455	1.027085	-0.024199
1444	7.2150e-01	-17.6786	-106.429439	0.000525	5.254521	1.780280	-0.041944
1445	7.2200e-01	-17.7123	-106.683524	0.000637	6.366055	2.156878	-0.050817
1446	7.2250e-01	-17.7573	-106.905345	0.000556	5.557667	1.882988	-0.044364
1447	7.2300e-01	-17.7893	-107.018271	0.000283	2.829358	0.958612	-0.022585
1448	7.2350e-01	-17.8423	-107.203794	0.000465	4.648230	1.574863	-0.037105
1449	7.2400e-01	-17.8679	-107.510309	0.000768	7.679685	2.601948	-0.061303
1450	7.2450e-01	-17.9257	-107.615170	0.000263	2.627261	0.890140	-0.020972
1451	7.2500e-01	-17.9610	-107.921685	0.000768	7.679685	2.601948	-0.061303
1452	7.2550e-01	-17.9963	-108.091076	0.000424	4.244036	1.437918	-0.033878
1453	7.2600e-01	-18.0300	-108.276598	0.000465	4.648230	1.574863	-0.037105
1454	7.2650e-01	-18.0765	-108.454055	0.000445	4.446133	1.506391	-0.035491
1455	7.2700e-01	-18.1182	-108.784769	0.000829	8.285976	2.807365	-0.066143
1456	7.2750e-01	-18.1551	-108.970291	0.000465	4.648230	1.574863	-0.037105
1457	7.2800e-01	-18.2016	-109.236476	0.000667	6.669200	2.259586	-0.053237
1458	7.2850e-01	-18.2273	-109.430064	0.000485	4.850327	1.643335	-0.038718
1459	7.2900e-01	-18.2883	-109.643819	0.000536	5.355570	1.814516	-0.042751
1460	7.2950e-01	-18.3123	-109.780944	0.000344	3.435648	1.164029	-0.027425
1461	7.3000e-01	-18.3540	-109.982599	0.000505	5.052424	1.711808	-0.040331
1462	7.3050e-01	-18.3877	-110.216519	0.000586	5.860812	1.985697	-0.046784
1463	7.3100e-01	-18.4374	-110.502869	0.000717	7.174442	2.430767	-0.057270
1464	7.3150e-01	-18.4679	-110.720656	0.000546	5.456618	1.848752	-0.043557
1465	7.3200e-01	-18.5128	-110.902145	0.000455	4.547182	1.540627	-0.036298
1466	7.3250e-01	-18.5513	-111.087668	0.000465	4.648230	1.574863	-0.037105
1467	7.3300e-01	-18.5995	-111.244959	0.000394	3.940891	1.335210	-0.031458
1468	7.3350e-01	-18.6396	-111.507110	0.000657	6.568151	2.225350	-0.052430
1469	7.3400e-01	-18.6845	-111.785394	0.000697	6.972345	2.362295	-0.055657
1470	7.3450e-01	-18.7214	-111.999148	0.000536	5.355570	1.814516	-0.042751
1471	7.3500e-01	-18.7583	-112.237101	0.000596	5.961861	2.019933	-0.047591
1472	7.3550e-01	-18.8000	-112.442789	0.000515	5.153473	1.746044	-0.041138
1473	7.3600e-01	-18.8417	-112.575881	0.000333	3.334600	1.129793	-0.026618
1474	7.3650e-01	-18.8754	-112.862231	0.000717	7.174442	2.430767	-0.057270
1475	7.3700e-01	-18.9187	-113.043721	0.000455	4.547182	1.540627	-0.036298
1476	7.3750e-01	-18.9572	-113.148581	0.000263	2.627261	0.890140	-0.020972
1477	7.3800e-01	-19.0021	-113.519626	0.000930	9.296461	3.149726	-0.074209
1478	7.3850e-01	-19.0422	-113.781778	0.000657	6.568151	2.225350	-0.052430
1479	7.3900e-01	-19.0727	-113.931002	0.000374	3.738794	1.266738	-0.029845
1480	7.3950e-01	-19.1112	-114.249617	0.000798	7.982830	2.704656	-0.063723
1481	7.4000e-01	-19.1626	-114.487570	0.000596	5.961861	2.019933	-0.047591
1482	7.4050e-01	-19.1979	-114.693258	0.000515	5.153473	1.746044	-0.041138
1483	7.4100e-01	-19.2331	-114.858615	0.000414	4.142988	1.403682	-0.033071
1484	7.4150e-01	-19.2797	-115.157064	0.000748	7.477588	2.533475	-0.059690
1485	7.4200e-01	-19.3214	-115.511977	0.000889	8.892267	3.012781	-0.070983
1486	7.4250e-01	-19.3551	-115.588606	0.000192	1.919921	0.650487	-0.015326
1487	7.4300e-01	-19.3952	-115.762029	0.000435	4.345085	1.472155	-0.034685
1488	7.4350e-01	-19.4369	-115.979817	0.000546	5.456618	1.848752	-0.043557
1489	7.4400e-01	-19.4738	-116.302464	0.000808	8.083879	2.738892	-0.064530
1490	7.4450e-01	-19.5155	-116.455722	0.000384	3.839842	1.300974	-0.030652
1491	7.4500e-01	-19.5636	-116.645278	0.000475	4.749279	1.609099	-0.037911
1492	7.4550e-01	-19.5957	-116.927595	0.000707	7.073394	2.396531	-0.056463
1493	7.4600e-01	-19.6374	-117.109084	0.000455	4.547182	1.540627	-0.036298
1494	7.4650e-01	-19.6711	-117.367202	0.000647	6.467103	2.191114	-0.051624
1495	7.4700e-01	-19.7160	-117.689850	0.000808	8.083879	2.738892	-0.064530
1496	7.4750e-01	-19.7593	-117.847141	0.000394	3.940891	1.335210	-0.031458
1497	7.4800e-01	-19.8043	-118.028631	0.000455	4.547182	1.540627	-0.036298
1498	7.4850e-01	-19.8283	-118.314981	0.000717	7.174442	2.430767	-0.057270
1499	7.4900e-01	-19.8732	-118.577132	0.000657	6.568151	2.225350	-0.052430
1500	7.4950e-01	-19.9246	-118.762655	0.000465	4.648230	1.574863	-0.037105
1501	7.5000e-01	-19.9599	-118.980442	0.000546	5.456618	1.848752	-0.043557
1502	7.5050e-01	-19.9551	-119.036905	-0.000141	-1.414679	-0.479306	-0.011293
1503	7.5100e-01	-19.9310	-119.073203	-0.000091	-0.909436	-0.308125	-0.007260
1504	7.5150e-01	-19.9021	-119.109501	-0.000091	-0.909436	-0.308125	-0.007260
1505	7.5200e-01	-19.8540	-118.972376	0.000344	3.435648	1.164029	0.027425
1506	7.5250e-01	-19.8219	-118.827184	0.000364	3.637745	1.232502	0.029038
1507	7.5300e-01	-19.7786	-118.823151	0.000010	0.101048	0.034236	0.000807
1508	7.5350e-01	-19.7321	-118.730390	0.000232	2.324115	0.787432	0.018552
1509	7.5400e-01	-19.6952	-118.613430	0.000293	2.930406	0.992848	0.023392
1510	7.5450e-01	-19.6727	-118.524702	0.000222	2.223067	0.753195	0.017746
1511	7.5500e-01	-19.6278	-118.468238	0.000141	1.414679	0.479306	0.011293
1512	7.5550e-01	-19.5781	-118.391609	0.000192	1.919921	0.650487	0.015326
1513	7.5600e-01	-19.5347	-118.270617	0.000303	3.031455	1.027085	0.024199
1514	7.5650e-01	-19.4978	-118.202054	0.000172	1.717824	0.582015	0.013713
1515	7.5700e-01	-19.4642	-117.984267	0.000546	5.456618	1.848752	0.043557
1516	7.5750e-01	-19.4096	-118.048796	-0.000162	-1.616776	-0.547778	-0.012906
1517	7.5800e-01	-19.3743	-117.956035	0.000232	2.324115	0.787432	0.018552
1518	7.5850e-01	-19.3294	-117.669685	0.000717	7.174442	2.430767	0.057270
1519	7.5900e-01	-19.3053	-117.605155	0.000162	1.616776	0.547778	0.012906
1520	7.5950e-01	-19.2652	-117.556758	0.000121	1.212582	0.410834	0.009679
1521	7.6000e-01	-19.2283	-117.455931	0.000253	2.526212	0.855904	0.020165
1522	7.6050e-01	-19.1786	-117.411567	0.000111	1.111533	0.376598	0.008873
1523	7.6100e-01	-19.1417	-117.262342	0.000374	3.738794	1.266738	0.029845
1524	7.6150e-01	-19.0920	-117.121183	0.000354	3.536697	1.198265	0.028232
1525	7.6200e-01	-19.0551	-117.032455	0.000222	2.223067	0.753195	0.017746
1526	7.6250e-01	-19.0214	-116.867098	0.000414	4.142988	1.403682	0.033071
1527	7.6300e-01	-18.9877	-116.794502	0.000182	1.818873	0.616251	0.014519
1528	7.6350e-01	-18.9572	-116.532351	0.000657	6.568151	2.225350	0.052430
1529	7.6400e-01	-18.9043	-116.596881	-0.000162	-1.616776	-0.547778	-0.012906
1530	7.6450e-01	-18.8610	-116.423457	0.000435	4.345085	1.472155	0.034685
1531	7.6500e-01	-18.8209	-116.161306	0.000657	6.568151	2.225350	0.052430
1532	7.6550e-01	-18.7840	-116.064512	0.000243	2.425164	0.821668	0.019359
1533	7.6600e-01	-18.7326	-115.935452	0.000323	3.233551	1.095557	0.025812
1534	7.6650e-01	-18.6925	-115.830592	0.000263	2.627261	0.890140	0.020972
1535	7.6700e-01	-18.6636	-115.721698	0.000273	2.728309	0.924376	0.021779
1536	7.6750e-01	-18.6300	-115.628937	0.000232	2.324115	0.787432	0.018552
1537	7.6800e-01	-18.5882	-115.536176	0.000232	2.324115	0.787432	0.018552
1538	7.6850e-01	-18.5337	-115.423249	0.000283	2.829358	0.958612	0.022585
1539	7.6900e-01	-18.4968	-115.225627	0.000495	4.951376	1.677572	0.039524
1540	7.6950e-01	-18.4583	-115.084469	0.000354	3.536697	1.198265	0.028232
1541	7.7000e-01	-18.4278	-114.975575	0.000273	2.728309	0.924376	0.021779
1542	7.7050e-01	-18.3797	-114.870714	0.000263	2.627261	0.890140	0.020972
1543	7.7100e-01	-18.3444	-114.652927	0.000546	5.456618	1.848752	0.043557
1544	7.7150e-01	-18.2979	-114.503702	0.000374	3.738794	1.266738	0.029845
1545	7.7200e-01	-18.2530	-114.370610	0.000333	3.334600	1.129793	0.026618
1546	7.7250e-01	-18.2257	-114.314147	0.000141	1.414679	0.479306	0.011293
1547	7.7300e-01	-18.1872	-114.181055	0.000333	3.334600	1.129793	0.026618
1548	7.7350e-01	-18.1471	-113.987466	0.000485	4.850327	1.643335	0.038718
1549	7.7400e-01	-18.1006	-113.765645	0.000556	5.557667	1.882988	0.044364
1550	7.7450e-01	-18.0572	-113.668851	0.000243	2.425164	0.821668	0.019359
1551	7.7500e-01	-18.0236	-113.705149	-0.000091	-0.909436	-0.308125	-0.007260
1552	7.7550e-01	-17.9818	-113.491395	0.000536	5.355570	1.814516	0.042751
1553	7.7600e-01	-17.9433	-113.184879	0.000768	7.679685	2.601948	0.061303
1554	7.7650e-01	-17.9032	-113.152614	0.000081	0.808388	0.273889	0.006453
1555	7.7700e-01	-17.8583	-113.132449	0.000051	0.505242	0.171181	0.004033
1556	7.7750e-01	-17.8134	-112.914662	0.000546	5.456618	1.848752	0.043557
1557	7.7800e-01	-17.7861	-112.692841	0.000556	5.557667	1.882988	0.044364
1558	7.7850e-01	-17.7348	-112.656543	0.000091	0.909436	0.308125	0.007260
1559	7.7900e-01	-17.7059	-112.414557	0.000606	6.062909	2.054169	0.048397
1560	7.7950e-01	-17.6642	-112.261300	0.000384	3.839842	1.300974	0.030652
1561	7.8000e-01	-17.6257	-112.225002	0.000091	0.909436	0.308125	0.007260
1562	7.8050e-01	-17.5824	-111.978983	0.000616	6.163958	2.088405	0.049204
1563	7.8100e-01	-17.5455	-111.805559	0.000435	4.345085	1.472155	0.034685
1564	7.8150e-01	-17.5054	-111.716831	0.000222	2.223067	0.753195	0.017746
1565	7.8200e-01	-17.4669	-111.563574	0.000384	3.839842	1.300974	0.030652
1566	7.8250e-01	-17.4139	-111.507110	0.000141	1.414679	0.479306	0.011293
1567	7.8300e-01	-17.3851	-111.208661	0.000748	7.477588	2.533475	0.059690
1568	7.8350e-01	-17.3385	-111.123966	0.000212	2.122018	0.718959	0.016939
1569	7.8400e-01	-17.3033	-110.962642	0.000404	4.041939	1.369446	0.032265
1570	7.8450e-01	-17.2680	-110.781152	0.000455	4.547182	1.540627	0.036298
1571	7.8500e-01	-17.2166	-110.652093	0.000323	3.233551	1.095557	0.025812
1572	7.8550e-01	-17.1749	-110.656126	-0.000010	-0.101048	-0.034236	-0.000807
1573	7.8600e-01	-17.1460	-110.297181	0.000899	8.993315	3.047018	0.071789
1574	7.8650e-01	-17.0995	-110.151989	0.000364	3.637745	1.232502	0.029038
1575	7.8700e-01	-17.0610	-110.018897	0.000333	3.334600	1.129793	0.026618
1576	7.8750e-01	-17.0241	-109.885805	0.000333	3.334600	1.129793	0.026618
1577	7.8800e-01	-16.9808	-109.655918	0.000576	5.759764	1.951461	0.045977
1578	7.8850e-01	-16.9343	-109.518793	0.000344	3.435648	1.164029	0.027425
1579	7.8900e-01	-16.9134	-109.397800	0.000303	3.031455	1.027085	0.024199
1580	7.8950e-01	-16.8573	-109.317138	0.000202	2.020970	0.684723	0.016132
1581	7.9000e-01	-16.8204	-109.204211	0.000283	2.829358	0.958612	0.022585
1582	7.9050e-01	-16.7739	-108.933993	0.000677	6.770248	2.293822	0.054044
1583	7.9100e-01	-16.7450	-108.764603	0.000424	4.244036	1.437918	0.033878
1584	7.9150e-01	-16.7033	-108.603279	0.000404	4.041939	1.369446	0.032265
1585	7.9200e-01	-16.6632	-108.466154	0.000344	3.435648	1.164029	0.027425
1586	7.9250e-01	-16.6166	-108.353227	0.000283	2.829358	0.958612	0.022585
1587	7.9300e-01	-16.5830	-108.030579	0.000808	8.083879	2.738892	0.064530
1588	7.9350e-01	-16.5445	-107.929752	0.000253	2.526212	0.855904	0.020165
1589	7.9400e-01	-16.5011	-107.683733	0.000616	6.163958	2.088405	0.049204
1590	7.9450e-01	-16.4610	-107.611137	0.000182	1.818873	0.616251	0.014519
1591	7.9500e-01	-16.4161	-107.546607	0.000162	1.616776	0.547778	0.012906
1592	7.9550e-01	-16.3776	-107.227993	0.000798	7.982830	2.704656	0.063723
1593	7.9600e-01	-16.3359	-107.203794	0.000061	0.606291	0.205417	0.004840
1594	7.9650e-01	-16.3102	-107.078768	0.000313	3.132503	1.061321	0.025005
1595	7.9700e-01	-16.2653	-106.860981	0.000546	5.456618	1.848752	0.043557
1596	7.9750e-01	-16.2156	-106.610928	0.000627	6.265006	2.122642	0.050010
1597	7.9800e-01	-16.1803	-106.481869	0.000323	3.233551	1.095557	0.025812
1598	7.9850e-01	-16.1466	-106.276181	0.000515	5.153473	1.746044	0.041138
1599	7.9900e-01	-16.0969	-106.114857	0.000404	4.041939	1.369446	0.032265
1600	7.9950e-01	-16.0632	-105.997897	0.000293	2.930406	0.992848	0.023392
1601	8.0000e-01	-16.0231	-105.933368	0.000162	1.616776	0.547778	0.012906
1602	8.0050e-01	-15.9782	-105.695415	0.000596	5.961861	2.019933	0.047591
1603	8.0100e-01	-15.9461	-105.417131	0.000697	6.972345	2.362295	0.055657
1604	8.0150e-01	-15.9124	-105.280006	0.000344	3.435648	1.164029	0.027425
1605	8.0200e-01	-15.8627	-105.159013	0.000303	3.031455	1.027085	0.024199
1606	8.0250e-01	-15.8258	-104.977524	0.000455	4.547182	1.540627	0.036298
1607	8.0300e-01	-15.7808	-104.896862	0.000202	2.020970	0.684723	0.016132
1608	8.0350e-01	-15.7407	-104.650843	0.000616	6.163958	2.088405	0.049204
1609	8.0400e-01	-15.6974	-104.485485	0.000414	4.142988	1.403682	0.033071
1610	8.0450e-01	-15.6557	-104.332228	0.000384	3.839842	1.300974	0.030652
1611	8.0500e-01	-15.6236	-104.178970	0.000384	3.839842	1.300974	0.030652
1612	8.0550e-01	-15.5771	-104.057977	0.000303	3.031455	1.027085	0.024199
1613	8.0600e-01	-15.5498	-103.876488	0.000455	4.547182	1.540627	0.036298
1614	8.0650e-01	-15.5017	-103.590138	0.000717	7.174442	2.430767	0.057270
1615	8.0700e-01	-15.4648	-103.622402	-0.000081	-0.808388	-0.273889	-0.006453
1616	8.0750e-01	-15.4407	-103.388483	0.000586	5.860812	1.985697	0.046784
1617	8.0800e-01	-15.3910	-103.065835	0.000808	8.083879	2.738892	0.064530
1618	8.0850e-01	-15.3413	-103.017438	0.000121	1.212582	0.410834	0.009679
1619	8.0900e-01	-15.2964	-102.803683	0.000536	5.355570	1.814516	0.042751
1620	8.0950e-01	-15.2643	-102.662525	0.000354	3.536697	1.198265	0.028232
1621	8.1000e-01	-15.2161	-102.573797	0.000222	2.223067	0.753195	0.017746
1622	8.1050e-01	-15.1809	-102.235016	0.000849	8.488073	2.875837	0.067756
1623	8.1100e-01	-15.1456	-102.093858	0.000354	3.536697	1.198265	0.028232
1624	8.1150e-01	-15.1055	-102.069659	0.000061	0.606291	0.205417	0.004840
1625	8.1200e-01	-15.0541	-101.811541	0.000647	6.467103	2.191114	0.051624
1626	8.1250e-01	-15.0124	-101.666350	0.000364	3.637745	1.232502	0.029038
1627	8.1300e-01	-14.9755	-101.521158	0.000364	3.637745	1.232502	0.029038
1628	8.1350e-01	-14.9450	-101.351768	0.000424	4.244036	1.437918	0.033878
1629	8.1400e-01	-14.8953	-101.081550	0.000677	6.770248	2.293822	0.054044
1630	8.1450e-01	-14.8536	-100.827465	0.000637	6.366055	2.156878	0.050817
1631	8.1500e-01	-14.8167	-100.815366	0.000030	0.303145	0.102708	0.002420
1632	8.1550e-01	-14.7798	-100.645976	0.000424	4.244036	1.437918	0.033878
1633	8.1600e-01	-14.7445	-100.480619	0.000414	4.142988	1.403682	0.033071
1634	8.1650e-01	-14.7028	-100.270897	0.000525	5.254521	1.780280	0.041944
1635	8.1700e-01	-14.6659	-100.061176	0.000525	5.254521	1.780280	0.041944
1636	8.1750e-01	-14.6130	-99.879687	0.000455	4.547182	1.540627	0.036298
1637	8.1800e-01	-14.5889	-99.669966	0.000525	5.254521	1.780280	0.041944
1638	8.1850e-01	-14.5456	-99.440079	0.000576	5.759764	1.951461	0.045977
1639	8.1900e-01	-14.5039	-99.355384	0.000212	2.122018	0.718959	0.016939
1640	8.1950e-01	-14.4557	-99.282788	0.000182	1.818873	0.616251	0.014519
1641	8.2000e-01	-14.4253	-99.069034	0.000536	5.355570	1.814516	0.042751
1642	8.2050e-01	-14.3787	-98.681857	0.000970	9.700654	3.286671	0.077435
1643	8.2100e-01	-14.3434	-98.576996	0.000263	2.627261	0.890140	0.020972
1644	8.2150e-01	-14.2953	-98.504400	0.000182	1.818873	0.616251	0.014519
1645	8.2200e-01	-14.2584	-98.302745	0.000505	5.052424	1.711808	0.040331
1646	8.2250e-01	-14.2199	-98.137388	0.000414	4.142988	1.403682	0.033071
1647	8.2300e-01	-14.1862	-97.935733	0.000505	5.052424	1.711808	0.040331
1648	8.2350e-01	-14.1445	-97.637284	0.000748	7.477588	2.533475	0.059690
1649	8.2400e-01	-14.1028	-97.508225	0.000323	3.233551	1.095557	0.025812
1650	8.2450e-01	-14.0643	-97.350934	0.000394	3.940891	1.335210	0.031458
1651	8.2500e-01	-14.0258	-97.229941	0.000303	3.031455	1.027085	0.024199
1652	8.2550e-01	-13.9745	-97.056518	0.000435	4.345085	1.472155	0.034685
1653	8.2600e-01	-13.9408	-96.778234	0.000697	6.972345	2.362295	0.055657
1654	8.2650e-01	-13.9039	-96.669340	0.000273	2.728309	0.924376	0.021779
1655	8.2700e-01	-13.8622	-96.544314	0.000313	3.132503	1.061321	0.025005
1656	8.2750e-01	-13.8173	-96.451553	0.000232	2.324115	0.787432	0.018552
1657	8.2800e-01	-13.7788	-96.108740	0.000859	8.589121	2.910073	0.068563
1658	8.2850e-01	-13.7386	-96.020012	0.000222	2.223067	0.753195	0.017746
1659	8.2900e-01	-13.7018	-95.786092	0.000586	5.860812	1.985697	0.046784
1660	8.2950e-01	-13.6536	-95.536040	0.000627	6.265006	2.122642	0.050010
1661	8.3000e-01	-13.6247	-95.370683	0.000414	4.142988	1.403682	0.033071
1662	8.3050e-01	-13.5718	-95.342451	0.000071	0.707339	0.239653	0.005646
1663	8.3100e-01	-13.5413	-95.100465	0.000606	6.062909	2.054169	0.048397
1664	8.3150e-01	-13.5044	-94.854446	0.000616	6.163958	2.088405	0.049204
1665	8.3200e-01	-13.4611	-94.604394	0.000627	6.265006	2.122642	0.050010
1666	8.3250e-01	-13.4130	-94.499533	0.000263	2.627261	0.890140	0.020972
1667	8.3300e-01	-13.3809	-94.289812	0.000525	5.254521	1.780280	0.041944
1668	8.3350e-01	-13.3360	-94.063959	0.000566	5.658715	1.917225	0.045171
1669	8.3400e-01	-13.3039	-93.963131	0.000253	2.526212	0.855904	0.020165
1670	8.3450e-01	-13.2590	-93.745344	0.000546	5.456618	1.848752	0.043557
1671	8.3500e-01	-13.2269	-93.471093	0.000687	6.871297	2.328058	0.054850
1672	8.3550e-01	-13.1659	-93.430762	0.000101	1.010485	0.342362	0.008066
1673	8.3600e-01	-13.1371	-93.297670	0.000333	3.334600	1.129793	0.026618
1674	8.3650e-01	-13.0986	-93.128280	0.000424	4.244036	1.437918	0.033878
1675	8.3700e-01	-13.0552	-92.749169	0.000950	9.498558	3.218198	0.075822
1676	8.3750e-01	-13.0232	-92.595911	0.000384	3.839842	1.300974	0.030652
1677	8.3800e-01	-12.9766	-92.487017	0.000273	2.728309	0.924376	0.021779
1678	8.3850e-01	-12.9430	-92.305528	0.000455	4.547182	1.540627	0.036298
1679	8.3900e-01	-12.8996	-91.986913	0.000798	7.982830	2.704656	0.063723
1680	8.3950e-01	-12.8627	-91.845754	0.000354	3.536697	1.198265	0.028232
1681	8.4000e-01	-12.8290	-91.752993	0.000232	2.324115	0.787432	0.018552
1682	8.4050e-01	-12.7777	-91.422279	0.000829	8.285976	2.807365	0.066143
1683	8.4100e-01	-12.7392	-91.184326	0.000596	5.961861	2.019933	0.047591
1684	8.4150e-01	-12.6975	-91.232723	-0.000121	-1.212582	-0.410834	-0.009679
1685	8.4200e-01	-12.6622	-91.043168	0.000475	4.749279	1.609099	0.037911
1686	8.4250e-01	-12.6189	-90.676156	0.000920	9.195412	3.115490	0.073402
1687	8.4300e-01	-12.5884	-90.627759	0.000121	1.212582	0.410834	0.009679
1688	8.4350e-01	-12.5467	-90.329309	0.000748	7.477588	2.533475	0.059690
1689	8.4400e-01	-12.5034	-90.087323	0.000606	6.062909	2.054169	0.048397
1690	8.4450e-01	-12.4553	-90.071191	0.000040	0.404194	0.136945	0.003226
1691	8.4500e-01	-12.4136	-89.869536	0.000505	5.052424	1.711808	0.040331
1692	8.4550e-01	-12.3751	-89.788874	0.000202	2.020970	0.684723	0.016132
1693	8.4600e-01	-12.3398	-89.522690	0.000667	6.669200	2.259586	0.053237
1694	8.4650e-01	-12.3045	-89.264571	0.000647	6.467103	2.191114	0.051624
1695	8.4700e-01	-12.2579	-89.002420	0.000657	6.568151	2.225350	0.052430
1696	8.4750e-01	-12.2178	-88.752368	0.000627	6.265006	2.122642	0.050010
1697	8.4800e-01	-12.1874	-88.627342	0.000313	3.132503	1.061321	0.025005
1698	8.4850e-01	-12.1360	-88.449885	0.000445	4.446133	1.506391	0.035491
1699	8.4900e-01	-12.1055	-88.332926	0.000293	2.930406	0.992848	0.023392
1700	8.4950e-01	-12.0526	-88.078840	0.000637	6.366055	2.156878	0.050817
1701	8.5000e-01	-12.0269	-87.812656	0.000667	6.669200	2.259586	0.053237
1702	8.5050e-01	-11.9836	-87.615034	0.000495	4.951376	1.677572	0.039524
1703	8.5100e-01	-11.9339	-87.469842	0.000364	3.637745	1.232502	0.029038
1704	8.5150e-01	-11.9050	-87.288353	0.000455	4.547182	1.540627	0.036298
1705	8.5200e-01	-11.8537	-87.002003	0.000717	7.174442	2.430767	0.057270
1706	8.5250e-01	-11.8184	-86.804381	0.000495	4.951376	1.677572	0.039524
1707	8.5300e-01	-11.7799	-86.760017	0.000111	1.111533	0.376598	0.008873
1708	8.5350e-01	-11.7318	-86.526097	0.000586	5.860812	1.985697	0.046784
1709	8.5400e-01	-11.6965	-86.280078	0.000616	6.163958	2.088405	0.049204
1710	8.5450e-01	-11.6612	-86.155052	0.000313	3.132503	1.061321	0.025005
1711	8.5500e-01	-11.6323	-85.985662	0.000424	4.244036	1.437918	0.033878
1712	8.5550e-01	-11.5794	-85.707378	0.000697	6.972345	2.362295	0.055657
1713	8.5600e-01	-11.5392	-85.554121	0.000384	3.839842	1.300974	0.030652
1714	8.5650e-01	-11.5056	-85.332300	0.000556	5.557667	1.882988	0.044364
1715	8.5700e-01	-11.4622	-85.126612	0.000515	5.153473	1.746044	0.041138
1716	8.5750e-01	-11.4157	-84.973354	0.000384	3.839842	1.300974	0.030652
1717	8.5800e-01	-11.3884	-84.840262	0.000333	3.334600	1.129793	0.026618
1718	8.5850e-01	-11.3483	-84.505515	0.000839	8.387024	2.841601	0.066949
1719	8.5900e-01	-11.2858	-84.328059	0.000445	4.446133	1.506391	0.035491
1720	8.5950e-01	-11.2585	-84.142536	0.000465	4.648230	1.574863	0.037105
1721	8.6000e-01	-11.2312	-83.908616	0.000586	5.860812	1.985697	0.046784
1722	8.6050e-01	-11.1863	-83.783590	0.000313	3.132503	1.061321	0.025005
1723	8.6100e-01	-11.1446	-83.509340	0.000687	6.871297	2.328058	0.054850
1724	8.6150e-01	-11.1029	-83.376247	0.000333	3.334600	1.129793	0.026618
1725	8.6200e-01	-11.0596	-83.101997	0.000687	6.871297	2.328058	0.054850
1726	8.6250e-01	-11.0147	-82.783382	0.000798	7.982830	2.704656	0.063723
1727	8.6300e-01	-10.9826	-82.759183	0.000061	0.606291	0.205417	0.004840
1728	8.6350e-01	-10.9425	-82.497032	0.000657	6.568151	2.225350	0.052430
1729	8.6400e-01	-10.9040	-82.315542	0.000455	4.547182	1.540627	0.036298
1730	8.6450e-01	-10.8687	-82.017093	0.000748	7.477588	2.533475	0.059690
1731	8.6500e-01	-10.8286	-81.956597	0.000152	1.515727	0.513542	0.012099
1732	8.6550e-01	-10.7837	-81.686379	0.000677	6.770248	2.293822	0.054044
1733	8.6600e-01	-10.7403	-81.529088	0.000394	3.940891	1.335210	0.031458
1734	8.6650e-01	-10.7050	-81.174176	0.000889	8.892267	3.012781	0.070983
1735	8.6700e-01	-10.6617	-81.125778	0.000121	1.212582	0.410834	0.009679
1736	8.6750e-01	-10.6120	-80.968488	0.000394	3.940891	1.335210	0.031458
1737	8.6800e-01	-10.5895	-80.690204	0.000697	6.972345	2.362295	0.055657
1738	8.6850e-01	-10.5382	-80.528880	0.000404	4.041939	1.369446	0.032265
1739	8.6900e-01	-10.5013	-80.407887	0.000303	3.031455	1.027085	0.024199
1740	8.6950e-01	-10.4580	-80.121537	0.000717	7.174442	2.430767	0.057270
1741	8.7000e-01	-10.4211	-79.823088	0.000748	7.477588	2.533475	0.059690
1742	8.7050e-01	-10.3826	-79.673863	0.000374	3.738794	1.266738	0.029845
1743	8.7100e-01	-10.3393	-79.472208	0.000505	5.052424	1.711808	0.040331
1744	8.7150e-01	-10.3008	-79.193924	0.000697	6.972345	2.362295	0.055657
1745	8.7200e-01	-10.2591	-78.879342	0.000788	7.881782	2.670420	0.062916
1746	8.7250e-01	-10.2142	-78.810780	0.000172	1.717824	0.582015	0.013713
1747	8.7300e-01	-10.1837	-78.830945	-0.000051	-0.505242	-0.171181	-0.004033
1748	8.7350e-01	-10.1371	-78.536529	0.000738	7.376539	2.499239	0.058883
1749	8.7400e-01	-10.1019	-78.338907	0.000495	4.951376	1.677572	0.039524
1750	8.7450e-01	-10.0634	-78.117087	0.000556	5.557667	1.882988	0.044364
1751	8.7500e-01	-10.0249	-77.895266	0.000556	5.557667	1.882988	0.044364
1752	8.7550e-01	-9.9896	-77.705711	0.000475	4.749279	1.609099	0.037911
1753	8.7600e-01	-9.9414	-77.447592	0.000647	6.467103	2.191114	0.051624
1754	8.7650e-01	-9.8997	-77.391129	0.000141	1.414679	0.479306	0.011293
1755	8.7700e-01	-9.8708	-77.088647	0.000758	7.578636	2.567711	0.060496
1756	8.7750e-01	-9.8259	-76.814396	0.000687	6.871297	2.328058	0.054850
1757	8.7800e-01	-9.7874	-76.645006	0.000424	4.244036	1.437918	0.033878
1758	8.7850e-01	-9.7313	-76.487715	0.000394	3.940891	1.335210	0.031458
1759	8.7900e-01	-9.7104	-76.197332	0.000728	7.275491	2.465003	0.058077
1760	8.7950e-01	-9.6655	-75.975511	0.000556	5.557667	1.882988	0.044364
1761	8.8000e-01	-9.6126	-75.717393	0.000647	6.467103	2.191114	0.051624
1762	8.8050e-01	-9.5789	-75.600433	0.000293	2.930406	0.992848	0.023392
1763	8.8100e-01	-9.5404	-75.342315	0.000647	6.467103	2.191114	0.051624
1764	8.8150e-01	-9.5019	-75.209223	0.000333	3.334600	1.129793	0.026618
1765	8.8200e-01	-9.4602	-74.902707	0.000768	7.679685	2.601948	0.061303
1766	8.8250e-01	-9.4185	-74.870442	0.000081	0.808388	0.273889	0.006453
1767	8.8300e-01	-9.3783	-74.616357	0.000637	6.366055	2.156878	0.050817
1768	8.8350e-01	-9.3414	-74.237246	0.000950	9.498558	3.218198	0.075822
1769	8.8400e-01	-9.2981	-74.071889	0.000414	4.142988	1.403682	0.033071
1770	8.8450e-01	-9.2548	-73.914598	0.000394	3.940891	1.335210	0.031458
1771	8.8500e-01	-9.2259	-73.652447	0.000657	6.568151	2.225350	0.052430
1772	8.8550e-01	-9.1826	-73.515321	0.000344	3.435648	1.164029	0.027425
1773	8.8600e-01	-9.1361	-73.253170	0.000657	6.568151	2.225350	0.052430
1774	8.8650e-01	-9.0960	-72.974886	0.000697	6.972345	2.362295	0.055657
1775	8.8700e-01	-9.0607	-72.757099	0.000546	5.456618	1.848752	0.043557
1776	8.8750e-01	-9.0174	-72.648205	0.000273	2.728309	0.924376	0.021779
1777	8.8800e-01	-8.9869	-72.418319	0.000576	5.759764	1.951461	0.045977
1778	8.8850e-01	-8.9324	-72.256995	0.000404	4.041939	1.369446	0.032265
1779	8.8900e-01	-8.9019	-71.906115	0.000879	8.791218	2.978545	0.070176
1780	8.8950e-01	-8.8650	-71.797221	0.000273	2.728309	0.924376	0.021779
1781	8.9000e-01	-8.8137	-71.643964	0.000384	3.839842	1.300974	0.030652
1782	8.9050e-01	-8.7752	-71.361647	0.000707	7.073394	2.396531	0.056463
1783	8.9100e-01	-8.7431	-71.264852	0.000243	2.425164	0.821668	0.019359
1784	8.9150e-01	-8.6933	-71.014800	0.000627	6.265006	2.122642	0.050010
1785	8.9200e-01	-8.6564	-70.700218	0.000788	7.881782	2.670420	0.062916
1786	8.9250e-01	-8.6147	-70.530828	0.000424	4.244036	1.437918	0.033878
1787	8.9300e-01	-8.5794	-70.296909	0.000586	5.860812	1.985697	0.046784
1788	8.9350e-01	-8.5377	-70.091221	0.000515	5.153473	1.746044	0.041138
1789	8.9400e-01	-8.5040	-69.825036	0.000667	6.669200	2.259586	0.053237
1790	8.9450e-01	-8.4623	-69.700010	0.000313	3.132503	1.061321	0.025005
1791	8.9500e-01	-8.4158	-69.308799	0.000980	9.801703	3.320907	0.078242
1792	8.9550e-01	-8.3821	-69.187807	0.000303	3.031455	1.027085	0.024199
1793	8.9600e-01	-8.3324	-68.970019	0.000546	5.456618	1.848752	0.043557
1794	8.9650e-01	-8.3067	-68.647371	0.000808	8.083879	2.738892	0.064530
1795	8.9700e-01	-8.2618	-68.490080	0.000394	3.940891	1.335210	0.031458
1796	8.9750e-01	-8.2217	-68.401352	0.000222	2.223067	0.753195	0.017746
1797	8.9800e-01	-8.1768	-68.110969	0.000728	7.275491	2.465003	0.058077
1798	8.9850e-01	-8.1383	-67.828652	0.000707	7.073394	2.396531	0.056463
1799	8.9900e-01	-8.0934	-67.671361	0.000394	3.940891	1.335210	0.031458
1800	8.9950e-01	-8.0549	-67.372912	0.000748	7.477588	2.533475	0.059690
1801	9.0000e-01	-8.0164	-67.118827	0.000637	6.366055	2.156878	0.050817
1802	9.0050e-01	-7.9762	-66.933304	0.000465	4.648230	1.574863	0.037105
1803	9.0100e-01	-7.9474	-66.743749	0.000475	4.749279	1.609099	0.037911
1804	9.0150e-01	-7.9041	-66.667120	0.000192	1.919921	0.650487	0.015326
1805	9.0200e-01	-7.8591	-66.328340	0.000849	8.488073	2.875837	0.067756
1806	9.0250e-01	-7.8174	-66.098453	0.000576	5.759764	1.951461	0.045977
1807	9.0300e-01	-7.7773	-65.929063	0.000424	4.244036	1.437918	0.033878
1808	9.0350e-01	-7.7420	-65.735474	0.000485	4.850327	1.643335	0.038718
1809	9.0400e-01	-7.6939	-65.485422	0.000627	6.265006	2.122642	0.050010
1810	9.0450e-01	-7.6634	-65.231337	0.000637	6.366055	2.156878	0.050817
1811	9.0500e-01	-7.6185	-64.944987	0.000717	7.174442	2.430767	0.057270
1812	9.0550e-01	-7.5864	-64.751398	0.000485	4.850327	1.643335	0.038718
1813	9.0600e-01	-7.5399	-64.513445	0.000596	5.961861	2.019933	0.047591
1814	9.0650e-01	-7.5014	-64.299691	0.000536	5.355570	1.814516	0.042751
1815	9.0700e-01	-7.4549	-64.110135	0.000475	4.749279	1.609099	0.037911
1816	9.0750e-01	-7.4164	-63.799587	0.000778	7.780733	2.636184	0.062110
1817	9.0800e-01	-7.3843	-63.561634	0.000596	5.961861	2.019933	0.047591
1818	9.0850e-01	-7.3378	-63.351913	0.000525	5.254521	1.780280	0.041944
1819	9.0900e-01	-7.2993	-63.109927	0.000606	6.062909	2.054169	0.048397
1820	9.0950e-01	-7.2624	-63.033298	0.000192	1.919921	0.650487	0.015326
1821	9.1000e-01	-7.2239	-62.585624	0.001122	11.216382	3.800213	0.089535
1822	9.1050e-01	-7.1773	-62.440433	0.000364	3.637745	1.232502	0.029038
1823	9.1100e-01	-7.1340	-62.242811	0.000495	4.951376	1.677572	0.039524
1824	9.1150e-01	-7.0971	-62.045189	0.000495	4.951376	1.677572	0.039524
1825	9.1200e-01	-7.0666	-61.791104	0.000637	6.366055	2.156878	0.050817
1826	9.1250e-01	-7.0201	-61.573316	0.000546	5.456618	1.848752	0.043557
1827	9.1300e-01	-6.9929	-61.278900	0.000738	7.376539	2.499239	0.058883
1828	9.1350e-01	-6.9287	-61.028848	0.000627	6.265006	2.122642	0.050010
1829	9.1400e-01	-6.9046	-60.923987	0.000263	2.627261	0.890140	0.020972
1830	9.1450e-01	-6.8581	-60.597306	0.000818	8.184927	2.773128	0.065336
1831	9.1500e-01	-6.8196	-60.395652	0.000505	5.052424	1.711808	0.040331
1832	9.1550e-01	-6.7891	-60.169798	0.000566	5.658715	1.917225	0.045171
1833	9.1600e-01	-6.7378	-59.984276	0.000465	4.648230	1.574863	0.037105
1834	9.1650e-01	-6.6929	-59.746323	0.000596	5.961861	2.019933	0.047591
1835	9.1700e-01	-6.6544	-59.580966	0.000414	4.142988	1.403682	0.033071
1836	9.1750e-01	-6.6175	-59.242185	0.000849	8.488073	2.875837	0.067756
1837	9.1800e-01	-6.5822	-59.173623	0.000172	1.717824	0.582015	0.013713
1838	9.1850e-01	-6.5437	-58.802578	0.000930	9.296461	3.149726	0.074209
1839	9.1900e-01	-6.4987	-58.536393	0.000667	6.669200	2.259586	0.053237
1840	9.1950e-01	-6.4554	-58.246010	0.000728	7.275491	2.465003	0.058077
1841	9.2000e-01	-6.4201	-57.995958	0.000627	6.265006	2.122642	0.050010
1842	9.2050e-01	-6.3800	-57.923362	0.000182	1.818873	0.616251	0.014519
1843	9.2100e-01	-6.3447	-57.616847	0.000768	7.679685	2.601948	0.061303
1844	9.2150e-01	-6.2982	-57.455523	0.000404	4.041939	1.369446	0.032265
1845	9.2200e-01	-6.2661	-57.161106	0.000738	7.376539	2.499239	0.058883
1846	9.2250e-01	-6.2180	-56.999783	0.000404	4.041939	1.369446	0.032265
1847	9.2300e-01	-6.1779	-56.757797	0.000606	6.062909	2.054169	0.048397
1848	9.2350e-01	-6.1330	-56.584373	0.000435	4.345085	1.472155	0.034685
1849	9.2400e-01	-6.1009	-56.318189	0.000667	6.669200	2.259586	0.053237
1850	9.2450e-01	-6.0688	-56.039905	0.000697	6.972345	2.362295	0.055657
1851	9.2500e-01	-6.0111	-55.810018	0.000576	5.759764	1.951461	0.045977
1852	9.2550e-01	-5.9838	-55.576099	0.000586	5.860812	1.985697	0.046784
1853	9.2600e-01	-5.9437	-55.277649	0.000748	7.477588	2.533475	0.059690
1854	9.2650e-01	-5.8972	-55.096160	0.000455	4.547182	1.540627	0.036298
1855	9.2700e-01	-5.8651	-54.838042	0.000647	6.467103	2.191114	0.051624
1856	9.2750e-01	-5.8169	-54.664618	0.000435	4.345085	1.472155	0.034685
1857	9.2800e-01	-5.7833	-54.539592	0.000313	3.132503	1.061321	0.025005
1858	9.2850e-01	-5.7415	-54.237110	0.000758	7.578636	2.567711	0.060496
1859	9.2900e-01	-5.6998	-53.995124	0.000606	6.062909	2.054169	0.048397
1860	9.2950e-01	-5.6613	-53.632145	0.000909	9.094364	3.081254	0.072596
1861	9.3000e-01	-5.6309	-53.365961	0.000667	6.669200	2.259586	0.053237
1862	9.3050e-01	-5.5859	-53.216736	0.000374	3.738794	1.266738	0.029845
1863	9.3100e-01	-5.5458	-53.128008	0.000222	2.223067	0.753195	0.017746
1864	9.3150e-01	-5.5025	-52.837625	0.000728	7.275491	2.465003	0.058077
1865	9.3200e-01	-5.4640	-52.527076	0.000778	7.780733	2.636184	0.062110
1866	9.3250e-01	-5.4271	-52.293156	0.000586	5.860812	1.985697	0.046784
1867	9.3300e-01	-5.3806	-52.047137	0.000616	6.163958	2.088405	0.049204
1868	9.3350e-01	-5.3357	-51.857582	0.000475	4.749279	1.609099	0.037911
1869	9.3400e-01	-5.2988	-51.555099	0.000758	7.578636	2.567711	0.060496
1870	9.3450e-01	-5.2507	-51.305047	0.000627	6.265006	2.122642	0.050010
1871	9.3500e-01	-5.2186	-50.998532	0.000768	7.679685	2.601948	0.061303
1872	9.3550e-01	-5.1769	-50.808976	0.000475	4.749279	1.609099	0.037911
1873	9.3600e-01	-5.1400	-50.615387	0.000485	4.850327	1.643335	0.038718
1874	9.3650e-01	-5.1095	-50.304839	0.000778	7.780733	2.636184	0.062110
1875	9.3700e-01	-5.0581	-50.159647	0.000364	3.637745	1.232502	0.029038
1876	9.3750e-01	-5.0132	-49.978158	0.000455	4.547182	1.540627	0.036298
1877	9.3800e-01	-4.9844	-49.724073	0.000637	6.366055	2.156878	0.050817
1878	9.3850e-01	-4.9394	-49.361094	0.000909	9.094364	3.081254	0.072596
1879	9.3900e-01	-4.8993	-49.062644	0.000748	7.477588	2.533475	0.059690
1880	9.3950e-01	-4.8672	-48.949718	0.000283	2.829358	0.958612	0.022585
1881	9.4000e-01	-4.8207	-48.683533	0.000667	6.669200	2.259586	0.053237
1882	9.4050e-01	-4.7806	-48.453647	0.000576	5.759764	1.951461	0.045977
1883	9.4100e-01	-4.7357	-48.316521	0.000344	3.435648	1.164029	0.027425
1884	9.4150e-01	-4.6940	-48.014039	0.000758	7.578636	2.567711	0.060496
1885	9.4200e-01	-4.6619	-47.751887	0.000657	6.568151	2.225350	0.052430
1886	9.4250e-01	-4.6282	-47.388909	0.000909	9.094364	3.081254	0.072596
1887	9.4300e-01	-4.5865	-47.074327	0.000788	7.881782	2.670420	0.062916
1888	9.4350e-01	-4.5560	-46.965433	0.000273	2.728309	0.924376	0.021779
1889	9.4400e-01	-4.4999	-46.800076	0.000414	4.142988	1.403682	0.033071
1890	9.4450e-01	-4.4614	-46.493561	0.000768	7.679685	2.601948	0.061303
1891	9.4500e-01	-4.4293	-46.324171	0.000424	4.244036	1.437918	0.033878
1892	9.4550e-01	-4.3860	-45.949092	0.000940	9.397509	3.183962	0.075016
1893	9.4600e-01	-4.3459	-45.707106	0.000606	6.062909	2.054169	0.048397
1894	9.4650e-01	-4.2961	-45.448988	0.000647	6.467103	2.191114	0.051624
1895	9.4700e-01	-4.2576	-45.231201	0.000546	5.456618	1.848752	0.043557
1896	9.4750e-01	-4.2175	-45.106175	0.000313	3.132503	1.061321	0.025005
1897	9.4800e-01	-4.1919	-44.755295	0.000879	8.791218	2.978545	0.070176
1898	9.4850e-01	-4.1421	-44.497177	0.000647	6.467103	2.191114	0.051624
1899	9.4900e-01	-4.0956	-44.182595	0.000788	7.881782	2.670420	0.062916
1900	9.4950e-01	-4.0587	-43.916411	0.000667	6.669200	2.259586	0.053237
1901	9.5000e-01	-4.0218	-43.646193	0.000677	6.770248	2.293822	0.054044
1902	9.5050e-01	-3.9817	-43.436472	0.000525	5.254521	1.780280	0.041944
1903	9.5100e-01	-3.9400	-43.238850	0.000495	4.951376	1.677572	0.039524
1904	9.5150e-01	-3.9015	-43.012997	0.000566	5.658715	1.917225	0.045171
1905	9.5200e-01	-3.8678	-42.746812	0.000667	6.669200	2.259586	0.053237
1906	9.5250e-01	-3.8181	-42.484661	0.000657	6.568151	2.225350	0.052430
1907	9.5300e-01	-3.7812	-42.218476	0.000667	6.669200	2.259586	0.053237
1908	9.5350e-01	-3.7363	-41.968424	0.000627	6.265006	2.122642	0.050010
1909	9.5400e-01	-3.6994	-41.754670	0.000536	5.355570	1.814516	0.042751
1910	9.5450e-01	-3.6609	-41.432022	0.000808	8.083879	2.738892	0.064530
1911	9.5500e-01	-3.6352	-41.181970	0.000627	6.265006	2.122642	0.050010
1912	9.5550e-01	-3.5823	-40.976282	0.000515	5.153473	1.746044	0.041138
1913	9.5600e-01	-3.5341	-40.818991	0.000394	3.940891	1.335210	0.031458
1914	9.5650e-01	-3.4972	-40.512475	0.000768	7.679685	2.601948	0.061303
1915	9.5700e-01	-3.4587	-40.322920	0.000475	4.749279	1.609099	0.037911
1916	9.5750e-01	-3.4234	-39.911544	0.001031	10.306945	3.492088	0.082275
1917	9.5800e-01	-3.3865	-39.588896	0.000808	8.083879	2.738892	0.064530
1918	9.5850e-01	-3.3400	-39.423539	0.000414	4.142988	1.403682	0.033071
1919	9.5900e-01	-3.2999	-39.209785	0.000536	5.355570	1.814516	0.042751
1920	9.5950e-01	-3.2630	-38.943600	0.000667	6.669200	2.259586	0.053237
1921	9.6000e-01	-3.2245	-38.616919	0.000818	8.184927	2.773128	0.065336
1922	9.6050e-01	-3.1780	-38.374933	0.000606	6.062909	2.054169	0.048397
1923	9.6100e-01	-3.1507	-38.177311	0.000495	4.951376	1.677572	0.039524
1924	9.6150e-01	-3.0994	-37.854663	0.000808	8.083879	2.738892	0.064530
1925	9.6200e-01	-3.0641	-37.612678	0.000606	6.062909	2.054169	0.048397
1926	9.6250e-01	-3.0160	-37.459420	0.000384	3.839842	1.300974	0.030652
1927	9.6300e-01	-2.9759	-37.128706	0.000829	8.285976	2.807365	0.066143
1928	9.6350e-01	-2.9454	-36.931084	0.000495	4.951376	1.677572	0.039524
1929	9.6400e-01	-2.8972	-36.729429	0.000505	5.052424	1.711808	0.040331
1930	9.6450e-01	-2.8620	-36.451145	0.000697	6.972345	2.362295	0.055657
1931	9.6500e-01	-2.8186	-36.088166	0.000909	9.094364	3.081254	0.072596
1932	9.6550e-01	-2.7833	-35.987339	0.000253	2.526212	0.855904	0.020165
1933	9.6600e-01	-2.7432	-35.608228	0.000950	9.498558	3.218198	0.075822
1934	9.6650e-01	-2.7047	-35.487235	0.000303	3.031455	1.027085	0.024199
1935	9.6700e-01	-2.6646	-35.281547	0.000515	5.153473	1.746044	0.041138
1936	9.6750e-01	-2.6197	-34.970998	0.000778	7.780733	2.636184	0.062110
1937	9.6800e-01	-2.5748	-34.668516	0.000758	7.578636	2.567711	0.060496
1938	9.6850e-01	-2.5395	-34.289404	0.000950	9.498558	3.218198	0.075822
1939	9.6900e-01	-2.5026	-34.031286	0.000647	6.467103	2.191114	0.051624
1940	9.6950e-01	-2.4513	-33.886094	0.000364	3.637745	1.232502	0.029038
1941	9.7000e-01	-2.4224	-33.583612	0.000758	7.578636	2.567711	0.060496
1942	9.7050e-01	-2.3839	-33.398090	0.000465	4.648230	1.574863	0.037105
1943	9.7100e-01	-2.3374	-32.994780	0.001010	10.104848	3.423615	0.080662
1944	9.7150e-01	-2.2973	-32.756827	0.000596	5.961861	2.019933	0.047591
1945	9.7200e-01	-2.2668	-32.401914	0.000889	8.892267	3.012781	0.070983
1946	9.7250e-01	-2.2203	-32.212359	0.000475	4.749279	1.609099	0.037911
1947	9.7300e-01	-2.1818	-31.990538	0.000556	5.557667	1.882988	0.044364
1948	9.7350e-01	-2.1465	-31.663857	0.000818	8.184927	2.773128	0.065336
1949	9.7400e-01	-2.1031	-31.482368	0.000455	4.547182	1.540627	0.036298
1950	9.7450e-01	-2.0598	-31.147621	0.000839	8.387024	2.841601	0.066949
1951	9.7500e-01	-2.0181	-30.816906	0.000829	8.285976	2.807365	0.066143
1952	9.7550e-01	-1.9844	-30.655582	0.000404	4.041939	1.369446	0.032265
1953	9.7600e-01	-1.9427	-30.345034	0.000778	7.780733	2.636184	0.062110
1954	9.7650e-01	-1.9010	-30.082882	0.000657	6.568151	2.225350	0.052430
1955	9.7700e-01	-1.8641	-29.901393	0.000455	4.547182	1.540627	0.036298
1956	9.7750e-01	-1.8240	-29.631175	0.000677	6.770248	2.293822	0.054044
1957	9.7800e-01	-1.7855	-29.364991	0.000667	6.669200	2.259586	0.053237
1958	9.7850e-01	-1.7422	-29.252064	0.000283	2.829358	0.958612	0.022585
1959	9.7900e-01	-1.7117	-28.852787	0.001000	10.003800	3.389379	0.079855
1960	9.7950e-01	-1.6700	-28.453511	0.001000	10.003800	3.389379	0.079855
1961	9.8000e-01	-1.6187	-28.255889	0.000495	4.951376	1.677572	0.039524
1962	9.8050e-01	-1.5882	-28.102631	0.000384	3.839842	1.300974	0.030652
1963	9.8100e-01	-1.5401	-27.767884	0.000839	8.387024	2.841601	0.066949
1964	9.8150e-01	-1.4951	-27.558163	0.000525	5.254521	1.780280	0.041944
1965	9.8200e-01	-1.4647	-27.187118	0.000930	9.296461	3.149726	0.074209
1966	9.8250e-01	-1.4181	-26.888668	0.000748	7.477588	2.533475	0.059690
1967	9.8300e-01	-1.3780	-26.735411	0.000384	3.839842	1.300974	0.030652
1968	9.8350e-01	-1.3540	-26.440994	0.000738	7.376539	2.499239	0.058883
1969	9.8400e-01	-1.2994	-26.243373	0.000495	4.951376	1.677572	0.039524
1970	9.8450e-01	-1.2545	-25.836030	0.001021	10.205897	3.457851	0.081469
1971	9.8500e-01	-1.2192	-25.698904	0.000344	3.435648	1.164029	0.027425
1972	9.8550e-01	-1.1839	-25.404488	0.000738	7.376539	2.499239	0.058883
1973	9.8600e-01	-1.1374	-25.106039	0.000748	7.477588	2.533475	0.059690
1974	9.8650e-01	-1.1069	-24.710795	0.000990	9.902751	3.355143	0.079049
1975	9.8700e-01	-1.0556	-24.493008	0.000546	5.456618	1.848752	0.043557
1976	9.8750e-01	-1.0203	-24.214724	0.000697	6.972345	2.362295	0.055657
1977	9.8800e-01	-0.9818	-24.069532	0.000364	3.637745	1.232502	0.029038
1978	9.8850e-01	-0.9369	-23.734785	0.000839	8.387024	2.841601	0.066949
1979	9.8900e-01	-0.8952	-23.444402	0.000728	7.275491	2.465003	0.058077
1980	9.8950e-01	-0.8679	-23.174185	0.000677	6.770248	2.293822	0.054044
1981	9.9000e-01	-0.8278	-22.891868	0.000707	7.073394	2.396531	0.056463
1982	9.9050e-01	-0.7797	-22.637782	0.000637	6.366055	2.156878	0.050817
1983	9.9100e-01	-0.7412	-22.387730	0.000627	6.265006	2.122642	0.050010
1984	9.9150e-01	-0.6946	-22.145744	0.000606	6.062909	2.054169	0.048397
1985	9.9200e-01	-0.6593	-21.899725	0.000616	6.163958	2.088405	0.049204
1986	9.9250e-01	-0.6224	-21.782766	0.000293	2.930406	0.992848	0.023392
1987	9.9300e-01	-0.5823	-21.411720	0.000930	9.296461	3.149726	0.074209
1988	9.9350e-01	-0.5422	-21.068907	0.000859	8.589121	2.910073	0.068563
1989	9.9400e-01	-0.4989	-20.778524	0.000728	7.275491	2.465003	0.058077
1990	9.9450e-01	-0.4572	-20.564770	0.000536	5.355570	1.814516	0.042751
1991	9.9500e-01	-0.4203	-20.326817	0.000596	5.961861	2.019933	0.047591
1992	9.9550e-01	-0.3722	-19.883176	0.001112	11.115333	3.765977	0.088728
1993	9.9600e-01	-0.3465	-19.778316	0.000263	2.627261	0.890140	0.020972
1994	9.9650e-01	-0.2968	-19.467767	0.000778	7.780733	2.636184	0.062110
1995	9.9700e-01	-0.2663	-19.221748	0.000616	6.163958	2.088405	0.049204
1996	9.9750e-01	-0.2246	-18.975729	0.000616	6.163958	2.088405	0.049204
1997	9.9800e-01	-0.1845	-18.632916	0.000859	8.589121	2.910073	0.068563
1998	9.9850e-01	-0.1364	-18.394963	0.000596	5.961861	2.019933	0.047591
1999	9.9900e-01	-0.1091	-18.144911	0.000627	6.265006	2.122642	0.050010
2000	9.9950e-01	-0.0626	-17.773866	0.000930	9.296461	3.149726	0.074209
2001	1.0000e+00	-0.0321	-17.390721	0.000930	9.296461	3.149726	0.076629

PMax (uC/cm2):	1.29e+02
Pr (uC/cm2):	7.03e+00
-Pr (uC/cm2):	-7.72e+00
PLoss (uC/cm2):	-7.69e+00
-Vc:	-1.03e+00
C (Max-Eff) (nF):	6.45e-01
K (Eff):	2.18e+03
Vert. (+/-Pr) Shift (uC/cm2):	-3.43e-01
Offset (uC/cm2):	9.68e+00

A (Loop Area - uC/cm2·Volts):	-1.81e-01



Hysteresis Version: 5.48.1 - Radiant Technologies, Inc., 1999 - 9/12/24

