»»»»»»»»»»»»»»»»»»»»»»»»»»»»»»»»»»»» Hysteresis ««««««««««««««««««««««««««««««««««««
»»»  Executed Version:	5.48.1
»»»  Vision Version:	5.48.4 (R)
»»»  Vision Compiled:	9/18/24
»»»  Driver Version:	5.47.0
»»»  Windows Version:	Windows 8 or 8.1
»»»  Processor Information:	x86 (AMD or Intel) - 32 Processors
»»»  Tester Name:	PMF21124-494 (100V)
»»»  Tester S/N:	PMF21124-494
»»»  Internal Amp Type:	100V RevK 270k
»»»  Internal Amp S/N:	iAB2-596/K     
»»»  Execution Count:	1
»»»»»»»»»»»»»»»»»»»»»»»»»»»»»»»»»»»»»»»»»»««««««««««««««««««««««««««««««««««««««««««

Stored:	6/18/2025 - 12:16:51
Configured:	06/18/25 09:47:30 AM
Executed:	06/18/25 12:16:22 PM

»»»»»»»»»»»»»»»»»»»»»»»»»»»»»»»»»»» Sample Info ««««««««««««««««««««««««««««««««««««
Sample Name:	
Lot Name:	
Wafer Name:	
Die Row/Column:	0/0
Capacitor Number:	0
Sample Area (cm2):	1.00e-04
Sample Thickness (microns):	3.00e-01

Amplifier:	Internal

»»»»»»»»»»»»»»»»»»»»»»»»»»»»»»»»»»» Tester Info «««««««««««««««««««««««««««««««««««
Tester Name:	PMF21124-494 (100V)
Tester Serial Number:	PMF21124-494
Return Signal Amp. Level:	0.19 [Index: 3]

»»»»»»»»»»»»»»»»»»»»»»»»»»»»»»»» Hysteresis Info ««««««««««««««««««««««««««««««««««
Task Name:	Hyst-554
Volts:	20.00
Field:	666.67 (kV/cm)
DCBias:	0.00
DCField:	0.00 (kV/cm)
Hysteresis Period (ms):	2.00e+02
Preset:	Enabled
Preset Delay (ms):	1.00e+03
Profile:	Standard Bipolar

»»»»»»»»»»»»»»»»»»»»»»»»»»»»»»»»»»»»»» Data «««««««««««««««««««««««««««««««««««««««
Points:	2009

Valid Data

Point	Time (ms)	Drive Voltage	Measured Polarization (uC/cm2)	Capacitance (uF)	Normalized Capacitance (uF/cm2)	Dielectric Constant	Instantaneous Current (mA)
   1	0.0000e+00	-0.0032	-12.672569	0.000476	4.764814	1.614363	0.000191
   2	9.9500e-02	0.0385	-12.482824	0.000476	4.764814	1.614363	0.000191
   3	1.9900e-01	0.0738	-12.244633	0.000598	5.981362	2.026540	0.000239
   4	2.9850e-01	0.1059	-11.966070	0.000700	6.995152	2.370022	0.000280
   5	3.9800e-01	0.1508	-11.707694	0.000649	6.488257	2.198281	0.000260
   6	4.9750e-01	0.1893	-11.437206	0.000679	6.792394	2.301325	0.000272
   7	5.9700e-01	0.2310	-11.211126	0.000568	5.677225	1.923496	0.000227
   8	6.9650e-01	0.2727	-10.928526	0.000710	7.096531	2.404370	0.000284
   9	7.9600e-01	0.3080	-10.686298	0.000608	6.082741	2.060888	0.000243
  10	8.9550e-01	0.3481	-10.431959	0.000639	6.386878	2.163933	0.000256
  11	9.9500e-01	0.3850	-10.161471	0.000679	6.792394	2.301325	0.000272
  12	1.0945e+00	0.4283	-9.923280	0.000598	5.981362	2.026540	0.000239
  13	1.1940e+00	0.4668	-9.620494	0.000760	7.603426	2.576111	0.000304
  14	1.2935e+00	0.5166	-9.354044	0.000669	6.691015	2.266977	0.000268
  15	1.3930e+00	0.5519	-9.123927	0.000578	5.778604	1.957844	0.000231
  16	1.4925e+00	0.5936	-8.841327	0.000710	7.096531	2.404370	0.000284
  17	1.5920e+00	0.6240	-8.562765	0.000700	6.995152	2.370022	0.000280
  18	1.6915e+00	0.6722	-8.296314	0.000669	6.691015	2.266977	0.000268
  19	1.7910e+00	0.7123	-8.054086	0.000608	6.082741	2.060888	0.000243
  20	1.8905e+00	0.7508	-7.787635	0.000669	6.691015	2.266977	0.000268
  21	1.9900e+00	0.7877	-7.545407	0.000608	6.082741	2.060888	0.000243
  22	2.0895e+00	0.8310	-7.266844	0.000700	6.995152	2.370022	0.000280
  23	2.1890e+00	0.8759	-6.972133	0.000740	7.400668	2.507414	0.000296
  24	2.2885e+00	0.9080	-6.733942	0.000598	5.981362	2.026540	0.000239
  25	2.3880e+00	0.9465	-6.451343	0.000710	7.096531	2.404370	0.000284
  26	2.4875e+00	0.9850	-6.164706	0.000720	7.197910	2.438718	0.000288
  27	2.5870e+00	1.0299	-5.930552	0.000588	5.879983	1.992192	0.000235
  28	2.6865e+00	1.0732	-5.615656	0.000791	7.907563	2.679155	0.000316
  29	2.7860e+00	1.1069	-5.365353	0.000629	6.285499	2.129585	0.000252
  30	2.8855e+00	1.1518	-5.082754	0.000710	7.096531	2.404370	0.000284
  31	2.9850e+00	1.2032	-4.792080	0.000730	7.299289	2.473066	0.000292
  32	3.0845e+00	1.2288	-4.525629	0.000669	6.691015	2.266977	0.000268
  33	3.1840e+00	1.2706	-4.287438	0.000598	5.981362	2.026540	0.000239
  34	3.2835e+00	1.3026	-4.025024	0.000659	6.589636	2.232629	0.000264
  35	3.3830e+00	1.3492	-3.746462	0.000700	6.995152	2.370022	0.000280
  36	3.4825e+00	1.3828	-3.480011	0.000669	6.691015	2.266977	0.000268
  37	3.5820e+00	1.4310	-3.185300	0.000740	7.400668	2.507414	0.000296
  38	3.6815e+00	1.4679	-2.963258	0.000558	5.575846	1.889148	0.000223
  39	3.7810e+00	1.5032	-2.640287	0.000811	8.110321	2.747851	0.000325
  40	3.8805e+00	1.5417	-2.406133	0.000588	5.879983	1.992192	0.000235
  41	3.9800e+00	1.5818	-2.131608	0.000689	6.893773	2.335674	0.000276
  42	4.0795e+00	1.6283	-1.865157	0.000669	6.691015	2.266977	0.000268
  43	4.1790e+00	1.6684	-1.550260	0.000791	7.907563	2.679155	0.000316
  44	4.2785e+00	1.7037	-1.308032	0.000608	6.082741	2.060888	0.000243
  45	4.3780e+00	1.7486	-1.053692	0.000639	6.386878	2.163933	0.000256
  46	4.4775e+00	1.7887	-0.779167	0.000689	6.893773	2.335674	0.000276
  47	4.5770e+00	1.8320	-0.504642	0.000689	6.893773	2.335674	0.000276
  48	4.6765e+00	1.8721	-0.185708	0.000801	8.008942	2.713503	0.000321
  49	4.7760e+00	1.9042	0.060557	0.000618	6.184120	2.095237	0.000248
  50	4.8755e+00	1.9507	0.331045	0.000679	6.792394	2.301325	0.000272
  51	4.9750e+00	2.0005	0.601533	0.000679	6.792394	2.301325	0.000272
  52	5.0745e+00	2.0278	0.896244	0.000740	7.400668	2.507414	0.000296
  53	5.1740e+00	2.0695	1.199029	0.000760	7.603426	2.576111	0.000304
  54	5.2735e+00	2.1064	1.388775	0.000476	4.764814	1.614363	0.000191
  55	5.3730e+00	2.1481	1.744043	0.000892	8.921353	3.022636	0.000357
  56	5.4725e+00	2.1866	1.978197	0.000588	5.879983	1.992192	0.000235
  57	5.5720e+00	2.2203	2.256759	0.000700	6.995152	2.370022	0.000280
  58	5.6715e+00	2.2652	2.535321	0.000700	6.995152	2.370022	0.000280
  59	5.7710e+00	2.3037	2.777549	0.000608	6.082741	2.060888	0.000243
  60	5.8705e+00	2.3438	3.084372	0.000770	7.704805	2.610459	0.000308
  61	5.9700e+00	2.3791	3.338711	0.000639	6.386878	2.163933	0.000256
  62	6.0695e+00	2.4208	3.657645	0.000801	8.008942	2.713503	0.000321
  63	6.1690e+00	2.4673	3.903910	0.000618	6.184120	2.095237	0.000248
  64	6.2685e+00	2.5058	4.182473	0.000700	6.995152	2.370022	0.000280
  65	6.3680e+00	2.5395	4.473146	0.000730	7.299289	2.473066	0.000292
  66	6.4675e+00	2.5940	4.719412	0.000618	6.184120	2.095237	0.000248
  67	6.5670e+00	2.6245	5.050457	0.000831	8.313079	2.816548	0.000333
  68	6.6665e+00	2.6646	5.296722	0.000618	6.184120	2.095237	0.000248
  69	6.7660e+00	2.7063	5.563173	0.000669	6.691015	2.266977	0.000268
  70	6.8655e+00	2.7497	5.886144	0.000811	8.110321	2.747851	0.000325
  71	6.9650e+00	2.7866	6.156632	0.000679	6.792394	2.301325	0.000272
  72	7.0645e+00	2.8267	6.406934	0.000629	6.285499	2.129585	0.000252
  73	7.1640e+00	2.8571	6.746054	0.000852	8.515837	2.885244	0.000341
  74	7.2635e+00	2.9053	6.992319	0.000618	6.184120	2.095237	0.000248
  75	7.3630e+00	2.9486	7.311253	0.000801	8.008942	2.713503	0.000321
  76	7.4625e+00	2.9823	7.549444	0.000598	5.981362	2.026540	0.000239
  77	7.5620e+00	3.0208	7.876452	0.000821	8.211700	2.782199	0.000329
  78	7.6615e+00	3.0673	8.130791	0.000639	6.386878	2.163933	0.000256
  79	7.7610e+00	3.1042	8.405317	0.000689	6.893773	2.335674	0.000276
  80	7.8605e+00	3.1411	8.659656	0.000639	6.386878	2.163933	0.000256
  81	7.9600e+00	3.1796	8.978590	0.000801	8.008942	2.713503	0.000321
  82	8.0595e+00	3.2181	9.228892	0.000629	6.285499	2.129585	0.000252
  83	8.1590e+00	3.2678	9.515529	0.000720	7.197910	2.438718	0.000288
  84	8.2585e+00	3.2967	9.810240	0.000740	7.400668	2.507414	0.000296
  85	8.3580e+00	3.3368	10.100914	0.000730	7.299289	2.473066	0.000292
  86	8.4575e+00	3.3785	10.375439	0.000689	6.893773	2.335674	0.000276
  87	8.5570e+00	3.4154	10.645927	0.000679	6.792394	2.301325	0.000272
  88	8.6565e+00	3.4667	10.948712	0.000760	7.603426	2.576111	0.000304
  89	8.7560e+00	3.4940	11.203052	0.000639	6.386878	2.163933	0.000256
  90	8.8555e+00	3.5293	11.485651	0.000710	7.096531	2.404370	0.000284
  91	8.9550e+00	3.5790	11.824771	0.000852	8.515837	2.885244	0.000341
  92	9.0545e+00	3.6224	12.107370	0.000710	7.096531	2.404370	0.000284
  93	9.1540e+00	3.6609	12.345561	0.000598	5.981362	2.026540	0.000239
  94	9.2535e+00	3.7090	12.656421	0.000781	7.806184	2.644807	0.000312
  95	9.3530e+00	3.7330	12.918834	0.000659	6.589636	2.232629	0.000264
  96	9.4525e+00	3.7796	13.229694	0.000781	7.806184	2.644807	0.000312
  97	9.5520e+00	3.8181	13.532479	0.000760	7.603426	2.576111	0.000304
  98	9.6515e+00	3.8534	13.794893	0.000659	6.589636	2.232629	0.000264
  99	9.7510e+00	3.9015	14.069418	0.000689	6.893773	2.335674	0.000276
 100	9.8505e+00	3.9432	14.364129	0.000740	7.400668	2.507414	0.000296
 101	9.9500e+00	3.9801	14.654803	0.000730	7.299289	2.473066	0.000292
 102	1.0050e+01	4.0154	14.929328	0.000689	6.893773	2.335674	0.000276
 103	1.0149e+01	4.0555	15.220002	0.000730	7.299289	2.473066	0.000292
 104	1.0248e+01	4.1036	15.510676	0.000730	7.299289	2.473066	0.000292
 105	1.0348e+01	4.1325	15.801349	0.000730	7.299289	2.473066	0.000292
 106	1.0447e+01	4.1646	16.100097	0.000750	7.502047	2.541762	0.000300
 107	1.0547e+01	4.2159	16.350400	0.000629	6.285499	2.129585	0.000252
 108	1.0646e+01	4.2608	16.653185	0.000760	7.603426	2.576111	0.000304
 109	1.0746e+01	4.2993	16.923673	0.000679	6.792394	2.301325	0.000272
 110	1.0845e+01	4.3394	17.226458	0.000760	7.603426	2.576111	0.000304
 111	1.0945e+01	4.3780	17.517132	0.000730	7.299289	2.473066	0.000292
 112	1.1044e+01	4.4197	17.832029	0.000791	7.907563	2.679155	0.000316
 113	1.1144e+01	4.4550	18.146925	0.000791	7.907563	2.679155	0.000316
 114	1.1243e+01	4.4999	18.360893	0.000537	5.373088	1.820451	0.000215
 115	1.1343e+01	4.5336	18.659641	0.000750	7.502047	2.541762	0.000300
 116	1.1443e+01	4.5737	18.986649	0.000821	8.211700	2.782199	0.000329
 117	1.1542e+01	4.6122	19.253100	0.000669	6.691015	2.266977	0.000268
 118	1.1642e+01	4.6555	19.547811	0.000740	7.400668	2.507414	0.000296
 119	1.1741e+01	4.6988	19.802151	0.000639	6.386878	2.163933	0.000256
 120	1.1841e+01	4.7357	20.100899	0.000750	7.502047	2.541762	0.000300
 121	1.1940e+01	4.7710	20.351201	0.000629	6.285499	2.129585	0.000252
 122	1.2040e+01	4.8063	20.710506	0.000902	9.022732	3.056984	0.000361
 123	1.2139e+01	4.8576	20.976957	0.000669	6.691015	2.266977	0.000268
 124	1.2239e+01	4.9057	21.251483	0.000689	6.893773	2.335674	0.000276
 125	1.2338e+01	4.9410	21.509859	0.000649	6.488257	2.198281	0.000260
 126	1.2438e+01	4.9699	21.824756	0.000791	7.907563	2.679155	0.000316
 127	1.2537e+01	5.0132	22.147727	0.000811	8.110321	2.747851	0.000325
 128	1.2636e+01	5.0565	22.422252	0.000689	6.893773	2.335674	0.000276
 129	1.2736e+01	5.0902	22.716963	0.000740	7.400668	2.507414	0.000296
 130	1.2835e+01	5.1335	22.975339	0.000649	6.488257	2.198281	0.000260
 131	1.2935e+01	5.1737	23.270050	0.000740	7.400668	2.507414	0.000296
 132	1.3034e+01	5.2105	23.572836	0.000760	7.603426	2.576111	0.000304
 133	1.3134e+01	5.2587	23.891769	0.000801	8.008942	2.713503	0.000321
 134	1.3233e+01	5.2940	24.129960	0.000598	5.981362	2.026540	0.000239
 135	1.3333e+01	5.3357	24.412560	0.000710	7.096531	2.404370	0.000284
 136	1.3432e+01	5.3742	24.715345	0.000760	7.603426	2.576111	0.000304
 137	1.3532e+01	5.4095	25.022167	0.000770	7.704805	2.610459	0.000308
 138	1.3632e+01	5.4464	25.345138	0.000811	8.110321	2.747851	0.000325
 139	1.3731e+01	5.4929	25.595441	0.000629	6.285499	2.129585	0.000252
 140	1.3831e+01	5.5346	25.894189	0.000750	7.502047	2.541762	0.000300
 141	1.3930e+01	5.5699	26.225234	0.000831	8.313079	2.816548	0.000333
 142	1.4030e+01	5.6116	26.467462	0.000608	6.082741	2.060888	0.000243
 143	1.4129e+01	5.6533	26.750061	0.000710	7.096531	2.404370	0.000284
 144	1.4229e+01	5.6886	27.020549	0.000679	6.792394	2.301325	0.000272
 145	1.4328e+01	5.7223	27.327372	0.000770	7.704805	2.610459	0.000308
 146	1.4428e+01	5.7656	27.609971	0.000710	7.096531	2.404370	0.000284
 147	1.4527e+01	5.8153	27.876422	0.000669	6.691015	2.266977	0.000268
 148	1.4627e+01	5.8442	28.142873	0.000669	6.691015	2.266977	0.000268
 149	1.4726e+01	5.8956	28.437584	0.000740	7.400668	2.507414	0.000296
 150	1.4825e+01	5.9292	28.736332	0.000750	7.502047	2.541762	0.000300
 151	1.4925e+01	5.9806	29.035080	0.000750	7.502047	2.541762	0.000300
 152	1.5024e+01	6.0127	29.301531	0.000669	6.691015	2.266977	0.000268
 153	1.5124e+01	6.0447	29.648725	0.000872	8.718595	2.953940	0.000349
 154	1.5223e+01	6.0929	29.894990	0.000618	6.184120	2.095237	0.000248
 155	1.5323e+01	6.1346	30.169515	0.000689	6.893773	2.335674	0.000276
 156	1.5422e+01	6.1667	30.431929	0.000659	6.589636	2.232629	0.000264
 157	1.5522e+01	6.2100	30.771049	0.000852	8.515837	2.885244	0.000341
 158	1.5621e+01	6.2549	31.045574	0.000689	6.893773	2.335674	0.000276
 159	1.5721e+01	6.2886	31.340285	0.000740	7.400668	2.507414	0.000296
 160	1.5820e+01	6.3255	31.594624	0.000639	6.386878	2.163933	0.000256
 161	1.5920e+01	6.3672	31.857038	0.000659	6.589636	2.232629	0.000264
 162	1.6020e+01	6.4153	32.188083	0.000831	8.313079	2.816548	0.000333
 163	1.6119e+01	6.4490	32.426274	0.000598	5.981362	2.026540	0.000239
 164	1.6218e+01	6.4811	32.704837	0.000700	6.995152	2.370022	0.000280
 165	1.6318e+01	6.5324	32.979362	0.000689	6.893773	2.335674	0.000276
 166	1.6418e+01	6.5709	33.298296	0.000801	8.008942	2.713503	0.000321
 167	1.6517e+01	6.6110	33.560709	0.000659	6.589636	2.232629	0.000264
 168	1.6616e+01	6.6479	33.863495	0.000760	7.603426	2.576111	0.000304
 169	1.6716e+01	6.6864	34.133983	0.000679	6.792394	2.301325	0.000272
 170	1.6816e+01	6.7249	34.392359	0.000649	6.488257	2.198281	0.000260
 171	1.6915e+01	6.7586	34.695145	0.000760	7.603426	2.576111	0.000304
 172	1.7015e+01	6.8084	35.010041	0.000791	7.907563	2.679155	0.000316
 173	1.7114e+01	6.8388	35.252269	0.000608	6.082741	2.060888	0.000243
 174	1.7213e+01	6.8902	35.530832	0.000700	6.995152	2.370022	0.000280
 175	1.7313e+01	6.9207	35.801320	0.000679	6.792394	2.301325	0.000272
 176	1.7413e+01	6.9672	36.096031	0.000740	7.400668	2.507414	0.000296
 177	1.7512e+01	7.0041	36.402853	0.000770	7.704805	2.610459	0.000308
 178	1.7611e+01	7.0426	36.649118	0.000618	6.184120	2.095237	0.000248
 179	1.7711e+01	7.0875	36.972089	0.000811	8.110321	2.747851	0.000325
 180	1.7811e+01	7.1292	37.258726	0.000720	7.197910	2.438718	0.000288
 181	1.7910e+01	7.1581	37.517102	0.000649	6.488257	2.198281	0.000260
 182	1.8009e+01	7.1998	37.783553	0.000669	6.691015	2.266977	0.000268
 183	1.8109e+01	7.2479	38.102487	0.000801	8.008942	2.713503	0.000321
 184	1.8209e+01	7.2784	38.364901	0.000659	6.589636	2.232629	0.000264
 185	1.8308e+01	7.3233	38.651538	0.000720	7.197910	2.438718	0.000288
 186	1.8407e+01	7.3714	38.942211	0.000730	7.299289	2.473066	0.000292
 187	1.8507e+01	7.4083	39.200588	0.000649	6.488257	2.198281	0.000260
 188	1.8607e+01	7.4404	39.479150	0.000700	6.995152	2.370022	0.000280
 189	1.8706e+01	7.4918	39.729453	0.000629	6.285499	2.129585	0.000252
 190	1.8805e+01	7.5206	40.052424	0.000811	8.110321	2.747851	0.000325
 191	1.8905e+01	7.5688	40.310800	0.000649	6.488257	2.198281	0.000260
 192	1.9005e+01	7.6025	40.581288	0.000679	6.792394	2.301325	0.000272
 193	1.9104e+01	7.6458	40.863888	0.000710	7.096531	2.404370	0.000284
 194	1.9203e+01	7.6763	41.138413	0.000689	6.893773	2.335674	0.000276
 195	1.9303e+01	7.7292	41.457347	0.000801	8.008942	2.713503	0.000321
 196	1.9402e+01	7.7661	41.723798	0.000669	6.691015	2.266977	0.000268
 197	1.9502e+01	7.8014	41.966026	0.000608	6.082741	2.060888	0.000243
 198	1.9602e+01	7.8463	42.236514	0.000679	6.792394	2.301325	0.000272
 199	1.9701e+01	7.8960	42.519114	0.000710	7.096531	2.404370	0.000284
 200	1.9800e+01	7.9185	42.785565	0.000669	6.691015	2.266977	0.000268
 201	1.9900e+01	7.9586	43.084313	0.000750	7.502047	2.541762	0.000300
 202	2.0000e+01	8.0083	43.370949	0.000720	7.197910	2.438718	0.000288
 203	2.0099e+01	8.0356	43.633363	0.000659	6.589636	2.232629	0.000264
 204	2.0198e+01	8.0725	43.883665	0.000629	6.285499	2.129585	0.000252
 205	2.0298e+01	8.1270	44.178376	0.000740	7.400668	2.507414	0.000296
 206	2.0398e+01	8.1591	44.444827	0.000669	6.691015	2.266977	0.000268
 207	2.0497e+01	8.2040	44.735501	0.000730	7.299289	2.473066	0.000292
 208	2.0596e+01	8.2458	45.030212	0.000740	7.400668	2.507414	0.000296
 209	2.0696e+01	8.2778	45.288589	0.000649	6.488257	2.198281	0.000260
 210	2.0796e+01	8.3212	45.587337	0.000750	7.502047	2.541762	0.000300
 211	2.0895e+01	8.3645	45.861862	0.000689	6.893773	2.335674	0.000276
 212	2.0994e+01	8.4062	46.124276	0.000659	6.589636	2.232629	0.000264
 213	2.1094e+01	8.4335	46.406875	0.000710	7.096531	2.404370	0.000284
 214	2.1194e+01	8.4848	46.709660	0.000760	7.603426	2.576111	0.000304
 215	2.1293e+01	8.5217	46.935740	0.000568	5.677225	1.923496	0.000227
 216	2.1392e+01	8.5666	47.210265	0.000689	6.893773	2.335674	0.000276
 217	2.1492e+01	8.6003	47.509013	0.000750	7.502047	2.541762	0.000300
 218	2.1591e+01	8.6420	47.747204	0.000598	5.981362	2.026540	0.000239
 219	2.1691e+01	8.6773	48.001544	0.000639	6.386878	2.163933	0.000256
 220	2.1791e+01	8.7126	48.304329	0.000760	7.603426	2.576111	0.000304
 221	2.1890e+01	8.7623	48.554632	0.000629	6.285499	2.129585	0.000252
 222	2.1989e+01	8.7960	48.893751	0.000852	8.515837	2.885244	0.000341
 223	2.2089e+01	8.8409	49.111756	0.000547	5.474467	1.854800	0.000219
 224	2.2189e+01	8.8810	49.446839	0.000841	8.414458	2.850896	0.000337
 225	2.2288e+01	8.9179	49.676955	0.000578	5.778604	1.957844	0.000231
 226	2.2387e+01	8.9612	49.947443	0.000679	6.792394	2.301325	0.000272
 227	2.2487e+01	8.9949	50.193709	0.000618	6.184120	2.095237	0.000248
 228	2.2587e+01	9.0447	50.504568	0.000781	7.806184	2.644807	0.000312
 229	2.2686e+01	9.0767	50.758908	0.000639	6.386878	2.163933	0.000256
 230	2.2785e+01	9.1169	51.009210	0.000629	6.285499	2.129585	0.000252
 231	2.2885e+01	9.1618	51.295847	0.000720	7.197910	2.438718	0.000288
 232	2.2985e+01	9.1874	51.554223	0.000649	6.488257	2.198281	0.000260
 233	2.3084e+01	9.2404	51.873157	0.000801	8.008942	2.713503	0.000321
 234	2.3183e+01	9.2773	52.111348	0.000598	5.981362	2.026540	0.000239
 235	2.3283e+01	9.3206	52.385873	0.000689	6.893773	2.335674	0.000276
 236	2.3383e+01	9.3527	52.644250	0.000649	6.488257	2.198281	0.000260
 237	2.3482e+01	9.3960	52.971258	0.000821	8.211700	2.782199	0.000329
 238	2.3581e+01	9.4345	53.217523	0.000618	6.184120	2.095237	0.000248
 239	2.3681e+01	9.4890	53.451677	0.000588	5.879983	1.992192	0.000235
 240	2.3780e+01	9.5195	53.730240	0.000700	6.995152	2.370022	0.000280
 241	2.3880e+01	9.5548	54.024950	0.000740	7.400668	2.507414	0.000296
 242	2.3980e+01	9.6045	54.283327	0.000649	6.488257	2.198281	0.000260
 243	2.4079e+01	9.6350	54.525555	0.000608	6.082741	2.060888	0.000243
 244	2.4178e+01	9.6864	54.816229	0.000730	7.299289	2.473066	0.000292
 245	2.4278e+01	9.7136	55.114977	0.000750	7.502047	2.541762	0.000300
 246	2.4378e+01	9.7569	55.377391	0.000659	6.589636	2.232629	0.000264
 247	2.4477e+01	9.7987	55.607508	0.000578	5.778604	1.957844	0.000231
 248	2.4576e+01	9.8323	55.926441	0.000801	8.008942	2.713503	0.000321
 249	2.4676e+01	9.8805	56.184818	0.000649	6.488257	2.198281	0.000260
 250	2.4776e+01	9.9142	56.479529	0.000740	7.400668	2.507414	0.000296
 251	2.4875e+01	9.9446	56.754054	0.000689	6.893773	2.335674	0.000276
 252	2.4974e+01	9.9912	56.996282	0.000608	6.082741	2.060888	0.000243
 253	2.5074e+01	10.0377	57.274845	0.000700	6.995152	2.370022	0.000280
 254	2.5174e+01	10.0730	57.521110	0.000618	6.184120	2.095237	0.000248
 255	2.5273e+01	10.1179	57.819858	0.000750	7.502047	2.541762	0.000300
 256	2.5372e+01	10.1452	58.102458	0.000710	7.096531	2.404370	0.000284
 257	2.5472e+01	10.1917	58.381020	0.000700	6.995152	2.370022	0.000280
 258	2.5572e+01	10.2286	58.651508	0.000679	6.792394	2.301325	0.000272
 259	2.5671e+01	10.2751	58.897773	0.000618	6.184120	2.095237	0.000248
 260	2.5770e+01	10.3072	59.192484	0.000740	7.400668	2.507414	0.000296
 261	2.5870e+01	10.3537	59.450861	0.000649	6.488257	2.198281	0.000260
 262	2.5970e+01	10.3986	59.749609	0.000750	7.502047	2.541762	0.000300
 263	2.6069e+01	10.4339	60.007986	0.000649	6.488257	2.198281	0.000260
 264	2.6169e+01	10.4788	60.270399	0.000659	6.589636	2.232629	0.000264
 265	2.6268e+01	10.5174	60.561073	0.000730	7.299289	2.473066	0.000292
 266	2.6367e+01	10.5526	60.835598	0.000689	6.893773	2.335674	0.000276
 267	2.6467e+01	10.5895	61.093975	0.000649	6.488257	2.198281	0.000260
 268	2.6567e+01	10.6264	61.364463	0.000679	6.792394	2.301325	0.000272
 269	2.6666e+01	10.6778	61.610728	0.000618	6.184120	2.095237	0.000248
 270	2.6765e+01	10.7018	61.869105	0.000649	6.488257	2.198281	0.000260
 271	2.6865e+01	10.7564	62.167853	0.000750	7.502047	2.541762	0.000300
 272	2.6965e+01	10.7997	62.426230	0.000649	6.488257	2.198281	0.000260
 273	2.7064e+01	10.8382	62.704792	0.000700	6.995152	2.370022	0.000280
 274	2.7163e+01	10.8767	62.999503	0.000740	7.400668	2.507414	0.000296
 275	2.7263e+01	10.9136	63.213471	0.000537	5.373088	1.820451	0.000215
 276	2.7363e+01	10.9521	63.552591	0.000852	8.515837	2.885244	0.000341
 277	2.7462e+01	10.9906	63.810967	0.000649	6.488257	2.198281	0.000260
 278	2.7561e+01	11.0291	64.033010	0.000558	5.575846	1.889148	0.000223
 279	2.7661e+01	11.0692	64.360018	0.000821	8.211700	2.782199	0.000329
 280	2.7761e+01	11.1093	64.573986	0.000537	5.373088	1.820451	0.000215
 281	2.7860e+01	11.1590	64.852548	0.000700	6.995152	2.370022	0.000280
 282	2.7959e+01	11.1943	65.143222	0.000730	7.299289	2.473066	0.000292
 283	2.8059e+01	11.2296	65.373339	0.000578	5.778604	1.957844	0.000231
 284	2.8159e+01	11.2778	65.676124	0.000760	7.603426	2.576111	0.000304
 285	2.8258e+01	11.3114	65.946612	0.000679	6.792394	2.301325	0.000272
 286	2.8358e+01	11.3499	66.188840	0.000608	6.082741	2.060888	0.000243
 287	2.8457e+01	11.3917	66.511811	0.000811	8.110321	2.747851	0.000325
 288	2.8556e+01	11.4237	66.737891	0.000568	5.677225	1.923496	0.000227
 289	2.8656e+01	11.4638	67.036639	0.000750	7.502047	2.541762	0.000300
 290	2.8756e+01	11.5088	67.290978	0.000639	6.386878	2.163933	0.000256
 291	2.8855e+01	11.5489	67.561467	0.000679	6.792394	2.301325	0.000272
 292	2.8954e+01	11.5890	67.852140	0.000730	7.299289	2.473066	0.000292
 293	2.9054e+01	11.6323	68.122628	0.000679	6.792394	2.301325	0.000272
 294	2.9154e+01	11.6628	68.389079	0.000669	6.691015	2.266977	0.000268
 295	2.9253e+01	11.7157	68.619196	0.000578	5.778604	1.957844	0.000231
 296	2.9352e+01	11.7478	68.934093	0.000791	7.907563	2.679155	0.000316
 297	2.9452e+01	11.7927	69.176321	0.000608	6.082741	2.060888	0.000243
 298	2.9552e+01	11.8328	69.466995	0.000730	7.299289	2.473066	0.000292
 299	2.9651e+01	11.8713	69.721334	0.000639	6.386878	2.163933	0.000256
 300	2.9750e+01	11.9114	70.007971	0.000720	7.197910	2.438718	0.000288
 301	2.9850e+01	11.9483	70.290570	0.000710	7.096531	2.404370	0.000284
 302	2.9950e+01	11.9820	70.548947	0.000649	6.488257	2.198281	0.000260
 303	3.0049e+01	12.0334	70.823472	0.000689	6.893773	2.335674	0.000276
 304	3.0148e+01	12.0670	71.049552	0.000568	5.677225	1.923496	0.000227
 305	3.0248e+01	12.1055	71.364448	0.000791	7.907563	2.679155	0.000316
 306	3.0348e+01	12.1440	71.594565	0.000578	5.778604	1.957844	0.000231
 307	3.0447e+01	12.1874	71.861016	0.000669	6.691015	2.266977	0.000268
 308	3.0547e+01	12.2259	72.147653	0.000720	7.197910	2.438718	0.000288
 309	3.0646e+01	12.2531	72.426215	0.000700	6.995152	2.370022	0.000280
 310	3.0745e+01	12.3045	72.692666	0.000669	6.691015	2.266977	0.000268
 311	3.0845e+01	12.3478	72.955080	0.000659	6.589636	2.232629	0.000264
 312	3.0945e+01	12.3847	73.237679	0.000710	7.096531	2.404370	0.000284
 313	3.1044e+01	12.4232	73.500093	0.000659	6.589636	2.232629	0.000264
 314	3.1143e+01	12.4649	73.766544	0.000669	6.691015	2.266977	0.000268
 315	3.1243e+01	12.5130	74.020884	0.000639	6.386878	2.163933	0.000256
 316	3.1343e+01	12.5467	74.255038	0.000588	5.879983	1.992192	0.000235
 317	3.1442e+01	12.5900	74.569934	0.000791	7.907563	2.679155	0.000316
 318	3.1541e+01	12.6205	74.804088	0.000588	5.879983	1.992192	0.000235
 319	3.1641e+01	12.6590	75.094762	0.000730	7.299289	2.473066	0.000292
 320	3.1741e+01	12.7151	75.353139	0.000649	6.488257	2.198281	0.000260
 321	3.1840e+01	12.7488	75.619590	0.000669	6.691015	2.266977	0.000268
 322	3.1939e+01	12.7809	75.914300	0.000740	7.400668	2.507414	0.000296
 323	3.2039e+01	12.8210	76.148454	0.000588	5.879983	1.992192	0.000235
 324	3.2139e+01	12.8659	76.422980	0.000689	6.893773	2.335674	0.000276
 325	3.2238e+01	12.8996	76.697505	0.000689	6.893773	2.335674	0.000276
 326	3.2337e+01	12.9446	76.943770	0.000618	6.184120	2.095237	0.000248
 327	3.2437e+01	12.9734	77.181961	0.000598	5.981362	2.026540	0.000239
 328	3.2536e+01	13.0264	77.432263	0.000629	6.285499	2.129585	0.000252
 329	3.2636e+01	13.0633	77.682566	0.000629	6.285499	2.129585	0.000252
 330	3.2736e+01	13.0873	77.985351	0.000760	7.603426	2.576111	0.000304
 331	3.2835e+01	13.1419	78.259876	0.000689	6.893773	2.335674	0.000276
 332	3.2934e+01	13.1740	78.538439	0.000700	6.995152	2.370022	0.000280
 333	3.3034e+01	13.2093	78.752407	0.000537	5.373088	1.820451	0.000215
 334	3.3133e+01	13.2622	79.022895	0.000679	6.792394	2.301325	0.000272
 335	3.3233e+01	13.2959	79.293383	0.000679	6.792394	2.301325	0.000272
 336	3.3333e+01	13.3328	79.559834	0.000669	6.691015	2.266977	0.000268
 337	3.3432e+01	13.3729	79.850508	0.000730	7.299289	2.473066	0.000292
 338	3.3532e+01	13.4082	80.076587	0.000568	5.677225	1.923496	0.000227
 339	3.3631e+01	13.4563	80.359187	0.000710	7.096531	2.404370	0.000284
 340	3.3730e+01	13.4932	80.569118	0.000527	5.271709	1.786103	0.000211
 341	3.3830e+01	13.5381	80.875940	0.000770	7.704805	2.610459	0.000308
 342	3.3929e+01	13.5718	81.106057	0.000578	5.778604	1.957844	0.000231
 343	3.4029e+01	13.6167	81.372508	0.000669	6.691015	2.266977	0.000268
 344	3.4129e+01	13.6681	81.634922	0.000659	6.589636	2.232629	0.000264
 345	3.4228e+01	13.6953	81.913484	0.000700	6.995152	2.370022	0.000280
 346	3.4328e+01	13.7354	82.155712	0.000608	6.082741	2.060888	0.000243
 347	3.4427e+01	13.7884	82.414089	0.000649	6.488257	2.198281	0.000260
 348	3.4526e+01	13.8189	82.692651	0.000700	6.995152	2.370022	0.000280
 349	3.4626e+01	13.8558	82.922768	0.000578	5.778604	1.957844	0.000231
 350	3.4725e+01	13.8911	83.193256	0.000679	6.792394	2.301325	0.000272
 351	3.4825e+01	13.9408	83.447596	0.000639	6.386878	2.163933	0.000256
 352	3.4925e+01	13.9857	83.750381	0.000760	7.603426	2.576111	0.000304
 353	3.5024e+01	14.0162	83.976460	0.000568	5.677225	1.923496	0.000227
 354	3.5123e+01	14.0643	84.214651	0.000598	5.981362	2.026540	0.000239
 355	3.5223e+01	14.0948	84.505325	0.000730	7.299289	2.473066	0.000292
 356	3.5322e+01	14.1349	84.751591	0.000618	6.184120	2.095237	0.000248
 357	3.5422e+01	14.1782	85.014004	0.000659	6.589636	2.232629	0.000264
 358	3.5522e+01	14.2119	85.272381	0.000649	6.488257	2.198281	0.000260
 359	3.5621e+01	14.2520	85.514609	0.000608	6.082741	2.060888	0.000243
 360	3.5721e+01	14.2937	85.805283	0.000730	7.299289	2.473066	0.000292
 361	3.5820e+01	14.3386	86.007140	0.000507	5.068951	1.717407	0.000203
 362	3.5919e+01	14.3707	86.289739	0.000710	7.096531	2.404370	0.000284
 363	3.6019e+01	14.4221	86.548116	0.000649	6.488257	2.198281	0.000260
 364	3.6118e+01	14.4654	86.830715	0.000710	7.096531	2.404370	0.000284
 365	3.6218e+01	14.4975	87.060832	0.000578	5.778604	1.957844	0.000231
 366	3.6318e+01	14.5327	87.319209	0.000649	6.488257	2.198281	0.000260
 367	3.6417e+01	14.5793	87.565474	0.000618	6.184120	2.095237	0.000248
 368	3.6517e+01	14.6114	87.844037	0.000700	6.995152	2.370022	0.000280
 369	3.6616e+01	14.6515	88.110487	0.000669	6.691015	2.266977	0.000268
 370	3.6715e+01	14.6964	88.348678	0.000598	5.981362	2.026540	0.000239
 371	3.6815e+01	14.7253	88.623204	0.000689	6.893773	2.335674	0.000276
 372	3.6914e+01	14.7782	88.873506	0.000629	6.285499	2.129585	0.000252
 373	3.7014e+01	14.8071	89.119771	0.000618	6.184120	2.095237	0.000248
 374	3.7114e+01	14.8632	89.378148	0.000649	6.488257	2.198281	0.000260
 375	3.7213e+01	14.8969	89.640562	0.000659	6.589636	2.232629	0.000264
 376	3.7313e+01	14.9322	89.898939	0.000649	6.488257	2.198281	0.000260
 377	3.7412e+01	14.9675	90.169427	0.000679	6.792394	2.301325	0.000272
 378	3.7511e+01	15.0140	90.379358	0.000527	5.271709	1.786103	0.000211
 379	3.7611e+01	15.0477	90.649846	0.000679	6.792394	2.301325	0.000272
 380	3.7711e+01	15.0878	90.900148	0.000629	6.285499	2.129585	0.000252
 381	3.7810e+01	15.1359	91.158525	0.000649	6.488257	2.198281	0.000260
 382	3.7910e+01	15.1696	91.368456	0.000527	5.271709	1.786103	0.000211
 383	3.8009e+01	15.2065	91.638944	0.000679	6.792394	2.301325	0.000272
 384	3.8108e+01	15.2450	91.909432	0.000679	6.792394	2.301325	0.000272
 385	3.8208e+01	15.2932	92.179920	0.000679	6.792394	2.301325	0.000272
 386	3.8307e+01	15.3333	92.430223	0.000629	6.285499	2.129585	0.000252
 387	3.8407e+01	15.3734	92.684562	0.000639	6.386878	2.163933	0.000256
 388	3.8507e+01	15.4103	92.959088	0.000689	6.893773	2.335674	0.000276
 389	3.8606e+01	15.4536	93.160944	0.000507	5.068951	1.717407	0.000203
 390	3.8706e+01	15.4921	93.455655	0.000740	7.400668	2.507414	0.000296
 391	3.8805e+01	15.5418	93.665586	0.000527	5.271709	1.786103	0.000211
 392	3.8904e+01	15.5707	93.932037	0.000669	6.691015	2.266977	0.000268
 393	3.9004e+01	15.6108	94.210600	0.000700	6.995152	2.370022	0.000280
 394	3.9103e+01	15.6557	94.456865	0.000618	6.184120	2.095237	0.000248
 395	3.9203e+01	15.6894	94.711204	0.000639	6.386878	2.163933	0.000256
 396	3.9303e+01	15.7311	94.957470	0.000618	6.184120	2.095237	0.000248
 397	3.9402e+01	15.7696	95.268329	0.000781	7.806184	2.644807	0.000312
 398	3.9502e+01	15.8049	95.458075	0.000476	4.764814	1.614363	0.000191
 399	3.9601e+01	15.8578	95.732600	0.000689	6.893773	2.335674	0.000276
 400	3.9700e+01	15.8931	95.970791	0.000598	5.981362	2.026540	0.000239
 401	3.9800e+01	15.9252	96.257427	0.000720	7.197910	2.438718	0.000288
 402	3.9900e+01	15.9589	96.491581	0.000588	5.879983	1.992192	0.000235
 403	3.9999e+01	16.0070	96.737847	0.000618	6.184120	2.095237	0.000248
 404	4.0099e+01	16.0616	96.992186	0.000639	6.386878	2.163933	0.000256
 405	4.0198e+01	16.0872	97.258637	0.000669	6.691015	2.266977	0.000268
 406	4.0297e+01	16.1322	97.517014	0.000649	6.488257	2.198281	0.000260
 407	4.0397e+01	16.1723	97.722908	0.000517	5.170330	1.751755	0.000207
 408	4.0496e+01	16.2092	97.997433	0.000689	6.893773	2.335674	0.000276
 409	4.0596e+01	16.2429	98.267921	0.000679	6.792394	2.301325	0.000272
 410	4.0696e+01	16.2942	98.514186	0.000618	6.184120	2.095237	0.000248
 411	4.0795e+01	16.3215	98.764489	0.000629	6.285499	2.129585	0.000252
 412	4.0895e+01	16.3632	99.055162	0.000730	7.299289	2.473066	0.000292
 413	4.0994e+01	16.4081	99.293353	0.000598	5.981362	2.026540	0.000239
 414	4.1093e+01	16.4530	99.592102	0.000750	7.502047	2.541762	0.000300
 415	4.1193e+01	16.4915	99.818181	0.000568	5.677225	1.923496	0.000227
 416	4.1292e+01	16.5236	100.056372	0.000598	5.981362	2.026540	0.000239
 417	4.1392e+01	16.5669	100.338972	0.000710	7.096531	2.404370	0.000284
 418	4.1492e+01	16.6102	100.585237	0.000618	6.184120	2.095237	0.000248
 419	4.1591e+01	16.6503	100.831502	0.000618	6.184120	2.095237	0.000248
 420	4.1691e+01	16.6840	101.138325	0.000770	7.704805	2.610459	0.000308
 421	4.1790e+01	16.7225	101.380553	0.000608	6.082741	2.060888	0.000243
 422	4.1889e+01	16.7626	101.667189	0.000720	7.197910	2.438718	0.000288
 423	4.1989e+01	16.8027	101.897306	0.000578	5.778604	1.957844	0.000231
 424	4.2089e+01	16.8525	102.119348	0.000558	5.575846	1.889148	0.000223
 425	4.2188e+01	16.8862	102.410022	0.000730	7.299289	2.473066	0.000292
 426	4.2288e+01	16.9263	102.708770	0.000750	7.502047	2.541762	0.000300
 427	4.2387e+01	16.9712	102.971184	0.000659	6.589636	2.232629	0.000264
 428	4.2486e+01	17.0017	103.221487	0.000629	6.285499	2.129585	0.000252
 429	4.2586e+01	17.0386	103.496012	0.000689	6.893773	2.335674	0.000276
 430	4.2685e+01	17.0819	103.770537	0.000689	6.893773	2.335674	0.000276
 431	4.2785e+01	17.1300	103.996617	0.000568	5.677225	1.923496	0.000227
 432	4.2885e+01	17.1653	104.267105	0.000679	6.792394	2.301325	0.000272
 433	4.2984e+01	17.2086	104.561816	0.000740	7.400668	2.507414	0.000296
 434	4.3084e+01	17.2535	104.808081	0.000618	6.184120	2.095237	0.000248
 435	4.3183e+01	17.2824	105.078569	0.000679	6.792394	2.301325	0.000272
 436	4.3282e+01	17.3273	105.357131	0.000700	6.995152	2.370022	0.000280
 437	4.3382e+01	17.3642	105.595322	0.000598	5.981362	2.026540	0.000239
 438	4.3481e+01	17.4027	105.894070	0.000750	7.502047	2.541762	0.000300
 439	4.3581e+01	17.4444	106.176670	0.000710	7.096531	2.404370	0.000284
 440	4.3681e+01	17.4893	106.410824	0.000588	5.879983	1.992192	0.000235
 441	4.3780e+01	17.5182	106.685349	0.000689	6.893773	2.335674	0.000276
 442	4.3880e+01	17.5583	106.984097	0.000750	7.502047	2.541762	0.000300
 443	4.3979e+01	17.5936	107.266697	0.000710	7.096531	2.404370	0.000284
 444	4.4078e+01	17.6353	107.541222	0.000689	6.893773	2.335674	0.000276
 445	4.4178e+01	17.6867	107.803636	0.000659	6.589636	2.232629	0.000264
 446	4.4278e+01	17.7236	108.070087	0.000669	6.691015	2.266977	0.000268
 447	4.4377e+01	17.7540	108.332500	0.000659	6.589636	2.232629	0.000264
 448	4.4477e+01	17.7974	108.651434	0.000801	8.008942	2.713503	0.000321
 449	4.4576e+01	17.8391	108.877514	0.000568	5.677225	1.923496	0.000227
 450	4.4675e+01	17.8840	109.168187	0.000730	7.299289	2.473066	0.000292
 451	4.4775e+01	17.9209	109.462898	0.000740	7.400668	2.507414	0.000296
 452	4.4874e+01	17.9594	109.741461	0.000700	6.995152	2.370022	0.000280
 453	4.4974e+01	18.0075	109.999837	0.000649	6.488257	2.198281	0.000260
 454	4.5074e+01	18.0428	110.274363	0.000689	6.893773	2.335674	0.000276
 455	4.5173e+01	18.0797	110.581185	0.000770	7.704805	2.610459	0.000308
 456	4.5273e+01	18.1262	110.843599	0.000659	6.589636	2.232629	0.000264
 457	4.5372e+01	18.1567	111.142347	0.000750	7.502047	2.541762	0.000300
 458	4.5471e+01	18.2000	111.420909	0.000700	6.995152	2.370022	0.000280
 459	4.5571e+01	18.2417	111.699472	0.000700	6.995152	2.370022	0.000280
 460	4.5670e+01	18.2802	111.986108	0.000720	7.197910	2.438718	0.000288
 461	4.5770e+01	18.3203	112.301005	0.000791	7.907563	2.679155	0.000316
 462	4.5870e+01	18.3637	112.567456	0.000669	6.691015	2.266977	0.000268
 463	4.5969e+01	18.3973	112.890427	0.000811	8.110321	2.747851	0.000325
 464	4.6069e+01	18.4487	113.156878	0.000669	6.691015	2.266977	0.000268
 465	4.6168e+01	18.4808	113.471774	0.000791	7.907563	2.679155	0.000316
 466	4.6267e+01	18.5209	113.778597	0.000770	7.704805	2.610459	0.000308
 467	4.6367e+01	18.5642	114.045047	0.000669	6.691015	2.266977	0.000268
 468	4.6467e+01	18.6075	114.331684	0.000720	7.197910	2.438718	0.000288
 469	4.6566e+01	18.6412	114.630432	0.000750	7.502047	2.541762	0.000300
 470	4.6666e+01	18.6685	114.917069	0.000720	7.197910	2.438718	0.000288
 471	4.6765e+01	18.7118	115.227928	0.000781	7.806184	2.644807	0.000312
 472	4.6864e+01	18.7615	115.534751	0.000770	7.704805	2.610459	0.000308
 473	4.6964e+01	18.8016	115.825424	0.000730	7.299289	2.473066	0.000292
 474	4.7063e+01	18.8337	116.128210	0.000760	7.603426	2.576111	0.000304
 475	4.7163e+01	18.8722	116.443106	0.000791	7.907563	2.679155	0.000316
 476	4.7263e+01	18.9123	116.737817	0.000740	7.400668	2.507414	0.000296
 477	4.7362e+01	18.9476	117.024454	0.000720	7.197910	2.438718	0.000288
 478	4.7462e+01	18.9941	117.351462	0.000821	8.211700	2.782199	0.000329
 479	4.7561e+01	19.0342	117.625987	0.000689	6.893773	2.335674	0.000276
 480	4.7660e+01	19.0743	117.944921	0.000801	8.008942	2.713503	0.000321
 481	4.7760e+01	19.1257	118.235594	0.000730	7.299289	2.473066	0.000292
 482	4.7859e+01	19.1529	118.530305	0.000740	7.400668	2.507414	0.000296
 483	4.7959e+01	19.2027	118.853276	0.000811	8.110321	2.747851	0.000325
 484	4.8059e+01	19.2492	119.176247	0.000811	8.110321	2.747851	0.000325
 485	4.8158e+01	19.2765	119.462884	0.000720	7.197910	2.438718	0.000288
 486	4.8258e+01	19.3214	119.797966	0.000841	8.414458	2.850896	0.000337
 487	4.8357e+01	19.3583	120.076528	0.000700	6.995152	2.370022	0.000280
 488	4.8456e+01	19.4048	120.423722	0.000872	8.718595	2.953940	0.000349
 489	4.8556e+01	19.4305	120.746693	0.000811	8.110321	2.747851	0.000325
 490	4.8656e+01	19.4754	121.029292	0.000710	7.096531	2.404370	0.000284
 491	4.8755e+01	19.5123	121.340152	0.000781	7.806184	2.644807	0.000312
 492	4.8855e+01	19.5508	121.695420	0.000892	8.921353	3.022636	0.000357
 493	4.8954e+01	19.5973	122.026465	0.000831	8.313079	2.816548	0.000333
 494	4.9053e+01	19.6294	122.317139	0.000730	7.299289	2.473066	0.000292
 495	4.9153e+01	19.6759	122.636072	0.000801	8.008942	2.713503	0.000321
 496	4.9252e+01	19.7240	122.938857	0.000760	7.603426	2.576111	0.000304
 497	4.9352e+01	19.7561	123.282014	0.000862	8.617216	2.919592	0.000345
 498	4.9452e+01	19.7914	123.592873	0.000781	7.806184	2.644807	0.000312
 499	4.9551e+01	19.8315	123.911807	0.000801	8.008942	2.713503	0.000321
 500	4.9651e+01	19.8829	124.230741	0.000801	8.008942	2.713503	0.000321
 501	4.9750e+01	19.9149	124.573897	0.000862	8.617216	2.919592	0.000345
 502	4.9849e+01	19.9470	124.884757	0.000781	7.806184	2.644807	0.000312
 503	4.9949e+01	19.9887	125.231951	0.000872	8.718595	2.953940	0.000349
 504	5.0048e+01	19.9647	125.179468	0.000132	1.317927	0.446526	-0.000053
 505	5.0148e+01	19.9198	125.126985	0.000132	1.317927	0.446526	-0.000053
 506	5.0248e+01	19.8620	125.070465	0.000142	1.419306	0.480874	-0.000057
 507	5.0347e+01	19.8331	124.977611	0.000233	2.331717	0.790007	-0.000093
 508	5.0447e+01	19.7914	124.884757	0.000233	2.331717	0.790007	-0.000093
 509	5.0546e+01	19.7593	124.844386	0.000101	1.013790	0.343481	-0.000041
 510	5.0645e+01	19.7192	124.695012	0.000375	3.751024	1.270881	-0.000150
 511	5.0745e+01	19.6775	124.666752	0.000071	0.709653	0.240437	-0.000028
 512	5.0844e+01	19.6310	124.598120	0.000172	1.723443	0.583918	-0.000069
 513	5.0944e+01	19.5957	124.489118	0.000274	2.737233	0.927400	-0.000110
 514	5.1044e+01	19.5444	124.380115	0.000274	2.737233	0.927400	-0.000110
 515	5.1143e+01	19.5139	124.283224	0.000243	2.433096	0.824355	-0.000097
 516	5.1242e+01	19.4834	124.206518	0.000193	1.926201	0.652615	-0.000077
 517	5.1342e+01	19.4353	124.141924	0.000162	1.622064	0.549570	-0.000065
 518	5.1441e+01	19.3952	124.016773	0.000314	3.142749	1.064792	-0.000126
 519	5.1541e+01	19.3647	123.944104	0.000182	1.824822	0.618267	-0.000073
 520	5.1641e+01	19.3166	123.839139	0.000264	2.635854	0.893052	-0.000105
 521	5.1740e+01	19.2925	123.734173	0.000264	2.635854	0.893052	-0.000105
 522	5.1840e+01	19.2396	123.604985	0.000324	3.244129	1.099140	-0.000130
 523	5.1939e+01	19.1882	123.508094	0.000243	2.433096	0.824355	-0.000097
 524	5.2038e+01	19.1561	123.435425	0.000182	1.824822	0.618267	-0.000073
 525	5.2138e+01	19.1176	123.306237	0.000324	3.244129	1.099140	-0.000130
 526	5.2237e+01	19.0823	123.205308	0.000253	2.534475	0.858704	-0.000101
 527	5.2337e+01	19.0390	123.120529	0.000213	2.128959	0.721311	-0.000085
 528	5.2437e+01	18.9941	123.011526	0.000274	2.737233	0.927400	-0.000110
 529	5.2536e+01	18.9636	122.878300	0.000335	3.345508	1.133489	-0.000134
 530	5.2636e+01	18.9235	122.773335	0.000264	2.635854	0.893052	-0.000105
 531	5.2735e+01	18.8738	122.615887	0.000395	3.953782	1.339577	-0.000158
 532	5.2834e+01	18.8305	122.567441	0.000122	1.216548	0.412178	-0.000049
 533	5.2934e+01	18.7984	122.418067	0.000375	3.751024	1.270881	-0.000150
 534	5.3033e+01	18.7535	122.341361	0.000193	1.926201	0.652615	-0.000077
 535	5.3133e+01	18.7198	122.220247	0.000304	3.041370	1.030444	-0.000122
 536	5.3233e+01	18.6909	122.087022	0.000335	3.345508	1.133489	-0.000134
 537	5.3332e+01	18.6412	122.006279	0.000203	2.027580	0.686963	-0.000081
 538	5.3431e+01	18.6107	121.852868	0.000385	3.852403	1.305229	-0.000154
 539	5.3531e+01	18.5674	121.707531	0.000365	3.649645	1.236533	-0.000146
 540	5.3630e+01	18.5241	121.610640	0.000243	2.433096	0.824355	-0.000097
 541	5.3730e+01	18.4824	121.473377	0.000345	3.446887	1.167837	-0.000138
 542	5.3830e+01	18.4455	121.348226	0.000314	3.142749	1.064792	-0.000126
 543	5.3929e+01	18.3957	121.279595	0.000172	1.723443	0.583918	-0.000069
 544	5.4029e+01	18.3717	121.118109	0.000406	4.055161	1.373926	-0.000162
 545	5.4128e+01	18.3203	121.009107	0.000274	2.737233	0.927400	-0.000110
 546	5.4227e+01	18.2866	120.867807	0.000355	3.548266	1.202185	-0.000142
 547	5.4327e+01	18.2449	120.746693	0.000304	3.041370	1.030444	-0.000122
 548	5.4426e+01	18.2016	120.690173	0.000142	1.419306	0.480874	-0.000057
 549	5.4526e+01	18.1647	120.556947	0.000335	3.345508	1.133489	-0.000134
 550	5.4626e+01	18.1246	120.427759	0.000324	3.244129	1.099140	-0.000130
 551	5.4725e+01	18.0861	120.318756	0.000274	2.737233	0.927400	-0.000110
 552	5.4825e+01	18.0380	120.193605	0.000314	3.142749	1.064792	-0.000126
 553	5.4924e+01	17.9963	120.056343	0.000345	3.446887	1.167837	-0.000138
 554	5.5023e+01	17.9658	119.963488	0.000233	2.331717	0.790007	-0.000093
 555	5.5123e+01	17.9225	119.797966	0.000416	4.156540	1.408274	-0.000166
 556	5.5222e+01	17.8792	119.688963	0.000274	2.737233	0.927400	-0.000110
 557	5.5322e+01	17.8487	119.551701	0.000345	3.446887	1.167837	-0.000138
 558	5.5422e+01	17.8086	119.394252	0.000395	3.953782	1.339577	-0.000158
 559	5.5521e+01	17.7669	119.297361	0.000243	2.433096	0.824355	-0.000097
 560	5.5620e+01	17.7300	119.164136	0.000335	3.345508	1.133489	-0.000134
 561	5.5720e+01	17.6931	119.022836	0.000355	3.548266	1.202185	-0.000142
 562	5.5819e+01	17.6401	118.893647	0.000324	3.244129	1.099140	-0.000130
 563	5.5919e+01	17.6016	118.760422	0.000335	3.345508	1.133489	-0.000134
 564	5.6019e+01	17.5663	118.623159	0.000345	3.446887	1.167837	-0.000138
 565	5.6118e+01	17.5295	118.489934	0.000335	3.345508	1.133489	-0.000134
 566	5.6218e+01	17.4781	118.364783	0.000314	3.142749	1.064792	-0.000126
 567	5.6317e+01	17.4412	118.215409	0.000375	3.751024	1.270881	-0.000150
 568	5.6416e+01	17.4075	118.090257	0.000314	3.142749	1.064792	-0.000126
 569	5.6516e+01	17.3642	117.952995	0.000345	3.446887	1.167837	-0.000138
 570	5.6615e+01	17.3305	117.795547	0.000395	3.953782	1.339577	-0.000158
 571	5.6715e+01	17.2840	117.650210	0.000365	3.649645	1.236533	-0.000146
 572	5.6815e+01	17.2471	117.525058	0.000314	3.142749	1.064792	-0.000126
 573	5.6914e+01	17.2038	117.395870	0.000324	3.244129	1.099140	-0.000130
 574	5.7014e+01	17.1621	117.262645	0.000335	3.345508	1.133489	-0.000134
 575	5.7113e+01	17.1332	117.125382	0.000345	3.446887	1.167837	-0.000138
 576	5.7212e+01	17.0771	116.976008	0.000375	3.751024	1.270881	-0.000150
 577	5.7312e+01	17.0402	116.838745	0.000345	3.446887	1.167837	-0.000138
 578	5.7411e+01	17.0065	116.673223	0.000416	4.156540	1.408274	-0.000166
 579	5.7511e+01	16.9648	116.568257	0.000264	2.635854	0.893052	-0.000105
 580	5.7611e+01	16.9231	116.402735	0.000416	4.156540	1.408274	-0.000166
 581	5.7710e+01	16.8846	116.293732	0.000274	2.737233	0.927400	-0.000110
 582	5.7809e+01	16.8428	116.148395	0.000365	3.649645	1.236533	-0.000146
 583	5.7909e+01	16.8011	115.974798	0.000436	4.359298	1.476970	-0.000174
 584	5.8008e+01	16.7674	115.845610	0.000324	3.244129	1.099140	-0.000130
 585	5.8108e+01	16.7273	115.684125	0.000406	4.055161	1.373926	-0.000162
 586	5.8208e+01	16.6856	115.550899	0.000335	3.345508	1.133489	-0.000134
 587	5.8307e+01	16.6423	115.421711	0.000324	3.244129	1.099140	-0.000130
 588	5.8407e+01	16.6038	115.284448	0.000345	3.446887	1.167837	-0.000138
 589	5.8506e+01	16.5685	115.086628	0.000497	4.967572	1.683059	-0.000199
 590	5.8605e+01	16.5300	114.945329	0.000355	3.548266	1.202185	-0.000142
 591	5.8705e+01	16.4851	114.856512	0.000223	2.230338	0.755659	-0.000089
 592	5.8804e+01	16.4418	114.646581	0.000527	5.271709	1.786103	-0.000211
 593	5.8904e+01	16.4129	114.513355	0.000335	3.345508	1.133489	-0.000134
 594	5.9004e+01	16.3632	114.315536	0.000497	4.967572	1.683059	-0.000199
 595	5.9103e+01	16.3279	114.182310	0.000335	3.345508	1.133489	-0.000134
 596	5.9203e+01	16.2910	113.996602	0.000466	4.663435	1.580014	-0.000187
 597	5.9302e+01	16.2509	113.871451	0.000314	3.142749	1.064792	-0.000126
 598	5.9401e+01	16.2124	113.697854	0.000436	4.359298	1.476970	-0.000174
 599	5.9501e+01	16.1594	113.540405	0.000395	3.953782	1.339577	-0.000158
 600	5.9600e+01	16.1322	113.391031	0.000375	3.751024	1.270881	-0.000150
 601	5.9700e+01	16.0969	113.213398	0.000446	4.460677	1.511318	-0.000179
 602	5.9800e+01	16.0455	113.059986	0.000385	3.852403	1.305229	-0.000154
 603	5.9899e+01	16.0022	112.898501	0.000406	4.055161	1.373926	-0.000162
 604	5.9998e+01	15.9733	112.741053	0.000395	3.953782	1.339577	-0.000158
 605	6.0098e+01	15.9300	112.628013	0.000284	2.838612	0.961748	-0.000114
 606	6.0197e+01	15.8947	112.454416	0.000436	4.359298	1.476970	-0.000174
 607	6.0297e+01	15.8482	112.301005	0.000385	3.852403	1.305229	-0.000154
 608	6.0397e+01	15.8177	112.151631	0.000375	3.751024	1.270881	-0.000150
 609	6.0496e+01	15.7648	111.953811	0.000497	4.967572	1.683059	-0.000199
 610	6.0596e+01	15.7327	111.796363	0.000395	3.953782	1.339577	-0.000158
 611	6.0695e+01	15.6894	111.646989	0.000375	3.751024	1.270881	-0.000150
 612	6.0794e+01	15.6493	111.445132	0.000507	5.068951	1.717407	-0.000203
 613	6.0894e+01	15.6124	111.291721	0.000385	3.852403	1.305229	-0.000154
 614	6.0993e+01	15.5739	111.122161	0.000426	4.257919	1.442622	-0.000170
 615	6.1093e+01	15.5306	110.952601	0.000426	4.257919	1.442622	-0.000170
 616	6.1193e+01	15.4792	110.762856	0.000476	4.764814	1.614363	-0.000191
 617	6.1292e+01	15.4504	110.625593	0.000345	3.446887	1.167837	-0.000138
 618	6.1392e+01	15.4135	110.488331	0.000345	3.446887	1.167837	-0.000138
 619	6.1491e+01	15.3782	110.338957	0.000375	3.751024	1.270881	-0.000150
 620	6.1590e+01	15.3317	110.153249	0.000466	4.663435	1.580014	-0.000187
 621	6.1690e+01	15.2915	109.955429	0.000497	4.967572	1.683059	-0.000199
 622	6.1789e+01	15.2498	109.785869	0.000426	4.257919	1.442622	-0.000170
 623	6.1889e+01	15.2113	109.604198	0.000456	4.562056	1.545666	-0.000183
 624	6.1989e+01	15.1744	109.438676	0.000416	4.156540	1.408274	-0.000166
 625	6.2088e+01	15.1295	109.273153	0.000416	4.156540	1.408274	-0.000166
 626	6.2188e+01	15.0926	109.083408	0.000476	4.764814	1.614363	-0.000191
 627	6.2287e+01	15.0557	108.982479	0.000253	2.534475	0.858704	-0.000101
 628	6.2386e+01	15.0252	108.764474	0.000547	5.474467	1.854800	-0.000219
 629	6.2486e+01	14.9643	108.582803	0.000456	4.562056	1.545666	-0.000183
 630	6.2586e+01	14.9386	108.437466	0.000365	3.649645	1.236533	-0.000146
 631	6.2685e+01	14.9017	108.275980	0.000406	4.055161	1.373926	-0.000162
 632	6.2785e+01	14.8632	108.090272	0.000466	4.663435	1.580014	-0.000187
 633	6.2884e+01	14.8119	107.888415	0.000507	5.068951	1.717407	-0.000203
 634	6.2983e+01	14.7734	107.722893	0.000416	4.156540	1.408274	-0.000166
 635	6.3083e+01	14.7365	107.585630	0.000345	3.446887	1.167837	-0.000138
 636	6.3182e+01	14.6996	107.407996	0.000446	4.460677	1.511318	-0.000179
 637	6.3282e+01	14.6482	107.238437	0.000426	4.257919	1.442622	-0.000170
 638	6.3382e+01	14.6162	107.036580	0.000507	5.068951	1.717407	-0.000203
 639	6.3481e+01	14.5761	106.867020	0.000426	4.257919	1.442622	-0.000170
 640	6.3581e+01	14.5376	106.729758	0.000345	3.446887	1.167837	-0.000138
 641	6.3680e+01	14.4878	106.499641	0.000578	5.778604	1.957844	-0.000231
 642	6.3779e+01	14.4622	106.313933	0.000466	4.663435	1.580014	-0.000187
 643	6.3879e+01	14.4172	106.164559	0.000375	3.751024	1.270881	-0.000150
 644	6.3978e+01	14.3803	105.962702	0.000507	5.068951	1.717407	-0.000203
 645	6.4078e+01	14.3322	105.781031	0.000456	4.562056	1.545666	-0.000183
 646	6.4177e+01	14.2969	105.603397	0.000446	4.460677	1.511318	-0.000179
 647	6.4277e+01	14.2600	105.397503	0.000517	5.170330	1.751755	-0.000207
 648	6.4376e+01	14.2071	105.248129	0.000375	3.751024	1.270881	-0.000150
 649	6.4476e+01	14.1782	105.074532	0.000436	4.359298	1.476970	-0.000174
 650	6.4576e+01	14.1333	104.848452	0.000568	5.677225	1.923496	-0.000227
 651	6.4675e+01	14.0980	104.686967	0.000406	4.055161	1.373926	-0.000162
 652	6.4775e+01	14.0515	104.485110	0.000507	5.068951	1.717407	-0.000203
 653	6.4874e+01	14.0162	104.319587	0.000416	4.156540	1.408274	-0.000166
 654	6.4974e+01	13.9825	104.170213	0.000375	3.751024	1.270881	-0.000150
 655	6.5073e+01	13.9360	103.952208	0.000547	5.474467	1.854800	-0.000219
 656	6.5172e+01	13.8927	103.770537	0.000456	4.562056	1.545666	-0.000183
 657	6.5272e+01	13.8558	103.621163	0.000375	3.751024	1.270881	-0.000150
 658	6.5371e+01	13.8205	103.431418	0.000476	4.764814	1.614363	-0.000191
 659	6.5471e+01	13.7788	103.217449	0.000537	5.373088	1.820451	-0.000215
 660	6.5570e+01	13.7419	103.015593	0.000507	5.068951	1.717407	-0.000203
 661	6.5670e+01	13.6985	102.829884	0.000466	4.663435	1.580014	-0.000187
 662	6.5769e+01	13.6552	102.664362	0.000416	4.156540	1.408274	-0.000166
 663	6.5869e+01	13.6215	102.434245	0.000578	5.778604	1.957844	-0.000231
 664	6.5969e+01	13.5766	102.276797	0.000395	3.953782	1.339577	-0.000158
 665	6.6068e+01	13.5461	102.046680	0.000578	5.778604	1.957844	-0.000231
 666	6.6168e+01	13.4964	101.844823	0.000507	5.068951	1.717407	-0.000203
 667	6.6267e+01	13.4691	101.675264	0.000426	4.257919	1.442622	-0.000170
 668	6.6367e+01	13.4162	101.493592	0.000456	4.562056	1.545666	-0.000183
 669	6.6466e+01	13.3777	101.315958	0.000446	4.460677	1.511318	-0.000179
 670	6.6566e+01	13.3472	101.089879	0.000568	5.677225	1.923496	-0.000227
 671	6.6665e+01	13.3023	100.896096	0.000487	4.866193	1.648711	-0.000195
 672	6.6764e+01	13.2590	100.714425	0.000456	4.562056	1.545666	-0.000183
 673	6.6864e+01	13.2109	100.508531	0.000517	5.170330	1.751755	-0.000207
 674	6.6963e+01	13.1724	100.310712	0.000497	4.967572	1.683059	-0.000199
 675	6.7063e+01	13.1419	100.092706	0.000547	5.474467	1.854800	-0.000219
 676	6.7162e+01	13.1002	99.915072	0.000446	4.460677	1.511318	-0.000179
 677	6.7262e+01	13.0585	99.701104	0.000537	5.373088	1.820451	-0.000215
 678	6.7362e+01	13.0167	99.499247	0.000507	5.068951	1.717407	-0.000203
 679	6.7461e+01	12.9879	99.297391	0.000507	5.068951	1.717407	-0.000203
 680	6.7561e+01	12.9526	99.103608	0.000487	4.866193	1.648711	-0.000195
 681	6.7660e+01	12.9028	98.917900	0.000466	4.663435	1.580014	-0.000187
 682	6.7760e+01	12.8659	98.691820	0.000568	5.677225	1.923496	-0.000227
 683	6.7859e+01	12.8258	98.510149	0.000456	4.562056	1.545666	-0.000183
 684	6.7959e+01	12.7889	98.267921	0.000608	6.082741	2.060888	-0.000243
 685	6.8058e+01	12.7553	98.094324	0.000436	4.359298	1.476970	-0.000174
 686	6.8157e+01	12.7055	97.908616	0.000466	4.663435	1.580014	-0.000187
 687	6.8257e+01	12.6590	97.678499	0.000578	5.778604	1.957844	-0.000231
 688	6.8356e+01	12.6285	97.488754	0.000476	4.764814	1.614363	-0.000191
 689	6.8456e+01	12.5884	97.234414	0.000639	6.386878	2.163933	-0.000256
 690	6.8555e+01	12.5531	97.060817	0.000436	4.359298	1.476970	-0.000174
 691	6.8655e+01	12.5066	96.854923	0.000517	5.170330	1.751755	-0.000207
 692	6.8754e+01	12.4649	96.616732	0.000598	5.981362	2.026540	-0.000239
 693	6.8854e+01	12.4296	96.443136	0.000436	4.359298	1.476970	-0.000174
 694	6.8954e+01	12.3863	96.225130	0.000547	5.474467	1.854800	-0.000219
 695	6.9053e+01	12.3494	96.023274	0.000507	5.068951	1.717407	-0.000203
 696	6.9153e+01	12.2997	95.785083	0.000598	5.981362	2.026540	-0.000239
 697	6.9252e+01	12.2708	95.538817	0.000618	6.184120	2.095237	-0.000248
 698	6.9352e+01	12.2259	95.345035	0.000487	4.866193	1.648711	-0.000195
 699	6.9451e+01	12.1858	95.155289	0.000476	4.764814	1.614363	-0.000191
 700	6.9550e+01	12.1424	94.937284	0.000547	5.474467	1.854800	-0.000219
 701	6.9650e+01	12.1087	94.691019	0.000618	6.184120	2.095237	-0.000248
 702	6.9749e+01	12.0719	94.481088	0.000527	5.271709	1.786103	-0.000211
 703	6.9849e+01	12.0350	94.267119	0.000537	5.373088	1.820451	-0.000215
 704	6.9948e+01	11.9836	94.053151	0.000537	5.373088	1.820451	-0.000215
 705	7.0048e+01	11.9483	93.831109	0.000558	5.575846	1.889148	-0.000223
 706	7.0147e+01	11.9162	93.629252	0.000507	5.068951	1.717407	-0.000203
 707	7.0247e+01	11.8649	93.382987	0.000618	6.184120	2.095237	-0.000248
 708	7.0347e+01	11.8264	93.173056	0.000527	5.271709	1.786103	-0.000211
 709	7.0446e+01	11.7927	92.951013	0.000558	5.575846	1.889148	-0.000223
 710	7.0546e+01	11.7430	92.728971	0.000558	5.575846	1.889148	-0.000223
 711	7.0645e+01	11.7077	92.502891	0.000568	5.677225	1.923496	-0.000227
 712	7.0745e+01	11.6644	92.280849	0.000558	5.575846	1.889148	-0.000223
 713	7.0844e+01	11.6243	92.091103	0.000476	4.764814	1.614363	-0.000191
 714	7.0944e+01	11.5810	91.844838	0.000618	6.184120	2.095237	-0.000248
 715	7.1043e+01	11.5457	91.630870	0.000537	5.373088	1.820451	-0.000215
 716	7.1142e+01	11.5136	91.396716	0.000588	5.879983	1.992192	-0.000235
 717	7.1242e+01	11.4638	91.162562	0.000588	5.879983	1.992192	-0.000235
 718	7.1341e+01	11.4237	90.976854	0.000466	4.663435	1.580014	-0.000187
 719	7.1441e+01	11.3917	90.766923	0.000527	5.271709	1.786103	-0.000211
 720	7.1540e+01	11.3467	90.528732	0.000598	5.981362	2.026540	-0.000239
 721	7.1640e+01	11.3114	90.298615	0.000578	5.778604	1.957844	-0.000231
 722	7.1740e+01	11.2745	90.064461	0.000588	5.879983	1.992192	-0.000235
 723	7.1839e+01	11.2184	89.870679	0.000487	4.866193	1.648711	-0.000195
 724	7.1939e+01	11.1911	89.604228	0.000669	6.691015	2.266977	-0.000268
 725	7.2038e+01	11.1590	89.366037	0.000598	5.981362	2.026540	-0.000239
 726	7.2138e+01	11.1157	89.180328	0.000466	4.663435	1.580014	-0.000187
 727	7.2237e+01	11.0644	88.978472	0.000507	5.068951	1.717407	-0.000203
 728	7.2337e+01	11.0307	88.703946	0.000689	6.893773	2.335674	-0.000276
 729	7.2436e+01	10.9874	88.518238	0.000466	4.663435	1.580014	-0.000187
 730	7.2535e+01	10.9537	88.247750	0.000679	6.792394	2.301325	-0.000272
 731	7.2635e+01	10.9056	88.049930	0.000497	4.967572	1.683059	-0.000199
 732	7.2734e+01	10.8767	87.803665	0.000618	6.184120	2.095237	-0.000248
 733	7.2834e+01	10.8238	87.565474	0.000598	5.981362	2.026540	-0.000239
 734	7.2933e+01	10.7949	87.367655	0.000497	4.967572	1.683059	-0.000199
 735	7.3033e+01	10.7500	87.117352	0.000629	6.285499	2.129585	-0.000252
 736	7.3132e+01	10.7147	86.850901	0.000669	6.691015	2.266977	-0.000268
 737	7.3232e+01	10.6665	86.685379	0.000416	4.156540	1.408274	-0.000166
 738	7.3332e+01	10.6329	86.414890	0.000679	6.792394	2.301325	-0.000272
 739	7.3431e+01	10.5879	86.184774	0.000578	5.778604	1.957844	-0.000231
 740	7.3531e+01	10.5494	85.995028	0.000476	4.764814	1.614363	-0.000191
 741	7.3630e+01	10.5109	85.732615	0.000659	6.589636	2.232629	-0.000264
 742	7.3730e+01	10.4692	85.498461	0.000588	5.879983	1.992192	-0.000235
 743	7.3829e+01	10.4275	85.264307	0.000588	5.879983	1.992192	-0.000235
 744	7.3928e+01	10.3986	85.030153	0.000588	5.879983	1.992192	-0.000235
 745	7.4028e+01	10.3553	84.787925	0.000608	6.082741	2.060888	-0.000243
 746	7.4127e+01	10.3168	84.582031	0.000517	5.170330	1.751755	-0.000207
 747	7.4227e+01	10.2767	84.323654	0.000649	6.488257	2.198281	-0.000260
 748	7.4326e+01	10.2254	84.037018	0.000720	7.197910	2.438718	-0.000288
 749	7.4426e+01	10.1949	83.810938	0.000568	5.677225	1.923496	-0.000227
 750	7.4525e+01	10.1516	83.625230	0.000466	4.663435	1.580014	-0.000187
 751	7.4625e+01	10.1083	83.366853	0.000649	6.488257	2.198281	-0.000260
 752	7.4725e+01	10.0746	83.148848	0.000547	5.474467	1.854800	-0.000219
 753	7.4824e+01	10.0393	82.918731	0.000578	5.778604	1.957844	-0.000231
 754	7.4924e+01	9.9976	82.619983	0.000750	7.502047	2.541762	-0.000300
 755	7.5023e+01	9.9511	82.397940	0.000558	5.575846	1.889148	-0.000223
 756	7.5123e+01	9.9093	82.200121	0.000497	4.967572	1.683059	-0.000199
 757	7.5222e+01	9.8741	81.949818	0.000629	6.285499	2.129585	-0.000252
 758	7.5322e+01	9.8259	81.703553	0.000618	6.184120	2.095237	-0.000248
 759	7.5421e+01	9.7954	81.485548	0.000547	5.474467	1.854800	-0.000219
 760	7.5520e+01	9.7521	81.271580	0.000537	5.373088	1.820451	-0.000215
 761	7.5620e+01	9.7249	80.976869	0.000740	7.400668	2.507414	-0.000296
 762	7.5719e+01	9.6815	80.750789	0.000568	5.677225	1.923496	-0.000227
 763	7.5819e+01	9.6446	80.512598	0.000598	5.981362	2.026540	-0.000239
 764	7.5918e+01	9.5917	80.282481	0.000578	5.778604	1.957844	-0.000231
 765	7.6018e+01	9.5548	80.020067	0.000659	6.589636	2.232629	-0.000264
 766	7.6118e+01	9.5195	79.798025	0.000558	5.575846	1.889148	-0.000223
 767	7.6217e+01	9.4778	79.535611	0.000659	6.589636	2.232629	-0.000264
 768	7.6317e+01	9.4361	79.313569	0.000558	5.575846	1.889148	-0.000223
 769	7.6416e+01	9.3976	79.075378	0.000598	5.981362	2.026540	-0.000239
 770	7.6516e+01	9.3559	78.829112	0.000618	6.184120	2.095237	-0.000248
 771	7.6615e+01	9.3126	78.582847	0.000618	6.184120	2.095237	-0.000248
 772	7.6715e+01	9.2757	78.344656	0.000598	5.981362	2.026540	-0.000239
 773	7.6814e+01	9.2324	78.106465	0.000598	5.981362	2.026540	-0.000239
 774	7.6913e+01	9.1955	77.856163	0.000629	6.285499	2.129585	-0.000252
 775	7.7013e+01	9.1505	77.601823	0.000639	6.386878	2.163933	-0.000256
 776	7.7112e+01	9.1185	77.343446	0.000649	6.488257	2.198281	-0.000260
 777	7.7212e+01	9.0800	77.121404	0.000558	5.575846	1.889148	-0.000223
 778	7.7311e+01	9.0302	76.879176	0.000608	6.082741	2.060888	-0.000243
 779	7.7411e+01	9.0062	76.632911	0.000618	6.184120	2.095237	-0.000248
 780	7.7510e+01	8.9532	76.386645	0.000618	6.184120	2.095237	-0.000248
 781	7.7610e+01	8.9260	76.112120	0.000689	6.893773	2.335674	-0.000276
 782	7.7710e+01	8.8794	75.890078	0.000558	5.575846	1.889148	-0.000223
 783	7.7809e+01	8.8441	75.623627	0.000669	6.691015	2.266977	-0.000268
 784	7.7909e+01	8.8024	75.381399	0.000608	6.082741	2.060888	-0.000243
 785	7.8008e+01	8.7671	75.110910	0.000679	6.792394	2.301325	-0.000272
 786	7.8108e+01	8.7238	74.880794	0.000578	5.778604	1.957844	-0.000231
 787	7.8207e+01	8.6805	74.662788	0.000547	5.474467	1.854800	-0.000219
 788	7.8306e+01	8.6324	74.380189	0.000710	7.096531	2.404370	-0.000284
 789	7.8406e+01	8.5907	74.158146	0.000558	5.575846	1.889148	-0.000223
 790	7.8505e+01	8.5634	73.895733	0.000659	6.589636	2.232629	-0.000264
 791	7.8605e+01	8.5217	73.637356	0.000649	6.488257	2.198281	-0.000260
 792	7.8704e+01	8.4752	73.387053	0.000629	6.285499	2.129585	-0.000252
 793	7.8804e+01	8.4335	73.144825	0.000608	6.082741	2.060888	-0.000243
 794	7.8903e+01	8.4030	72.938931	0.000517	5.170330	1.751755	-0.000207
 795	7.9003e+01	8.3661	72.656332	0.000710	7.096531	2.404370	-0.000284
 796	7.9103e+01	8.3260	72.410067	0.000618	6.184120	2.095237	-0.000248
 797	7.9202e+01	8.2859	72.143616	0.000669	6.691015	2.266977	-0.000268
 798	7.9302e+01	8.2329	71.917536	0.000568	5.677225	1.923496	-0.000227
 799	7.9401e+01	8.1976	71.683382	0.000588	5.879983	1.992192	-0.000235
 800	7.9501e+01	8.1543	71.437117	0.000618	6.184120	2.095237	-0.000248
 801	7.9600e+01	8.1174	71.158555	0.000700	6.995152	2.370022	-0.000280
 802	7.9700e+01	8.0901	70.924401	0.000588	5.879983	1.992192	-0.000235
 803	7.9799e+01	8.0388	70.666024	0.000649	6.488257	2.198281	-0.000260
 804	7.9898e+01	7.9955	70.383424	0.000710	7.096531	2.404370	-0.000284
 805	7.9998e+01	7.9602	70.129085	0.000639	6.386878	2.163933	-0.000256
 806	8.0097e+01	7.9249	69.915117	0.000537	5.373088	1.820451	-0.000215
 807	8.0197e+01	7.8848	69.648666	0.000669	6.691015	2.266977	-0.000268
 808	8.0296e+01	7.8431	69.394326	0.000639	6.386878	2.163933	-0.000256
 809	8.0396e+01	7.7966	69.152098	0.000608	6.082741	2.060888	-0.000243
 810	8.0496e+01	7.7629	68.897759	0.000639	6.386878	2.163933	-0.000256
 811	8.0595e+01	7.7292	68.651493	0.000618	6.184120	2.095237	-0.000248
 812	8.0695e+01	7.6923	68.441562	0.000527	5.271709	1.786103	-0.000211
 813	8.0794e+01	7.6490	68.138777	0.000760	7.603426	2.576111	-0.000304
 814	8.0894e+01	7.6025	67.896549	0.000608	6.082741	2.060888	-0.000243
 815	8.0993e+01	7.5656	67.617986	0.000700	6.995152	2.370022	-0.000280
 816	8.1093e+01	7.5255	67.387870	0.000578	5.778604	1.957844	-0.000231
 817	8.1192e+01	7.4773	67.133530	0.000639	6.386878	2.163933	-0.000256
 818	8.1291e+01	7.4501	66.863042	0.000679	6.792394	2.301325	-0.000272
 819	8.1391e+01	7.4051	66.620814	0.000608	6.082741	2.060888	-0.000243
 820	8.1490e+01	7.3586	66.394734	0.000568	5.677225	1.923496	-0.000227
 821	8.1590e+01	7.3281	66.128283	0.000669	6.691015	2.266977	-0.000268
 822	8.1689e+01	7.2880	65.882018	0.000618	6.184120	2.095237	-0.000248
 823	8.1789e+01	7.2431	65.619604	0.000659	6.589636	2.232629	-0.000264
 824	8.1888e+01	7.2062	65.369302	0.000629	6.285499	2.129585	-0.000252
 825	8.1988e+01	7.1645	65.078628	0.000730	7.299289	2.473066	-0.000292
 826	8.2088e+01	7.1212	64.844474	0.000588	5.879983	1.992192	-0.000235
 827	8.2187e+01	7.0859	64.561875	0.000710	7.096531	2.404370	-0.000284
 828	8.2287e+01	7.0554	64.319647	0.000608	6.082741	2.060888	-0.000243
 829	8.2386e+01	7.0041	64.065307	0.000639	6.386878	2.163933	-0.000256
 830	8.2486e+01	6.9672	63.786745	0.000700	6.995152	2.370022	-0.000280
 831	8.2585e+01	6.9255	63.540479	0.000618	6.184120	2.095237	-0.000248
 832	8.2684e+01	6.8822	63.298251	0.000608	6.082741	2.060888	-0.000243
 833	8.2784e+01	6.8453	62.995466	0.000760	7.603426	2.576111	-0.000304
 834	8.2883e+01	6.8164	62.789572	0.000517	5.170330	1.751755	-0.000207
 835	8.2983e+01	6.7554	62.511010	0.000700	6.995152	2.370022	-0.000280
 836	8.3082e+01	6.7217	62.240522	0.000679	6.792394	2.301325	-0.000272
 837	8.3182e+01	6.6880	61.974071	0.000669	6.691015	2.266977	-0.000268
 838	8.3281e+01	6.6511	61.727805	0.000618	6.184120	2.095237	-0.000248
 839	8.3381e+01	6.6062	61.449243	0.000700	6.995152	2.370022	-0.000280
 840	8.3481e+01	6.5629	61.182792	0.000669	6.691015	2.266977	-0.000268
 841	8.3580e+01	6.5276	60.940564	0.000608	6.082741	2.060888	-0.000243
 842	8.3680e+01	6.4875	60.653927	0.000720	7.197910	2.438718	-0.000288
 843	8.3779e+01	6.4490	60.419773	0.000588	5.879983	1.992192	-0.000235
 844	8.3879e+01	6.4137	60.173508	0.000618	6.184120	2.095237	-0.000248
 845	8.3978e+01	6.3656	59.907057	0.000669	6.691015	2.266977	-0.000268
 846	8.4078e+01	6.3319	59.636569	0.000679	6.792394	2.301325	-0.000272
 847	8.4177e+01	6.2838	59.374155	0.000659	6.589636	2.232629	-0.000264
 848	8.4276e+01	6.2517	59.099630	0.000689	6.893773	2.335674	-0.000276
 849	8.4376e+01	6.2084	58.841253	0.000649	6.488257	2.198281	-0.000260
 850	8.4475e+01	6.1827	58.578840	0.000659	6.589636	2.232629	-0.000264
 851	8.4575e+01	6.1266	58.332574	0.000618	6.184120	2.095237	-0.000248
 852	8.4674e+01	6.0961	58.009603	0.000811	8.110321	2.747851	-0.000325
 853	8.4774e+01	6.0560	57.787561	0.000558	5.575846	1.889148	-0.000223
 854	8.4874e+01	6.0111	57.529184	0.000649	6.488257	2.198281	-0.000260
 855	8.4973e+01	5.9822	57.262733	0.000669	6.691015	2.266977	-0.000268
 856	8.5073e+01	5.9325	56.992245	0.000679	6.792394	2.301325	-0.000272
 857	8.5172e+01	5.8988	56.741943	0.000629	6.285499	2.129585	-0.000252
 858	8.5272e+01	5.8538	56.451269	0.000730	7.299289	2.473066	-0.000292
 859	8.5371e+01	5.8089	56.164632	0.000720	7.197910	2.438718	-0.000288
 860	8.5471e+01	5.7752	55.930479	0.000588	5.879983	1.992192	-0.000235
 861	8.5570e+01	5.7287	55.655953	0.000689	6.893773	2.335674	-0.000276
 862	8.5669e+01	5.6902	55.377391	0.000700	6.995152	2.370022	-0.000280
 863	8.5769e+01	5.6469	55.147274	0.000578	5.778604	1.957844	-0.000231
 864	8.5868e+01	5.6116	54.816229	0.000831	8.313079	2.816548	-0.000333
 865	8.5968e+01	5.5779	54.569964	0.000618	6.184120	2.095237	-0.000248
 866	8.6067e+01	5.5234	54.347921	0.000558	5.575846	1.889148	-0.000223
 867	8.6167e+01	5.4977	54.105693	0.000608	6.082741	2.060888	-0.000243
 868	8.6266e+01	5.4560	53.798871	0.000770	7.704805	2.610459	-0.000308
 869	8.6366e+01	5.4111	53.532420	0.000669	6.691015	2.266977	-0.000268
 870	8.6466e+01	5.3790	53.278080	0.000639	6.386878	2.163933	-0.000256
 871	8.6565e+01	5.3373	53.039889	0.000598	5.981362	2.026540	-0.000239
 872	8.6665e+01	5.3020	52.749216	0.000730	7.299289	2.473066	-0.000292
 873	8.6764e+01	5.2555	52.478727	0.000679	6.792394	2.301325	-0.000272
 874	8.6864e+01	5.2089	52.204202	0.000689	6.893773	2.335674	-0.000276
 875	8.6963e+01	5.1704	51.937751	0.000669	6.691015	2.266977	-0.000268
 876	8.7063e+01	5.1448	51.634966	0.000760	7.603426	2.576111	-0.000304
 877	8.7162e+01	5.0983	51.356404	0.000700	6.995152	2.370022	-0.000280
 878	8.7261e+01	5.0549	51.118213	0.000598	5.981362	2.026540	-0.000239
 879	8.7361e+01	5.0116	50.779093	0.000852	8.515837	2.885244	-0.000341
 880	8.7460e+01	4.9747	50.585311	0.000487	4.866193	1.648711	-0.000195
 881	8.7560e+01	4.9314	50.282526	0.000760	7.603426	2.576111	-0.000304
 882	8.7659e+01	4.8945	50.028186	0.000639	6.386878	2.163933	-0.000256
 883	8.7759e+01	4.8560	49.737512	0.000730	7.299289	2.473066	-0.000292
 884	8.7859e+01	4.8143	49.507396	0.000578	5.778604	1.957844	-0.000231
 885	8.7958e+01	4.7726	49.196536	0.000781	7.806184	2.644807	-0.000312
 886	8.8058e+01	4.7309	48.962382	0.000588	5.879983	1.992192	-0.000235
 887	8.8157e+01	4.6940	48.671708	0.000730	7.299289	2.473066	-0.000292
 888	8.8257e+01	4.6667	48.389109	0.000710	7.096531	2.404370	-0.000284
 889	8.8356e+01	4.6186	48.086324	0.000760	7.603426	2.576111	-0.000304
 890	8.8456e+01	4.5817	47.856207	0.000578	5.778604	1.957844	-0.000231
 891	8.8555e+01	4.5352	47.589756	0.000669	6.691015	2.266977	-0.000268
 892	8.8654e+01	4.4967	47.327342	0.000659	6.589636	2.232629	-0.000264
 893	8.8754e+01	4.4534	47.036668	0.000730	7.299289	2.473066	-0.000292
 894	8.8853e+01	4.4148	46.750032	0.000720	7.197910	2.438718	-0.000288
 895	8.8953e+01	4.3828	46.495692	0.000639	6.386878	2.163933	-0.000256
 896	8.9052e+01	4.3459	46.217130	0.000700	6.995152	2.370022	-0.000280
 897	8.9152e+01	4.3026	45.950679	0.000669	6.691015	2.266977	-0.000268
 898	8.9251e+01	4.2641	45.700377	0.000629	6.285499	2.129585	-0.000252
 899	8.9351e+01	4.2223	45.393554	0.000770	7.704805	2.610459	-0.000308
 900	8.9451e+01	4.1646	45.147289	0.000618	6.184120	2.095237	-0.000248
 901	8.9550e+01	4.1341	44.872764	0.000689	6.893773	2.335674	-0.000276
 902	8.9650e+01	4.0956	44.569979	0.000760	7.603426	2.576111	-0.000304
 903	8.9749e+01	4.0555	44.311602	0.000649	6.488257	2.198281	-0.000260
 904	8.9849e+01	4.0186	44.049188	0.000659	6.589636	2.232629	-0.000264
 905	8.9948e+01	3.9689	43.778700	0.000679	6.792394	2.301325	-0.000272
 906	9.0047e+01	3.9384	43.451692	0.000821	8.211700	2.782199	-0.000329
 907	9.0147e+01	3.9079	43.165055	0.000720	7.197910	2.438718	-0.000288
 908	9.0246e+01	3.8598	42.934939	0.000578	5.778604	1.957844	-0.000231
 909	9.0346e+01	3.8181	42.680599	0.000639	6.386878	2.163933	-0.000256
 910	9.0445e+01	3.7699	42.422222	0.000649	6.488257	2.198281	-0.000260
 911	9.0545e+01	3.7347	42.147697	0.000689	6.893773	2.335674	-0.000276
 912	9.0644e+01	3.6962	41.861060	0.000720	7.197910	2.438718	-0.000288
 913	9.0744e+01	3.6609	41.570387	0.000730	7.299289	2.473066	-0.000292
 914	9.0844e+01	3.6175	41.299899	0.000679	6.792394	2.301325	-0.000272
 915	9.0943e+01	3.5774	41.053633	0.000618	6.184120	2.095237	-0.000248
 916	9.1043e+01	3.5341	40.750848	0.000760	7.603426	2.576111	-0.000304
 917	9.1142e+01	3.4956	40.508620	0.000608	6.082741	2.060888	-0.000243
 918	9.1242e+01	3.4651	40.205835	0.000760	7.603426	2.576111	-0.000304
 919	9.1341e+01	3.4266	39.943421	0.000659	6.589636	2.232629	-0.000264
 920	9.1441e+01	3.3721	39.668896	0.000689	6.893773	2.335674	-0.000276
 921	9.1540e+01	3.3432	39.398408	0.000679	6.792394	2.301325	-0.000272
 922	9.1639e+01	3.2999	39.135994	0.000659	6.589636	2.232629	-0.000264
 923	9.1739e+01	3.2550	38.817060	0.000801	8.008942	2.713503	-0.000321
 924	9.1838e+01	3.2165	38.550609	0.000669	6.691015	2.266977	-0.000268
 925	9.1938e+01	3.1956	38.292232	0.000649	6.488257	2.198281	-0.000260
 926	9.2037e+01	3.1379	38.041930	0.000629	6.285499	2.129585	-0.000252
 927	9.2137e+01	3.1090	37.763368	0.000700	6.995152	2.370022	-0.000280
 928	9.2237e+01	3.0609	37.464620	0.000750	7.502047	2.541762	-0.000300
 929	9.2336e+01	3.0240	37.186057	0.000700	6.995152	2.370022	-0.000280
 930	9.2436e+01	2.9887	36.943829	0.000608	6.082741	2.060888	-0.000243
 931	9.2535e+01	2.9454	36.649118	0.000740	7.400668	2.507414	-0.000296
 932	9.2635e+01	2.9021	36.366519	0.000710	7.096531	2.404370	-0.000284
 933	9.2734e+01	2.8620	36.148513	0.000547	5.474467	1.854800	-0.000219
 934	9.2834e+01	2.8347	35.849765	0.000750	7.502047	2.541762	-0.000300
 935	9.2933e+01	2.7866	35.571203	0.000700	6.995152	2.370022	-0.000280
 936	9.3032e+01	2.7448	35.280529	0.000730	7.299289	2.473066	-0.000292
 937	9.3132e+01	2.7095	35.010041	0.000679	6.792394	2.301325	-0.000272
 938	9.3231e+01	2.6678	34.763776	0.000618	6.184120	2.095237	-0.000248
 939	9.3331e+01	2.6229	34.456954	0.000770	7.704805	2.610459	-0.000308
 940	9.3430e+01	2.5892	34.190503	0.000669	6.691015	2.266977	-0.000268
 941	9.3530e+01	2.5363	33.895792	0.000740	7.400668	2.507414	-0.000296
 942	9.3629e+01	2.5090	33.641452	0.000639	6.386878	2.163933	-0.000256
 943	9.3729e+01	2.4593	33.370964	0.000679	6.792394	2.301325	-0.000272
 944	9.3829e+01	2.4240	33.084327	0.000720	7.197910	2.438718	-0.000288
 945	9.3928e+01	2.3839	32.825951	0.000649	6.488257	2.198281	-0.000260
 946	9.4028e+01	2.3342	32.575648	0.000629	6.285499	2.129585	-0.000252
 947	9.4127e+01	2.3085	32.252677	0.000811	8.110321	2.747851	-0.000325
 948	9.4227e+01	2.2684	32.010449	0.000608	6.082741	2.060888	-0.000243
 949	9.4326e+01	2.2170	31.707664	0.000760	7.603426	2.576111	-0.000304
 950	9.4425e+01	2.1834	31.433139	0.000689	6.893773	2.335674	-0.000276
 951	9.4525e+01	2.1497	31.182836	0.000629	6.285499	2.129585	-0.000252
 952	9.4624e+01	2.0983	30.892163	0.000730	7.299289	2.473066	-0.000292
 953	9.4724e+01	2.0663	30.605526	0.000720	7.197910	2.438718	-0.000288
 954	9.4823e+01	2.0310	30.355224	0.000629	6.285499	2.129585	-0.000252
 955	9.4923e+01	1.9957	30.076661	0.000700	6.995152	2.370022	-0.000280
 956	9.5022e+01	1.9540	29.790025	0.000720	7.197910	2.438718	-0.000288
 957	9.5122e+01	1.9074	29.523574	0.000669	6.691015	2.266977	-0.000268
 958	9.5222e+01	1.8721	29.236937	0.000720	7.197910	2.438718	-0.000288
 959	9.5321e+01	1.8288	28.990672	0.000618	6.184120	2.095237	-0.000248
 960	9.5421e+01	1.7775	28.704035	0.000720	7.197910	2.438718	-0.000288
 961	9.5520e+01	1.7486	28.421436	0.000710	7.096531	2.404370	-0.000284
 962	9.5620e+01	1.7085	28.094428	0.000821	8.211700	2.782199	-0.000329
 963	9.5719e+01	1.6604	27.892571	0.000507	5.068951	1.717407	-0.000203
 964	9.5819e+01	1.6331	27.593823	0.000750	7.502047	2.541762	-0.000300
 965	9.5918e+01	1.5802	27.331409	0.000659	6.589636	2.232629	-0.000264
 966	9.6017e+01	1.5545	27.016512	0.000791	7.907563	2.679155	-0.000316
 967	9.6117e+01	1.5080	26.754099	0.000659	6.589636	2.232629	-0.000264
 968	9.6216e+01	1.4663	26.523982	0.000578	5.778604	1.957844	-0.000231
 969	9.6316e+01	1.4310	26.225234	0.000750	7.502047	2.541762	-0.000300
 970	9.6415e+01	1.3812	25.922449	0.000760	7.603426	2.576111	-0.000304
 971	9.6515e+01	1.3540	25.672146	0.000629	6.285499	2.129585	-0.000252
 972	9.6615e+01	1.3042	25.421844	0.000629	6.285499	2.129585	-0.000252
 973	9.6714e+01	1.2641	25.131170	0.000730	7.299289	2.473066	-0.000292
 974	9.6814e+01	1.2272	24.844533	0.000720	7.197910	2.438718	-0.000288
 975	9.6913e+01	1.1839	24.578082	0.000669	6.691015	2.266977	-0.000268
 976	9.7013e+01	1.1502	24.295483	0.000710	7.096531	2.404370	-0.000284
 977	9.7112e+01	1.1101	24.012883	0.000710	7.096531	2.404370	-0.000284
 978	9.7212e+01	1.0684	23.734321	0.000700	6.995152	2.370022	-0.000280
 979	9.7311e+01	1.0331	23.467870	0.000669	6.691015	2.266977	-0.000268
 980	9.7410e+01	0.9914	23.157011	0.000781	7.806184	2.644807	-0.000312
 981	9.7510e+01	0.9417	22.922857	0.000588	5.879983	1.992192	-0.000235
 982	9.7609e+01	0.9064	22.652369	0.000679	6.792394	2.301325	-0.000272
 983	9.7709e+01	0.8663	22.353621	0.000750	7.502047	2.541762	-0.000300
 984	9.7808e+01	0.8342	22.075058	0.000700	6.995152	2.370022	-0.000280
 985	9.7908e+01	0.7877	21.792459	0.000710	7.096531	2.404370	-0.000284
 986	9.8007e+01	0.7540	21.538119	0.000639	6.386878	2.163933	-0.000256
 987	9.8107e+01	0.7139	21.251483	0.000720	7.197910	2.438718	-0.000288
 988	9.8207e+01	0.6722	20.989069	0.000659	6.589636	2.232629	-0.000264
 989	9.8306e+01	0.6273	20.718581	0.000679	6.792394	2.301325	-0.000272
 990	9.8406e+01	0.5904	20.411758	0.000770	7.704805	2.610459	-0.000308
 991	9.8505e+01	0.5438	20.133196	0.000700	6.995152	2.370022	-0.000280
 992	9.8605e+01	0.5101	19.890968	0.000608	6.082741	2.060888	-0.000243
 993	9.8704e+01	0.4684	19.584145	0.000770	7.704805	2.610459	-0.000308
 994	9.8803e+01	0.4299	19.293472	0.000730	7.299289	2.473066	-0.000292
 995	9.8903e+01	0.3818	19.014909	0.000700	6.995152	2.370022	-0.000280
 996	9.9002e+01	0.3497	18.764607	0.000629	6.285499	2.129585	-0.000252
 997	9.9102e+01	0.3176	18.453747	0.000781	7.806184	2.644807	-0.000312
 998	9.9201e+01	0.2679	18.183259	0.000679	6.792394	2.301325	-0.000272
 999	9.9301e+01	0.2374	17.896623	0.000720	7.197910	2.438718	-0.000288
1000	9.9400e+01	0.1989	17.654395	0.000608	6.082741	2.060888	-0.000243
1001	9.9500e+01	0.1460	17.319312	0.000841	8.414458	2.850896	-0.000337
1002	9.9600e+01	0.1203	17.060936	0.000649	6.488257	2.198281	-0.000260
1003	9.9699e+01	0.0722	16.782373	0.000700	6.995152	2.370022	-0.000280
1004	9.9799e+01	0.0321	16.467477	0.000791	7.907563	2.679155	-0.000316
1005	9.9898e+01	0.0048	16.269657	0.000497	4.967572	1.683059	-0.000199
1006	9.9998e+01	-0.0417	16.007243	0.000659	6.589636	2.232629	-0.000264
1007	1.0010e+02	-0.0786	15.732718	0.000689	6.893773	2.335674	-0.000276
1008	1.0020e+02	-0.1139	15.474341	0.000649	6.488257	2.198281	-0.000260
1009	1.0030e+02	-0.1572	15.127148	0.000872	8.718595	2.953940	-0.000349
1010	1.0040e+02	-0.1957	14.860697	0.000669	6.691015	2.266977	-0.000268
1011	1.0050e+02	-0.2310	14.634617	0.000568	5.677225	1.923496	-0.000227
1012	1.0059e+02	-0.2743	14.315683	0.000801	8.008942	2.713503	-0.000321
1013	1.0069e+02	-0.3128	14.037121	0.000700	6.995152	2.370022	-0.000280
1014	1.0079e+02	-0.3626	13.758559	0.000700	6.995152	2.370022	-0.000280
1015	1.0089e+02	-0.3914	13.479996	0.000700	6.995152	2.370022	-0.000280
1016	1.0099e+02	-0.4396	13.213545	0.000669	6.691015	2.266977	-0.000268
1017	1.0109e+02	-0.4829	12.910760	0.000760	7.603426	2.576111	-0.000304
1018	1.0119e+02	-0.5150	12.607975	0.000760	7.603426	2.576111	-0.000304
1019	1.0129e+02	-0.5486	12.337487	0.000679	6.792394	2.301325	-0.000272
1020	1.0139e+02	-0.5984	12.066999	0.000679	6.792394	2.301325	-0.000272
1021	1.0149e+02	-0.6433	11.788436	0.000700	6.995152	2.370022	-0.000280
1022	1.0159e+02	-0.6690	11.489688	0.000750	7.502047	2.541762	-0.000300
1023	1.0169e+02	-0.7171	11.223237	0.000669	6.691015	2.266977	-0.000268
1024	1.0179e+02	-0.7572	10.940638	0.000710	7.096531	2.404370	-0.000284
1025	1.0189e+02	-0.7973	10.662075	0.000700	6.995152	2.370022	-0.000280
1026	1.0199e+02	-0.8358	10.355253	0.000770	7.704805	2.610459	-0.000308
1027	1.0209e+02	-0.8823	10.117062	0.000598	5.981362	2.026540	-0.000239
1028	1.0219e+02	-0.9144	9.842537	0.000689	6.893773	2.335674	-0.000276
1029	1.0229e+02	-0.9641	9.507455	0.000841	8.414458	2.850896	-0.000337
1030	1.0239e+02	-0.9994	9.273301	0.000588	5.879983	1.992192	-0.000235
1031	1.0248e+02	-1.0315	8.970516	0.000760	7.603426	2.576111	-0.000304
1032	1.0258e+02	-1.0732	8.663693	0.000770	7.704805	2.610459	-0.000308
1033	1.0268e+02	-1.1182	8.389168	0.000689	6.893773	2.335674	-0.000276
1034	1.0278e+02	-1.1567	8.110606	0.000700	6.995152	2.370022	-0.000280
1035	1.0288e+02	-1.1935	7.868378	0.000608	6.082741	2.060888	-0.000243
1036	1.0298e+02	-1.2321	7.537332	0.000831	8.313079	2.816548	-0.000333
1037	1.0308e+02	-1.2706	7.250696	0.000720	7.197910	2.438718	-0.000288
1038	1.0318e+02	-1.3123	6.980208	0.000679	6.792394	2.301325	-0.000272
1039	1.0328e+02	-1.3604	6.677423	0.000760	7.603426	2.576111	-0.000304
1040	1.0338e+02	-1.3941	6.410972	0.000669	6.691015	2.266977	-0.000268
1041	1.0348e+02	-1.4278	6.156632	0.000639	6.386878	2.163933	-0.000256
1042	1.0358e+02	-1.4759	5.869995	0.000720	7.197910	2.438718	-0.000288
1043	1.0368e+02	-1.5080	5.607582	0.000659	6.589636	2.232629	-0.000264
1044	1.0378e+02	-1.5561	5.284611	0.000811	8.110321	2.747851	-0.000325
1045	1.0388e+02	-1.5898	5.002011	0.000710	7.096531	2.404370	-0.000284
1046	1.0398e+02	-1.6427	4.731523	0.000679	6.792394	2.301325	-0.000272
1047	1.0408e+02	-1.6796	4.404515	0.000821	8.211700	2.782199	-0.000329
1048	1.0418e+02	-1.7181	4.158250	0.000618	6.184120	2.095237	-0.000248
1049	1.0428e+02	-1.7518	3.887762	0.000679	6.792394	2.301325	-0.000272
1050	1.0438e+02	-1.7903	3.605162	0.000710	7.096531	2.404370	-0.000284
1051	1.0447e+02	-1.8288	3.338711	0.000669	6.691015	2.266977	-0.000268
1052	1.0457e+02	-1.8673	3.035926	0.000760	7.603426	2.576111	-0.000304
1053	1.0467e+02	-1.9171	2.745252	0.000730	7.299289	2.473066	-0.000292
1054	1.0477e+02	-1.9491	2.494950	0.000629	6.285499	2.129585	-0.000252
1055	1.0487e+02	-1.9892	2.159868	0.000841	8.414458	2.850896	-0.000337
1056	1.0497e+02	-2.0229	1.881305	0.000700	6.995152	2.370022	-0.000280
1057	1.0507e+02	-2.0679	1.626966	0.000639	6.386878	2.163933	-0.000256
1058	1.0517e+02	-2.1112	1.320143	0.000770	7.704805	2.610459	-0.000308
1059	1.0527e+02	-2.1513	1.102138	0.000547	5.474467	1.854800	-0.000219
1060	1.0537e+02	-2.1914	0.767056	0.000841	8.414458	2.850896	-0.000337
1061	1.0547e+02	-2.2347	0.532902	0.000588	5.879983	1.992192	-0.000235
1062	1.0557e+02	-2.2764	0.238191	0.000740	7.400668	2.507414	-0.000296
1063	1.0567e+02	-2.3053	-0.056520	0.000740	7.400668	2.507414	-0.000296
1064	1.0577e+02	-2.3470	-0.351231	0.000740	7.400668	2.507414	-0.000296
1065	1.0587e+02	-2.3935	-0.641905	0.000730	7.299289	2.473066	-0.000292
1066	1.0597e+02	-2.4272	-0.928541	0.000720	7.197910	2.438718	-0.000288
1067	1.0607e+02	-2.4657	-1.162695	0.000588	5.879983	1.992192	-0.000235
1068	1.0617e+02	-2.5042	-1.465480	0.000760	7.603426	2.576111	-0.000304
1069	1.0627e+02	-2.5523	-1.723857	0.000649	6.488257	2.198281	-0.000260
1070	1.0637e+02	-2.5860	-2.075088	0.000882	8.819974	2.988288	-0.000353
1071	1.0647e+02	-2.6358	-2.317316	0.000608	6.082741	2.060888	-0.000243
1072	1.0656e+02	-2.6710	-2.583767	0.000669	6.691015	2.266977	-0.000268
1073	1.0666e+02	-2.7095	-2.886552	0.000760	7.603426	2.576111	-0.000304
1074	1.0676e+02	-2.7448	-3.144929	0.000649	6.488257	2.198281	-0.000260
1075	1.0686e+02	-2.7849	-3.439640	0.000740	7.400668	2.507414	-0.000296
1076	1.0696e+02	-2.8283	-3.754536	0.000791	7.907563	2.679155	-0.000316
1077	1.0706e+02	-2.8716	-3.952356	0.000497	4.967572	1.683059	-0.000199
1078	1.0716e+02	-2.9165	-4.275327	0.000811	8.110321	2.747851	-0.000325
1079	1.0726e+02	-2.9518	-4.582149	0.000770	7.704805	2.610459	-0.000308
1080	1.0736e+02	-2.9903	-4.812266	0.000578	5.778604	1.957844	-0.000231
1081	1.0746e+02	-3.0304	-5.127162	0.000791	7.907563	2.679155	-0.000316
1082	1.0756e+02	-3.0641	-5.377465	0.000629	6.285499	2.129585	-0.000252
1083	1.0766e+02	-3.1026	-5.692361	0.000791	7.907563	2.679155	-0.000316
1084	1.0776e+02	-3.1475	-5.954775	0.000659	6.589636	2.232629	-0.000264
1085	1.0786e+02	-3.1876	-6.213152	0.000649	6.488257	2.198281	-0.000260
1086	1.0796e+02	-3.2245	-6.483640	0.000679	6.792394	2.301325	-0.000272
1087	1.0806e+02	-3.2662	-6.737980	0.000639	6.386878	2.163933	-0.000256
1088	1.0816e+02	-3.3111	-7.048839	0.000781	7.806184	2.644807	-0.000312
1089	1.0826e+02	-3.3528	-7.287030	0.000598	5.981362	2.026540	-0.000239
1090	1.0836e+02	-3.3833	-7.581741	0.000740	7.400668	2.507414	-0.000296
1091	1.0845e+02	-3.4186	-7.848192	0.000669	6.691015	2.266977	-0.000268
1092	1.0855e+02	-3.4700	-8.114643	0.000669	6.691015	2.266977	-0.000268
1093	1.0865e+02	-3.5052	-8.441651	0.000821	8.211700	2.782199	-0.000329
1094	1.0875e+02	-3.5470	-8.675805	0.000588	5.879983	1.992192	-0.000235
1095	1.0885e+02	-3.5887	-8.946293	0.000679	6.792394	2.301325	-0.000272
1096	1.0895e+02	-3.6256	-9.265227	0.000801	8.008942	2.713503	-0.000321
1097	1.0905e+02	-3.6641	-9.515529	0.000629	6.285499	2.129585	-0.000252
1098	1.0915e+02	-3.7026	-9.781980	0.000669	6.691015	2.266977	-0.000268
1099	1.0925e+02	-3.7427	-10.076691	0.000740	7.400668	2.507414	-0.000296
1100	1.0935e+02	-3.7860	-10.318919	0.000608	6.082741	2.060888	-0.000243
1101	1.0945e+02	-3.8229	-10.645927	0.000821	8.211700	2.782199	-0.000329
1102	1.0955e+02	-3.8646	-10.872007	0.000568	5.677225	1.923496	-0.000227
1103	1.0965e+02	-3.9095	-11.190940	0.000801	8.008942	2.713503	-0.000321
1104	1.0975e+02	-3.9384	-11.449317	0.000649	6.488257	2.198281	-0.000260
1105	1.0985e+02	-3.9849	-11.687508	0.000598	5.981362	2.026540	-0.000239
1106	1.0995e+02	-4.0186	-11.982219	0.000740	7.400668	2.507414	-0.000296
1107	1.1005e+02	-4.0635	-12.248670	0.000669	6.691015	2.266977	-0.000268
1108	1.1015e+02	-4.0988	-12.527232	0.000700	6.995152	2.370022	-0.000280
1109	1.1025e+02	-4.1485	-12.821943	0.000740	7.400668	2.507414	-0.000296
1110	1.1035e+02	-4.1790	-13.080320	0.000649	6.488257	2.198281	-0.000260
1111	1.1044e+02	-4.2255	-13.358882	0.000700	6.995152	2.370022	-0.000280
1112	1.1054e+02	-4.2689	-13.584962	0.000568	5.677225	1.923496	-0.000227
1113	1.1064e+02	-4.3042	-13.932155	0.000872	8.718595	2.953940	-0.000349
1114	1.1074e+02	-4.3411	-14.154198	0.000558	5.575846	1.889148	-0.000223
1115	1.1084e+02	-4.3780	-14.416612	0.000659	6.589636	2.232629	-0.000264
1116	1.1094e+02	-4.4293	-14.707285	0.000730	7.299289	2.473066	-0.000292
1117	1.1104e+02	-4.4582	-14.973736	0.000669	6.691015	2.266977	-0.000268
1118	1.1114e+02	-4.5031	-15.252299	0.000700	6.995152	2.370022	-0.000280
1119	1.1124e+02	-4.5352	-15.502601	0.000629	6.285499	2.129585	-0.000252
1120	1.1134e+02	-4.5849	-15.793275	0.000730	7.299289	2.473066	-0.000292
1121	1.1144e+02	-4.6154	-16.059726	0.000669	6.691015	2.266977	-0.000268
1122	1.1154e+02	-4.6603	-16.301954	0.000608	6.082741	2.060888	-0.000243
1123	1.1164e+02	-4.6956	-16.592628	0.000730	7.299289	2.473066	-0.000292
1124	1.1174e+02	-4.7293	-16.859079	0.000669	6.691015	2.266977	-0.000268
1125	1.1184e+02	-4.7886	-17.101307	0.000608	6.082741	2.060888	-0.000243
1126	1.1194e+02	-4.8239	-17.416204	0.000791	7.907563	2.679155	-0.000316
1127	1.1204e+02	-4.8592	-17.638246	0.000558	5.575846	1.889148	-0.000223
1128	1.1214e+02	-4.9041	-17.924883	0.000720	7.197910	2.438718	-0.000288
1129	1.1224e+02	-4.9426	-18.199408	0.000689	6.893773	2.335674	-0.000276
1130	1.1234e+02	-4.9795	-18.461822	0.000659	6.589636	2.232629	-0.000264
1131	1.1244e+02	-5.0212	-18.768644	0.000770	7.704805	2.610459	-0.000308
1132	1.1253e+02	-5.0598	-18.998761	0.000578	5.778604	1.957844	-0.000231
1133	1.1263e+02	-5.0983	-19.317695	0.000801	8.008942	2.713503	-0.000321
1134	1.1273e+02	-5.1303	-19.580108	0.000659	6.589636	2.232629	-0.000264
1135	1.1283e+02	-5.1769	-19.786002	0.000517	5.170330	1.751755	-0.000207
1136	1.1293e+02	-5.2138	-20.056490	0.000679	6.792394	2.301325	-0.000272
1137	1.1303e+02	-5.2619	-20.302756	0.000618	6.184120	2.095237	-0.000248
1138	1.1313e+02	-5.3020	-20.573244	0.000679	6.792394	2.301325	-0.000272
1139	1.1323e+02	-5.3309	-20.855843	0.000710	7.096531	2.404370	-0.000284
1140	1.1333e+02	-5.3774	-21.081923	0.000568	5.677225	1.923496	-0.000227
1141	1.1343e+02	-5.4127	-21.400857	0.000801	8.008942	2.713503	-0.000321
1142	1.1353e+02	-5.4528	-21.643085	0.000608	6.082741	2.060888	-0.000243
1143	1.1363e+02	-5.4897	-21.921647	0.000700	6.995152	2.370022	-0.000280
1144	1.1373e+02	-5.5394	-22.147727	0.000568	5.677225	1.923496	-0.000227
1145	1.1383e+02	-5.5827	-22.434363	0.000720	7.197910	2.438718	-0.000288
1146	1.1393e+02	-5.6164	-22.668517	0.000588	5.879983	1.992192	-0.000235
1147	1.1403e+02	-5.6629	-22.967265	0.000750	7.502047	2.541762	-0.000300
1148	1.1413e+02	-5.6950	-23.209493	0.000608	6.082741	2.060888	-0.000243
1149	1.1423e+02	-5.7448	-23.500167	0.000730	7.299289	2.473066	-0.000292
1150	1.1433e+02	-5.7833	-23.734321	0.000588	5.879983	1.992192	-0.000235
1151	1.1442e+02	-5.8137	-24.033069	0.000750	7.502047	2.541762	-0.000300
1152	1.1452e+02	-5.8603	-24.307594	0.000689	6.893773	2.335674	-0.000276
1153	1.1462e+02	-5.9020	-24.525600	0.000547	5.474467	1.854800	-0.000219
1154	1.1472e+02	-5.9341	-24.775902	0.000629	6.285499	2.129585	-0.000252
1155	1.1482e+02	-5.9742	-25.050427	0.000689	6.893773	2.335674	-0.000276
1156	1.1492e+02	-6.0207	-25.361287	0.000781	7.806184	2.644807	-0.000312
1157	1.1502e+02	-6.0560	-25.579292	0.000547	5.474467	1.854800	-0.000219
1158	1.1512e+02	-6.1009	-25.886114	0.000770	7.704805	2.610459	-0.000308
1159	1.1522e+02	-6.1394	-26.120268	0.000588	5.879983	1.992192	-0.000235
1160	1.1532e+02	-6.1715	-26.419016	0.000750	7.502047	2.541762	-0.000300
1161	1.1542e+02	-6.2148	-26.701616	0.000710	7.096531	2.404370	-0.000284
1162	1.1552e+02	-6.2581	-26.915584	0.000537	5.373088	1.820451	-0.000215
1163	1.1562e+02	-6.3014	-27.161849	0.000618	6.184120	2.095237	-0.000248
1164	1.1572e+02	-6.3367	-27.436374	0.000689	6.893773	2.335674	-0.000276
1165	1.1582e+02	-6.3768	-27.682640	0.000618	6.184120	2.095237	-0.000248
1166	1.1592e+02	-6.4073	-27.932942	0.000629	6.285499	2.129585	-0.000252
1167	1.1602e+02	-6.4554	-28.211505	0.000700	6.995152	2.370022	-0.000280
1168	1.1612e+02	-6.4939	-28.449696	0.000598	5.981362	2.026540	-0.000239
1169	1.1622e+02	-6.5340	-28.708072	0.000649	6.488257	2.198281	-0.000260
1170	1.1632e+02	-6.5549	-29.031043	0.000811	8.110321	2.747851	-0.000325
1171	1.1642e+02	-6.6030	-29.216751	0.000466	4.663435	1.580014	-0.000187
1172	1.1651e+02	-6.6544	-29.543759	0.000821	8.211700	2.782199	-0.000329
1173	1.1661e+02	-6.6864	-29.773876	0.000578	5.778604	1.957844	-0.000231
1174	1.1671e+02	-6.7378	-30.056476	0.000710	7.096531	2.404370	-0.000284
1175	1.1681e+02	-6.7650	-30.310815	0.000639	6.386878	2.163933	-0.000256
1176	1.1691e+02	-6.8019	-30.589377	0.000700	6.995152	2.370022	-0.000280
1177	1.1701e+02	-6.8517	-30.819494	0.000578	5.778604	1.957844	-0.000231
1178	1.1711e+02	-6.8982	-31.081908	0.000659	6.589636	2.232629	-0.000264
1179	1.1721e+02	-6.9335	-31.368545	0.000720	7.197910	2.438718	-0.000288
1180	1.1731e+02	-6.9592	-31.618847	0.000629	6.285499	2.129585	-0.000252
1181	1.1741e+02	-7.0057	-31.865112	0.000618	6.184120	2.095237	-0.000248
1182	1.1751e+02	-7.0506	-32.127526	0.000659	6.589636	2.232629	-0.000264
1183	1.1761e+02	-7.0891	-32.466646	0.000852	8.515837	2.885244	-0.000341
1184	1.1771e+02	-7.1388	-32.624094	0.000395	3.953782	1.339577	-0.000158
1185	1.1781e+02	-7.1693	-32.951102	0.000821	8.211700	2.782199	-0.000329
1186	1.1791e+02	-7.2014	-33.132773	0.000456	4.562056	1.545666	-0.000183
1187	1.1801e+02	-7.2479	-33.455744	0.000811	8.110321	2.747851	-0.000325
1188	1.1811e+02	-7.2800	-33.685861	0.000578	5.778604	1.957844	-0.000231
1189	1.1821e+02	-7.3362	-33.948274	0.000659	6.589636	2.232629	-0.000264
1190	1.1831e+02	-7.3666	-34.162243	0.000537	5.373088	1.820451	-0.000215
1191	1.1841e+02	-7.4148	-34.477139	0.000791	7.907563	2.679155	-0.000316
1192	1.1850e+02	-7.4452	-34.715330	0.000598	5.981362	2.026540	-0.000239
1193	1.1860e+02	-7.4982	-34.993893	0.000700	6.995152	2.370022	-0.000280
1194	1.1870e+02	-7.5239	-35.248232	0.000639	6.386878	2.163933	-0.000256
1195	1.1880e+02	-7.5752	-35.522757	0.000689	6.893773	2.335674	-0.000276
1196	1.1890e+02	-7.6041	-35.805357	0.000710	7.096531	2.404370	-0.000284
1197	1.1900e+02	-7.6490	-35.995102	0.000476	4.764814	1.614363	-0.000191
1198	1.1910e+02	-7.6859	-36.281739	0.000720	7.197910	2.438718	-0.000288
1199	1.1920e+02	-7.7292	-36.536078	0.000639	6.386878	2.163933	-0.000256
1200	1.1930e+02	-7.7581	-36.762158	0.000568	5.677225	1.923496	-0.000227
1201	1.1940e+02	-7.8174	-37.036683	0.000689	6.893773	2.335674	-0.000276
1202	1.1950e+02	-7.8495	-37.282949	0.000618	6.184120	2.095237	-0.000248
1203	1.1960e+02	-7.8864	-37.529214	0.000618	6.184120	2.095237	-0.000248
1204	1.1970e+02	-7.9169	-37.819888	0.000730	7.299289	2.473066	-0.000292
1205	1.1980e+02	-7.9666	-38.050004	0.000578	5.778604	1.957844	-0.000231
1206	1.1990e+02	-8.0003	-38.324530	0.000689	6.893773	2.335674	-0.000276
1207	1.2000e+02	-8.0420	-38.586943	0.000659	6.589636	2.232629	-0.000264
1208	1.2010e+02	-8.0869	-38.796874	0.000527	5.271709	1.786103	-0.000211
1209	1.2020e+02	-8.1286	-39.067363	0.000679	6.792394	2.301325	-0.000272
1210	1.2030e+02	-8.1720	-39.337851	0.000679	6.792394	2.301325	-0.000272
1211	1.2039e+02	-8.2008	-39.572005	0.000588	5.879983	1.992192	-0.000235
1212	1.2049e+02	-8.2490	-39.806158	0.000588	5.879983	1.992192	-0.000235
1213	1.2059e+02	-8.2794	-40.084721	0.000700	6.995152	2.370022	-0.000280
1214	1.2069e+02	-8.3308	-40.339060	0.000639	6.386878	2.163933	-0.000256
1215	1.2079e+02	-8.3613	-40.613586	0.000689	6.893773	2.335674	-0.000276
1216	1.2089e+02	-8.4110	-40.875999	0.000659	6.589636	2.232629	-0.000264
1217	1.2099e+02	-8.4399	-41.134376	0.000649	6.488257	2.198281	-0.000260
1218	1.2109e+02	-8.4864	-41.408901	0.000689	6.893773	2.335674	-0.000276
1219	1.2119e+02	-8.5249	-41.626907	0.000547	5.474467	1.854800	-0.000219
1220	1.2129e+02	-8.5666	-41.861060	0.000588	5.879983	1.992192	-0.000235
1221	1.2139e+02	-8.6003	-42.099251	0.000598	5.981362	2.026540	-0.000239
1222	1.2149e+02	-8.6452	-42.361665	0.000659	6.589636	2.232629	-0.000264
1223	1.2159e+02	-8.6837	-42.611968	0.000629	6.285499	2.129585	-0.000252
1224	1.2169e+02	-8.7222	-42.886493	0.000689	6.893773	2.335674	-0.000276
1225	1.2179e+02	-8.7655	-43.161018	0.000689	6.893773	2.335674	-0.000276
1226	1.2189e+02	-8.7992	-43.403246	0.000608	6.082741	2.060888	-0.000243
1227	1.2199e+02	-8.8393	-43.661623	0.000649	6.488257	2.198281	-0.000260
1228	1.2209e+02	-8.8858	-43.899814	0.000598	5.981362	2.026540	-0.000239
1229	1.2219e+02	-8.9211	-44.146079	0.000618	6.184120	2.095237	-0.000248
1230	1.2229e+02	-8.9628	-44.404456	0.000649	6.488257	2.198281	-0.000260
1231	1.2239e+02	-9.0062	-44.670907	0.000669	6.691015	2.266977	-0.000268
1232	1.2248e+02	-9.0527	-44.905061	0.000588	5.879983	1.992192	-0.000235
1233	1.2258e+02	-9.0848	-45.191697	0.000720	7.197910	2.438718	-0.000288
1234	1.2268e+02	-9.1265	-45.385480	0.000487	4.866193	1.648711	-0.000195
1235	1.2278e+02	-9.1666	-45.688265	0.000760	7.603426	2.576111	-0.000304
1236	1.2288e+02	-9.2003	-45.873973	0.000466	4.663435	1.580014	-0.000187
1237	1.2298e+02	-9.2372	-46.152536	0.000700	6.995152	2.370022	-0.000280
1238	1.2308e+02	-9.2853	-46.414950	0.000659	6.589636	2.232629	-0.000264
1239	1.2318e+02	-9.3254	-46.677363	0.000659	6.589636	2.232629	-0.000264
1240	1.2328e+02	-9.3591	-46.887294	0.000527	5.271709	1.786103	-0.000211
1241	1.2338e+02	-9.4056	-47.182005	0.000740	7.400668	2.507414	-0.000296
1242	1.2348e+02	-9.4377	-47.400011	0.000547	5.474467	1.854800	-0.000219
1243	1.2358e+02	-9.4730	-47.634165	0.000588	5.879983	1.992192	-0.000235
1244	1.2368e+02	-9.5275	-47.912727	0.000700	6.995152	2.370022	-0.000280
1245	1.2378e+02	-9.5596	-48.126695	0.000537	5.373088	1.820451	-0.000215
1246	1.2388e+02	-9.6045	-48.368923	0.000608	6.082741	2.060888	-0.000243
1247	1.2398e+02	-9.6302	-48.639411	0.000679	6.792394	2.301325	-0.000272
1248	1.2408e+02	-9.6799	-48.869528	0.000578	5.778604	1.957844	-0.000231
1249	1.2418e+02	-9.7281	-49.103682	0.000588	5.879983	1.992192	-0.000235
1250	1.2428e+02	-9.7553	-49.345910	0.000608	6.082741	2.060888	-0.000243
1251	1.2438e+02	-9.7954	-49.636584	0.000730	7.299289	2.473066	-0.000292
1252	1.2447e+02	-9.8356	-49.850552	0.000537	5.373088	1.820451	-0.000215
1253	1.2457e+02	-9.8853	-50.056446	0.000517	5.170330	1.751755	-0.000207
1254	1.2467e+02	-9.9270	-50.347120	0.000730	7.299289	2.473066	-0.000292
1255	1.2477e+02	-9.9575	-50.565125	0.000547	5.474467	1.854800	-0.000219
1256	1.2487e+02	-10.0008	-50.795242	0.000578	5.778604	1.957844	-0.000231
1257	1.2497e+02	-10.0393	-51.085916	0.000730	7.299289	2.473066	-0.000292
1258	1.2507e+02	-10.0874	-51.275661	0.000476	4.764814	1.614363	-0.000191
1259	1.2517e+02	-10.1163	-51.493666	0.000547	5.474467	1.854800	-0.000219
1260	1.2527e+02	-10.1676	-51.752043	0.000649	6.488257	2.198281	-0.000260
1261	1.2537e+02	-10.1965	-52.022531	0.000679	6.792394	2.301325	-0.000272
1262	1.2547e+02	-10.2350	-52.252648	0.000578	5.778604	1.957844	-0.000231
1263	1.2557e+02	-10.2863	-52.486802	0.000588	5.879983	1.992192	-0.000235
1264	1.2567e+02	-10.3168	-52.696733	0.000527	5.271709	1.786103	-0.000211
1265	1.2577e+02	-10.3553	-52.942998	0.000618	6.184120	2.095237	-0.000248
1266	1.2587e+02	-10.3954	-53.217523	0.000689	6.893773	2.335674	-0.000276
1267	1.2597e+02	-10.4307	-53.451677	0.000588	5.879983	1.992192	-0.000235
1268	1.2607e+02	-10.4788	-53.685831	0.000588	5.879983	1.992192	-0.000235
1269	1.2617e+02	-10.5093	-53.903836	0.000547	5.474467	1.854800	-0.000219
1270	1.2627e+02	-10.5526	-54.093582	0.000476	4.764814	1.614363	-0.000191
1271	1.2636e+02	-10.6008	-54.384256	0.000730	7.299289	2.473066	-0.000292
1272	1.2646e+02	-10.6393	-54.626484	0.000608	6.082741	2.060888	-0.000243
1273	1.2656e+02	-10.6746	-54.844489	0.000547	5.474467	1.854800	-0.000219
1274	1.2666e+02	-10.7179	-55.114977	0.000679	6.792394	2.301325	-0.000272
1275	1.2676e+02	-10.7564	-55.337020	0.000558	5.575846	1.889148	-0.000223
1276	1.2686e+02	-10.7981	-55.571173	0.000588	5.879983	1.992192	-0.000235
1277	1.2696e+02	-10.8398	-55.777067	0.000517	5.170330	1.751755	-0.000207
1278	1.2706e+02	-10.8767	-56.071778	0.000740	7.400668	2.507414	-0.000296
1279	1.2716e+02	-10.9072	-56.293821	0.000558	5.575846	1.889148	-0.000223
1280	1.2726e+02	-10.9633	-56.515863	0.000558	5.575846	1.889148	-0.000223
1281	1.2736e+02	-10.9954	-56.725794	0.000527	5.271709	1.786103	-0.000211
1282	1.2746e+02	-11.0451	-57.024542	0.000750	7.502047	2.541762	-0.000300
1283	1.2756e+02	-11.0772	-57.270808	0.000618	6.184120	2.095237	-0.000248
1284	1.2766e+02	-11.1077	-57.460553	0.000476	4.764814	1.614363	-0.000191
1285	1.2776e+02	-11.1574	-57.710855	0.000629	6.285499	2.129585	-0.000252
1286	1.2786e+02	-11.1927	-57.932898	0.000558	5.575846	1.889148	-0.000223
1287	1.2796e+02	-11.2280	-58.175126	0.000608	6.082741	2.060888	-0.000243
1288	1.2806e+02	-11.2794	-58.389094	0.000537	5.373088	1.820451	-0.000215
1289	1.2816e+02	-11.3082	-58.627285	0.000598	5.981362	2.026540	-0.000239
1290	1.2826e+02	-11.3548	-58.901810	0.000689	6.893773	2.335674	-0.000276
1291	1.2835e+02	-11.3981	-59.103667	0.000507	5.068951	1.717407	-0.000203
1292	1.2845e+02	-11.4334	-59.345895	0.000608	6.082741	2.060888	-0.000243
1293	1.2855e+02	-11.4687	-59.551789	0.000517	5.170330	1.751755	-0.000207
1294	1.2865e+02	-11.5072	-59.802092	0.000629	6.285499	2.129585	-0.000252
1295	1.2875e+02	-11.5521	-60.024134	0.000558	5.575846	1.889148	-0.000223
1296	1.2885e+02	-11.5922	-60.286548	0.000659	6.589636	2.232629	-0.000264
1297	1.2895e+02	-11.6195	-60.460145	0.000436	4.359298	1.476970	-0.000174
1298	1.2905e+02	-11.6724	-60.702373	0.000608	6.082741	2.060888	-0.000243
1299	1.2915e+02	-11.7205	-61.001121	0.000750	7.502047	2.541762	-0.000300
1300	1.2925e+02	-11.7478	-61.186829	0.000466	4.663435	1.580014	-0.000187
1301	1.2935e+02	-11.7879	-61.376575	0.000476	4.764814	1.614363	-0.000191
1302	1.2945e+02	-11.8296	-61.634951	0.000649	6.488257	2.198281	-0.000260
1303	1.2955e+02	-11.8729	-61.885254	0.000629	6.285499	2.129585	-0.000252
1304	1.2965e+02	-11.9098	-62.111333	0.000568	5.677225	1.923496	-0.000227
1305	1.2975e+02	-11.9563	-62.341450	0.000578	5.778604	1.957844	-0.000231
1306	1.2985e+02	-11.9965	-62.567530	0.000568	5.677225	1.923496	-0.000227
1307	1.2995e+02	-12.0285	-62.785535	0.000547	5.474467	1.854800	-0.000219
1308	1.3005e+02	-12.0702	-63.027763	0.000608	6.082741	2.060888	-0.000243
1309	1.3015e+02	-12.1104	-63.213471	0.000466	4.663435	1.580014	-0.000187
1310	1.3025e+02	-12.1569	-63.447625	0.000588	5.879983	1.992192	-0.000235
1311	1.3034e+02	-12.1858	-63.689853	0.000608	6.082741	2.060888	-0.000243
1312	1.3044e+02	-12.2371	-63.915933	0.000568	5.677225	1.923496	-0.000227
1313	1.3054e+02	-12.2692	-64.150087	0.000588	5.879983	1.992192	-0.000235
1314	1.3064e+02	-12.3189	-64.384241	0.000588	5.879983	1.992192	-0.000235
1315	1.3074e+02	-12.3430	-64.586098	0.000507	5.068951	1.717407	-0.000203
1316	1.3084e+02	-12.4007	-64.852548	0.000669	6.691015	2.266977	-0.000268
1317	1.3094e+02	-12.4248	-65.062480	0.000527	5.271709	1.786103	-0.000211
1318	1.3104e+02	-12.4697	-65.300671	0.000598	5.981362	2.026540	-0.000239
1319	1.3114e+02	-12.5034	-65.470230	0.000426	4.257919	1.442622	-0.000170
1320	1.3124e+02	-12.5387	-65.712458	0.000608	6.082741	2.060888	-0.000243
1321	1.3134e+02	-12.5980	-65.958724	0.000618	6.184120	2.095237	-0.000248
1322	1.3144e+02	-12.6237	-66.200952	0.000608	6.082741	2.060888	-0.000243
1323	1.3154e+02	-12.6670	-66.431069	0.000578	5.778604	1.957844	-0.000231
1324	1.3164e+02	-12.7071	-66.669260	0.000598	5.981362	2.026540	-0.000239
1325	1.3174e+02	-12.7488	-66.850931	0.000456	4.562056	1.545666	-0.000183
1326	1.3184e+02	-12.7793	-67.077010	0.000568	5.677225	1.923496	-0.000227
1327	1.3194e+02	-12.8274	-67.359610	0.000710	7.096531	2.404370	-0.000284
1328	1.3204e+02	-12.8740	-67.529169	0.000426	4.257919	1.442622	-0.000170
1329	1.3214e+02	-12.8948	-67.767360	0.000598	5.981362	2.026540	-0.000239
1330	1.3224e+02	-12.9494	-68.017663	0.000629	6.285499	2.129585	-0.000252
1331	1.3234e+02	-12.9847	-68.231631	0.000537	5.373088	1.820451	-0.000215
1332	1.3243e+02	-13.0328	-68.445599	0.000537	5.373088	1.820451	-0.000215
1333	1.3253e+02	-13.0697	-68.683790	0.000598	5.981362	2.026540	-0.000239
1334	1.3263e+02	-13.1018	-68.921981	0.000598	5.981362	2.026540	-0.000239
1335	1.3273e+02	-13.1419	-69.176321	0.000639	6.386878	2.163933	-0.000256
1336	1.3283e+02	-13.1756	-69.366066	0.000476	4.764814	1.614363	-0.000191
1337	1.3293e+02	-13.2221	-69.620406	0.000639	6.386878	2.163933	-0.000256
1338	1.3303e+02	-13.2622	-69.810151	0.000476	4.764814	1.614363	-0.000191
1339	1.3313e+02	-13.3039	-70.048342	0.000598	5.981362	2.026540	-0.000239
1340	1.3323e+02	-13.3472	-70.306719	0.000649	6.488257	2.198281	-0.000260
1341	1.3333e+02	-13.3889	-70.520687	0.000537	5.373088	1.820451	-0.000215
1342	1.3343e+02	-13.4178	-70.754841	0.000588	5.879983	1.992192	-0.000235
1343	1.3353e+02	-13.4740	-70.956698	0.000507	5.068951	1.717407	-0.000203
1344	1.3363e+02	-13.4980	-71.202963	0.000618	6.184120	2.095237	-0.000248
1345	1.3373e+02	-13.5413	-71.352337	0.000375	3.751024	1.270881	-0.000150
1346	1.3383e+02	-13.5798	-71.634937	0.000710	7.096531	2.404370	-0.000284
1347	1.3393e+02	-13.6231	-71.844868	0.000527	5.271709	1.786103	-0.000211
1348	1.3403e+02	-13.6697	-72.050762	0.000517	5.170330	1.751755	-0.000207
1349	1.3413e+02	-13.7018	-72.369695	0.000801	8.008942	2.713503	-0.000321
1350	1.3423e+02	-13.7419	-72.567515	0.000497	4.967572	1.683059	-0.000199
1351	1.3432e+02	-13.7884	-72.757260	0.000476	4.764814	1.614363	-0.000191
1352	1.3442e+02	-13.8221	-72.983340	0.000568	5.677225	1.923496	-0.000227
1353	1.3452e+02	-13.8734	-73.201345	0.000547	5.474467	1.854800	-0.000219
1354	1.3462e+02	-13.9183	-73.467796	0.000669	6.691015	2.266977	-0.000268
1355	1.3472e+02	-13.9456	-73.669653	0.000507	5.068951	1.717407	-0.000203
1356	1.3482e+02	-13.9905	-73.887658	0.000547	5.474467	1.854800	-0.000219
1357	1.3492e+02	-14.0322	-74.137961	0.000629	6.285499	2.129585	-0.000252
1358	1.3502e+02	-14.0643	-74.372115	0.000588	5.879983	1.992192	-0.000235
1359	1.3512e+02	-14.1044	-74.553786	0.000456	4.562056	1.545666	-0.000183
1360	1.3522e+02	-14.1429	-74.864645	0.000781	7.806184	2.644807	-0.000312
1361	1.3532e+02	-14.1798	-75.078613	0.000537	5.373088	1.820451	-0.000215
1362	1.3542e+02	-14.2135	-75.244136	0.000416	4.156540	1.408274	-0.000166
1363	1.3552e+02	-14.2616	-75.502513	0.000649	6.488257	2.198281	-0.000260
1364	1.3562e+02	-14.3065	-75.728592	0.000568	5.677225	1.923496	-0.000227
1365	1.3572e+02	-14.3434	-75.982932	0.000639	6.386878	2.163933	-0.000256
1366	1.3582e+02	-14.3852	-76.233234	0.000629	6.285499	2.129585	-0.000252
1367	1.3592e+02	-14.4221	-76.435091	0.000507	5.068951	1.717407	-0.000203
1368	1.3602e+02	-14.4525	-76.697505	0.000659	6.589636	2.232629	-0.000264
1369	1.3612e+02	-14.5007	-76.907436	0.000527	5.271709	1.786103	-0.000211
1370	1.3622e+02	-14.5392	-77.137553	0.000578	5.778604	1.957844	-0.000231
1371	1.3631e+02	-14.5809	-77.331335	0.000487	4.866193	1.648711	-0.000195
1372	1.3641e+02	-14.6226	-77.617972	0.000720	7.197910	2.438718	-0.000288
1373	1.3651e+02	-14.6595	-77.807717	0.000476	4.764814	1.614363	-0.000191
1374	1.3661e+02	-14.6932	-78.053982	0.000618	6.184120	2.095237	-0.000248
1375	1.3671e+02	-14.7413	-78.259876	0.000517	5.170330	1.751755	-0.000207
1376	1.3681e+02	-14.7750	-78.481919	0.000558	5.575846	1.889148	-0.000223
1377	1.3691e+02	-14.8167	-78.732221	0.000629	6.285499	2.129585	-0.000252
1378	1.3701e+02	-14.8552	-78.994635	0.000659	6.589636	2.232629	-0.000264
1379	1.3711e+02	-14.9017	-79.208603	0.000537	5.373088	1.820451	-0.000215
1380	1.3721e+02	-14.9466	-79.471017	0.000659	6.589636	2.232629	-0.000264
1381	1.3731e+02	-14.9835	-79.689022	0.000547	5.474467	1.854800	-0.000219
1382	1.3741e+02	-15.0204	-79.927213	0.000598	5.981362	2.026540	-0.000239
1383	1.3751e+02	-15.0557	-80.177516	0.000629	6.285499	2.129585	-0.000252
1384	1.3761e+02	-15.0958	-80.411670	0.000588	5.879983	1.992192	-0.000235
1385	1.3771e+02	-15.1440	-80.645824	0.000588	5.879983	1.992192	-0.000235
1386	1.3781e+02	-15.1760	-80.884015	0.000598	5.981362	2.026540	-0.000239
1387	1.3791e+02	-15.2226	-81.134317	0.000629	6.285499	2.129585	-0.000252
1388	1.3801e+02	-15.2482	-81.303877	0.000426	4.257919	1.442622	-0.000170
1389	1.3811e+02	-15.3092	-81.598588	0.000740	7.400668	2.507414	-0.000296
1390	1.3821e+02	-15.3333	-81.865038	0.000669	6.691015	2.266977	-0.000268
1391	1.3831e+02	-15.3798	-82.079007	0.000537	5.373088	1.820451	-0.000215
1392	1.3840e+02	-15.4263	-82.313161	0.000588	5.879983	1.992192	-0.000235
1393	1.3850e+02	-15.4568	-82.563463	0.000629	6.285499	2.129585	-0.000252
1394	1.3860e+02	-15.4969	-82.801654	0.000598	5.981362	2.026540	-0.000239
1395	1.3870e+02	-15.5386	-83.047919	0.000618	6.184120	2.095237	-0.000248
1396	1.3880e+02	-15.5787	-83.318407	0.000679	6.792394	2.301325	-0.000272
1397	1.3890e+02	-15.6124	-83.528338	0.000527	5.271709	1.786103	-0.000211
1398	1.3900e+02	-15.6525	-83.766529	0.000598	5.981362	2.026540	-0.000239
1399	1.3910e+02	-15.6846	-84.073352	0.000770	7.704805	2.610459	-0.000308
1400	1.3920e+02	-15.7359	-84.250986	0.000446	4.460677	1.511318	-0.000179
1401	1.3930e+02	-15.7776	-84.525511	0.000689	6.893773	2.335674	-0.000276
1402	1.3940e+02	-15.8097	-84.755628	0.000578	5.778604	1.957844	-0.000231
1403	1.3950e+02	-15.8434	-85.042264	0.000720	7.197910	2.438718	-0.000288
1404	1.3960e+02	-15.8883	-85.248158	0.000517	5.170330	1.751755	-0.000207
1405	1.3970e+02	-15.9397	-85.538832	0.000730	7.299289	2.473066	-0.000292
1406	1.3980e+02	-15.9750	-85.760874	0.000558	5.575846	1.889148	-0.000223
1407	1.3990e+02	-16.0070	-86.063660	0.000760	7.603426	2.576111	-0.000304
1408	1.4000e+02	-16.0600	-86.317999	0.000639	6.386878	2.163933	-0.000256
1409	1.4010e+02	-16.0985	-86.552153	0.000588	5.879983	1.992192	-0.000235
1410	1.4020e+02	-16.1338	-86.798418	0.000618	6.184120	2.095237	-0.000248
1411	1.4029e+02	-16.1642	-87.044684	0.000618	6.184120	2.095237	-0.000248
1412	1.4039e+02	-16.2188	-87.286912	0.000608	6.082741	2.060888	-0.000243
1413	1.4049e+02	-16.2541	-87.585660	0.000750	7.502047	2.541762	-0.000300
1414	1.4059e+02	-16.2958	-87.827888	0.000608	6.082741	2.060888	-0.000243
1415	1.4069e+02	-16.3263	-88.086265	0.000649	6.488257	2.198281	-0.000260
1416	1.4079e+02	-16.3712	-88.356753	0.000679	6.792394	2.301325	-0.000272
1417	1.4089e+02	-16.4161	-88.578795	0.000558	5.575846	1.889148	-0.000223
1418	1.4099e+02	-16.4530	-88.877543	0.000750	7.502047	2.541762	-0.000300
1419	1.4109e+02	-16.4883	-89.160143	0.000710	7.096531	2.404370	-0.000284
1420	1.4119e+02	-16.5412	-89.386222	0.000568	5.677225	1.923496	-0.000227
1421	1.4129e+02	-16.5701	-89.668822	0.000710	7.096531	2.404370	-0.000284
1422	1.4139e+02	-16.6166	-89.955459	0.000720	7.197910	2.438718	-0.000288
1423	1.4149e+02	-16.6535	-90.201724	0.000618	6.184120	2.095237	-0.000248
1424	1.4159e+02	-16.6953	-90.504509	0.000760	7.603426	2.576111	-0.000304
1425	1.4169e+02	-16.7321	-90.787108	0.000710	7.096531	2.404370	-0.000284
1426	1.4179e+02	-16.7723	-91.045485	0.000649	6.488257	2.198281	-0.000260
1427	1.4189e+02	-16.8140	-91.340196	0.000740	7.400668	2.507414	-0.000296
1428	1.4199e+02	-16.8573	-91.550127	0.000527	5.271709	1.786103	-0.000211
1429	1.4209e+02	-16.8894	-91.877135	0.000821	8.211700	2.782199	-0.000329
1430	1.4219e+02	-16.9247	-92.151660	0.000689	6.893773	2.335674	-0.000276
1431	1.4228e+02	-16.9664	-92.426186	0.000689	6.893773	2.335674	-0.000276
1432	1.4238e+02	-17.0081	-92.741082	0.000791	7.907563	2.679155	-0.000316
1433	1.4248e+02	-17.0514	-93.051942	0.000781	7.806184	2.644807	-0.000312
1434	1.4258e+02	-17.0915	-93.294170	0.000608	6.082741	2.060888	-0.000243
1435	1.4268e+02	-17.1380	-93.609066	0.000791	7.907563	2.679155	-0.000316
1436	1.4278e+02	-17.1685	-93.887629	0.000700	6.995152	2.370022	-0.000280
1437	1.4288e+02	-17.2086	-94.182340	0.000740	7.400668	2.507414	-0.000296
1438	1.4298e+02	-17.2487	-94.493199	0.000781	7.806184	2.644807	-0.000312
1439	1.4308e+02	-17.2920	-94.791947	0.000750	7.502047	2.541762	-0.000300
1440	1.4318e+02	-17.3305	-95.078584	0.000720	7.197910	2.438718	-0.000288
1441	1.4328e+02	-17.3642	-95.417703	0.000852	8.515837	2.885244	-0.000341
1442	1.4338e+02	-17.4011	-95.712414	0.000740	7.400668	2.507414	-0.000296
1443	1.4348e+02	-17.4412	-95.986939	0.000689	6.893773	2.335674	-0.000276
1444	1.4358e+02	-17.4926	-96.313947	0.000821	8.211700	2.782199	-0.000329
1445	1.4368e+02	-17.5278	-96.640955	0.000821	8.211700	2.782199	-0.000329
1446	1.4378e+02	-17.5663	-96.951815	0.000781	7.806184	2.644807	-0.000312
1447	1.4388e+02	-17.6032	-97.262674	0.000781	7.806184	2.644807	-0.000312
1448	1.4398e+02	-17.6466	-97.577571	0.000791	7.907563	2.679155	-0.000316
1449	1.4408e+02	-17.6835	-97.912653	0.000841	8.414458	2.850896	-0.000337
1450	1.4418e+02	-17.7236	-98.243698	0.000831	8.313079	2.816548	-0.000333
1451	1.4428e+02	-17.7589	-98.570706	0.000821	8.211700	2.782199	-0.000329
1452	1.4437e+02	-17.8086	-98.942123	0.000933	9.326869	3.160029	-0.000373
1453	1.4447e+02	-17.8439	-99.236834	0.000740	7.400668	2.507414	-0.000296
1454	1.4457e+02	-17.8824	-99.579990	0.000862	8.617216	2.919592	-0.000345
1455	1.4467e+02	-17.9209	-99.931221	0.000882	8.819974	2.988288	-0.000353
1456	1.4477e+02	-17.9674	-100.258229	0.000821	8.211700	2.782199	-0.000329
1457	1.4487e+02	-18.0075	-100.629645	0.000933	9.326869	3.160029	-0.000373
1458	1.4497e+02	-18.0428	-100.976839	0.000872	8.718595	2.953940	-0.000349
1459	1.4507e+02	-18.0877	-101.324033	0.000872	8.718595	2.953940	-0.000349
1460	1.4517e+02	-18.1166	-101.602595	0.000700	6.995152	2.370022	-0.000280
1461	1.4527e+02	-18.1663	-102.034569	0.001085	10.847555	3.675251	-0.000434
1462	1.4537e+02	-18.2064	-102.385799	0.000882	8.819974	2.988288	-0.000353
1463	1.4547e+02	-18.2417	-102.728956	0.000862	8.617216	2.919592	-0.000345
1464	1.4557e+02	-18.2802	-103.104410	0.000943	9.428248	3.194377	-0.000377
1465	1.4567e+02	-18.3139	-103.487938	0.000963	9.631007	3.263073	-0.000385
1466	1.4577e+02	-18.3669	-103.855317	0.000923	9.225490	3.125681	-0.000369
1467	1.4587e+02	-18.4022	-104.246919	0.000983	9.833765	3.331770	-0.000394
1468	1.4597e+02	-18.4503	-104.630447	0.000963	9.631007	3.263073	-0.000385
1469	1.4607e+02	-18.4872	-105.005901	0.000943	9.428248	3.194377	-0.000377
1470	1.4617e+02	-18.5321	-105.421726	0.001044	10.442039	3.537858	-0.000418
1471	1.4626e+02	-18.5658	-105.768919	0.000872	8.718595	2.953940	-0.000349
1472	1.4636e+02	-18.6027	-106.176670	0.001024	10.239281	3.469162	-0.000410
1473	1.4646e+02	-18.6412	-106.580383	0.001014	10.137902	3.434814	-0.000406
1474	1.4656e+02	-18.6829	-106.980060	0.001004	10.036523	3.400466	-0.000402
1475	1.4666e+02	-18.7230	-107.375699	0.000994	9.935144	3.366118	-0.000398
1476	1.4676e+02	-18.7663	-107.811710	0.001095	10.948934	3.709599	-0.000438
1477	1.4686e+02	-18.7984	-108.219461	0.001024	10.239281	3.469162	-0.000410
1478	1.4696e+02	-18.8401	-108.631248	0.001034	10.340660	3.503510	-0.000414
1479	1.4706e+02	-18.8866	-109.075333	0.001115	11.151692	3.778295	-0.000446
1480	1.4716e+02	-18.9283	-109.503270	0.001075	10.746176	3.640903	-0.000430
1481	1.4726e+02	-18.9620	-109.931206	0.001075	10.746176	3.640903	-0.000430
1482	1.4736e+02	-19.0053	-110.330883	0.001004	10.036523	3.400466	-0.000402
1483	1.4746e+02	-19.0422	-110.791116	0.001156	11.557208	3.915688	-0.000463
1484	1.4756e+02	-19.0920	-111.271535	0.001206	12.064103	4.087429	-0.000483
1485	1.4766e+02	-19.1192	-111.695434	0.001064	10.644797	3.606555	-0.000426
1486	1.4776e+02	-19.1658	-112.183928	0.001227	12.266861	4.156125	-0.000491
1487	1.4786e+02	-19.2075	-112.632050	0.001125	11.253071	3.812644	-0.000450
1488	1.4796e+02	-19.2396	-113.124581	0.001237	12.368240	4.190473	-0.000495
1489	1.4806e+02	-19.2861	-113.552517	0.001075	10.746176	3.640903	-0.000430
1490	1.4816e+02	-19.3166	-114.065233	0.001288	12.875135	4.362214	-0.000515
1491	1.4825e+02	-19.3663	-114.521429	0.001146	11.455829	3.881340	-0.000458
1492	1.4835e+02	-19.3984	-115.001849	0.001206	12.064103	4.087429	-0.000483
1493	1.4845e+02	-19.4545	-115.530713	0.001328	13.280651	4.499606	-0.000532
1494	1.4855e+02	-19.4770	-116.011133	0.001206	12.064103	4.087429	-0.000483
1495	1.4865e+02	-19.5283	-116.487515	0.001196	11.962724	4.053081	-0.000479
1496	1.4875e+02	-19.5476	-117.016379	0.001328	13.280651	4.499606	-0.000532
1497	1.4885e+02	-19.5957	-117.553318	0.001348	13.483409	4.568303	-0.000540
1498	1.4895e+02	-19.6422	-118.029700	0.001196	11.962724	4.053081	-0.000479
1499	1.4905e+02	-19.6871	-118.602974	0.001440	14.395820	4.877436	-0.000576
1500	1.4915e+02	-19.7176	-119.111653	0.001277	12.773756	4.327866	-0.000511
1501	1.4925e+02	-19.7609	-119.676852	0.001419	14.193062	4.808740	-0.000568
1502	1.4935e+02	-19.8043	-120.217828	0.001358	13.584788	4.602651	-0.000544
1503	1.4945e+02	-19.8556	-120.762841	0.001369	13.686167	4.636999	-0.000548
1504	1.4955e+02	-19.8813	-121.328040	0.001419	14.193062	4.808740	-0.000568
1505	1.4965e+02	-19.9230	-121.860942	0.001338	13.382030	4.533955	-0.000536
1506	1.4975e+02	-19.9518	-122.434216	0.001440	14.395820	4.877436	-0.000576
1507	1.4985e+02	-19.9887	-123.007489	0.001440	14.395820	4.877436	-0.000576
1508	1.4995e+02	-19.9631	-123.277977	-0.000679	-6.792394	-2.301325	-0.000272
1509	1.5005e+02	-19.9198	-123.479834	-0.000507	-5.068951	-1.717407	-0.000203
1510	1.5015e+02	-19.8797	-123.697839	-0.000547	-5.474467	-1.854800	-0.000219
1511	1.5025e+02	-19.8347	-123.907770	-0.000527	-5.271709	-1.786103	-0.000211
1512	1.5034e+02	-19.7914	-124.020810	-0.000284	-2.838612	-0.961748	-0.000114
1513	1.5044e+02	-19.7593	-124.174221	-0.000385	-3.852403	-1.305229	-0.000154
1514	1.5054e+02	-19.7208	-124.327632	-0.000385	-3.852403	-1.305229	-0.000154
1515	1.5064e+02	-19.6775	-124.456821	-0.000324	-3.244129	-1.099140	-0.000130
1516	1.5074e+02	-19.6326	-124.581972	-0.000314	-3.142749	-1.064792	-0.000126
1517	1.5084e+02	-19.6182	-124.715197	-0.000335	-3.345508	-1.133489	-0.000134
1518	1.5094e+02	-19.5652	-124.775754	-0.000152	-1.520685	-0.515222	-0.000061
1519	1.5104e+02	-19.5139	-124.868608	-0.000233	-2.331717	-0.790007	-0.000093
1520	1.5114e+02	-19.4722	-124.933203	-0.000162	-1.622064	-0.549570	-0.000065
1521	1.5124e+02	-19.4385	-125.001834	-0.000172	-1.723443	-0.583918	-0.000069
1522	1.5134e+02	-19.4064	-125.050279	-0.000122	-1.216548	-0.412178	-0.000049
1523	1.5144e+02	-19.3535	-125.074502	-0.000061	-0.608274	-0.206089	-0.000024
1524	1.5154e+02	-19.3182	-125.118911	-0.000112	-1.115169	-0.377830	-0.000045
1525	1.5164e+02	-19.2877	-125.183505	-0.000162	-1.622064	-0.549570	-0.000065
1526	1.5174e+02	-19.2444	-125.187542	-0.000010	-0.101379	-0.034348	-0.000004
1527	1.5184e+02	-19.1995	-125.231951	-0.000112	-1.115169	-0.377830	-0.000045
1528	1.5194e+02	-19.1594	-125.179468	0.000132	1.317927	0.446526	0.000053
1529	1.5204e+02	-19.1225	-125.211765	-0.000081	-0.811032	-0.274785	-0.000032
1530	1.5214e+02	-19.0791	-125.191579	0.000051	0.506895	0.171741	0.000020
1531	1.5224e+02	-19.0455	-125.203691	-0.000030	-0.304137	-0.103044	-0.000012
1532	1.5233e+02	-18.9989	-125.155245	0.000122	1.216548	0.412178	0.000049
1533	1.5243e+02	-18.9556	-125.131022	0.000061	0.608274	0.206089	0.000024
1534	1.5253e+02	-18.9219	-125.122948	0.000020	0.202758	0.068696	0.000008
1535	1.5263e+02	-18.8866	-125.058354	0.000162	1.622064	0.549570	0.000065
1536	1.5273e+02	-18.8417	-125.030094	0.000071	0.709653	0.240437	0.000028
1537	1.5283e+02	-18.7920	-125.034131	-0.000010	-0.101379	-0.034348	-0.000004
1538	1.5293e+02	-18.7519	-124.921091	0.000284	2.838612	0.961748	0.000114
1539	1.5303e+02	-18.7310	-124.908980	0.000030	0.304137	0.103044	0.000012
1540	1.5313e+02	-18.6877	-124.820163	0.000223	2.230338	0.755659	0.000089
1541	1.5323e+02	-18.6412	-124.767680	0.000132	1.317927	0.446526	0.000053
1542	1.5333e+02	-18.6075	-124.711160	0.000142	1.419306	0.480874	0.000057
1543	1.5343e+02	-18.5610	-124.646566	0.000162	1.622064	0.549570	0.000065
1544	1.5353e+02	-18.5209	-124.594083	0.000132	1.317927	0.446526	0.000053
1545	1.5363e+02	-18.4888	-124.468932	0.000314	3.142749	1.064792	0.000126
1546	1.5373e+02	-18.4455	-124.408375	0.000152	1.520685	0.515222	0.000061
1547	1.5383e+02	-18.4006	-124.343781	0.000162	1.622064	0.549570	0.000065
1548	1.5393e+02	-18.3797	-124.295335	0.000122	1.216548	0.412178	0.000049
1549	1.5403e+02	-18.3332	-124.121738	0.000436	4.359298	1.476970	0.000174
1550	1.5413e+02	-18.2850	-124.077330	0.000112	1.115169	0.377830	0.000045
1551	1.5422e+02	-18.2546	-123.984476	0.000233	2.331717	0.790007	0.000093
1552	1.5432e+02	-18.2064	-123.899696	0.000213	2.128959	0.721311	0.000085
1553	1.5442e+02	-18.1695	-123.790693	0.000274	2.737233	0.927400	0.000110
1554	1.5452e+02	-18.1246	-123.697839	0.000233	2.331717	0.790007	0.000093
1555	1.5462e+02	-18.0893	-123.604985	0.000233	2.331717	0.790007	0.000093
1556	1.5472e+02	-18.0364	-123.463685	0.000355	3.548266	1.202185	0.000142
1557	1.5482e+02	-18.0075	-123.386980	0.000193	1.926201	0.652615	0.000077
1558	1.5492e+02	-17.9594	-123.273940	0.000284	2.838612	0.961748	0.000114
1559	1.5502e+02	-17.9241	-123.152826	0.000304	3.041370	1.030444	0.000122
1560	1.5512e+02	-17.8856	-123.059972	0.000233	2.331717	0.790007	0.000093
1561	1.5522e+02	-17.8423	-122.946932	0.000284	2.838612	0.961748	0.000114
1562	1.5532e+02	-17.8102	-122.821781	0.000314	3.142749	1.064792	0.000126
1563	1.5542e+02	-17.7653	-122.684518	0.000345	3.446887	1.167837	0.000138
1564	1.5552e+02	-17.7300	-122.607812	0.000193	1.926201	0.652615	0.000077
1565	1.5562e+02	-17.6947	-122.474587	0.000335	3.345508	1.133489	0.000134
1566	1.5572e+02	-17.6434	-122.345399	0.000324	3.244129	1.099140	0.000130
1567	1.5582e+02	-17.6081	-122.204099	0.000355	3.548266	1.202185	0.000142
1568	1.5592e+02	-17.5760	-122.082985	0.000304	3.041370	1.030444	0.000122
1569	1.5602e+02	-17.5278	-121.917462	0.000416	4.156540	1.408274	0.000166
1570	1.5612e+02	-17.4845	-121.804422	0.000284	2.838612	0.961748	0.000114
1571	1.5622e+02	-17.4541	-121.679271	0.000314	3.142749	1.064792	0.000126
1572	1.5631e+02	-17.4091	-121.550083	0.000324	3.244129	1.099140	0.000130
1573	1.5641e+02	-17.3658	-121.428969	0.000304	3.041370	1.030444	0.000122
1574	1.5651e+02	-17.3289	-121.303818	0.000314	3.142749	1.064792	0.000126
1575	1.5661e+02	-17.2936	-121.158481	0.000365	3.649645	1.236533	0.000146
1576	1.5671e+02	-17.2519	-120.968735	0.000476	4.764814	1.614363	0.000191
1577	1.5681e+02	-17.2150	-120.900104	0.000172	1.723443	0.583918	0.000069
1578	1.5691e+02	-17.1733	-120.770916	0.000324	3.244129	1.099140	0.000130
1579	1.5701e+02	-17.1332	-120.560985	0.000527	5.271709	1.786103	0.000211
1580	1.5711e+02	-17.0899	-120.472168	0.000223	2.230338	0.755659	0.000089
1581	1.5721e+02	-17.0450	-120.318756	0.000385	3.852403	1.305229	0.000154
1582	1.5731e+02	-17.0209	-120.133048	0.000466	4.663435	1.580014	0.000187
1583	1.5741e+02	-16.9712	-120.040194	0.000233	2.331717	0.790007	0.000093
1584	1.5751e+02	-16.9359	-119.842374	0.000497	4.967572	1.683059	0.000199
1585	1.5761e+02	-16.8910	-119.705112	0.000345	3.446887	1.167837	0.000138
1586	1.5771e+02	-16.8541	-119.583998	0.000304	3.041370	1.030444	0.000122
1587	1.5781e+02	-16.8124	-119.426549	0.000395	3.953782	1.339577	0.000158
1588	1.5791e+02	-16.7706	-119.285250	0.000355	3.548266	1.202185	0.000142
1589	1.5801e+02	-16.7370	-119.147987	0.000345	3.446887	1.167837	0.000138
1590	1.5811e+02	-16.6969	-118.954205	0.000487	4.866193	1.648711	0.000195
1591	1.5821e+02	-16.6439	-118.776571	0.000446	4.460677	1.511318	0.000179
1592	1.5830e+02	-16.6182	-118.675642	0.000253	2.534475	0.858704	0.000101
1593	1.5840e+02	-16.5733	-118.526268	0.000375	3.751024	1.270881	0.000150
1594	1.5850e+02	-16.5332	-118.340560	0.000466	4.663435	1.580014	0.000187
1595	1.5860e+02	-16.4883	-118.187149	0.000385	3.852403	1.305229	0.000154
1596	1.5870e+02	-16.4466	-118.029700	0.000395	3.953782	1.339577	0.000158
1597	1.5880e+02	-16.4161	-117.864178	0.000416	4.156540	1.408274	0.000166
1598	1.5890e+02	-16.3808	-117.730952	0.000335	3.345508	1.133489	0.000134
1599	1.5900e+02	-16.3279	-117.573504	0.000395	3.953782	1.339577	0.000158
1600	1.5910e+02	-16.2910	-117.383759	0.000476	4.764814	1.614363	0.000191
1601	1.5920e+02	-16.2541	-117.230348	0.000385	3.852403	1.305229	0.000154
1602	1.5930e+02	-16.2124	-117.085011	0.000365	3.649645	1.236533	0.000146
1603	1.5940e+02	-16.1803	-116.903340	0.000456	4.562056	1.545666	0.000183
1604	1.5950e+02	-16.1370	-116.753966	0.000375	3.751024	1.270881	0.000150
1605	1.5960e+02	-16.0889	-116.535960	0.000547	5.474467	1.854800	0.000219
1606	1.5970e+02	-16.0600	-116.422920	0.000284	2.838612	0.961748	0.000114
1607	1.5980e+02	-16.0151	-116.241249	0.000456	4.562056	1.545666	0.000183
1608	1.5990e+02	-15.9750	-116.103987	0.000345	3.446887	1.167837	0.000138
1609	1.6000e+02	-15.9381	-115.914241	0.000476	4.764814	1.614363	0.000191
1610	1.6010e+02	-15.8899	-115.748719	0.000416	4.156540	1.408274	0.000166
1611	1.6019e+02	-15.8530	-115.635679	0.000284	2.838612	0.961748	0.000114
1612	1.6029e+02	-15.8113	-115.466119	0.000426	4.257919	1.442622	0.000170
1613	1.6039e+02	-15.7840	-115.284448	0.000456	4.562056	1.545666	0.000183
1614	1.6049e+02	-15.7407	-115.054331	0.000578	5.778604	1.957844	0.000231
1615	1.6059e+02	-15.7054	-114.949366	0.000264	2.635854	0.893052	0.000105
1616	1.6069e+02	-15.6589	-114.759620	0.000476	4.764814	1.614363	0.000191
1617	1.6079e+02	-15.6172	-114.634469	0.000314	3.142749	1.064792	0.000126
1618	1.6089e+02	-15.5787	-114.408390	0.000568	5.677225	1.923496	0.000227
1619	1.6099e+02	-15.5322	-114.259016	0.000375	3.751024	1.270881	0.000150
1620	1.6109e+02	-15.4905	-114.069270	0.000476	4.764814	1.614363	0.000191
1621	1.6119e+02	-15.4552	-113.887599	0.000456	4.562056	1.545666	0.000183
1622	1.6129e+02	-15.4183	-113.734188	0.000385	3.852403	1.305229	0.000154
1623	1.6139e+02	-15.3814	-113.552517	0.000456	4.562056	1.545666	0.000183
1624	1.6149e+02	-15.3381	-113.403143	0.000375	3.751024	1.270881	0.000150
1625	1.6159e+02	-15.2915	-113.241657	0.000406	4.055161	1.373926	0.000162
1626	1.6169e+02	-15.2611	-113.035764	0.000517	5.170330	1.751755	0.000207
1627	1.6179e+02	-15.2210	-112.870241	0.000416	4.156540	1.408274	0.000166
1628	1.6189e+02	-15.1776	-112.700681	0.000426	4.257919	1.442622	0.000170
1629	1.6199e+02	-15.1359	-112.535159	0.000416	4.156540	1.408274	0.000166
1630	1.6209e+02	-15.1039	-112.321191	0.000537	5.373088	1.820451	0.000215
1631	1.6219e+02	-15.0589	-112.192002	0.000324	3.244129	1.099140	0.000130
1632	1.6228e+02	-15.0140	-111.949774	0.000608	6.082741	2.060888	0.000243
1633	1.6238e+02	-14.9771	-111.792326	0.000395	3.953782	1.339577	0.000158
1634	1.6248e+02	-14.9354	-111.598543	0.000487	4.866193	1.648711	0.000195
1635	1.6258e+02	-14.8985	-111.433021	0.000416	4.156540	1.408274	0.000166
1636	1.6268e+02	-14.8664	-111.295758	0.000345	3.446887	1.167837	0.000138
1637	1.6278e+02	-14.8183	-111.081790	0.000537	5.373088	1.820451	0.000215
1638	1.6288e+02	-14.7846	-110.883970	0.000497	4.967572	1.683059	0.000199
1639	1.6298e+02	-14.7429	-110.706336	0.000446	4.460677	1.511318	0.000179
1640	1.6308e+02	-14.6916	-110.552925	0.000385	3.852403	1.305229	0.000154
1641	1.6318e+02	-14.6611	-110.371254	0.000456	4.562056	1.545666	0.000183
1642	1.6328e+02	-14.6210	-110.197657	0.000436	4.359298	1.476970	0.000174
1643	1.6338e+02	-14.5809	-109.975615	0.000558	5.575846	1.889148	0.000223
1644	1.6348e+02	-14.5408	-109.797981	0.000446	4.460677	1.511318	0.000179
1645	1.6358e+02	-14.5023	-109.688978	0.000274	2.737233	0.927400	0.000110
1646	1.6368e+02	-14.4606	-109.470973	0.000547	5.474467	1.854800	0.000219
1647	1.6378e+02	-14.4221	-109.309487	0.000406	4.055161	1.373926	0.000162
1648	1.6388e+02	-14.3787	-109.083408	0.000568	5.677225	1.923496	0.000227
1649	1.6398e+02	-14.3418	-108.917885	0.000416	4.156540	1.408274	0.000166
1650	1.6408e+02	-14.2985	-108.740251	0.000446	4.460677	1.511318	0.000179
1651	1.6418e+02	-14.2616	-108.550506	0.000476	4.764814	1.614363	0.000191
1652	1.6427e+02	-14.2215	-108.356723	0.000487	4.866193	1.648711	0.000195
1653	1.6437e+02	-14.1686	-108.158904	0.000497	4.967572	1.683059	0.000199
1654	1.6447e+02	-14.1509	-107.993381	0.000416	4.156540	1.408274	0.000166
1655	1.6457e+02	-14.0964	-107.791524	0.000507	5.068951	1.717407	0.000203
1656	1.6467e+02	-14.0627	-107.634076	0.000395	3.953782	1.339577	0.000158
1657	1.6477e+02	-14.0210	-107.432219	0.000507	5.068951	1.717407	0.000203
1658	1.6487e+02	-13.9825	-107.222288	0.000527	5.271709	1.786103	0.000211
1659	1.6497e+02	-13.9392	-107.089063	0.000335	3.345508	1.133489	0.000134
1660	1.6507e+02	-13.9007	-106.891243	0.000497	4.967572	1.683059	0.000199
1661	1.6517e+02	-13.8590	-106.685349	0.000517	5.170330	1.751755	0.000207
1662	1.6527e+02	-13.8189	-106.556161	0.000324	3.244129	1.099140	0.000130
1663	1.6537e+02	-13.7868	-106.330081	0.000568	5.677225	1.923496	0.000227
1664	1.6547e+02	-13.7370	-106.144373	0.000466	4.663435	1.580014	0.000187
1665	1.6557e+02	-13.7066	-105.954627	0.000476	4.764814	1.614363	0.000191
1666	1.6567e+02	-13.6649	-105.776993	0.000446	4.460677	1.511318	0.000179
1667	1.6577e+02	-13.6312	-105.575137	0.000507	5.068951	1.717407	0.000203
1668	1.6587e+02	-13.5798	-105.421726	0.000385	3.852403	1.305229	0.000154
1669	1.6597e+02	-13.5494	-105.219869	0.000507	5.068951	1.717407	0.000203
1670	1.6607e+02	-13.4932	-105.030123	0.000476	4.764814	1.614363	0.000191
1671	1.6616e+02	-13.4547	-104.804044	0.000568	5.677225	1.923496	0.000227
1672	1.6626e+02	-13.4178	-104.638521	0.000416	4.156540	1.408274	0.000166
1673	1.6636e+02	-13.3873	-104.472999	0.000416	4.156540	1.408274	0.000166
1674	1.6646e+02	-13.3488	-104.246919	0.000568	5.677225	1.923496	0.000227
1675	1.6656e+02	-13.3087	-104.081396	0.000416	4.156540	1.408274	0.000166
1676	1.6666e+02	-13.2606	-103.932022	0.000375	3.751024	1.270881	0.000150
1677	1.6676e+02	-13.2301	-103.730166	0.000507	5.068951	1.717407	0.000203
1678	1.6686e+02	-13.1868	-103.512160	0.000547	5.474467	1.854800	0.000219
1679	1.6696e+02	-13.1467	-103.314341	0.000497	4.967572	1.683059	0.000199
1680	1.6706e+02	-13.1050	-103.156892	0.000395	3.953782	1.339577	0.000158
1681	1.6716e+02	-13.0713	-102.963110	0.000487	4.866193	1.648711	0.000195
1682	1.6726e+02	-13.0376	-102.785476	0.000446	4.460677	1.511318	0.000179
1683	1.6736e+02	-12.9782	-102.632065	0.000385	3.852403	1.305229	0.000154
1684	1.6746e+02	-12.9542	-102.401948	0.000578	5.778604	1.957844	0.000231
1685	1.6756e+02	-12.9061	-102.208165	0.000487	4.866193	1.648711	0.000195
1686	1.6766e+02	-12.8659	-102.042643	0.000416	4.156540	1.408274	0.000166
1687	1.6776e+02	-12.8274	-101.848860	0.000487	4.866193	1.648711	0.000195
1688	1.6786e+02	-12.7889	-101.671226	0.000446	4.460677	1.511318	0.000179
1689	1.6796e+02	-12.7408	-101.441110	0.000578	5.778604	1.957844	0.000231
1690	1.6806e+02	-12.7039	-101.275587	0.000416	4.156540	1.408274	0.000166
1691	1.6816e+02	-12.6542	-101.101990	0.000436	4.359298	1.476970	0.000174
1692	1.6825e+02	-12.6349	-100.916282	0.000466	4.663435	1.580014	0.000187
1693	1.6835e+02	-12.5916	-100.706351	0.000527	5.271709	1.786103	0.000211
1694	1.6845e+02	-12.5531	-100.524680	0.000456	4.562056	1.545666	0.000183
1695	1.6855e+02	-12.5098	-100.286489	0.000598	5.981362	2.026540	0.000239
1696	1.6865e+02	-12.4729	-100.133078	0.000385	3.852403	1.305229	0.000154
1697	1.6875e+02	-12.4296	-99.911035	0.000558	5.575846	1.889148	0.000223
1698	1.6885e+02	-12.3927	-99.737438	0.000436	4.359298	1.476970	0.000174
1699	1.6895e+02	-12.3526	-99.535582	0.000507	5.068951	1.717407	0.000203
1700	1.6905e+02	-12.3045	-99.398319	0.000345	3.446887	1.167837	0.000138
1701	1.6915e+02	-12.2660	-99.156091	0.000608	6.082741	2.060888	0.000243
1702	1.6925e+02	-12.2355	-98.950197	0.000517	5.170330	1.751755	0.000207
1703	1.6935e+02	-12.1841	-98.744303	0.000517	5.170330	1.751755	0.000207
1704	1.6945e+02	-12.1456	-98.586855	0.000395	3.953782	1.339577	0.000158
1705	1.6955e+02	-12.1120	-98.360775	0.000568	5.677225	1.923496	0.000227
1706	1.6965e+02	-12.0702	-98.166993	0.000487	4.866193	1.648711	0.000195
1707	1.6975e+02	-12.0430	-97.997433	0.000426	4.257919	1.442622	0.000170
1708	1.6985e+02	-11.9804	-97.771353	0.000568	5.677225	1.923496	0.000227
1709	1.6995e+02	-11.9467	-97.605831	0.000416	4.156540	1.408274	0.000166
1710	1.7005e+02	-11.9066	-97.408011	0.000497	4.967572	1.683059	0.000199
1711	1.7015e+02	-11.8649	-97.181931	0.000568	5.677225	1.923496	0.000227
1712	1.7024e+02	-11.8312	-97.016409	0.000416	4.156540	1.408274	0.000166
1713	1.7034e+02	-11.7959	-96.830701	0.000466	4.663435	1.580014	0.000187
1714	1.7044e+02	-11.7398	-96.612695	0.000547	5.474467	1.854800	0.000219
1715	1.7054e+02	-11.7205	-96.431024	0.000456	4.562056	1.545666	0.000183
1716	1.7064e+02	-11.6740	-96.196870	0.000588	5.879983	1.992192	0.000235
1717	1.7074e+02	-11.6307	-96.003088	0.000487	4.866193	1.648711	0.000195
1718	1.7084e+02	-11.5890	-95.829491	0.000436	4.359298	1.476970	0.000174
1719	1.7094e+02	-11.5617	-95.672043	0.000395	3.953782	1.339577	0.000158
1720	1.7104e+02	-11.5168	-95.393480	0.000700	6.995152	2.370022	0.000280
1721	1.7114e+02	-11.4719	-95.231995	0.000406	4.055161	1.373926	0.000162
1722	1.7124e+02	-11.4189	-95.038212	0.000487	4.866193	1.648711	0.000195
1723	1.7134e+02	-11.3949	-94.828281	0.000527	5.271709	1.786103	0.000211
1724	1.7144e+02	-11.3564	-94.618350	0.000527	5.271709	1.786103	0.000211
1725	1.7154e+02	-11.3098	-94.460902	0.000395	3.953782	1.339577	0.000158
1726	1.7164e+02	-11.2681	-94.267119	0.000487	4.866193	1.648711	0.000195
1727	1.7174e+02	-11.2312	-94.065263	0.000507	5.068951	1.717407	0.000203
1728	1.7184e+02	-11.1991	-93.843220	0.000558	5.575846	1.889148	0.000223
1729	1.7194e+02	-11.1558	-93.673661	0.000426	4.257919	1.442622	0.000170
1730	1.7204e+02	-11.1221	-93.415284	0.000649	6.488257	2.198281	0.000260
1731	1.7213e+02	-11.0724	-93.233613	0.000456	4.562056	1.545666	0.000183
1732	1.7223e+02	-11.0451	-93.055979	0.000446	4.460677	1.511318	0.000179
1733	1.7233e+02	-10.9938	-92.854122	0.000507	5.068951	1.717407	0.000203
1734	1.7243e+02	-10.9585	-92.611894	0.000608	6.082741	2.060888	0.000243
1735	1.7253e+02	-10.9168	-92.466557	0.000365	3.649645	1.236533	0.000146
1736	1.7263e+02	-10.8719	-92.196069	0.000679	6.792394	2.301325	0.000272
1737	1.7273e+02	-10.8446	-92.038621	0.000395	3.953782	1.339577	0.000158
1738	1.7283e+02	-10.7997	-91.832727	0.000517	5.170330	1.751755	0.000207
1739	1.7293e+02	-10.7564	-91.642981	0.000476	4.764814	1.614363	0.000191
1740	1.7303e+02	-10.7211	-91.396716	0.000618	6.184120	2.095237	0.000248
1741	1.7313e+02	-10.6746	-91.211008	0.000466	4.663435	1.580014	0.000187
1742	1.7323e+02	-10.6409	-91.021262	0.000476	4.764814	1.614363	0.000191
1743	1.7333e+02	-10.5927	-90.807294	0.000537	5.373088	1.820451	0.000215
1744	1.7343e+02	-10.5575	-90.609475	0.000497	4.967572	1.683059	0.000199
1745	1.7353e+02	-10.5206	-90.371283	0.000598	5.981362	2.026540	0.000239
1746	1.7363e+02	-10.4708	-90.205761	0.000416	4.156540	1.408274	0.000166
1747	1.7373e+02	-10.4371	-89.967570	0.000598	5.981362	2.026540	0.000239
1748	1.7383e+02	-10.3906	-89.777825	0.000476	4.764814	1.614363	0.000191
1749	1.7393e+02	-10.3569	-89.531559	0.000618	6.184120	2.095237	0.000248
1750	1.7403e+02	-10.3120	-89.357962	0.000436	4.359298	1.476970	0.000174
1751	1.7413e+02	-10.2815	-89.156106	0.000507	5.068951	1.717407	0.000203
1752	1.7422e+02	-10.2398	-88.934063	0.000558	5.575846	1.889148	0.000223
1753	1.7432e+02	-10.2061	-88.716058	0.000547	5.474467	1.854800	0.000219
1754	1.7442e+02	-10.1628	-88.514201	0.000507	5.068951	1.717407	0.000203
1755	1.7452e+02	-10.1099	-88.308307	0.000517	5.170330	1.751755	0.000207
1756	1.7462e+02	-10.0762	-88.086265	0.000558	5.575846	1.889148	0.000223
1757	1.7472e+02	-10.0329	-87.900556	0.000466	4.663435	1.580014	0.000187
1758	1.7482e+02	-9.9992	-87.617957	0.000710	7.096531	2.404370	0.000284
1759	1.7492e+02	-9.9607	-87.496843	0.000304	3.041370	1.030444	0.000122
1760	1.7502e+02	-9.9174	-87.226355	0.000679	6.792394	2.301325	0.000272
1761	1.7512e+02	-9.8757	-87.004312	0.000558	5.575846	1.889148	0.000223
1762	1.7522e+02	-9.8339	-86.782270	0.000558	5.575846	1.889148	0.000223
1763	1.7532e+02	-9.8019	-86.616747	0.000416	4.156540	1.408274	0.000166
1764	1.7542e+02	-9.7602	-86.366445	0.000629	6.285499	2.129585	0.000252
1765	1.7552e+02	-9.7200	-86.196885	0.000426	4.257919	1.442622	0.000170
1766	1.7562e+02	-9.6751	-85.938508	0.000649	6.488257	2.198281	0.000260
1767	1.7572e+02	-9.6302	-85.768949	0.000426	4.257919	1.442622	0.000170
1768	1.7582e+02	-9.6013	-85.522683	0.000618	6.184120	2.095237	0.000248
1769	1.7592e+02	-9.5596	-85.304678	0.000547	5.474467	1.854800	0.000219
1770	1.7602e+02	-9.5275	-85.078599	0.000568	5.677225	1.923496	0.000227
1771	1.7612e+02	-9.4858	-84.884816	0.000487	4.866193	1.648711	0.000195
1772	1.7621e+02	-9.4473	-84.638551	0.000618	6.184120	2.095237	0.000248
1773	1.7631e+02	-9.4008	-84.456880	0.000456	4.562056	1.545666	0.000183
1774	1.7641e+02	-9.3591	-84.234837	0.000558	5.575846	1.889148	0.000223
1775	1.7651e+02	-9.3238	-84.012795	0.000558	5.575846	1.889148	0.000223
1776	1.7661e+02	-9.2757	-83.802864	0.000527	5.271709	1.786103	0.000211
1777	1.7671e+02	-9.2324	-83.592933	0.000527	5.271709	1.786103	0.000211
1778	1.7681e+02	-9.1971	-83.362816	0.000578	5.778604	1.957844	0.000231
1779	1.7691e+02	-9.1586	-83.132699	0.000578	5.778604	1.957844	0.000231
1780	1.7701e+02	-9.1217	-82.926805	0.000517	5.170330	1.751755	0.000207
1781	1.7711e+02	-9.0912	-82.704763	0.000558	5.575846	1.889148	0.000223
1782	1.7721e+02	-9.0431	-82.470609	0.000588	5.879983	1.992192	0.000235
1783	1.7731e+02	-8.9933	-82.256641	0.000537	5.373088	1.820451	0.000215
1784	1.7741e+02	-8.9709	-82.046710	0.000527	5.271709	1.786103	0.000211
1785	1.7751e+02	-8.9260	-81.800444	0.000618	6.184120	2.095237	0.000248
1786	1.7761e+02	-8.8858	-81.630885	0.000426	4.257919	1.442622	0.000170
1787	1.7771e+02	-8.8425	-81.324062	0.000770	7.704805	2.610459	0.000308
1788	1.7781e+02	-8.8072	-81.118168	0.000517	5.170330	1.751755	0.000207
1789	1.7791e+02	-8.7623	-80.908237	0.000527	5.271709	1.786103	0.000211
1790	1.7801e+02	-8.7270	-80.754826	0.000385	3.852403	1.305229	0.000154
1791	1.7810e+02	-8.6773	-80.468190	0.000720	7.197910	2.438718	0.000288
1792	1.7820e+02	-8.6452	-80.254221	0.000537	5.373088	1.820451	0.000215
1793	1.7830e+02	-8.6035	-80.011993	0.000608	6.082741	2.060888	0.000243
1794	1.7840e+02	-8.5634	-79.810136	0.000507	5.068951	1.717407	0.000203
1795	1.7850e+02	-8.5297	-79.600205	0.000527	5.271709	1.786103	0.000211
1796	1.7860e+02	-8.4832	-79.382200	0.000547	5.474467	1.854800	0.000219
1797	1.7870e+02	-8.4399	-79.152083	0.000578	5.778604	1.957844	0.000231
1798	1.7880e+02	-8.3966	-78.909855	0.000608	6.082741	2.060888	0.000243
1799	1.7890e+02	-8.3597	-78.671664	0.000598	5.981362	2.026540	0.000239
1800	1.7900e+02	-8.3292	-78.469807	0.000507	5.068951	1.717407	0.000203
1801	1.7910e+02	-8.2778	-78.211431	0.000649	6.488257	2.198281	0.000260
1802	1.7920e+02	-8.2409	-78.017648	0.000487	4.866193	1.648711	0.000195
1803	1.7930e+02	-8.2057	-77.771383	0.000618	6.184120	2.095237	0.000248
1804	1.7940e+02	-8.1704	-77.569526	0.000507	5.068951	1.717407	0.000203
1805	1.7950e+02	-8.1174	-77.331335	0.000598	5.981362	2.026540	0.000239
1806	1.7960e+02	-8.0853	-77.085070	0.000618	6.184120	2.095237	0.000248
1807	1.7970e+02	-8.0516	-76.871102	0.000537	5.373088	1.820451	0.000215
1808	1.7980e+02	-8.0083	-76.608688	0.000659	6.589636	2.232629	0.000264
1809	1.7990e+02	-7.9682	-76.410868	0.000497	4.967572	1.683059	0.000199
1810	1.8000e+02	-7.9313	-76.140380	0.000679	6.792394	2.301325	0.000272
1811	1.8009e+02	-7.8896	-75.974857	0.000416	4.156540	1.408274	0.000166
1812	1.8019e+02	-7.8431	-75.700332	0.000689	6.893773	2.335674	0.000276
1813	1.8029e+02	-7.8046	-75.450030	0.000629	6.285499	2.129585	0.000252
1814	1.8039e+02	-7.7645	-75.244136	0.000517	5.170330	1.751755	0.000207
1815	1.8049e+02	-7.7340	-75.009982	0.000588	5.879983	1.992192	0.000235
1816	1.8059e+02	-7.6859	-74.759680	0.000629	6.285499	2.129585	0.000252
1817	1.8069e+02	-7.6490	-74.573971	0.000466	4.663435	1.580014	0.000187
1818	1.8079e+02	-7.6041	-74.279260	0.000740	7.400668	2.507414	0.000296
1819	1.8089e+02	-7.5752	-74.057218	0.000558	5.575846	1.889148	0.000223
1820	1.8099e+02	-7.5271	-73.843250	0.000537	5.373088	1.820451	0.000215
1821	1.8109e+02	-7.4805	-73.605059	0.000598	5.981362	2.026540	0.000239
1822	1.8119e+02	-7.4420	-73.346682	0.000649	6.488257	2.198281	0.000260
1823	1.8129e+02	-7.4100	-73.136751	0.000527	5.271709	1.786103	0.000211
1824	1.8139e+02	-7.3650	-72.898560	0.000598	5.981362	2.026540	0.000239
1825	1.8149e+02	-7.3249	-72.664406	0.000588	5.879983	1.992192	0.000235
1826	1.8159e+02	-7.2896	-72.466586	0.000497	4.967572	1.683059	0.000199
1827	1.8169e+02	-7.2543	-72.216284	0.000629	6.285499	2.129585	0.000252
1828	1.8179e+02	-7.2110	-71.937722	0.000700	6.995152	2.370022	0.000280
1829	1.8189e+02	-7.1565	-71.756051	0.000456	4.562056	1.545666	0.000183
1830	1.8199e+02	-7.1340	-71.505748	0.000629	6.285499	2.129585	0.000252
1831	1.8209e+02	-7.0811	-71.275631	0.000578	5.778604	1.957844	0.000231
1832	1.8218e+02	-7.0602	-71.033403	0.000608	6.082741	2.060888	0.000243
1833	1.8228e+02	-7.0105	-70.766952	0.000669	6.691015	2.266977	0.000268
1834	1.8238e+02	-6.9704	-70.573170	0.000487	4.866193	1.648711	0.000195
1835	1.8248e+02	-6.9271	-70.343053	0.000578	5.778604	1.957844	0.000231
1836	1.8258e+02	-6.8902	-70.112936	0.000578	5.778604	1.957844	0.000231
1837	1.8268e+02	-6.8517	-69.854560	0.000649	6.488257	2.198281	0.000260
1838	1.8278e+02	-6.8148	-69.640591	0.000537	5.373088	1.820451	0.000215
1839	1.8288e+02	-6.7715	-69.438735	0.000507	5.068951	1.717407	0.000203
1840	1.8298e+02	-6.7217	-69.168247	0.000679	6.792394	2.301325	0.000272
1841	1.8308e+02	-6.6961	-68.938130	0.000578	5.778604	1.957844	0.000231
1842	1.8318e+02	-6.6463	-68.732236	0.000517	5.170330	1.751755	0.000207
1843	1.8328e+02	-6.6094	-68.449636	0.000710	7.096531	2.404370	0.000284
1844	1.8338e+02	-6.5661	-68.219520	0.000578	5.778604	1.957844	0.000231
1845	1.8348e+02	-6.5276	-67.949032	0.000679	6.792394	2.301325	0.000272
1846	1.8358e+02	-6.5004	-67.722952	0.000568	5.677225	1.923496	0.000227
1847	1.8368e+02	-6.4426	-67.488798	0.000588	5.879983	1.992192	0.000235
1848	1.8378e+02	-6.4137	-67.282904	0.000517	5.170330	1.751755	0.000207
1849	1.8388e+02	-6.3656	-67.032602	0.000629	6.285499	2.129585	0.000252
1850	1.8398e+02	-6.3351	-66.770188	0.000659	6.589636	2.232629	0.000264
1851	1.8407e+02	-6.2966	-66.576405	0.000487	4.866193	1.648711	0.000195
1852	1.8417e+02	-6.2565	-66.322066	0.000639	6.386878	2.163933	0.000256
1853	1.8427e+02	-6.2148	-66.087912	0.000588	5.879983	1.992192	0.000235
1854	1.8437e+02	-6.1795	-65.837610	0.000629	6.285499	2.129585	0.000252
1855	1.8447e+02	-6.1426	-65.595381	0.000608	6.082741	2.060888	0.000243
1856	1.8457e+02	-6.0929	-65.361228	0.000588	5.879983	1.992192	0.000235
1857	1.8467e+02	-6.0560	-65.106888	0.000639	6.386878	2.163933	0.000256
1858	1.8477e+02	-6.0159	-64.892920	0.000537	5.373088	1.820451	0.000215
1859	1.8487e+02	-5.9806	-64.638580	0.000639	6.386878	2.163933	0.000256
1860	1.8497e+02	-5.9421	-64.404426	0.000588	5.879983	1.992192	0.000235
1861	1.8507e+02	-5.9068	-64.150087	0.000639	6.386878	2.163933	0.000256
1862	1.8517e+02	-5.8571	-63.907859	0.000608	6.082741	2.060888	0.000243
1863	1.8527e+02	-5.8266	-63.649482	0.000649	6.488257	2.198281	0.000260
1864	1.8537e+02	-5.7768	-63.443588	0.000517	5.170330	1.751755	0.000207
1865	1.8547e+02	-5.7415	-63.185211	0.000649	6.488257	2.198281	0.000260
1866	1.8557e+02	-5.6950	-62.959132	0.000568	5.677225	1.923496	0.000227
1867	1.8567e+02	-5.6533	-62.680569	0.000700	6.995152	2.370022	0.000280
1868	1.8577e+02	-5.6148	-62.430267	0.000629	6.285499	2.129585	0.000252
1869	1.8587e+02	-5.5875	-62.224373	0.000517	5.170330	1.751755	0.000207
1870	1.8597e+02	-5.5410	-61.970034	0.000639	6.386878	2.163933	0.000256
1871	1.8606e+02	-5.4945	-61.727805	0.000608	6.082741	2.060888	0.000243
1872	1.8616e+02	-5.4640	-61.505763	0.000558	5.575846	1.889148	0.000223
1873	1.8626e+02	-5.4159	-61.255461	0.000629	6.285499	2.129585	0.000252
1874	1.8636e+02	-5.3758	-60.997084	0.000649	6.488257	2.198281	0.000260
1875	1.8646e+02	-5.3389	-60.762930	0.000588	5.879983	1.992192	0.000235
1876	1.8656e+02	-5.2924	-60.484368	0.000700	6.995152	2.370022	0.000280
1877	1.8666e+02	-5.2587	-60.246177	0.000598	5.981362	2.026540	0.000239
1878	1.8676e+02	-5.2234	-60.048357	0.000497	4.967572	1.683059	0.000199
1879	1.8686e+02	-5.1849	-59.789980	0.000649	6.488257	2.198281	0.000260
1880	1.8696e+02	-5.1432	-59.527566	0.000659	6.589636	2.232629	0.000264
1881	1.8706e+02	-5.0950	-59.269190	0.000649	6.488257	2.198281	0.000260
1882	1.8716e+02	-5.0565	-59.059259	0.000527	5.271709	1.786103	0.000211
1883	1.8726e+02	-5.0164	-58.736288	0.000811	8.110321	2.747851	0.000325
1884	1.8736e+02	-4.9827	-58.498097	0.000598	5.981362	2.026540	0.000239
1885	1.8746e+02	-4.9298	-58.296240	0.000507	5.068951	1.717407	0.000203
1886	1.8756e+02	-4.8897	-58.066123	0.000578	5.778604	1.957844	0.000231
1887	1.8766e+02	-4.8576	-57.783524	0.000710	7.096531	2.404370	0.000284
1888	1.8776e+02	-4.8127	-57.561481	0.000558	5.575846	1.889148	0.000223
1889	1.8786e+02	-4.7774	-57.295030	0.000669	6.691015	2.266977	0.000268
1890	1.8796e+02	-4.7389	-57.044728	0.000629	6.285499	2.129585	0.000252
1891	1.8806e+02	-4.7068	-56.790388	0.000639	6.386878	2.163933	0.000256
1892	1.8815e+02	-4.6635	-56.540086	0.000629	6.285499	2.129585	0.000252
1893	1.8825e+02	-4.6234	-56.309969	0.000578	5.778604	1.957844	0.000231
1894	1.8835e+02	-4.5833	-56.039481	0.000679	6.792394	2.301325	0.000272
1895	1.8845e+02	-4.5512	-55.793216	0.000618	6.184120	2.095237	0.000248
1896	1.8855e+02	-4.4983	-55.555025	0.000598	5.981362	2.026540	0.000239
1897	1.8865e+02	-4.4630	-55.300685	0.000639	6.386878	2.163933	0.000256
1898	1.8875e+02	-4.4229	-55.018086	0.000710	7.096531	2.404370	0.000284
1899	1.8885e+02	-4.3731	-54.812192	0.000517	5.170330	1.751755	0.000207
1900	1.8895e+02	-4.3475	-54.557852	0.000639	6.386878	2.163933	0.000256
1901	1.8905e+02	-4.3058	-54.287364	0.000679	6.792394	2.301325	0.000272
1902	1.8915e+02	-4.2641	-54.000728	0.000720	7.197910	2.438718	0.000288
1903	1.8925e+02	-4.2272	-53.774648	0.000568	5.677225	1.923496	0.000227
1904	1.8935e+02	-4.1887	-53.556643	0.000547	5.474467	1.854800	0.000219
1905	1.8945e+02	-4.1453	-53.290192	0.000669	6.691015	2.266977	0.000268
1906	1.8955e+02	-4.1020	-53.023741	0.000669	6.691015	2.266977	0.000268
1907	1.8965e+02	-4.0699	-52.745178	0.000700	6.995152	2.370022	0.000280
1908	1.8975e+02	-4.0202	-52.523136	0.000558	5.575846	1.889148	0.000223
1909	1.8985e+02	-3.9913	-52.284945	0.000598	5.981362	2.026540	0.000239
1910	1.8995e+02	-3.9464	-51.990234	0.000740	7.400668	2.507414	0.000296
1911	1.9004e+02	-3.9031	-51.760117	0.000578	5.778604	1.957844	0.000231
1912	1.9014e+02	-3.8646	-51.477518	0.000710	7.096531	2.404370	0.000284
1913	1.9024e+02	-3.8229	-51.247401	0.000578	5.778604	1.957844	0.000231
1914	1.9034e+02	-3.7892	-50.940579	0.000770	7.704805	2.610459	0.000308
1915	1.9044e+02	-3.7491	-50.698351	0.000608	6.082741	2.060888	0.000243
1916	1.9054e+02	-3.7058	-50.468234	0.000578	5.778604	1.957844	0.000231
1917	1.9064e+02	-3.6737	-50.217931	0.000629	6.285499	2.129585	0.000252
1918	1.9074e+02	-3.6272	-49.951480	0.000669	6.691015	2.266977	0.000268
1919	1.9084e+02	-3.5823	-49.668881	0.000710	7.096531	2.404370	0.000284
1920	1.9094e+02	-3.5389	-49.414541	0.000639	6.386878	2.163933	0.000256
1921	1.9104e+02	-3.5020	-49.172313	0.000608	6.082741	2.060888	0.000243
1922	1.9114e+02	-3.4684	-48.885677	0.000720	7.197910	2.438718	0.000288
1923	1.9124e+02	-3.4379	-48.631337	0.000639	6.386878	2.163933	0.000256
1924	1.9134e+02	-3.3833	-48.364886	0.000669	6.691015	2.266977	0.000268
1925	1.9144e+02	-3.3528	-48.098435	0.000669	6.691015	2.266977	0.000268
1926	1.9154e+02	-3.3127	-47.884467	0.000537	5.373088	1.820451	0.000215
1927	1.9164e+02	-3.2726	-47.597830	0.000720	7.197910	2.438718	0.000288
1928	1.9174e+02	-3.2293	-47.327342	0.000679	6.792394	2.301325	0.000272
1929	1.9184e+02	-3.1908	-47.056854	0.000679	6.792394	2.301325	0.000272
1930	1.9194e+02	-3.1523	-46.850960	0.000517	5.170330	1.751755	0.000207
1931	1.9203e+02	-3.1090	-46.532027	0.000801	8.008942	2.713503	0.000321
1932	1.9213e+02	-3.0705	-46.253464	0.000700	6.995152	2.370022	0.000280
1933	1.9223e+02	-3.0256	-46.031422	0.000558	5.575846	1.889148	0.000223
1934	1.9233e+02	-2.9823	-45.740748	0.000730	7.299289	2.473066	0.000292
1935	1.9243e+02	-2.9518	-45.466223	0.000689	6.893773	2.335674	0.000276
1936	1.9253e+02	-2.9165	-45.240143	0.000568	5.677225	1.923496	0.000227
1937	1.9263e+02	-2.8620	-44.941395	0.000750	7.502047	2.541762	0.000300
1938	1.9273e+02	-2.8218	-44.658796	0.000710	7.096531	2.404370	0.000284
1939	1.9283e+02	-2.7849	-44.380233	0.000700	6.995152	2.370022	0.000280
1940	1.9293e+02	-2.7432	-44.138005	0.000608	6.082741	2.060888	0.000243
1941	1.9303e+02	-2.7208	-43.871554	0.000669	6.691015	2.266977	0.000268
1942	1.9313e+02	-2.6678	-43.617215	0.000639	6.386878	2.163933	0.000256
1943	1.9323e+02	-2.6245	-43.330578	0.000720	7.197910	2.438718	0.000288
1944	1.9333e+02	-2.5892	-43.088350	0.000608	6.082741	2.060888	0.000243
1945	1.9343e+02	-2.5555	-42.821899	0.000669	6.691015	2.266977	0.000268
1946	1.9353e+02	-2.4994	-42.527188	0.000740	7.400668	2.507414	0.000296
1947	1.9363e+02	-2.4689	-42.256700	0.000679	6.792394	2.301325	0.000272
1948	1.9373e+02	-2.4336	-42.014472	0.000608	6.082741	2.060888	0.000243
1949	1.9383e+02	-2.3903	-41.711686	0.000760	7.603426	2.576111	0.000304
1950	1.9393e+02	-2.3422	-41.461384	0.000629	6.285499	2.129585	0.000252
1951	1.9403e+02	-2.3069	-41.150525	0.000781	7.806184	2.644807	0.000312
1952	1.9412e+02	-2.2668	-40.884074	0.000669	6.691015	2.266977	0.000268
1953	1.9422e+02	-2.2395	-40.637808	0.000618	6.184120	2.095237	0.000248
1954	1.9432e+02	-2.1946	-40.371357	0.000669	6.691015	2.266977	0.000268
1955	1.9442e+02	-2.1481	-40.080684	0.000730	7.299289	2.473066	0.000292
1956	1.9452e+02	-2.1144	-39.802121	0.000700	6.995152	2.370022	0.000280
1957	1.9462e+02	-2.0679	-39.527596	0.000689	6.893773	2.335674	0.000276
1958	1.9472e+02	-2.0390	-39.273256	0.000639	6.386878	2.163933	0.000256
1959	1.9482e+02	-1.9941	-38.978546	0.000740	7.400668	2.507414	0.000296
1960	1.9492e+02	-1.9507	-38.716132	0.000659	6.589636	2.232629	0.000264
1961	1.9502e+02	-1.9122	-38.457755	0.000649	6.488257	2.198281	0.000260
1962	1.9512e+02	-1.8689	-38.138821	0.000801	8.008942	2.713503	0.000321
1963	1.9522e+02	-1.8320	-37.888519	0.000629	6.285499	2.129585	0.000252
1964	1.9532e+02	-1.7807	-37.618031	0.000679	6.792394	2.301325	0.000272
1965	1.9542e+02	-1.7566	-37.335431	0.000710	7.096531	2.404370	0.000284
1966	1.9552e+02	-1.7037	-37.060906	0.000689	6.893773	2.335674	0.000276
1967	1.9562e+02	-1.6796	-36.778307	0.000710	7.096531	2.404370	0.000284
1968	1.9572e+02	-1.6187	-36.503781	0.000689	6.893773	2.335674	0.000276
1969	1.9582e+02	-1.5898	-36.253479	0.000629	6.285499	2.129585	0.000252
1970	1.9592e+02	-1.5609	-35.950694	0.000760	7.603426	2.576111	0.000304
1971	1.9601e+02	-1.5080	-35.664057	0.000720	7.197910	2.438718	0.000288
1972	1.9611e+02	-1.4759	-35.450089	0.000537	5.373088	1.820451	0.000215
1973	1.9621e+02	-1.4246	-35.139229	0.000781	7.806184	2.644807	0.000312
1974	1.9631e+02	-1.3909	-34.860667	0.000700	6.995152	2.370022	0.000280
1975	1.9641e+02	-1.3620	-34.565956	0.000740	7.400668	2.507414	0.000296
1976	1.9651e+02	-1.3123	-34.279320	0.000720	7.197910	2.438718	0.000288
1977	1.9661e+02	-1.2754	-34.024980	0.000639	6.386878	2.163933	0.000256
1978	1.9671e+02	-1.2288	-33.746418	0.000700	6.995152	2.370022	0.000280
1979	1.9681e+02	-1.1968	-33.463818	0.000710	7.096531	2.404370	0.000284
1980	1.9691e+02	-1.1518	-33.148922	0.000791	7.907563	2.679155	0.000316
1981	1.9701e+02	-1.1262	-32.906693	0.000608	6.082741	2.060888	0.000243
1982	1.9711e+02	-1.0732	-32.632168	0.000689	6.893773	2.335674	0.000276
1983	1.9721e+02	-1.0444	-32.373791	0.000649	6.488257	2.198281	0.000260
1984	1.9731e+02	-0.9978	-32.091192	0.000710	7.096531	2.404370	0.000284
1985	1.9741e+02	-0.9593	-31.796481	0.000740	7.400668	2.507414	0.000296
1986	1.9751e+02	-0.9160	-31.497733	0.000750	7.502047	2.541762	0.000300
1987	1.9761e+02	-0.8807	-31.198985	0.000750	7.502047	2.541762	0.000300
1988	1.9771e+02	-0.8342	-30.944645	0.000639	6.386878	2.163933	0.000256
1989	1.9781e+02	-0.8005	-30.641860	0.000760	7.603426	2.576111	0.000304
1990	1.9791e+02	-0.7588	-30.359261	0.000710	7.096531	2.404370	0.000284
1991	1.9800e+02	-0.7091	-30.088773	0.000679	6.792394	2.301325	0.000272
1992	1.9810e+02	-0.6802	-29.810210	0.000700	6.995152	2.370022	0.000280
1993	1.9820e+02	-0.6369	-29.539722	0.000679	6.792394	2.301325	0.000272
1994	1.9830e+02	-0.6032	-29.281346	0.000649	6.488257	2.198281	0.000260
1995	1.9840e+02	-0.5663	-28.958375	0.000811	8.110321	2.747851	0.000325
1996	1.9850e+02	-0.5166	-28.687887	0.000679	6.792394	2.301325	0.000272
1997	1.9860e+02	-0.4668	-28.441621	0.000618	6.184120	2.095237	0.000248
1998	1.9870e+02	-0.4364	-28.090390	0.000882	8.819974	2.988288	0.000353
1999	1.9880e+02	-0.3930	-27.848162	0.000608	6.082741	2.060888	0.000243
2000	1.9890e+02	-0.3545	-27.577674	0.000679	6.792394	2.301325	0.000272
2001	1.9900e+02	-0.3208	-27.278926	0.000750	7.502047	2.541762	0.000300
2002	1.9910e+02	-0.2856	-27.016512	0.000659	6.589636	2.232629	0.000264
2003	1.9920e+02	-0.2438	-26.746024	0.000679	6.792394	2.301325	0.000272
2004	1.9930e+02	-0.2005	-26.427091	0.000801	8.008942	2.713503	0.000321
2005	1.9940e+02	-0.1604	-26.201011	0.000568	5.677225	1.923496	0.000227
2006	1.9950e+02	-0.1251	-25.910337	0.000730	7.299289	2.473066	0.000292
2007	1.9960e+02	-0.0738	-25.583329	0.000821	8.211700	2.782199	0.000329
2008	1.9970e+02	-0.0417	-25.296693	0.000720	7.197910	2.438718	0.000288
2009	1.9980e+02	0.0048	-25.001982	0.000720	7.197910	2.438718	0.000296

PMax (uC/cm2):	1.38e+02
Pr (uC/cm2):	2.89e+01
-Pr (uC/cm2):	-1.23e+01
PLoss (uC/cm2):	-1.23e+01
-Vc:	-4.13e+00
C (Max-Eff) (nF):	6.90e-01
K (Eff):	2.34e+03
Vert. (+/-Pr) Shift (uC/cm2):	8.30e+00
Offset (uC/cm2):	1.27e+01

A (Loop Area - uC/cm2·Volts):	-1.12e-01



Hysteresis Version: 5.48.1 - Radiant Technologies, Inc., 1999 - 9/12/24

