»»»»»»»»»»»»»»»»»»»»»»»»»»»»»»»»»»»» Hysteresis ««««««««««««««««««««««««««««««««««««
»»»  Executed Version:	5.48.1
»»»  Vision Version:	5.48.4 (R)
»»»  Vision Compiled:	9/18/24
»»»  Driver Version:	5.47.0
»»»  Windows Version:	Windows 8 or 8.1
»»»  Processor Information:	x86 (AMD or Intel) - 32 Processors
»»»  Tester Name:	PMF21124-494 (100V)
»»»  Tester S/N:	PMF21124-494
»»»  Internal Amp Type:	100V RevK 270k
»»»  Internal Amp S/N:	iAB2-596/K     
»»»  Execution Count:	1
»»»»»»»»»»»»»»»»»»»»»»»»»»»»»»»»»»»»»»»»»»««««««««««««««««««««««««««««««««««««««««««

Stored:	6/18/2025 - 12:10:32
Configured:	06/18/25 09:47:30 AM
Executed:	06/18/25 12:09:46 PM

»»»»»»»»»»»»»»»»»»»»»»»»»»»»»»»»»»» Sample Info ««««««««««««««««««««««««««««««««««««
Sample Name:	
Lot Name:	
Wafer Name:	
Die Row/Column:	0/0
Capacitor Number:	0
Sample Area (cm2):	1.00e-04
Sample Thickness (microns):	3.00e-01

Amplifier:	Internal

»»»»»»»»»»»»»»»»»»»»»»»»»»»»»»»»»»» Tester Info «««««««««««««««««««««««««««««««««««
Tester Name:	PMF21124-494 (100V)
Tester Serial Number:	PMF21124-494
Return Signal Amp. Level:	0.19 [Index: 3]

»»»»»»»»»»»»»»»»»»»»»»»»»»»»»»»» Hysteresis Info ««««««««««««««««««««««««««««««««««
Task Name:	Hyst-554
Volts:	20.00
Field:	666.67 (kV/cm)
DCBias:	0.00
DCField:	0.00 (kV/cm)
Hysteresis Period (ms):	2.00e+02
Preset:	Enabled
Preset Delay (ms):	1.00e+03
Profile:	Standard Bipolar

»»»»»»»»»»»»»»»»»»»»»»»»»»»»»»»»»»»»»» Data «««««««««««««««««««««««««««««««««««««««
Points:	2009

Valid Data

Point	Time (ms)	Drive Voltage	Measured Polarization (uC/cm2)	Capacitance (uF)	Normalized Capacitance (uF/cm2)	Dielectric Constant	Instantaneous Current (mA)
   1	0.0000e+00	0.0080	-6.033499	0.000375	3.750647	1.270754	0.000150
   2	9.9500e-02	0.0305	-5.884125	0.000375	3.750647	1.270754	0.000150
   3	1.9900e-01	0.0706	-5.637860	0.000618	6.183500	2.095026	0.000248
   4	2.9850e-01	0.1075	-5.452152	0.000466	4.662967	1.579856	0.000187
   5	3.9800e-01	0.1540	-5.242221	0.000527	5.271180	1.785924	0.000211
   6	4.9750e-01	0.1973	-5.076698	0.000416	4.156123	1.408133	0.000166
   7	5.9700e-01	0.2294	-4.838507	0.000598	5.980762	2.026337	0.000239
   8	6.9650e-01	0.2695	-4.628576	0.000527	5.271180	1.785924	0.000211
   9	7.9600e-01	0.3176	-4.414608	0.000537	5.372549	1.820269	0.000215
  10	8.9550e-01	0.3529	-4.196603	0.000547	5.473918	1.854614	0.000219
  11	9.9500e-01	0.3962	-4.014931	0.000456	4.561598	1.545511	0.000183
  12	1.0945e+00	0.4283	-3.784815	0.000578	5.778024	1.957648	0.000231
  13	1.1940e+00	0.4797	-3.578921	0.000517	5.169811	1.751579	0.000207
  14	1.2935e+00	0.5150	-3.393213	0.000466	4.662967	1.579856	0.000187
  15	1.3930e+00	0.5406	-3.134836	0.000649	6.487606	2.198060	0.000260
  16	1.4925e+00	0.5871	-2.941053	0.000487	4.865705	1.648545	0.000195
  17	1.5920e+00	0.6305	-2.731122	0.000527	5.271180	1.785924	0.000211
  18	1.6915e+00	0.6674	-2.541377	0.000476	4.764336	1.614201	0.000191
  19	1.7910e+00	0.7075	-2.307223	0.000588	5.879393	1.991992	0.000235
  20	1.8905e+00	0.7492	-2.081143	0.000568	5.676655	1.923303	0.000227
  21	1.9900e+00	0.7973	-1.895435	0.000466	4.662967	1.579856	0.000187
  22	2.0895e+00	0.8358	-1.681467	0.000537	5.372549	1.820269	0.000215
  23	2.1890e+00	0.8823	-1.447313	0.000588	5.879393	1.991992	0.000235
  24	2.2885e+00	0.9096	-1.217196	0.000578	5.778024	1.957648	0.000231
  25	2.3880e+00	0.9529	-1.031488	0.000466	4.662967	1.579856	0.000187
  26	2.4875e+00	0.9914	-0.845780	0.000466	4.662967	1.579856	0.000187
  27	2.5870e+00	1.0363	-0.647960	0.000497	4.967074	1.682890	0.000199
  28	2.6865e+00	1.0716	-0.417844	0.000578	5.778024	1.957648	0.000231
  29	2.7860e+00	1.1053	-0.171578	0.000618	6.183500	2.095026	0.000248
  30	2.8855e+00	1.1470	0.054501	0.000568	5.676655	1.923303	0.000227
  31	2.9850e+00	1.1887	0.252321	0.000497	4.967074	1.682890	0.000199
  32	3.0845e+00	1.2256	0.442066	0.000476	4.764336	1.614201	0.000191
  33	3.1840e+00	1.2689	0.680257	0.000598	5.980762	2.026337	0.000239
  34	3.2835e+00	1.3010	0.898263	0.000547	5.473918	1.854614	0.000219
  35	3.3830e+00	1.3524	1.132417	0.000588	5.879393	1.991992	0.000235
  36	3.4825e+00	1.3909	1.318125	0.000466	4.662967	1.579856	0.000187
  37	3.5820e+00	1.4294	1.524019	0.000517	5.169811	1.751579	0.000207
  38	3.6815e+00	1.4663	1.750098	0.000568	5.676655	1.923303	0.000227
  39	3.7810e+00	1.5128	1.960029	0.000527	5.271180	1.785924	0.000211
  40	3.8805e+00	1.5481	2.182072	0.000558	5.575287	1.888958	0.000223
  41	3.9800e+00	1.5882	2.387966	0.000517	5.169811	1.751579	0.000207
  42	4.0795e+00	1.6347	2.601934	0.000537	5.372549	1.820269	0.000215
  43	4.1790e+00	1.6604	2.844162	0.000608	6.082131	2.060682	0.000243
  44	4.2785e+00	1.7037	3.013722	0.000426	4.257492	1.442477	0.000170
  45	4.3780e+00	1.7438	3.296321	0.000710	7.095819	2.404129	0.000284
  46	4.4775e+00	1.7919	3.494141	0.000497	4.967074	1.682890	0.000199
  47	4.5770e+00	1.8208	3.687923	0.000487	4.865705	1.648545	0.000195
  48	4.6765e+00	1.8641	3.865557	0.000446	4.460229	1.511167	0.000179
  49	4.7760e+00	1.9074	4.148157	0.000710	7.095819	2.404129	0.000284
  50	4.8755e+00	1.9491	4.329828	0.000456	4.561598	1.545511	0.000183
  51	4.9750e+00	1.9812	4.559945	0.000578	5.778024	1.957648	0.000231
  52	5.0745e+00	2.0278	4.830433	0.000679	6.791713	2.301095	0.000272
  53	5.1740e+00	2.0711	5.016141	0.000466	4.662967	1.579856	0.000187
  54	5.2735e+00	2.1064	5.262406	0.000618	6.183500	2.095026	0.000248
  55	5.3730e+00	2.1449	5.500597	0.000598	5.980762	2.026337	0.000239
  56	5.4725e+00	2.1818	5.714566	0.000537	5.372549	1.820269	0.000215
  57	5.5720e+00	2.2283	5.916422	0.000507	5.068442	1.717235	0.000203
  58	5.6715e+00	2.2684	6.130391	0.000537	5.372549	1.820269	0.000215
  59	5.7710e+00	2.2973	6.368582	0.000598	5.980762	2.026337	0.000239
  60	5.8705e+00	2.3518	6.554290	0.000466	4.662967	1.579856	0.000187
  61	5.9700e+00	2.3871	6.836889	0.000710	7.095819	2.404129	0.000284
  62	6.0695e+00	2.4272	7.010486	0.000436	4.358860	1.476822	0.000174
  63	6.1690e+00	2.4657	7.232529	0.000558	5.575287	1.888958	0.000223
  64	6.2685e+00	2.5074	7.498980	0.000669	6.690344	2.266750	0.000268
  65	6.3680e+00	2.5507	7.660465	0.000405	4.054754	1.373788	0.000162
  66	6.4675e+00	2.5876	7.947102	0.000720	7.197188	2.438473	0.000288
  67	6.5670e+00	2.6325	8.132810	0.000466	4.662967	1.579856	0.000187
  68	6.6665e+00	2.6646	8.399261	0.000669	6.690344	2.266750	0.000268
  69	6.7660e+00	2.6999	8.625341	0.000568	5.676655	1.923303	0.000227
  70	6.8655e+00	2.7464	8.827197	0.000507	5.068442	1.717235	0.000203
  71	6.9650e+00	2.7849	9.065388	0.000598	5.980762	2.026337	0.000239
  72	7.0645e+00	2.8218	9.271282	0.000517	5.169811	1.751579	0.000207
  73	7.1640e+00	2.8700	9.501399	0.000578	5.778024	1.957648	0.000231
  74	7.2635e+00	2.9069	9.727479	0.000568	5.676655	1.923303	0.000227
  75	7.3630e+00	2.9374	10.002004	0.000689	6.893082	2.335439	0.000276
  76	7.4625e+00	2.9935	10.195786	0.000487	4.865705	1.648545	0.000195
  77	7.5620e+00	3.0176	10.417829	0.000558	5.575287	1.888958	0.000223
  78	7.6615e+00	3.0609	10.651983	0.000588	5.879393	1.991992	0.000235
  79	7.7610e+00	3.1122	10.878062	0.000568	5.676655	1.923303	0.000227
  80	7.8605e+00	3.1427	11.132402	0.000639	6.386237	2.163716	0.000256
  81	7.9600e+00	3.1844	11.330221	0.000497	4.967074	1.682890	0.000199
  82	8.0595e+00	3.2197	11.540153	0.000527	5.271180	1.785924	0.000211
  83	8.1590e+00	3.2598	11.798529	0.000649	6.487606	2.198060	0.000260
  84	8.2585e+00	3.3079	11.976163	0.000446	4.460229	1.511167	0.000179
  85	8.3580e+00	3.3384	12.250688	0.000689	6.893082	2.335439	0.000276
  86	8.4575e+00	3.3769	12.472731	0.000558	5.575287	1.888958	0.000223
  87	8.5570e+00	3.4250	12.666513	0.000487	4.865705	1.648545	0.000195
  88	8.6565e+00	3.4635	12.924890	0.000649	6.487606	2.198060	0.000260
  89	8.7560e+00	3.5004	13.183267	0.000649	6.487606	2.198060	0.000260
  90	8.8555e+00	3.5438	13.389161	0.000517	5.169811	1.751579	0.000207
  91	8.9550e+00	3.5790	13.591017	0.000507	5.068442	1.717235	0.000203
  92	9.0545e+00	3.6208	13.845357	0.000639	6.386237	2.163716	0.000256
  93	9.1540e+00	3.6673	14.079511	0.000588	5.879393	1.991992	0.000235
  94	9.2535e+00	3.6978	14.273293	0.000487	4.865705	1.648545	0.000195
  95	9.3530e+00	3.7282	14.531670	0.000649	6.487606	2.198060	0.000260
  96	9.4525e+00	3.7876	14.745638	0.000537	5.372549	1.820269	0.000215
  97	9.5520e+00	3.8197	14.987866	0.000608	6.082131	2.060682	0.000243
  98	9.6515e+00	3.8598	15.238169	0.000628	6.284869	2.129371	0.000252
  99	9.7510e+00	3.9031	15.460211	0.000558	5.575287	1.888958	0.000223
 100	9.8505e+00	3.9352	15.686291	0.000568	5.676655	1.923303	0.000227
 101	9.9500e+00	3.9785	15.908333	0.000558	5.575287	1.888958	0.000223
 102	1.0050e+01	4.0186	16.114227	0.000517	5.169811	1.751579	0.000207
 103	1.0149e+01	4.0587	16.360493	0.000618	6.183500	2.095026	0.000248
 104	1.0248e+01	4.1100	16.570424	0.000527	5.271180	1.785924	0.000211
 105	1.0348e+01	4.1357	16.808615	0.000598	5.980762	2.026337	0.000239
 106	1.0447e+01	4.1887	17.083140	0.000689	6.893082	2.335439	0.000276
 107	1.0547e+01	4.2143	17.240588	0.000395	3.953385	1.339443	0.000158
 108	1.0646e+01	4.2496	17.503002	0.000659	6.588975	2.232405	0.000264
 109	1.0746e+01	4.3042	17.729082	0.000568	5.676655	1.923303	0.000227
 110	1.0845e+01	4.3362	17.967273	0.000598	5.980762	2.026337	0.000239
 111	1.0945e+01	4.3780	18.177204	0.000527	5.271180	1.785924	0.000211
 112	1.1044e+01	4.4116	18.427506	0.000628	6.284869	2.129371	0.000252
 113	1.1144e+01	4.4614	18.665697	0.000598	5.980762	2.026337	0.000239
 114	1.1243e+01	4.4983	18.879665	0.000537	5.372549	1.820269	0.000215
 115	1.1343e+01	4.5448	19.105745	0.000568	5.676655	1.923303	0.000227
 116	1.1443e+01	4.5721	19.343936	0.000598	5.980762	2.026337	0.000239
 117	1.1542e+01	4.6170	19.561941	0.000547	5.473918	1.854614	0.000219
 118	1.1642e+01	4.6587	19.796095	0.000588	5.879393	1.991992	0.000235
 119	1.1741e+01	4.6956	20.046398	0.000628	6.284869	2.129371	0.000252
 120	1.1841e+01	4.7357	20.272477	0.000568	5.676655	1.923303	0.000227
 121	1.1940e+01	4.7790	20.522780	0.000628	6.284869	2.129371	0.000252
 122	1.2040e+01	4.8239	20.724636	0.000507	5.068442	1.717235	0.000203
 123	1.2139e+01	4.8464	20.958790	0.000588	5.879393	1.991992	0.000235
 124	1.2239e+01	4.8993	21.176796	0.000547	5.473918	1.854614	0.000219
 125	1.2338e+01	4.9330	21.398838	0.000558	5.575287	1.888958	0.000223
 126	1.2438e+01	4.9747	21.661252	0.000659	6.588975	2.232405	0.000264
 127	1.2537e+01	5.0084	21.879257	0.000547	5.473918	1.854614	0.000219
 128	1.2636e+01	5.0517	22.109374	0.000578	5.778024	1.957648	0.000231
 129	1.2736e+01	5.0854	22.355639	0.000618	6.183500	2.095026	0.000248
 130	1.2835e+01	5.1368	22.549422	0.000487	4.865705	1.648545	0.000195
 131	1.2935e+01	5.1769	22.767427	0.000547	5.473918	1.854614	0.000219
 132	1.3034e+01	5.2186	23.037915	0.000679	6.791713	2.301095	0.000272
 133	1.3134e+01	5.2555	23.231698	0.000487	4.865705	1.648545	0.000195
 134	1.3233e+01	5.2892	23.473926	0.000608	6.082131	2.060682	0.000243
 135	1.3333e+01	5.3325	23.712117	0.000598	5.980762	2.026337	0.000239
 136	1.3432e+01	5.3726	23.954345	0.000608	6.082131	2.060682	0.000243
 137	1.3532e+01	5.4095	24.172350	0.000547	5.473918	1.854614	0.000219
 138	1.3632e+01	5.4560	24.394393	0.000558	5.575287	1.888958	0.000223
 139	1.3731e+01	5.4881	24.652769	0.000649	6.487606	2.198060	0.000260
 140	1.3831e+01	5.5330	24.858663	0.000517	5.169811	1.751579	0.000207
 141	1.3930e+01	5.5811	25.108966	0.000628	6.284869	2.129371	0.000252
 142	1.4030e+01	5.6148	25.326971	0.000547	5.473918	1.854614	0.000219
 143	1.4129e+01	5.6565	25.561125	0.000588	5.879393	1.991992	0.000235
 144	1.4229e+01	5.6918	25.775093	0.000537	5.372549	1.820269	0.000215
 145	1.4328e+01	5.7448	26.021358	0.000618	6.183500	2.095026	0.000248
 146	1.4428e+01	5.7784	26.219178	0.000497	4.967074	1.682890	0.000199
 147	1.4527e+01	5.8073	26.433146	0.000537	5.372549	1.820269	0.000215
 148	1.4627e+01	5.8522	26.679412	0.000618	6.183500	2.095026	0.000248
 149	1.4726e+01	5.8956	26.929714	0.000628	6.284869	2.129371	0.000252
 150	1.4825e+01	5.9357	27.188091	0.000649	6.487606	2.198060	0.000260
 151	1.4925e+01	5.9694	27.393985	0.000517	5.169811	1.751579	0.000207
 152	1.5024e+01	6.0111	27.591804	0.000497	4.967074	1.682890	0.000199
 153	1.5124e+01	6.0544	27.821921	0.000578	5.778024	1.957648	0.000231
 154	1.5223e+01	6.0913	28.056075	0.000588	5.879393	1.991992	0.000235
 155	1.5323e+01	6.1314	28.302340	0.000618	6.183500	2.095026	0.000248
 156	1.5422e+01	6.1683	28.492085	0.000476	4.764336	1.614201	0.000191
 157	1.5522e+01	6.1988	28.774685	0.000710	7.095819	2.404129	0.000284
 158	1.5621e+01	6.2565	28.952319	0.000446	4.460229	1.511167	0.000179
 159	1.5721e+01	6.2918	29.186473	0.000588	5.879393	1.991992	0.000235
 160	1.5820e+01	6.3271	29.400441	0.000537	5.372549	1.820269	0.000215
 161	1.5920e+01	6.3656	29.630558	0.000578	5.778024	1.957648	0.000231
 162	1.6020e+01	6.4137	29.860674	0.000578	5.778024	1.957648	0.000231
 163	1.6119e+01	6.4426	30.078680	0.000547	5.473918	1.854614	0.000219
 164	1.6218e+01	6.4907	30.288611	0.000527	5.271180	1.785924	0.000211
 165	1.6318e+01	6.5292	30.551025	0.000659	6.588975	2.232405	0.000264
 166	1.6418e+01	6.5677	30.769030	0.000547	5.473918	1.854614	0.000219
 167	1.6517e+01	6.6143	31.003184	0.000588	5.879393	1.991992	0.000235
 168	1.6616e+01	6.6479	31.253486	0.000628	6.284869	2.129371	0.000252
 169	1.6716e+01	6.6864	31.455343	0.000507	5.068442	1.717235	0.000203
 170	1.6816e+01	6.7410	31.645088	0.000476	4.764336	1.614201	0.000191
 171	1.6915e+01	6.7763	31.875205	0.000578	5.778024	1.957648	0.000231
 172	1.7015e+01	6.8148	32.149730	0.000689	6.893082	2.335439	0.000276
 173	1.7114e+01	6.8453	32.343513	0.000487	4.865705	1.648545	0.000195
 174	1.7213e+01	6.8806	32.597853	0.000639	6.386237	2.163716	0.000256
 175	1.7313e+01	6.9207	32.791635	0.000487	4.865705	1.648545	0.000195
 176	1.7413e+01	6.9704	33.037900	0.000618	6.183500	2.095026	0.000248
 177	1.7512e+01	7.0057	33.243794	0.000517	5.169811	1.751579	0.000207
 178	1.7611e+01	7.0474	33.498134	0.000639	6.386237	2.163716	0.000256
 179	1.7711e+01	7.0843	33.691916	0.000487	4.865705	1.648545	0.000195
 180	1.7811e+01	7.1308	33.954330	0.000659	6.588975	2.232405	0.000264
 181	1.7910e+01	7.1661	34.192521	0.000598	5.980762	2.026337	0.000239
 182	1.8009e+01	7.2078	34.390341	0.000497	4.967074	1.682890	0.000199
 183	1.8109e+01	7.2479	34.636606	0.000618	6.183500	2.095026	0.000248
 184	1.8209e+01	7.2864	34.850574	0.000537	5.372549	1.820269	0.000215
 185	1.8308e+01	7.3233	35.084728	0.000588	5.879393	1.991992	0.000235
 186	1.8407e+01	7.3666	35.318882	0.000588	5.879393	1.991992	0.000235
 187	1.8507e+01	7.4051	35.516702	0.000497	4.967074	1.682890	0.000199
 188	1.8607e+01	7.4485	35.746818	0.000578	5.778024	1.957648	0.000231
 189	1.8706e+01	7.4854	36.001158	0.000639	6.386237	2.163716	0.000256
 190	1.8805e+01	7.5271	36.227238	0.000568	5.676655	1.923303	0.000227
 191	1.8905e+01	7.5640	36.457354	0.000578	5.778024	1.957648	0.000231
 192	1.9005e+01	7.6057	36.699582	0.000608	6.082131	2.060682	0.000243
 193	1.9104e+01	7.6345	36.901439	0.000507	5.068442	1.717235	0.000203
 194	1.9203e+01	7.6779	37.139630	0.000598	5.980762	2.026337	0.000239
 195	1.9303e+01	7.7260	37.345524	0.000517	5.169811	1.751579	0.000207
 196	1.9402e+01	7.7629	37.575641	0.000578	5.778024	1.957648	0.000231
 197	1.9502e+01	7.8110	37.801720	0.000568	5.676655	1.923303	0.000227
 198	1.9602e+01	7.8351	38.056060	0.000639	6.386237	2.163716	0.000256
 199	1.9701e+01	7.8880	38.261954	0.000517	5.169811	1.751579	0.000207
 200	1.9800e+01	7.9185	38.447662	0.000466	4.662967	1.579856	0.000187
 201	1.9900e+01	7.9602	38.734299	0.000720	7.197188	2.438473	0.000288
 202	2.0000e+01	7.9971	38.903859	0.000426	4.257492	1.442477	0.000170
 203	2.0099e+01	8.0372	39.162235	0.000649	6.487606	2.198060	0.000260
 204	2.0198e+01	8.0709	39.372166	0.000527	5.271180	1.785924	0.000211
 205	2.0298e+01	8.1158	39.610357	0.000598	5.980762	2.026337	0.000239
 206	2.0398e+01	8.1607	39.816251	0.000517	5.169811	1.751579	0.000207
 207	2.0497e+01	8.1976	40.054442	0.000598	5.980762	2.026337	0.000239
 208	2.0596e+01	8.2377	40.272448	0.000547	5.473918	1.854614	0.000219
 209	2.0696e+01	8.2762	40.514676	0.000608	6.082131	2.060682	0.000243
 210	2.0796e+01	8.3308	40.728644	0.000537	5.372549	1.820269	0.000215
 211	2.0895e+01	8.3500	40.942612	0.000537	5.372549	1.820269	0.000215
 212	2.0994e+01	8.4062	41.164655	0.000558	5.575287	1.888958	0.000223
 213	2.1094e+01	8.4399	41.406883	0.000608	6.082131	2.060682	0.000243
 214	2.1194e+01	8.4832	41.624888	0.000547	5.473918	1.854614	0.000219
 215	2.1293e+01	8.5217	41.867116	0.000608	6.082131	2.060682	0.000243
 216	2.1392e+01	8.5586	42.073010	0.000517	5.169811	1.751579	0.000207
 217	2.1492e+01	8.6003	42.286978	0.000537	5.372549	1.820269	0.000215
 218	2.1591e+01	8.6356	42.569578	0.000710	7.095819	2.404129	0.000284
 219	2.1691e+01	8.6725	42.759323	0.000476	4.764336	1.614201	0.000191
 220	2.1791e+01	8.7222	43.017700	0.000649	6.487606	2.198060	0.000260
 221	2.1890e+01	8.7623	43.203408	0.000466	4.662967	1.579856	0.000187
 222	2.1989e+01	8.8121	43.445636	0.000608	6.082131	2.060682	0.000243
 223	2.2089e+01	8.8441	43.659604	0.000537	5.372549	1.820269	0.000215
 224	2.2189e+01	8.8810	43.897795	0.000598	5.980762	2.026337	0.000239
 225	2.2288e+01	8.9131	44.123875	0.000568	5.676655	1.923303	0.000227
 226	2.2387e+01	8.9516	44.362066	0.000598	5.980762	2.026337	0.000239
 227	2.2487e+01	8.9885	44.555849	0.000487	4.865705	1.648545	0.000195
 228	2.2587e+01	9.0399	44.802114	0.000618	6.183500	2.095026	0.000248
 229	2.2686e+01	9.0816	45.020119	0.000547	5.473918	1.854614	0.000219
 230	2.2785e+01	9.1185	45.254273	0.000588	5.879393	1.991992	0.000235
 231	2.2885e+01	9.1425	45.480353	0.000568	5.676655	1.923303	0.000227
 232	2.2985e+01	9.1939	45.690284	0.000527	5.271180	1.785924	0.000211
 233	2.3084e+01	9.2388	45.912326	0.000558	5.575287	1.888958	0.000223
 234	2.3183e+01	9.2789	46.158591	0.000618	6.183500	2.095026	0.000248
 235	2.3283e+01	9.3062	46.344300	0.000466	4.662967	1.579856	0.000187
 236	2.3383e+01	9.3671	46.618825	0.000689	6.893082	2.335439	0.000276
 237	2.3482e+01	9.4008	46.840867	0.000558	5.575287	1.888958	0.000223
 238	2.3581e+01	9.4361	47.054836	0.000537	5.372549	1.820269	0.000215
 239	2.3681e+01	9.4698	47.293027	0.000598	5.980762	2.026337	0.000239
 240	2.3780e+01	9.5131	47.498921	0.000517	5.169811	1.751579	0.000207
 241	2.3880e+01	9.5564	47.745186	0.000618	6.183500	2.095026	0.000248
 242	2.3980e+01	9.5997	47.975303	0.000578	5.778024	1.957648	0.000231
 243	2.4079e+01	9.6238	48.221568	0.000618	6.183500	2.095026	0.000248
 244	2.4178e+01	9.6815	48.407276	0.000466	4.662967	1.579856	0.000187
 245	2.4278e+01	9.7152	48.625281	0.000547	5.473918	1.854614	0.000219
 246	2.4378e+01	9.7553	48.871547	0.000618	6.183500	2.095026	0.000248
 247	2.4477e+01	9.7938	49.101663	0.000578	5.778024	1.957648	0.000231
 248	2.4576e+01	9.8275	49.335817	0.000588	5.879393	1.991992	0.000235
 249	2.4676e+01	9.8692	49.509414	0.000436	4.358860	1.476822	0.000174
 250	2.4776e+01	9.9174	49.800088	0.000730	7.298557	2.472818	0.000292
 251	2.4875e+01	9.9495	49.985796	0.000466	4.662967	1.579856	0.000187
 252	2.4974e+01	9.9944	50.236099	0.000628	6.284869	2.129371	0.000252
 253	2.5074e+01	10.0409	50.494475	0.000649	6.487606	2.198060	0.000260
 254	2.5174e+01	10.0666	50.664035	0.000426	4.257492	1.442477	0.000170
 255	2.5273e+01	10.1163	50.922412	0.000649	6.487606	2.198060	0.000260
 256	2.5372e+01	10.1484	51.132343	0.000527	5.271180	1.785924	0.000211
 257	2.5472e+01	10.1981	51.362459	0.000578	5.778024	1.957648	0.000231
 258	2.5572e+01	10.2318	51.560279	0.000497	4.967074	1.682890	0.000199
 259	2.5671e+01	10.2783	51.786359	0.000568	5.676655	1.923303	0.000227
 260	2.5770e+01	10.3136	52.048773	0.000659	6.588975	2.232405	0.000264
 261	2.5870e+01	10.3521	52.234481	0.000466	4.662967	1.579856	0.000187
 262	2.5970e+01	10.3922	52.509006	0.000689	6.893082	2.335439	0.000276
 263	2.6069e+01	10.4259	52.666454	0.000395	3.953385	1.339443	0.000158
 264	2.6169e+01	10.4708	52.916757	0.000628	6.284869	2.129371	0.000252
 265	2.6268e+01	10.5190	53.114576	0.000497	4.967074	1.682890	0.000199
 266	2.6367e+01	10.5591	53.360842	0.000618	6.183500	2.095026	0.000248
 267	2.6467e+01	10.5944	53.578847	0.000547	5.473918	1.854614	0.000219
 268	2.6567e+01	10.6296	53.813001	0.000588	5.879393	1.991992	0.000235
 269	2.6666e+01	10.6778	54.035043	0.000558	5.575287	1.888958	0.000223
 270	2.6765e+01	10.7211	54.265160	0.000578	5.778024	1.957648	0.000231
 271	2.6865e+01	10.7612	54.458943	0.000487	4.865705	1.648545	0.000195
 272	2.6965e+01	10.7885	54.705208	0.000618	6.183500	2.095026	0.000248
 273	2.7064e+01	10.8302	54.931287	0.000568	5.676655	1.923303	0.000227
 274	2.7163e+01	10.8671	55.112959	0.000456	4.561598	1.545511	0.000183
 275	2.7263e+01	10.9088	55.363261	0.000628	6.284869	2.129371	0.000252
 276	2.7363e+01	10.9473	55.605489	0.000608	6.082131	2.060682	0.000243
 277	2.7462e+01	10.9890	55.815420	0.000527	5.271180	1.785924	0.000211
 278	2.7561e+01	11.0291	56.013240	0.000497	4.967074	1.682890	0.000199
 279	2.7661e+01	11.0676	56.219134	0.000517	5.169811	1.751579	0.000207
 280	2.7761e+01	11.1029	56.477510	0.000649	6.487606	2.198060	0.000260
 281	2.7860e+01	11.1462	56.679367	0.000507	5.068442	1.717235	0.000203
 282	2.7959e+01	11.1895	56.913521	0.000588	5.879393	1.991992	0.000235
 283	2.8059e+01	11.2264	57.139601	0.000568	5.676655	1.923303	0.000227
 284	2.8159e+01	11.2729	57.349532	0.000527	5.271180	1.785924	0.000211
 285	2.8258e+01	11.3130	57.555426	0.000517	5.169811	1.751579	0.000207
 286	2.8358e+01	11.3564	57.833988	0.000699	6.994450	2.369784	0.000280
 287	2.8457e+01	11.3997	58.027771	0.000487	4.865705	1.648545	0.000195
 288	2.8556e+01	11.4302	58.249813	0.000558	5.575287	1.888958	0.000223
 289	2.8656e+01	11.4719	58.447633	0.000497	4.967074	1.682890	0.000199
 290	2.8756e+01	11.5040	58.685824	0.000598	5.980762	2.026337	0.000239
 291	2.8855e+01	11.5441	58.924015	0.000598	5.980762	2.026337	0.000239
 292	2.8954e+01	11.5810	59.129909	0.000517	5.169811	1.751579	0.000207
 293	2.9054e+01	11.6339	59.372137	0.000608	6.082131	2.060682	0.000243
 294	2.9154e+01	11.6676	59.537659	0.000416	4.156123	1.408133	0.000166
 295	2.9253e+01	11.7093	59.779887	0.000608	6.082131	2.060682	0.000243
 296	2.9352e+01	11.7414	60.001930	0.000558	5.575287	1.888958	0.000223
 297	2.9452e+01	11.7911	60.228010	0.000568	5.676655	1.923303	0.000227
 298	2.9552e+01	11.8328	60.433903	0.000517	5.169811	1.751579	0.000207
 299	2.9651e+01	11.8569	60.680169	0.000618	6.183500	2.095026	0.000248
 300	2.9750e+01	11.9130	60.882025	0.000507	5.068442	1.717235	0.000203
 301	2.9850e+01	11.9403	61.108105	0.000568	5.676655	1.923303	0.000227
 302	2.9950e+01	11.9916	61.277665	0.000426	4.257492	1.442477	0.000170
 303	3.0049e+01	12.0334	61.523930	0.000618	6.183500	2.095026	0.000248
 304	3.0148e+01	12.0735	61.745973	0.000558	5.575287	1.888958	0.000223
 305	3.0248e+01	12.1007	61.972052	0.000568	5.676655	1.923303	0.000227
 306	3.0348e+01	12.1408	62.186020	0.000537	5.372549	1.820269	0.000215
 307	3.0447e+01	12.1761	62.395951	0.000527	5.271180	1.785924	0.000211
 308	3.0547e+01	12.2291	62.617994	0.000558	5.575287	1.888958	0.000223
 309	3.0646e+01	12.2676	62.815814	0.000497	4.967074	1.682890	0.000199
 310	3.0745e+01	12.3109	63.078227	0.000659	6.588975	2.232405	0.000264
 311	3.0845e+01	12.3382	63.255861	0.000446	4.460229	1.511167	0.000179
 312	3.0945e+01	12.3863	63.502127	0.000618	6.183500	2.095026	0.000248
 313	3.1044e+01	12.4296	63.695909	0.000487	4.865705	1.648545	0.000195
 314	3.1143e+01	12.4761	63.930063	0.000588	5.879393	1.991992	0.000235
 315	3.1243e+01	12.5050	64.131920	0.000507	5.068442	1.717235	0.000203
 316	3.1343e+01	12.5451	64.341851	0.000527	5.271180	1.785924	0.000211
 317	3.1442e+01	12.5900	64.571968	0.000578	5.778024	1.957648	0.000231
 318	3.1541e+01	12.6221	64.777861	0.000517	5.169811	1.751579	0.000207
 319	3.1641e+01	12.6686	64.987793	0.000527	5.271180	1.785924	0.000211
 320	3.1741e+01	12.7087	65.169464	0.000456	4.561598	1.545511	0.000183
 321	3.1840e+01	12.7408	65.399580	0.000578	5.778024	1.957648	0.000231
 322	3.1939e+01	12.7905	65.649883	0.000628	6.284869	2.129371	0.000252
 323	3.2039e+01	12.8194	65.807331	0.000395	3.953385	1.339443	0.000158
 324	3.2139e+01	12.8643	66.049559	0.000608	6.082131	2.060682	0.000243
 325	3.2238e+01	12.9061	66.279676	0.000578	5.778024	1.957648	0.000231
 326	3.2337e+01	12.9397	66.461347	0.000456	4.561598	1.545511	0.000183
 327	3.2437e+01	12.9798	66.683390	0.000558	5.575287	1.888958	0.000223
 328	3.2536e+01	13.0232	66.901395	0.000547	5.473918	1.854614	0.000219
 329	3.2636e+01	13.0536	67.127474	0.000568	5.676655	1.923303	0.000227
 330	3.2736e+01	13.1066	67.361628	0.000588	5.879393	1.991992	0.000235
 331	3.2835e+01	13.1403	67.523114	0.000405	4.054754	1.373788	0.000162
 332	3.2934e+01	13.1836	67.729008	0.000517	5.169811	1.751579	0.000207
 333	3.3034e+01	13.2221	67.971236	0.000608	6.082131	2.060682	0.000243
 334	3.3133e+01	13.2622	68.185204	0.000537	5.372549	1.820269	0.000215
 335	3.3233e+01	13.3071	68.366875	0.000456	4.561598	1.545511	0.000183
 336	3.3333e+01	13.3376	68.572769	0.000517	5.169811	1.751579	0.000207
 337	3.3432e+01	13.3713	68.819034	0.000618	6.183500	2.095026	0.000248
 338	3.3532e+01	13.4274	69.033003	0.000537	5.372549	1.820269	0.000215
 339	3.3631e+01	13.4675	69.267156	0.000588	5.879393	1.991992	0.000235
 340	3.3730e+01	13.4980	69.456902	0.000476	4.764336	1.614201	0.000191
 341	3.3830e+01	13.5429	69.666833	0.000527	5.271180	1.785924	0.000211
 342	3.3929e+01	13.5814	69.880801	0.000537	5.372549	1.820269	0.000215
 343	3.4029e+01	13.6183	70.078621	0.000497	4.967074	1.682890	0.000199
 344	3.4129e+01	13.6584	70.292589	0.000537	5.372549	1.820269	0.000215
 345	3.4228e+01	13.7066	70.518669	0.000568	5.676655	1.923303	0.000227
 346	3.4328e+01	13.7322	70.736674	0.000547	5.473918	1.854614	0.000219
 347	3.4427e+01	13.7804	70.946605	0.000527	5.271180	1.785924	0.000211
 348	3.4526e+01	13.8173	71.168647	0.000558	5.575287	1.888958	0.000223
 349	3.4626e+01	13.8574	71.378578	0.000527	5.271180	1.785924	0.000211
 350	3.4725e+01	13.8959	71.580435	0.000507	5.068442	1.717235	0.000203
 351	3.4825e+01	13.9344	71.798441	0.000547	5.473918	1.854614	0.000219
 352	3.4925e+01	13.9777	72.000297	0.000507	5.068442	1.717235	0.000203
 353	3.5024e+01	14.0210	72.226377	0.000568	5.676655	1.923303	0.000227
 354	3.5123e+01	14.0579	72.416122	0.000476	4.764336	1.614201	0.000191
 355	3.5223e+01	14.0996	72.650276	0.000588	5.879393	1.991992	0.000235
 356	3.5322e+01	14.1349	72.864244	0.000537	5.372549	1.820269	0.000215
 357	3.5422e+01	14.1766	73.049953	0.000466	4.662967	1.579856	0.000187
 358	3.5522e+01	14.2183	73.271995	0.000558	5.575287	1.888958	0.000223
 359	3.5621e+01	14.2664	73.481926	0.000527	5.271180	1.785924	0.000211
 360	3.5721e+01	14.2969	73.708006	0.000568	5.676655	1.923303	0.000227
 361	3.5820e+01	14.3306	73.901788	0.000487	4.865705	1.648545	0.000195
 362	3.5919e+01	14.3723	74.148054	0.000618	6.183500	2.095026	0.000248
 363	3.6019e+01	14.4140	74.378170	0.000578	5.778024	1.957648	0.000231
 364	3.6118e+01	14.4557	74.559841	0.000456	4.561598	1.545511	0.000183
 365	3.6218e+01	14.4942	74.789958	0.000578	5.778024	1.957648	0.000231
 366	3.6318e+01	14.5408	75.003926	0.000537	5.372549	1.820269	0.000215
 367	3.6417e+01	14.5777	75.153300	0.000375	3.750647	1.270754	0.000150
 368	3.6517e+01	14.6226	75.395528	0.000608	6.082131	2.060682	0.000243
 369	3.6616e+01	14.6531	75.605460	0.000527	5.271180	1.785924	0.000211
 370	3.6715e+01	14.7092	75.831539	0.000568	5.676655	1.923303	0.000227
 371	3.6815e+01	14.7188	76.013210	0.000456	4.561598	1.545511	0.000183
 372	3.6914e+01	14.7750	76.223141	0.000527	5.271180	1.785924	0.000211
 373	3.7014e+01	14.8103	76.453258	0.000578	5.778024	1.957648	0.000231
 374	3.7114e+01	14.8600	76.703560	0.000628	6.284869	2.129371	0.000252
 375	3.7213e+01	14.8953	76.869083	0.000416	4.156123	1.408133	0.000166
 376	3.7313e+01	14.9370	77.066903	0.000497	4.967074	1.682890	0.000199
 377	3.7412e+01	14.9739	77.292982	0.000568	5.676655	1.923303	0.000227
 378	3.7511e+01	15.0156	77.531173	0.000598	5.980762	2.026337	0.000239
 379	3.7611e+01	15.0477	77.700733	0.000426	4.257492	1.442477	0.000170
 380	3.7711e+01	15.0926	77.938924	0.000598	5.980762	2.026337	0.000239
 381	3.7810e+01	15.1215	78.140781	0.000507	5.068442	1.717235	0.000203
 382	3.7910e+01	15.1728	78.322452	0.000456	4.561598	1.545511	0.000183
 383	3.8009e+01	15.2194	78.564680	0.000608	6.082131	2.060682	0.000243
 384	3.8108e+01	15.2595	78.750388	0.000466	4.662967	1.579856	0.000187
 385	3.8208e+01	15.2915	78.980505	0.000578	5.778024	1.957648	0.000231
 386	3.8307e+01	15.3349	79.178325	0.000497	4.967074	1.682890	0.000199
 387	3.8407e+01	15.3718	79.420553	0.000608	6.082131	2.060682	0.000243
 388	3.8507e+01	15.4103	79.614335	0.000487	4.865705	1.648545	0.000195
 389	3.8606e+01	15.4488	79.820229	0.000517	5.169811	1.751579	0.000207
 390	3.8706e+01	15.4873	80.050346	0.000578	5.778024	1.957648	0.000231
 391	3.8805e+01	15.5386	80.223943	0.000436	4.358860	1.476822	0.000174
 392	3.8904e+01	15.5755	80.474245	0.000628	6.284869	2.129371	0.000252
 393	3.9004e+01	15.6188	80.676102	0.000507	5.068442	1.717235	0.000203
 394	3.9103e+01	15.6573	80.881996	0.000517	5.169811	1.751579	0.000207
 395	3.9203e+01	15.6926	81.083853	0.000507	5.068442	1.717235	0.000203
 396	3.9303e+01	15.7327	81.253412	0.000426	4.257492	1.442477	0.000170
 397	3.9402e+01	15.7776	81.523901	0.000679	6.791713	2.301095	0.000272
 398	3.9502e+01	15.8001	81.721720	0.000497	4.967074	1.682890	0.000199
 399	3.9601e+01	15.8434	81.931651	0.000527	5.271180	1.785924	0.000211
 400	3.9700e+01	15.8931	82.133508	0.000507	5.068442	1.717235	0.000203
 401	3.9800e+01	15.9332	82.375736	0.000608	6.082131	2.060682	0.000243
 402	3.9900e+01	15.9733	82.573556	0.000497	4.967074	1.682890	0.000199
 403	3.9999e+01	16.0118	82.759264	0.000466	4.662967	1.579856	0.000187
 404	4.0099e+01	16.0648	82.997455	0.000598	5.980762	2.026337	0.000239
 405	4.0198e+01	16.0872	83.207386	0.000527	5.271180	1.785924	0.000211
 406	4.0297e+01	16.1241	83.405206	0.000497	4.967074	1.682890	0.000199
 407	4.0397e+01	16.1771	83.607063	0.000507	5.068442	1.717235	0.000203
 408	4.0496e+01	16.2011	83.825068	0.000547	5.473918	1.854614	0.000219
 409	4.0596e+01	16.2541	84.059222	0.000588	5.879393	1.991992	0.000235
 410	4.0696e+01	16.2894	84.240893	0.000456	4.561598	1.545511	0.000183
 411	4.0795e+01	16.3311	84.438713	0.000497	4.967074	1.682890	0.000199
 412	4.0895e+01	16.3648	84.644606	0.000517	5.169811	1.751579	0.000207
 413	4.0994e+01	16.4049	84.886835	0.000608	6.082131	2.060682	0.000243
 414	4.1093e+01	16.4546	85.068506	0.000456	4.561598	1.545511	0.000183
 415	4.1193e+01	16.4835	85.266325	0.000497	4.967074	1.682890	0.000199
 416	4.1292e+01	16.5396	85.520665	0.000639	6.386237	2.163716	0.000256
 417	4.1392e+01	16.5685	85.686187	0.000416	4.156123	1.408133	0.000166
 418	4.1492e+01	16.6038	85.916304	0.000578	5.778024	1.957648	0.000231
 419	4.1591e+01	16.6471	86.130272	0.000537	5.372549	1.820269	0.000215
 420	4.1691e+01	16.6888	86.348278	0.000547	5.473918	1.854614	0.000219
 421	4.1790e+01	16.7257	86.586469	0.000598	5.980762	2.026337	0.000239
 422	4.1889e+01	16.7739	86.800437	0.000537	5.372549	1.820269	0.000215
 423	4.1989e+01	16.8172	86.986145	0.000466	4.662967	1.579856	0.000187
 424	4.2089e+01	16.8460	87.192039	0.000517	5.169811	1.751579	0.000207
 425	4.2188e+01	16.8846	87.414082	0.000558	5.575287	1.888958	0.000223
 426	4.2288e+01	16.9247	87.652273	0.000598	5.980762	2.026337	0.000239
 427	4.2387e+01	16.9664	87.829907	0.000446	4.460229	1.511167	0.000179
 428	4.2486e+01	17.0017	88.043875	0.000537	5.372549	1.820269	0.000215
 429	4.2586e+01	17.0402	88.241694	0.000497	4.967074	1.682890	0.000199
 430	4.2685e+01	17.0851	88.455663	0.000537	5.372549	1.820269	0.000215
 431	4.2785e+01	17.1396	88.665594	0.000527	5.271180	1.785924	0.000211
 432	4.2885e+01	17.1605	88.863413	0.000497	4.967074	1.682890	0.000199
 433	4.2984e+01	17.1990	89.049122	0.000466	4.662967	1.579856	0.000187
 434	4.3084e+01	17.2455	89.271164	0.000558	5.575287	1.888958	0.000223
 435	4.3183e+01	17.2840	89.497244	0.000568	5.676655	1.923303	0.000227
 436	4.3282e+01	17.3225	89.691026	0.000487	4.865705	1.648545	0.000195
 437	4.3382e+01	17.3562	89.888846	0.000497	4.967074	1.682890	0.000199
 438	4.3481e+01	17.4107	90.118963	0.000578	5.778024	1.957648	0.000231
 439	4.3581e+01	17.4476	90.332931	0.000537	5.372549	1.820269	0.000215
 440	4.3681e+01	17.4910	90.550936	0.000547	5.473918	1.854614	0.000219
 441	4.3780e+01	17.5230	90.756830	0.000517	5.169811	1.751579	0.000207
 442	4.3880e+01	17.5696	90.938501	0.000456	4.561598	1.545511	0.000183
 443	4.3979e+01	17.5952	91.156506	0.000547	5.473918	1.854614	0.000219
 444	4.4078e+01	17.6417	91.342215	0.000466	4.662967	1.579856	0.000187
 445	4.4178e+01	17.6851	91.548109	0.000517	5.169811	1.751579	0.000207
 446	4.4278e+01	17.7284	91.778225	0.000578	5.778024	1.957648	0.000231
 447	4.4377e+01	17.7621	91.972008	0.000487	4.865705	1.648545	0.000195
 448	4.4477e+01	17.8038	92.141568	0.000426	4.257492	1.442477	0.000170
 449	4.4576e+01	17.8487	92.387833	0.000618	6.183500	2.095026	0.000248
 450	4.4675e+01	17.8776	92.589690	0.000507	5.068442	1.717235	0.000203
 451	4.4775e+01	17.9257	92.819806	0.000578	5.778024	1.957648	0.000231
 452	4.4874e+01	17.9498	93.009552	0.000476	4.764336	1.614201	0.000191
 453	4.4974e+01	18.0091	93.251780	0.000608	6.082131	2.060682	0.000243
 454	4.5074e+01	18.0444	93.393080	0.000355	3.547910	1.202064	0.000142
 455	4.5173e+01	18.0749	93.615122	0.000558	5.575287	1.888958	0.000223
 456	4.5273e+01	18.1182	93.829090	0.000537	5.372549	1.820269	0.000215
 457	4.5372e+01	18.1551	94.022873	0.000487	4.865705	1.648545	0.000195
 458	4.5471e+01	18.1968	94.257027	0.000588	5.879393	1.991992	0.000235
 459	4.5571e+01	18.2449	94.475032	0.000547	5.473918	1.854614	0.000219
 460	4.5670e+01	18.2834	94.648629	0.000436	4.358860	1.476822	0.000174
 461	4.5770e+01	18.3268	94.854523	0.000517	5.169811	1.751579	0.000207
 462	4.5870e+01	18.3669	95.068491	0.000537	5.372549	1.820269	0.000215
 463	4.5969e+01	18.4070	95.262273	0.000487	4.865705	1.648545	0.000195
 464	4.6069e+01	18.4391	95.452019	0.000476	4.764336	1.614201	0.000191
 465	4.6168e+01	18.4808	95.686173	0.000588	5.879393	1.991992	0.000235
 466	4.6267e+01	18.5225	95.855732	0.000426	4.257492	1.442477	0.000170
 467	4.6367e+01	18.5642	96.110072	0.000639	6.386237	2.163716	0.000256
 468	4.6467e+01	18.6011	96.279632	0.000426	4.257492	1.442477	0.000170
 469	4.6566e+01	18.6396	96.525897	0.000618	6.183500	2.095026	0.000248
 470	4.6666e+01	18.6861	96.707568	0.000456	4.561598	1.545511	0.000183
 471	4.6765e+01	18.7198	96.953833	0.000618	6.183500	2.095026	0.000248
 472	4.6864e+01	18.7631	97.139542	0.000466	4.662967	1.579856	0.000187
 473	4.6964e+01	18.7920	97.317176	0.000446	4.460229	1.511167	0.000179
 474	4.7063e+01	18.8433	97.519032	0.000507	5.068442	1.717235	0.000203
 475	4.7163e+01	18.8786	97.716852	0.000497	4.967074	1.682890	0.000199
 476	4.7263e+01	18.9203	97.914672	0.000497	4.967074	1.682890	0.000199
 477	4.7362e+01	18.9620	98.120566	0.000517	5.169811	1.751579	0.000207
 478	4.7462e+01	18.9941	98.314348	0.000487	4.865705	1.648545	0.000195
 479	4.7561e+01	19.0390	98.508131	0.000487	4.865705	1.648545	0.000195
 480	4.7660e+01	19.0727	98.730173	0.000558	5.575287	1.888958	0.000223
 481	4.7760e+01	19.1176	98.907807	0.000446	4.460229	1.511167	0.000179
 482	4.7859e+01	19.1658	99.117738	0.000527	5.271180	1.785924	0.000211
 483	4.7959e+01	19.2059	99.331706	0.000537	5.372549	1.820269	0.000215
 484	4.8059e+01	19.2299	99.517415	0.000466	4.662967	1.579856	0.000187
 485	4.8158e+01	19.2877	99.719271	0.000507	5.068442	1.717235	0.000203
 486	4.8258e+01	19.3150	99.949388	0.000578	5.778024	1.957648	0.000231
 487	4.8357e+01	19.3583	100.110873	0.000405	4.054754	1.373788	0.000162
 488	4.8456e+01	19.3855	100.332916	0.000558	5.575287	1.888958	0.000223
 489	4.8556e+01	19.4273	100.542847	0.000527	5.271180	1.785924	0.000211
 490	4.8656e+01	19.4802	100.696258	0.000385	3.852016	1.305098	0.000154
 491	4.8755e+01	19.5107	100.922338	0.000568	5.676655	1.923303	0.000227
 492	4.8855e+01	19.5572	101.116120	0.000487	4.865705	1.648545	0.000195
 493	4.8954e+01	19.5925	101.326051	0.000527	5.271180	1.785924	0.000211
 494	4.9053e+01	19.6358	101.495611	0.000426	4.257492	1.442477	0.000170
 495	4.9153e+01	19.6727	101.697468	0.000507	5.068442	1.717235	0.000203
 496	4.9252e+01	19.7096	101.923547	0.000568	5.676655	1.923303	0.000227
 497	4.9352e+01	19.7577	102.125404	0.000507	5.068442	1.717235	0.000203
 498	4.9452e+01	19.8010	102.323224	0.000497	4.967074	1.682890	0.000199
 499	4.9551e+01	19.8299	102.525081	0.000507	5.068442	1.717235	0.000203
 500	4.9651e+01	19.8716	102.718863	0.000487	4.865705	1.648545	0.000195
 501	4.9750e+01	19.9085	102.864200	0.000365	3.649279	1.236409	0.000146
 502	4.9849e+01	19.9567	103.110465	0.000618	6.183500	2.095026	0.000248
 503	4.9949e+01	19.9952	103.312322	0.000507	5.068442	1.717235	0.000203
 504	5.0048e+01	19.9454	103.179097	0.000335	3.345172	1.133375	-0.000134
 505	5.0148e+01	19.9198	103.005500	0.000436	4.358860	1.476822	-0.000174
 506	5.0248e+01	19.8813	102.811717	0.000487	4.865705	1.648545	-0.000195
 507	5.0347e+01	19.8299	102.678492	0.000335	3.345172	1.133375	-0.000134
 508	5.0447e+01	19.7962	102.512969	0.000416	4.156123	1.408133	-0.000166
 509	5.0546e+01	19.7513	102.363595	0.000375	3.750647	1.270754	-0.000150
 510	5.0645e+01	19.7128	102.206147	0.000395	3.953385	1.339443	-0.000158
 511	5.0745e+01	19.6727	102.020439	0.000466	4.662967	1.579856	-0.000187
 512	5.0844e+01	19.6358	101.907399	0.000284	2.838328	0.961651	-0.000114
 513	5.0944e+01	19.5957	101.745913	0.000405	4.054754	1.373788	-0.000162
 514	5.1044e+01	19.5540	101.560205	0.000466	4.662967	1.579856	-0.000187
 515	5.1143e+01	19.5107	101.426980	0.000335	3.345172	1.133375	-0.000134
 516	5.1242e+01	19.4834	101.233197	0.000487	4.865705	1.648545	-0.000195
 517	5.1342e+01	19.4369	101.063637	0.000426	4.257492	1.442477	-0.000170
 518	5.1441e+01	19.4016	100.934449	0.000324	3.243803	1.099030	-0.000130
 519	5.1541e+01	19.3519	100.736630	0.000497	4.967074	1.682890	-0.000199
 520	5.1641e+01	19.3118	100.575144	0.000405	4.054754	1.373788	-0.000162
 521	5.1740e+01	19.2700	100.433844	0.000355	3.547910	1.202064	-0.000142
 522	5.1840e+01	19.2396	100.252173	0.000456	4.561598	1.545511	-0.000183
 523	5.1939e+01	19.1930	100.098762	0.000385	3.852016	1.305098	-0.000154
 524	5.2038e+01	19.1594	99.909017	0.000476	4.764336	1.614201	-0.000191
 525	5.2138e+01	19.1225	99.739457	0.000426	4.257492	1.442477	-0.000170
 526	5.2237e+01	19.0727	99.590083	0.000375	3.750647	1.270754	-0.000150
 527	5.2337e+01	19.0358	99.408412	0.000456	4.561598	1.545511	-0.000183
 528	5.2437e+01	19.0037	99.259038	0.000375	3.750647	1.270754	-0.000150
 529	5.2536e+01	18.9684	99.045070	0.000537	5.372549	1.820269	-0.000215
 530	5.2636e+01	18.9155	98.903770	0.000355	3.547910	1.202064	-0.000142
 531	5.2735e+01	18.8882	98.705950	0.000497	4.967074	1.682890	-0.000199
 532	5.2834e+01	18.8337	98.536391	0.000426	4.257492	1.442477	-0.000170
 533	5.2934e+01	18.8000	98.415276	0.000304	3.041065	1.030341	-0.000122
 534	5.3033e+01	18.7615	98.173048	0.000608	6.082131	2.060682	-0.000243
 535	5.3133e+01	18.7262	98.019637	0.000385	3.852016	1.305098	-0.000154
 536	5.3233e+01	18.6733	97.858152	0.000405	4.054754	1.373788	-0.000162
 537	5.3332e+01	18.6476	97.696666	0.000405	4.054754	1.373788	-0.000162
 538	5.3431e+01	18.6011	97.531144	0.000416	4.156123	1.408133	-0.000166
 539	5.3531e+01	18.5594	97.313138	0.000547	5.473918	1.854614	-0.000219
 540	5.3630e+01	18.5177	97.135504	0.000446	4.460229	1.511167	-0.000179
 541	5.3730e+01	18.4792	96.994205	0.000355	3.547910	1.202064	-0.000142
 542	5.3830e+01	18.4423	96.796385	0.000497	4.967074	1.682890	-0.000199
 543	5.3929e+01	18.4038	96.655085	0.000355	3.547910	1.202064	-0.000142
 544	5.4029e+01	18.3588	96.424969	0.000578	5.778024	1.957648	-0.000231
 545	5.4128e+01	18.3268	96.267520	0.000395	3.953385	1.339443	-0.000158
 546	5.4227e+01	18.2770	96.097961	0.000426	4.257492	1.442477	-0.000170
 547	5.4327e+01	18.2369	95.912252	0.000466	4.662967	1.579856	-0.000187
 548	5.4426e+01	18.1968	95.718470	0.000487	4.865705	1.648545	-0.000195
 549	5.4526e+01	18.1663	95.561021	0.000395	3.953385	1.339443	-0.000158
 550	5.4626e+01	18.1230	95.371276	0.000476	4.764336	1.614201	-0.000191
 551	5.4725e+01	18.0861	95.201716	0.000426	4.257492	1.442477	-0.000170
 552	5.4825e+01	18.0380	95.052342	0.000375	3.750647	1.270754	-0.000150
 553	5.4924e+01	18.0027	94.834337	0.000547	5.473918	1.854614	-0.000219
 554	5.5023e+01	17.9530	94.684963	0.000375	3.750647	1.270754	-0.000150
 555	5.5123e+01	17.9161	94.503292	0.000456	4.561598	1.545511	-0.000183
 556	5.5222e+01	17.8968	94.305472	0.000497	4.967074	1.682890	-0.000199
 557	5.5322e+01	17.8471	94.131875	0.000436	4.358860	1.476822	-0.000174
 558	5.5422e+01	17.8070	93.986539	0.000365	3.649279	1.236409	-0.000146
 559	5.5521e+01	17.7717	93.784682	0.000507	5.068442	1.717235	-0.000203
 560	5.5620e+01	17.7171	93.627233	0.000395	3.953385	1.339443	-0.000158
 561	5.5720e+01	17.6867	93.409228	0.000547	5.473918	1.854614	-0.000219
 562	5.5819e+01	17.6498	93.223520	0.000466	4.662967	1.579856	-0.000187
 563	5.5919e+01	17.6049	93.070109	0.000385	3.852016	1.305098	-0.000154
 564	5.6019e+01	17.5647	92.908623	0.000405	4.054754	1.373788	-0.000162
 565	5.6118e+01	17.5198	92.714841	0.000487	4.865705	1.648545	-0.000195
 566	5.6218e+01	17.4893	92.517021	0.000497	4.967074	1.682890	-0.000199
 567	5.6317e+01	17.4476	92.367647	0.000375	3.750647	1.270754	-0.000150
 568	5.6416e+01	17.4027	92.157716	0.000527	5.271180	1.785924	-0.000211
 569	5.6516e+01	17.3642	91.984119	0.000436	4.358860	1.476822	-0.000174
 570	5.6615e+01	17.3257	91.798411	0.000466	4.662967	1.579856	-0.000187
 571	5.6715e+01	17.2760	91.640963	0.000395	3.953385	1.339443	-0.000158
 572	5.6815e+01	17.2439	91.451217	0.000476	4.764336	1.614201	-0.000191
 573	5.6914e+01	17.2006	91.289732	0.000405	4.054754	1.373788	-0.000162
 574	5.7014e+01	17.1717	91.099986	0.000476	4.764336	1.614201	-0.000191
 575	5.7113e+01	17.1268	90.886018	0.000537	5.372549	1.820269	-0.000215
 576	5.7212e+01	17.0883	90.732607	0.000385	3.852016	1.305098	-0.000154
 577	5.7312e+01	17.0466	90.575159	0.000395	3.953385	1.339443	-0.000158
 578	5.7411e+01	17.0001	90.381376	0.000487	4.865705	1.648545	-0.000195
 579	5.7511e+01	16.9664	90.183557	0.000497	4.967074	1.682890	-0.000199
 580	5.7611e+01	16.9214	89.985737	0.000497	4.967074	1.682890	-0.000199
 581	5.7710e+01	16.8829	89.836363	0.000375	3.750647	1.270754	-0.000150
 582	5.7809e+01	16.8460	89.674878	0.000405	4.054754	1.373788	-0.000162
 583	5.7909e+01	16.8075	89.481095	0.000487	4.865705	1.648545	-0.000195
 584	5.8008e+01	16.7803	89.291350	0.000476	4.764336	1.614201	-0.000191
 585	5.8108e+01	16.7209	89.141976	0.000375	3.750647	1.270754	-0.000150
 586	5.8208e+01	16.6872	88.940119	0.000507	5.068442	1.717235	-0.000203
 587	5.8307e+01	16.6423	88.770559	0.000426	4.257492	1.442477	-0.000170
 588	5.8407e+01	16.6118	88.588888	0.000456	4.561598	1.545511	-0.000183
 589	5.8506e+01	16.5669	88.382994	0.000517	5.169811	1.751579	-0.000207
 590	5.8605e+01	16.5364	88.189212	0.000487	4.865705	1.648545	-0.000195
 591	5.8705e+01	16.4819	88.015615	0.000436	4.358860	1.476822	-0.000174
 592	5.8804e+01	16.4594	87.878352	0.000345	3.446541	1.167720	-0.000138
 593	5.8904e+01	16.4001	87.656310	0.000558	5.575287	1.888958	-0.000223
 594	5.9004e+01	16.3552	87.470601	0.000466	4.662967	1.579856	-0.000187
 595	5.9103e+01	16.3279	87.288930	0.000456	4.561598	1.545511	-0.000183
 596	5.9203e+01	16.2894	87.107259	0.000456	4.561598	1.545511	-0.000183
 597	5.9302e+01	16.2541	86.905402	0.000507	5.068442	1.717235	-0.000203
 598	5.9401e+01	16.2011	86.723731	0.000456	4.561598	1.545511	-0.000183
 599	5.9501e+01	16.1723	86.554172	0.000426	4.257492	1.442477	-0.000170
 600	5.9600e+01	16.1290	86.372501	0.000456	4.561598	1.545511	-0.000183
 601	5.9700e+01	16.0905	86.198904	0.000436	4.358860	1.476822	-0.000174
 602	5.9800e+01	16.0536	85.976861	0.000558	5.575287	1.888958	-0.000223
 603	5.9899e+01	16.0135	85.807302	0.000426	4.257492	1.442477	-0.000170
 604	5.9998e+01	15.9685	85.661965	0.000365	3.649279	1.236409	-0.000146
 605	6.0098e+01	15.9316	85.399551	0.000659	6.588975	2.232405	-0.000264
 606	6.0197e+01	15.8867	85.262288	0.000345	3.446541	1.167720	-0.000138
 607	6.0297e+01	15.8450	85.100803	0.000405	4.054754	1.373788	-0.000162
 608	6.0397e+01	15.8161	84.858575	0.000608	6.082131	2.060682	-0.000243
 609	6.0496e+01	15.7696	84.684978	0.000436	4.358860	1.476822	-0.000174
 610	6.0596e+01	15.7407	84.519455	0.000416	4.156123	1.408133	-0.000166
 611	6.0695e+01	15.6894	84.349896	0.000426	4.257492	1.442477	-0.000170
 612	6.0794e+01	15.6493	84.099593	0.000628	6.284869	2.129371	-0.000252
 613	6.0894e+01	15.6076	83.938108	0.000405	4.054754	1.373788	-0.000162
 614	6.0993e+01	15.5739	83.748362	0.000476	4.764336	1.614201	-0.000191
 615	6.1093e+01	15.5434	83.558617	0.000476	4.764336	1.614201	-0.000191
 616	6.1193e+01	15.4921	83.364834	0.000487	4.865705	1.648545	-0.000195
 617	6.1292e+01	15.4520	83.203349	0.000405	4.054754	1.373788	-0.000162
 618	6.1392e+01	15.4167	83.041864	0.000405	4.054754	1.373788	-0.000162
 619	6.1491e+01	15.3766	82.835970	0.000517	5.169811	1.751579	-0.000207
 620	6.1590e+01	15.3317	82.650261	0.000466	4.662967	1.579856	-0.000187
 621	6.1690e+01	15.2867	82.468590	0.000456	4.561598	1.545511	-0.000183
 622	6.1789e+01	15.2482	82.238474	0.000578	5.778024	1.957648	-0.000231
 623	6.1889e+01	15.2113	82.076988	0.000405	4.054754	1.373788	-0.000162
 624	6.1989e+01	15.1744	81.903391	0.000436	4.358860	1.476822	-0.000174
 625	6.2088e+01	15.1327	81.701534	0.000507	5.068442	1.717235	-0.000203
 626	6.2188e+01	15.0926	81.515826	0.000466	4.662967	1.579856	-0.000187
 627	6.2287e+01	15.0557	81.334155	0.000456	4.561598	1.545511	-0.000183
 628	6.2386e+01	15.0124	81.172670	0.000405	4.054754	1.373788	-0.000162
 629	6.2486e+01	14.9659	80.922367	0.000628	6.284869	2.129371	-0.000252
 630	6.2586e+01	14.9274	80.736659	0.000466	4.662967	1.579856	-0.000187
 631	6.2685e+01	14.8873	80.579211	0.000395	3.953385	1.339443	-0.000158
 632	6.2785e+01	14.8504	80.365243	0.000537	5.372549	1.820269	-0.000215
 633	6.2884e+01	14.8103	80.151274	0.000537	5.372549	1.820269	-0.000215
 634	6.2983e+01	14.7750	79.985752	0.000416	4.156123	1.408133	-0.000166
 635	6.3083e+01	14.7349	79.787932	0.000497	4.967074	1.682890	-0.000199
 636	6.3182e+01	14.7044	79.638558	0.000375	3.750647	1.270754	-0.000150
 637	6.3282e+01	14.6611	79.396330	0.000608	6.082131	2.060682	-0.000243
 638	6.3382e+01	14.6097	79.214659	0.000456	4.561598	1.545511	-0.000183
 639	6.3481e+01	14.5680	79.032988	0.000456	4.561598	1.545511	-0.000183
 640	6.3581e+01	14.5295	78.847280	0.000466	4.662967	1.579856	-0.000187
 641	6.3680e+01	14.4926	78.677720	0.000426	4.257492	1.442477	-0.000170
 642	6.3779e+01	14.4606	78.467789	0.000527	5.271180	1.785924	-0.000211
 643	6.3879e+01	14.4269	78.274006	0.000487	4.865705	1.648545	-0.000195
 644	6.3978e+01	14.3803	78.068112	0.000517	5.169811	1.751579	-0.000207
 645	6.4078e+01	14.3370	77.910664	0.000395	3.953385	1.339443	-0.000158
 646	6.4177e+01	14.3001	77.672473	0.000598	5.980762	2.026337	-0.000239
 647	6.4277e+01	14.2568	77.490802	0.000456	4.561598	1.545511	-0.000183
 648	6.4376e+01	14.2183	77.268759	0.000558	5.575287	1.888958	-0.000223
 649	6.4476e+01	14.1702	77.091125	0.000446	4.460229	1.511167	-0.000179
 650	6.4576e+01	14.1301	76.897343	0.000487	4.865705	1.648545	-0.000195
 651	6.4675e+01	14.0980	76.719709	0.000446	4.460229	1.511167	-0.000179
 652	6.4775e+01	14.0563	76.493629	0.000568	5.676655	1.923303	-0.000227
 653	6.4874e+01	14.0130	76.299847	0.000487	4.865705	1.648545	-0.000195
 654	6.4974e+01	13.9825	76.102027	0.000497	4.967074	1.682890	-0.000199
 655	6.5073e+01	13.9376	75.932468	0.000426	4.257492	1.442477	-0.000170
 656	6.5172e+01	13.8927	75.698314	0.000588	5.879393	1.991992	-0.000235
 657	6.5272e+01	13.8477	75.540865	0.000395	3.953385	1.339443	-0.000158
 658	6.5371e+01	13.8221	75.339009	0.000507	5.068442	1.717235	-0.000203
 659	6.5471e+01	13.7788	75.149263	0.000476	4.764336	1.614201	-0.000191
 660	6.5570e+01	13.7370	74.931258	0.000547	5.473918	1.854614	-0.000219
 661	6.5670e+01	13.6921	74.745550	0.000466	4.662967	1.579856	-0.000187
 662	6.5769e+01	13.6568	74.531581	0.000537	5.372549	1.820269	-0.000215
 663	6.5869e+01	13.6167	74.370096	0.000405	4.054754	1.373788	-0.000162
 664	6.5969e+01	13.5702	74.160165	0.000527	5.271180	1.785924	-0.000211
 665	6.6068e+01	13.5349	73.962345	0.000497	4.967074	1.682890	-0.000199
 666	6.6168e+01	13.4948	73.740303	0.000558	5.575287	1.888958	-0.000223
 667	6.6267e+01	13.4547	73.550557	0.000476	4.764336	1.614201	-0.000191
 668	6.6367e+01	13.4226	73.368886	0.000456	4.561598	1.545511	-0.000183
 669	6.6466e+01	13.3777	73.146844	0.000558	5.575287	1.888958	-0.000223
 670	6.6566e+01	13.3344	72.985358	0.000405	4.054754	1.373788	-0.000162
 671	6.6665e+01	13.3007	72.779465	0.000517	5.169811	1.751579	-0.000207
 672	6.6764e+01	13.2542	72.533199	0.000618	6.183500	2.095026	-0.000248
 673	6.6864e+01	13.2173	72.327305	0.000517	5.169811	1.751579	-0.000207
 674	6.6963e+01	13.1868	72.133523	0.000487	4.865705	1.648545	-0.000195
 675	6.7063e+01	13.1322	71.943777	0.000476	4.764336	1.614201	-0.000191
 676	6.7162e+01	13.1018	71.770181	0.000436	4.358860	1.476822	-0.000174
 677	6.7262e+01	13.0681	71.536027	0.000588	5.879393	1.991992	-0.000235
 678	6.7362e+01	13.0216	71.346281	0.000476	4.764336	1.614201	-0.000191
 679	6.7461e+01	12.9798	71.140387	0.000517	5.169811	1.751579	-0.000207
 680	6.7561e+01	12.9413	70.970828	0.000426	4.257492	1.442477	-0.000170
 681	6.7660e+01	12.9061	70.760897	0.000527	5.271180	1.785924	-0.000211
 682	6.7760e+01	12.8611	70.591337	0.000426	4.257492	1.442477	-0.000170
 683	6.7859e+01	12.8258	70.393517	0.000497	4.967074	1.682890	-0.000199
 684	6.7959e+01	12.7841	70.167438	0.000568	5.676655	1.923303	-0.000227
 685	6.8058e+01	12.7472	69.985767	0.000456	4.561598	1.545511	-0.000183
 686	6.8157e+01	12.7023	69.779873	0.000517	5.169811	1.751579	-0.000207
 687	6.8257e+01	12.6718	69.578016	0.000507	5.068442	1.717235	-0.000203
 688	6.8356e+01	12.6253	69.392308	0.000466	4.662967	1.579856	-0.000187
 689	6.8456e+01	12.5868	69.166228	0.000568	5.676655	1.923303	-0.000227
 690	6.8555e+01	12.5547	69.000705	0.000416	4.156123	1.408133	-0.000166
 691	6.8655e+01	12.5002	68.758477	0.000608	6.082131	2.060682	-0.000243
 692	6.8754e+01	12.4681	68.572769	0.000466	4.662967	1.579856	-0.000187
 693	6.8854e+01	12.4328	68.370912	0.000507	5.068442	1.717235	-0.000203
 694	6.8954e+01	12.3863	68.169056	0.000507	5.068442	1.717235	-0.000203
 695	6.9053e+01	12.3478	67.983347	0.000466	4.662967	1.579856	-0.000187
 696	6.9153e+01	12.3077	67.757268	0.000568	5.676655	1.923303	-0.000227
 697	6.9252e+01	12.2660	67.587708	0.000426	4.257492	1.442477	-0.000170
 698	6.9352e+01	12.2226	67.389888	0.000497	4.967074	1.682890	-0.000199
 699	6.9451e+01	12.1874	67.155734	0.000588	5.879393	1.991992	-0.000235
 700	6.9550e+01	12.1408	66.974063	0.000456	4.561598	1.545511	-0.000183
 701	6.9650e+01	12.1087	66.747984	0.000568	5.676655	1.923303	-0.000227
 702	6.9749e+01	12.0702	66.566313	0.000456	4.561598	1.545511	-0.000183
 703	6.9849e+01	12.0253	66.380604	0.000466	4.662967	1.579856	-0.000187
 704	6.9948e+01	11.9884	66.134339	0.000618	6.183500	2.095026	-0.000248
 705	7.0048e+01	11.9515	65.940557	0.000487	4.865705	1.648545	-0.000195
 706	7.0147e+01	11.9066	65.730626	0.000527	5.271180	1.785924	-0.000211
 707	7.0247e+01	11.8649	65.557029	0.000436	4.358860	1.476822	-0.000174
 708	7.0347e+01	11.8248	65.363246	0.000487	4.865705	1.648545	-0.000195
 709	7.0446e+01	11.7959	65.157352	0.000517	5.169811	1.751579	-0.000207
 710	7.0546e+01	11.7478	64.894938	0.000659	6.588975	2.232405	-0.000264
 711	7.0645e+01	11.7093	64.697119	0.000497	4.967074	1.682890	-0.000199
 712	7.0745e+01	11.6692	64.515448	0.000456	4.561598	1.545511	-0.000183
 713	7.0844e+01	11.6307	64.329739	0.000466	4.662967	1.579856	-0.000187
 714	7.0944e+01	11.5826	64.103660	0.000568	5.676655	1.923303	-0.000227
 715	7.1043e+01	11.5569	63.942174	0.000405	4.054754	1.373788	-0.000162
 716	7.1142e+01	11.5104	63.691872	0.000628	6.284869	2.129371	-0.000252
 717	7.1242e+01	11.4719	63.522312	0.000426	4.257492	1.442477	-0.000170
 718	7.1341e+01	11.4334	63.267973	0.000639	6.386237	2.163716	-0.000256
 719	7.1441e+01	11.3901	63.122636	0.000365	3.649279	1.236409	-0.000146
 720	7.1540e+01	11.3548	62.884445	0.000598	5.980762	2.026337	-0.000239
 721	7.1640e+01	11.3130	62.682588	0.000507	5.068442	1.717235	-0.000203
 722	7.1740e+01	11.2713	62.488806	0.000487	4.865705	1.648545	-0.000195
 723	7.1839e+01	11.2216	62.242540	0.000618	6.183500	2.095026	-0.000248
 724	7.1939e+01	11.1927	62.060869	0.000456	4.561598	1.545511	-0.000183
 725	7.2038e+01	11.1542	61.863049	0.000497	4.967074	1.682890	-0.000199
 726	7.2138e+01	11.1157	61.673304	0.000476	4.764336	1.614201	-0.000191
 727	7.2237e+01	11.0692	61.463373	0.000527	5.271180	1.785924	-0.000211
 728	7.2337e+01	11.0307	61.233256	0.000578	5.778024	1.957648	-0.000231
 729	7.2436e+01	10.9922	61.047548	0.000466	4.662967	1.579856	-0.000187
 730	7.2535e+01	10.9569	60.853766	0.000487	4.865705	1.648545	-0.000195
 731	7.2635e+01	10.9056	60.655946	0.000497	4.967074	1.682890	-0.000199
 732	7.2734e+01	10.8655	60.421792	0.000588	5.879393	1.991992	-0.000235
 733	7.2834e+01	10.8350	60.272418	0.000375	3.750647	1.270754	-0.000150
 734	7.2933e+01	10.8013	60.018078	0.000639	6.386237	2.163716	-0.000256
 735	7.3033e+01	10.7532	59.824296	0.000487	4.865705	1.648545	-0.000195
 736	7.3132e+01	10.7066	59.598216	0.000568	5.676655	1.923303	-0.000227
 737	7.3232e+01	10.6714	59.424619	0.000436	4.358860	1.476822	-0.000174
 738	7.3332e+01	10.6345	59.190466	0.000588	5.879393	1.991992	-0.000235
 739	7.3431e+01	10.5927	59.012832	0.000446	4.460229	1.511167	-0.000179
 740	7.3531e+01	10.5526	58.790789	0.000558	5.575287	1.888958	-0.000223
 741	7.3630e+01	10.5093	58.584895	0.000517	5.169811	1.751579	-0.000207
 742	7.3730e+01	10.4885	58.374964	0.000527	5.271180	1.785924	-0.000211
 743	7.3829e+01	10.4339	58.189256	0.000466	4.662967	1.579856	-0.000187
 744	7.3928e+01	10.3986	57.963176	0.000568	5.676655	1.923303	-0.000227
 745	7.4028e+01	10.3521	57.785542	0.000446	4.460229	1.511167	-0.000179
 746	7.4127e+01	10.3088	57.571574	0.000537	5.372549	1.820269	-0.000215
 747	7.4227e+01	10.2799	57.357606	0.000537	5.372549	1.820269	-0.000215
 748	7.4326e+01	10.2318	57.139601	0.000547	5.473918	1.854614	-0.000219
 749	7.4426e+01	10.1869	56.933707	0.000517	5.169811	1.751579	-0.000207
 750	7.4525e+01	10.1676	56.743961	0.000476	4.764336	1.614201	-0.000191
 751	7.4625e+01	10.1227	56.525956	0.000547	5.473918	1.854614	-0.000219
 752	7.4725e+01	10.0730	56.316025	0.000527	5.271180	1.785924	-0.000211
 753	7.4824e+01	10.0329	56.122242	0.000487	4.865705	1.648545	-0.000195
 754	7.4924e+01	9.9912	55.904237	0.000547	5.473918	1.854614	-0.000219
 755	7.5023e+01	9.9527	55.710455	0.000487	4.865705	1.648545	-0.000195
 756	7.5123e+01	9.9110	55.516672	0.000487	4.865705	1.648545	-0.000195
 757	7.5222e+01	9.8837	55.302704	0.000537	5.372549	1.820269	-0.000215
 758	7.5322e+01	9.8291	55.112959	0.000476	4.764336	1.614201	-0.000191
 759	7.5421e+01	9.7938	54.911102	0.000507	5.068442	1.717235	-0.000203
 760	7.5520e+01	9.7521	54.697134	0.000537	5.372549	1.820269	-0.000215
 761	7.5620e+01	9.7152	54.531611	0.000416	4.156123	1.408133	-0.000166
 762	7.5719e+01	9.6687	54.232863	0.000750	7.501295	2.541507	-0.000300
 763	7.5819e+01	9.6334	54.083489	0.000375	3.750647	1.270754	-0.000150
 764	7.5918e+01	9.5885	53.845298	0.000598	5.980762	2.026337	-0.000239
 765	7.6018e+01	9.5596	53.639404	0.000517	5.169811	1.751579	-0.000207
 766	7.6118e+01	9.5115	53.393139	0.000618	6.183500	2.095026	-0.000248
 767	7.6217e+01	9.4778	53.207430	0.000466	4.662967	1.579856	-0.000187
 768	7.6317e+01	9.4377	53.001537	0.000517	5.169811	1.751579	-0.000207
 769	7.6416e+01	9.3960	52.823903	0.000446	4.460229	1.511167	-0.000179
 770	7.6516e+01	9.3575	52.585712	0.000598	5.980762	2.026337	-0.000239
 771	7.6615e+01	9.3094	52.383855	0.000507	5.068442	1.717235	-0.000203
 772	7.6715e+01	9.2789	52.145664	0.000598	5.980762	2.026337	-0.000239
 773	7.6814e+01	9.2340	51.959956	0.000466	4.662967	1.579856	-0.000187
 774	7.6913e+01	9.2019	51.758099	0.000507	5.068442	1.717235	-0.000203
 775	7.7013e+01	9.1634	51.564316	0.000487	4.865705	1.648545	-0.000195
 776	7.7112e+01	9.1104	51.354385	0.000527	5.271180	1.785924	-0.000211
 777	7.7212e+01	9.0800	51.140417	0.000537	5.372549	1.820269	-0.000215
 778	7.7311e+01	9.0431	50.918374	0.000558	5.575287	1.888958	-0.000223
 779	7.7411e+01	8.9885	50.720555	0.000497	4.967074	1.682890	-0.000199
 780	7.7510e+01	8.9580	50.454104	0.000669	6.690344	2.266750	-0.000268
 781	7.7610e+01	8.9147	50.284544	0.000426	4.257492	1.442477	-0.000170
 782	7.7710e+01	8.8858	50.050390	0.000588	5.879393	1.991992	-0.000235
 783	7.7809e+01	8.8361	49.868719	0.000456	4.561598	1.545511	-0.000183
 784	7.7909e+01	8.8024	49.642640	0.000568	5.676655	1.923303	-0.000227
 785	7.8008e+01	8.7607	49.420597	0.000558	5.575287	1.888958	-0.000223
 786	7.8108e+01	8.7110	49.226815	0.000487	4.865705	1.648545	-0.000195
 787	7.8207e+01	8.6821	49.020921	0.000517	5.169811	1.751579	-0.000207
 788	7.8306e+01	8.6452	48.810990	0.000527	5.271180	1.785924	-0.000211
 789	7.8406e+01	8.5939	48.572799	0.000598	5.980762	2.026337	-0.000239
 790	7.8505e+01	8.5602	48.370942	0.000507	5.068442	1.717235	-0.000203
 791	7.8605e+01	8.5217	48.177159	0.000487	4.865705	1.648545	-0.000195
 792	7.8704e+01	8.4720	47.951080	0.000568	5.676655	1.923303	-0.000227
 793	7.8804e+01	8.4415	47.745186	0.000517	5.169811	1.751579	-0.000207
 794	7.8903e+01	8.3933	47.555440	0.000476	4.764336	1.614201	-0.000191
 795	7.9003e+01	8.3597	47.317249	0.000598	5.980762	2.026337	-0.000239
 796	7.9103e+01	8.3228	47.127504	0.000476	4.764336	1.614201	-0.000191
 797	7.9202e+01	8.2778	46.909499	0.000547	5.473918	1.854614	-0.000219
 798	7.9302e+01	8.2458	46.671308	0.000598	5.980762	2.026337	-0.000239
 799	7.9401e+01	8.2024	46.489637	0.000456	4.561598	1.545511	-0.000183
 800	7.9501e+01	8.1607	46.267594	0.000558	5.575287	1.888958	-0.000223
 801	7.9600e+01	8.1174	46.033440	0.000588	5.879393	1.991992	-0.000235
 802	7.9700e+01	8.0789	45.823509	0.000527	5.271180	1.785924	-0.000211
 803	7.9799e+01	8.0452	45.593392	0.000578	5.778024	1.957648	-0.000231
 804	7.9898e+01	8.0035	45.403647	0.000476	4.764336	1.614201	-0.000191
 805	7.9998e+01	7.9618	45.185642	0.000547	5.473918	1.854614	-0.000219
 806	8.0097e+01	7.9281	44.935339	0.000628	6.284869	2.129371	-0.000252
 807	8.0197e+01	7.8912	44.757705	0.000446	4.460229	1.511167	-0.000179
 808	8.0296e+01	7.8415	44.567960	0.000476	4.764336	1.614201	-0.000191
 809	8.0396e+01	7.8158	44.313620	0.000639	6.386237	2.163716	-0.000256
 810	8.0496e+01	7.7709	44.115801	0.000497	4.967074	1.682890	-0.000199
 811	8.0595e+01	7.7292	43.849350	0.000669	6.690344	2.266750	-0.000268
 812	8.0695e+01	7.6843	43.663642	0.000466	4.662967	1.579856	-0.000187
 813	8.0794e+01	7.6426	43.433525	0.000578	5.778024	1.957648	-0.000231
 814	8.0894e+01	7.6025	43.227631	0.000517	5.169811	1.751579	-0.000207
 815	8.0993e+01	7.5575	42.993477	0.000588	5.879393	1.991992	-0.000235
 816	8.1093e+01	7.5255	42.787583	0.000517	5.169811	1.751579	-0.000207
 817	8.1192e+01	7.4789	42.593801	0.000487	4.865705	1.648545	-0.000195
 818	8.1291e+01	7.4452	42.363684	0.000578	5.778024	1.957648	-0.000231
 819	8.1391e+01	7.4035	42.137604	0.000568	5.676655	1.923303	-0.000227
 820	8.1490e+01	7.3634	41.915562	0.000558	5.575287	1.888958	-0.000223
 821	8.1590e+01	7.3217	41.725816	0.000476	4.764336	1.614201	-0.000191
 822	8.1689e+01	7.2864	41.479551	0.000618	6.183500	2.095026	-0.000248
 823	8.1789e+01	7.2431	41.285769	0.000487	4.865705	1.648545	-0.000195
 824	8.1888e+01	7.2062	41.071800	0.000537	5.372549	1.820269	-0.000215
 825	8.1988e+01	7.1677	40.865907	0.000517	5.169811	1.751579	-0.000207
 826	8.2088e+01	7.1356	40.595418	0.000679	6.791713	2.301095	-0.000272
 827	8.2187e+01	7.0875	40.385487	0.000527	5.271180	1.785924	-0.000211
 828	8.2287e+01	7.0458	40.163445	0.000558	5.575287	1.888958	-0.000223
 829	8.2386e+01	7.0073	39.949477	0.000537	5.372549	1.820269	-0.000215
 830	8.2486e+01	6.9656	39.735509	0.000537	5.372549	1.820269	-0.000215
 831	8.2585e+01	6.9271	39.517503	0.000547	5.473918	1.854614	-0.000219
 832	8.2684e+01	6.8966	39.315646	0.000507	5.068442	1.717235	-0.000203
 833	8.2784e+01	6.8421	39.081493	0.000588	5.879393	1.991992	-0.000235
 834	8.2883e+01	6.7987	38.827153	0.000639	6.386237	2.163716	-0.000256
 835	8.2983e+01	6.7731	38.661630	0.000416	4.156123	1.408133	-0.000166
 836	8.3082e+01	6.7282	38.391142	0.000679	6.791713	2.301095	-0.000272
 837	8.3182e+01	6.6784	38.201397	0.000476	4.764336	1.614201	-0.000191
 838	8.3281e+01	6.6463	37.963206	0.000598	5.980762	2.026337	-0.000239
 839	8.3381e+01	6.6062	37.733089	0.000578	5.778024	1.957648	-0.000231
 840	8.3481e+01	6.5613	37.511047	0.000558	5.575287	1.888958	-0.000223
 841	8.3580e+01	6.5260	37.309190	0.000507	5.068442	1.717235	-0.000203
 842	8.3680e+01	6.4779	37.070999	0.000598	5.980762	2.026337	-0.000239
 843	8.3779e+01	6.4554	36.857031	0.000537	5.372549	1.820269	-0.000215
 844	8.3879e+01	6.4121	36.634988	0.000558	5.575287	1.888958	-0.000223
 845	8.3978e+01	6.3720	36.461391	0.000436	4.358860	1.476822	-0.000174
 846	8.4078e+01	6.3367	36.223200	0.000598	5.980762	2.026337	-0.000239
 847	8.4177e+01	6.2950	35.944638	0.000699	6.994450	2.369784	-0.000280
 848	8.4276e+01	6.2469	35.746818	0.000497	4.967074	1.682890	-0.000199
 849	8.4376e+01	6.2100	35.508627	0.000598	5.980762	2.026337	-0.000239
 850	8.4475e+01	6.1651	35.282548	0.000568	5.676655	1.923303	-0.000227
 851	8.4575e+01	6.1282	35.096840	0.000466	4.662967	1.579856	-0.000187
 852	8.4674e+01	6.0881	34.907094	0.000476	4.764336	1.614201	-0.000191
 853	8.4774e+01	6.0415	34.668903	0.000598	5.980762	2.026337	-0.000239
 854	8.4874e+01	6.0014	34.414564	0.000639	6.386237	2.163716	-0.000256
 855	8.4973e+01	5.9710	34.204633	0.000527	5.271180	1.785924	-0.000211
 856	8.5073e+01	5.9228	33.986627	0.000547	5.473918	1.854614	-0.000219
 857	8.5172e+01	5.8843	33.748436	0.000598	5.980762	2.026337	-0.000239
 858	8.5272e+01	5.8538	33.542542	0.000517	5.169811	1.751579	-0.000207
 859	8.5371e+01	5.8105	33.344723	0.000497	4.967074	1.682890	-0.000199
 860	8.5471e+01	5.7672	33.090383	0.000639	6.386237	2.163716	-0.000256
 861	8.5570e+01	5.7319	32.876415	0.000537	5.372549	1.820269	-0.000215
 862	8.5669e+01	5.6982	32.654372	0.000558	5.575287	1.888958	-0.000223
 863	8.5769e+01	5.6501	32.452516	0.000507	5.068442	1.717235	-0.000203
 864	8.5868e+01	5.6068	32.182028	0.000679	6.791713	2.301095	-0.000272
 865	8.5968e+01	5.5731	31.968059	0.000537	5.372549	1.820269	-0.000215
 866	8.6067e+01	5.5250	31.774277	0.000487	4.865705	1.648545	-0.000195
 867	8.6167e+01	5.5009	31.544160	0.000578	5.778024	1.957648	-0.000231
 868	8.6266e+01	5.4544	31.322118	0.000558	5.575287	1.888958	-0.000223
 869	8.6366e+01	5.4127	31.100075	0.000558	5.575287	1.888958	-0.000223
 870	8.6466e+01	5.3758	30.890144	0.000527	5.271180	1.785924	-0.000211
 871	8.6565e+01	5.3357	30.692324	0.000497	4.967074	1.682890	-0.000199
 872	8.6665e+01	5.3020	30.421836	0.000679	6.791713	2.301095	-0.000272
 873	8.6764e+01	5.2555	30.191720	0.000578	5.778024	1.957648	-0.000231
 874	8.6864e+01	5.2089	29.981789	0.000527	5.271180	1.785924	-0.000211
 875	8.6963e+01	5.1720	29.727449	0.000639	6.386237	2.163716	-0.000256
 876	8.7063e+01	5.1432	29.525592	0.000507	5.068442	1.717235	-0.000203
 877	8.7162e+01	5.0966	29.295475	0.000578	5.778024	1.957648	-0.000231
 878	8.7261e+01	5.0485	29.057284	0.000598	5.980762	2.026337	-0.000239
 879	8.7361e+01	5.0068	28.827168	0.000578	5.778024	1.957648	-0.000231
 880	8.7460e+01	4.9763	28.649534	0.000446	4.460229	1.511167	-0.000179
 881	8.7560e+01	4.9362	28.415380	0.000588	5.879393	1.991992	-0.000235
 882	8.7659e+01	4.8881	28.213523	0.000507	5.068442	1.717235	-0.000203
 883	8.7759e+01	4.8544	27.914775	0.000750	7.501295	2.541507	-0.000300
 884	8.7859e+01	4.8143	27.720993	0.000487	4.865705	1.648545	-0.000195
 885	8.7958e+01	4.7662	27.519136	0.000507	5.068442	1.717235	-0.000203
 886	8.8058e+01	4.7373	27.293056	0.000568	5.676655	1.923303	-0.000227
 887	8.8157e+01	4.6956	27.066977	0.000568	5.676655	1.923303	-0.000227
 888	8.8257e+01	4.6571	26.848971	0.000547	5.473918	1.854614	-0.000219
 889	8.8356e+01	4.6202	26.594632	0.000639	6.386237	2.163716	-0.000256
 890	8.8456e+01	4.5753	26.376626	0.000547	5.473918	1.854614	-0.000219
 891	8.8555e+01	4.5400	26.186881	0.000476	4.764336	1.614201	-0.000191
 892	8.8654e+01	4.4999	25.912356	0.000689	6.893082	2.335439	-0.000276
 893	8.8754e+01	4.4598	25.718573	0.000487	4.865705	1.648545	-0.000195
 894	8.8853e+01	4.4148	25.492494	0.000568	5.676655	1.923303	-0.000227
 895	8.8953e+01	4.3780	25.262377	0.000578	5.778024	1.957648	-0.000231
 896	8.9052e+01	4.3427	25.020149	0.000608	6.082131	2.060682	-0.000243
 897	8.9152e+01	4.2993	24.814255	0.000517	5.169811	1.751579	-0.000207
 898	8.9251e+01	4.2657	24.608361	0.000517	5.169811	1.751579	-0.000207
 899	8.9351e+01	4.2207	24.370170	0.000598	5.980762	2.026337	-0.000239
 900	8.9451e+01	4.1742	24.131979	0.000598	5.980762	2.026337	-0.000239
 901	8.9550e+01	4.1389	23.934159	0.000497	4.967074	1.682890	-0.000199
 902	8.9650e+01	4.0972	23.716154	0.000547	5.473918	1.854614	-0.000219
 903	8.9749e+01	4.0571	23.486037	0.000578	5.778024	1.957648	-0.000231
 904	8.9849e+01	4.0154	23.235735	0.000628	6.284869	2.129371	-0.000252
 905	8.9948e+01	3.9769	23.033878	0.000507	5.068442	1.717235	-0.000203
 906	9.0047e+01	3.9400	22.767427	0.000669	6.690344	2.266750	-0.000268
 907	9.0147e+01	3.9015	22.605942	0.000405	4.054754	1.373788	-0.000162
 908	9.0246e+01	3.8550	22.339491	0.000669	6.690344	2.266750	-0.000268
 909	9.0346e+01	3.8181	22.145708	0.000487	4.865705	1.648545	-0.000195
 910	9.0445e+01	3.7828	21.879257	0.000669	6.690344	2.266750	-0.000268
 911	9.0545e+01	3.7475	21.697586	0.000456	4.561598	1.545511	-0.000183
 912	9.0644e+01	3.6962	21.475544	0.000558	5.575287	1.888958	-0.000223
 913	9.0744e+01	3.6673	21.249464	0.000568	5.676655	1.923303	-0.000227
 914	9.0844e+01	3.6079	21.055681	0.000487	4.865705	1.648545	-0.000195
 915	9.0943e+01	3.5839	20.837676	0.000547	5.473918	1.854614	-0.000219
 916	9.1043e+01	3.5470	20.595448	0.000608	6.082131	2.060682	-0.000243
 917	9.1142e+01	3.5036	20.357257	0.000598	5.980762	2.026337	-0.000239
 918	9.1242e+01	3.4619	20.135214	0.000558	5.575287	1.888958	-0.000223
 919	9.1341e+01	3.4186	19.925283	0.000527	5.271180	1.785924	-0.000211
 920	9.1441e+01	3.3801	19.666907	0.000649	6.487606	2.198060	-0.000260
 921	9.1540e+01	3.3400	19.452939	0.000537	5.372549	1.820269	-0.000215
 922	9.1639e+01	3.3047	19.234933	0.000547	5.473918	1.854614	-0.000219
 923	9.1739e+01	3.2694	19.053262	0.000456	4.561598	1.545511	-0.000183
 924	9.1838e+01	3.2181	18.798923	0.000639	6.386237	2.163716	-0.000256
 925	9.1938e+01	3.1732	18.580917	0.000547	5.473918	1.854614	-0.000219
 926	9.2037e+01	3.1475	18.342726	0.000598	5.980762	2.026337	-0.000239
 927	9.2137e+01	3.0978	18.148944	0.000487	4.865705	1.648545	-0.000195
 928	9.2237e+01	3.0657	17.910753	0.000598	5.980762	2.026337	-0.000239
 929	9.2336e+01	3.0160	17.672562	0.000598	5.980762	2.026337	-0.000239
 930	9.2436e+01	2.9839	17.482816	0.000476	4.764336	1.614201	-0.000191
 931	9.2535e+01	2.9374	17.289034	0.000487	4.865705	1.648545	-0.000195
 932	9.2635e+01	2.9069	17.030657	0.000649	6.487606	2.198060	-0.000260
 933	9.2734e+01	2.8620	16.780355	0.000628	6.284869	2.129371	-0.000252
 934	9.2834e+01	2.8170	16.534089	0.000618	6.183500	2.095026	-0.000248
 935	9.2933e+01	2.7801	16.320121	0.000537	5.372549	1.820269	-0.000215
 936	9.3032e+01	2.7464	16.118264	0.000507	5.068442	1.717235	-0.000203
 937	9.3132e+01	2.6999	15.924482	0.000487	4.865705	1.648545	-0.000195
 938	9.3231e+01	2.6646	15.641882	0.000710	7.095819	2.404129	-0.000284
 939	9.3331e+01	2.6149	15.423877	0.000547	5.473918	1.854614	-0.000219
 940	9.3430e+01	2.5860	15.205872	0.000547	5.473918	1.854614	-0.000219
 941	9.3530e+01	2.5507	14.975755	0.000578	5.778024	1.957648	-0.000231
 942	9.3629e+01	2.5122	14.806195	0.000426	4.257492	1.442477	-0.000170
 943	9.3729e+01	2.4673	14.535707	0.000679	6.791713	2.301095	-0.000272
 944	9.3829e+01	2.4272	14.345962	0.000476	4.764336	1.614201	-0.000191
 945	9.3928e+01	2.3823	14.087585	0.000649	6.487606	2.198060	-0.000260
 946	9.4028e+01	2.3438	13.857468	0.000578	5.778024	1.957648	-0.000231
 947	9.4127e+01	2.3085	13.631389	0.000568	5.676655	1.923303	-0.000227
 948	9.4227e+01	2.2700	13.437606	0.000487	4.865705	1.648545	-0.000195
 949	9.4326e+01	2.2331	13.167118	0.000679	6.791713	2.301095	-0.000272
 950	9.4425e+01	2.1882	12.949113	0.000547	5.473918	1.854614	-0.000219
 951	9.4525e+01	2.1417	12.727070	0.000558	5.575287	1.888958	-0.000223
 952	9.4624e+01	2.1096	12.529251	0.000497	4.967074	1.682890	-0.000199
 953	9.4724e+01	2.0663	12.299134	0.000578	5.778024	1.957648	-0.000231
 954	9.4823e+01	2.0278	12.020572	0.000699	6.994450	2.369784	-0.000280
 955	9.4923e+01	1.9844	11.830826	0.000476	4.764336	1.614201	-0.000191
 956	9.5022e+01	1.9427	11.584561	0.000618	6.183500	2.095026	-0.000248
 957	9.5122e+01	1.8978	11.394816	0.000476	4.764336	1.614201	-0.000191
 958	9.5222e+01	1.8609	11.180847	0.000537	5.372549	1.820269	-0.000215
 959	9.5321e+01	1.8352	10.938619	0.000608	6.082131	2.060682	-0.000243
 960	9.5421e+01	1.7823	10.680243	0.000649	6.487606	2.198060	-0.000260
 961	9.5520e+01	1.7470	10.470312	0.000527	5.271180	1.785924	-0.000211
 962	9.5620e+01	1.7149	10.240195	0.000578	5.778024	1.957648	-0.000231
 963	9.5719e+01	1.6668	10.042375	0.000497	4.967074	1.682890	-0.000199
 964	9.5819e+01	1.6251	9.800147	0.000608	6.082131	2.060682	-0.000243
 965	9.5918e+01	1.5818	9.590216	0.000527	5.271180	1.785924	-0.000211
 966	9.6017e+01	1.5481	9.327802	0.000659	6.588975	2.232405	-0.000264
 967	9.6117e+01	1.5144	9.129982	0.000497	4.967074	1.682890	-0.000199
 968	9.6216e+01	1.4599	8.875643	0.000639	6.386237	2.163716	-0.000256
 969	9.6316e+01	1.4246	8.685898	0.000476	4.764336	1.614201	-0.000191
 970	9.6415e+01	1.3957	8.447707	0.000598	5.980762	2.026337	-0.000239
 971	9.6515e+01	1.3540	8.197404	0.000628	6.284869	2.129371	-0.000252
 972	9.6615e+01	1.3123	8.015733	0.000456	4.561598	1.545511	-0.000183
 973	9.6714e+01	1.2722	7.765431	0.000628	6.284869	2.129371	-0.000252
 974	9.6814e+01	1.2304	7.494942	0.000679	6.791713	2.301095	-0.000272
 975	9.6913e+01	1.1935	7.321346	0.000436	4.358860	1.476822	-0.000174
 976	9.7013e+01	1.1518	7.071043	0.000628	6.284869	2.129371	-0.000252
 977	9.7112e+01	1.1101	6.853038	0.000547	5.473918	1.854614	-0.000219
 978	9.7212e+01	1.0604	6.663293	0.000476	4.764336	1.614201	-0.000191
 979	9.7311e+01	1.0331	6.400879	0.000659	6.588975	2.232405	-0.000264
 980	9.7410e+01	0.9882	6.186911	0.000537	5.372549	1.820269	-0.000215
 981	9.7510e+01	0.9513	5.944682	0.000608	6.082131	2.060682	-0.000243
 982	9.7609e+01	0.9176	5.718603	0.000568	5.676655	1.923303	-0.000227
 983	9.7709e+01	0.8695	5.520783	0.000497	4.967074	1.682890	-0.000199
 984	9.7808e+01	0.8310	5.246258	0.000689	6.893082	2.335439	-0.000276
 985	9.7908e+01	0.7845	5.036327	0.000527	5.271180	1.785924	-0.000211
 986	9.8007e+01	0.7540	4.810247	0.000568	5.676655	1.923303	-0.000227
 987	9.8107e+01	0.7059	4.588205	0.000558	5.575287	1.888958	-0.000223
 988	9.8207e+01	0.6722	4.366162	0.000558	5.575287	1.888958	-0.000223
 989	9.8306e+01	0.6208	4.123934	0.000608	6.082131	2.060682	-0.000243
 990	9.8406e+01	0.5871	3.885743	0.000598	5.980762	2.026337	-0.000239
 991	9.8505e+01	0.5438	3.679849	0.000517	5.169811	1.751579	-0.000207
 992	9.8605e+01	0.5150	3.453770	0.000568	5.676655	1.923303	-0.000227
 993	9.8704e+01	0.4700	3.203467	0.000628	6.284869	2.129371	-0.000252
 994	9.8803e+01	0.4267	3.009685	0.000487	4.865705	1.648545	-0.000195
 995	9.8903e+01	0.3962	2.731122	0.000699	6.994450	2.369784	-0.000280
 996	9.9002e+01	0.3561	2.501006	0.000578	5.778024	1.957648	-0.000231
 997	9.9102e+01	0.3128	2.295112	0.000517	5.169811	1.751579	-0.000207
 998	9.9201e+01	0.2743	2.073069	0.000558	5.575287	1.888958	-0.000223
 999	9.9301e+01	0.2342	1.818730	0.000639	6.386237	2.163716	-0.000256
1000	9.9400e+01	0.1925	1.576502	0.000608	6.082131	2.060682	-0.000243
1001	9.9500e+01	0.1540	1.374645	0.000507	5.068442	1.717235	-0.000203
1002	9.9600e+01	0.1107	1.136454	0.000598	5.980762	2.026337	-0.000239
1003	9.9699e+01	0.0674	0.926523	0.000527	5.271180	1.785924	-0.000211
1004	9.9799e+01	0.0417	0.656035	0.000679	6.791713	2.301095	-0.000272
1005	9.9898e+01	-0.0064	0.494549	0.000405	4.054754	1.373788	-0.000162
1006	9.9998e+01	-0.0449	0.276544	0.000547	5.473918	1.854614	-0.000219
1007	1.0010e+02	-0.0690	0.018167	0.000649	6.487606	2.198060	-0.000260
1008	1.0020e+02	-0.1203	-0.143318	0.000405	4.054754	1.373788	-0.000162
1009	1.0030e+02	-0.1556	-0.377472	0.000588	5.879393	1.991992	-0.000235
1010	1.0040e+02	-0.1957	-0.643923	0.000669	6.690344	2.266750	-0.000268
1011	1.0050e+02	-0.2374	-0.865966	0.000558	5.575287	1.888958	-0.000223
1012	1.0059e+02	-0.2839	-1.059748	0.000487	4.865705	1.648545	-0.000195
1013	1.0069e+02	-0.3192	-1.326199	0.000669	6.690344	2.266750	-0.000268
1014	1.0079e+02	-0.3577	-1.528056	0.000507	5.068442	1.717235	-0.000203
1015	1.0089e+02	-0.3914	-1.766247	0.000598	5.980762	2.026337	-0.000239
1016	1.0099e+02	-0.4380	-2.012512	0.000618	6.183500	2.095026	-0.000248
1017	1.0109e+02	-0.4813	-2.206295	0.000487	4.865705	1.648545	-0.000195
1018	1.0119e+02	-0.5150	-2.476783	0.000679	6.791713	2.301095	-0.000272
1019	1.0129e+02	-0.5551	-2.698825	0.000558	5.575287	1.888958	-0.000223
1020	1.0139e+02	-0.5952	-2.932979	0.000588	5.879393	1.991992	-0.000235
1021	1.0149e+02	-0.6369	-3.138873	0.000517	5.169811	1.751579	-0.000207
1022	1.0159e+02	-0.6786	-3.344767	0.000517	5.169811	1.751579	-0.000207
1023	1.0169e+02	-0.7203	-3.538549	0.000487	4.865705	1.648545	-0.000195
1024	1.0179e+02	-0.7540	-3.796926	0.000649	6.487606	2.198060	-0.000260
1025	1.0189e+02	-0.7957	-4.031080	0.000588	5.879393	1.991992	-0.000235
1026	1.0199e+02	-0.8390	-4.241011	0.000527	5.271180	1.785924	-0.000211
1027	1.0209e+02	-0.8791	-4.515536	0.000689	6.893082	2.335439	-0.000276
1028	1.0219e+02	-0.9128	-4.741616	0.000568	5.676655	1.923303	-0.000227
1029	1.0229e+02	-0.9561	-4.931361	0.000476	4.764336	1.614201	-0.000191
1030	1.0239e+02	-0.9930	-5.169552	0.000598	5.980762	2.026337	-0.000239
1031	1.0248e+02	-1.0331	-5.411780	0.000608	6.082131	2.060682	-0.000243
1032	1.0258e+02	-1.0700	-5.641897	0.000578	5.778024	1.957648	-0.000231
1033	1.0268e+02	-1.1133	-5.839717	0.000497	4.967074	1.682890	-0.000199
1034	1.0278e+02	-1.1599	-6.077908	0.000598	5.980762	2.026337	-0.000239
1035	1.0288e+02	-1.1952	-6.308025	0.000578	5.778024	1.957648	-0.000231
1036	1.0298e+02	-1.2401	-6.538141	0.000578	5.778024	1.957648	-0.000231
1037	1.0308e+02	-1.2786	-6.764221	0.000568	5.676655	1.923303	-0.000227
1038	1.0318e+02	-1.3203	-6.970115	0.000517	5.169811	1.751579	-0.000207
1039	1.0328e+02	-1.3540	-7.212343	0.000608	6.082131	2.060682	-0.000243
1040	1.0338e+02	-1.3973	-7.402088	0.000476	4.764336	1.614201	-0.000191
1041	1.0348e+02	-1.4326	-7.672576	0.000679	6.791713	2.301095	-0.000272
1042	1.0358e+02	-1.4743	-7.874433	0.000507	5.068442	1.717235	-0.000203
1043	1.0368e+02	-1.5128	-8.116661	0.000608	6.082131	2.060682	-0.000243
1044	1.0378e+02	-1.5481	-8.346778	0.000578	5.778024	1.957648	-0.000231
1045	1.0388e+02	-1.5930	-8.572858	0.000568	5.676655	1.923303	-0.000227
1046	1.0398e+02	-1.6267	-8.770677	0.000497	4.967074	1.682890	-0.000199
1047	1.0408e+02	-1.6668	-9.008868	0.000598	5.980762	2.026337	-0.000239
1048	1.0418e+02	-1.7149	-9.222837	0.000537	5.372549	1.820269	-0.000215
1049	1.0428e+02	-1.7454	-9.477176	0.000639	6.386237	2.163716	-0.000256
1050	1.0438e+02	-1.7935	-9.683070	0.000517	5.169811	1.751579	-0.000207
1051	1.0447e+02	-1.8288	-9.884927	0.000507	5.068442	1.717235	-0.000203
1052	1.0457e+02	-1.8737	-10.123118	0.000598	5.980762	2.026337	-0.000239
1053	1.0467e+02	-1.9122	-10.353235	0.000578	5.778024	1.957648	-0.000231
1054	1.0477e+02	-1.9491	-10.583351	0.000578	5.778024	1.957648	-0.000231
1055	1.0487e+02	-1.9892	-10.760985	0.000446	4.460229	1.511167	-0.000179
1056	1.0497e+02	-2.0390	-11.019362	0.000649	6.487606	2.198060	-0.000260
1057	1.0507e+02	-2.0679	-11.257553	0.000598	5.980762	2.026337	-0.000239
1058	1.0517e+02	-2.1160	-11.447298	0.000476	4.764336	1.614201	-0.000191
1059	1.0527e+02	-2.1497	-11.701638	0.000639	6.386237	2.163716	-0.000256
1060	1.0537e+02	-2.1866	-11.915606	0.000537	5.372549	1.820269	-0.000215
1061	1.0547e+02	-2.2283	-12.085166	0.000426	4.257492	1.442477	-0.000170
1062	1.0557e+02	-2.2748	-12.404100	0.000801	8.008139	2.713231	-0.000321
1063	1.0567e+02	-2.3021	-12.589808	0.000466	4.662967	1.579856	-0.000187
1064	1.0577e+02	-2.3422	-12.811850	0.000558	5.575287	1.888958	-0.000223
1065	1.0587e+02	-2.3871	-12.981410	0.000426	4.257492	1.442477	-0.000170
1066	1.0597e+02	-2.4320	-13.272084	0.000730	7.298557	2.472818	-0.000292
1067	1.0607e+02	-2.4705	-13.429532	0.000395	3.953385	1.339443	-0.000158
1068	1.0617e+02	-2.5186	-13.643500	0.000537	5.372549	1.820269	-0.000215
1069	1.0627e+02	-2.5588	-13.889766	0.000618	6.183500	2.095026	-0.000248
1070	1.0637e+02	-2.5860	-14.144105	0.000639	6.386237	2.163716	-0.000256
1071	1.0647e+02	-2.6293	-14.345962	0.000507	5.068442	1.717235	-0.000203
1072	1.0656e+02	-2.6678	-14.576079	0.000578	5.778024	1.957648	-0.000231
1073	1.0666e+02	-2.7031	-14.794084	0.000547	5.473918	1.854614	-0.000219
1074	1.0676e+02	-2.7577	-14.983829	0.000476	4.764336	1.614201	-0.000191
1075	1.0686e+02	-2.7930	-15.222020	0.000598	5.980762	2.026337	-0.000239
1076	1.0696e+02	-2.8234	-15.460211	0.000598	5.980762	2.026337	-0.000239
1077	1.0706e+02	-2.8620	-15.670142	0.000527	5.271180	1.785924	-0.000211
1078	1.0716e+02	-2.9021	-15.859888	0.000476	4.764336	1.614201	-0.000191
1079	1.0726e+02	-2.9502	-16.102116	0.000608	6.082131	2.060682	-0.000243
1080	1.0736e+02	-2.9919	-16.316084	0.000537	5.372549	1.820269	-0.000215
1081	1.0746e+02	-3.0304	-16.546201	0.000578	5.778024	1.957648	-0.000231
1082	1.0756e+02	-3.0641	-16.760169	0.000537	5.372549	1.820269	-0.000215
1083	1.0766e+02	-3.1090	-16.974137	0.000537	5.372549	1.820269	-0.000215
1084	1.0776e+02	-3.1443	-17.163883	0.000476	4.764336	1.614201	-0.000191
1085	1.0786e+02	-3.1860	-17.389962	0.000568	5.676655	1.923303	-0.000227
1086	1.0796e+02	-3.2197	-17.620079	0.000578	5.778024	1.957648	-0.000231
1087	1.0806e+02	-3.2646	-17.817899	0.000497	4.967074	1.682890	-0.000199
1088	1.0816e+02	-3.3111	-18.064164	0.000618	6.183500	2.095026	-0.000248
1089	1.0826e+02	-3.3416	-18.245835	0.000456	4.561598	1.545511	-0.000183
1090	1.0836e+02	-3.3865	-18.471915	0.000568	5.676655	1.923303	-0.000227
1091	1.0845e+02	-3.4363	-18.706068	0.000588	5.879393	1.991992	-0.000235
1092	1.0855e+02	-3.4667	-18.968482	0.000659	6.588975	2.232405	-0.000264
1093	1.0865e+02	-3.5117	-19.125931	0.000395	3.953385	1.339443	-0.000158
1094	1.0875e+02	-3.5421	-19.319713	0.000487	4.865705	1.648545	-0.000195
1095	1.0885e+02	-3.5774	-19.574053	0.000639	6.386237	2.163716	-0.000256
1096	1.0895e+02	-3.6304	-19.763798	0.000476	4.764336	1.614201	-0.000191
1097	1.0905e+02	-3.6721	-20.038323	0.000689	6.893082	2.335439	-0.000276
1098	1.0915e+02	-3.7090	-20.215957	0.000446	4.460229	1.511167	-0.000179
1099	1.0925e+02	-3.7379	-20.442037	0.000568	5.676655	1.923303	-0.000227
1100	1.0935e+02	-3.7812	-20.672154	0.000578	5.778024	1.957648	-0.000231
1101	1.0945e+02	-3.8181	-20.878047	0.000517	5.169811	1.751579	-0.000207
1102	1.0955e+02	-3.8566	-21.100090	0.000558	5.575287	1.888958	-0.000223
1103	1.0965e+02	-3.8967	-21.326170	0.000568	5.676655	1.923303	-0.000227
1104	1.0975e+02	-3.9480	-21.503804	0.000446	4.460229	1.511167	-0.000179
1105	1.0985e+02	-3.9801	-21.713735	0.000527	5.271180	1.785924	-0.000211
1106	1.0995e+02	-4.0282	-21.951926	0.000598	5.980762	2.026337	-0.000239
1107	1.1005e+02	-4.0619	-22.141671	0.000476	4.764336	1.614201	-0.000191
1108	1.1015e+02	-4.0940	-22.387936	0.000618	6.183500	2.095026	-0.000248
1109	1.1025e+02	-4.1550	-22.601904	0.000537	5.372549	1.820269	-0.000215
1110	1.1035e+02	-4.1838	-22.840095	0.000598	5.980762	2.026337	-0.000239
1111	1.1044e+02	-4.2223	-23.029841	0.000476	4.764336	1.614201	-0.000191
1112	1.1054e+02	-4.2624	-23.223623	0.000487	4.865705	1.648545	-0.000195
1113	1.1064e+02	-4.3074	-23.465851	0.000608	6.082131	2.060682	-0.000243
1114	1.1074e+02	-4.3443	-23.695968	0.000578	5.778024	1.957648	-0.000231
1115	1.1084e+02	-4.3828	-23.918011	0.000558	5.575287	1.888958	-0.000223
1116	1.1094e+02	-4.4277	-24.115830	0.000497	4.967074	1.682890	-0.000199
1117	1.1104e+02	-4.4614	-24.325761	0.000527	5.271180	1.785924	-0.000211
1118	1.1114e+02	-4.5015	-24.547804	0.000558	5.575287	1.888958	-0.000223
1119	1.1124e+02	-4.5448	-24.769846	0.000558	5.575287	1.888958	-0.000223
1120	1.1134e+02	-4.5833	-25.008037	0.000598	5.980762	2.026337	-0.000239
1121	1.1144e+02	-4.6202	-25.169523	0.000405	4.054754	1.373788	-0.000162
1122	1.1154e+02	-4.6555	-25.431937	0.000659	6.588975	2.232405	-0.000264
1123	1.1164e+02	-4.7036	-25.605533	0.000436	4.358860	1.476822	-0.000174
1124	1.1174e+02	-4.7309	-25.823539	0.000547	5.473918	1.854614	-0.000219
1125	1.1184e+02	-4.7790	-26.013284	0.000476	4.764336	1.614201	-0.000191
1126	1.1194e+02	-4.8239	-26.235327	0.000558	5.575287	1.888958	-0.000223
1127	1.1204e+02	-4.8688	-26.513889	0.000699	6.994450	2.369784	-0.000280
1128	1.1214e+02	-4.8977	-26.691523	0.000446	4.460229	1.511167	-0.000179
1129	1.1224e+02	-4.9394	-26.836860	0.000365	3.649279	1.236409	-0.000146
1130	1.1234e+02	-4.9811	-27.135608	0.000750	7.501295	2.541507	-0.000300
1131	1.1244e+02	-5.0245	-27.325353	0.000476	4.764336	1.614201	-0.000191
1132	1.1253e+02	-5.0614	-27.551433	0.000568	5.676655	1.923303	-0.000227
1133	1.1263e+02	-5.0950	-27.769438	0.000547	5.473918	1.854614	-0.000219
1134	1.1273e+02	-5.1432	-27.938998	0.000426	4.257492	1.442477	-0.000170
1135	1.1283e+02	-5.1817	-28.197375	0.000649	6.487606	2.198060	-0.000260
1136	1.1293e+02	-5.2138	-28.358860	0.000405	4.054754	1.373788	-0.000162
1137	1.1303e+02	-5.2555	-28.605125	0.000618	6.183500	2.095026	-0.000248
1138	1.1313e+02	-5.2972	-28.790834	0.000466	4.662967	1.579856	-0.000187
1139	1.1323e+02	-5.3469	-29.041136	0.000628	6.284869	2.129371	-0.000252
1140	1.1333e+02	-5.3838	-29.190510	0.000375	3.750647	1.270754	-0.000150
1141	1.1343e+02	-5.4239	-29.444850	0.000639	6.386237	2.163716	-0.000256
1142	1.1353e+02	-5.4624	-29.666892	0.000558	5.575287	1.888958	-0.000223
1143	1.1363e+02	-5.4913	-29.901046	0.000588	5.879393	1.991992	-0.000235
1144	1.1373e+02	-5.5394	-30.050420	0.000375	3.750647	1.270754	-0.000150
1145	1.1383e+02	-5.5795	-30.284574	0.000588	5.879393	1.991992	-0.000235
1146	1.1393e+02	-5.6196	-30.559099	0.000689	6.893082	2.335439	-0.000276
1147	1.1403e+02	-5.6533	-30.704436	0.000365	3.649279	1.236409	-0.000146
1148	1.1413e+02	-5.6886	-30.946664	0.000608	6.082131	2.060682	-0.000243
1149	1.1423e+02	-5.7367	-31.184855	0.000598	5.980762	2.026337	-0.000239
1150	1.1433e+02	-5.7833	-31.382675	0.000497	4.967074	1.682890	-0.000199
1151	1.1442e+02	-5.8186	-31.592606	0.000527	5.271180	1.785924	-0.000211
1152	1.1452e+02	-5.8667	-31.794463	0.000507	5.068442	1.717235	-0.000203
1153	1.1462e+02	-5.8972	-32.004394	0.000527	5.271180	1.785924	-0.000211
1154	1.1472e+02	-5.9421	-32.198176	0.000487	4.865705	1.648545	-0.000195
1155	1.1482e+02	-5.9726	-32.432330	0.000588	5.879393	1.991992	-0.000235
1156	1.1492e+02	-6.0143	-32.597853	0.000416	4.156123	1.408133	-0.000166
1157	1.1502e+02	-6.0592	-32.832006	0.000588	5.879393	1.991992	-0.000235
1158	1.1512e+02	-6.0961	-33.062123	0.000578	5.778024	1.957648	-0.000231
1159	1.1522e+02	-6.1346	-33.239757	0.000446	4.460229	1.511167	-0.000179
1160	1.1532e+02	-6.1731	-33.465837	0.000568	5.676655	1.923303	-0.000227
1161	1.1542e+02	-6.2292	-33.704028	0.000598	5.980762	2.026337	-0.000239
1162	1.1552e+02	-6.2597	-33.897810	0.000487	4.865705	1.648545	-0.000195
1163	1.1562e+02	-6.2998	-34.099667	0.000507	5.068442	1.717235	-0.000203
1164	1.1572e+02	-6.3351	-34.313635	0.000537	5.372549	1.820269	-0.000215
1165	1.1582e+02	-6.3720	-34.551826	0.000598	5.980762	2.026337	-0.000239
1166	1.1592e+02	-6.4137	-34.777906	0.000568	5.676655	1.923303	-0.000227
1167	1.1602e+02	-6.4538	-34.907094	0.000324	3.243803	1.099030	-0.000130
1168	1.1612e+02	-6.4779	-35.177582	0.000679	6.791713	2.301095	-0.000272
1169	1.1622e+02	-6.5372	-35.359253	0.000456	4.561598	1.545511	-0.000183
1170	1.1632e+02	-6.5774	-35.569184	0.000527	5.271180	1.785924	-0.000211
1171	1.1642e+02	-6.6191	-35.803338	0.000588	5.879393	1.991992	-0.000235
1172	1.1651e+02	-6.6463	-36.001158	0.000497	4.967074	1.682890	-0.000199
1173	1.1661e+02	-6.6929	-36.198978	0.000497	4.967074	1.682890	-0.000199
1174	1.1671e+02	-6.7282	-36.441206	0.000608	6.082131	2.060682	-0.000243
1175	1.1681e+02	-6.7827	-36.614803	0.000436	4.358860	1.476822	-0.000174
1176	1.1691e+02	-6.8084	-36.881254	0.000669	6.690344	2.266750	-0.000268
1177	1.1701e+02	-6.8469	-37.050813	0.000426	4.257492	1.442477	-0.000170
1178	1.1711e+02	-6.8950	-37.276893	0.000568	5.676655	1.923303	-0.000227
1179	1.1721e+02	-6.9319	-37.454527	0.000446	4.460229	1.511167	-0.000179
1180	1.1731e+02	-6.9656	-37.688681	0.000588	5.879393	1.991992	-0.000235
1181	1.1741e+02	-7.0121	-37.866315	0.000446	4.460229	1.511167	-0.000179
1182	1.1751e+02	-7.0554	-38.116617	0.000628	6.284869	2.129371	-0.000252
1183	1.1761e+02	-7.0891	-38.330585	0.000537	5.372549	1.820269	-0.000215
1184	1.1771e+02	-7.1228	-38.504182	0.000436	4.358860	1.476822	-0.000174
1185	1.1781e+02	-7.1693	-38.693927	0.000476	4.764336	1.614201	-0.000191
1186	1.1791e+02	-7.2062	-38.924044	0.000578	5.778024	1.957648	-0.000231
1187	1.1801e+02	-7.2463	-39.125901	0.000507	5.068442	1.717235	-0.000203
1188	1.1811e+02	-7.2928	-39.335832	0.000527	5.271180	1.785924	-0.000211
1189	1.1821e+02	-7.3297	-39.525577	0.000476	4.764336	1.614201	-0.000191
1190	1.1831e+02	-7.3650	-39.743583	0.000547	5.473918	1.854614	-0.000219
1191	1.1841e+02	-7.4035	-39.937365	0.000487	4.865705	1.648545	-0.000195
1192	1.1850e+02	-7.4517	-40.131148	0.000487	4.865705	1.648545	-0.000195
1193	1.1860e+02	-7.4918	-40.341079	0.000527	5.271180	1.785924	-0.000211
1194	1.1870e+02	-7.5206	-40.542936	0.000507	5.068442	1.717235	-0.000203
1195	1.1880e+02	-7.5704	-40.777090	0.000588	5.879393	1.991992	-0.000235
1196	1.1890e+02	-7.6041	-40.974909	0.000497	4.967074	1.682890	-0.000199
1197	1.1900e+02	-7.6474	-41.192915	0.000547	5.473918	1.854614	-0.000219
1198	1.1910e+02	-7.6923	-41.366511	0.000436	4.358860	1.476822	-0.000174
1199	1.1920e+02	-7.7308	-41.580480	0.000537	5.372549	1.820269	-0.000215
1200	1.1930e+02	-7.7629	-41.786373	0.000517	5.169811	1.751579	-0.000207
1201	1.1940e+02	-7.8030	-42.000342	0.000537	5.372549	1.820269	-0.000215
1202	1.1950e+02	-7.8415	-42.230458	0.000578	5.778024	1.957648	-0.000231
1203	1.1960e+02	-7.8880	-42.420204	0.000476	4.764336	1.614201	-0.000191
1204	1.1970e+02	-7.9313	-42.650321	0.000578	5.778024	1.957648	-0.000231
1205	1.1980e+02	-7.9666	-42.807769	0.000395	3.953385	1.339443	-0.000158
1206	1.1990e+02	-8.0099	-43.037886	0.000578	5.778024	1.957648	-0.000231
1207	1.2000e+02	-8.0452	-43.235705	0.000497	4.967074	1.682890	-0.000199
1208	1.2010e+02	-8.0741	-43.461785	0.000568	5.676655	1.923303	-0.000227
1209	1.2020e+02	-8.1286	-43.639419	0.000446	4.460229	1.511167	-0.000179
1210	1.2030e+02	-8.1639	-43.857424	0.000547	5.473918	1.854614	-0.000219
1211	1.2039e+02	-8.2040	-44.026984	0.000426	4.257492	1.442477	-0.000170
1212	1.2049e+02	-8.2409	-44.240952	0.000537	5.372549	1.820269	-0.000215
1213	1.2059e+02	-8.2827	-44.398400	0.000395	3.953385	1.339443	-0.000158
1214	1.2069e+02	-8.3292	-44.664851	0.000669	6.690344	2.266750	-0.000268
1215	1.2079e+02	-8.3677	-44.862671	0.000497	4.967074	1.682890	-0.000199
1216	1.2089e+02	-8.4030	-45.084713	0.000558	5.575287	1.888958	-0.000223
1217	1.2099e+02	-8.4575	-45.250236	0.000416	4.156123	1.408133	-0.000166
1218	1.2109e+02	-8.4880	-45.528798	0.000699	6.994450	2.369784	-0.000280
1219	1.2119e+02	-8.5297	-45.666061	0.000345	3.446541	1.167720	-0.000138
1220	1.2129e+02	-8.5554	-45.880029	0.000537	5.372549	1.820269	-0.000215
1221	1.2139e+02	-8.6067	-46.089960	0.000527	5.271180	1.785924	-0.000211
1222	1.2149e+02	-8.6420	-46.219148	0.000324	3.243803	1.099030	-0.000130
1223	1.2159e+02	-8.6805	-46.457340	0.000598	5.980762	2.026337	-0.000239
1224	1.2169e+02	-8.7174	-46.663233	0.000517	5.169811	1.751579	-0.000207
1225	1.2179e+02	-8.7591	-46.857016	0.000487	4.865705	1.648545	-0.000195
1226	1.2189e+02	-8.8008	-47.099244	0.000608	6.082131	2.060682	-0.000243
1227	1.2199e+02	-8.8457	-47.260730	0.000405	4.054754	1.373788	-0.000162
1228	1.2209e+02	-8.8874	-47.474698	0.000537	5.372549	1.820269	-0.000215
1229	1.2219e+02	-8.9243	-47.656369	0.000456	4.561598	1.545511	-0.000183
1230	1.2229e+02	-8.9677	-47.902634	0.000618	6.183500	2.095026	-0.000248
1231	1.2239e+02	-8.9933	-48.047971	0.000365	3.649279	1.236409	-0.000146
1232	1.2248e+02	-9.0431	-48.253865	0.000517	5.169811	1.751579	-0.000207
1233	1.2258e+02	-9.0832	-48.459759	0.000517	5.169811	1.751579	-0.000207
1234	1.2268e+02	-9.1249	-48.621244	0.000405	4.054754	1.373788	-0.000162
1235	1.2278e+02	-9.1570	-48.867510	0.000618	6.183500	2.095026	-0.000248
1236	1.2288e+02	-9.2035	-49.065329	0.000497	4.967074	1.682890	-0.000199
1237	1.2298e+02	-9.2420	-49.267186	0.000507	5.068442	1.717235	-0.000203
1238	1.2308e+02	-9.2869	-49.440783	0.000436	4.358860	1.476822	-0.000174
1239	1.2318e+02	-9.3190	-49.638602	0.000497	4.967074	1.682890	-0.000199
1240	1.2328e+02	-9.3639	-49.824311	0.000466	4.662967	1.579856	-0.000187
1241	1.2338e+02	-9.4072	-50.010019	0.000466	4.662967	1.579856	-0.000187
1242	1.2348e+02	-9.4441	-50.244173	0.000588	5.879393	1.991992	-0.000235
1243	1.2358e+02	-9.4762	-50.409695	0.000416	4.156123	1.408133	-0.000166
1244	1.2368e+02	-9.5115	-50.639812	0.000578	5.778024	1.957648	-0.000231
1245	1.2378e+02	-9.5644	-50.829558	0.000476	4.764336	1.614201	-0.000191
1246	1.2388e+02	-9.6029	-51.015266	0.000466	4.662967	1.579856	-0.000187
1247	1.2398e+02	-9.6446	-51.205011	0.000476	4.764336	1.614201	-0.000191
1248	1.2408e+02	-9.6767	-51.406868	0.000507	5.068442	1.717235	-0.000203
1249	1.2418e+02	-9.7217	-51.620836	0.000537	5.372549	1.820269	-0.000215
1250	1.2428e+02	-9.7714	-51.770210	0.000375	3.750647	1.270754	-0.000150
1251	1.2438e+02	-9.7987	-51.963993	0.000487	4.865705	1.648545	-0.000195
1252	1.2447e+02	-9.8307	-52.137589	0.000436	4.358860	1.476822	-0.000174
1253	1.2457e+02	-9.8741	-52.363669	0.000568	5.676655	1.923303	-0.000227
1254	1.2467e+02	-9.9254	-52.533229	0.000426	4.257492	1.442477	-0.000170
1255	1.2477e+02	-9.9623	-52.727011	0.000487	4.865705	1.648545	-0.000195
1256	1.2487e+02	-9.9960	-52.892534	0.000416	4.156123	1.408133	-0.000166
1257	1.2497e+02	-10.0329	-53.126688	0.000588	5.879393	1.991992	-0.000235
1258	1.2507e+02	-10.0858	-53.263950	0.000345	3.446541	1.167720	-0.000138
1259	1.2517e+02	-10.1195	-53.502141	0.000598	5.980762	2.026337	-0.000239
1260	1.2527e+02	-10.1676	-53.712072	0.000527	5.271180	1.785924	-0.000211
1261	1.2537e+02	-10.1901	-53.869521	0.000395	3.953385	1.339443	-0.000158
1262	1.2547e+02	-10.2318	-54.095600	0.000568	5.676655	1.923303	-0.000227
1263	1.2557e+02	-10.2815	-54.240937	0.000365	3.649279	1.236409	-0.000146
1264	1.2567e+02	-10.3136	-54.454905	0.000537	5.372549	1.820269	-0.000215
1265	1.2577e+02	-10.3553	-54.660799	0.000517	5.169811	1.751579	-0.000207
1266	1.2587e+02	-10.3922	-54.858619	0.000497	4.967074	1.682890	-0.000199
1267	1.2597e+02	-10.4323	-55.064513	0.000517	5.169811	1.751579	-0.000207
1268	1.2607e+02	-10.4756	-55.234073	0.000426	4.257492	1.442477	-0.000170
1269	1.2617e+02	-10.5077	-55.419781	0.000466	4.662967	1.579856	-0.000187
1270	1.2627e+02	-10.5639	-55.605489	0.000466	4.662967	1.579856	-0.000187
1271	1.2636e+02	-10.5976	-55.815420	0.000527	5.271180	1.785924	-0.000211
1272	1.2646e+02	-10.6409	-56.001128	0.000466	4.662967	1.579856	-0.000187
1273	1.2656e+02	-10.6778	-56.186837	0.000466	4.662967	1.579856	-0.000187
1274	1.2666e+02	-10.7179	-56.368508	0.000456	4.561598	1.545511	-0.000183
1275	1.2676e+02	-10.7612	-56.566327	0.000497	4.967074	1.682890	-0.000199
1276	1.2686e+02	-10.7965	-56.772221	0.000517	5.169811	1.751579	-0.000207
1277	1.2696e+02	-10.8238	-56.953892	0.000456	4.561598	1.545511	-0.000183
1278	1.2706e+02	-10.8783	-57.127489	0.000436	4.358860	1.476822	-0.000174
1279	1.2716e+02	-10.9152	-57.349532	0.000558	5.575287	1.888958	-0.000223
1280	1.2726e+02	-10.9553	-57.511017	0.000405	4.054754	1.373788	-0.000162
1281	1.2736e+02	-10.9986	-57.737097	0.000568	5.676655	1.923303	-0.000227
1282	1.2746e+02	-11.0339	-57.910694	0.000436	4.358860	1.476822	-0.000174
1283	1.2756e+02	-11.0740	-58.092365	0.000456	4.561598	1.545511	-0.000183
1284	1.2766e+02	-11.1093	-58.261924	0.000426	4.257492	1.442477	-0.000170
1285	1.2776e+02	-11.1542	-58.496078	0.000588	5.879393	1.991992	-0.000235
1286	1.2786e+02	-11.1959	-58.689861	0.000487	4.865705	1.648545	-0.000195
1287	1.2796e+02	-11.2296	-58.859420	0.000426	4.257492	1.442477	-0.000170
1288	1.2806e+02	-11.2729	-59.024943	0.000416	4.156123	1.408133	-0.000166
1289	1.2816e+02	-11.3018	-59.226800	0.000507	5.068442	1.717235	-0.000203
1290	1.2826e+02	-11.3580	-59.392322	0.000416	4.156123	1.408133	-0.000166
1291	1.2835e+02	-11.3901	-59.578031	0.000466	4.662967	1.579856	-0.000187
1292	1.2845e+02	-11.4398	-59.816222	0.000598	5.980762	2.026337	-0.000239
1293	1.2855e+02	-11.4751	-59.949447	0.000335	3.345172	1.133375	-0.000134
1294	1.2865e+02	-11.5152	-60.139193	0.000476	4.764336	1.614201	-0.000191
1295	1.2875e+02	-11.5553	-60.377384	0.000598	5.980762	2.026337	-0.000239
1296	1.2885e+02	-11.5954	-60.522720	0.000365	3.649279	1.236409	-0.000146
1297	1.2895e+02	-11.6355	-60.712466	0.000476	4.764336	1.614201	-0.000191
1298	1.2905e+02	-11.6676	-60.910285	0.000497	4.967074	1.682890	-0.000199
1299	1.2915e+02	-11.7157	-61.116179	0.000517	5.169811	1.751579	-0.000207
1300	1.2925e+02	-11.7494	-61.281702	0.000416	4.156123	1.408133	-0.000166
1301	1.2935e+02	-11.7943	-61.439150	0.000395	3.953385	1.339443	-0.000158
1302	1.2945e+02	-11.8200	-61.645044	0.000517	5.169811	1.751579	-0.000207
1303	1.2955e+02	-11.8745	-61.859012	0.000537	5.372549	1.820269	-0.000215
1304	1.2965e+02	-11.9146	-62.004349	0.000365	3.649279	1.236409	-0.000146
1305	1.2975e+02	-11.9547	-62.210243	0.000517	5.169811	1.751579	-0.000207
1306	1.2985e+02	-11.9900	-62.383840	0.000436	4.358860	1.476822	-0.000174
1307	1.2995e+02	-12.0334	-62.605882	0.000558	5.575287	1.888958	-0.000223
1308	1.3005e+02	-12.0735	-62.775442	0.000426	4.257492	1.442477	-0.000170
1309	1.3015e+02	-12.1200	-62.957113	0.000456	4.561598	1.545511	-0.000183
1310	1.3025e+02	-12.1569	-63.163007	0.000517	5.169811	1.751579	-0.000207
1311	1.3034e+02	-12.1858	-63.372938	0.000527	5.271180	1.785924	-0.000211
1312	1.3044e+02	-12.2339	-63.546535	0.000436	4.358860	1.476822	-0.000174
1313	1.3054e+02	-12.2644	-63.703983	0.000395	3.953385	1.339443	-0.000158
1314	1.3064e+02	-12.3077	-63.889692	0.000466	4.662967	1.579856	-0.000187
1315	1.3074e+02	-12.3510	-64.095586	0.000517	5.169811	1.751579	-0.000207
1316	1.3084e+02	-12.3863	-64.265145	0.000426	4.257492	1.442477	-0.000170
1317	1.3094e+02	-12.4232	-64.454891	0.000476	4.764336	1.614201	-0.000191
1318	1.3104e+02	-12.4601	-64.648673	0.000487	4.865705	1.648545	-0.000195
1319	1.3114e+02	-12.5210	-64.862641	0.000537	5.372549	1.820269	-0.000215
1320	1.3124e+02	-12.5435	-64.975681	0.000284	2.838328	0.961651	-0.000114
1321	1.3134e+02	-12.5804	-65.205798	0.000578	5.778024	1.957648	-0.000231
1322	1.3144e+02	-12.6317	-65.403618	0.000497	4.967074	1.682890	-0.000199
1323	1.3154e+02	-12.6606	-65.601437	0.000497	4.967074	1.682890	-0.000199
1324	1.3164e+02	-12.7055	-65.734663	0.000335	3.345172	1.133375	-0.000134
1325	1.3174e+02	-12.7456	-65.924408	0.000476	4.764336	1.614201	-0.000191
1326	1.3184e+02	-12.7825	-66.150488	0.000568	5.676655	1.923303	-0.000227
1327	1.3194e+02	-12.8307	-66.364456	0.000537	5.372549	1.820269	-0.000215
1328	1.3204e+02	-12.8724	-66.497681	0.000335	3.345172	1.133375	-0.000134
1329	1.3214e+02	-12.9044	-66.667241	0.000426	4.257492	1.442477	-0.000170
1330	1.3224e+02	-12.9317	-66.913506	0.000618	6.183500	2.095026	-0.000248
1331	1.3234e+02	-12.9895	-67.054806	0.000355	3.547910	1.202064	-0.000142
1332	1.3243e+02	-13.0151	-67.256663	0.000507	5.068442	1.717235	-0.000203
1333	1.3253e+02	-13.0681	-67.418148	0.000405	4.054754	1.373788	-0.000162
1334	1.3263e+02	-13.1082	-67.676525	0.000649	6.487606	2.198060	-0.000260
1335	1.3273e+02	-13.1387	-67.797639	0.000304	3.041065	1.030341	-0.000122
1336	1.3283e+02	-13.1884	-68.011607	0.000537	5.372549	1.820269	-0.000215
1337	1.3293e+02	-13.2173	-68.193278	0.000456	4.561598	1.545511	-0.000183
1338	1.3303e+02	-13.2654	-68.411284	0.000547	5.473918	1.854614	-0.000219
1339	1.3313e+02	-13.3039	-68.601029	0.000476	4.764336	1.614201	-0.000191
1340	1.3323e+02	-13.3440	-68.754440	0.000385	3.852016	1.305098	-0.000154
1341	1.3333e+02	-13.3857	-68.907851	0.000385	3.852016	1.305098	-0.000154
1342	1.3343e+02	-13.4210	-69.133931	0.000568	5.676655	1.923303	-0.000227
1343	1.3353e+02	-13.4691	-69.299454	0.000416	4.156123	1.408133	-0.000166
1344	1.3363e+02	-13.4996	-69.501310	0.000507	5.068442	1.717235	-0.000203
1345	1.3373e+02	-13.5510	-69.670870	0.000426	4.257492	1.442477	-0.000170
1346	1.3383e+02	-13.5798	-69.856578	0.000466	4.662967	1.579856	-0.000187
1347	1.3393e+02	-13.6296	-70.005952	0.000375	3.750647	1.270754	-0.000150
1348	1.3403e+02	-13.6584	-70.244143	0.000598	5.980762	2.026337	-0.000239
1349	1.3413e+02	-13.6985	-70.357183	0.000284	2.838328	0.961651	-0.000114
1350	1.3423e+02	-13.7435	-70.575188	0.000547	5.473918	1.854614	-0.000219
1351	1.3432e+02	-13.7852	-70.768971	0.000487	4.865705	1.648545	-0.000195
1352	1.3442e+02	-13.8301	-70.942568	0.000436	4.358860	1.476822	-0.000174
1353	1.3452e+02	-13.8670	-71.144425	0.000507	5.068442	1.717235	-0.000203
1354	1.3462e+02	-13.9007	-71.281687	0.000345	3.446541	1.167720	-0.000138
1355	1.3472e+02	-13.9424	-71.459321	0.000446	4.460229	1.511167	-0.000179
1356	1.3482e+02	-13.9889	-71.661178	0.000507	5.068442	1.717235	-0.000203
1357	1.3492e+02	-14.0130	-71.838812	0.000446	4.460229	1.511167	-0.000179
1358	1.3502e+02	-14.0643	-72.052780	0.000537	5.372549	1.820269	-0.000215
1359	1.3512e+02	-14.1060	-72.190043	0.000345	3.446541	1.167720	-0.000138
1360	1.3522e+02	-14.1365	-72.395937	0.000517	5.169811	1.751579	-0.000207
1361	1.3532e+02	-14.1814	-72.569533	0.000436	4.358860	1.476822	-0.000174
1362	1.3542e+02	-14.2295	-72.751205	0.000456	4.561598	1.545511	-0.000183
1363	1.3552e+02	-14.2713	-72.920764	0.000426	4.257492	1.442477	-0.000170
1364	1.3562e+02	-14.3049	-73.146844	0.000568	5.676655	1.923303	-0.000227
1365	1.3572e+02	-14.3386	-73.312366	0.000416	4.156123	1.408133	-0.000166
1366	1.3582e+02	-14.3771	-73.485963	0.000436	4.358860	1.476822	-0.000174
1367	1.3592e+02	-14.4156	-73.655523	0.000426	4.257492	1.442477	-0.000170
1368	1.3602e+02	-14.4622	-73.857380	0.000507	5.068442	1.717235	-0.000203
1369	1.3612e+02	-14.5087	-74.047125	0.000476	4.764336	1.614201	-0.000191
1370	1.3622e+02	-14.5392	-74.228796	0.000456	4.561598	1.545511	-0.000183
1371	1.3631e+02	-14.5793	-74.402393	0.000436	4.358860	1.476822	-0.000174
1372	1.3641e+02	-14.6210	-74.588101	0.000466	4.662967	1.579856	-0.000187
1373	1.3651e+02	-14.6595	-74.781884	0.000487	4.865705	1.648545	-0.000195
1374	1.3661e+02	-14.6964	-74.935295	0.000385	3.852016	1.305098	-0.000154
1375	1.3671e+02	-14.7413	-75.104855	0.000426	4.257492	1.442477	-0.000170
1376	1.3681e+02	-14.7814	-75.330934	0.000568	5.676655	1.923303	-0.000227
1377	1.3691e+02	-14.8231	-75.464160	0.000335	3.345172	1.133375	-0.000134
1378	1.3701e+02	-14.8696	-75.674091	0.000527	5.271180	1.785924	-0.000211
1379	1.3711e+02	-14.8985	-75.835576	0.000405	4.054754	1.373788	-0.000162
1380	1.3721e+02	-14.9370	-76.057619	0.000558	5.575287	1.888958	-0.000223
1381	1.3731e+02	-14.9755	-76.263513	0.000517	5.169811	1.751579	-0.000207
1382	1.3741e+02	-15.0124	-76.368478	0.000264	2.635590	0.892962	-0.000105
1383	1.3751e+02	-15.0654	-76.570335	0.000507	5.068442	1.717235	-0.000203
1384	1.3761e+02	-15.1022	-76.776229	0.000517	5.169811	1.751579	-0.000207
1385	1.3771e+02	-15.1407	-76.941751	0.000416	4.156123	1.408133	-0.000166
1386	1.3781e+02	-15.1776	-77.119385	0.000446	4.460229	1.511167	-0.000179
1387	1.3791e+02	-15.2210	-77.301057	0.000456	4.561598	1.545511	-0.000183
1388	1.3801e+02	-15.2546	-77.515025	0.000537	5.372549	1.820269	-0.000215
1389	1.3811e+02	-15.2964	-77.656324	0.000355	3.547910	1.202064	-0.000142
1390	1.3821e+02	-15.3429	-77.809736	0.000385	3.852016	1.305098	-0.000154
1391	1.3831e+02	-15.3718	-78.019667	0.000527	5.271180	1.785924	-0.000211
1392	1.3840e+02	-15.4119	-78.189226	0.000426	4.257492	1.442477	-0.000170
1393	1.3850e+02	-15.4568	-78.403195	0.000537	5.372549	1.820269	-0.000215
1394	1.3860e+02	-15.5033	-78.564680	0.000405	4.054754	1.373788	-0.000162
1395	1.3870e+02	-15.5226	-78.762500	0.000497	4.967074	1.682890	-0.000199
1396	1.3880e+02	-15.5755	-78.940134	0.000446	4.460229	1.511167	-0.000179
1397	1.3890e+02	-15.6188	-79.117768	0.000446	4.460229	1.511167	-0.000179
1398	1.3900e+02	-15.6493	-79.295402	0.000446	4.460229	1.511167	-0.000179
1399	1.3910e+02	-15.6878	-79.452850	0.000395	3.953385	1.339443	-0.000158
1400	1.3920e+02	-15.7343	-79.658744	0.000517	5.169811	1.751579	-0.000207
1401	1.3930e+02	-15.7744	-79.824266	0.000416	4.156123	1.408133	-0.000166
1402	1.3940e+02	-15.8081	-80.022086	0.000497	4.967074	1.682890	-0.000199
1403	1.3950e+02	-15.8594	-80.219906	0.000497	4.967074	1.682890	-0.000199
1404	1.3960e+02	-15.8915	-80.369280	0.000375	3.750647	1.270754	-0.000150
1405	1.3970e+02	-15.9364	-80.587285	0.000547	5.473918	1.854614	-0.000219
1406	1.3980e+02	-15.9782	-80.768956	0.000456	4.561598	1.545511	-0.000183
1407	1.3990e+02	-16.0118	-80.922367	0.000385	3.852016	1.305098	-0.000154
1408	1.4000e+02	-16.0487	-81.095964	0.000436	4.358860	1.476822	-0.000174
1409	1.4010e+02	-16.0872	-81.273598	0.000446	4.460229	1.511167	-0.000179
1410	1.4020e+02	-16.1418	-81.463343	0.000476	4.764336	1.614201	-0.000191
1411	1.4029e+02	-16.1771	-81.640977	0.000446	4.460229	1.511167	-0.000179
1412	1.4039e+02	-16.2044	-81.774203	0.000335	3.345172	1.133375	-0.000134
1413	1.4049e+02	-16.2509	-82.004320	0.000578	5.778024	1.957648	-0.000231
1414	1.4059e+02	-16.2942	-82.194065	0.000476	4.764336	1.614201	-0.000191
1415	1.4069e+02	-16.3327	-82.359588	0.000416	4.156123	1.408133	-0.000166
1416	1.4079e+02	-16.3744	-82.549333	0.000476	4.764336	1.614201	-0.000191
1417	1.4089e+02	-16.4225	-82.702744	0.000385	3.852016	1.305098	-0.000154
1418	1.4099e+02	-16.4482	-82.912675	0.000527	5.271180	1.785924	-0.000211
1419	1.4109e+02	-16.4899	-83.098383	0.000466	4.662967	1.579856	-0.000187
1420	1.4119e+02	-16.5268	-83.284092	0.000466	4.662967	1.579856	-0.000187
1421	1.4129e+02	-16.5733	-83.473837	0.000476	4.764336	1.614201	-0.000191
1422	1.4139e+02	-16.6182	-83.623211	0.000375	3.750647	1.270754	-0.000150
1423	1.4149e+02	-16.6584	-83.833142	0.000527	5.271180	1.785924	-0.000211
1424	1.4159e+02	-16.6888	-83.966368	0.000335	3.345172	1.133375	-0.000134
1425	1.4169e+02	-16.7338	-84.200522	0.000588	5.879393	1.991992	-0.000235
1426	1.4179e+02	-16.7706	-84.390267	0.000476	4.764336	1.614201	-0.000191
1427	1.4189e+02	-16.8043	-84.563864	0.000436	4.358860	1.476822	-0.000174
1428	1.4199e+02	-16.8573	-84.765721	0.000507	5.068442	1.717235	-0.000203
1429	1.4209e+02	-16.8862	-84.939317	0.000436	4.358860	1.476822	-0.000174
1430	1.4219e+02	-16.9231	-85.125026	0.000466	4.662967	1.579856	-0.000187
1431	1.4228e+02	-16.9776	-85.343031	0.000547	5.473918	1.854614	-0.000219
1432	1.4238e+02	-17.0113	-85.524702	0.000456	4.561598	1.545511	-0.000183
1433	1.4248e+02	-17.0530	-85.698299	0.000436	4.358860	1.476822	-0.000174
1434	1.4258e+02	-17.0883	-85.908230	0.000527	5.271180	1.785924	-0.000211
1435	1.4268e+02	-17.1332	-86.102012	0.000487	4.865705	1.648545	-0.000195
1436	1.4278e+02	-17.1653	-86.271572	0.000426	4.257492	1.442477	-0.000170
1437	1.4288e+02	-17.2086	-86.501689	0.000578	5.778024	1.957648	-0.000231
1438	1.4298e+02	-17.2407	-86.667211	0.000416	4.156123	1.408133	-0.000166
1439	1.4308e+02	-17.2888	-86.897328	0.000578	5.778024	1.957648	-0.000231
1440	1.4318e+02	-17.3337	-87.078999	0.000456	4.561598	1.545511	-0.000183
1441	1.4328e+02	-17.3690	-87.216262	0.000345	3.446541	1.167720	-0.000138
1442	1.4338e+02	-17.4123	-87.462527	0.000618	6.183500	2.095026	-0.000248
1443	1.4348e+02	-17.4460	-87.648235	0.000466	4.662967	1.579856	-0.000187
1444	1.4358e+02	-17.4910	-87.862204	0.000537	5.372549	1.820269	-0.000215
1445	1.4368e+02	-17.5278	-88.043875	0.000456	4.561598	1.545511	-0.000183
1446	1.4378e+02	-17.5631	-88.241694	0.000497	4.967074	1.682890	-0.000199
1447	1.4388e+02	-17.6016	-88.455663	0.000537	5.372549	1.820269	-0.000215
1448	1.4398e+02	-17.6482	-88.657519	0.000507	5.068442	1.717235	-0.000203
1449	1.4408e+02	-17.6867	-88.875525	0.000547	5.473918	1.854614	-0.000219
1450	1.4418e+02	-17.7284	-89.041047	0.000416	4.156123	1.408133	-0.000166
1451	1.4428e+02	-17.7701	-89.295387	0.000639	6.386237	2.163716	-0.000256
1452	1.4437e+02	-17.8102	-89.456872	0.000405	4.054754	1.373788	-0.000162
1453	1.4447e+02	-17.8439	-89.703138	0.000618	6.183500	2.095026	-0.000248
1454	1.4457e+02	-17.8872	-89.868660	0.000416	4.156123	1.408133	-0.000166
1455	1.4467e+02	-17.9241	-90.114925	0.000618	6.183500	2.095026	-0.000248
1456	1.4477e+02	-17.9626	-90.272374	0.000395	3.953385	1.339443	-0.000158
1457	1.4487e+02	-18.0107	-90.534787	0.000659	6.588975	2.232405	-0.000264
1458	1.4497e+02	-18.0444	-90.744719	0.000527	5.271180	1.785924	-0.000211
1459	1.4507e+02	-18.0845	-90.950612	0.000517	5.169811	1.751579	-0.000207
1460	1.4517e+02	-18.1326	-91.160544	0.000527	5.271180	1.785924	-0.000211
1461	1.4527e+02	-18.1679	-91.346252	0.000466	4.662967	1.579856	-0.000187
1462	1.4537e+02	-18.2080	-91.645000	0.000750	7.501295	2.541507	-0.000300
1463	1.4547e+02	-18.2417	-91.818597	0.000436	4.358860	1.476822	-0.000174
1464	1.4557e+02	-18.2850	-92.032565	0.000537	5.372549	1.820269	-0.000215
1465	1.4567e+02	-18.3316	-92.294979	0.000659	6.588975	2.232405	-0.000264
1466	1.4577e+02	-18.3669	-92.476650	0.000456	4.561598	1.545511	-0.000183
1467	1.4587e+02	-18.4006	-92.702729	0.000568	5.676655	1.923303	-0.000227
1468	1.4597e+02	-18.4358	-92.953032	0.000628	6.284869	2.129371	-0.000252
1469	1.4607e+02	-18.4824	-93.162963	0.000527	5.271180	1.785924	-0.000211
1470	1.4617e+02	-18.5257	-93.421340	0.000649	6.487606	2.198060	-0.000260
1471	1.4626e+02	-18.5674	-93.643382	0.000558	5.575287	1.888958	-0.000223
1472	1.4636e+02	-18.6091	-93.885610	0.000608	6.082131	2.060682	-0.000243
1473	1.4646e+02	-18.6396	-94.079393	0.000487	4.865705	1.648545	-0.000195
1474	1.4656e+02	-18.6845	-94.317584	0.000598	5.980762	2.026337	-0.000239
1475	1.4666e+02	-18.7166	-94.584035	0.000669	6.690344	2.266750	-0.000268
1476	1.4676e+02	-18.7615	-94.818189	0.000588	5.879393	1.991992	-0.000235
1477	1.4686e+02	-18.8032	-95.044268	0.000568	5.676655	1.923303	-0.000227
1478	1.4696e+02	-18.8497	-95.286496	0.000608	6.082131	2.060682	-0.000243
1479	1.4706e+02	-18.8898	-95.524687	0.000598	5.980762	2.026337	-0.000239
1480	1.4716e+02	-18.9251	-95.742693	0.000547	5.473918	1.854614	-0.000219
1481	1.4726e+02	-18.9652	-95.984921	0.000608	6.082131	2.060682	-0.000243
1482	1.4736e+02	-19.0086	-96.283669	0.000750	7.501295	2.541507	-0.000300
1483	1.4746e+02	-19.0519	-96.542045	0.000649	6.487606	2.198060	-0.000260
1484	1.4756e+02	-19.0840	-96.776199	0.000588	5.879393	1.991992	-0.000235
1485	1.4766e+02	-19.1160	-97.034576	0.000649	6.487606	2.198060	-0.000260
1486	1.4776e+02	-19.1706	-97.313138	0.000699	6.994450	2.369784	-0.000280
1487	1.4786e+02	-19.2027	-97.559404	0.000618	6.183500	2.095026	-0.000248
1488	1.4796e+02	-19.2396	-97.821818	0.000659	6.588975	2.232405	-0.000264
1489	1.4806e+02	-19.2797	-98.068083	0.000618	6.183500	2.095026	-0.000248
1490	1.4816e+02	-19.3214	-98.354719	0.000720	7.197188	2.438473	-0.000288
1491	1.4825e+02	-19.3615	-98.592910	0.000598	5.980762	2.026337	-0.000239
1492	1.4835e+02	-19.3952	-98.867436	0.000689	6.893082	2.335439	-0.000276
1493	1.4845e+02	-19.4449	-99.158109	0.000730	7.298557	2.472818	-0.000292
1494	1.4855e+02	-19.4850	-99.444746	0.000720	7.197188	2.438473	-0.000288
1495	1.4865e+02	-19.5187	-99.678900	0.000588	5.879393	1.991992	-0.000235
1496	1.4875e+02	-19.5588	-99.961499	0.000710	7.095819	2.404129	-0.000284
1497	1.4885e+02	-19.6005	-100.304656	0.000862	8.616352	2.919299	-0.000345
1498	1.4895e+02	-19.6390	-100.550921	0.000618	6.183500	2.095026	-0.000248
1499	1.4905e+02	-19.6775	-100.849669	0.000750	7.501295	2.541507	-0.000300
1500	1.4915e+02	-19.7208	-101.124195	0.000689	6.893082	2.335439	-0.000276
1501	1.4925e+02	-19.7497	-101.439091	0.000791	7.906770	2.678886	-0.000316
1502	1.4935e+02	-19.7994	-101.741876	0.000760	7.602664	2.575852	-0.000304
1503	1.4945e+02	-19.8347	-101.992179	0.000628	6.284869	2.129371	-0.000252
1504	1.4955e+02	-19.8813	-102.319187	0.000821	8.210877	2.781920	-0.000329
1505	1.4965e+02	-19.9262	-102.626009	0.000770	7.704032	2.610197	-0.000308
1506	1.4975e+02	-19.9615	-102.900534	0.000689	6.893082	2.335439	-0.000276
1507	1.4985e+02	-19.9968	-103.259839	0.000902	9.021827	3.056678	-0.000361
1508	1.4995e+02	-19.9647	-103.235617	0.000061	0.608213	0.206068	0.000024
1509	1.5005e+02	-19.9198	-103.288099	-0.000132	-1.317795	-0.446481	-0.000053
1510	1.5015e+02	-19.8877	-103.304248	-0.000041	-0.405475	-0.137379	-0.000016
1511	1.5025e+02	-19.8412	-103.304248	0.000000	0.000000	0.000000	0.000000
1512	1.5034e+02	-19.8043	-103.312322	-0.000020	-0.202738	-0.068689	-0.000008
1513	1.5044e+02	-19.7625	-103.300211	0.000030	0.304107	0.103034	0.000012
1514	1.5054e+02	-19.7224	-103.271951	0.000071	0.709582	0.240413	0.000028
1515	1.5064e+02	-19.6759	-103.251765	0.000051	0.506844	0.171723	0.000020
1516	1.5074e+02	-19.6342	-103.211394	0.000101	1.013688	0.343447	0.000041
1517	1.5084e+02	-19.5989	-103.191208	0.000051	0.506844	0.171723	0.000020
1518	1.5094e+02	-19.5572	-103.166985	0.000061	0.608213	0.206068	0.000024
1519	1.5104e+02	-19.5203	-103.074131	0.000233	2.331483	0.789928	0.000093
1520	1.5114e+02	-19.4818	-103.017611	0.000142	1.419164	0.480826	0.000057
1521	1.5124e+02	-19.4385	-103.001463	0.000041	0.405475	0.137379	0.000016
1522	1.5134e+02	-19.4016	-102.916683	0.000213	2.128746	0.721239	0.000085
1523	1.5144e+02	-19.3711	-102.904571	0.000030	0.304107	0.103034	0.000012
1524	1.5154e+02	-19.3102	-102.868237	0.000091	0.912320	0.309102	0.000037
1525	1.5164e+02	-19.2781	-102.751160	0.000294	2.939697	0.995996	0.000118
1526	1.5174e+02	-19.2444	-102.730975	0.000051	0.506844	0.171723	0.000020
1527	1.5184e+02	-19.1995	-102.630046	0.000253	2.534221	0.858617	0.000101
1528	1.5194e+02	-19.1658	-102.533155	0.000243	2.432852	0.824273	0.000097
1529	1.5204e+02	-19.1225	-102.525081	0.000020	0.202738	0.068689	0.000008
1530	1.5214e+02	-19.0823	-102.424152	0.000253	2.534221	0.858617	0.000101
1531	1.5224e+02	-19.0455	-102.319187	0.000264	2.635590	0.892962	0.000105
1532	1.5233e+02	-18.9989	-102.218258	0.000253	2.534221	0.858617	0.000101
1533	1.5243e+02	-18.9668	-102.161738	0.000142	1.419164	0.480826	0.000057
1534	1.5253e+02	-18.9251	-102.056773	0.000264	2.635590	0.892962	0.000105
1535	1.5263e+02	-18.8866	-101.980067	0.000193	1.926008	0.652549	0.000077
1536	1.5273e+02	-18.8465	-101.887213	0.000233	2.331483	0.789928	0.000093
1537	1.5283e+02	-18.8016	-101.786285	0.000253	2.534221	0.858617	0.000101
1538	1.5293e+02	-18.7551	-101.689394	0.000243	2.432852	0.824273	0.000097
1539	1.5303e+02	-18.7278	-101.596539	0.000233	2.331483	0.789928	0.000093
1540	1.5313e+02	-18.6829	-101.527908	0.000172	1.723270	0.583860	0.000069
1541	1.5323e+02	-18.6508	-101.382571	0.000365	3.649279	1.236409	0.000146
1542	1.5333e+02	-18.6011	-101.309903	0.000182	1.824639	0.618205	0.000073
1543	1.5343e+02	-18.5626	-101.196863	0.000284	2.838328	0.961651	0.000114
1544	1.5353e+02	-18.5193	-101.112083	0.000213	2.128746	0.721239	0.000085
1545	1.5363e+02	-18.4872	-101.015192	0.000243	2.432852	0.824273	0.000097
1546	1.5373e+02	-18.4471	-100.930412	0.000213	2.128746	0.721239	0.000085
1547	1.5383e+02	-18.3989	-100.797187	0.000335	3.345172	1.133375	0.000134
1548	1.5393e+02	-18.3620	-100.659924	0.000345	3.446541	1.167720	0.000138
1549	1.5403e+02	-18.3252	-100.558996	0.000253	2.534221	0.858617	0.000101
1550	1.5413e+02	-18.2883	-100.514587	0.000112	1.115057	0.377792	0.000045
1551	1.5422e+02	-18.2433	-100.353102	0.000405	4.054754	1.373788	0.000162
1552	1.5432e+02	-18.2096	-100.215839	0.000345	3.446541	1.167720	0.000138
1553	1.5442e+02	-18.1647	-100.139133	0.000193	1.926008	0.652549	0.000077
1554	1.5452e+02	-18.1278	-99.941314	0.000497	4.967074	1.682890	0.000199
1555	1.5462e+02	-18.0909	-99.917091	0.000061	0.608213	0.206068	0.000024
1556	1.5472e+02	-18.0476	-99.787903	0.000324	3.243803	1.099030	0.000130
1557	1.5482e+02	-18.0027	-99.654677	0.000335	3.345172	1.133375	0.000134
1558	1.5492e+02	-17.9642	-99.533563	0.000304	3.041065	1.030341	0.000122
1559	1.5502e+02	-17.9321	-99.424560	0.000274	2.736959	0.927307	0.000110
1560	1.5512e+02	-17.8920	-99.275186	0.000375	3.750647	1.270754	0.000150
1561	1.5522e+02	-17.8455	-99.190407	0.000213	2.128746	0.721239	0.000085
1562	1.5532e+02	-17.8038	-99.073330	0.000294	2.939697	0.995996	0.000118
1563	1.5542e+02	-17.7621	-98.903770	0.000426	4.257492	1.442477	0.000170
1564	1.5552e+02	-17.7284	-98.778619	0.000314	3.142434	1.064686	0.000126
1565	1.5562e+02	-17.6867	-98.665579	0.000284	2.838328	0.961651	0.000114
1566	1.5572e+02	-17.6530	-98.568688	0.000243	2.432852	0.824273	0.000097
1567	1.5582e+02	-17.6065	-98.427388	0.000355	3.547910	1.202064	0.000142
1568	1.5592e+02	-17.5583	-98.278014	0.000375	3.750647	1.270754	0.000150
1569	1.5602e+02	-17.5311	-98.148825	0.000324	3.243803	1.099030	0.000130
1570	1.5612e+02	-17.4926	-98.015600	0.000335	3.345172	1.133375	0.000134
1571	1.5622e+02	-17.4492	-97.918709	0.000243	2.432852	0.824273	0.000097
1572	1.5631e+02	-17.4091	-97.785483	0.000335	3.345172	1.133375	0.000134
1573	1.5641e+02	-17.3658	-97.632072	0.000385	3.852016	1.305098	0.000154
1574	1.5651e+02	-17.3369	-97.519032	0.000284	2.838328	0.961651	0.000114
1575	1.5661e+02	-17.2952	-97.389844	0.000324	3.243803	1.099030	0.000130
1576	1.5671e+02	-17.2439	-97.232396	0.000395	3.953385	1.339443	0.000158
1577	1.5681e+02	-17.2118	-97.111282	0.000304	3.041065	1.030341	0.000122
1578	1.5691e+02	-17.1685	-96.957870	0.000385	3.852016	1.305098	0.000154
1579	1.5701e+02	-17.1300	-96.844831	0.000284	2.838328	0.961651	0.000114
1580	1.5711e+02	-17.0883	-96.699494	0.000365	3.649279	1.236409	0.000146
1581	1.5721e+02	-17.0482	-96.509748	0.000476	4.764336	1.614201	0.000191
1582	1.5731e+02	-17.0145	-96.457266	0.000132	1.317795	0.446481	0.000053
1583	1.5741e+02	-16.9648	-96.303854	0.000385	3.852016	1.305098	0.000154
1584	1.5751e+02	-16.9263	-96.150443	0.000385	3.852016	1.305098	0.000154
1585	1.5761e+02	-16.8990	-95.988958	0.000405	4.054754	1.373788	0.000162
1586	1.5771e+02	-16.8509	-95.839584	0.000375	3.750647	1.270754	0.000150
1587	1.5781e+02	-16.8059	-95.738655	0.000253	2.534221	0.858617	0.000101
1588	1.5791e+02	-16.7706	-95.573133	0.000416	4.156123	1.408133	0.000166
1589	1.5801e+02	-16.7305	-95.452019	0.000304	3.041065	1.030341	0.000122
1590	1.5811e+02	-16.6936	-95.302645	0.000375	3.750647	1.270754	0.000150
1591	1.5821e+02	-16.6535	-95.165382	0.000345	3.446541	1.167720	0.000138
1592	1.5830e+02	-16.6215	-95.056380	0.000274	2.736959	0.927307	0.000110
1593	1.5840e+02	-16.5733	-94.890857	0.000416	4.156123	1.408133	0.000166
1594	1.5850e+02	-16.5300	-94.721297	0.000426	4.257492	1.442477	0.000170
1595	1.5860e+02	-16.4979	-94.584035	0.000345	3.446541	1.167720	0.000138
1596	1.5870e+02	-16.4514	-94.454846	0.000324	3.243803	1.099030	0.000130
1597	1.5880e+02	-16.4081	-94.305472	0.000375	3.750647	1.270754	0.000150
1598	1.5890e+02	-16.3744	-94.180321	0.000314	3.142434	1.064686	0.000126
1599	1.5900e+02	-16.3375	-94.030947	0.000375	3.750647	1.270754	0.000150
1600	1.5910e+02	-16.2926	-93.897722	0.000335	3.345172	1.133375	0.000134
1601	1.5920e+02	-16.2557	-93.768533	0.000324	3.243803	1.099030	0.000130
1602	1.5930e+02	-16.2188	-93.570714	0.000497	4.967074	1.682890	0.000199
1603	1.5940e+02	-16.1610	-93.445562	0.000314	3.142434	1.064686	0.000126
1604	1.5950e+02	-16.1241	-93.296188	0.000375	3.750647	1.270754	0.000150
1605	1.5960e+02	-16.0905	-93.158926	0.000345	3.446541	1.167720	0.000138
1606	1.5970e+02	-16.0391	-93.005515	0.000385	3.852016	1.305098	0.000154
1607	1.5980e+02	-16.0167	-92.868252	0.000345	3.446541	1.167720	0.000138
1608	1.5990e+02	-15.9750	-92.730989	0.000345	3.446541	1.167720	0.000138
1609	1.6000e+02	-15.9332	-92.569504	0.000405	4.054754	1.373788	0.000162
1610	1.6010e+02	-15.8931	-92.440316	0.000324	3.243803	1.099030	0.000130
1611	1.6019e+02	-15.8562	-92.311127	0.000324	3.243803	1.099030	0.000130
1612	1.6029e+02	-15.8177	-92.109270	0.000507	5.068442	1.717235	0.000203
1613	1.6039e+02	-15.7696	-91.996231	0.000284	2.838328	0.961651	0.000114
1614	1.6049e+02	-15.7295	-91.846857	0.000375	3.750647	1.270754	0.000150
1615	1.6059e+02	-15.7006	-91.725743	0.000304	3.041065	1.030341	0.000122
1616	1.6069e+02	-15.6557	-91.540034	0.000466	4.662967	1.579856	0.000187
1617	1.6079e+02	-15.6108	-91.394697	0.000365	3.649279	1.236409	0.000146
1618	1.6089e+02	-15.5739	-91.221101	0.000436	4.358860	1.476822	0.000174
1619	1.6099e+02	-15.5354	-91.099986	0.000304	3.041065	1.030341	0.000122
1620	1.6109e+02	-15.5033	-90.982910	0.000294	2.939697	0.995996	0.000118
1621	1.6119e+02	-15.4632	-90.833536	0.000375	3.750647	1.270754	0.000150
1622	1.6129e+02	-15.4167	-90.672050	0.000405	4.054754	1.373788	0.000162
1623	1.6139e+02	-15.3782	-90.518639	0.000385	3.852016	1.305098	0.000154
1624	1.6149e+02	-15.3317	-90.349079	0.000426	4.257492	1.442477	0.000170
1625	1.6159e+02	-15.2996	-90.179520	0.000426	4.257492	1.442477	0.000170
1626	1.6169e+02	-15.2563	-90.058405	0.000304	3.041065	1.030341	0.000122
1627	1.6179e+02	-15.2242	-89.868660	0.000476	4.764336	1.614201	0.000191
1628	1.6189e+02	-15.1809	-89.735435	0.000335	3.345172	1.133375	0.000134
1629	1.6199e+02	-15.1343	-89.577986	0.000395	3.953385	1.339443	0.000158
1630	1.6209e+02	-15.0974	-89.448798	0.000324	3.243803	1.099030	0.000130
1631	1.6219e+02	-15.0621	-89.291350	0.000395	3.953385	1.339443	0.000158
1632	1.6228e+02	-15.0220	-89.109679	0.000456	4.561598	1.545511	0.000183
1633	1.6238e+02	-14.9835	-88.992602	0.000294	2.939697	0.995996	0.000118
1634	1.6248e+02	-14.9498	-88.859376	0.000335	3.345172	1.133375	0.000134
1635	1.6258e+02	-14.8985	-88.685779	0.000436	4.358860	1.476822	0.000174
1636	1.6268e+02	-14.8648	-88.528331	0.000395	3.953385	1.339443	0.000158
1637	1.6278e+02	-14.8215	-88.387031	0.000355	3.547910	1.202064	0.000142
1638	1.6288e+02	-14.7862	-88.164989	0.000558	5.575287	1.888958	0.000223
1639	1.6298e+02	-14.7397	-88.043875	0.000304	3.041065	1.030341	0.000122
1640	1.6308e+02	-14.6980	-87.930835	0.000284	2.838328	0.961651	0.000114
1641	1.6318e+02	-14.6547	-87.757238	0.000436	4.358860	1.476822	0.000174
1642	1.6328e+02	-14.6194	-87.624013	0.000335	3.345172	1.133375	0.000134
1643	1.6338e+02	-14.5761	-87.446379	0.000446	4.460229	1.511167	0.000179
1644	1.6348e+02	-14.5360	-87.297005	0.000375	3.750647	1.270754	0.000150
1645	1.6358e+02	-14.5055	-87.155705	0.000355	3.547910	1.202064	0.000142
1646	1.6368e+02	-14.4557	-86.974034	0.000456	4.561598	1.545511	0.000183
1647	1.6378e+02	-14.4124	-86.804474	0.000426	4.257492	1.442477	0.000170
1648	1.6388e+02	-14.3819	-86.679323	0.000314	3.142434	1.064686	0.000126
1649	1.6398e+02	-14.3418	-86.501689	0.000446	4.460229	1.511167	0.000179
1650	1.6408e+02	-14.3049	-86.348278	0.000385	3.852016	1.305098	0.000154
1651	1.6418e+02	-14.2664	-86.231201	0.000294	2.939697	0.995996	0.000118
1652	1.6427e+02	-14.2183	-86.073753	0.000395	3.953385	1.339443	0.000158
1653	1.6437e+02	-14.1734	-85.884007	0.000476	4.764336	1.614201	0.000191
1654	1.6447e+02	-14.1445	-85.738670	0.000365	3.649279	1.236409	0.000146
1655	1.6457e+02	-14.0996	-85.589296	0.000375	3.750647	1.270754	0.000150
1656	1.6467e+02	-14.0515	-85.431848	0.000395	3.953385	1.339443	0.000158
1657	1.6477e+02	-14.0146	-85.242103	0.000476	4.764336	1.614201	0.000191
1658	1.6487e+02	-13.9857	-85.129063	0.000284	2.838328	0.961651	0.000114
1659	1.6497e+02	-13.9376	-85.016023	0.000284	2.838328	0.961651	0.000114
1660	1.6507e+02	-13.8991	-84.785906	0.000578	5.778024	1.957648	0.000231
1661	1.6517e+02	-13.8718	-84.636532	0.000375	3.750647	1.270754	0.000150
1662	1.6527e+02	-13.8205	-84.479084	0.000395	3.953385	1.339443	0.000158
1663	1.6537e+02	-13.7852	-84.341821	0.000345	3.446541	1.167720	0.000138
1664	1.6547e+02	-13.7386	-84.184373	0.000395	3.953385	1.339443	0.000158
1665	1.6557e+02	-13.7018	-84.022888	0.000405	4.054754	1.373788	0.000162
1666	1.6567e+02	-13.6649	-83.861402	0.000405	4.054754	1.373788	0.000162
1667	1.6577e+02	-13.6231	-83.740288	0.000304	3.041065	1.030341	0.000122
1668	1.6587e+02	-13.5911	-83.530357	0.000527	5.271180	1.785924	0.000211
1669	1.6597e+02	-13.5494	-83.364834	0.000416	4.156123	1.408133	0.000166
1670	1.6607e+02	-13.5044	-83.223535	0.000355	3.547910	1.202064	0.000142
1671	1.6616e+02	-13.4643	-83.110495	0.000284	2.838328	0.961651	0.000114
1672	1.6626e+02	-13.4274	-82.916712	0.000487	4.865705	1.648545	0.000195
1673	1.6636e+02	-13.3841	-82.783487	0.000335	3.345172	1.133375	0.000134
1674	1.6646e+02	-13.3456	-82.626039	0.000395	3.953385	1.339443	0.000158
1675	1.6656e+02	-13.2959	-82.464553	0.000405	4.054754	1.373788	0.000162
1676	1.6666e+02	-13.2782	-82.335365	0.000324	3.243803	1.099030	0.000130
1677	1.6676e+02	-13.2269	-82.121397	0.000537	5.372549	1.820269	0.000215
1678	1.6686e+02	-13.1788	-81.972023	0.000375	3.750647	1.270754	0.000150
1679	1.6696e+02	-13.1355	-81.834760	0.000345	3.446541	1.167720	0.000138
1680	1.6706e+02	-13.1130	-81.681349	0.000385	3.852016	1.305098	0.000154
1681	1.6716e+02	-13.0536	-81.499678	0.000456	4.561598	1.545511	0.000183
1682	1.6726e+02	-13.0216	-81.322044	0.000446	4.460229	1.511167	0.000179
1683	1.6736e+02	-12.9831	-81.148447	0.000436	4.358860	1.476822	0.000174
1684	1.6746e+02	-12.9381	-81.031370	0.000294	2.939697	0.995996	0.000118
1685	1.6756e+02	-12.9093	-80.865847	0.000416	4.156123	1.408133	0.000166
1686	1.6766e+02	-12.8627	-80.708399	0.000395	3.953385	1.339443	0.000158
1687	1.6776e+02	-12.8323	-80.534802	0.000436	4.358860	1.476822	0.000174
1688	1.6786e+02	-12.7873	-80.353131	0.000456	4.561598	1.545511	0.000183
1689	1.6796e+02	-12.7585	-80.211831	0.000355	3.547910	1.202064	0.000142
1690	1.6806e+02	-12.7087	-80.026123	0.000466	4.662967	1.579856	0.000187
1691	1.6816e+02	-12.6686	-79.896935	0.000324	3.243803	1.099030	0.000130
1692	1.6825e+02	-12.6253	-79.691041	0.000517	5.169811	1.751579	0.000207
1693	1.6835e+02	-12.5868	-79.525518	0.000416	4.156123	1.408133	0.000166
1694	1.6845e+02	-12.5595	-79.368070	0.000395	3.953385	1.339443	0.000158
1695	1.6855e+02	-12.5034	-79.218696	0.000375	3.750647	1.270754	0.000150
1696	1.6865e+02	-12.4665	-79.053173	0.000416	4.156123	1.408133	0.000166
1697	1.6875e+02	-12.4184	-78.903799	0.000375	3.750647	1.270754	0.000150
1698	1.6885e+02	-12.3863	-78.754425	0.000375	3.750647	1.270754	0.000150
1699	1.6895e+02	-12.3446	-78.576791	0.000446	4.460229	1.511167	0.000179
1700	1.6905e+02	-12.3157	-78.391083	0.000466	4.662967	1.579856	0.000187
1701	1.6915e+02	-12.2644	-78.225561	0.000416	4.156123	1.408133	0.000166
1702	1.6925e+02	-12.2259	-78.076187	0.000375	3.750647	1.270754	0.000150
1703	1.6935e+02	-12.1906	-77.886441	0.000476	4.764336	1.614201	0.000191
1704	1.6945e+02	-12.1585	-77.737067	0.000375	3.750647	1.270754	0.000150
1705	1.6955e+02	-12.1071	-77.579619	0.000395	3.953385	1.339443	0.000158
1706	1.6965e+02	-12.0719	-77.397948	0.000456	4.561598	1.545511	0.000183
1707	1.6975e+02	-12.0350	-77.220314	0.000446	4.460229	1.511167	0.000179
1708	1.6985e+02	-11.9932	-77.058828	0.000405	4.054754	1.373788	0.000162
1709	1.6995e+02	-11.9435	-76.881194	0.000446	4.460229	1.511167	0.000179
1710	1.7005e+02	-11.9066	-76.719709	0.000405	4.054754	1.373788	0.000162
1711	1.7015e+02	-11.8681	-76.566298	0.000385	3.852016	1.305098	0.000154
1712	1.7024e+02	-11.8296	-76.400775	0.000416	4.156123	1.408133	0.000166
1713	1.7034e+02	-11.7879	-76.247364	0.000385	3.852016	1.305098	0.000154
1714	1.7044e+02	-11.7494	-76.085879	0.000405	4.054754	1.373788	0.000162
1715	1.7054e+02	-11.7157	-75.916319	0.000426	4.257492	1.442477	0.000170
1716	1.7064e+02	-11.6756	-75.702351	0.000537	5.372549	1.820269	0.000215
1717	1.7074e+02	-11.6323	-75.565088	0.000345	3.446541	1.167720	0.000138
1718	1.7084e+02	-11.5938	-75.379380	0.000466	4.662967	1.579856	0.000187
1719	1.7094e+02	-11.5633	-75.238080	0.000355	3.547910	1.202064	0.000142
1720	1.7104e+02	-11.5200	-75.060446	0.000446	4.460229	1.511167	0.000179
1721	1.7114e+02	-11.4703	-74.874738	0.000466	4.662967	1.579856	0.000187
1722	1.7124e+02	-11.4366	-74.737475	0.000345	3.446541	1.167720	0.000138
1723	1.7134e+02	-11.4013	-74.563879	0.000436	4.358860	1.476822	0.000174
1724	1.7144e+02	-11.3499	-74.374133	0.000476	4.764336	1.614201	0.000191
1725	1.7154e+02	-11.3147	-74.208611	0.000416	4.156123	1.408133	0.000166
1726	1.7164e+02	-11.2697	-74.030977	0.000446	4.460229	1.511167	0.000179
1727	1.7174e+02	-11.2360	-73.869491	0.000405	4.054754	1.373788	0.000162
1728	1.7184e+02	-11.1975	-73.671672	0.000497	4.967074	1.682890	0.000199
1729	1.7194e+02	-11.1590	-73.494038	0.000446	4.460229	1.511167	0.000179
1730	1.7204e+02	-11.1189	-73.352738	0.000355	3.547910	1.202064	0.000142
1731	1.7213e+02	-11.0756	-73.183178	0.000426	4.257492	1.442477	0.000170
1732	1.7223e+02	-11.0307	-72.989396	0.000487	4.865705	1.648545	0.000195
1733	1.7233e+02	-11.0034	-72.835984	0.000385	3.852016	1.305098	0.000154
1734	1.7243e+02	-10.9473	-72.622016	0.000537	5.372549	1.820269	0.000215
1735	1.7253e+02	-10.9232	-72.480716	0.000355	3.547910	1.202064	0.000142
1736	1.7263e+02	-10.8719	-72.303083	0.000446	4.460229	1.511167	0.000179
1737	1.7273e+02	-10.8334	-72.121411	0.000456	4.561598	1.545511	0.000183
1738	1.7283e+02	-10.7949	-71.959926	0.000405	4.054754	1.373788	0.000162
1739	1.7293e+02	-10.7484	-71.749995	0.000527	5.271180	1.785924	0.000211
1740	1.7303e+02	-10.7163	-71.612732	0.000345	3.446541	1.167720	0.000138
1741	1.7313e+02	-10.6633	-71.431061	0.000456	4.561598	1.545511	0.000183
1742	1.7323e+02	-10.6377	-71.237279	0.000487	4.865705	1.648545	0.000195
1743	1.7333e+02	-10.5992	-71.039459	0.000497	4.967074	1.682890	0.000199
1744	1.7343e+02	-10.5559	-70.902196	0.000345	3.446541	1.167720	0.000138
1745	1.7353e+02	-10.5190	-70.708414	0.000487	4.865705	1.648545	0.000195
1746	1.7363e+02	-10.4724	-70.546928	0.000405	4.054754	1.373788	0.000162
1747	1.7373e+02	-10.4452	-70.373332	0.000436	4.358860	1.476822	0.000174
1748	1.7383e+02	-10.3986	-70.171475	0.000507	5.068442	1.717235	0.000203
1749	1.7393e+02	-10.3505	-70.022101	0.000375	3.750647	1.270754	0.000150
1750	1.7403e+02	-10.3136	-69.812170	0.000527	5.271180	1.785924	0.000211
1751	1.7413e+02	-10.2751	-69.682981	0.000324	3.243803	1.099030	0.000130
1752	1.7422e+02	-10.2462	-69.477087	0.000517	5.169811	1.751579	0.000207
1753	1.7432e+02	-10.1885	-69.267156	0.000527	5.271180	1.785924	0.000211
1754	1.7442e+02	-10.1596	-69.137968	0.000324	3.243803	1.099030	0.000130
1755	1.7452e+02	-10.1195	-68.960334	0.000446	4.460229	1.511167	0.000179
1756	1.7462e+02	-10.0826	-68.734255	0.000568	5.676655	1.923303	0.000227
1757	1.7472e+02	-10.0393	-68.556621	0.000446	4.460229	1.511167	0.000179
1758	1.7482e+02	-9.9896	-68.362838	0.000487	4.865705	1.648545	0.000195
1759	1.7492e+02	-9.9527	-68.185204	0.000446	4.460229	1.511167	0.000179
1760	1.7502e+02	-9.9158	-68.011607	0.000436	4.358860	1.476822	0.000174
1761	1.7512e+02	-9.8741	-67.817825	0.000487	4.865705	1.648545	0.000195
1762	1.7522e+02	-9.8484	-67.603857	0.000537	5.372549	1.820269	0.000215
1763	1.7532e+02	-9.7970	-67.426223	0.000446	4.460229	1.511167	0.000179
1764	1.7542e+02	-9.7602	-67.288960	0.000345	3.446541	1.167720	0.000138
1765	1.7552e+02	-9.7136	-67.062880	0.000568	5.676655	1.923303	0.000227
1766	1.7562e+02	-9.6735	-66.905432	0.000395	3.953385	1.339443	0.000158
1767	1.7572e+02	-9.6366	-66.743947	0.000405	4.054754	1.373788	0.000162
1768	1.7582e+02	-9.5965	-66.550164	0.000487	4.865705	1.648545	0.000195
1769	1.7592e+02	-9.5596	-66.372530	0.000446	4.460229	1.511167	0.000179
1770	1.7602e+02	-9.5195	-66.207008	0.000416	4.156123	1.408133	0.000166
1771	1.7612e+02	-9.4858	-66.069745	0.000345	3.446541	1.167720	0.000138
1772	1.7621e+02	-9.4473	-65.811368	0.000649	6.487606	2.198060	0.000260
1773	1.7631e+02	-9.4072	-65.678143	0.000335	3.345172	1.133375	0.000134
1774	1.7641e+02	-9.3575	-65.448026	0.000578	5.778024	1.957648	0.000231
1775	1.7651e+02	-9.3238	-65.290578	0.000395	3.953385	1.339443	0.000158
1776	1.7661e+02	-9.2837	-65.096795	0.000487	4.865705	1.648545	0.000195
1777	1.7671e+02	-9.2356	-64.911087	0.000466	4.662967	1.579856	0.000187
1778	1.7681e+02	-9.1987	-64.697119	0.000537	5.372549	1.820269	0.000215
1779	1.7691e+02	-9.1634	-64.507373	0.000476	4.764336	1.614201	0.000191
1780	1.7701e+02	-9.1201	-64.357999	0.000375	3.750647	1.270754	0.000150
1781	1.7711e+02	-9.0848	-64.192477	0.000416	4.156123	1.408133	0.000166
1782	1.7721e+02	-9.0511	-63.986583	0.000517	5.169811	1.751579	0.000207
1783	1.7731e+02	-9.0030	-63.784726	0.000507	5.068442	1.717235	0.000203
1784	1.7741e+02	-8.9612	-63.639389	0.000365	3.649279	1.236409	0.000146
1785	1.7751e+02	-8.9292	-63.453681	0.000466	4.662967	1.579856	0.000187
1786	1.7761e+02	-8.8762	-63.267973	0.000466	4.662967	1.579856	0.000187
1787	1.7771e+02	-8.8361	-63.033819	0.000588	5.879393	1.991992	0.000235
1788	1.7781e+02	-8.8040	-62.868296	0.000416	4.156123	1.408133	0.000166
1789	1.7791e+02	-8.7639	-62.706811	0.000405	4.054754	1.373788	0.000162
1790	1.7801e+02	-8.7238	-62.517065	0.000476	4.764336	1.614201	0.000191
1791	1.7810e+02	-8.6853	-62.307134	0.000527	5.271180	1.785924	0.000211
1792	1.7820e+02	-8.6420	-62.121426	0.000466	4.662967	1.579856	0.000187
1793	1.7830e+02	-8.6003	-61.943792	0.000446	4.460229	1.511167	0.000179
1794	1.7840e+02	-8.5586	-61.782307	0.000405	4.054754	1.373788	0.000162
1795	1.7850e+02	-8.5137	-61.592561	0.000476	4.764336	1.614201	0.000191
1796	1.7860e+02	-8.4832	-61.414927	0.000446	4.460229	1.511167	0.000179
1797	1.7870e+02	-8.4399	-61.192885	0.000558	5.575287	1.888958	0.000223
1798	1.7880e+02	-8.4062	-61.003140	0.000476	4.764336	1.614201	0.000191
1799	1.7890e+02	-8.3629	-60.821468	0.000456	4.561598	1.545511	0.000183
1800	1.7900e+02	-8.3308	-60.639797	0.000456	4.561598	1.545511	0.000183
1801	1.7910e+02	-8.2810	-60.441978	0.000497	4.967074	1.682890	0.000199
1802	1.7920e+02	-8.2425	-60.244158	0.000497	4.967074	1.682890	0.000199
1803	1.7930e+02	-8.2089	-60.094784	0.000375	3.750647	1.270754	0.000150
1804	1.7940e+02	-8.1688	-59.856593	0.000598	5.980762	2.026337	0.000239
1805	1.7950e+02	-8.1286	-59.666848	0.000476	4.764336	1.614201	0.000191
1806	1.7960e+02	-8.0821	-59.513436	0.000385	3.852016	1.305098	0.000154
1807	1.7970e+02	-8.0420	-59.279283	0.000588	5.879393	1.991992	0.000235
1808	1.7980e+02	-7.9955	-59.129909	0.000375	3.750647	1.270754	0.000150
1809	1.7990e+02	-7.9570	-58.972460	0.000395	3.953385	1.339443	0.000158
1810	1.8000e+02	-7.9265	-58.734269	0.000598	5.980762	2.026337	0.000239
1811	1.8009e+02	-7.8832	-58.564710	0.000426	4.257492	1.442477	0.000170
1812	1.8019e+02	-7.8495	-58.358816	0.000517	5.169811	1.751579	0.000207
1813	1.8029e+02	-7.8014	-58.173107	0.000466	4.662967	1.579856	0.000187
1814	1.8039e+02	-7.7645	-58.003548	0.000426	4.257492	1.442477	0.000170
1815	1.8049e+02	-7.7244	-57.801691	0.000507	5.068442	1.717235	0.000203
1816	1.8059e+02	-7.6875	-57.620020	0.000456	4.561598	1.545511	0.000183
1817	1.8069e+02	-7.6474	-57.438349	0.000456	4.561598	1.545511	0.000183
1818	1.8079e+02	-7.6057	-57.256678	0.000456	4.561598	1.545511	0.000183
1819	1.8089e+02	-7.5607	-57.022524	0.000588	5.879393	1.991992	0.000235
1820	1.8099e+02	-7.5239	-56.885261	0.000345	3.446541	1.167720	0.000138
1821	1.8109e+02	-7.4902	-56.679367	0.000517	5.169811	1.751579	0.000207
1822	1.8119e+02	-7.4356	-56.469436	0.000527	5.271180	1.785924	0.000211
1823	1.8129e+02	-7.4083	-56.287765	0.000456	4.561598	1.545511	0.000183
1824	1.8139e+02	-7.3634	-56.081871	0.000517	5.169811	1.751579	0.000207
1825	1.8149e+02	-7.3201	-55.871940	0.000527	5.271180	1.785924	0.000211
1826	1.8159e+02	-7.2880	-55.702380	0.000426	4.257492	1.442477	0.000170
1827	1.8169e+02	-7.2511	-55.536858	0.000416	4.156123	1.408133	0.000166
1828	1.8179e+02	-7.2094	-55.330964	0.000517	5.169811	1.751579	0.000207
1829	1.8189e+02	-7.1629	-55.161404	0.000426	4.257492	1.442477	0.000170
1830	1.8199e+02	-7.1404	-54.931287	0.000578	5.778024	1.957648	0.000231
1831	1.8209e+02	-7.0827	-54.769802	0.000405	4.054754	1.373788	0.000162
1832	1.8218e+02	-7.0538	-54.547760	0.000558	5.575287	1.888958	0.000223
1833	1.8228e+02	-7.0025	-54.394348	0.000385	3.852016	1.305098	0.000154
1834	1.8238e+02	-6.9720	-54.168269	0.000568	5.676655	1.923303	0.000227
1835	1.8248e+02	-6.9287	-53.962375	0.000517	5.169811	1.751579	0.000207
1836	1.8258e+02	-6.8966	-53.788778	0.000436	4.358860	1.476822	0.000174
1837	1.8268e+02	-6.8404	-53.615181	0.000436	4.358860	1.476822	0.000174
1838	1.8278e+02	-6.8196	-53.401213	0.000537	5.372549	1.820269	0.000215
1839	1.8288e+02	-6.7763	-53.187245	0.000537	5.372549	1.820269	0.000215
1840	1.8298e+02	-6.7314	-53.033834	0.000385	3.852016	1.305098	0.000154
1841	1.8308e+02	-6.6897	-52.827940	0.000517	5.169811	1.751579	0.000207
1842	1.8318e+02	-6.6528	-52.666454	0.000405	4.054754	1.373788	0.000162
1843	1.8328e+02	-6.6159	-52.387892	0.000699	6.994450	2.369784	0.000280
1844	1.8338e+02	-6.5774	-52.295038	0.000233	2.331483	0.789928	0.000093
1845	1.8348e+02	-6.5276	-52.024550	0.000679	6.791713	2.301095	0.000272
1846	1.8358e+02	-6.4923	-51.850953	0.000436	4.358860	1.476822	0.000174
1847	1.8368e+02	-6.4538	-51.669282	0.000456	4.561598	1.545511	0.000183
1848	1.8378e+02	-6.4233	-51.487611	0.000456	4.561598	1.545511	0.000183
1849	1.8388e+02	-6.3688	-51.285754	0.000507	5.068442	1.717235	0.000203
1850	1.8398e+02	-6.3399	-51.124268	0.000405	4.054754	1.373788	0.000162
1851	1.8407e+02	-6.2902	-50.910300	0.000537	5.372549	1.820269	0.000215
1852	1.8417e+02	-6.2485	-50.704406	0.000517	5.169811	1.751579	0.000207
1853	1.8427e+02	-6.2164	-50.518698	0.000466	4.662967	1.579856	0.000187
1854	1.8437e+02	-6.1715	-50.324916	0.000487	4.865705	1.648545	0.000195
1855	1.8447e+02	-6.1362	-50.114984	0.000527	5.271180	1.785924	0.000211
1856	1.8457e+02	-6.0993	-49.896979	0.000547	5.473918	1.854614	0.000219
1857	1.8467e+02	-6.0640	-49.707234	0.000476	4.764336	1.614201	0.000191
1858	1.8477e+02	-6.0239	-49.497303	0.000527	5.271180	1.785924	0.000211
1859	1.8487e+02	-5.9710	-49.311594	0.000466	4.662967	1.579856	0.000187
1860	1.8497e+02	-5.9341	-49.105701	0.000517	5.169811	1.751579	0.000207
1861	1.8507e+02	-5.8972	-48.911918	0.000487	4.865705	1.648545	0.000195
1862	1.8517e+02	-5.8571	-48.697950	0.000537	5.372549	1.820269	0.000215
1863	1.8527e+02	-5.8121	-48.512242	0.000466	4.662967	1.579856	0.000187
1864	1.8537e+02	-5.7736	-48.334608	0.000446	4.460229	1.511167	0.000179
1865	1.8547e+02	-5.7351	-48.132751	0.000507	5.068442	1.717235	0.000203
1866	1.8557e+02	-5.6918	-47.926857	0.000517	5.169811	1.751579	0.000207
1867	1.8567e+02	-5.6645	-47.712889	0.000537	5.372549	1.820269	0.000215
1868	1.8577e+02	-5.6132	-47.506995	0.000517	5.169811	1.751579	0.000207
1869	1.8587e+02	-5.5747	-47.345509	0.000405	4.054754	1.373788	0.000162
1870	1.8597e+02	-5.5410	-47.143653	0.000507	5.068442	1.717235	0.000203
1871	1.8606e+02	-5.4929	-46.921610	0.000558	5.575287	1.888958	0.000223
1872	1.8616e+02	-5.4512	-46.699568	0.000558	5.575287	1.888958	0.000223
1873	1.8626e+02	-5.4191	-46.505785	0.000487	4.865705	1.648545	0.000195
1874	1.8636e+02	-5.3806	-46.307965	0.000497	4.967074	1.682890	0.000199
1875	1.8646e+02	-5.3421	-46.138406	0.000426	4.257492	1.442477	0.000170
1876	1.8656e+02	-5.3052	-45.924438	0.000537	5.372549	1.820269	0.000215
1877	1.8666e+02	-5.2651	-45.710469	0.000537	5.372549	1.820269	0.000215
1878	1.8676e+02	-5.2138	-45.508613	0.000507	5.068442	1.717235	0.000203
1879	1.8686e+02	-5.1833	-45.322904	0.000466	4.662967	1.579856	0.000187
1880	1.8696e+02	-5.1448	-45.112973	0.000527	5.271180	1.785924	0.000211
1881	1.8706e+02	-5.0966	-44.931302	0.000456	4.561598	1.545511	0.000183
1882	1.8716e+02	-5.0581	-44.693111	0.000598	5.980762	2.026337	0.000239
1883	1.8726e+02	-5.0196	-44.479143	0.000537	5.372549	1.820269	0.000215
1884	1.8736e+02	-4.9860	-44.273249	0.000517	5.169811	1.751579	0.000207
1885	1.8746e+02	-4.9394	-44.111764	0.000405	4.054754	1.373788	0.000162
1886	1.8756e+02	-4.9009	-43.905870	0.000517	5.169811	1.751579	0.000207
1887	1.8766e+02	-4.8544	-43.720161	0.000466	4.662967	1.579856	0.000187
1888	1.8776e+02	-4.8287	-43.465822	0.000639	6.386237	2.163716	0.000256
1889	1.8786e+02	-4.7678	-43.276077	0.000476	4.764336	1.614201	0.000191
1890	1.8796e+02	-4.7405	-43.078257	0.000497	4.967074	1.682890	0.000199
1891	1.8806e+02	-4.7004	-42.876400	0.000507	5.068442	1.717235	0.000203
1892	1.8815e+02	-4.6651	-42.662432	0.000537	5.372549	1.820269	0.000215
1893	1.8825e+02	-4.6218	-42.484798	0.000446	4.460229	1.511167	0.000179
1894	1.8835e+02	-4.5801	-42.254681	0.000578	5.778024	1.957648	0.000231
1895	1.8845e+02	-4.5384	-42.052824	0.000507	5.068442	1.717235	0.000203
1896	1.8855e+02	-4.5031	-41.838856	0.000537	5.372549	1.820269	0.000215
1897	1.8865e+02	-4.4614	-41.645074	0.000487	4.865705	1.648545	0.000195
1898	1.8875e+02	-4.4181	-41.431106	0.000537	5.372549	1.820269	0.000215
1899	1.8885e+02	-4.3780	-41.233286	0.000497	4.967074	1.682890	0.000199
1900	1.8895e+02	-4.3378	-41.011243	0.000558	5.575287	1.888958	0.000223
1901	1.8905e+02	-4.3058	-40.797275	0.000537	5.372549	1.820269	0.000215
1902	1.8915e+02	-4.2689	-40.579270	0.000547	5.473918	1.854614	0.000219
1903	1.8925e+02	-4.2239	-40.405673	0.000436	4.358860	1.476822	0.000174
1904	1.8935e+02	-4.1854	-40.191705	0.000537	5.372549	1.820269	0.000215
1905	1.8945e+02	-4.1421	-39.957551	0.000588	5.879393	1.991992	0.000235
1906	1.8955e+02	-4.1004	-39.812214	0.000365	3.649279	1.236409	0.000146
1907	1.8965e+02	-4.0619	-39.565949	0.000618	6.183500	2.095026	0.000248
1908	1.8975e+02	-4.0282	-39.347943	0.000547	5.473918	1.854614	0.000219
1909	1.8985e+02	-3.9817	-39.133975	0.000537	5.372549	1.820269	0.000215
1910	1.8995e+02	-3.9512	-38.924044	0.000527	5.271180	1.785924	0.000211
1911	1.9004e+02	-3.9079	-38.710076	0.000537	5.372549	1.820269	0.000215
1912	1.9014e+02	-3.8550	-38.463811	0.000618	6.183500	2.095026	0.000248
1913	1.9024e+02	-3.8181	-38.326548	0.000345	3.446541	1.167720	0.000138
1914	1.9034e+02	-3.7812	-38.108543	0.000547	5.473918	1.854614	0.000219
1915	1.9044e+02	-3.7427	-37.854203	0.000639	6.386237	2.163716	0.000256
1916	1.9054e+02	-3.7090	-37.648309	0.000517	5.169811	1.751579	0.000207
1917	1.9064e+02	-3.6689	-37.446453	0.000507	5.068442	1.717235	0.000203
1918	1.9074e+02	-3.6143	-37.220373	0.000568	5.676655	1.923303	0.000227
1919	1.9084e+02	-3.5806	-37.034665	0.000466	4.662967	1.579856	0.000187
1920	1.9094e+02	-3.5502	-36.772251	0.000659	6.588975	2.232405	0.000264
1921	1.9104e+02	-3.5052	-36.570394	0.000507	5.068442	1.717235	0.000203
1922	1.9114e+02	-3.4667	-36.336240	0.000588	5.879393	1.991992	0.000235
1923	1.9124e+02	-3.4298	-36.138421	0.000497	4.967074	1.682890	0.000199
1924	1.9134e+02	-3.3881	-35.932527	0.000517	5.169811	1.751579	0.000207
1925	1.9144e+02	-3.3448	-35.767004	0.000416	4.156123	1.408133	0.000166
1926	1.9154e+02	-3.2999	-35.508627	0.000649	6.487606	2.198060	0.000260
1927	1.9164e+02	-3.2710	-35.310808	0.000497	4.967074	1.682890	0.000199
1928	1.9174e+02	-3.2213	-35.052431	0.000649	6.487606	2.198060	0.000260
1929	1.9184e+02	-3.1812	-34.862686	0.000476	4.764336	1.614201	0.000191
1930	1.9194e+02	-3.1459	-34.652755	0.000527	5.271180	1.785924	0.000211
1931	1.9203e+02	-3.1026	-34.430712	0.000558	5.575287	1.888958	0.000223
1932	1.9213e+02	-3.0705	-34.204633	0.000568	5.676655	1.923303	0.000227
1933	1.9223e+02	-3.0240	-34.079481	0.000314	3.142434	1.064686	0.000126
1934	1.9233e+02	-2.9887	-33.833216	0.000618	6.183500	2.095026	0.000248
1935	1.9243e+02	-2.9518	-33.619248	0.000537	5.372549	1.820269	0.000215
1936	1.9253e+02	-2.9005	-33.360871	0.000649	6.487606	2.198060	0.000260
1937	1.9263e+02	-2.8587	-33.187274	0.000436	4.358860	1.476822	0.000174
1938	1.9273e+02	-2.8331	-32.965232	0.000558	5.575287	1.888958	0.000223
1939	1.9283e+02	-2.7898	-32.747227	0.000547	5.473918	1.854614	0.000219
1940	1.9293e+02	-2.7545	-32.509036	0.000598	5.980762	2.026337	0.000239
1941	1.9303e+02	-2.7079	-32.286993	0.000558	5.575287	1.888958	0.000223
1942	1.9313e+02	-2.6678	-32.097248	0.000476	4.764336	1.614201	0.000191
1943	1.9323e+02	-2.6309	-31.846945	0.000628	6.284869	2.129371	0.000252
1944	1.9333e+02	-2.5956	-31.612791	0.000588	5.879393	1.991992	0.000235
1945	1.9343e+02	-2.5427	-31.435157	0.000446	4.460229	1.511167	0.000179
1946	1.9353e+02	-2.5090	-31.225226	0.000527	5.271180	1.785924	0.000211
1947	1.9363e+02	-2.4721	-30.987035	0.000598	5.980762	2.026337	0.000239
1948	1.9373e+02	-2.4272	-30.785179	0.000507	5.068442	1.717235	0.000203
1949	1.9383e+02	-2.3983	-30.555062	0.000578	5.778024	1.957648	0.000231
1950	1.9393e+02	-2.3502	-30.341094	0.000537	5.372549	1.820269	0.000215
1951	1.9403e+02	-2.3069	-30.123088	0.000547	5.473918	1.854614	0.000219
1952	1.9412e+02	-2.2716	-29.909120	0.000537	5.372549	1.820269	0.000215
1953	1.9422e+02	-2.2347	-29.719375	0.000476	4.764336	1.614201	0.000191
1954	1.9432e+02	-2.2010	-29.489258	0.000578	5.778024	1.957648	0.000231
1955	1.9442e+02	-2.1481	-29.247030	0.000608	6.082131	2.060682	0.000243
1956	1.9452e+02	-2.1160	-29.049210	0.000497	4.967074	1.682890	0.000199
1957	1.9462e+02	-2.0759	-28.835242	0.000537	5.372549	1.820269	0.000215
1958	1.9472e+02	-2.0261	-28.641459	0.000487	4.865705	1.648545	0.000195
1959	1.9482e+02	-1.9925	-28.362897	0.000699	6.994450	2.369784	0.000280
1960	1.9492e+02	-1.9491	-28.189300	0.000436	4.358860	1.476822	0.000174
1961	1.9502e+02	-1.9171	-27.938998	0.000628	6.284869	2.129371	0.000252
1962	1.9512e+02	-1.8705	-27.745215	0.000487	4.865705	1.648545	0.000195
1963	1.9522e+02	-1.8288	-27.535284	0.000527	5.271180	1.785924	0.000211
1964	1.9532e+02	-1.7983	-27.297093	0.000598	5.980762	2.026337	0.000239
1965	1.9542e+02	-1.7486	-27.026605	0.000679	6.791713	2.301095	0.000272
1966	1.9552e+02	-1.7085	-26.840897	0.000466	4.662967	1.579856	0.000187
1967	1.9562e+02	-1.6812	-26.618854	0.000558	5.575287	1.888958	0.000223
1968	1.9572e+02	-1.6235	-26.445258	0.000436	4.358860	1.476822	0.000174
1969	1.9582e+02	-1.5930	-26.182844	0.000659	6.588975	2.232405	0.000264
1970	1.9592e+02	-1.5417	-25.960801	0.000558	5.575287	1.888958	0.000223
1971	1.9601e+02	-1.5240	-25.730685	0.000578	5.778024	1.957648	0.000231
1972	1.9611e+02	-1.4775	-25.488456	0.000608	6.082131	2.060682	0.000243
1973	1.9621e+02	-1.4246	-25.331008	0.000395	3.953385	1.339443	0.000158
1974	1.9631e+02	-1.3941	-25.064557	0.000669	6.690344	2.266750	0.000268
1975	1.9641e+02	-1.3636	-24.838478	0.000568	5.676655	1.923303	0.000227
1976	1.9651e+02	-1.3155	-24.668918	0.000426	4.257492	1.442477	0.000170
1977	1.9661e+02	-1.2754	-24.442838	0.000568	5.676655	1.923303	0.000227
1978	1.9671e+02	-1.2337	-24.204647	0.000598	5.980762	2.026337	0.000239
1979	1.9681e+02	-1.2000	-23.982605	0.000558	5.575287	1.888958	0.000223
1980	1.9691e+02	-1.1599	-23.772674	0.000527	5.271180	1.785924	0.000211
1981	1.9701e+02	-1.1165	-23.502186	0.000679	6.791713	2.301095	0.000272
1982	1.9711e+02	-1.0732	-23.332626	0.000426	4.257492	1.442477	0.000170
1983	1.9721e+02	-1.0347	-23.074249	0.000649	6.487606	2.198060	0.000260
1984	1.9731e+02	-0.9946	-22.872393	0.000507	5.068442	1.717235	0.000203
1985	1.9741e+02	-0.9513	-22.646313	0.000568	5.676655	1.923303	0.000227
1986	1.9751e+02	-0.9224	-22.416196	0.000578	5.778024	1.957648	0.000231
1987	1.9761e+02	-0.8695	-22.169931	0.000618	6.183500	2.095026	0.000248
1988	1.9771e+02	-0.8278	-22.032668	0.000345	3.446541	1.167720	0.000138
1989	1.9781e+02	-0.7909	-21.778329	0.000639	6.386237	2.163716	0.000256
1990	1.9791e+02	-0.7588	-21.491692	0.000720	7.197188	2.438473	0.000288
1991	1.9800e+02	-0.7171	-21.301947	0.000476	4.764336	1.614201	0.000191
1992	1.9810e+02	-0.6802	-21.104127	0.000497	4.967074	1.682890	0.000199
1993	1.9820e+02	-0.6385	-20.878047	0.000568	5.676655	1.923303	0.000227
1994	1.9830e+02	-0.5984	-20.651968	0.000568	5.676655	1.923303	0.000227
1995	1.9840e+02	-0.5503	-20.438000	0.000537	5.372549	1.820269	0.000215
1996	1.9850e+02	-0.5198	-20.175586	0.000659	6.588975	2.232405	0.000264
1997	1.9860e+02	-0.4749	-19.969692	0.000517	5.169811	1.751579	0.000207
1998	1.9870e+02	-0.4347	-19.800132	0.000426	4.257492	1.442477	0.000170
1999	1.9880e+02	-0.3946	-19.521570	0.000699	6.994450	2.369784	0.000280
2000	1.9890e+02	-0.3545	-19.315676	0.000517	5.169811	1.751579	0.000207
2001	1.9900e+02	-0.3257	-19.134005	0.000456	4.561598	1.545511	0.000183
2002	1.9910e+02	-0.2807	-18.871591	0.000659	6.588975	2.232405	0.000264
2003	1.9920e+02	-0.2342	-18.653586	0.000547	5.473918	1.854614	0.000219
2004	1.9930e+02	-0.1957	-18.431543	0.000558	5.575287	1.888958	0.000223
2005	1.9940e+02	-0.1588	-18.181241	0.000628	6.284869	2.129371	0.000252
2006	1.9950e+02	-0.1155	-17.999570	0.000456	4.561598	1.545511	0.000183
2007	1.9960e+02	-0.0754	-17.753304	0.000618	6.183500	2.095026	0.000248
2008	1.9970e+02	-0.0417	-17.543373	0.000527	5.271180	1.785924	0.000211
2009	1.9980e+02	-0.0048	-17.317294	0.000527	5.271180	1.785924	0.000227

PMax (uC/cm2):	1.09e+02
Pr (uC/cm2):	6.51e+00
-Pr (uC/cm2):	-1.13e+01
PLoss (uC/cm2):	-1.13e+01
-Vc:	-1.14e+00
C (Max-Eff) (nF):	5.47e-01
K (Eff):	1.85e+03
Vert. (+/-Pr) Shift (uC/cm2):	-2.41e+00
Offset (uC/cm2):	5.99e+00

A (Loop Area - uC/cm2·Volts):	3.40e-02



Hysteresis Version: 5.48.1 - Radiant Technologies, Inc., 1999 - 9/12/24

