»»»»»»»»»»»»»»»»»»»»»»»»»»»»»»»»»»»» Hysteresis ««««««««««««««««««««««««««««««««««««
»»»  Executed Version:	5.48.1
»»»  Vision Version:	5.48.4 (R)
»»»  Vision Compiled:	9/18/24
»»»  Driver Version:	5.47.0
»»»  Windows Version:	Windows 8 or 8.1
»»»  Processor Information:	x86 (AMD or Intel) - 32 Processors
»»»  Tester Name:	PMF21124-494 (100V)
»»»  Tester S/N:	PMF21124-494
»»»  Internal Amp Type:	100V RevK 270k
»»»  Internal Amp S/N:	iAB2-596/K     
»»»  Execution Count:	1
»»»»»»»»»»»»»»»»»»»»»»»»»»»»»»»»»»»»»»»»»»««««««««««««««««««««««««««««««««««««««««««

Stored:	6/18/2025 - 12:9:33
Configured:	06/18/25 09:47:30 AM
Executed:	06/18/25 12:08:47 PM

»»»»»»»»»»»»»»»»»»»»»»»»»»»»»»»»»»» Sample Info ««««««««««««««««««««««««««««««««««««
Sample Name:	
Lot Name:	
Wafer Name:	
Die Row/Column:	0/0
Capacitor Number:	0
Sample Area (cm2):	1.00e-04
Sample Thickness (microns):	3.00e-01

Amplifier:	Internal

»»»»»»»»»»»»»»»»»»»»»»»»»»»»»»»»»»» Tester Info «««««««««««««««««««««««««««««««««««
Tester Name:	PMF21124-494 (100V)
Tester Serial Number:	PMF21124-494
Return Signal Amp. Level:	0.19 [Index: 3]

»»»»»»»»»»»»»»»»»»»»»»»»»»»»»»»» Hysteresis Info ««««««««««««««««««««««««««««««««««
Task Name:	Hyst-554
Volts:	20.00
Field:	666.67 (kV/cm)
DCBias:	0.00
DCField:	0.00 (kV/cm)
Hysteresis Period (ms):	1.00e+00
Preset:	Enabled
Preset Delay (ms):	1.00e+03
Profile:	Standard Bipolar

»»»»»»»»»»»»»»»»»»»»»»»»»»»»»»»»»»»»»» Data «««««««««««««««««««««««««««««««««««««««
Points:	2001

Valid Data

Point	Time (ms)	Drive Voltage	Measured Polarization (uC/cm2)	Capacitance (uF)	Normalized Capacitance (uF/cm2)	Dielectric Constant	Instantaneous Current (mA)
   1	0.0000e+00	0.0160	-7.586258	0.001273	12.727505	4.312195	0.101634
   2	5.0000e-04	0.0321	-7.078088	0.001273	12.727505	4.312195	0.101634
   3	1.0000e-03	0.0610	-7.320074	-0.000606	-6.060717	-2.053426	-0.048397
   4	1.5000e-03	0.0930	-7.211180	0.000273	2.727322	0.924042	0.021779
   5	2.0000e-03	0.1283	-7.005492	0.000515	5.151609	1.745412	0.041138
   6	2.5000e-03	0.1652	-6.682844	0.000808	8.080956	2.737902	0.064530
   7	3.0000e-03	0.2053	-6.452958	0.000576	5.757681	1.950755	0.045977
   8	3.5000e-03	0.2438	-6.416660	0.000091	0.909107	0.308014	0.007260
   9	4.0000e-03	0.2936	-6.102078	0.000788	7.878932	2.669454	0.062916
  10	4.5000e-03	0.3321	-5.936721	0.000414	4.141490	1.403175	0.033071
  11	5.0000e-03	0.3738	-5.759265	0.000444	4.444526	1.505846	0.035491
  12	5.5000e-03	0.4107	-5.416451	0.000859	8.586015	2.909021	0.068563
  13	6.0000e-03	0.4347	-5.013142	0.001010	10.101194	3.422377	0.080662
  14	6.5000e-03	0.4861	-5.158333	-0.000364	-3.636430	-1.232056	-0.029038
  15	7.0000e-03	0.5342	-4.823586	0.000838	8.383991	2.840573	0.066949
  16	7.5000e-03	0.5711	-4.718725	0.000263	2.626311	0.889818	0.020972
  17	8.0000e-03	0.6096	-4.613865	0.000263	2.626311	0.889818	0.020972
  18	8.5000e-03	0.6481	-4.307349	0.000768	7.676908	2.601007	0.061303
  19	9.0000e-03	0.7010	-4.343647	-0.000091	-0.909107	-0.308014	-0.007260
  20	9.5000e-03	0.7315	-4.029066	0.000788	7.878932	2.669454	0.062916
  21	1.0000e-02	0.7700	-3.670120	0.000899	8.990063	3.045916	0.071789
  22	1.0500e-02	0.8101	-3.605590	0.000162	1.616191	0.547580	0.012906
  23	1.1000e-02	0.8486	-3.202280	0.001010	10.101194	3.422377	0.080662
  24	1.1500e-02	0.8807	-3.053056	0.000374	3.737442	1.266280	0.029845
  25	1.2000e-02	0.9272	-2.613448	0.001101	11.010302	3.730391	0.087922
  26	1.2500e-02	0.9641	-2.569084	0.000111	1.111131	0.376462	0.008873
  27	1.3000e-02	1.0059	-2.234337	0.000838	8.383991	2.840573	0.066949
  28	1.3500e-02	1.0460	-2.202072	0.000081	0.808096	0.273790	0.006453
  29	1.4000e-02	1.0861	-2.068980	0.000333	3.333394	1.129385	0.026618
  30	1.4500e-02	1.1310	-1.722133	0.000869	8.687027	2.943244	0.069369
  31	1.5000e-02	1.1679	-1.407551	0.000788	7.878932	2.669454	0.062916
  32	1.5500e-02	1.2176	-1.322856	0.000212	2.121251	0.718699	0.016939
  33	1.6000e-02	1.2465	-1.072804	0.000626	6.262741	2.121874	0.050010
  34	1.6500e-02	1.2834	-0.931646	0.000354	3.535418	1.197832	0.028232
  35	1.7000e-02	1.3283	-0.855017	0.000192	1.919227	0.650252	0.015326
  36	1.7500e-02	1.3652	-0.504137	0.000879	8.788039	2.977468	0.070176
  37	1.8000e-02	1.4117	-0.189556	0.000788	7.878932	2.669454	0.062916
  38	1.8500e-02	1.4534	0.129059	0.000798	7.979944	2.703678	0.063723
  39	1.9000e-02	1.4839	0.189556	0.000152	1.515179	0.513357	0.012099
  40	1.9500e-02	1.5369	0.403310	0.000535	5.353633	1.813860	0.042751
  41	2.0000e-02	1.5641	0.661428	0.000646	6.464764	2.190321	0.051624
  42	2.0500e-02	1.6090	0.891315	0.000576	5.757681	1.950755	0.045977
  43	2.1000e-02	1.6524	0.931646	0.000101	1.010119	0.342238	0.008066
  44	2.1500e-02	1.6909	1.367220	0.001091	10.909290	3.696167	0.087115
  45	2.2000e-02	1.7278	1.661637	0.000737	7.373872	2.498335	0.058883
  46	2.2500e-02	1.7647	1.923788	0.000657	6.565776	2.224545	0.052430
  47	2.3000e-02	1.8048	1.895556	-0.000071	-0.707084	-0.239566	-0.005646
  48	2.3500e-02	1.8609	2.008483	0.000283	2.828334	0.958266	0.022585
  49	2.4000e-02	1.8930	2.177873	0.000424	4.242502	1.437398	0.033878
  50	2.4500e-02	1.9315	2.403727	0.000566	5.656669	1.916531	0.045171
  51	2.5000e-02	1.9620	2.694110	0.000727	7.272860	2.464112	0.058077
  52	2.5500e-02	2.0021	2.746540	0.000131	1.313155	0.444909	0.010486
  53	2.6000e-02	2.0518	3.040956	0.000737	7.373872	2.498335	0.058883
  54	2.6500e-02	2.0919	3.359571	0.000798	7.979944	2.703678	0.063723
  55	2.7000e-02	2.1272	3.331339	-0.000071	-0.707084	-0.239566	-0.005646
  56	2.7500e-02	2.1673	3.662054	0.000828	8.282979	2.806349	0.066143
  57	2.8000e-02	2.1994	3.968569	0.000768	7.676908	2.601007	0.061303
  58	2.8500e-02	2.2539	4.202489	0.000586	5.858693	1.984979	0.046784
  59	2.9000e-02	2.2844	4.472706	0.000677	6.767800	2.292993	0.054044
  60	2.9500e-02	2.3277	4.690494	0.000545	5.454645	1.848084	0.043557
  61	3.0000e-02	2.3646	5.005075	0.000788	7.878932	2.669454	0.062916
  62	3.0500e-02	2.4176	5.065572	0.000152	1.515179	0.513357	0.012099
  63	3.1000e-02	2.4513	5.150267	0.000212	2.121251	0.718699	0.016939
  64	3.1500e-02	2.4898	5.311591	0.000404	4.040478	1.368951	0.032265
  65	3.2000e-02	2.5283	5.630206	0.000798	7.979944	2.703678	0.063723
  66	3.2500e-02	2.5700	5.807662	0.000444	4.444526	1.505846	0.035491
  67	3.3000e-02	2.6037	6.114177	0.000768	7.676908	2.601007	0.061303
  68	3.3500e-02	2.6470	6.440858	0.000818	8.181967	2.772126	0.065336
  69	3.4000e-02	2.6855	6.565885	0.000313	3.131370	1.060937	0.025005
  70	3.4500e-02	2.7336	6.654613	0.000222	2.222263	0.752923	0.017746
  71	3.5000e-02	2.7737	6.973227	0.000798	7.979944	2.703678	0.063723
  72	3.5500e-02	2.8010	7.340239	0.000919	9.192087	3.114363	0.073402
  73	3.6000e-02	2.8523	7.441067	0.000253	2.525299	0.855594	0.020165
  74	3.6500e-02	2.8892	7.473332	0.000081	0.808096	0.273790	0.006453
  75	3.7000e-02	2.9277	7.900840	0.001071	10.707266	3.627720	0.085502
  76	3.7500e-02	2.9726	8.167025	0.000667	6.666788	2.258769	0.053237
  77	3.8000e-02	3.0127	8.255753	0.000222	2.222263	0.752923	0.017746
  78	3.8500e-02	3.0496	8.546136	0.000727	7.272860	2.464112	0.058077
  79	3.9000e-02	3.0946	8.630831	0.000212	2.121251	0.718699	0.016939
  80	3.9500e-02	3.1331	8.792155	0.000404	4.040478	1.368951	0.032265
  81	4.0000e-02	3.1732	9.018008	0.000566	5.656669	1.916531	0.045171
  82	4.0500e-02	3.2117	9.477782	0.001152	11.515362	3.901510	0.091955
  83	4.1000e-02	3.2534	9.695569	0.000545	5.454645	1.848084	0.043557
  84	4.1500e-02	3.2887	9.752032	0.000141	1.414167	0.479133	0.011293
  85	4.2000e-02	3.3272	9.901257	0.000374	3.737442	1.266280	0.029845
  86	4.2500e-02	3.3737	10.151309	0.000626	6.262741	2.121874	0.050010
  87	4.3000e-02	3.4074	10.381196	0.000576	5.757681	1.950755	0.045977
  88	4.3500e-02	3.4523	10.469924	0.000222	2.222263	0.752923	0.017746
  89	4.4000e-02	3.4828	10.719976	0.000626	6.262741	2.121874	0.050010
  90	4.4500e-02	3.5341	11.002293	0.000707	7.070836	2.395664	0.056463
  91	4.5000e-02	3.5662	11.296709	0.000737	7.373872	2.498335	0.058883
  92	4.5500e-02	3.6111	11.579026	0.000707	7.070836	2.395664	0.056463
  93	4.6000e-02	3.6496	11.885542	0.000768	7.676908	2.601007	0.061303
  94	4.6500e-02	3.6994	12.087197	0.000505	5.050597	1.711189	0.040331
  95	4.7000e-02	3.7379	12.026700	-0.000152	-1.515179	-0.513357	-0.012099
  96	4.7500e-02	3.7716	12.494539	0.001172	11.717385	3.969958	0.093568
  97	4.8000e-02	3.8084	12.716360	0.000556	5.555657	1.882308	0.044364
  98	4.8500e-02	3.8550	12.901882	0.000465	4.646549	1.574294	0.037105
  99	4.9000e-02	3.8887	13.115637	0.000535	5.353633	1.813860	0.042751
 100	4.9500e-02	3.9336	13.317292	0.000505	5.050597	1.711189	0.040331
 101	5.0000e-02	3.9673	13.591542	0.000687	6.868812	2.327217	0.054850
 102	5.0500e-02	4.0026	13.902091	0.000778	7.777920	2.635231	0.062110
 103	5.1000e-02	4.0507	13.994852	0.000232	2.323275	0.787147	0.018552
 104	5.1500e-02	4.0924	14.103746	0.000273	2.727322	0.924042	0.021779
 105	5.2000e-02	4.1293	14.414294	0.000778	7.777920	2.635231	0.062110
 106	5.2500e-02	4.1694	14.595784	0.000455	4.545537	1.540070	0.036298
 107	5.3000e-02	4.2095	14.890200	0.000737	7.373872	2.498335	0.058883
 108	5.3500e-02	4.2528	15.140252	0.000626	6.262741	2.121874	0.050010
 109	5.4000e-02	4.2929	15.152351	0.000030	0.303036	0.102671	0.002420
 110	5.4500e-02	4.3330	15.616158	0.001162	11.616374	3.935734	0.092761
 111	5.5000e-02	4.3667	15.870243	0.000636	6.363752	2.156098	0.050817
 112	5.5500e-02	4.4084	15.934773	0.000162	1.616191	0.547580	0.012906
 113	5.6000e-02	4.4517	16.192891	0.000646	6.464764	2.190321	0.051624
 114	5.6500e-02	4.4919	16.507473	0.000788	7.878932	2.669454	0.062916
 115	5.7000e-02	4.5239	16.741392	0.000586	5.858693	1.984979	0.046784
 116	5.7500e-02	4.5737	16.866418	0.000313	3.131370	1.060937	0.025005
 117	5.8000e-02	4.6041	17.112437	0.000616	6.161729	2.087650	0.049204
 118	5.8500e-02	4.6443	17.382655	0.000677	6.767800	2.292993	0.054044
 119	5.9000e-02	4.6972	17.713369	0.000828	8.282979	2.806349	0.066143
 120	5.9500e-02	4.7293	17.890825	0.000444	4.444526	1.505846	0.035491
 121	6.0000e-02	4.7646	18.064249	0.000434	4.343514	1.471622	0.034685
 122	6.0500e-02	4.8143	18.411095	0.000869	8.687027	2.943244	0.069369
 123	6.1000e-02	4.8496	18.548220	0.000343	3.434406	1.163608	0.027425
 124	6.1500e-02	4.8929	18.600651	0.000131	1.313155	0.444909	0.010486
 125	6.2000e-02	4.9314	18.806339	0.000515	5.151609	1.745412	0.041138
 126	6.2500e-02	4.9699	19.124954	0.000798	7.979944	2.703678	0.063723
 127	6.3000e-02	5.0116	19.439535	0.000788	7.878932	2.669454	0.062916
 128	6.3500e-02	5.0549	19.633124	0.000485	4.848573	1.642741	0.038718
 129	6.4000e-02	5.0950	19.774282	0.000354	3.535418	1.197832	0.028232
 130	6.4500e-02	5.1319	20.044500	0.000677	6.767800	2.292993	0.054044
 131	6.5000e-02	5.1672	20.330850	0.000717	7.171848	2.429888	0.057270
 132	6.5500e-02	5.2009	20.423611	0.000232	2.323275	0.787147	0.018552
 133	6.6000e-02	5.2442	20.544604	0.000303	3.030358	1.026713	0.024199
 134	6.6500e-02	5.2876	20.887418	0.000859	8.586015	2.909021	0.068563
 135	6.7000e-02	5.3421	21.294761	0.001020	10.202206	3.456601	0.081469
 136	6.7500e-02	5.3694	21.419787	0.000313	3.131370	1.060937	0.025005
 137	6.8000e-02	5.4127	21.677905	0.000646	6.464764	2.190321	0.051624
 138	6.8500e-02	5.4544	21.867461	0.000475	4.747561	1.608517	0.037911
 139	6.9000e-02	5.4945	22.020718	0.000384	3.838454	1.300503	0.030652
 140	6.9500e-02	5.5314	22.125579	0.000263	2.626311	0.889818	0.020972
 141	7.0000e-02	5.5715	22.710378	0.001465	14.646732	4.962447	0.116960
 142	7.0500e-02	5.6052	22.827338	0.000293	2.929346	0.992489	0.023392
 143	7.1000e-02	5.6485	23.097556	0.000677	6.767800	2.292993	0.054044
 144	7.1500e-02	5.6886	23.412137	0.000788	7.878932	2.669454	0.062916
 145	7.2000e-02	5.7335	23.400038	-0.000030	-0.303036	-0.102671	-0.002420
 146	7.2500e-02	5.7736	23.440369	0.000101	1.010119	0.342238	0.008066
 147	7.3000e-02	5.8089	23.896109	0.001141	11.414350	3.867286	0.091148
 148	7.3500e-02	5.8442	24.194559	0.000747	7.474884	2.532559	0.059690
 149	7.4000e-02	5.8859	24.561570	0.000919	9.192087	3.114363	0.073402
 150	7.4500e-02	5.9292	24.662398	0.000253	2.525299	0.855594	0.020165
 151	7.5000e-02	5.9661	24.944715	0.000707	7.070836	2.395664	0.056463
 152	7.5500e-02	6.0175	25.037476	0.000232	2.323275	0.787147	0.018552
 153	7.6000e-02	6.0399	25.235098	0.000495	4.949585	1.676965	0.039524
 154	7.6500e-02	6.0897	25.464985	0.000576	5.757681	1.950755	0.045977
 155	7.7000e-02	6.1362	25.702937	0.000596	5.959705	2.019203	0.047591
 156	7.7500e-02	6.1715	25.856195	0.000384	3.838454	1.300503	0.030652
 157	7.8000e-02	6.2084	26.041718	0.000465	4.646549	1.574294	0.037105
 158	7.8500e-02	6.2485	26.336134	0.000737	7.373872	2.498335	0.058883
 159	7.9000e-02	6.2822	26.650716	0.000788	7.878932	2.669454	0.062916
 160	7.9500e-02	6.3335	26.977397	0.000818	8.181967	2.772126	0.065336
 161	8.0000e-02	6.3672	27.086290	0.000273	2.727322	0.924042	0.021779
 162	8.0500e-02	6.4089	27.380706	0.000737	7.373872	2.498335	0.058883
 163	8.1000e-02	6.4570	27.755785	0.000939	9.394111	3.182811	0.075016
 164	8.1500e-02	6.4955	27.779983	0.000061	0.606072	0.205343	0.004840
 165	8.2000e-02	6.5292	27.800149	0.000051	0.505060	0.171119	0.004033
 166	8.2500e-02	6.5774	27.876778	0.000192	1.919227	0.650252	0.015326
 167	8.3000e-02	6.6126	28.356716	0.001202	12.020421	4.072629	0.095988
 168	8.3500e-02	6.6544	28.622901	0.000667	6.666788	2.258769	0.053237
 169	8.4000e-02	6.6880	28.630967	0.000020	0.202024	0.068448	0.001613
 170	8.4500e-02	6.7314	28.941516	0.000778	7.777920	2.635231	0.062110
 171	8.5000e-02	6.7715	29.175435	0.000586	5.858693	1.984979	0.046784
 172	8.5500e-02	6.8084	29.485984	0.000778	7.777920	2.635231	0.062110
 173	8.6000e-02	6.8485	29.639242	0.000384	3.838454	1.300503	0.030652
 174	8.6500e-02	6.8886	29.933658	0.000737	7.373872	2.498335	0.058883
 175	8.7000e-02	6.9255	30.135313	0.000505	5.050597	1.711189	0.040331
 176	8.7500e-02	6.9704	30.365199	0.000576	5.757681	1.950755	0.045977
 177	8.8000e-02	7.0121	30.570887	0.000515	5.151609	1.745412	0.041138
 178	8.8500e-02	7.0506	30.716079	0.000364	3.636430	1.232056	0.029038
 179	8.9000e-02	7.0923	30.905635	0.000475	4.747561	1.608517	0.037911
 180	8.9500e-02	7.1228	31.127455	0.000556	5.555657	1.882308	0.044364
 181	9.0000e-02	7.1725	31.470268	0.000859	8.586015	2.909021	0.068563
 182	9.0500e-02	7.2142	31.829214	0.000899	8.990063	3.045916	0.071789
 183	9.1000e-02	7.2463	31.954240	0.000313	3.131370	1.060937	0.025005
 184	9.1500e-02	7.2832	32.357550	0.001010	10.101194	3.422377	0.080662
 185	9.2000e-02	7.3265	32.458378	0.000253	2.525299	0.855594	0.020165
 186	9.2500e-02	7.3682	32.785059	0.000818	8.181967	2.772126	0.065336
 187	9.3000e-02	7.4083	32.825390	0.000101	1.010119	0.342238	0.008066
 188	9.3500e-02	7.4485	33.023011	0.000495	4.949585	1.676965	0.039524
 189	9.4000e-02	7.4902	33.200468	0.000444	4.444526	1.505846	0.035491
 190	9.4500e-02	7.5319	33.462619	0.000657	6.565776	2.224545	0.052430
 191	9.5000e-02	7.5672	33.910293	0.001121	11.212326	3.798839	0.089535
 192	9.5500e-02	7.6073	34.019187	0.000273	2.727322	0.924042	0.021779
 193	9.6000e-02	7.6410	34.140180	0.000303	3.030358	1.026713	0.024199
 194	9.6500e-02	7.6923	34.426530	0.000717	7.171848	2.429888	0.057270
 195	9.7000e-02	7.7276	34.672549	0.000616	6.161729	2.087650	0.049204
 196	9.7500e-02	7.7677	34.946799	0.000687	6.868812	2.327217	0.054850
 197	9.8000e-02	7.8142	35.176686	0.000576	5.757681	1.950755	0.045977
 198	9.8500e-02	7.8527	35.426738	0.000626	6.262741	2.121874	0.050010
 199	9.9000e-02	7.8928	35.648559	0.000556	5.555657	1.882308	0.044364
 200	9.9500e-02	7.9329	35.959107	0.000778	7.777920	2.635231	0.062110
 201	1.0000e-01	7.9666	36.201093	0.000606	6.060717	2.053426	0.048397
 202	1.0050e-01	8.0083	36.330152	0.000323	3.232382	1.095161	0.025812
 203	1.0100e-01	8.0500	36.628602	0.000747	7.474884	2.532559	0.059690
 204	1.0150e-01	8.0901	36.656833	0.000071	0.707084	0.239566	0.005646
 205	1.0200e-01	8.1335	36.935117	0.000697	6.969824	2.361440	0.055657
 206	1.0250e-01	8.1655	37.217434	0.000707	7.070836	2.395664	0.056463
 207	1.0300e-01	8.1992	37.398923	0.000455	4.545537	1.540070	0.036298
 208	1.0350e-01	8.2458	37.491685	0.000232	2.323275	0.787147	0.018552
 209	1.0400e-01	8.2891	37.745770	0.000636	6.363752	2.156098	0.050817
 210	1.0450e-01	8.3356	38.052285	0.000768	7.676908	2.601007	0.061303
 211	1.0500e-01	8.3629	38.370900	0.000798	7.979944	2.703678	0.063723
 212	1.0550e-01	8.4078	38.528191	0.000394	3.939466	1.334727	0.031458
 213	1.0600e-01	8.4527	38.685482	0.000394	3.939466	1.334727	0.031458
 214	1.0650e-01	8.4864	38.875037	0.000475	4.747561	1.608517	0.037911
 215	1.0700e-01	8.5409	39.173487	0.000747	7.474884	2.532559	0.059690
 216	1.0750e-01	8.5650	39.596962	0.001061	10.606254	3.593496	0.084695
 217	1.0800e-01	8.6083	39.685690	0.000222	2.222263	0.752923	0.017746
 218	1.0850e-01	8.6452	39.709889	0.000061	0.606072	0.205343	0.004840
 219	1.0900e-01	8.6885	39.951875	0.000606	6.060717	2.053426	0.048397
 220	1.0950e-01	8.7206	40.496343	0.001364	13.636612	4.620209	0.108894
 221	1.1000e-01	8.7703	40.601204	0.000263	2.626311	0.889818	0.020972
 222	1.1050e-01	8.8056	40.810925	0.000525	5.252621	1.779636	0.041944
 223	1.1100e-01	8.8489	40.939984	0.000323	3.232382	1.095161	0.025812
 224	1.1150e-01	8.8907	41.101308	0.000404	4.040478	1.368951	0.032265
 225	1.1200e-01	8.9404	41.452187	0.000879	8.788039	2.977468	0.070176
 226	1.1250e-01	8.9709	41.686107	0.000586	5.858693	1.984979	0.046784
 227	1.1300e-01	9.0014	41.924060	0.000596	5.959705	2.019203	0.047591
 228	1.1350e-01	9.0495	42.061185	0.000343	3.434406	1.163608	0.027425
 229	1.1400e-01	9.0896	42.420131	0.000899	8.990063	3.045916	0.071789
 230	1.1450e-01	9.1313	42.581455	0.000404	4.040478	1.368951	0.032265
 231	1.1500e-01	9.1666	42.787143	0.000515	5.151609	1.745412	0.041138
 232	1.1550e-01	9.2067	42.972666	0.000465	4.646549	1.574294	0.037105
 233	1.1600e-01	9.2564	43.162221	0.000475	4.747561	1.608517	0.037911
 234	1.1650e-01	9.2917	43.424373	0.000657	6.565776	2.224545	0.052430
 235	1.1700e-01	9.3318	43.634094	0.000525	5.252621	1.779636	0.041944
 236	1.1750e-01	9.3719	43.851881	0.000545	5.454645	1.848084	0.043557
 237	1.1800e-01	9.4136	44.142264	0.000727	7.272860	2.464112	0.058077
 238	1.1850e-01	9.4457	44.388283	0.000616	6.161729	2.087650	0.049204
 239	1.1900e-01	9.4890	44.622203	0.000586	5.858693	1.984979	0.046784
 240	1.1950e-01	9.5356	44.727063	0.000263	2.626311	0.889818	0.020972
 241	1.2000e-01	9.5741	44.892421	0.000414	4.141490	1.403175	0.033071
 242	1.2050e-01	9.6126	44.948884	0.000141	1.414167	0.479133	0.011293
 243	1.2100e-01	9.6543	45.194903	0.000616	6.161729	2.087650	0.049204
 244	1.2150e-01	9.6992	45.795835	0.001505	15.050780	5.099342	0.120186
 245	1.2200e-01	9.7265	45.860364	0.000162	1.616191	0.547580	0.012906
 246	1.2250e-01	9.7746	45.892629	0.000081	0.808096	0.273790	0.006453
 247	1.2300e-01	9.8147	46.324171	0.001081	10.808278	3.661944	0.086308
 248	1.2350e-01	9.8436	46.380634	0.000141	1.414167	0.479133	0.011293
 249	1.2400e-01	9.8885	46.566156	0.000465	4.646549	1.574294	0.037105
 250	1.2450e-01	9.9318	46.937202	0.000929	9.293099	3.148587	0.074209
 251	1.2500e-01	9.9687	47.142890	0.000515	5.151609	1.745412	0.041138
 252	1.2550e-01	10.0072	47.372776	0.000576	5.757681	1.950755	0.045977
 253	1.2600e-01	10.0569	47.663159	0.000727	7.272860	2.464112	0.058077
 254	1.2650e-01	10.0906	47.880947	0.000545	5.454645	1.848084	0.043557
 255	1.2700e-01	10.1307	48.143098	0.000657	6.565776	2.224545	0.052430
 256	1.2750e-01	10.1644	48.276190	0.000333	3.333394	1.129385	0.026618
 257	1.2800e-01	10.2077	48.372985	0.000242	2.424287	0.821371	0.019359
 258	1.2850e-01	10.2543	48.764195	0.000980	9.798159	3.319706	0.078242
 259	1.2900e-01	10.2944	48.820659	0.000141	1.414167	0.479133	0.011293
 260	1.2950e-01	10.3281	49.058611	0.000596	5.959705	2.019203	0.047591
 261	1.3000e-01	10.3649	49.409491	0.000879	8.788039	2.977468	0.070176
 262	1.3050e-01	10.4163	49.461921	0.000131	1.313155	0.444909	0.010486
 263	1.3100e-01	10.4516	49.905562	0.001111	11.111314	3.764615	0.088728
 264	1.3150e-01	10.4949	49.897496	-0.000020	-0.202024	-0.068448	-0.001613
 265	1.3200e-01	10.5318	50.123349	0.000566	5.656669	1.916531	0.045171
 266	1.3250e-01	10.5719	50.345170	0.000556	5.555657	1.882308	0.044364
 267	1.3300e-01	10.6200	50.615387	0.000677	6.767800	2.292993	0.054044
 268	1.3350e-01	10.6505	51.071128	0.001141	11.414350	3.867286	0.091148
 269	1.3400e-01	10.6970	51.260683	0.000475	4.747561	1.608517	0.037911
 270	1.3450e-01	10.7307	51.426040	0.000414	4.141490	1.403175	0.033071
 271	1.3500e-01	10.7676	51.458305	0.000081	0.808096	0.273790	0.006453
 272	1.3550e-01	10.8206	51.829350	0.000929	9.293099	3.148587	0.074209
 273	1.3600e-01	10.8510	51.974542	0.000364	3.636430	1.232056	0.029038
 274	1.3650e-01	10.8863	52.268958	0.000737	7.373872	2.498335	0.058883
 275	1.3700e-01	10.9328	52.313322	0.000111	1.111131	0.376462	0.008873
 276	1.3750e-01	10.9810	52.502878	0.000475	4.747561	1.608517	0.037911
 277	1.3800e-01	11.0163	52.704533	0.000505	5.050597	1.711189	0.040331
 278	1.3850e-01	11.0516	52.994916	0.000727	7.272860	2.464112	0.058077
 279	1.3900e-01	11.0901	53.369994	0.000939	9.394111	3.182811	0.075016
 280	1.3950e-01	11.1254	53.555516	0.000465	4.646549	1.574294	0.037105
 281	1.4000e-01	11.1639	53.692642	0.000343	3.434406	1.163608	0.027425
 282	1.4050e-01	11.2088	54.095952	0.001010	10.101194	3.422377	0.080662
 283	1.4100e-01	11.2489	54.358103	0.000657	6.565776	2.224545	0.052430
 284	1.4150e-01	11.2922	54.507328	0.000374	3.737442	1.266280	0.029845
 285	1.4200e-01	11.3371	54.616221	0.000273	2.727322	0.924042	0.021779
 286	1.4250e-01	11.3628	54.688817	0.000182	1.818215	0.616028	0.014519
 287	1.4300e-01	11.4157	54.918704	0.000576	5.757681	1.950755	0.045977
 288	1.4350e-01	11.4542	55.285716	0.000919	9.192087	3.114363	0.073402
 289	1.4400e-01	11.4863	55.426874	0.000354	3.535418	1.197832	0.028232
 290	1.4450e-01	11.5216	55.906813	0.001202	12.020421	4.072629	0.095988
 291	1.4500e-01	11.5681	55.995541	0.000222	2.222263	0.752923	0.017746
 292	1.4550e-01	11.6146	56.072170	0.000192	1.919227	0.650252	0.015326
 293	1.4600e-01	11.6548	56.346421	0.000687	6.868812	2.327217	0.054850
 294	1.4650e-01	11.6884	56.483546	0.000343	3.434406	1.163608	0.027425
 295	1.4700e-01	11.7237	56.709399	0.000566	5.656669	1.916531	0.045171
 296	1.4750e-01	11.7622	57.072378	0.000909	9.091075	3.080140	0.072596
 297	1.4800e-01	11.8152	57.149007	0.000192	1.919227	0.650252	0.015326
 298	1.4850e-01	11.8521	57.233702	0.000212	2.121251	0.718699	0.016939
 299	1.4900e-01	11.8954	57.645078	0.001030	10.303218	3.490825	0.082275
 300	1.4950e-01	11.9387	57.907230	0.000657	6.565776	2.224545	0.052430
 301	1.5000e-01	11.9740	58.032256	0.000313	3.131370	1.060937	0.025005
 302	1.5050e-01	12.0173	58.205679	0.000434	4.343514	1.471622	0.034685
 303	1.5100e-01	12.0606	58.471864	0.000667	6.666788	2.258769	0.053237
 304	1.5150e-01	12.0943	58.673518	0.000505	5.050597	1.711189	0.040331
 305	1.5200e-01	12.1264	58.959868	0.000717	7.171848	2.429888	0.057270
 306	1.5250e-01	12.1793	59.016332	0.000141	1.414167	0.479133	0.011293
 307	1.5300e-01	12.2130	59.351079	0.000838	8.383991	2.840573	0.066949
 308	1.5350e-01	12.2531	59.468039	0.000293	2.929346	0.992489	0.023392
 309	1.5400e-01	12.2900	59.806819	0.000849	8.485003	2.874797	0.067756
 310	1.5450e-01	12.3333	59.887481	0.000202	2.020239	0.684475	0.016132
 311	1.5500e-01	12.3686	60.238361	0.000879	8.788039	2.977468	0.070176
 312	1.5550e-01	12.4168	60.617472	0.000950	9.495123	3.217035	0.075822
 313	1.5600e-01	12.4505	60.883657	0.000667	6.666788	2.258769	0.053237
 314	1.5650e-01	12.4890	61.040947	0.000394	3.939466	1.334727	0.031458
 315	1.5700e-01	12.5339	61.141775	0.000253	2.525299	0.855594	0.020165
 316	1.5750e-01	12.5676	61.444257	0.000758	7.575896	2.566783	0.060496
 317	1.5800e-01	12.6157	61.488621	0.000111	1.111131	0.376462	0.008873
 318	1.5850e-01	12.6462	61.674144	0.000465	4.646549	1.574294	0.037105
 319	1.5900e-01	12.6863	61.936295	0.000657	6.565776	2.224545	0.052430
 320	1.5950e-01	12.7408	62.174248	0.000596	5.959705	2.019203	0.047591
 321	1.6000e-01	12.7601	62.420267	0.000616	6.161729	2.087650	0.049204
 322	1.6050e-01	12.8082	62.613856	0.000485	4.848573	1.642741	0.038718
 323	1.6100e-01	12.8499	62.904239	0.000727	7.272860	2.464112	0.058077
 324	1.6150e-01	12.8964	63.436608	0.001333	13.333577	4.517538	0.106474
 325	1.6200e-01	12.9301	63.472906	0.000091	0.909107	0.308014	0.007260
 326	1.6250e-01	12.9686	63.505171	0.000081	0.808096	0.273790	0.006453
 327	1.6300e-01	13.0071	63.581799	0.000192	1.919227	0.650252	0.015326
 328	1.6350e-01	13.0552	63.726991	0.000364	3.636430	1.232056	0.029038
 329	1.6400e-01	13.0905	64.021407	0.000737	7.373872	2.498335	0.058883
 330	1.6450e-01	13.1322	64.340022	0.000798	7.979944	2.703678	0.063723
 331	1.6500e-01	13.1756	64.610240	0.000677	6.767800	2.292993	0.054044
 332	1.6550e-01	13.1996	64.860292	0.000626	6.262741	2.121874	0.050010
 333	1.6600e-01	13.2494	64.977252	0.000293	2.929346	0.992489	0.023392
 334	1.6650e-01	13.2895	65.049847	0.000182	1.818215	0.616028	0.014519
 335	1.6700e-01	13.3328	65.267635	0.000545	5.454645	1.848084	0.043557
 336	1.6750e-01	13.3713	65.445091	0.000444	4.444526	1.505846	0.035491
 337	1.6800e-01	13.4098	65.715309	0.000677	6.767800	2.292993	0.054044
 338	1.6850e-01	13.4435	66.017791	0.000758	7.575896	2.566783	0.060496
 339	1.6900e-01	13.4884	66.211380	0.000485	4.848573	1.642741	0.038718
 340	1.6950e-01	13.5221	66.199280	-0.000030	-0.303036	-0.102671	-0.002420
 341	1.7000e-01	13.5702	66.602590	0.001010	10.101194	3.422377	0.080662
 342	1.7050e-01	13.6039	66.852642	0.000626	6.262741	2.121874	0.050010
 343	1.7100e-01	13.6440	66.949437	0.000242	2.424287	0.821371	0.019359
 344	1.7150e-01	13.6873	67.312416	0.000909	9.091075	3.080140	0.072596
 345	1.7200e-01	13.7354	67.477773	0.000414	4.141490	1.403175	0.033071
 346	1.7250e-01	13.7595	67.808487	0.000828	8.282979	2.806349	0.066143
 347	1.7300e-01	13.8060	67.933513	0.000313	3.131370	1.060937	0.025005
 348	1.7350e-01	13.8590	68.090804	0.000394	3.939466	1.334727	0.031458
 349	1.7400e-01	13.8830	68.195664	0.000263	2.626311	0.889818	0.020972
 350	1.7450e-01	13.9263	68.473948	0.000697	6.969824	2.361440	0.055657
 351	1.7500e-01	13.9681	68.788530	0.000788	7.878932	2.669454	0.062916
 352	1.7550e-01	14.0082	69.050681	0.000657	6.565776	2.224545	0.052430
 353	1.7600e-01	14.0418	69.042615	-0.000020	-0.202024	-0.068448	-0.001613
 354	1.7650e-01	14.0964	69.324932	0.000707	7.070836	2.395664	0.056463
 355	1.7700e-01	14.1301	69.623381	0.000747	7.474884	2.532559	0.059690
 356	1.7750e-01	14.1638	69.728242	0.000263	2.626311	0.889818	0.020972
 357	1.7800e-01	14.2103	69.933930	0.000515	5.151609	1.745412	0.041138
 358	1.7850e-01	14.2488	70.163816	0.000576	5.757681	1.950755	0.045977
 359	1.7900e-01	14.2857	70.514696	0.000879	8.788039	2.977468	0.070176
 360	1.7950e-01	14.3274	70.865576	0.000879	8.788039	2.977468	0.070176
 361	1.8000e-01	14.3659	70.881708	0.000040	0.404048	0.136895	0.003226
 362	1.8050e-01	14.4076	71.155959	0.000687	6.868812	2.327217	0.054850
 363	1.8100e-01	14.4590	71.168058	0.000030	0.303036	0.102671	0.002420
 364	1.8150e-01	14.4926	71.325349	0.000394	3.939466	1.334727	0.031458
 365	1.8200e-01	14.5343	71.575401	0.000626	6.262741	2.121874	0.050010
 366	1.8250e-01	14.5648	71.845619	0.000677	6.767800	2.292993	0.054044
 367	1.8300e-01	14.6065	72.059373	0.000535	5.353633	1.813860	0.042751
 368	1.8350e-01	14.6482	72.382021	0.000808	8.080956	2.737902	0.064530
 369	1.8400e-01	14.6900	72.478815	0.000242	2.424287	0.821371	0.019359
 370	1.8450e-01	14.7333	72.595775	0.000293	2.929346	0.992489	0.023392
 371	1.8500e-01	14.7718	72.966820	0.000929	9.293099	3.148587	0.074209
 372	1.8550e-01	14.8167	72.934555	-0.000081	-0.808096	-0.273790	-0.006453
 373	1.8600e-01	14.8504	73.249137	0.000788	7.878932	2.669454	0.062916
 374	1.8650e-01	14.8937	73.531454	0.000707	7.070836	2.395664	0.056463
 375	1.8700e-01	14.9338	73.688745	0.000394	3.939466	1.334727	0.031458
 376	1.8750e-01	14.9707	73.962995	0.000687	6.868812	2.327217	0.054850
 377	1.8800e-01	15.0044	74.108187	0.000364	3.636430	1.232056	0.029038
 378	1.8850e-01	15.0445	74.378404	0.000677	6.767800	2.292993	0.054044
 379	1.8900e-01	15.0814	74.652655	0.000687	6.868812	2.327217	0.054850
 380	1.8950e-01	15.1311	74.749449	0.000242	2.424287	0.821371	0.019359
 381	1.9000e-01	15.1696	75.015634	0.000667	6.666788	2.258769	0.053237
 382	1.9050e-01	15.2097	75.281819	0.000667	6.666788	2.258769	0.053237
 383	1.9100e-01	15.2466	75.527838	0.000616	6.161729	2.087650	0.049204
 384	1.9150e-01	15.2883	75.463308	-0.000162	-1.616191	-0.547580	-0.012906
 385	1.9200e-01	15.3349	75.596400	0.000333	3.333394	1.129385	0.026618
 386	1.9250e-01	15.3637	75.785956	0.000475	4.747561	1.608517	0.037911
 387	1.9300e-01	15.4071	76.132802	0.000869	8.687027	2.943244	0.069369
 388	1.9350e-01	15.4439	76.403020	0.000677	6.767800	2.292993	0.054044
 389	1.9400e-01	15.4825	76.737767	0.000838	8.383991	2.840573	0.066949
 390	1.9450e-01	15.5258	76.850694	0.000283	2.828334	0.958266	0.022585
 391	1.9500e-01	15.5659	77.052349	0.000505	5.050597	1.711189	0.040331
 392	1.9550e-01	15.6092	77.177375	0.000313	3.131370	1.060937	0.025005
 393	1.9600e-01	15.6493	77.354831	0.000444	4.444526	1.505846	0.035491
 394	1.9650e-01	15.6926	77.612950	0.000646	6.464764	2.190321	0.051624
 395	1.9700e-01	15.7295	77.681512	0.000172	1.717203	0.581804	0.013713
 396	1.9750e-01	15.7664	78.000127	0.000798	7.979944	2.703678	0.063723
 397	1.9800e-01	15.8145	78.403437	0.001010	10.101194	3.422377	0.080662
 398	1.9850e-01	15.8514	78.512330	0.000273	2.727322	0.924042	0.021779
 399	1.9900e-01	15.8947	78.395371	-0.000293	-2.929346	-0.992489	-0.023392
 400	1.9950e-01	15.9381	78.907574	0.001283	12.828517	4.346419	0.102441
 401	2.0000e-01	15.9733	79.028567	0.000303	3.030358	1.026713	0.024199
 402	2.0050e-01	16.0070	79.383480	0.000889	8.889051	3.011692	0.070983
 403	2.0100e-01	16.0520	79.407678	0.000061	0.606072	0.205343	0.004840
 404	2.0150e-01	16.0889	79.375414	-0.000081	-0.808096	-0.273790	-0.006453
 405	2.0200e-01	16.1306	79.855352	0.001202	12.020421	4.072629	0.095988
 406	2.0250e-01	16.1739	80.178000	0.000808	8.080956	2.737902	0.064530
 407	2.0300e-01	16.2028	80.347390	0.000424	4.242502	1.437398	0.033878
 408	2.0350e-01	16.2525	80.424019	0.000192	1.919227	0.650252	0.015326
 409	2.0400e-01	16.2958	80.577277	0.000384	3.838454	1.300503	0.030652
 410	2.0450e-01	16.3263	80.766833	0.000475	4.747561	1.608517	0.037911
 411	2.0500e-01	16.3712	81.061249	0.000737	7.373872	2.498335	0.058883
 412	2.0550e-01	16.4129	81.190308	0.000323	3.232382	1.095161	0.025812
 413	2.0600e-01	16.4450	81.379864	0.000475	4.747561	1.608517	0.037911
 414	2.0650e-01	16.4819	81.577485	0.000495	4.949585	1.676965	0.039524
 415	2.0700e-01	16.5300	81.787207	0.000525	5.252621	1.779636	0.041944
 416	2.0750e-01	16.5669	81.988861	0.000505	5.050597	1.711189	0.040331
 417	2.0800e-01	16.6086	82.130020	0.000354	3.535418	1.197832	0.028232
 418	2.0850e-01	16.6584	82.448635	0.000798	7.979944	2.703678	0.063723
 419	2.0900e-01	16.6920	82.638190	0.000475	4.747561	1.608517	0.037911
 420	2.0950e-01	16.7225	82.964871	0.000818	8.181967	2.772126	0.065336
 421	2.1000e-01	16.7771	83.021335	0.000141	1.414167	0.479133	0.011293
 422	2.1050e-01	16.8140	83.247188	0.000566	5.656669	1.916531	0.045171
 423	2.1100e-01	16.8509	83.319784	0.000182	1.818215	0.616028	0.014519
 424	2.1150e-01	16.8990	83.533538	0.000535	5.353633	1.813860	0.042751
 425	2.1200e-01	16.9311	83.912650	0.000950	9.495123	3.217035	0.075822
 426	2.1250e-01	16.9712	83.969113	0.000141	1.414167	0.479133	0.011293
 427	2.1300e-01	17.0065	84.102205	0.000333	3.333394	1.129385	0.026618
 428	2.1350e-01	17.0466	84.344191	0.000606	6.060717	2.053426	0.048397
 429	2.1400e-01	17.0883	84.634574	0.000727	7.272860	2.464112	0.058077
 430	2.1450e-01	17.1268	84.856395	0.000556	5.555657	1.882308	0.044364
 431	2.1500e-01	17.1653	85.082248	0.000566	5.656669	1.916531	0.045171
 432	2.1550e-01	17.2166	85.175009	0.000232	2.323275	0.787147	0.018552
 433	2.1600e-01	17.2471	85.364565	0.000475	4.747561	1.608517	0.037911
 434	2.1650e-01	17.3000	85.590419	0.000566	5.656669	1.916531	0.045171
 435	2.1700e-01	17.3273	85.792073	0.000505	5.050597	1.711189	0.040331
 436	2.1750e-01	17.3770	86.151019	0.000899	8.990063	3.045916	0.071789
 437	2.1800e-01	17.3979	86.243781	0.000232	2.323275	0.787147	0.018552
 438	2.1850e-01	17.4508	86.251847	0.000020	0.202024	0.068448	0.001613
 439	2.1900e-01	17.5006	86.433336	0.000455	4.545537	1.540070	0.036298
 440	2.1950e-01	17.5391	86.735819	0.000758	7.575896	2.566783	0.060496
 441	2.2000e-01	17.5696	87.147195	0.001030	10.303218	3.490825	0.082275
 442	2.2050e-01	17.6097	87.385147	0.000596	5.959705	2.019203	0.047591
 443	2.2100e-01	17.6514	87.385147	0.000000	0.000000	0.000000	0.000000
 444	2.2150e-01	17.6963	87.405313	0.000051	0.505060	0.171119	0.004033
 445	2.2200e-01	17.7364	87.865086	0.001152	11.515362	3.901510	0.091955
 446	2.2250e-01	17.7637	88.010278	0.000364	3.636430	1.232056	0.029038
 447	2.2300e-01	17.8054	88.260330	0.000626	6.262741	2.121874	0.050010
 448	2.2350e-01	17.8503	88.421654	0.000404	4.040478	1.368951	0.032265
 449	2.2400e-01	17.8920	88.683805	0.000657	6.565776	2.224545	0.052430
 450	2.2450e-01	17.9369	88.784633	0.000253	2.525299	0.855594	0.020165
 451	2.2500e-01	17.9738	89.103247	0.000798	7.979944	2.703678	0.063723
 452	2.2550e-01	18.0155	89.393631	0.000727	7.272860	2.464112	0.058077
 453	2.2600e-01	18.0492	89.591252	0.000495	4.949585	1.676965	0.039524
 454	2.2650e-01	18.0877	89.772742	0.000455	4.545537	1.540070	0.036298
 455	2.2700e-01	18.1310	89.926000	0.000384	3.838454	1.300503	0.030652
 456	2.2750e-01	18.1695	90.204283	0.000697	6.969824	2.361440	0.055657
 457	2.2800e-01	18.2096	90.188151	-0.000040	-0.404048	-0.136895	-0.003226
 458	2.2850e-01	18.2481	90.454335	0.000667	6.666788	2.258769	0.053237
 459	2.2900e-01	18.2866	90.647924	0.000485	4.848573	1.642741	0.038718
 460	2.2950e-01	18.3332	90.809248	0.000404	4.040478	1.368951	0.032265
 461	2.3000e-01	18.3637	91.063333	0.000636	6.363752	2.156098	0.050817
 462	2.3050e-01	18.4102	91.091565	0.000071	0.707084	0.239566	0.005646
 463	2.3100e-01	18.4551	91.301286	0.000525	5.252621	1.779636	0.041944
 464	2.3150e-01	18.4840	91.603769	0.000758	7.575896	2.566783	0.060496
 465	2.3200e-01	18.5257	91.797357	0.000485	4.848573	1.642741	0.038718
 466	2.3250e-01	18.5706	91.910284	0.000283	2.828334	0.958266	0.022585
 467	2.3300e-01	18.6075	92.245031	0.000838	8.383991	2.840573	0.066949
 468	2.3350e-01	18.6476	92.555580	0.000778	7.777920	2.635231	0.062110
 469	2.3400e-01	18.6925	92.612043	0.000141	1.414167	0.479133	0.011293
 470	2.3450e-01	18.7278	92.854029	0.000606	6.060717	2.053426	0.048397
 471	2.3500e-01	18.7695	93.160545	0.000768	7.676908	2.601007	0.061303
 472	2.3550e-01	18.8080	93.358166	0.000495	4.949585	1.676965	0.039524
 473	2.3600e-01	18.8529	93.531590	0.000434	4.343514	1.471622	0.034685
 474	2.3650e-01	18.8995	93.535623	0.000010	0.101012	0.034224	0.000807
 475	2.3700e-01	18.9235	93.801807	0.000667	6.666788	2.258769	0.053237
 476	2.3750e-01	18.9717	93.971197	0.000424	4.242502	1.437398	0.033878
 477	2.3800e-01	19.0037	94.092190	0.000303	3.030358	1.026713	0.024199
 478	2.3850e-01	19.0535	94.451136	0.000899	8.990063	3.045916	0.071789
 479	2.3900e-01	19.1000	94.636659	0.000465	4.646549	1.574294	0.037105
 480	2.3950e-01	19.1337	94.757652	0.000303	3.030358	1.026713	0.024199
 481	2.4000e-01	19.1706	94.943174	0.000465	4.646549	1.574294	0.037105
 482	2.4050e-01	19.2123	95.277921	0.000838	8.383991	2.840573	0.066949
 483	2.4100e-01	19.2444	95.390848	0.000283	2.828334	0.958266	0.022585
 484	2.4150e-01	19.3005	95.483609	0.000232	2.323275	0.787147	0.018552
 485	2.4200e-01	19.3262	95.463444	-0.000051	-0.505060	-0.171119	-0.004033
 486	2.4250e-01	19.3759	96.072442	0.001525	15.252804	5.167790	0.121800
 487	2.4300e-01	19.4160	96.141004	0.000172	1.717203	0.581804	0.013713
 488	2.4350e-01	19.4593	96.431388	0.000727	7.272860	2.464112	0.058077
 489	2.4400e-01	19.4882	96.532215	0.000253	2.525299	0.855594	0.020165
 490	2.4450e-01	19.5363	96.600778	0.000172	1.717203	0.581804	0.013713
 491	2.4500e-01	19.5797	96.750002	0.000374	3.737442	1.266280	0.029845
 492	2.4550e-01	19.6117	96.987955	0.000596	5.959705	2.019203	0.047591
 493	2.4600e-01	19.6454	97.254140	0.000667	6.666788	2.258769	0.053237
 494	2.4650e-01	19.6823	97.467894	0.000535	5.353633	1.813860	0.042751
 495	2.4700e-01	19.7289	97.681648	0.000535	5.353633	1.813860	0.042751
 496	2.4750e-01	19.7706	97.754244	0.000182	1.818215	0.616028	0.014519
 497	2.4800e-01	19.8043	97.947833	0.000485	4.848573	1.642741	0.038718
 498	2.4850e-01	19.8572	98.097057	0.000374	3.737442	1.266280	0.029845
 499	2.4900e-01	19.8925	98.512466	0.001040	10.404230	3.525049	0.083082
 500	2.4950e-01	19.9342	98.613294	0.000253	2.525299	0.855594	0.020165
 501	2.5000e-01	19.9695	98.806883	0.000485	4.848573	1.642741	0.038718
 502	2.5050e-01	19.9807	98.875445	0.000172	1.717203	0.581804	0.013713
 503	2.5100e-01	19.9502	98.766552	0.000273	2.727322	0.924042	-0.021779
 504	2.5150e-01	19.9214	98.564897	0.000505	5.050597	1.711189	-0.040331
 505	2.5200e-01	19.8845	98.347109	0.000545	5.454645	1.848084	-0.043557
 506	2.5250e-01	19.8331	98.141421	0.000515	5.151609	1.745412	-0.041138
 507	2.5300e-01	19.7962	98.169653	-0.000071	-0.707084	-0.239566	0.005646
 508	2.5350e-01	19.7609	97.859104	0.000778	7.777920	2.635231	-0.062110
 509	2.5400e-01	19.7128	97.830873	0.000071	0.707084	0.239566	-0.005646
 510	2.5450e-01	19.6711	97.705847	0.000313	3.131370	1.060937	-0.025005
 511	2.5500e-01	19.6406	97.350934	0.000889	8.889051	3.011692	-0.070983
 512	2.5550e-01	19.6005	97.121047	0.000576	5.757681	1.950755	-0.045977
 513	2.5600e-01	19.5540	97.008121	0.000283	2.828334	0.958266	-0.022585
 514	2.5650e-01	19.5219	96.987955	0.000051	0.505060	0.171119	-0.004033
 515	2.5700e-01	19.4818	96.604811	0.000960	9.596135	3.251258	-0.076629
 516	2.5750e-01	19.4385	96.701605	-0.000242	-2.424287	-0.821371	0.019359
 517	2.5800e-01	19.3855	96.249898	0.001131	11.313338	3.833063	-0.090341
 518	2.5850e-01	19.3615	96.165203	0.000212	2.121251	0.718699	-0.016939
 519	2.5900e-01	19.3166	96.096640	0.000172	1.717203	0.581804	-0.013713
 520	2.5950e-01	19.2781	95.866754	0.000576	5.757681	1.950755	-0.045977
 521	2.6000e-01	19.2364	95.749794	0.000293	2.929346	0.992489	-0.023392
 522	2.6050e-01	19.1995	95.495709	0.000636	6.363752	2.156098	-0.050817
 523	2.6100e-01	19.1577	95.245657	0.000626	6.262741	2.121874	-0.050010
 524	2.6150e-01	19.1096	95.314219	-0.000172	-1.717203	-0.581804	0.013713
 525	2.6200e-01	19.0727	95.136763	0.000444	4.444526	1.505846	-0.035491
 526	2.6250e-01	19.0422	94.931075	0.000515	5.151609	1.745412	-0.041138
 527	2.6300e-01	18.9973	94.640692	0.000727	7.272860	2.464112	-0.058077
 528	2.6350e-01	18.9508	94.612460	0.000071	0.707084	0.239566	-0.005646
 529	2.6400e-01	18.9219	94.467269	0.000364	3.636430	1.232056	-0.029038
 530	2.6450e-01	18.8770	94.188985	0.000697	6.969824	2.361440	-0.055657
 531	2.6500e-01	18.8433	94.011528	0.000444	4.444526	1.505846	-0.035491
 532	2.6550e-01	18.7888	94.148654	-0.000343	-3.434406	-1.163608	0.027425
 533	2.6600e-01	18.7519	93.781642	0.000919	9.192087	3.114363	-0.073402
 534	2.6650e-01	18.7102	93.632417	0.000374	3.737442	1.266280	-0.029845
 535	2.6700e-01	18.6781	93.507391	0.000313	3.131370	1.060937	-0.025005
 536	2.6750e-01	18.6380	93.253306	0.000636	6.363752	2.156098	-0.050817
 537	2.6800e-01	18.5866	93.120214	0.000333	3.333394	1.129385	-0.026618
 538	2.6850e-01	18.5546	92.801599	0.000798	7.979944	2.703678	-0.063723
 539	2.6900e-01	18.5145	92.587845	0.000535	5.353633	1.813860	-0.042751
 540	2.6950e-01	18.4695	92.507183	0.000202	2.020239	0.684475	-0.016132
 541	2.7000e-01	18.4391	92.361991	0.000364	3.636430	1.232056	-0.029038
 542	2.7050e-01	18.4006	92.249064	0.000283	2.828334	0.958266	-0.022585
 543	2.7100e-01	18.3540	91.970781	0.000697	6.969824	2.361440	-0.055657
 544	2.7150e-01	18.3139	91.805423	0.000414	4.141490	1.403175	-0.033071
 545	2.7200e-01	18.2706	91.539239	0.000667	6.666788	2.258769	-0.053237
 546	2.7250e-01	18.2305	91.337584	0.000505	5.050597	1.711189	-0.040331
 547	2.7300e-01	18.2000	91.131896	0.000515	5.151609	1.745412	-0.041138
 548	2.7350e-01	18.1503	91.071400	0.000152	1.515179	0.513357	-0.012099
 549	2.7400e-01	18.1230	91.043168	0.000071	0.707084	0.239566	-0.005646
 550	2.7450e-01	18.0781	90.696321	0.000869	8.687027	2.943244	-0.069369
 551	2.7500e-01	18.0300	90.672123	0.000061	0.606072	0.205343	-0.004840
 552	2.7550e-01	17.9915	90.631792	0.000101	1.010119	0.342238	-0.008066
 553	2.7600e-01	17.9626	90.268813	0.000909	9.091075	3.080140	-0.072596
 554	2.7650e-01	17.9113	90.042959	0.000566	5.656669	1.916531	-0.045171
 555	2.7700e-01	17.8776	89.635616	0.001020	10.202206	3.456601	-0.081469
 556	2.7750e-01	17.8391	89.563021	0.000182	1.818215	0.616028	-0.014519
 557	2.7800e-01	17.7942	89.429928	0.000333	3.333394	1.129385	-0.026618
 558	2.7850e-01	17.7540	89.014519	0.001040	10.404230	3.525049	-0.083082
 559	2.7900e-01	17.7188	88.962089	0.000131	1.313155	0.444909	-0.010486
 560	2.7950e-01	17.6738	88.699938	0.000657	6.565776	2.224545	-0.052430
 561	2.8000e-01	17.6241	88.853195	-0.000384	-3.838454	-1.300503	0.030652
 562	2.8050e-01	17.5984	88.764467	0.000222	2.222263	0.752923	-0.017746
 563	2.8100e-01	17.5551	88.353091	0.001030	10.303218	3.490825	-0.082275
 564	2.8150e-01	17.5102	87.982046	0.000929	9.293099	3.148587	-0.074209
 565	2.8200e-01	17.4653	87.941715	0.000101	1.010119	0.342238	-0.008066
 566	2.8250e-01	17.4332	87.731994	0.000525	5.252621	1.779636	-0.041944
 567	2.8300e-01	17.3931	87.433545	0.000747	7.474884	2.532559	-0.059690
 568	2.8350e-01	17.3578	87.292386	0.000354	3.535418	1.197832	-0.028232
 569	2.8400e-01	17.3145	87.219790	0.000182	1.818215	0.616028	-0.014519
 570	2.8450e-01	17.2840	87.030235	0.000475	4.747561	1.608517	-0.037911
 571	2.8500e-01	17.2407	86.824547	0.000515	5.151609	1.745412	-0.041138
 572	2.8550e-01	17.1990	86.687421	0.000343	3.434406	1.163608	-0.027425
 573	2.8600e-01	17.1525	86.522064	0.000414	4.141490	1.403175	-0.033071
 574	2.8650e-01	17.1252	86.425270	0.000242	2.424287	0.821371	-0.019359
 575	2.8700e-01	17.0722	86.251847	0.000434	4.343514	1.471622	-0.034685
 576	2.8750e-01	17.0434	86.122788	0.000323	3.232382	1.095161	-0.025812
 577	2.8800e-01	17.0001	85.888868	0.000586	5.858693	1.984979	-0.046784
 578	2.8850e-01	16.9583	85.755776	0.000333	3.333394	1.129385	-0.026618
 579	2.8900e-01	16.9134	85.408929	0.000869	8.687027	2.943244	-0.069369
 580	2.8950e-01	16.8765	85.166943	0.000606	6.060717	2.053426	-0.048397
 581	2.9000e-01	16.8428	85.029818	0.000343	3.434406	1.163608	-0.027425
 582	2.9050e-01	16.7931	84.783799	0.000616	6.161729	2.087650	-0.049204
 583	2.9100e-01	16.7482	84.719269	0.000162	1.616191	0.547580	-0.012906
 584	2.9150e-01	16.7209	84.703137	0.000040	0.404048	0.136895	-0.003226
 585	2.9200e-01	16.6696	84.424853	0.000697	6.969824	2.361440	-0.055657
 586	2.9250e-01	16.6391	84.182867	0.000606	6.060717	2.053426	-0.048397
 587	2.9300e-01	16.5926	84.021543	0.000404	4.040478	1.368951	-0.032265
 588	2.9350e-01	16.5653	83.811822	0.000525	5.252621	1.779636	-0.041944
 589	2.9400e-01	16.5124	83.545638	0.000667	6.666788	2.258769	-0.053237
 590	2.9450e-01	16.4771	83.335916	0.000525	5.252621	1.779636	-0.041944
 591	2.9500e-01	16.4418	83.162493	0.000434	4.343514	1.471622	-0.034685
 592	2.9550e-01	16.3969	83.013269	0.000374	3.737442	1.266280	-0.029845
 593	2.9600e-01	16.3568	82.835812	0.000444	4.444526	1.505846	-0.035491
 594	2.9650e-01	16.3167	82.803547	0.000081	0.808096	0.273790	-0.006453
 595	2.9700e-01	16.2765	82.384105	0.001051	10.505242	3.559272	-0.083888
 596	2.9750e-01	16.2348	82.182450	0.000505	5.050597	1.711189	-0.040331
 597	2.9800e-01	16.1979	81.912233	0.000677	6.767800	2.292993	-0.054044
 598	2.9850e-01	16.1578	81.666214	0.000616	6.161729	2.087650	-0.049204
 599	2.9900e-01	16.1081	81.799306	-0.000333	-3.333394	-1.129385	0.026618
 600	2.9950e-01	16.0824	81.577485	0.000556	5.555657	1.882308	-0.044364
 601	3.0000e-01	16.0375	81.266937	0.000778	7.777920	2.635231	-0.062110
 602	3.0050e-01	15.9942	81.194341	0.000182	1.818215	0.616028	-0.014519
 603	3.0100e-01	15.9525	80.895892	0.000747	7.474884	2.532559	-0.059690
 604	3.0150e-01	15.9236	80.661972	0.000586	5.858693	1.984979	-0.046784
 605	3.0200e-01	15.8787	80.633740	0.000071	0.707084	0.239566	-0.005646
 606	3.0250e-01	15.8322	80.476450	0.000394	3.939466	1.334727	-0.031458
 607	3.0300e-01	15.7921	80.214298	0.000657	6.565776	2.224545	-0.052430
 608	3.0350e-01	15.7552	80.020709	0.000485	4.848573	1.642741	-0.038718
 609	3.0400e-01	15.7151	79.786790	0.000586	5.858693	1.984979	-0.046784
 610	3.0450e-01	15.6766	79.633532	0.000384	3.838454	1.300503	-0.030652
 611	3.0500e-01	15.6413	79.516572	0.000293	2.929346	0.992489	-0.023392
 612	3.0550e-01	15.6156	79.206023	0.000778	7.777920	2.635231	-0.062110
 613	3.0600e-01	15.5546	79.060832	0.000364	3.636430	1.232056	-0.029038
 614	3.0650e-01	15.5049	79.052766	0.000020	0.202024	0.068448	-0.001613
 615	3.0700e-01	15.4696	78.705919	0.000869	8.687027	2.943244	-0.069369
 616	3.0750e-01	15.4359	78.306642	0.001000	10.000182	3.388154	-0.079855
 617	3.0800e-01	15.3990	78.016259	0.000727	7.272860	2.464112	-0.058077
 618	3.0850e-01	15.3605	78.012226	0.000010	0.101012	0.034224	-0.000807
 619	3.0900e-01	15.3140	78.008193	0.000010	0.101012	0.034224	-0.000807
 620	3.0950e-01	15.2707	77.863002	0.000364	3.636430	1.232056	-0.029038
 621	3.1000e-01	15.2402	77.528254	0.000838	8.383991	2.840573	-0.066949
 622	3.1050e-01	15.1937	77.314500	0.000535	5.353633	1.813860	-0.042751
 623	3.1100e-01	15.1536	77.374997	-0.000152	-1.515179	-0.513357	0.012099
 624	3.1150e-01	15.1135	77.185441	0.000475	4.747561	1.608517	-0.037911
 625	3.1200e-01	15.0782	76.782131	0.001010	10.101194	3.422377	-0.080662
 626	3.1250e-01	15.0429	76.669204	0.000283	2.828334	0.958266	-0.022585
 627	3.1300e-01	14.9964	76.443351	0.000566	5.656669	1.916531	-0.045171
 628	3.1350e-01	14.9547	76.084405	0.000899	8.990063	3.045916	-0.071789
 629	3.1400e-01	14.9097	76.023909	0.000152	1.515179	0.513357	-0.012099
 630	3.1450e-01	14.8873	75.810154	0.000535	5.353633	1.813860	-0.042751
 631	3.1500e-01	14.8295	75.769823	0.000101	1.010119	0.342238	-0.008066
 632	3.1550e-01	14.7942	75.632698	0.000343	3.434406	1.163608	-0.027425
 633	3.1600e-01	14.7445	75.338282	0.000737	7.373872	2.498335	-0.058883
 634	3.1650e-01	14.7188	75.370547	-0.000081	-0.808096	-0.273790	0.006453
 635	3.1700e-01	14.6739	74.918840	0.001131	11.313338	3.833063	-0.090341
 636	3.1750e-01	14.6322	74.576026	0.000859	8.586015	2.909021	-0.068563
 637	3.1800e-01	14.5873	74.531662	0.000111	1.111131	0.376462	-0.008873
 638	3.1850e-01	14.5648	74.354206	0.000444	4.444526	1.505846	-0.035491
 639	3.1900e-01	14.5151	74.325974	0.000071	0.707084	0.239566	-0.005646
 640	3.1950e-01	14.4734	74.039624	0.000717	7.171848	2.429888	-0.057270
 641	3.2000e-01	14.4285	73.745208	0.000737	7.373872	2.498335	-0.058883
 642	3.2050e-01	14.3980	73.523388	0.000556	5.555657	1.882308	-0.044364
 643	3.2100e-01	14.3563	73.454825	0.000172	1.717203	0.581804	-0.013713
 644	3.2150e-01	14.3162	73.309633	0.000364	3.636430	1.232056	-0.029038
 645	3.2200e-01	14.2761	73.055548	0.000636	6.363752	2.156098	-0.050817
 646	3.2250e-01	14.2392	72.954721	0.000253	2.525299	0.855594	-0.020165
 647	3.2300e-01	14.2007	72.640139	0.000788	7.878932	2.669454	-0.062916
 648	3.2350e-01	14.1509	72.353789	0.000717	7.171848	2.429888	-0.057270
 649	3.2400e-01	14.1124	72.248928	0.000263	2.626311	0.889818	-0.020972
 650	3.2450e-01	14.0787	72.095671	0.000384	3.838454	1.300503	-0.030652
 651	3.2500e-01	14.0322	71.785122	0.000778	7.777920	2.635231	-0.062110
 652	3.2550e-01	14.0033	71.595566	0.000475	4.747561	1.608517	-0.037911
 653	3.2600e-01	13.9488	71.406011	0.000475	4.747561	1.608517	-0.037911
 654	3.2650e-01	13.9119	71.147892	0.000646	6.464764	2.190321	-0.051624
 655	3.2700e-01	13.8654	71.115628	0.000081	0.808096	0.273790	-0.006453
 656	3.2750e-01	13.8349	70.958337	0.000394	3.939466	1.334727	-0.031458
 657	3.2800e-01	13.7948	70.611490	0.000869	8.687027	2.943244	-0.069369
 658	3.2850e-01	13.7483	70.397736	0.000535	5.353633	1.813860	-0.042751
 659	3.2900e-01	13.7178	70.188015	0.000525	5.252621	1.779636	-0.041944
 660	3.2950e-01	13.6793	70.111386	0.000192	1.919227	0.650252	-0.015326
 661	3.3000e-01	13.6312	69.869400	0.000606	6.060717	2.053426	-0.048397
 662	3.3050e-01	13.5975	69.679845	0.000475	4.747561	1.608517	-0.037911
 663	3.3100e-01	13.5574	69.462057	0.000545	5.454645	1.848084	-0.043557
 664	3.3150e-01	13.5221	69.296700	0.000414	4.141490	1.403175	-0.033071
 665	3.3200e-01	13.4772	69.296700	-0.000000	-0.000000	-0.000000	0.000000
 666	3.3250e-01	13.4354	68.990185	0.000768	7.676908	2.601007	-0.061303
 667	3.3300e-01	13.3921	68.558643	0.001081	10.808278	3.661944	-0.086308
 668	3.3350e-01	13.3584	68.453783	0.000263	2.626311	0.889818	-0.020972
 669	3.3400e-01	13.3071	68.256161	0.000495	4.949585	1.676965	-0.039524
 670	3.3450e-01	13.2766	68.308591	-0.000131	-1.313155	-0.444909	0.010486
 671	3.3500e-01	13.2365	67.925447	0.000960	9.596135	3.251258	-0.076629
 672	3.3550e-01	13.1868	67.683461	0.000606	6.060717	2.053426	-0.048397
 673	3.3600e-01	13.1515	67.659262	0.000061	0.606072	0.205343	-0.004840
 674	3.3650e-01	13.1194	67.328548	0.000828	8.282979	2.806349	-0.066143
 675	3.3700e-01	13.0841	67.017999	0.000778	7.777920	2.635231	-0.062110
 676	3.3750e-01	13.0424	66.876841	0.000354	3.535418	1.197832	-0.028232
 677	3.3800e-01	12.9959	66.735683	0.000354	3.535418	1.197832	-0.028232
 678	3.3850e-01	12.9574	66.445299	0.000727	7.272860	2.464112	-0.058077
 679	3.3900e-01	12.9093	66.005692	0.001101	11.010302	3.730391	-0.087922
 680	3.3950e-01	12.8708	65.945195	0.000152	1.515179	0.513357	-0.012099
 681	3.4000e-01	12.8403	65.900831	0.000111	1.111131	0.376462	-0.008873
 682	3.4050e-01	12.7970	65.795971	0.000263	2.626311	0.889818	-0.020972
 683	3.4100e-01	12.7649	65.481389	0.000788	7.878932	2.669454	-0.062916
 684	3.4150e-01	12.7168	65.215204	0.000667	6.666788	2.258769	-0.053237
 685	3.4200e-01	12.6718	65.178907	0.000091	0.909107	0.308014	-0.007260
 686	3.4250e-01	12.6446	64.981285	0.000495	4.949585	1.676965	-0.039524
 687	3.4300e-01	12.5948	64.763497	0.000545	5.454645	1.848084	-0.043557
 688	3.4350e-01	12.5563	64.416651	0.000869	8.687027	2.943244	-0.069369
 689	3.4400e-01	12.5226	64.295658	0.000303	3.030358	1.026713	-0.024199
 690	3.4450e-01	12.4825	64.085937	0.000525	5.252621	1.779636	-0.041944
 691	3.4500e-01	12.4376	63.811686	0.000687	6.868812	2.327217	-0.054850
 692	3.4550e-01	12.4007	63.803620	0.000020	0.202024	0.068448	-0.001613
 693	3.4600e-01	12.3654	63.541468	0.000657	6.565776	2.224545	-0.052430
 694	3.4650e-01	12.3173	63.279317	0.000657	6.565776	2.224545	-0.052430
 695	3.4700e-01	12.2820	63.174457	0.000263	2.626311	0.889818	-0.020972
 696	3.4750e-01	12.2483	62.972802	0.000505	5.050597	1.711189	-0.040331
 697	3.4800e-01	12.2034	62.795345	0.000444	4.444526	1.505846	-0.035491
 698	3.4850e-01	12.1569	62.609823	0.000465	4.646549	1.574294	-0.037105
 699	3.4900e-01	12.1312	62.424300	0.000465	4.646549	1.574294	-0.037105
 700	3.4950e-01	12.0767	62.174248	0.000626	6.262741	2.121874	-0.050010
 701	3.5000e-01	12.0414	62.146016	0.000071	0.707084	0.239566	-0.005646
 702	3.5050e-01	11.9948	61.871766	0.000687	6.868812	2.327217	-0.054850
 703	3.5100e-01	11.9612	61.557184	0.000788	7.878932	2.669454	-0.062916
 704	3.5150e-01	11.9243	61.383761	0.000434	4.343514	1.471622	-0.034685
 705	3.5200e-01	11.8777	61.125642	0.000646	6.464764	2.190321	-0.051624
 706	3.5250e-01	11.8392	60.988517	0.000343	3.434406	1.163608	-0.027425
 707	3.5300e-01	11.7975	60.613439	0.000939	9.394111	3.182811	-0.075016
 708	3.5350e-01	11.7622	60.335155	0.000697	6.969824	2.361440	-0.055657
 709	3.5400e-01	11.7205	60.375486	-0.000101	-1.010119	-0.342238	0.008066
 710	3.5450e-01	11.6644	60.250460	0.000313	3.131370	1.060937	-0.025005
 711	3.5500e-01	11.6307	60.000408	0.000626	6.262741	2.121874	-0.050010
 712	3.5550e-01	11.5906	60.008474	-0.000020	-0.202024	-0.068448	0.001613
 713	3.5600e-01	11.5617	59.580966	0.001071	10.707266	3.627720	-0.085502
 714	3.5650e-01	11.5232	59.230086	0.000879	8.788039	2.977468	-0.070176
 715	3.5700e-01	11.4847	59.084895	0.000364	3.636430	1.232056	-0.029038
 716	3.5750e-01	11.4350	58.915504	0.000424	4.242502	1.437398	-0.033878
 717	3.5800e-01	11.3917	58.649320	0.000667	6.666788	2.258769	-0.053237
 718	3.5850e-01	11.3516	58.770313	-0.000303	-3.030358	-1.026713	0.024199
 719	3.5900e-01	11.3195	58.141149	0.001576	15.757863	5.338909	-0.125833
 720	3.5950e-01	11.2745	58.024190	0.000293	2.929346	0.992489	-0.023392
 721	3.6000e-01	11.2296	57.995958	0.000071	0.707084	0.239566	-0.005646
 722	3.6050e-01	11.1975	57.770104	0.000566	5.656669	1.916531	-0.045171
 723	3.6100e-01	11.1623	57.524085	0.000616	6.161729	2.087650	-0.049204
 724	3.6150e-01	11.1189	57.435357	0.000222	2.222263	0.752923	-0.017746
 725	3.6200e-01	11.0772	57.060279	0.000939	9.394111	3.182811	-0.075016
 726	3.6250e-01	11.0355	56.798128	0.000657	6.565776	2.224545	-0.052430
 727	3.6300e-01	10.9922	56.644870	0.000384	3.838454	1.300503	-0.030652
 728	3.6350e-01	10.9521	56.568241	0.000192	1.919227	0.650252	-0.015326
 729	3.6400e-01	10.9232	56.193163	0.000939	9.394111	3.182811	-0.075016
 730	3.6450e-01	10.8735	56.068137	0.000313	3.131370	1.060937	-0.025005
 731	3.6500e-01	10.8430	55.959243	0.000273	2.727322	0.924042	-0.021779
 732	3.6550e-01	10.7997	55.620463	0.000849	8.485003	2.874797	-0.067756
 733	3.6600e-01	10.7644	55.116325	0.001263	12.626493	4.277972	-0.100827
 734	3.6650e-01	10.7147	55.233285	-0.000293	-2.929346	-0.992489	0.023392
 735	3.6700e-01	10.6810	55.035664	0.000495	4.949585	1.676965	-0.039524
 736	3.6750e-01	10.6361	54.967101	0.000172	1.717203	0.581804	-0.013713
 737	3.6800e-01	10.5927	54.821909	0.000364	3.636430	1.232056	-0.029038
 738	3.6850e-01	10.5591	54.422633	0.001000	10.000182	3.388154	-0.079855
 739	3.6900e-01	10.5141	54.329871	0.000232	2.323275	0.787147	-0.018552
 740	3.6950e-01	10.4740	54.148382	0.000455	4.545537	1.540070	-0.036298
 741	3.7000e-01	10.4420	53.974959	0.000434	4.343514	1.471622	-0.034685
 742	3.7050e-01	10.3922	53.591814	0.000960	9.596135	3.251258	-0.076629
 743	3.7100e-01	10.3553	53.470821	0.000303	3.030358	1.026713	-0.024199
 744	3.7150e-01	10.3152	53.079611	0.000980	9.798159	3.319706	-0.078242
 745	3.7200e-01	10.2751	52.958618	0.000303	3.030358	1.026713	-0.024199
 746	3.7250e-01	10.2366	52.514977	0.001111	11.111314	3.764615	-0.088728
 747	3.7300e-01	10.1885	52.450447	0.000162	1.616191	0.547580	-0.012906
 748	3.7350e-01	10.1596	52.527076	-0.000192	-1.919227	-0.650252	0.015326
 749	3.7400e-01	10.1227	52.333487	0.000485	4.848573	1.642741	-0.038718
 750	3.7450e-01	10.0794	51.934211	0.001000	10.000182	3.388154	-0.079855
 751	3.7500e-01	10.0297	51.833383	0.000253	2.525299	0.855594	-0.020165
 752	3.7550e-01	9.9960	51.470404	0.000909	9.091075	3.080140	-0.072596
 753	3.7600e-01	9.9511	51.163889	0.000768	7.676908	2.601007	-0.061303
 754	3.7650e-01	9.9077	50.986433	0.000444	4.444526	1.505846	-0.035491
 755	3.7700e-01	9.8741	50.917870	0.000172	1.717203	0.581804	-0.013713
 756	3.7750e-01	9.8404	50.663785	0.000636	6.363752	2.156098	-0.050817
 757	3.7800e-01	9.8067	50.337104	0.000818	8.181967	2.772126	-0.065336
 758	3.7850e-01	9.7618	50.264508	0.000182	1.818215	0.616028	-0.014519
 759	3.7900e-01	9.7136	49.921694	0.000859	8.586015	2.909021	-0.068563
 760	3.7950e-01	9.6767	49.574848	0.000869	8.687027	2.943244	-0.069369
 761	3.8000e-01	9.6382	49.534517	0.000101	1.010119	0.342238	-0.008066
 762	3.8050e-01	9.5949	49.469987	0.000162	1.616191	0.547580	-0.012906
 763	3.8100e-01	9.5548	49.211869	0.000646	6.464764	2.190321	-0.051624
 764	3.8150e-01	9.5163	49.062644	0.000374	3.737442	1.266280	-0.029845
 765	3.8200e-01	9.4842	48.780328	0.000707	7.070836	2.395664	-0.056463
 766	3.8250e-01	9.4313	48.687566	0.000232	2.323275	0.787147	-0.018552
 767	3.8300e-01	9.3944	48.381051	0.000768	7.676908	2.601007	-0.061303
 768	3.8350e-01	9.3591	48.034204	0.000869	8.687027	2.943244	-0.069369
 769	3.8400e-01	9.3206	47.788185	0.000616	6.161729	2.087650	-0.049204
 770	3.8450e-01	9.2741	47.937410	-0.000374	-3.737442	-1.266280	0.029845
 771	3.8500e-01	9.2404	47.522001	0.001040	10.404230	3.525049	-0.083082
 772	3.8550e-01	9.1987	47.179187	0.000859	8.586015	2.909021	-0.068563
 773	3.8600e-01	9.1457	46.969466	0.000525	5.252621	1.779636	-0.041944
 774	3.8650e-01	9.1169	46.662951	0.000768	7.676908	2.601007	-0.061303
 775	3.8700e-01	9.0687	46.412899	0.000626	6.262741	2.121874	-0.050010
 776	3.8750e-01	9.0334	46.380634	0.000081	0.808096	0.273790	-0.006453
 777	3.8800e-01	8.9885	46.316104	0.000162	1.616191	0.547580	-0.012906
 778	3.8850e-01	8.9580	46.021688	0.000737	7.373872	2.498335	-0.058883
 779	3.8900e-01	8.9147	45.678875	0.000859	8.586015	2.909021	-0.068563
 780	3.8950e-01	8.8810	45.505452	0.000434	4.343514	1.471622	-0.034685
 781	3.9000e-01	8.8313	45.553849	-0.000121	-1.212143	-0.410685	0.009679
 782	3.9050e-01	8.8024	45.182804	0.000929	9.293099	3.148587	-0.074209
 783	3.9100e-01	8.7511	45.118274	0.000162	1.616191	0.547580	-0.012906
 784	3.9150e-01	8.7190	44.868222	0.000626	6.262741	2.121874	-0.050010
 785	3.9200e-01	8.6709	44.481044	0.000970	9.697147	3.285482	-0.077435
 786	3.9250e-01	8.6372	44.202761	0.000697	6.969824	2.361440	-0.055657
 787	3.9300e-01	8.5939	44.105966	0.000242	2.424287	0.821371	-0.019359
 788	3.9350e-01	8.5602	43.868013	0.000596	5.959705	2.019203	-0.047591
 789	3.9400e-01	8.5153	43.501002	0.000919	9.192087	3.114363	-0.073402
 790	3.9450e-01	8.4736	43.456637	0.000111	1.111131	0.376462	-0.008873
 791	3.9500e-01	8.4399	43.299347	0.000394	3.939466	1.334727	-0.031458
 792	3.9550e-01	8.3966	43.194486	0.000263	2.626311	0.889818	-0.020972
 793	3.9600e-01	8.3597	42.920235	0.000687	6.868812	2.327217	-0.054850
 794	3.9650e-01	8.3131	42.565323	0.000889	8.889051	3.011692	-0.070983
 795	3.9700e-01	8.2778	42.283006	0.000707	7.070836	2.395664	-0.056463
 796	3.9750e-01	8.2345	42.210410	0.000182	1.818215	0.616028	-0.014519
 797	3.9800e-01	8.2040	42.097483	0.000283	2.828334	0.958266	-0.022585
 798	3.9850e-01	8.1623	41.770802	0.000818	8.181967	2.772126	-0.065336
 799	3.9900e-01	8.1158	41.581247	0.000475	4.747561	1.608517	-0.037911
 800	3.9950e-01	8.0709	41.181970	0.001000	10.000182	3.388154	-0.079855
 801	4.0000e-01	8.0356	41.000480	0.000455	4.545537	1.540070	-0.036298
 802	4.0050e-01	7.9923	40.855289	0.000364	3.636430	1.232056	-0.029038
 803	4.0100e-01	7.9554	40.818991	0.000091	0.909107	0.308014	-0.007260
 804	4.0150e-01	7.9089	40.621369	0.000495	4.949585	1.676965	-0.039524
 805	4.0200e-01	7.8704	40.371317	0.000626	6.262741	2.121874	-0.050010
 806	4.0250e-01	7.8367	40.145463	0.000566	5.656669	1.916531	-0.045171
 807	4.0300e-01	7.7982	39.955908	0.000475	4.747561	1.608517	-0.037911
 808	4.0350e-01	7.7517	39.653425	0.000758	7.575896	2.566783	-0.060496
 809	4.0400e-01	7.7164	39.229950	0.001061	10.606254	3.593496	-0.084695
 810	4.0450e-01	7.6714	39.238016	-0.000020	-0.202024	-0.068448	0.001613
 811	4.0500e-01	7.6394	39.012163	0.000566	5.656669	1.916531	-0.045171
 812	4.0550e-01	7.5960	38.697581	0.000788	7.878932	2.669454	-0.062916
 813	4.0600e-01	7.5559	38.677416	0.000051	0.505060	0.171119	-0.004033
 814	4.0650e-01	7.5206	38.342668	0.000838	8.383991	2.840573	-0.066949
 815	4.0700e-01	7.4709	38.088583	0.000636	6.363752	2.156098	-0.050817
 816	4.0750e-01	7.4372	38.145047	-0.000141	-1.414167	-0.479133	0.011293
 817	4.0800e-01	7.3971	37.798200	0.000869	8.687027	2.943244	-0.069369
 818	4.0850e-01	7.3618	37.471519	0.000818	8.181967	2.772126	-0.065336
 819	4.0900e-01	7.3217	37.241632	0.000576	5.757681	1.950755	-0.045977
 820	4.0950e-01	7.2688	37.128706	0.000283	2.828334	0.958266	-0.022585
 821	4.1000e-01	7.2303	36.846389	0.000707	7.070836	2.395664	-0.056463
 822	4.1050e-01	7.1998	36.672966	0.000434	4.343514	1.471622	-0.034685
 823	4.1100e-01	7.1581	36.523741	0.000374	3.737442	1.266280	-0.029845
 824	4.1150e-01	7.1164	36.201093	0.000808	8.080956	2.737902	-0.064530
 825	4.1200e-01	7.0650	35.830048	0.000929	9.293099	3.148587	-0.074209
 826	4.1250e-01	7.0362	35.628393	0.000505	5.050597	1.711189	-0.040331
 827	4.1300e-01	6.9945	35.584029	0.000111	1.111131	0.376462	-0.008873
 828	4.1350e-01	6.9543	35.422705	0.000404	4.040478	1.368951	-0.032265
 829	4.1400e-01	6.9078	35.011329	0.001030	10.303218	3.490825	-0.082275
 830	4.1450e-01	6.8790	34.745144	0.000667	6.666788	2.258769	-0.053237
 831	4.1500e-01	6.8340	34.511225	0.000586	5.858693	1.984979	-0.046784
 832	4.1550e-01	6.8019	34.281338	0.000576	5.757681	1.950755	-0.045977
 833	4.1600e-01	6.7570	34.115981	0.000414	4.141490	1.403175	-0.033071
 834	4.1650e-01	6.7265	34.140180	-0.000061	-0.606072	-0.205343	0.004840
 835	4.1700e-01	6.6768	33.724771	0.001040	10.404230	3.525049	-0.083082
 836	4.1750e-01	6.6287	33.369858	0.000889	8.889051	3.011692	-0.070983
 837	4.1800e-01	6.5966	33.168203	0.000505	5.050597	1.711189	-0.040331
 838	4.1850e-01	6.5501	33.160137	0.000020	0.202024	0.068448	-0.001613
 839	4.1900e-01	6.5084	32.990747	0.000424	4.242502	1.437398	-0.033878
 840	4.1950e-01	6.4763	32.466444	0.001313	13.131553	4.449090	-0.104861
 841	4.2000e-01	6.4282	32.434179	0.000081	0.808096	0.273790	-0.006453
 842	4.2050e-01	6.4009	32.280921	0.000384	3.838454	1.300503	-0.030652
 843	4.2100e-01	6.3496	32.071200	0.000525	5.252621	1.779636	-0.041944
 844	4.2150e-01	6.3094	31.744519	0.000818	8.181967	2.772126	-0.065336
 845	4.2200e-01	6.2854	31.514632	0.000576	5.757681	1.950755	-0.045977
 846	4.2250e-01	6.2373	31.417838	0.000242	2.424287	0.821371	-0.019359
 847	4.2300e-01	6.2004	31.123422	0.000737	7.373872	2.498335	-0.058883
 848	4.2350e-01	6.1603	30.857237	0.000667	6.666788	2.258769	-0.053237
 849	4.2400e-01	6.1201	30.546689	0.000778	7.777920	2.635231	-0.062110
 850	4.2450e-01	6.0865	30.470060	0.000192	1.919227	0.650252	-0.015326
 851	4.2500e-01	6.0415	30.199842	0.000677	6.767800	2.292993	-0.054044
 852	4.2550e-01	5.9966	30.058684	0.000354	3.535418	1.197832	-0.028232
 853	4.2600e-01	5.9613	29.844930	0.000535	5.353633	1.813860	-0.042751
 854	4.2650e-01	5.9116	29.651341	0.000485	4.848573	1.642741	-0.038718
 855	4.2700e-01	5.8827	29.433554	0.000545	5.454645	1.848084	-0.043557
 856	4.2750e-01	5.8330	29.235932	0.000495	4.949585	1.676965	-0.039524
 857	4.2800e-01	5.7929	29.086707	0.000374	3.737442	1.266280	-0.029845
 858	4.2850e-01	5.7608	28.816490	0.000677	6.767800	2.292993	-0.054044
 859	4.2900e-01	5.7191	28.554338	0.000657	6.565776	2.224545	-0.052430
 860	4.2950e-01	5.6742	28.267988	0.000717	7.171848	2.429888	-0.057270
 861	4.3000e-01	5.6341	28.134896	0.000333	3.333394	1.129385	-0.026618
 862	4.3050e-01	5.6004	27.707387	0.001071	10.707266	3.627720	-0.085502
 863	4.3100e-01	5.5474	27.638825	0.000172	1.717203	0.581804	-0.013713
 864	4.3150e-01	5.5105	27.465401	0.000434	4.343514	1.471622	-0.034685
 865	4.3200e-01	5.4769	27.425070	0.000101	1.010119	0.342238	-0.008066
 866	4.3250e-01	5.4464	26.989496	0.001091	10.909290	3.696167	-0.087115
 867	4.3300e-01	5.3918	26.864470	0.000313	3.131370	1.060937	-0.025005
 868	4.3350e-01	5.3533	26.594252	0.000677	6.767800	2.292993	-0.054044
 869	4.3400e-01	5.3196	26.251439	0.000859	8.586015	2.909021	-0.068563
 870	4.3450e-01	5.2763	26.170777	0.000202	2.020239	0.684475	-0.016132
 871	4.3500e-01	5.2330	26.013486	0.000394	3.939466	1.334727	-0.031458
 872	4.3550e-01	5.1993	25.577911	0.001091	10.909290	3.696167	-0.087115
 873	4.3600e-01	5.1624	25.404488	0.000434	4.343514	1.471622	-0.034685
 874	4.3650e-01	5.1111	25.178635	0.000566	5.656669	1.916531	-0.045171
 875	4.3700e-01	5.0774	24.928582	0.000626	6.262741	2.121874	-0.050010
 876	4.3750e-01	5.0437	24.743060	0.000465	4.646549	1.574294	-0.037105
 877	4.3800e-01	4.9924	24.505107	0.000596	5.959705	2.019203	-0.047591
 878	4.3850e-01	4.9683	24.287320	0.000545	5.454645	1.848084	-0.043557
 879	4.3900e-01	4.9186	23.896109	0.000980	9.798159	3.319706	-0.078242
 880	4.3950e-01	4.8785	23.698487	0.000495	4.949585	1.676965	-0.039524
 881	4.4000e-01	4.8287	23.516998	0.000455	4.545537	1.540070	-0.036298
 882	4.4050e-01	4.7902	23.371806	0.000364	3.636430	1.232056	-0.029038
 883	4.4100e-01	4.7549	23.178218	0.000485	4.848573	1.642741	-0.038718
 884	4.4150e-01	4.7148	22.912033	0.000667	6.666788	2.258769	-0.053237
 885	4.4200e-01	4.6763	22.746676	0.000414	4.141490	1.403175	-0.033071
 886	4.4250e-01	4.6362	22.472425	0.000687	6.868812	2.327217	-0.054850
 887	4.4300e-01	4.6009	22.020718	0.001131	11.313338	3.833063	-0.090341
 888	4.4350e-01	4.5689	21.984420	0.000091	0.909107	0.308014	-0.007260
 889	4.4400e-01	4.5207	21.827130	0.000394	3.939466	1.334727	-0.031458
 890	4.4450e-01	4.4838	21.407687	0.001051	10.505242	3.559272	-0.083888
 891	4.4500e-01	4.4389	21.371389	0.000091	0.909107	0.308014	-0.007260
 892	4.4550e-01	4.4036	21.064874	0.000768	7.676908	2.601007	-0.061303
 893	4.4600e-01	4.3555	20.879351	0.000465	4.646549	1.574294	-0.037105
 894	4.4650e-01	4.3154	20.508306	0.000929	9.293099	3.148587	-0.074209
 895	4.4700e-01	4.2721	20.459909	0.000121	1.212143	0.410685	-0.009679
 896	4.4750e-01	4.2352	20.193725	0.000667	6.666788	2.258769	-0.053237
 897	4.4800e-01	4.1967	20.028368	0.000414	4.141490	1.403175	-0.033071
 898	4.4850e-01	4.1566	19.963838	0.000162	1.616191	0.547580	-0.012906
 899	4.4900e-01	4.1149	19.657323	0.000768	7.676908	2.601007	-0.061303
 900	4.4950e-01	4.0780	19.342741	0.000788	7.878932	2.669454	-0.062916
 901	4.5000e-01	4.0330	18.919266	0.001061	10.606254	3.593496	-0.084695
 902	4.5050e-01	3.9945	18.987828	-0.000172	-1.717203	-0.581804	0.013713
 903	4.5100e-01	3.9560	18.725677	0.000657	6.565776	2.224545	-0.052430
 904	4.5150e-01	3.9127	18.515956	0.000525	5.252621	1.779636	-0.041944
 905	4.5200e-01	3.8742	18.314301	0.000505	5.050597	1.711189	-0.040331
 906	4.5250e-01	3.8453	18.084414	0.000576	5.757681	1.950755	-0.045977
 907	4.5300e-01	3.7972	17.890825	0.000485	4.848573	1.642741	-0.038718
 908	4.5350e-01	3.7587	17.362489	0.001323	13.232565	4.483314	-0.105667
 909	4.5400e-01	3.7122	17.439118	-0.000192	-1.919227	-0.650252	0.015326
 910	4.5450e-01	3.6801	17.080173	0.000899	8.990063	3.045916	-0.071789
 911	4.5500e-01	3.6416	16.967246	0.000283	2.828334	0.958266	-0.022585
 912	4.5550e-01	3.5967	16.701061	0.000667	6.666788	2.258769	-0.053237
 913	4.5600e-01	3.5534	16.535704	0.000414	4.141490	1.403175	-0.033071
 914	4.5650e-01	3.5213	16.204990	0.000828	8.282979	2.806349	-0.066143
 915	4.5700e-01	3.4812	16.059799	0.000364	3.636430	1.232056	-0.029038
 916	4.5750e-01	3.4379	15.809747	0.000626	6.262741	2.121874	-0.050010
 917	4.5800e-01	3.3962	15.761349	0.000121	1.212143	0.410685	-0.009679
 918	4.5850e-01	3.3496	15.321742	0.001101	11.010302	3.730391	-0.087922
 919	4.5900e-01	3.3127	15.047491	0.000687	6.868812	2.327217	-0.054850
 920	4.5950e-01	3.2710	14.954730	0.000232	2.323275	0.787147	-0.018552
 921	4.6000e-01	3.2309	14.470758	0.001212	12.121433	4.106853	-0.096794
 922	4.6050e-01	3.2004	14.180375	0.000727	7.272860	2.464112	-0.058077
 923	4.6100e-01	3.1507	14.119878	0.000152	1.515179	0.513357	-0.012099
 924	4.6150e-01	3.1250	13.720601	0.001000	10.000182	3.388154	-0.079855
 925	4.6200e-01	3.0801	13.559278	0.000404	4.040478	1.368951	-0.032265
 926	4.6250e-01	3.0336	13.317292	0.000606	6.060717	2.053426	-0.048397
 927	4.6300e-01	2.9999	13.377788	-0.000152	-1.515179	-0.513357	0.012099
 928	4.6350e-01	2.9566	13.180166	0.000495	4.949585	1.676965	-0.039524
 929	4.6400e-01	2.9181	12.861551	0.000798	7.979944	2.703678	-0.063723
 930	4.6450e-01	2.8780	12.482440	0.000950	9.495123	3.217035	-0.075822
 931	4.6500e-01	2.8379	12.268686	0.000535	5.353633	1.813860	-0.042751
 932	4.6550e-01	2.7978	12.010568	0.000646	6.464764	2.190321	-0.051624
 933	4.6600e-01	2.7593	11.978303	0.000081	0.808096	0.273790	-0.006453
 934	4.6650e-01	2.7192	11.659688	0.000798	7.979944	2.703678	-0.063723
 935	4.6700e-01	2.6662	11.518530	0.000354	3.535418	1.197832	-0.028232
 936	4.6750e-01	2.6438	11.296709	0.000556	5.555657	1.882308	-0.044364
 937	4.6800e-01	2.6005	10.949863	0.000869	8.687027	2.943244	-0.069369
 938	4.6850e-01	2.5571	10.768373	0.000455	4.545537	1.540070	-0.036298
 939	4.6900e-01	2.5170	10.482023	0.000717	7.171848	2.429888	-0.057270
 940	4.6950e-01	2.4737	10.397328	0.000212	2.121251	0.718699	-0.016939
 941	4.7000e-01	2.4256	10.320699	0.000192	1.919227	0.650252	-0.015326
 942	4.7050e-01	2.3951	9.969820	0.000879	8.788039	2.977468	-0.070176
 943	4.7100e-01	2.3534	9.687503	0.000707	7.070836	2.395664	-0.056463
 944	4.7150e-01	2.3181	9.461649	0.000566	5.656669	1.916531	-0.045171
 945	4.7200e-01	2.2700	9.264027	0.000495	4.949585	1.676965	-0.039524
 946	4.7250e-01	2.2331	9.054306	0.000525	5.252621	1.779636	-0.041944
 947	4.7300e-01	2.2010	8.784089	0.000677	6.767800	2.292993	-0.054044
 948	4.7350e-01	2.1529	8.586467	0.000495	4.949585	1.676965	-0.039524
 949	4.7400e-01	2.1160	8.308183	0.000697	6.969824	2.361440	-0.055657
 950	4.7450e-01	2.0759	8.070230	0.000596	5.959705	2.019203	-0.047591
 951	4.7500e-01	2.0294	7.933105	0.000343	3.434406	1.163608	-0.027425
 952	4.7550e-01	1.9941	7.755649	0.000444	4.444526	1.505846	-0.035491
 953	4.7600e-01	1.9588	7.396703	0.000899	8.990063	3.045916	-0.071789
 954	4.7650e-01	1.9138	7.227313	0.000424	4.242502	1.437398	-0.033878
 955	4.7700e-01	1.8721	7.166816	0.000152	1.515179	0.513357	-0.012099
 956	4.7750e-01	1.8401	6.840135	0.000818	8.181967	2.772126	-0.065336
 957	4.7800e-01	1.7919	6.590083	0.000626	6.262741	2.121874	-0.050010
 958	4.7850e-01	1.7566	6.206939	0.000960	9.596135	3.251258	-0.076629
 959	4.7900e-01	1.7229	6.073846	0.000333	3.333394	1.129385	-0.026618
 960	4.7950e-01	1.6764	5.843960	0.000576	5.757681	1.950755	-0.045977
 961	4.8000e-01	1.6267	5.646338	0.000495	4.949585	1.676965	-0.039524
 962	4.8050e-01	1.5930	5.517279	0.000323	3.232382	1.095161	-0.025812
 963	4.8100e-01	1.5529	5.303525	0.000535	5.353633	1.813860	-0.042751
 964	4.8150e-01	1.5160	5.134135	0.000424	4.242502	1.437398	-0.033878
 965	4.8200e-01	1.4823	4.791321	0.000859	8.586015	2.909021	-0.068563
 966	4.8250e-01	1.4326	4.444475	0.000869	8.687027	2.943244	-0.069369
 967	4.8300e-01	1.4005	4.137959	0.000768	7.676908	2.601007	-0.061303
 968	4.8350e-01	1.3524	3.968569	0.000424	4.242502	1.437398	-0.033878
 969	4.8400e-01	1.3187	3.815311	0.000384	3.838454	1.300503	-0.030652
 970	4.8450e-01	1.2770	3.658020	0.000394	3.939466	1.334727	-0.031458
 971	4.8500e-01	1.2353	3.250677	0.001020	10.202206	3.456601	-0.081469
 972	4.8550e-01	1.1935	3.000625	0.000626	6.262741	2.121874	-0.050010
 973	4.8600e-01	1.1550	2.956261	0.000111	1.111131	0.376462	-0.008873
 974	4.8650e-01	1.1182	2.722342	0.000586	5.858693	1.984979	-0.046784
 975	4.8700e-01	1.0748	2.536819	0.000465	4.646549	1.574294	-0.037105
 976	4.8750e-01	1.0331	2.278701	0.000646	6.464764	2.190321	-0.051624
 977	4.8800e-01	0.9978	1.927821	0.000879	8.788039	2.977468	-0.070176
 978	4.8850e-01	0.9641	1.847159	0.000202	2.020239	0.684475	-0.016132
 979	4.8900e-01	0.9224	1.605173	0.000606	6.060717	2.053426	-0.048397
 980	4.8950e-01	0.8775	1.141367	0.001162	11.616374	3.935734	-0.092761
 981	4.9000e-01	0.8310	0.992142	0.000374	3.737442	1.266280	-0.029845
 982	4.9050e-01	0.7957	1.056672	-0.000162	-1.616191	-0.547580	0.012906
 983	4.9100e-01	0.7620	0.802587	0.000636	6.363752	2.156098	-0.050817
 984	4.9150e-01	0.7155	0.427508	0.000939	9.394111	3.182811	-0.075016
 985	4.9200e-01	0.6738	0.141158	0.000717	7.171848	2.429888	-0.057270
 986	4.9250e-01	0.6369	-0.056463	0.000495	4.949585	1.676965	-0.039524
 987	4.9300e-01	0.6016	-0.298449	0.000606	6.060717	2.053426	-0.048397
 988	4.9350e-01	0.5631	-0.588832	0.000727	7.272860	2.464112	-0.058077
 989	4.9400e-01	0.5198	-0.895348	0.000768	7.676908	2.601007	-0.061303
 990	4.9450e-01	0.4797	-0.959877	0.000162	1.616191	0.547580	-0.012906
 991	4.9500e-01	0.4347	-1.314790	0.000889	8.889051	3.011692	-0.070983
 992	4.9550e-01	0.3946	-1.480147	0.000414	4.141490	1.403175	-0.033071
 993	4.9600e-01	0.3497	-1.544677	0.000162	1.616191	0.547580	-0.012906
 994	4.9650e-01	0.3176	-1.976218	0.001081	10.808278	3.661944	-0.086308
 995	4.9700e-01	0.2839	-2.125443	0.000374	3.737442	1.266280	-0.029845
 996	4.9750e-01	0.2406	-2.278701	0.000384	3.838454	1.300503	-0.030652
 997	4.9800e-01	0.1909	-2.387594	0.000273	2.727322	0.924042	-0.021779
 998	4.9850e-01	0.1700	-2.807037	0.001051	10.505242	3.559272	-0.083888
 999	4.9900e-01	0.1203	-3.089354	0.000707	7.070836	2.395664	-0.056463
1000	4.9950e-01	0.0770	-3.153883	0.000162	1.616191	0.547580	-0.012906
1001	5.0000e-01	0.0401	-3.867742	0.001788	17.879114	6.057608	-0.142772
1002	5.0050e-01	0.0000	-3.847576	-0.000051	-0.505060	-0.171119	0.004033
1003	5.0100e-01	-0.0401	-3.783046	-0.000162	-1.616191	-0.547580	0.012906
1004	5.0150e-01	-0.0834	-3.972602	0.000475	4.747561	1.608517	-0.037911
1005	5.0200e-01	-0.1171	-4.420276	0.001121	11.212326	3.798839	-0.089535
1006	5.0250e-01	-0.1620	-4.585633	0.000414	4.141490	1.403175	-0.033071
1007	5.0300e-01	-0.2005	-4.888116	0.000758	7.575896	2.566783	-0.060496
1008	5.0350e-01	-0.2374	-4.867950	-0.000051	-0.505060	-0.171119	0.004033
1009	5.0400e-01	-0.2807	-5.097837	0.000576	5.757681	1.950755	-0.045977
1010	5.0450e-01	-0.3225	-5.315624	0.000545	5.454645	1.848084	-0.043557
1011	5.0500e-01	-0.3577	-5.549544	0.000586	5.858693	1.984979	-0.046784
1012	5.0550e-01	-0.4059	-5.706835	0.000394	3.939466	1.334727	-0.031458
1013	5.0600e-01	-0.4347	-6.037549	0.000828	8.282979	2.806349	-0.066143
1014	5.0650e-01	-0.4700	-6.416660	0.000950	9.495123	3.217035	-0.075822
1015	5.0700e-01	-0.5182	-6.461024	0.000111	1.111131	0.376462	-0.008873
1016	5.0750e-01	-0.5615	-6.690911	0.000576	5.757681	1.950755	-0.045977
1017	5.0800e-01	-0.5920	-6.864334	0.000434	4.343514	1.471622	-0.034685
1018	5.0850e-01	-0.6433	-7.227313	0.000909	9.091075	3.080140	-0.072596
1019	5.0900e-01	-0.6690	-7.558027	0.000828	8.282979	2.806349	-0.066143
1020	5.0950e-01	-0.7251	-7.775814	0.000545	5.454645	1.848084	-0.043557
1021	5.1000e-01	-0.7620	-8.029899	0.000636	6.363752	2.156098	-0.050817
1022	5.1050e-01	-0.7941	-8.171058	0.000354	3.535418	1.197832	-0.028232
1023	5.1100e-01	-0.8422	-8.267852	0.000242	2.424287	0.821371	-0.019359
1024	5.1150e-01	-0.8759	-8.582434	0.000788	7.878932	2.669454	-0.062916
1025	5.1200e-01	-0.9272	-8.808287	0.000566	5.656669	1.916531	-0.045171
1026	5.1250e-01	-0.9722	-8.840552	0.000081	0.808096	0.273790	-0.006453
1027	5.1300e-01	-0.9946	-9.167233	0.000818	8.181967	2.772126	-0.065336
1028	5.1350e-01	-1.0444	-9.324524	0.000394	3.939466	1.334727	-0.031458
1029	5.1400e-01	-1.0829	-9.538278	0.000535	5.353633	1.813860	-0.042751
1030	5.1450e-01	-1.1117	-9.832694	0.000737	7.373872	2.498335	-0.058883
1031	5.1500e-01	-1.1615	-10.002085	0.000424	4.242502	1.437398	-0.033878
1032	5.1550e-01	-1.1903	-10.211806	0.000525	5.252621	1.779636	-0.041944
1033	5.1600e-01	-1.2369	-10.586884	0.000939	9.394111	3.182811	-0.075016
1034	5.1650e-01	-1.2754	-10.623182	0.000091	0.909107	0.308014	-0.007260
1035	5.1700e-01	-1.3171	-10.873234	0.000626	6.262741	2.121874	-0.050010
1036	5.1750e-01	-1.3572	-11.232180	0.000899	8.990063	3.045916	-0.071789
1037	5.1800e-01	-1.4085	-11.522563	0.000727	7.272860	2.464112	-0.058077
1038	5.1850e-01	-1.4406	-11.611291	0.000222	2.222263	0.752923	-0.017746
1039	5.1900e-01	-1.4775	-11.728251	0.000293	2.929346	0.992489	-0.023392
1040	5.1950e-01	-1.5256	-11.901674	0.000434	4.343514	1.471622	-0.034685
1041	5.2000e-01	-1.5593	-12.236421	0.000838	8.383991	2.840573	-0.066949
1042	5.2050e-01	-1.6042	-12.514705	0.000697	6.969824	2.361440	-0.055657
1043	5.2100e-01	-1.6363	-12.974478	0.001152	11.515362	3.901510	-0.091955
1044	5.2150e-01	-1.6780	-12.978511	0.000010	0.101012	0.034224	-0.000807
1045	5.2200e-01	-1.7229	-13.260828	0.000707	7.070836	2.395664	-0.056463
1046	5.2250e-01	-1.7631	-13.518947	0.000646	6.464764	2.190321	-0.051624
1047	5.2300e-01	-1.7935	-13.656072	0.000343	3.434406	1.163608	-0.027425
1048	5.2350e-01	-1.8352	-13.688337	0.000081	0.808096	0.273790	-0.006453
1049	5.2400e-01	-1.8770	-14.228772	0.001354	13.535600	4.585986	-0.108087
1050	5.2450e-01	-1.9203	-14.386063	0.000394	3.939466	1.334727	-0.031458
1051	5.2500e-01	-1.9588	-14.523188	0.000343	3.434406	1.163608	-0.027425
1052	5.2550e-01	-2.0005	-14.632082	0.000273	2.727322	0.924042	-0.021779
1053	5.2600e-01	-2.0390	-15.047491	0.001040	10.404230	3.525049	-0.083082
1054	5.2650e-01	-2.0807	-15.277378	0.000576	5.757681	1.950755	-0.045977
1055	5.2700e-01	-2.1240	-15.345940	0.000172	1.717203	0.581804	-0.013713
1056	5.2750e-01	-2.1561	-15.616158	0.000677	6.767800	2.292993	-0.054044
1057	5.2800e-01	-2.2010	-15.850078	0.000586	5.858693	1.984979	-0.046784
1058	5.2850e-01	-2.2299	-16.096097	0.000616	6.161729	2.087650	-0.049204
1059	5.2900e-01	-2.2812	-16.200957	0.000263	2.626311	0.889818	-0.020972
1060	5.2950e-01	-2.3245	-16.422778	0.000556	5.555657	1.882308	-0.044364
1061	5.3000e-01	-2.3598	-16.572002	0.000374	3.737442	1.266280	-0.029845
1062	5.3050e-01	-2.3983	-16.999511	0.001071	10.707266	3.627720	-0.085502
1063	5.3100e-01	-2.4416	-17.253596	0.000636	6.363752	2.156098	-0.050817
1064	5.3150e-01	-2.4801	-17.499615	0.000616	6.161729	2.087650	-0.049204
1065	5.3200e-01	-2.5186	-17.483482	-0.000040	-0.404048	-0.136895	0.003226
1066	5.3250e-01	-2.5571	-17.636740	0.000384	3.838454	1.300503	-0.030652
1067	5.3300e-01	-2.5989	-17.858561	0.000556	5.555657	1.882308	-0.044364
1068	5.3350e-01	-2.6358	-18.245738	0.000970	9.697147	3.285482	-0.077435
1069	5.3400e-01	-2.6743	-18.342532	0.000242	2.424287	0.821371	-0.019359
1070	5.3450e-01	-2.7240	-18.556287	0.000535	5.353633	1.813860	-0.042751
1071	5.3500e-01	-2.7625	-18.850703	0.000737	7.373872	2.498335	-0.058883
1072	5.3550e-01	-2.7994	-19.052358	0.000505	5.050597	1.711189	-0.040331
1073	5.3600e-01	-2.8379	-19.411304	0.000899	8.990063	3.045916	-0.071789
1074	5.3650e-01	-2.8892	-19.552462	0.000354	3.535418	1.197832	-0.028232
1075	5.3700e-01	-2.9133	-19.754117	0.000505	5.050597	1.711189	-0.040331
1076	5.3750e-01	-2.9582	-19.947706	0.000485	4.848573	1.642741	-0.038718
1077	5.3800e-01	-3.0047	-20.242122	0.000737	7.373872	2.498335	-0.058883
1078	5.3850e-01	-3.0336	-20.338916	0.000242	2.424287	0.821371	-0.019359
1079	5.3900e-01	-3.0785	-20.669630	0.000828	8.282979	2.806349	-0.066143
1080	5.3950e-01	-3.1250	-20.661564	-0.000020	-0.202024	-0.068448	0.001613
1081	5.4000e-01	-3.1571	-21.133437	0.001182	11.818397	4.004181	-0.094375
1082	5.4050e-01	-3.2020	-21.343158	0.000525	5.252621	1.779636	-0.041944
1083	5.4100e-01	-3.2309	-21.601276	0.000646	6.464764	2.190321	-0.051624
1084	5.4150e-01	-3.2742	-21.907792	0.000768	7.676908	2.601007	-0.061303
1085	5.4200e-01	-3.3176	-21.746468	-0.000404	-4.040478	-1.368951	0.032265
1086	5.4250e-01	-3.3561	-22.048950	0.000758	7.575896	2.566783	-0.060496
1087	5.4300e-01	-3.4010	-22.428061	0.000950	9.495123	3.217035	-0.075822
1088	5.4350e-01	-3.4347	-22.690213	0.000657	6.565776	2.224545	-0.052430
1089	5.4400e-01	-3.4860	-22.774908	0.000212	2.121251	0.718699	-0.016939
1090	5.4450e-01	-3.5181	-23.028993	0.000636	6.363752	2.156098	-0.050817
1091	5.4500e-01	-3.5598	-23.069324	0.000101	1.010119	0.342238	-0.008066
1092	5.4550e-01	-3.5983	-23.262913	0.000485	4.848573	1.642741	-0.038718
1093	5.4600e-01	-3.6432	-23.621859	0.000899	8.990063	3.045916	-0.071789
1094	5.4650e-01	-3.6737	-23.851745	0.000576	5.757681	1.950755	-0.045977
1095	5.4700e-01	-3.7170	-23.924341	0.000182	1.818215	0.616028	-0.014519
1096	5.4750e-01	-3.7523	-24.162294	0.000596	5.959705	2.019203	-0.047591
1097	5.4800e-01	-3.8020	-24.456710	0.000737	7.373872	2.498335	-0.058883
1098	5.4850e-01	-3.8373	-24.626100	0.000424	4.242502	1.437398	-0.033878
1099	5.4900e-01	-3.8694	-24.843887	0.000545	5.454645	1.848084	-0.043557
1100	5.4950e-01	-3.9095	-24.936649	0.000232	2.323275	0.787147	-0.018552
1101	5.5000e-01	-3.9560	-25.352058	0.001040	10.404230	3.525049	-0.083082
1102	5.5050e-01	-3.9929	-25.642441	0.000727	7.272860	2.464112	-0.058077
1103	5.5100e-01	-4.0330	-25.868294	0.000566	5.656669	1.916531	-0.045171
1104	5.5150e-01	-4.0748	-26.005420	0.000343	3.434406	1.163608	-0.027425
1105	5.5200e-01	-4.1149	-26.263538	0.000646	6.464764	2.190321	-0.051624
1106	5.5250e-01	-4.1614	-26.428895	0.000414	4.141490	1.403175	-0.033071
1107	5.5300e-01	-4.1999	-26.489392	0.000152	1.515179	0.513357	-0.012099
1108	5.5350e-01	-4.2416	-26.820106	0.000828	8.282979	2.806349	-0.066143
1109	5.5400e-01	-4.2849	-26.840271	0.000051	0.505060	0.171119	-0.004033
1110	5.5450e-01	-4.3154	-27.223416	0.000960	9.596135	3.251258	-0.076629
1111	5.5500e-01	-4.3587	-27.550097	0.000818	8.181967	2.772126	-0.065336
1112	5.5550e-01	-4.3924	-27.723520	0.000434	4.343514	1.471622	-0.034685
1113	5.5600e-01	-4.4437	-27.808215	0.000212	2.121251	0.718699	-0.016939
1114	5.5650e-01	-4.4870	-27.892910	0.000212	2.121251	0.718699	-0.016939
1115	5.5700e-01	-4.5143	-28.288154	0.000990	9.899170	3.353930	-0.079049
1116	5.5750e-01	-4.5608	-28.280087	-0.000020	-0.202024	-0.068448	0.001613
1117	5.5800e-01	-4.6058	-28.582570	0.000758	7.575896	2.566783	-0.060496
1118	5.5850e-01	-4.6394	-28.945549	0.000909	9.091075	3.080140	-0.072596
1119	5.5900e-01	-4.6795	-29.155270	0.000525	5.252621	1.779636	-0.041944
1120	5.5950e-01	-4.7197	-29.425487	0.000677	6.767800	2.292993	-0.054044
1121	5.6000e-01	-4.7598	-29.606977	0.000455	4.545537	1.540070	-0.036298
1122	5.6050e-01	-4.8015	-29.627142	0.000051	0.505060	0.171119	-0.004033
1123	5.6100e-01	-4.8352	-30.042551	0.001040	10.404230	3.525049	-0.083082
1124	5.6150e-01	-4.8833	-30.232107	0.000475	4.747561	1.608517	-0.037911
1125	5.6200e-01	-4.9170	-30.413597	0.000455	4.545537	1.540070	-0.036298
1126	5.6250e-01	-4.9539	-30.663649	0.000626	6.262741	2.121874	-0.050010
1127	5.6300e-01	-4.9988	-30.792708	0.000323	3.232382	1.095161	-0.025812
1128	5.6350e-01	-5.0437	-31.054859	0.000657	6.565776	2.224545	-0.052430
1129	5.6400e-01	-5.0694	-31.248448	0.000485	4.848573	1.642741	-0.038718
1130	5.6450e-01	-5.1207	-31.490434	0.000606	6.060717	2.053426	-0.048397
1131	5.6500e-01	-5.1672	-31.659824	0.000424	4.242502	1.437398	-0.033878
1132	5.6550e-01	-5.1993	-31.788883	0.000323	3.232382	1.095161	-0.025812
1133	5.6600e-01	-5.2362	-31.962306	0.000434	4.343514	1.471622	-0.034685
1134	5.6650e-01	-5.2795	-32.147829	0.000465	4.646549	1.574294	-0.037105
1135	5.6700e-01	-5.3132	-32.490642	0.000859	8.586015	2.909021	-0.068563
1136	5.6750e-01	-5.3581	-32.857654	0.000919	9.192087	3.114363	-0.073402
1137	5.6800e-01	-5.4031	-32.918151	0.000152	1.515179	0.513357	-0.012099
1138	5.6850e-01	-5.4383	-33.192401	0.000687	6.868812	2.327217	-0.054850
1139	5.6900e-01	-5.4881	-33.498917	0.000768	7.676908	2.601007	-0.061303
1140	5.6950e-01	-5.5202	-33.490851	-0.000020	-0.202024	-0.068448	0.001613
1141	5.7000e-01	-5.5603	-33.688473	0.000495	4.949585	1.676965	-0.039524
1142	5.7050e-01	-5.6036	-33.894161	0.000515	5.151609	1.745412	-0.041138
1143	5.7100e-01	-5.6357	-34.099849	0.000515	5.151609	1.745412	-0.041138
1144	5.7150e-01	-5.6790	-34.245040	0.000364	3.636430	1.232056	-0.029038
1145	5.7200e-01	-5.7255	-34.583821	0.000849	8.485003	2.874797	-0.067756
1146	5.7250e-01	-5.7592	-34.757244	0.000434	4.343514	1.471622	-0.034685
1147	5.7300e-01	-5.7961	-34.829840	0.000182	1.818215	0.616028	-0.014519
1148	5.7350e-01	-5.8378	-35.148454	0.000798	7.979944	2.703678	-0.063723
1149	5.7400e-01	-5.8779	-35.378341	0.000576	5.757681	1.950755	-0.045977
1150	5.7450e-01	-5.9196	-35.664691	0.000717	7.171848	2.429888	-0.057270
1151	5.7500e-01	-5.9710	-35.684856	0.000051	0.505060	0.171119	-0.004033
1152	5.7550e-01	-6.0046	-35.898611	0.000535	5.353633	1.813860	-0.042751
1153	5.7600e-01	-6.0447	-36.253523	0.000889	8.889051	3.011692	-0.070983
1154	5.7650e-01	-6.0784	-36.765727	0.001283	12.828517	4.346419	-0.102441
1155	5.7700e-01	-6.1250	-36.588271	-0.000444	-4.444526	-1.505846	0.035491
1156	5.7750e-01	-6.1442	-36.842356	0.000636	6.363752	2.156098	-0.050817
1157	5.7800e-01	-6.2004	-37.007713	0.000414	4.141490	1.403175	-0.033071
1158	5.7850e-01	-6.2405	-37.265831	0.000646	6.464764	2.190321	-0.051624
1159	5.7900e-01	-6.2742	-37.475552	0.000525	5.252621	1.779636	-0.041944
1160	5.7950e-01	-6.3143	-37.790134	0.000788	7.878932	2.669454	-0.062916
1161	5.8000e-01	-6.3576	-37.826432	0.000091	0.909107	0.308014	-0.007260
1162	5.8050e-01	-6.4009	-37.915160	0.000222	2.222263	0.752923	-0.017746
1163	5.8100e-01	-6.4378	-38.584654	0.001677	16.767983	5.681146	-0.133899
1164	5.8150e-01	-6.4779	-38.629018	0.000111	1.111131	0.376462	-0.008873
1165	5.8200e-01	-6.5180	-38.596754	-0.000081	-0.808096	-0.273790	0.006453
1166	5.8250e-01	-6.5549	-38.508025	-0.000222	-2.222263	-0.752923	0.017746
1167	5.8300e-01	-6.5982	-39.141222	0.001586	15.858875	5.373132	-0.126639
1168	5.8350e-01	-6.6319	-39.520333	0.000950	9.495123	3.217035	-0.075822
1169	5.8400e-01	-6.6816	-39.371109	-0.000374	-3.737442	-1.266280	0.029845
1170	5.8450e-01	-6.7169	-39.641326	0.000677	6.767800	2.292993	-0.054044
1171	5.8500e-01	-6.7506	-39.855080	0.000535	5.353633	1.813860	-0.042751
1172	5.8550e-01	-6.7891	-40.105133	0.000626	6.262741	2.121874	-0.050010
1173	5.8600e-01	-6.8260	-40.226125	0.000303	3.030358	1.026713	-0.024199
1174	5.8650e-01	-6.8870	-40.423747	0.000495	4.949585	1.676965	-0.039524
1175	5.8700e-01	-6.9158	-40.625402	0.000505	5.050597	1.711189	-0.040331
1176	5.8750e-01	-6.9576	-40.714130	0.000222	2.222263	0.752923	-0.017746
1177	5.8800e-01	-6.9977	-40.931918	0.000545	5.454645	1.848084	-0.043557
1178	5.8850e-01	-7.0378	-41.137606	0.000515	5.151609	1.745412	-0.041138
1179	5.8900e-01	-7.0682	-41.524783	0.000970	9.697147	3.285482	-0.077435
1180	5.8950e-01	-7.1212	-41.629644	0.000263	2.626311	0.889818	-0.020972
1181	5.9000e-01	-7.1565	-41.714339	0.000212	2.121251	0.718699	-0.016939
1182	5.9050e-01	-7.2014	-41.907928	0.000485	4.848573	1.642741	-0.038718
1183	5.9100e-01	-7.2335	-42.194278	0.000717	7.171848	2.429888	-0.057270
1184	5.9150e-01	-7.2752	-42.428197	0.000586	5.858693	1.984979	-0.046784
1185	5.9200e-01	-7.3169	-42.637918	0.000525	5.252621	1.779636	-0.041944
1186	5.9250e-01	-7.3586	-43.045261	0.001020	10.202206	3.456601	-0.081469
1187	5.9300e-01	-7.3971	-43.158188	0.000283	2.828334	0.958266	-0.022585
1188	5.9350e-01	-7.4452	-43.436472	0.000697	6.969824	2.361440	-0.055657
1189	5.9400e-01	-7.4773	-43.654259	0.000545	5.454645	1.848084	-0.043557
1190	5.9450e-01	-7.5190	-43.569564	-0.000212	-2.121251	-0.718699	0.016939
1191	5.9500e-01	-7.5543	-43.795418	0.000566	5.656669	1.916531	-0.045171
1192	5.9550e-01	-7.5993	-44.049503	0.000636	6.363752	2.156098	-0.050817
1193	5.9600e-01	-7.6361	-44.315687	0.000667	6.666788	2.258769	-0.053237
1194	5.9650e-01	-7.6698	-44.698832	0.000960	9.596135	3.251258	-0.076629
1195	5.9700e-01	-7.7180	-44.650435	-0.000121	-1.212143	-0.410685	0.009679
1196	5.9750e-01	-7.7500	-44.916619	0.000667	6.666788	2.258769	-0.053237
1197	5.9800e-01	-7.7902	-45.444955	0.001323	13.232565	4.483314	-0.105667
1198	5.9850e-01	-7.8287	-45.372359	-0.000182	-1.818215	-0.616028	0.014519
1199	5.9900e-01	-7.8784	-45.392525	0.000051	0.505060	0.171119	-0.004033
1200	5.9950e-01	-7.9105	-45.642577	0.000626	6.262741	2.121874	-0.050010
1201	6.0000e-01	-7.9522	-45.735338	0.000232	2.323275	0.787147	-0.018552
1202	6.0050e-01	-7.9987	-45.876497	0.000354	3.535418	1.197832	-0.028232
1203	6.0100e-01	-8.0324	-46.336270	0.001152	11.515362	3.901510	-0.091955
1204	6.0150e-01	-8.0773	-46.477428	0.000354	3.535418	1.197832	-0.028232
1205	6.0200e-01	-8.1174	-46.541958	0.000162	1.616191	0.547580	-0.012906
1206	6.0250e-01	-8.1607	-46.703282	0.000404	4.040478	1.368951	-0.032265
1207	6.0300e-01	-8.1944	-46.949301	0.000616	6.161729	2.087650	-0.049204
1208	6.0350e-01	-8.2297	-47.207419	0.000646	6.464764	2.190321	-0.051624
1209	6.0400e-01	-8.2714	-47.509902	0.000758	7.575896	2.566783	-0.060496
1210	6.0450e-01	-8.3163	-47.772053	0.000657	6.565776	2.224545	-0.052430
1211	6.0500e-01	-8.3564	-47.832549	0.000152	1.515179	0.513357	-0.012099
1212	6.0550e-01	-8.3917	-48.106800	0.000687	6.868812	2.327217	-0.054850
1213	6.0600e-01	-8.4302	-48.239892	0.000333	3.333394	1.129385	-0.026618
1214	6.0650e-01	-8.4752	-48.328621	0.000222	2.222263	0.752923	-0.017746
1215	6.0700e-01	-8.5153	-48.518176	0.000475	4.747561	1.608517	-0.037911
1216	6.0750e-01	-8.5602	-48.655302	0.000343	3.434406	1.163608	-0.027425
1217	6.0800e-01	-8.6003	-48.933585	0.000697	6.969824	2.361440	-0.055657
1218	6.0850e-01	-8.6420	-49.199770	0.000667	6.666788	2.258769	-0.053237
1219	6.0900e-01	-8.6661	-49.490153	0.000727	7.272860	2.464112	-0.058077
1220	6.0950e-01	-8.7158	-49.699874	0.000525	5.252621	1.779636	-0.041944
1221	6.1000e-01	-8.7575	-49.679709	-0.000051	-0.505060	-0.171119	0.004033
1222	6.1050e-01	-8.7928	-49.929761	0.000626	6.262741	2.121874	-0.050010
1223	6.1100e-01	-8.8377	-50.111250	0.000455	4.545537	1.540070	-0.036298
1224	6.1150e-01	-8.8794	-50.070919	-0.000101	-1.010119	-0.342238	0.008066
1225	6.1200e-01	-8.9163	-50.373402	0.000758	7.575896	2.566783	-0.060496
1226	6.1250e-01	-8.9532	-50.667818	0.000737	7.373872	2.498335	-0.058883
1227	6.1300e-01	-8.9869	-51.115492	0.001121	11.212326	3.798839	-0.089535
1228	6.1350e-01	-9.0334	-51.119525	0.000010	0.101012	0.034224	-0.000807
1229	6.1400e-01	-9.0800	-51.264716	0.000364	3.636430	1.232056	-0.029038
1230	6.1450e-01	-9.1249	-51.345378	0.000202	2.020239	0.684475	-0.016132
1231	6.1500e-01	-9.1602	-51.518802	0.000434	4.343514	1.471622	-0.034685
1232	6.1550e-01	-9.1842	-51.736589	0.000545	5.454645	1.848084	-0.043557
1233	6.1600e-01	-9.2275	-51.905979	0.000424	4.242502	1.437398	-0.033878
1234	6.1650e-01	-9.2725	-52.204428	0.000747	7.474884	2.532559	-0.059690
1235	6.1700e-01	-9.3029	-52.389951	0.000465	4.646549	1.574294	-0.037105
1236	6.1750e-01	-9.3447	-52.736797	0.000869	8.687027	2.943244	-0.069369
1237	6.1800e-01	-9.3960	-52.902154	0.000414	4.141490	1.403175	-0.033071
1238	6.1850e-01	-9.4457	-52.930386	0.000071	0.707084	0.239566	-0.005646
1239	6.1900e-01	-9.4682	-53.164306	0.000586	5.858693	1.984979	-0.046784
1240	6.1950e-01	-9.5147	-53.281266	0.000293	2.929346	0.992489	-0.023392
1241	6.2000e-01	-9.5644	-53.454689	0.000434	4.343514	1.471622	-0.034685
1242	6.2050e-01	-9.5997	-53.753138	0.000747	7.474884	2.532559	-0.059690
1243	6.2100e-01	-9.6350	-53.918495	0.000414	4.141490	1.403175	-0.033071
1244	6.2150e-01	-9.6703	-54.011256	0.000232	2.323275	0.787147	-0.018552
1245	6.2200e-01	-9.7168	-54.208878	0.000495	4.949585	1.676965	-0.039524
1246	6.2250e-01	-9.7569	-54.414566	0.000515	5.151609	1.745412	-0.041138
1247	6.2300e-01	-9.7970	-54.664618	0.000626	6.262741	2.121874	-0.050010
1248	6.2350e-01	-9.8259	-54.870306	0.000515	5.151609	1.745412	-0.041138
1249	6.2400e-01	-9.8757	-54.959035	0.000222	2.222263	0.752923	-0.017746
1250	6.2450e-01	-9.9174	-55.132458	0.000434	4.343514	1.471622	-0.034685
1251	6.2500e-01	-9.9575	-55.305881	0.000434	4.343514	1.471622	-0.034685
1252	6.2550e-01	-9.9863	-55.563999	0.000646	6.464764	2.190321	-0.051624
1253	6.2600e-01	-10.0329	-55.676926	0.000283	2.828334	0.958266	-0.022585
1254	6.2650e-01	-10.0714	-56.023773	0.000869	8.687027	2.943244	-0.069369
1255	6.2700e-01	-10.1163	-56.237527	0.000535	5.353633	1.813860	-0.042751
1256	6.2750e-01	-10.1532	-56.386752	0.000374	3.737442	1.266280	-0.029845
1257	6.2800e-01	-10.1997	-56.632771	0.000616	6.161729	2.087650	-0.049204
1258	6.2850e-01	-10.2318	-56.870723	0.000596	5.959705	2.019203	-0.047591
1259	6.2900e-01	-10.2831	-57.060279	0.000475	4.747561	1.608517	-0.037911
1260	6.2950e-01	-10.3216	-57.040114	-0.000051	-0.505060	-0.171119	0.004033
1261	6.3000e-01	-10.3601	-57.221603	0.000455	4.545537	1.540070	-0.036298
1262	6.3050e-01	-10.3906	-57.431324	0.000525	5.252621	1.779636	-0.041944
1263	6.3100e-01	-10.4387	-57.596681	0.000414	4.141490	1.403175	-0.033071
1264	6.3150e-01	-10.4805	-57.729773	0.000333	3.333394	1.129385	-0.026618
1265	6.3200e-01	-10.5125	-58.129050	0.001000	10.000182	3.388154	-0.079855
1266	6.3250e-01	-10.5478	-58.375069	0.000616	6.161729	2.087650	-0.049204
1267	6.3300e-01	-10.5911	-58.552526	0.000444	4.444526	1.505846	-0.035491
1268	6.3350e-01	-10.6361	-58.617055	0.000162	1.616191	0.547580	-0.012906
1269	6.3400e-01	-10.6778	-58.895339	0.000697	6.969824	2.361440	-0.055657
1270	6.3450e-01	-10.7163	-59.072795	0.000444	4.444526	1.505846	-0.035491
1271	6.3500e-01	-10.7564	-59.149424	0.000192	1.919227	0.650252	-0.015326
1272	6.3550e-01	-10.8013	-59.391410	0.000606	6.060717	2.053426	-0.048397
1273	6.3600e-01	-10.8302	-59.427708	0.000091	0.909107	0.308014	-0.007260
1274	6.3650e-01	-10.8751	-59.742290	0.000788	7.878932	2.669454	-0.062916
1275	6.3700e-01	-10.9184	-59.794720	0.000131	1.313155	0.444909	-0.010486
1276	6.3750e-01	-10.9617	-60.189964	0.000990	9.899170	3.353930	-0.079049
1277	6.3800e-01	-10.9874	-60.306923	0.000293	2.929346	0.992489	-0.023392
1278	6.3850e-01	-11.0403	-60.484380	0.000444	4.444526	1.505846	-0.035491
1279	6.3900e-01	-11.0820	-60.774763	0.000727	7.272860	2.464112	-0.058077
1280	6.3950e-01	-11.1173	-60.839292	0.000162	1.616191	0.547580	-0.012906
1281	6.4000e-01	-11.1606	-61.008683	0.000424	4.242502	1.437398	-0.033878
1282	6.4050e-01	-11.1943	-61.238569	0.000576	5.757681	1.950755	-0.045977
1283	6.4100e-01	-11.2441	-61.339397	0.000253	2.525299	0.855594	-0.020165
1284	6.4150e-01	-11.2745	-61.496687	0.000394	3.939466	1.334727	-0.031458
1285	6.4200e-01	-11.3211	-61.621714	0.000313	3.131370	1.060937	-0.025005
1286	6.4250e-01	-11.3499	-61.843534	0.000556	5.555657	1.882308	-0.044364
1287	6.4300e-01	-11.3933	-61.972593	0.000323	3.232382	1.095161	-0.025812
1288	6.4350e-01	-11.4414	-62.210546	0.000596	5.959705	2.019203	-0.047591
1289	6.4400e-01	-11.4863	-62.359771	0.000374	3.737442	1.266280	-0.029845
1290	6.4450e-01	-11.5232	-62.412201	0.000131	1.313155	0.444909	-0.010486
1291	6.4500e-01	-11.5569	-62.759047	0.000869	8.687027	2.943244	-0.069369
1292	6.4550e-01	-11.5970	-62.968768	0.000525	5.252621	1.779636	-0.041944
1293	6.4600e-01	-11.6435	-63.182523	0.000535	5.353633	1.813860	-0.042751
1294	6.4650e-01	-11.6740	-63.452740	0.000677	6.767800	2.292993	-0.054044
1295	6.4700e-01	-11.7189	-63.412409	-0.000101	-1.010119	-0.342238	0.008066
1296	6.4750e-01	-11.7542	-63.577766	0.000414	4.141490	1.403175	-0.033071
1297	6.4800e-01	-11.8007	-63.964944	0.000970	9.697147	3.285482	-0.077435
1298	6.4850e-01	-11.8424	-63.968977	0.000010	0.101012	0.034224	-0.000807
1299	6.4900e-01	-11.8777	-64.166599	0.000495	4.949585	1.676965	-0.039524
1300	6.4950e-01	-11.9130	-64.368254	0.000505	5.050597	1.711189	-0.040331
1301	6.5000e-01	-11.9531	-64.348088	-0.000051	-0.505060	-0.171119	0.004033
1302	6.5050e-01	-11.9981	-64.626372	0.000697	6.969824	2.361440	-0.055657
1303	6.5100e-01	-12.0366	-64.932887	0.000768	7.676908	2.601007	-0.061303
1304	6.5150e-01	-12.0831	-65.130509	0.000495	4.949585	1.676965	-0.039524
1305	6.5200e-01	-12.1248	-65.445091	0.000788	7.878932	2.669454	-0.062916
1306	6.5250e-01	-12.1633	-65.529786	0.000212	2.121251	0.718699	-0.016939
1307	6.5300e-01	-12.1922	-65.646746	0.000293	2.929346	0.992489	-0.023392
1308	6.5350e-01	-12.2435	-65.735474	0.000222	2.222263	0.752923	-0.017746
1309	6.5400e-01	-12.2756	-66.102486	0.000919	9.192087	3.114363	-0.073402
1310	6.5450e-01	-12.3109	-66.207347	0.000263	2.626311	0.889818	-0.020972
1311	6.5500e-01	-12.3574	-66.400935	0.000485	4.848573	1.642741	-0.038718
1312	6.5550e-01	-12.3959	-66.493697	0.000232	2.323275	0.787147	-0.018552
1313	6.5600e-01	-12.4376	-66.671153	0.000444	4.444526	1.505846	-0.035491
1314	6.5650e-01	-12.4729	-66.993801	0.000808	8.080956	2.737902	-0.064530
1315	6.5700e-01	-12.5291	-66.897007	-0.000242	-2.424287	-0.821371	0.019359
1316	6.5750e-01	-12.5692	-67.134959	0.000596	5.959705	2.019203	-0.047591
1317	6.5800e-01	-12.6077	-67.251919	0.000293	2.929346	0.992489	-0.023392
1318	6.5850e-01	-12.6462	-67.578600	0.000818	8.181967	2.772126	-0.065336
1319	6.5900e-01	-12.6863	-67.756057	0.000444	4.444526	1.505846	-0.035491
1320	6.5950e-01	-12.7264	-67.828652	0.000182	1.818215	0.616028	-0.014519
1321	6.6000e-01	-12.7553	-68.098870	0.000677	6.767800	2.292993	-0.054044
1322	6.6050e-01	-12.7970	-68.223896	0.000313	3.131370	1.060937	-0.025005
1323	6.6100e-01	-12.8355	-68.312624	0.000222	2.222263	0.752923	-0.017746
1324	6.6150e-01	-12.8900	-68.719967	0.001020	10.202206	3.456601	-0.081469
1325	6.6200e-01	-12.9157	-68.925655	0.000515	5.151609	1.745412	-0.041138
1326	6.6250e-01	-12.9542	-69.244270	0.000798	7.979944	2.703678	-0.063723
1327	6.6300e-01	-12.9959	-69.091012	-0.000384	-3.838454	-1.300503	0.030652
1328	6.6350e-01	-13.0440	-69.264435	0.000434	4.343514	1.471622	-0.034685
1329	6.6400e-01	-13.0793	-69.486256	0.000556	5.555657	1.882308	-0.044364
1330	6.6450e-01	-13.1162	-69.708076	0.000556	5.555657	1.882308	-0.044364
1331	6.6500e-01	-13.1627	-69.825036	0.000293	2.929346	0.992489	-0.023392
1332	6.6550e-01	-13.1900	-70.034757	0.000525	5.252621	1.779636	-0.041944
1333	6.6600e-01	-13.2462	-70.288842	0.000636	6.363752	2.156098	-0.050817
1334	6.6650e-01	-13.2750	-70.365471	0.000192	1.919227	0.650252	-0.015326
1335	6.6700e-01	-13.3135	-70.450166	0.000212	2.121251	0.718699	-0.016939
1336	6.6750e-01	-13.3472	-70.555027	0.000263	2.626311	0.889818	-0.020972
1337	6.6800e-01	-13.4002	-70.930105	0.000939	9.394111	3.182811	-0.075016
1338	6.6850e-01	-13.4387	-71.127727	0.000495	4.949585	1.676965	-0.039524
1339	6.6900e-01	-13.4740	-71.293084	0.000414	4.141490	1.403175	-0.033071
1340	6.6950e-01	-13.5076	-71.535070	0.000606	6.060717	2.053426	-0.048397
1341	6.7000e-01	-13.5542	-71.595566	0.000152	1.515179	0.513357	-0.012099
1342	6.7050e-01	-13.5943	-71.599599	0.000010	0.101012	0.034224	-0.000807
1343	6.7100e-01	-13.6424	-71.853685	0.000636	6.363752	2.156098	-0.050817
1344	6.7150e-01	-13.6761	-72.281193	0.001071	10.707266	3.627720	-0.085502
1345	6.7200e-01	-13.7146	-72.269094	-0.000030	-0.303036	-0.102671	0.002420
1346	6.7250e-01	-13.7579	-72.337657	0.000172	1.717203	0.581804	-0.013713
1347	6.7300e-01	-13.7980	-72.680470	0.000859	8.586015	2.909021	-0.068563
1348	6.7350e-01	-13.8301	-72.878092	0.000495	4.949585	1.676965	-0.039524
1349	6.7400e-01	-13.8798	-72.914390	0.000091	0.909107	0.308014	-0.007260
1350	6.7450e-01	-13.9167	-73.188640	0.000687	6.868812	2.327217	-0.054850
1351	6.7500e-01	-13.9648	-73.224938	0.000091	0.909107	0.308014	-0.007260
1352	6.7550e-01	-14.0066	-73.555652	0.000828	8.282979	2.806349	-0.066143
1353	6.7600e-01	-14.0354	-73.696811	0.000354	3.535418	1.197832	-0.028232
1354	6.7650e-01	-14.0771	-73.902499	0.000515	5.151609	1.745412	-0.041138
1355	6.7700e-01	-14.1076	-74.083988	0.000455	4.545537	1.540070	-0.036298
1356	6.7750e-01	-14.1541	-74.120286	0.000091	0.909107	0.308014	-0.007260
1357	6.7800e-01	-14.1894	-74.237246	0.000293	2.929346	0.992489	-0.023392
1358	6.7850e-01	-14.2360	-74.426802	0.000475	4.747561	1.608517	-0.037911
1359	6.7900e-01	-14.2745	-74.616357	0.000475	4.747561	1.608517	-0.037911
1360	6.7950e-01	-14.3178	-74.939005	0.000808	8.080956	2.737902	-0.064530
1361	6.8000e-01	-14.3515	-75.007568	0.000172	1.717203	0.581804	-0.013713
1362	6.8050e-01	-14.3916	-75.269719	0.000657	6.565776	2.224545	-0.052430
1363	6.8100e-01	-14.4365	-75.523804	0.000636	6.363752	2.156098	-0.050817
1364	6.8150e-01	-14.4846	-75.523804	-0.000000	-0.000000	-0.000000	0.000000
1365	6.8200e-01	-14.5183	-75.769823	0.000616	6.161729	2.087650	-0.049204
1366	6.8250e-01	-14.5472	-75.810154	0.000101	1.010119	0.342238	-0.008066
1367	6.8300e-01	-14.5985	-76.052140	0.000606	6.060717	2.053426	-0.048397
1368	6.8350e-01	-14.6290	-76.040041	-0.000030	-0.303036	-0.102671	0.002420
1369	6.8400e-01	-14.6771	-76.463516	0.001061	10.606254	3.593496	-0.084695
1370	6.8450e-01	-14.7140	-76.632907	0.000424	4.242502	1.437398	-0.033878
1371	6.8500e-01	-14.7477	-76.713569	0.000202	2.020239	0.684475	-0.016132
1372	6.8550e-01	-14.7974	-76.927323	0.000535	5.353633	1.813860	-0.042751
1373	6.8600e-01	-14.8408	-76.891025	-0.000091	-0.909107	-0.308014	0.007260
1374	6.8650e-01	-14.8793	-77.193507	0.000758	7.575896	2.566783	-0.060496
1375	6.8700e-01	-14.9162	-77.173342	-0.000051	-0.505060	-0.171119	0.004033
1376	6.8750e-01	-14.9595	-77.616983	0.001111	11.111314	3.764615	-0.088728
1377	6.8800e-01	-15.0044	-77.709744	0.000232	2.323275	0.787147	-0.018552
1378	6.8850e-01	-15.0301	-77.822671	0.000283	2.828334	0.958266	-0.022585
1379	6.8900e-01	-15.0686	-77.943664	0.000303	3.030358	1.026713	-0.024199
1380	6.8950e-01	-15.1231	-78.068690	0.000313	3.131370	1.060937	-0.025005
1381	6.9000e-01	-15.1584	-78.451834	0.000960	9.596135	3.251258	-0.076629
1382	6.9050e-01	-15.1937	-78.653489	0.000505	5.050597	1.711189	-0.040331
1383	6.9100e-01	-15.2418	-78.855144	0.000505	5.050597	1.711189	-0.040331
1384	6.9150e-01	-15.2803	-78.843045	-0.000030	-0.303036	-0.102671	0.002420
1385	6.9200e-01	-15.3140	-78.899508	0.000141	1.414167	0.479133	-0.011293
1386	6.9250e-01	-15.3573	-79.367347	0.001172	11.717385	3.969958	-0.093568
1387	6.9300e-01	-15.4038	-79.439943	0.000182	1.818215	0.616028	-0.014519
1388	6.9350e-01	-15.4311	-79.617400	0.000444	4.444526	1.505846	-0.035491
1389	6.9400e-01	-15.4728	-79.702095	0.000212	2.121251	0.718699	-0.016939
1390	6.9450e-01	-15.5193	-79.843253	0.000354	3.535418	1.197832	-0.028232
1391	6.9500e-01	-15.5530	-80.061040	0.000545	5.454645	1.848084	-0.043557
1392	6.9550e-01	-15.5964	-80.093305	0.000081	0.808096	0.273790	-0.006453
1393	6.9600e-01	-15.6413	-80.137669	0.000111	1.111131	0.376462	-0.008873
1394	6.9650e-01	-15.6734	-80.355457	0.000545	5.454645	1.848084	-0.043557
1395	6.9700e-01	-15.7119	-80.617608	0.000657	6.565776	2.224545	-0.052430
1396	6.9750e-01	-15.7664	-80.621641	0.000010	0.101012	0.034224	-0.000807
1397	6.9800e-01	-15.7985	-81.210473	0.001475	14.747744	4.996671	-0.117766
1398	6.9850e-01	-15.8274	-81.327433	0.000293	2.929346	0.992489	-0.023392
1399	6.9900e-01	-15.8755	-81.395996	0.000172	1.717203	0.581804	-0.013713
1400	6.9950e-01	-15.9172	-81.686379	0.000727	7.272860	2.464112	-0.058077
1401	7.0000e-01	-15.9621	-81.581519	-0.000263	-2.626311	-0.889818	0.020972
1402	7.0050e-01	-15.9974	-81.968696	0.000970	9.697147	3.285482	-0.077435
1403	7.0100e-01	-16.0295	-81.952564	-0.000040	-0.404048	-0.136895	0.003226
1404	7.0150e-01	-16.0889	-82.013060	0.000152	1.515179	0.513357	-0.012099
1405	7.0200e-01	-16.1306	-82.416370	0.001010	10.101194	3.422377	-0.080662
1406	7.0250e-01	-16.1546	-82.565595	0.000374	3.737442	1.266280	-0.029845
1407	7.0300e-01	-16.1963	-82.670455	0.000263	2.626311	0.889818	-0.020972
1408	7.0350e-01	-16.2316	-82.803547	0.000333	3.333394	1.129385	-0.026618
1409	7.0400e-01	-16.2749	-83.106030	0.000758	7.575896	2.566783	-0.060496
1410	7.0450e-01	-16.3167	-83.122162	0.000040	0.404048	0.136895	-0.003226
1411	7.0500e-01	-16.3600	-83.299619	0.000444	4.444526	1.505846	-0.035491
1412	7.0550e-01	-16.3953	-83.573869	0.000687	6.868812	2.327217	-0.054850
1413	7.0600e-01	-16.4386	-83.848120	0.000687	6.868812	2.327217	-0.054850
1414	7.0650e-01	-16.4803	-83.799723	-0.000121	-1.212143	-0.410685	0.009679
1415	7.0700e-01	-16.5220	-84.061874	0.000657	6.565776	2.224545	-0.052430
1416	7.0750e-01	-16.5557	-84.186900	0.000313	3.131370	1.060937	-0.025005
1417	7.0800e-01	-16.6070	-84.521647	0.000838	8.383991	2.840573	-0.066949
1418	7.0850e-01	-16.6375	-84.610376	0.000222	2.222263	0.752923	-0.017746
1419	7.0900e-01	-16.6760	-84.719269	0.000273	2.727322	0.924042	-0.021779
1420	7.0950e-01	-16.7193	-84.969321	0.000626	6.262741	2.121874	-0.050010
1421	7.1000e-01	-16.7610	-85.126612	0.000394	3.939466	1.334727	-0.031458
1422	7.1050e-01	-16.7947	-85.453293	0.000818	8.181967	2.772126	-0.065336
1423	7.1100e-01	-16.8396	-85.412962	-0.000101	-1.010119	-0.342238	0.008066
1424	7.1150e-01	-16.8717	-85.449260	0.000091	0.909107	0.308014	-0.007260
1425	7.1200e-01	-16.9118	-85.759809	0.000778	7.777920	2.635231	-0.062110
1426	7.1250e-01	-16.9551	-85.775941	0.000040	0.404048	0.136895	-0.003226
1427	7.1300e-01	-16.9968	-86.070357	0.000737	7.373872	2.498335	-0.058883
1428	7.1350e-01	-17.0418	-86.352674	0.000707	7.070836	2.395664	-0.056463
1429	7.1400e-01	-17.0738	-86.570461	0.000545	5.454645	1.848084	-0.043557
1430	7.1450e-01	-17.1204	-86.760017	0.000475	4.747561	1.608517	-0.037911
1431	7.1500e-01	-17.1605	-86.868911	0.000273	2.727322	0.924042	-0.021779
1432	7.1550e-01	-17.1926	-87.042334	0.000434	4.343514	1.471622	-0.034685
1433	7.1600e-01	-17.2311	-87.256088	0.000535	5.353633	1.813860	-0.042751
1434	7.1650e-01	-17.2824	-87.256088	-0.000000	-0.000000	-0.000000	0.000000
1435	7.1700e-01	-17.3129	-87.272221	0.000040	0.404048	0.136895	-0.003226
1436	7.1750e-01	-17.3594	-87.562604	0.000727	7.272860	2.464112	-0.058077
1437	7.1800e-01	-17.3963	-87.812656	0.000626	6.262741	2.121874	-0.050010
1438	7.1850e-01	-17.4492	-87.909450	0.000242	2.424287	0.821371	-0.019359
1439	7.1900e-01	-17.4781	-88.143370	0.000586	5.858693	1.984979	-0.046784
1440	7.1950e-01	-17.5214	-88.288562	0.000364	3.636430	1.232056	-0.029038
1441	7.2000e-01	-17.5647	-88.159502	-0.000323	-3.232382	-1.095161	0.025812
1442	7.2050e-01	-17.6032	-88.502316	0.000859	8.586015	2.909021	-0.068563
1443	7.2100e-01	-17.6241	-88.893526	0.000980	9.798159	3.319706	-0.078242
1444	7.2150e-01	-17.6819	-88.901592	0.000020	0.202024	0.068448	-0.001613
1445	7.2200e-01	-17.7220	-89.111314	0.000525	5.252621	1.779636	-0.041944
1446	7.2250e-01	-17.7524	-89.353300	0.000606	6.060717	2.053426	-0.048397
1447	7.2300e-01	-17.7990	-89.421862	0.000172	1.717203	0.581804	-0.013713
1448	7.2350e-01	-17.8327	-89.571087	0.000374	3.737442	1.266280	-0.029845
1449	7.2400e-01	-17.8776	-89.768709	0.000495	4.949585	1.676965	-0.039524
1450	7.2450e-01	-17.9129	-89.938099	0.000424	4.242502	1.437398	-0.033878
1451	7.2500e-01	-17.9562	-90.204283	0.000667	6.666788	2.258769	-0.053237
1452	7.2550e-01	-17.9963	-90.325276	0.000303	3.030358	1.026713	-0.024199
1453	7.2600e-01	-18.0364	-90.353508	0.000071	0.707084	0.239566	-0.005646
1454	7.2650e-01	-18.0765	-90.736652	0.000960	9.596135	3.251258	-0.076629
1455	7.2700e-01	-18.1150	-91.059300	0.000808	8.080956	2.737902	-0.064530
1456	7.2750e-01	-18.1487	-91.067366	0.000020	0.202024	0.068448	-0.001613
1457	7.2800e-01	-18.2096	-91.127863	0.000152	1.515179	0.513357	-0.012099
1458	7.2850e-01	-18.2369	-91.345650	0.000545	5.454645	1.848084	-0.043557
1459	7.2900e-01	-18.2754	-91.660232	0.000788	7.878932	2.669454	-0.062916
1460	7.2950e-01	-18.3123	-91.752993	0.000232	2.323275	0.787147	-0.018552
1461	7.3000e-01	-18.3556	-91.656199	-0.000242	-2.424287	-0.821371	0.019359
1462	7.3050e-01	-18.3893	-91.930450	0.000687	6.868812	2.327217	-0.054850
1463	7.3100e-01	-18.4374	-92.212766	0.000707	7.070836	2.395664	-0.056463
1464	7.3150e-01	-18.4711	-92.361991	0.000374	3.737442	1.266280	-0.029845
1465	7.3200e-01	-18.5145	-92.551547	0.000475	4.747561	1.608517	-0.037911
1466	7.3250e-01	-18.5674	-92.555580	0.000010	0.101012	0.034224	-0.000807
1467	7.3300e-01	-18.6059	-92.603977	0.000121	1.212143	0.410685	-0.009679
1468	7.3350e-01	-18.6396	-92.886294	0.000707	7.070836	2.395664	-0.056463
1469	7.3400e-01	-18.6685	-93.253306	0.000919	9.192087	3.114363	-0.073402
1470	7.3450e-01	-18.7198	-93.378332	0.000313	3.131370	1.060937	-0.025005
1471	7.3500e-01	-18.7567	-93.547722	0.000424	4.242502	1.437398	-0.033878
1472	7.3550e-01	-18.7968	-93.789708	0.000606	6.060717	2.053426	-0.048397
1473	7.3600e-01	-18.8337	-93.878436	0.000222	2.222263	0.752923	-0.017746
1474	7.3650e-01	-18.8754	-94.063959	0.000465	4.646549	1.574294	-0.037105
1475	7.3700e-01	-18.9187	-94.201084	0.000343	3.434406	1.163608	-0.027425
1476	7.3750e-01	-18.9572	-94.511633	0.000778	7.777920	2.635231	-0.062110
1477	7.3800e-01	-18.9925	-94.616493	0.000263	2.626311	0.889818	-0.020972
1478	7.3850e-01	-19.0406	-94.636659	0.000051	0.505060	0.171119	-0.004033
1479	7.3900e-01	-19.0743	-94.802016	0.000414	4.141490	1.403175	-0.033071
1480	7.3950e-01	-19.1192	-95.116597	0.000788	7.878932	2.669454	-0.062916
1481	7.4000e-01	-19.1561	-95.346484	0.000576	5.757681	1.950755	-0.045977
1482	7.4050e-01	-19.1979	-95.491676	0.000364	3.636430	1.232056	-0.029038
1483	7.4100e-01	-19.2331	-95.733662	0.000606	6.060717	2.053426	-0.048397
1484	7.4150e-01	-19.2668	-95.757860	0.000061	0.606072	0.205343	-0.004840
1485	7.4200e-01	-19.3230	-96.177302	0.001051	10.505242	3.559272	-0.083888
1486	7.4250e-01	-19.3519	-96.201501	0.000061	0.606072	0.205343	-0.004840
1487	7.4300e-01	-19.4016	-96.314428	0.000283	2.828334	0.958266	-0.022585
1488	7.4350e-01	-19.4449	-96.491884	0.000444	4.444526	1.505846	-0.035491
1489	7.4400e-01	-19.4770	-96.556414	0.000162	1.616191	0.547580	-0.012906
1490	7.4450e-01	-19.5123	-96.810499	0.000636	6.363752	2.156098	-0.050817
1491	7.4500e-01	-19.5588	-97.104915	0.000737	7.373872	2.498335	-0.058883
1492	7.4550e-01	-19.5989	-97.350934	0.000616	6.161729	2.087650	-0.049204
1493	7.4600e-01	-19.6358	-97.463861	0.000283	2.828334	0.958266	-0.022585
1494	7.4650e-01	-19.6679	-97.548556	0.000212	2.121251	0.718699	-0.016939
1495	7.4700e-01	-19.7096	-97.851038	0.000758	7.575896	2.566783	-0.060496
1496	7.4750e-01	-19.7658	-98.068826	0.000545	5.454645	1.848084	-0.043557
1497	7.4800e-01	-19.7978	-98.088991	0.000051	0.505060	0.171119	-0.004033
1498	7.4850e-01	-19.8363	-98.419705	0.000828	8.282979	2.806349	-0.066143
1499	7.4900e-01	-19.8764	-98.536665	0.000293	2.929346	0.992489	-0.023392
1500	7.4950e-01	-19.9198	-98.613294	0.000192	1.919227	0.650252	-0.015326
1501	7.5000e-01	-19.9551	-98.685890	0.000182	1.818215	0.616028	-0.014519
1502	7.5050e-01	-19.9615	-98.572963	-0.000283	-2.828334	-0.958266	0.022585
1503	7.5100e-01	-19.9390	-98.875445	-0.000758	-7.575896	-2.566783	-0.060496
1504	7.5150e-01	-19.8861	-98.746386	0.000323	3.232382	1.095161	0.025812
1505	7.5200e-01	-19.8588	-98.492301	0.000636	6.363752	2.156098	0.050817
1506	7.5250e-01	-19.8251	-98.589095	-0.000242	-2.424287	-0.821371	-0.019359
1507	7.5300e-01	-19.7866	-98.214017	0.000939	9.394111	3.182811	0.075016
1508	7.5350e-01	-19.7465	-98.169653	0.000111	1.111131	0.376462	0.008873
1509	7.5400e-01	-19.7000	-97.980097	0.000475	4.747561	1.608517	0.037911
1510	7.5450e-01	-19.6615	-98.173686	-0.000485	-4.848573	-1.642741	-0.038718
1511	7.5500e-01	-19.6246	-98.105124	0.000172	1.717203	0.581804	0.013713
1512	7.5550e-01	-19.5781	-98.113190	-0.000020	-0.202024	-0.068448	-0.001613
1513	7.5600e-01	-19.5444	-97.826840	0.000717	7.171848	2.429888	0.057270
1514	7.5650e-01	-19.4994	-97.794575	0.000081	0.808096	0.273790	0.006453
1515	7.5700e-01	-19.4626	-97.673582	0.000303	3.030358	1.026713	0.024199
1516	7.5750e-01	-19.4176	-97.592920	0.000202	2.020239	0.684475	0.016132
1517	7.5800e-01	-19.3807	-97.342868	0.000626	6.262741	2.121874	0.050010
1518	7.5850e-01	-19.3390	-97.004088	0.000849	8.485003	2.874797	0.067756
1519	7.5900e-01	-19.3069	-97.141213	-0.000343	-3.434406	-1.163608	-0.027425
1520	7.5950e-01	-19.2604	-97.334802	-0.000485	-4.848573	-1.642741	-0.038718
1521	7.6000e-01	-19.2235	-96.951657	0.000960	9.596135	3.251258	0.076629
1522	7.6050e-01	-19.1818	-96.782267	0.000424	4.242502	1.437398	0.033878
1523	7.6100e-01	-19.1401	-96.741936	0.000101	1.010119	0.342238	0.008066
1524	7.6150e-01	-19.1016	-96.689506	0.000131	1.313155	0.444909	0.010486
1525	7.6200e-01	-19.0727	-96.487851	0.000505	5.050597	1.711189	0.040331
1526	7.6250e-01	-19.0166	-96.298295	0.000475	4.747561	1.608517	0.037911
1527	7.6300e-01	-18.9893	-96.241832	0.000141	1.414167	0.479133	0.011293
1528	7.6350e-01	-18.9412	-96.241832	0.000000	0.000000	0.000000	0.000000
1529	7.6400e-01	-18.9043	-95.911118	0.000828	8.282979	2.806349	0.066143
1530	7.6450e-01	-18.8658	-95.786092	0.000313	3.131370	1.060937	0.025005
1531	7.6500e-01	-18.8160	-95.729628	0.000141	1.414167	0.479133	0.011293
1532	7.6550e-01	-18.7791	-95.733662	-0.000010	-0.101012	-0.034224	-0.000807
1533	7.6600e-01	-18.7406	-95.713496	0.000051	0.505060	0.171119	0.004033
1534	7.6650e-01	-18.6989	-95.411014	0.000758	7.575896	2.566783	0.060496
1535	7.6700e-01	-18.6652	-95.257756	0.000384	3.838454	1.300503	0.030652
1536	7.6750e-01	-18.6235	-95.136763	0.000303	3.030358	1.026713	0.024199
1537	7.6800e-01	-18.5979	-94.999638	0.000343	3.434406	1.163608	0.027425
1538	7.6850e-01	-18.5481	-94.676990	0.000808	8.080956	2.737902	0.064530
1539	7.6900e-01	-18.5016	-94.681023	-0.000010	-0.101012	-0.034224	-0.000807
1540	7.6950e-01	-18.4599	-94.745552	-0.000162	-1.616191	-0.547580	-0.012906
1541	7.7000e-01	-18.4246	-94.616493	0.000323	3.232382	1.095161	0.025812
1542	7.7050e-01	-18.3845	-94.455169	0.000404	4.040478	1.368951	0.032265
1543	7.7100e-01	-18.3540	-94.221250	0.000586	5.858693	1.984979	0.046784
1544	7.7150e-01	-18.2979	-94.108323	0.000283	2.828334	0.958266	0.022585
1545	7.7200e-01	-18.2658	-93.987330	0.000303	3.030358	1.026713	0.024199
1546	7.7250e-01	-18.2193	-93.757443	0.000576	5.757681	1.950755	0.045977
1547	7.7300e-01	-18.1872	-93.567888	0.000475	4.747561	1.608517	0.037911
1548	7.7350e-01	-18.1455	-93.596119	-0.000071	-0.707084	-0.239566	-0.005646
1549	7.7400e-01	-18.1006	-93.402531	0.000485	4.848573	1.642741	0.038718
1550	7.7450e-01	-18.0669	-93.338001	0.000162	1.616191	0.547580	0.012906
1551	7.7500e-01	-18.0252	-93.297670	0.000101	1.010119	0.342238	0.008066
1552	7.7550e-01	-17.9834	-93.120214	0.000444	4.444526	1.505846	0.035491
1553	7.7600e-01	-17.9417	-93.011320	0.000273	2.727322	0.924042	0.021779
1554	7.7650e-01	-17.9113	-92.648341	0.000909	9.091075	3.080140	0.072596
1555	7.7700e-01	-17.8599	-92.757235	-0.000273	-2.727322	-0.924042	-0.021779
1556	7.7750e-01	-17.8310	-92.829831	-0.000182	-1.818215	-0.616028	-0.014519
1557	7.7800e-01	-17.7845	-92.422488	0.001020	10.202206	3.456601	0.081469
1558	7.7850e-01	-17.7412	-92.196634	0.000566	5.656669	1.916531	0.045171
1559	7.7900e-01	-17.6979	-92.051442	0.000364	3.636430	1.232056	0.029038
1560	7.7950e-01	-17.6562	-92.184535	-0.000333	-3.333394	-1.129385	-0.026618
1561	7.8000e-01	-17.6305	-91.636033	0.001374	13.737624	4.654433	0.109700
1562	7.8050e-01	-17.5936	-91.744927	-0.000273	-2.727322	-0.924042	-0.021779
1563	7.8100e-01	-17.5487	-91.668298	0.000192	1.919227	0.650252	0.015326
1564	7.8150e-01	-17.5022	-91.502941	0.000414	4.141490	1.403175	0.033071
1565	7.8200e-01	-17.4669	-91.248856	0.000636	6.363752	2.156098	0.050817
1566	7.8250e-01	-17.4156	-91.099631	0.000374	3.737442	1.266280	0.029845
1567	7.8300e-01	-17.3851	-91.006870	0.000232	2.323275	0.787147	0.018552
1568	7.8350e-01	-17.3482	-90.966539	0.000101	1.010119	0.342238	0.008066
1569	7.8400e-01	-17.3065	-90.789083	0.000444	4.444526	1.505846	0.035491
1570	7.8450e-01	-17.2712	-90.587428	0.000505	5.050597	1.711189	0.040331
1571	7.8500e-01	-17.2182	-90.486600	0.000253	2.525299	0.855594	0.020165
1572	7.8550e-01	-17.1797	-90.470468	0.000040	0.404048	0.136895	0.003226
1573	7.8600e-01	-17.1460	-90.200250	0.000677	6.767800	2.292993	0.054044
1574	7.8650e-01	-17.1107	-90.115555	0.000212	2.121251	0.718699	0.016939
1575	7.8700e-01	-17.0658	-89.897768	0.000545	5.454645	1.848084	0.043557
1576	7.8750e-01	-17.0209	-89.712245	0.000465	4.646549	1.574294	0.037105
1577	7.8800e-01	-16.9872	-89.692080	0.000051	0.505060	0.171119	0.004033
1578	7.8850e-01	-16.9503	-89.623517	0.000172	1.717203	0.581804	0.013713
1579	7.8900e-01	-16.9038	-89.462193	0.000404	4.040478	1.368951	0.032265
1580	7.8950e-01	-16.8669	-89.304902	0.000394	3.939466	1.334727	0.031458
1581	7.9000e-01	-16.8156	-89.075016	0.000576	5.757681	1.950755	0.045977
1582	7.9050e-01	-16.7787	-88.909659	0.000414	4.141490	1.403175	0.033071
1583	7.9100e-01	-16.7434	-88.865295	0.000111	1.111131	0.376462	0.008873
1584	7.9150e-01	-16.6985	-88.699938	0.000414	4.141490	1.403175	0.033071
1585	7.9200e-01	-16.6616	-88.498283	0.000505	5.050597	1.711189	0.040331
1586	7.9250e-01	-16.6166	-88.570878	-0.000182	-1.818215	-0.616028	-0.014519
1587	7.9300e-01	-16.5846	-88.228065	0.000859	8.586015	2.909021	0.068563
1588	7.9350e-01	-16.5445	-87.905417	0.000808	8.080956	2.737902	0.064530
1589	7.9400e-01	-16.5076	-88.014311	-0.000273	-2.727322	-0.924042	-0.021779
1590	7.9450e-01	-16.4723	-87.744093	0.000677	6.767800	2.292993	0.054044
1591	7.9500e-01	-16.4289	-87.498074	0.000616	6.161729	2.087650	0.049204
1592	7.9550e-01	-16.3808	-87.336750	0.000404	4.040478	1.368951	0.032265
1593	7.9600e-01	-16.3359	-87.397247	-0.000152	-1.515179	-0.513357	-0.012099
1594	7.9650e-01	-16.2958	-87.429512	-0.000081	-0.808096	-0.273790	-0.006453
1595	7.9700e-01	-16.2685	-87.030235	0.001000	10.000182	3.388154	0.079855
1596	7.9750e-01	-16.2172	-86.840679	0.000475	4.747561	1.608517	0.037911
1597	7.9800e-01	-16.1707	-86.804381	0.000091	0.909107	0.308014	0.007260
1598	7.9850e-01	-16.1370	-86.626925	0.000444	4.444526	1.505846	0.035491
1599	7.9900e-01	-16.1017	-86.570461	0.000141	1.414167	0.479133	0.011293
1600	7.9950e-01	-16.0616	-86.284111	0.000717	7.171848	2.429888	0.057270
1601	8.0000e-01	-16.0183	-86.239747	0.000111	1.111131	0.376462	0.008873
1602	8.0050e-01	-15.9814	-86.151019	0.000222	2.222263	0.752923	0.017746
1603	8.0100e-01	-15.9445	-86.034059	0.000293	2.929346	0.992489	0.023392
1604	8.0150e-01	-15.9092	-85.610584	0.001061	10.606254	3.593496	0.084695
1605	8.0200e-01	-15.8659	-85.622683	-0.000030	-0.303036	-0.102671	-0.002420
1606	8.0250e-01	-15.8242	-85.396830	0.000566	5.656669	1.916531	0.045171
1607	8.0300e-01	-15.7905	-85.074182	0.000808	8.080956	2.737902	0.064530
1608	8.0350e-01	-15.7488	-85.070149	0.000010	0.101012	0.034224	0.000807
1609	8.0400e-01	-15.7022	-85.049983	0.000051	0.505060	0.171119	0.004033
1610	8.0450e-01	-15.6589	-85.025785	0.000061	0.606072	0.205343	0.004840
1611	8.0500e-01	-15.6092	-84.638607	0.000970	9.697147	3.285482	0.077435
1612	8.0550e-01	-15.5819	-84.682971	-0.000111	-1.111131	-0.376462	-0.008873
1613	8.0600e-01	-15.5418	-84.348224	0.000838	8.383991	2.840573	0.066949
1614	8.0650e-01	-15.5017	-84.223198	0.000313	3.131370	1.060937	0.025005
1615	8.0700e-01	-15.4584	-84.134470	0.000222	2.222263	0.752923	0.017746
1616	8.0750e-01	-15.4247	-83.940881	0.000485	4.848573	1.642741	0.038718
1617	8.0800e-01	-15.3878	-83.904583	0.000091	0.909107	0.308014	0.007260
1618	8.0850e-01	-15.3445	-83.856186	0.000121	1.212143	0.410685	0.009679
1619	8.0900e-01	-15.3076	-83.650498	0.000515	5.151609	1.745412	0.041138
1620	8.0950e-01	-15.2627	-83.436744	0.000535	5.353633	1.813860	0.042751
1621	8.1000e-01	-15.2226	-83.319784	0.000293	2.929346	0.992489	0.023392
1622	8.1050e-01	-15.1841	-83.214923	0.000263	2.626311	0.889818	0.020972
1623	8.1100e-01	-15.1424	-82.981004	0.000586	5.858693	1.984979	0.046784
1624	8.1150e-01	-15.0942	-82.771283	0.000525	5.252621	1.779636	0.041944
1625	8.1200e-01	-15.0654	-82.666422	0.000263	2.626311	0.889818	0.020972
1626	8.1250e-01	-15.0220	-82.444602	0.000556	5.555657	1.882308	0.044364
1627	8.1300e-01	-14.9803	-82.238914	0.000515	5.151609	1.745412	0.041138
1628	8.1350e-01	-14.9450	-82.218748	0.000051	0.505060	0.171119	0.004033
1629	8.1400e-01	-14.9017	-81.855769	0.000909	9.091075	3.080140	0.072596
1630	8.1450e-01	-14.8552	-82.077590	-0.000556	-5.555657	-1.882308	-0.044364
1631	8.1500e-01	-14.8279	-81.803339	0.000687	6.868812	2.327217	0.054850
1632	8.1550e-01	-14.7862	-81.609750	0.000485	4.848573	1.642741	0.038718
1633	8.1600e-01	-14.7477	-81.512956	0.000242	2.424287	0.821371	0.019359
1634	8.1650e-01	-14.7028	-81.307268	0.000515	5.151609	1.745412	0.041138
1635	8.1700e-01	-14.6515	-80.980587	0.000818	8.181967	2.772126	0.065336
1636	8.1750e-01	-14.6226	-80.871693	0.000273	2.727322	0.924042	0.021779
1637	8.1800e-01	-14.5873	-80.823296	0.000121	1.212143	0.410685	0.009679
1638	8.1850e-01	-14.5408	-80.722469	0.000253	2.525299	0.855594	0.020165
1639	8.1900e-01	-14.5023	-80.476450	0.000616	6.161729	2.087650	0.049204
1640	8.1950e-01	-14.4686	-80.460317	0.000040	0.404048	0.136895	0.003226
1641	8.2000e-01	-14.4269	-80.117504	0.000859	8.586015	2.909021	0.068563
1642	8.2050e-01	-14.3819	-80.165901	-0.000121	-1.212143	-0.410685	-0.009679
1643	8.2100e-01	-14.3322	-80.113471	0.000131	1.313155	0.444909	0.010486
1644	8.2150e-01	-14.3033	-79.867452	0.000616	6.161729	2.087650	0.049204
1645	8.2200e-01	-14.2664	-79.544804	0.000808	8.080956	2.737902	0.064530
1646	8.2250e-01	-14.2199	-79.657730	-0.000283	-2.828334	-0.958266	-0.022585
1647	8.2300e-01	-14.1846	-79.488340	0.000424	4.242502	1.437398	0.033878
1648	8.2350e-01	-14.1509	-79.101163	0.000970	9.697147	3.285482	0.077435
1649	8.2400e-01	-14.1028	-79.113262	-0.000030	-0.303036	-0.102671	-0.002420
1650	8.2450e-01	-14.0643	-78.843045	0.000677	6.767800	2.292993	0.054044
1651	8.2500e-01	-14.0130	-78.766416	0.000192	1.919227	0.650252	0.015326
1652	8.2550e-01	-13.9809	-78.431669	0.000838	8.383991	2.840573	0.066949
1653	8.2600e-01	-13.9376	-78.484099	-0.000131	-1.313155	-0.444909	-0.010486
1654	8.2650e-01	-13.8975	-78.334874	0.000374	3.737442	1.266280	0.029845
1655	8.2700e-01	-13.8638	-78.036425	0.000747	7.474884	2.532559	0.059690
1656	8.2750e-01	-13.8173	-77.863002	0.000434	4.343514	1.471622	0.034685
1657	8.2800e-01	-13.7804	-77.814604	0.000121	1.212143	0.410685	0.009679
1658	8.2850e-01	-13.7354	-77.556486	0.000646	6.464764	2.190321	0.051624
1659	8.2900e-01	-13.7114	-77.487923	0.000172	1.717203	0.581804	0.013713
1660	8.2950e-01	-13.6649	-77.370964	0.000293	2.929346	0.992489	0.023392
1661	8.3000e-01	-13.6215	-77.145110	0.000566	5.656669	1.916531	0.045171
1662	8.3050e-01	-13.5862	-76.919257	0.000566	5.656669	1.916531	0.045171
1663	8.3100e-01	-13.5542	-76.733734	0.000465	4.646549	1.574294	0.037105
1664	8.3150e-01	-13.5092	-76.528046	0.000515	5.151609	1.745412	0.041138
1665	8.3200e-01	-13.4707	-76.362689	0.000414	4.141490	1.403175	0.033071
1666	8.3250e-01	-13.4210	-76.261861	0.000253	2.525299	0.855594	0.020165
1667	8.3300e-01	-13.3729	-76.197332	0.000162	1.616191	0.547580	0.012906
1668	8.3350e-01	-13.3344	-75.979545	0.000545	5.454645	1.848084	0.043557
1669	8.3400e-01	-13.2959	-75.906949	0.000182	1.818215	0.616028	0.014519
1670	8.3450e-01	-13.2590	-75.644797	0.000657	6.565776	2.224545	0.052430
1671	8.3500e-01	-13.2205	-75.410878	0.000586	5.858693	1.984979	0.046784
1672	8.3550e-01	-13.1900	-75.422977	-0.000030	-0.303036	-0.102671	-0.002420
1673	8.3600e-01	-13.1387	-75.221322	0.000505	5.050597	1.711189	0.040331
1674	8.3650e-01	-13.0970	-75.152759	0.000172	1.717203	0.581804	0.013713
1675	8.3700e-01	-13.0585	-74.854310	0.000747	7.474884	2.532559	0.059690
1676	8.3750e-01	-13.0264	-74.801880	0.000131	1.313155	0.444909	0.010486
1677	8.3800e-01	-12.9831	-74.297742	0.001263	12.626493	4.277972	0.100827
1678	8.3850e-01	-12.9446	-74.265478	0.000081	0.808096	0.273790	0.006453
1679	8.3900e-01	-12.8964	-73.866201	0.001000	10.000182	3.388154	0.079855
1680	8.3950e-01	-12.8676	-73.967028	-0.000253	-2.525299	-0.855594	-0.020165
1681	8.4000e-01	-12.8226	-73.761340	0.000515	5.151609	1.745412	0.041138
1682	8.4050e-01	-12.7777	-73.910565	-0.000374	-3.737442	-1.266280	-0.029845
1683	8.4100e-01	-12.7472	-73.652447	0.000646	6.464764	2.190321	0.051624
1684	8.4150e-01	-12.7023	-73.398361	0.000636	6.363752	2.156098	0.050817
1685	8.4200e-01	-12.6622	-73.152342	0.000616	6.161729	2.087650	0.049204
1686	8.4250e-01	-12.6269	-72.950688	0.000505	5.050597	1.711189	0.040331
1687	8.4300e-01	-12.5772	-72.890191	0.000152	1.515179	0.513357	0.012099
1688	8.4350e-01	-12.5419	-72.591742	0.000747	7.474884	2.532559	0.059690
1689	8.4400e-01	-12.4986	-72.503014	0.000222	2.222263	0.752923	0.017746
1690	8.4450e-01	-12.4585	-72.426385	0.000192	1.919227	0.650252	0.015326
1691	8.4500e-01	-12.4232	-72.373954	0.000131	1.313155	0.444909	0.010486
1692	8.4550e-01	-12.3718	-72.406219	-0.000081	-0.808096	-0.273790	-0.006453
1693	8.4600e-01	-12.3478	-72.099704	0.000768	7.676908	2.601007	0.061303
1694	8.4650e-01	-12.2997	-71.914181	0.000465	4.646549	1.574294	0.037105
1695	8.4700e-01	-12.2692	-71.773023	0.000354	3.535418	1.197832	0.028232
1696	8.4750e-01	-12.2194	-71.510871	0.000657	6.565776	2.224545	0.052430
1697	8.4800e-01	-12.1745	-71.385845	0.000313	3.131370	1.060937	0.025005
1698	8.4850e-01	-12.1473	-71.313249	0.000182	1.818215	0.616028	0.014519
1699	8.4900e-01	-12.1071	-71.309216	0.000010	0.101012	0.034224	0.000807
1700	8.4950e-01	-12.0622	-70.909940	0.001000	10.000182	3.388154	0.079855
1701	8.5000e-01	-12.0269	-70.603424	0.000768	7.676908	2.601007	0.061303
1702	8.5050e-01	-11.9756	-70.389670	0.000535	5.353633	1.813860	0.042751
1703	8.5100e-01	-11.9371	-70.369504	0.000051	0.505060	0.171119	0.004033
1704	8.5150e-01	-11.9050	-70.135585	0.000586	5.858693	1.984979	0.046784
1705	8.5200e-01	-11.8649	-69.962161	0.000434	4.343514	1.471622	0.034685
1706	8.5250e-01	-11.8248	-69.893599	0.000172	1.717203	0.581804	0.013713
1707	8.5300e-01	-11.7799	-69.667745	0.000566	5.656669	1.916531	0.045171
1708	8.5350e-01	-11.7462	-69.583050	0.000212	2.121251	0.718699	0.016939
1709	8.5400e-01	-11.7061	-69.458024	0.000313	3.131370	1.060937	0.025005
1710	8.5450e-01	-11.6596	-69.191840	0.000667	6.666788	2.258769	0.053237
1711	8.5500e-01	-11.6162	-69.078913	0.000283	2.828334	0.958266	0.022585
1712	8.5550e-01	-11.5745	-68.824828	0.000636	6.363752	2.156098	0.050817
1713	8.5600e-01	-11.5521	-68.736099	0.000222	2.222263	0.752923	0.017746
1714	8.5650e-01	-11.4991	-68.457816	0.000697	6.969824	2.361440	0.055657
1715	8.5700e-01	-11.4638	-68.461849	-0.000010	-0.101012	-0.034224	-0.000807
1716	8.5750e-01	-11.4237	-68.240028	0.000556	5.555657	1.882308	0.044364
1717	8.5800e-01	-11.3917	-68.179532	0.000152	1.515179	0.513357	0.012099
1718	8.5850e-01	-11.3451	-67.889149	0.000727	7.272860	2.464112	0.058077
1719	8.5900e-01	-11.3098	-67.703626	0.000465	4.646549	1.574294	0.037105
1720	8.5950e-01	-11.2601	-67.340647	0.000909	9.091075	3.080140	0.072596
1721	8.6000e-01	-11.2232	-67.042198	0.000747	7.474884	2.532559	0.059690
1722	8.6050e-01	-11.1895	-66.997834	0.000111	1.111131	0.376462	0.008873
1723	8.6100e-01	-11.1430	-66.933304	0.000162	1.616191	0.547580	0.012906
1724	8.6150e-01	-11.0981	-66.655021	0.000697	6.969824	2.361440	0.055657
1725	8.6200e-01	-11.0612	-66.667120	-0.000030	-0.303036	-0.102671	-0.002420
1726	8.6250e-01	-11.0195	-66.574359	0.000232	2.323275	0.787147	0.018552
1727	8.6300e-01	-10.9890	-66.199280	0.000939	9.394111	3.182811	0.075016
1728	8.6350e-01	-10.9425	-66.142817	0.000141	1.414167	0.479133	0.011293
1729	8.6400e-01	-10.9056	-65.969394	0.000434	4.343514	1.471622	0.034685
1730	8.6450e-01	-10.8623	-65.828235	0.000354	3.535418	1.197832	0.028232
1731	8.6500e-01	-10.8254	-65.743540	0.000212	2.121251	0.718699	0.016939
1732	8.6550e-01	-10.7772	-65.432992	0.000778	7.777920	2.635231	0.062110
1733	8.6600e-01	-10.7468	-65.299899	0.000333	3.333394	1.129385	0.026618
1734	8.6650e-01	-10.7018	-65.211171	0.000222	2.222263	0.752923	0.017746
1735	8.6700e-01	-10.6649	-65.061947	0.000374	3.737442	1.266280	0.029845
1736	8.6750e-01	-10.6313	-64.682835	0.000950	9.495123	3.217035	0.075822
1737	8.6800e-01	-10.5895	-64.485214	0.000495	4.949585	1.676965	0.039524
1738	8.6850e-01	-10.5382	-64.384386	0.000253	2.525299	0.855594	0.020165
1739	8.6900e-01	-10.5125	-64.344055	0.000101	1.010119	0.342238	0.008066
1740	8.6950e-01	-10.4708	-63.936712	0.001020	10.202206	3.456601	0.081469
1741	8.7000e-01	-10.4195	-63.767322	0.000424	4.242502	1.437398	0.033878
1742	8.7050e-01	-10.3730	-63.654395	0.000283	2.828334	0.958266	0.022585
1743	8.7100e-01	-10.3425	-63.533402	0.000303	3.030358	1.026713	0.024199
1744	8.7150e-01	-10.3040	-63.319648	0.000535	5.353633	1.813860	0.042751
1745	8.7200e-01	-10.2623	-63.186556	0.000333	3.333394	1.129385	0.026618
1746	8.7250e-01	-10.2190	-63.037331	0.000374	3.737442	1.266280	0.029845
1747	8.7300e-01	-10.1853	-62.807445	0.000576	5.757681	1.950755	0.045977
1748	8.7350e-01	-10.1500	-62.686452	0.000303	3.030358	1.026713	0.024199
1749	8.7400e-01	-10.1131	-62.492863	0.000485	4.848573	1.642741	0.038718
1750	8.7450e-01	-10.0650	-62.500929	-0.000020	-0.202024	-0.068448	-0.001613
1751	8.7500e-01	-10.0136	-62.162149	0.000849	8.485003	2.874797	0.067756
1752	8.7550e-01	-9.9944	-61.887898	0.000687	6.868812	2.327217	0.054850
1753	8.7600e-01	-9.9398	-61.750773	0.000343	3.434406	1.163608	0.027425
1754	8.7650e-01	-9.9061	-61.464423	0.000717	7.171848	2.429888	0.057270
1755	8.7700e-01	-9.8644	-61.327297	0.000343	3.434406	1.163608	0.027425
1756	8.7750e-01	-9.8227	-61.508787	-0.000455	-4.545537	-1.540070	-0.036298
1757	8.7800e-01	-9.7778	-61.077245	0.001081	10.808278	3.661944	0.086308
1758	8.7850e-01	-9.7441	-60.895756	0.000455	4.545537	1.540070	0.036298
1759	8.7900e-01	-9.7088	-60.677968	0.000545	5.454645	1.848084	0.043557
1760	8.7950e-01	-9.6623	-60.355321	0.000808	8.080956	2.737902	0.064530
1761	8.8000e-01	-9.6190	-60.359354	-0.000010	-0.101012	-0.034224	-0.000807
1762	8.8050e-01	-9.5853	-60.339188	0.000051	0.505060	0.171119	0.004033
1763	8.8100e-01	-9.5452	-60.073004	0.000667	6.666788	2.258769	0.053237
1764	8.8150e-01	-9.5003	-59.847150	0.000566	5.656669	1.916531	0.045171
1765	8.8200e-01	-9.4570	-59.653561	0.000485	4.848573	1.642741	0.038718
1766	8.8250e-01	-9.4281	-59.508370	0.000364	3.636430	1.232056	0.029038
1767	8.8300e-01	-9.3912	-59.242185	0.000667	6.666788	2.258769	0.053237
1768	8.8350e-01	-9.3431	-58.984067	0.000646	6.464764	2.190321	0.051624
1769	8.8400e-01	-9.3046	-58.919537	0.000162	1.616191	0.547580	0.012906
1770	8.8450e-01	-9.2644	-58.766280	0.000384	3.838454	1.300503	0.030652
1771	8.8500e-01	-9.2259	-58.617055	0.000374	3.737442	1.266280	0.029845
1772	8.8550e-01	-9.1762	-58.483963	0.000333	3.333394	1.129385	0.026618
1773	8.8600e-01	-9.1393	-58.403301	0.000202	2.020239	0.684475	0.016132
1774	8.8650e-01	-9.0960	-58.270209	0.000333	3.333394	1.129385	0.026618
1775	8.8700e-01	-9.0559	-57.951594	0.000798	7.979944	2.703678	0.063723
1776	8.8750e-01	-9.0222	-57.713641	0.000596	5.959705	2.019203	0.047591
1777	8.8800e-01	-8.9869	-57.552317	0.000404	4.040478	1.368951	0.032265
1778	8.8850e-01	-8.9468	-57.439390	0.000283	2.828334	0.958266	0.022585
1779	8.8900e-01	-8.8955	-57.306298	0.000333	3.333394	1.129385	0.026618
1780	8.8950e-01	-8.8602	-57.092544	0.000535	5.353633	1.813860	0.042751
1781	8.9000e-01	-8.8217	-56.794095	0.000747	7.474884	2.532559	0.059690
1782	8.9050e-01	-8.7816	-56.572274	0.000556	5.555657	1.882308	0.044364
1783	8.9100e-01	-8.7399	-56.705366	-0.000333	-3.333394	-1.129385	-0.026618
1784	8.9150e-01	-8.6965	-56.350454	0.000889	8.889051	3.011692	0.070983
1785	8.9200e-01	-8.6693	-55.866482	0.001212	12.121433	4.106853	0.096794
1786	8.9250e-01	-8.6179	-55.894714	-0.000071	-0.707084	-0.239566	-0.005646
1787	8.9300e-01	-8.5794	-55.600297	0.000737	7.373872	2.498335	0.058883
1788	8.9350e-01	-8.5457	-55.483337	0.000293	2.929346	0.992489	0.023392
1789	8.9400e-01	-8.4960	-55.580132	-0.000242	-2.424287	-0.821371	-0.019359
1790	8.9450e-01	-8.4623	-55.225219	0.000889	8.889051	3.011692	0.070983
1791	8.9500e-01	-8.4222	-54.838042	0.000970	9.697147	3.285482	0.077435
1792	8.9550e-01	-8.3677	-54.765446	0.000182	1.818215	0.616028	0.014519
1793	8.9600e-01	-8.3420	-54.624287	0.000354	3.535418	1.197832	0.028232
1794	8.9650e-01	-8.2955	-54.386335	0.000596	5.959705	2.019203	0.047591
1795	8.9700e-01	-8.2586	-54.237110	0.000374	3.737442	1.266280	0.029845
1796	8.9750e-01	-8.2281	-54.015290	0.000556	5.555657	1.882308	0.044364
1797	8.9800e-01	-8.1816	-53.866065	0.000374	3.737442	1.266280	0.029845
1798	8.9850e-01	-8.1447	-53.797502	0.000172	1.717203	0.581804	0.013713
1799	8.9900e-01	-8.1014	-53.523252	0.000687	6.868812	2.327217	0.054850
1800	8.9950e-01	-8.0629	-53.281266	0.000606	6.060717	2.053426	0.048397
1801	9.0000e-01	-8.0260	-53.136074	0.000364	3.636430	1.232056	0.029038
1802	9.0050e-01	-7.9795	-52.994916	0.000354	3.535418	1.197832	0.028232
1803	9.0100e-01	-7.9506	-52.986849	0.000020	0.202024	0.068448	0.001613
1804	9.0150e-01	-7.8992	-52.821492	0.000414	4.141490	1.403175	0.033071
1805	9.0200e-01	-7.8607	-52.466580	0.000889	8.889051	3.011692	0.070983
1806	9.0250e-01	-7.8190	-52.176197	0.000727	7.272860	2.464112	0.058077
1807	9.0300e-01	-7.7709	-52.119733	0.000141	1.414167	0.479133	0.011293
1808	9.0350e-01	-7.7388	-51.910012	0.000525	5.252621	1.779636	0.041944
1809	9.0400e-01	-7.7051	-51.736589	0.000434	4.343514	1.471622	0.034685
1810	9.0450e-01	-7.6650	-51.559133	0.000444	4.444526	1.505846	0.035491
1811	9.0500e-01	-7.6137	-51.385709	0.000434	4.343514	1.471622	0.034685
1812	9.0550e-01	-7.5896	-51.333279	0.000131	1.313155	0.444909	0.010486
1813	9.0600e-01	-7.5383	-50.954168	0.000950	9.495123	3.217035	0.075822
1814	9.0650e-01	-7.4998	-50.704116	0.000626	6.262741	2.121874	0.050010
1815	9.0700e-01	-7.4645	-50.530692	0.000434	4.343514	1.471622	0.034685
1816	9.0750e-01	-7.4228	-50.450030	0.000202	2.020239	0.684475	0.016132
1817	9.0800e-01	-7.3811	-50.208044	0.000606	6.060717	2.053426	0.048397
1818	9.0850e-01	-7.3506	-50.014456	0.000485	4.848573	1.642741	0.038718
1819	9.0900e-01	-7.2944	-49.716006	0.000747	7.474884	2.532559	0.059690
1820	9.0950e-01	-7.2575	-49.711973	0.000010	0.101012	0.034224	0.000807
1821	9.1000e-01	-7.2239	-49.514352	0.000495	4.949585	1.676965	0.039524
1822	9.1050e-01	-7.1789	-49.300597	0.000535	5.353633	1.813860	0.042751
1823	9.1100e-01	-7.1404	-49.228002	0.000182	1.818215	0.616028	0.014519
1824	9.1150e-01	-7.1019	-49.006181	0.000556	5.555657	1.882308	0.044364
1825	9.1200e-01	-7.0682	-48.768228	0.000596	5.959705	2.019203	0.047591
1826	9.1250e-01	-7.0153	-48.360885	0.001020	10.202206	3.456601	0.081469
1827	9.1300e-01	-6.9896	-48.385084	-0.000061	-0.606072	-0.205343	-0.004840
1828	9.1350e-01	-6.9511	-48.062436	0.000808	8.080956	2.737902	0.064530
1829	9.1400e-01	-6.9062	-48.054370	0.000020	0.202024	0.068448	0.001613
1830	9.1450e-01	-6.8597	-47.755921	0.000747	7.474884	2.532559	0.059690
1831	9.1500e-01	-6.8212	-47.836583	-0.000202	-2.020239	-0.684475	-0.016132
1832	9.1550e-01	-6.7859	-47.296147	0.001354	13.535600	4.585986	0.108087
1833	9.1600e-01	-6.7442	-47.199353	0.000242	2.424287	0.821371	0.019359
1834	9.1650e-01	-6.7089	-46.989632	0.000525	5.252621	1.779636	0.041944
1835	9.1700e-01	-6.6592	-46.658918	0.000828	8.282979	2.806349	0.066143
1836	9.1750e-01	-6.6191	-46.550024	0.000273	2.727322	0.924042	0.021779
1837	9.1800e-01	-6.5886	-46.283840	0.000667	6.666788	2.258769	0.053237
1838	9.1850e-01	-6.5389	-46.235442	0.000121	1.212143	0.410685	0.009679
1839	9.1900e-01	-6.5020	-46.255608	-0.000051	-0.505060	-0.171119	-0.004033
1840	9.1950e-01	-6.4618	-45.630478	0.001566	15.656851	5.304685	0.125026
1841	9.2000e-01	-6.4169	-45.690974	-0.000152	-1.515179	-0.513357	-0.012099
1842	9.2050e-01	-6.3848	-45.481253	0.000525	5.252621	1.779636	0.041944
1843	9.2100e-01	-6.3399	-45.457054	0.000061	0.606072	0.205343	0.004840
1844	9.2150e-01	-6.3127	-45.041645	0.001040	10.404230	3.525049	0.083082
1845	9.2200e-01	-6.2645	-44.795626	0.000616	6.161729	2.087650	0.049204
1846	9.2250e-01	-6.2196	-44.743196	0.000131	1.313155	0.444909	0.010486
1847	9.2300e-01	-6.1827	-44.674633	0.000172	1.717203	0.581804	0.013713
1848	9.2350e-01	-6.1506	-44.505243	0.000424	4.242502	1.437398	0.033878
1849	9.2400e-01	-6.1105	-44.154363	0.000879	8.788039	2.977468	0.070176
1850	9.2450e-01	-6.0624	-44.089834	0.000162	1.616191	0.547580	0.012906
1851	9.2500e-01	-6.0287	-43.787352	0.000758	7.575896	2.566783	0.060496
1852	9.2550e-01	-5.9950	-43.577630	0.000525	5.252621	1.779636	0.041944
1853	9.2600e-01	-5.9517	-43.323545	0.000636	6.363752	2.156098	0.050817
1854	9.2650e-01	-5.9052	-43.412273	-0.000222	-2.222263	-0.752923	-0.017746
1855	9.2700e-01	-5.8699	-43.234817	0.000444	4.444526	1.505846	0.035491
1856	9.2750e-01	-5.8234	-42.956533	0.000697	6.969824	2.361440	0.055657
1857	9.2800e-01	-5.7801	-42.750845	0.000515	5.151609	1.745412	0.041138
1858	9.2850e-01	-5.7480	-42.149913	0.001505	15.050780	5.099342	0.120186
1859	9.2900e-01	-5.7111	-42.166046	-0.000040	-0.404048	-0.136895	-0.003226
1860	9.2950e-01	-5.6645	-41.903894	0.000657	6.565776	2.224545	0.052430
1861	9.3000e-01	-5.6293	-41.863563	0.000101	1.010119	0.342238	0.008066
1862	9.3050e-01	-5.5859	-41.613511	0.000626	6.262741	2.121874	0.050010
1863	9.3100e-01	-5.5330	-41.423956	0.000475	4.747561	1.608517	0.037911
1864	9.3150e-01	-5.5057	-41.258599	0.000414	4.141490	1.403175	0.033071
1865	9.3200e-01	-5.4672	-41.109374	0.000374	3.737442	1.266280	0.029845
1866	9.3250e-01	-5.4175	-41.048878	0.000152	1.515179	0.513357	0.012099
1867	9.3300e-01	-5.3854	-40.532641	0.001293	12.929529	4.380643	0.103247
1868	9.3350e-01	-5.3501	-40.238225	0.000737	7.373872	2.498335	0.058883
1869	9.3400e-01	-5.3052	-40.234192	0.000010	0.101012	0.034224	0.000807
1870	9.3450e-01	-5.2619	-40.157563	0.000192	1.919227	0.650252	0.015326
1871	9.3500e-01	-5.2202	-39.875246	0.000707	7.070836	2.395664	0.056463
1872	9.3550e-01	-5.1897	-39.653425	0.000556	5.555657	1.882308	0.044364
1873	9.3600e-01	-5.1512	-39.528399	0.000313	3.131370	1.060937	0.025005
1874	9.3650e-01	-5.1047	-39.346910	0.000455	4.545537	1.540070	0.036298
1875	9.3700e-01	-5.0662	-39.181553	0.000414	4.141490	1.403175	0.033071
1876	9.3750e-01	-5.0245	-38.931501	0.000626	6.262741	2.121874	0.050010
1877	9.3800e-01	-4.9892	-38.802442	0.000323	3.232382	1.095161	0.025812
1878	9.3850e-01	-4.9491	-38.516092	0.000717	7.171848	2.429888	0.057270
1879	9.3900e-01	-4.9073	-38.241841	0.000687	6.868812	2.327217	0.054850
1880	9.3950e-01	-4.8576	-38.003888	0.000596	5.959705	2.019203	0.047591
1881	9.4000e-01	-4.8303	-37.931292	0.000182	1.818215	0.616028	0.014519
1882	9.4050e-01	-4.7822	-37.778035	0.000384	3.838454	1.300503	0.030652
1883	9.4100e-01	-4.7469	-37.552181	0.000566	5.656669	1.916531	0.045171
1884	9.4150e-01	-4.7052	-37.439254	0.000283	2.828334	0.958266	0.022585
1885	9.4200e-01	-4.6667	-37.112573	0.000818	8.181967	2.772126	0.065336
1886	9.4250e-01	-4.6186	-37.015779	0.000242	2.424287	0.821371	0.019359
1887	9.4300e-01	-4.5865	-36.709263	0.000768	7.676908	2.601007	0.061303
1888	9.4350e-01	-4.5480	-36.237391	0.001182	11.818397	4.004181	0.094375
1889	9.4400e-01	-4.5047	-36.225292	0.000030	0.303036	0.102671	0.002420
1890	9.4450e-01	-4.4662	-36.176894	0.000121	1.212143	0.410685	0.009679
1891	9.4500e-01	-4.4293	-35.854247	0.000808	8.080956	2.737902	0.064530
1892	9.4550e-01	-4.3956	-35.503367	0.000879	8.788039	2.977468	0.070176
1893	9.4600e-01	-4.3523	-35.390440	0.000283	2.828334	0.958266	0.022585
1894	9.4650e-01	-4.3186	-35.204918	0.000465	4.646549	1.574294	0.037105
1895	9.4700e-01	-4.2592	-35.067792	0.000343	3.434406	1.163608	0.027425
1896	9.4750e-01	-4.2159	-35.031494	0.000091	0.909107	0.308014	0.007260
1897	9.4800e-01	-4.1806	-34.632218	0.001000	10.000182	3.388154	0.079855
1898	9.4850e-01	-4.1373	-34.446695	0.000465	4.646549	1.574294	0.037105
1899	9.4900e-01	-4.1116	-34.087749	0.000899	8.990063	3.045916	0.071789
1900	9.4950e-01	-4.0683	-33.805432	0.000707	7.070836	2.395664	0.056463
1901	9.5000e-01	-4.0250	-33.805432	0.000000	0.000000	0.000000	0.000000
1902	9.5050e-01	-3.9817	-33.793333	0.000030	0.303036	0.102671	0.002420
1903	9.5100e-01	-3.9448	-33.385990	0.001020	10.202206	3.456601	0.081469
1904	9.5150e-01	-3.9159	-33.168203	0.000545	5.454645	1.848084	0.043557
1905	9.5200e-01	-3.8646	-33.051243	0.000293	2.929346	0.992489	0.023392
1906	9.5250e-01	-3.8277	-32.849588	0.000505	5.050597	1.711189	0.040331
1907	9.5300e-01	-3.7844	-32.635834	0.000535	5.353633	1.813860	0.042751
1908	9.5350e-01	-3.7475	-32.430146	0.000515	5.151609	1.745412	0.041138
1909	9.5400e-01	-3.7074	-32.313186	0.000293	2.929346	0.992489	0.023392
1910	9.5450e-01	-3.6593	-31.998604	0.000788	7.878932	2.669454	0.062916
1911	9.5500e-01	-3.6336	-31.684023	0.000788	7.878932	2.669454	0.062916
1912	9.5550e-01	-3.5887	-31.486401	0.000495	4.949585	1.676965	0.039524
1913	9.5600e-01	-3.5438	-31.252481	0.000586	5.858693	1.984979	0.046784
1914	9.5650e-01	-3.5020	-31.393640	-0.000354	-3.535418	-1.197832	-0.028232
1915	9.5700e-01	-3.4651	-31.006462	0.000970	9.697147	3.285482	0.077435
1916	9.5750e-01	-3.4250	-30.820940	0.000465	4.646549	1.574294	0.037105
1917	9.5800e-01	-3.3897	-30.627351	0.000485	4.848573	1.642741	0.038718
1918	9.5850e-01	-3.3384	-30.538623	0.000222	2.222263	0.752923	0.017746
1919	9.5900e-01	-3.3063	-30.284537	0.000636	6.363752	2.156098	0.050817
1920	9.5950e-01	-3.2678	-29.877194	0.001020	10.202206	3.456601	0.081469
1921	9.6000e-01	-3.2213	-29.699738	0.000444	4.444526	1.505846	0.035491
1922	9.6050e-01	-3.1828	-29.320627	0.000950	9.495123	3.217035	0.075822
1923	9.6100e-01	-3.1395	-29.328693	-0.000020	-0.202024	-0.068448	-0.001613
1924	9.6150e-01	-3.1042	-29.280296	0.000121	1.212143	0.410685	0.009679
1925	9.6200e-01	-3.0641	-29.030244	0.000626	6.262741	2.121874	0.050010
1926	9.6250e-01	-3.0192	-28.695497	0.000838	8.383991	2.840573	0.066949
1927	9.6300e-01	-2.9823	-28.622901	0.000182	1.818215	0.616028	0.014519
1928	9.6350e-01	-2.9406	-28.223624	0.001000	10.000182	3.388154	0.079855
1929	9.6400e-01	-2.9037	-27.812248	0.001030	10.303218	3.490825	0.082275
1930	9.6450e-01	-2.8684	-27.779983	0.000081	0.808096	0.273790	0.006453
1931	9.6500e-01	-2.8267	-27.735619	0.000111	1.111131	0.376462	0.008873
1932	9.6550e-01	-2.7882	-27.542030	0.000485	4.848573	1.642741	0.038718
1933	9.6600e-01	-2.7352	-27.308111	0.000586	5.858693	1.984979	0.046784
1934	9.6650e-01	-2.7095	-27.275846	0.000081	0.808096	0.273790	0.006453
1935	9.6700e-01	-2.6630	-26.828172	0.001121	11.212326	3.798839	0.089535
1936	9.6750e-01	-2.6277	-26.614418	0.000535	5.353633	1.813860	0.042751
1937	9.6800e-01	-2.5860	-26.574087	0.000101	1.010119	0.342238	0.008066
1938	9.6850e-01	-2.5363	-26.158678	0.001040	10.404230	3.525049	0.083082
1939	9.6900e-01	-2.5090	-25.928791	0.000576	5.757681	1.950755	0.045977
1940	9.6950e-01	-2.4641	-25.779566	0.000374	3.737442	1.266280	0.029845
1941	9.7000e-01	-2.4240	-25.396422	0.000960	9.596135	3.251258	0.076629
1942	9.7050e-01	-2.3887	-25.348025	0.000121	1.212143	0.410685	0.009679
1943	9.7100e-01	-2.3470	-25.134270	0.000535	5.353633	1.813860	0.042751
1944	9.7150e-01	-2.2989	-24.964880	0.000424	4.242502	1.437398	0.033878
1945	9.7200e-01	-2.2556	-24.609968	0.000889	8.889051	3.011692	0.070983
1946	9.7250e-01	-2.2299	-24.541405	0.000172	1.717203	0.581804	0.013713
1947	9.7300e-01	-2.1834	-24.238923	0.000758	7.575896	2.566783	0.060496
1948	9.7350e-01	-2.1417	-24.033235	0.000515	5.151609	1.745412	0.041138
1949	9.7400e-01	-2.1144	-23.956606	0.000192	1.919227	0.650252	0.015326
1950	9.7450e-01	-2.0646	-23.710587	0.000616	6.161729	2.087650	0.049204
1951	9.7500e-01	-2.0245	-23.416170	0.000737	7.373872	2.498335	0.058883
1952	9.7550e-01	-1.9909	-23.299211	0.000293	2.929346	0.992489	0.023392
1953	9.7600e-01	-1.9379	-23.069324	0.000576	5.757681	1.950755	0.045977
1954	9.7650e-01	-1.8930	-22.686180	0.000960	9.596135	3.251258	0.076629
1955	9.7700e-01	-1.8577	-22.440161	0.000616	6.161729	2.087650	0.049204
1956	9.7750e-01	-1.8240	-22.472425	-0.000081	-0.808096	-0.273790	-0.006453
1957	9.7800e-01	-1.7791	-22.282870	0.000475	4.747561	1.608517	0.037911
1958	9.7850e-01	-1.7422	-21.927957	0.000889	8.889051	3.011692	0.070983
1959	9.7900e-01	-1.7069	-21.774699	0.000384	3.838454	1.300503	0.030652
1960	9.7950e-01	-1.6604	-21.681938	0.000232	2.323275	0.787147	0.018552
1961	9.8000e-01	-1.6171	-21.206032	0.001192	11.919409	4.038405	0.095181
1962	9.8050e-01	-1.5818	-21.044709	0.000404	4.040478	1.368951	0.032265
1963	9.8100e-01	-1.5417	-20.879351	0.000414	4.141490	1.403175	0.033071
1964	9.8150e-01	-1.5048	-20.544604	0.000838	8.383991	2.840573	0.066949
1965	9.8200e-01	-1.4631	-20.294552	0.000626	6.262741	2.121874	0.050010
1966	9.8250e-01	-1.4326	-20.242122	0.000131	1.313155	0.444909	0.010486
1967	9.8300e-01	-1.3828	-19.943673	0.000747	7.474884	2.532559	0.059690
1968	9.8350e-01	-1.3427	-19.786382	0.000394	3.939466	1.334727	0.031458
1969	9.8400e-01	-1.3074	-19.737985	0.000121	1.212143	0.410685	0.009679
1970	9.8450e-01	-1.2513	-19.471800	0.000667	6.666788	2.258769	0.053237
1971	9.8500e-01	-1.2208	-19.153185	0.000798	7.979944	2.703678	0.063723
1972	9.8550e-01	-1.1887	-18.903133	0.000626	6.262741	2.121874	0.050010
1973	9.8600e-01	-1.1406	-18.640982	0.000657	6.565776	2.224545	0.052430
1974	9.8650e-01	-1.0989	-18.515956	0.000313	3.131370	1.060937	0.025005
1975	9.8700e-01	-1.0748	-18.253804	0.000657	6.565776	2.224545	0.052430
1976	9.8750e-01	-1.0187	-18.072315	0.000455	4.545537	1.540070	0.036298
1977	9.8800e-01	-0.9818	-17.850494	0.000556	5.555657	1.882308	0.044364
1978	9.8850e-01	-0.9449	-17.669005	0.000455	4.545537	1.540070	0.036298
1979	9.8900e-01	-0.9048	-17.499615	0.000424	4.242502	1.437398	0.033878
1980	9.8950e-01	-0.8631	-17.241497	0.000646	6.464764	2.190321	0.051624
1981	9.9000e-01	-0.8230	-17.080173	0.000404	4.040478	1.368951	0.032265
1982	9.9050e-01	-0.7813	-16.701061	0.000950	9.495123	3.217035	0.075822
1983	9.9100e-01	-0.7347	-16.604267	0.000242	2.424287	0.821371	0.019359
1984	9.9150e-01	-0.7075	-16.495373	0.000273	2.727322	0.924042	0.021779
1985	9.9200e-01	-0.6625	-16.285652	0.000525	5.252621	1.779636	0.041944
1986	9.9250e-01	-0.6240	-15.942839	0.000859	8.586015	2.909021	0.068563
1987	9.9300e-01	-0.5871	-15.704886	0.000596	5.959705	2.019203	0.047591
1988	9.9350e-01	-0.5503	-15.430635	0.000687	6.868812	2.327217	0.054850
1989	9.9400e-01	-0.5005	-15.095888	0.000838	8.383991	2.840573	0.066949
1990	9.9450e-01	-0.4684	-15.087822	0.000020	0.202024	0.068448	0.001613
1991	9.9500e-01	-0.4203	-14.958763	0.000323	3.232382	1.095161	0.025812
1992	9.9550e-01	-0.3818	-14.829704	0.000323	3.232382	1.095161	0.025812
1993	9.9600e-01	-0.3449	-14.579651	0.000626	6.262741	2.121874	0.050010
1994	9.9650e-01	-0.2968	-14.285235	0.000737	7.373872	2.498335	0.058883
1995	9.9700e-01	-0.2631	-14.140044	0.000364	3.636430	1.232056	0.029038
1996	9.9750e-01	-0.2182	-13.773032	0.000919	9.192087	3.114363	0.073402
1997	9.9800e-01	-0.1781	-13.635906	0.000343	3.434406	1.163608	0.027425
1998	9.9850e-01	-0.1444	-13.543145	0.000232	2.323275	0.787147	0.018552
1999	9.9900e-01	-0.1171	-13.184199	0.000899	8.990063	3.045916	0.071789
2000	9.9950e-01	-0.0545	-12.817187	0.000919	9.192087	3.114363	0.073402
2001	1.0000e+00	-0.0144	-12.671996	0.000919	9.192087	3.114363	0.029038

PMax (uC/cm2):	1.06e+02
Pr (uC/cm2):	3.67e+00
-Pr (uC/cm2):	-5.16e+00
PLoss (uC/cm2):	-5.09e+00
-Vc:	-6.66e-01
C (Max-Eff) (nF):	5.32e-01
K (Eff):	1.80e+03
Vert. (+/-Pr) Shift (uC/cm2):	-7.46e-01
Offset (uC/cm2):	7.51e+00

A (Loop Area - uC/cm2·Volts):	-1.58e-01



Hysteresis Version: 5.48.1 - Radiant Technologies, Inc., 1999 - 9/12/24

