»»»»»»»»»»»»»»»»»»»»»»»»»»»»»»»»»»»» Hysteresis ««««««««««««««««««««««««««««««««««««
»»»  Executed Version:	5.48.1
»»»  Vision Version:	5.48.4 (R)
»»»  Vision Compiled:	9/18/24
»»»  Driver Version:	5.47.0
»»»  Windows Version:	Windows 8 or 8.1
»»»  Processor Information:	x86 (AMD or Intel) - 32 Processors
»»»  Tester Name:	PMF21124-494 (100V)
»»»  Tester S/N:	PMF21124-494
»»»  Internal Amp Type:	100V RevK 270k
»»»  Internal Amp S/N:	iAB2-596/K     
»»»  Execution Count:	1
»»»»»»»»»»»»»»»»»»»»»»»»»»»»»»»»»»»»»»»»»»««««««««««««««««««««««««««««««««««««««««««

Stored:	6/18/2025 - 12:46:40
Configured:	06/18/25 09:47:30 AM
Executed:	06/18/25 12:46:03 PM

»»»»»»»»»»»»»»»»»»»»»»»»»»»»»»»»»»» Sample Info ««««««««««««««««««««««««««««««««««««
Sample Name:	
Lot Name:	
Wafer Name:	
Die Row/Column:	0/0
Capacitor Number:	0
Sample Area (cm2):	1.00e-04
Sample Thickness (microns):	3.00e-01

Amplifier:	Internal

»»»»»»»»»»»»»»»»»»»»»»»»»»»»»»»»»»» Tester Info «««««««««««««««««««««««««««««««««««
Tester Name:	PMF21124-494 (100V)
Tester Serial Number:	PMF21124-494
Return Signal Amp. Level:	0.19 [Index: 3]

»»»»»»»»»»»»»»»»»»»»»»»»»»»»»»»» Hysteresis Info ««««««««««««««««««««««««««««««««««
Task Name:	Hyst-554
Volts:	20.00
Field:	666.67 (kV/cm)
DCBias:	0.00
DCField:	0.00 (kV/cm)
Hysteresis Period (ms):	2.00e+02
Preset:	Enabled
Preset Delay (ms):	1.00e+03
Profile:	Standard Bipolar

»»»»»»»»»»»»»»»»»»»»»»»»»»»»»»»»»»»»»» Data «««««««««««««««««««««««««««««««««««««««
Points:	2009

Valid Data

Point	Time (ms)	Drive Voltage	Measured Polarization (uC/cm2)	Capacitance (uF)	Normalized Capacitance (uF/cm2)	Dielectric Constant	Instantaneous Current (mA)
   1	0.0000e+00	0.0048	-4.347995	0.000223	2.230696	0.755780	0.000089
   2	9.9500e-02	0.0337	-4.259178	0.000223	2.230696	0.755780	0.000089
   3	1.9900e-01	0.0578	-4.101730	0.000395	3.954416	1.339793	0.000158
   4	2.9850e-01	0.1107	-3.916022	0.000466	4.664183	1.580268	0.000187
   5	3.9800e-01	0.1396	-3.770685	0.000365	3.650230	1.236732	0.000146
   6	4.9750e-01	0.1893	-3.633422	0.000345	3.447440	1.168024	0.000138
   7	5.9700e-01	0.2374	-3.471937	0.000406	4.055812	1.374146	0.000162
   8	6.9650e-01	0.2743	-3.322563	0.000375	3.751626	1.271085	0.000150
   9	7.9600e-01	0.3160	-3.132817	0.000477	4.765579	1.614622	0.000191
  10	8.9550e-01	0.3449	-3.035926	0.000243	2.433487	0.824488	0.000097
  11	9.9500e-01	0.3978	-2.862329	0.000436	4.359997	1.477207	0.000174
  12	1.0945e+00	0.4331	-2.696807	0.000416	4.157207	1.408500	0.000166
  13	1.1940e+00	0.4749	-2.515136	0.000456	4.562788	1.545914	0.000183
  14	1.2935e+00	0.5134	-2.377873	0.000345	3.447440	1.168024	0.000138
  15	1.3930e+00	0.5519	-2.232536	0.000365	3.650230	1.236732	0.000146
  16	1.4925e+00	0.5936	-2.135645	0.000243	2.433487	0.824488	0.000097
  17	1.5920e+00	0.6273	-1.925714	0.000527	5.272555	1.786390	0.000211
  18	1.6915e+00	0.6706	-1.800563	0.000314	3.143254	1.064963	0.000126
  19	1.7910e+00	0.7091	-1.606780	0.000487	4.866974	1.648975	0.000195
  20	1.8905e+00	0.7492	-1.437220	0.000426	4.258602	1.442853	0.000170
  21	1.9900e+00	0.7957	-1.295921	0.000355	3.548835	1.202378	0.000142
  22	2.0895e+00	0.8262	-1.134435	0.000406	4.055812	1.374146	0.000162
  23	2.1890e+00	0.8711	-0.989098	0.000365	3.650230	1.236732	0.000146
  24	2.2885e+00	0.9032	-0.835687	0.000385	3.853021	1.305439	0.000154
  25	2.3880e+00	0.9465	-0.698424	0.000345	3.447440	1.168024	0.000138
  26	2.4875e+00	1.0010	-0.500605	0.000497	4.968369	1.683329	0.000199
  27	2.5870e+00	1.0331	-0.347194	0.000385	3.853021	1.305439	0.000154
  28	2.6865e+00	1.0700	-0.213968	0.000335	3.346045	1.133671	0.000134
  29	2.7860e+00	1.1101	-0.020186	0.000487	4.866974	1.648975	0.000195
  30	2.8855e+00	1.1454	0.109003	0.000324	3.244649	1.099317	0.000130
  31	2.9850e+00	1.1919	0.294711	0.000466	4.664183	1.580268	0.000187
  32	3.0845e+00	1.2304	0.460233	0.000416	4.157207	1.408500	0.000166
  33	3.1840e+00	1.2786	0.585385	0.000314	3.143254	1.064963	0.000126
  34	3.2835e+00	1.3042	0.783204	0.000497	4.968369	1.683329	0.000199
  35	3.3830e+00	1.3476	0.940653	0.000395	3.954416	1.339793	0.000158
  36	3.4825e+00	1.3893	1.118287	0.000446	4.461393	1.511561	0.000179
  37	3.5820e+00	1.4294	1.255549	0.000345	3.447440	1.168024	0.000138
  38	3.6815e+00	1.4647	1.421072	0.000416	4.157207	1.408500	0.000166
  39	3.7810e+00	1.5048	1.631003	0.000527	5.272555	1.786390	0.000211
  40	3.8805e+00	1.5481	1.796525	0.000416	4.157207	1.408500	0.000166
  41	3.9800e+00	1.5898	1.901491	0.000264	2.636278	0.893195	0.000105
  42	4.0795e+00	1.6347	2.107385	0.000517	5.171160	1.752036	0.000207
  43	4.1790e+00	1.6684	2.256759	0.000375	3.751626	1.271085	0.000150
  44	4.2785e+00	1.7085	2.446504	0.000477	4.765579	1.614622	0.000191
  45	4.3780e+00	1.7470	2.583767	0.000345	3.447440	1.168024	0.000138
  46	4.4775e+00	1.7807	2.729104	0.000365	3.650230	1.236732	0.000146
  47	4.5770e+00	1.8272	2.939035	0.000527	5.272555	1.786390	0.000211
  48	4.6765e+00	1.8657	3.092446	0.000385	3.853021	1.305439	0.000154
  49	4.7760e+00	1.9042	3.298340	0.000517	5.171160	1.752036	0.000207
  50	4.8755e+00	1.9411	3.427528	0.000324	3.244649	1.099317	0.000130
  51	4.9750e+00	1.9796	3.621311	0.000487	4.866974	1.648975	0.000195
  52	5.0745e+00	2.0245	3.766648	0.000365	3.650230	1.236732	0.000146
  53	5.1740e+00	2.0711	3.968504	0.000507	5.069764	1.717683	0.000203
  54	5.2735e+00	2.1048	4.121916	0.000385	3.853021	1.305439	0.000154
  55	5.3730e+00	2.1449	4.343958	0.000558	5.576741	1.889451	0.000223
  56	5.4725e+00	2.1898	4.448924	0.000264	2.636278	0.893195	0.000105
  57	5.5720e+00	2.2267	4.598298	0.000375	3.751626	1.271085	0.000150
  58	5.6715e+00	2.2620	4.788043	0.000477	4.765579	1.614622	0.000191
  59	5.7710e+00	2.3085	4.965677	0.000446	4.461393	1.511561	0.000179
  60	5.8705e+00	2.3534	5.098902	0.000335	3.346045	1.133671	0.000134
  61	5.9700e+00	2.3775	5.288648	0.000477	4.765579	1.614622	0.000191
  62	6.0695e+00	2.4192	5.450133	0.000406	4.055812	1.374146	0.000162
  63	6.1690e+00	2.4657	5.647953	0.000497	4.968369	1.683329	0.000199
  64	6.2685e+00	2.5090	5.813475	0.000416	4.157207	1.408500	0.000166
  65	6.3680e+00	2.5443	5.974961	0.000406	4.055812	1.374146	0.000162
  66	6.4675e+00	2.5956	6.144521	0.000426	4.258602	1.442853	0.000170
  67	6.5670e+00	2.6261	6.358489	0.000537	5.373950	1.820744	0.000215
  68	6.6665e+00	2.6630	6.524011	0.000416	4.157207	1.408500	0.000166
  69	6.7660e+00	2.7047	6.677423	0.000385	3.853021	1.305439	0.000154
  70	6.8655e+00	2.7416	6.834871	0.000395	3.954416	1.339793	0.000158
  71	6.9650e+00	2.7817	6.992319	0.000395	3.954416	1.339793	0.000158
  72	7.0645e+00	2.8170	7.161879	0.000426	4.258602	1.442853	0.000170
  73	7.1640e+00	2.8539	7.359698	0.000497	4.968369	1.683329	0.000199
  74	7.2635e+00	2.8988	7.569630	0.000527	5.272555	1.786390	0.000211
  75	7.3630e+00	2.9470	7.698818	0.000324	3.244649	1.099317	0.000130
  76	7.4625e+00	2.9759	7.856266	0.000395	3.954416	1.339793	0.000158
  77	7.5620e+00	3.0176	8.021789	0.000416	4.157207	1.408500	0.000166
  78	7.6615e+00	3.0641	8.191348	0.000426	4.258602	1.442853	0.000170
  79	7.7610e+00	3.1058	8.389168	0.000497	4.968369	1.683329	0.000199
  80	7.8605e+00	3.1331	8.574876	0.000466	4.664183	1.580268	0.000187
  81	7.9600e+00	3.1908	8.760585	0.000466	4.664183	1.580268	0.000187
  82	8.0595e+00	3.2213	8.938219	0.000446	4.461393	1.511561	0.000179
  83	8.1590e+00	3.2662	9.039147	0.000253	2.534882	0.858841	0.000101
  84	8.2585e+00	3.3063	9.257152	0.000548	5.475346	1.855097	0.000219
  85	8.3580e+00	3.3496	9.402489	0.000365	3.650230	1.236732	0.000146
  86	8.4575e+00	3.3881	9.588197	0.000466	4.664183	1.580268	0.000187
  87	8.5570e+00	3.4186	9.777943	0.000477	4.765579	1.614622	0.000191
  88	8.6565e+00	3.4539	9.923280	0.000365	3.650230	1.236732	0.000146
  89	8.7560e+00	3.5165	10.064579	0.000355	3.548835	1.202378	0.000142
  90	8.8555e+00	3.5373	10.282585	0.000548	5.475346	1.855097	0.000219
  91	8.9550e+00	3.5806	10.452144	0.000426	4.258602	1.442853	0.000170
  92	9.0545e+00	3.6224	10.654001	0.000507	5.069764	1.717683	0.000203
  93	9.1540e+00	3.6737	10.819524	0.000416	4.157207	1.408500	0.000166
  94	9.2535e+00	3.7026	10.972935	0.000385	3.853021	1.305439	0.000154
  95	9.3530e+00	3.7427	11.158643	0.000466	4.664183	1.580268	0.000187
  96	9.4525e+00	3.7892	11.352426	0.000487	4.866974	1.648975	0.000195
  97	9.5520e+00	3.8277	11.509874	0.000395	3.954416	1.339793	0.000158
  98	9.6515e+00	3.8550	11.711731	0.000507	5.069764	1.717683	0.000203
  99	9.7510e+00	3.8919	11.840919	0.000324	3.244649	1.099317	0.000130
 100	9.8505e+00	3.9368	12.046813	0.000517	5.171160	1.752036	0.000207
 101	9.9500e+00	3.9817	12.224447	0.000446	4.461393	1.511561	0.000179
 102	1.0050e+01	4.0170	12.381895	0.000395	3.954416	1.339793	0.000158
 103	1.0149e+01	4.0555	12.579715	0.000497	4.968369	1.683329	0.000199
 104	1.0248e+01	4.0988	12.757349	0.000446	4.461393	1.511561	0.000179
 105	1.0348e+01	4.1373	12.947094	0.000477	4.765579	1.614622	0.000191
 106	1.0447e+01	4.1758	13.084357	0.000345	3.447440	1.168024	0.000138
 107	1.0547e+01	4.2127	13.302362	0.000548	5.475346	1.855097	0.000219
 108	1.0646e+01	4.2592	13.496145	0.000487	4.866974	1.648975	0.000195
 109	1.0746e+01	4.2913	13.661667	0.000416	4.157207	1.408500	0.000166
 110	1.0845e+01	4.3443	13.831227	0.000426	4.258602	1.442853	0.000170
 111	1.0945e+01	4.3715	14.029047	0.000497	4.968369	1.683329	0.000199
 112	1.1044e+01	4.4229	14.198606	0.000426	4.258602	1.442853	0.000170
 113	1.1144e+01	4.4614	14.339906	0.000355	3.548835	1.202378	0.000142
 114	1.1243e+01	4.4999	14.553874	0.000537	5.373950	1.820744	0.000215
 115	1.1343e+01	4.5448	14.755731	0.000507	5.069764	1.717683	0.000203
 116	1.1443e+01	4.5817	14.892994	0.000345	3.447440	1.168024	0.000138
 117	1.1542e+01	4.6250	15.054479	0.000406	4.055812	1.374146	0.000162
 118	1.1642e+01	4.6635	15.248262	0.000487	4.866974	1.648975	0.000195
 119	1.1741e+01	4.6940	15.429933	0.000456	4.562788	1.545914	0.000183
 120	1.1841e+01	4.7325	15.607567	0.000446	4.461393	1.511561	0.000179
 121	1.1940e+01	4.7822	15.756941	0.000375	3.751626	1.271085	0.000150
 122	1.2040e+01	4.8207	15.954760	0.000497	4.968369	1.683329	0.000199
 123	1.2139e+01	4.8528	16.152580	0.000497	4.968369	1.683329	0.000199
 124	1.2239e+01	4.9057	16.342325	0.000477	4.765579	1.614622	0.000191
 125	1.2338e+01	4.9330	16.471514	0.000324	3.244649	1.099317	0.000130
 126	1.2438e+01	4.9731	16.681445	0.000527	5.272555	1.786390	0.000211
 127	1.2537e+01	5.0196	16.802559	0.000304	3.041859	1.030610	0.000122
 128	1.2636e+01	5.0533	17.008453	0.000517	5.171160	1.752036	0.000207
 129	1.2736e+01	5.0806	17.165901	0.000395	3.954416	1.339793	0.000158
 130	1.2835e+01	5.1384	17.343535	0.000446	4.461393	1.511561	0.000179
 131	1.2935e+01	5.1688	17.581726	0.000598	5.982322	2.026866	0.000239
 132	1.3034e+01	5.2202	17.723026	0.000355	3.548835	1.202378	0.000142
 133	1.3134e+01	5.2507	17.912771	0.000477	4.765579	1.614622	0.000191
 134	1.3233e+01	5.2924	18.074257	0.000406	4.055812	1.374146	0.000162
 135	1.3333e+01	5.3389	18.235742	0.000406	4.055812	1.374146	0.000162
 136	1.3432e+01	5.3758	18.429525	0.000487	4.866974	1.648975	0.000195
 137	1.3532e+01	5.4159	18.603121	0.000436	4.359997	1.477207	0.000174
 138	1.3632e+01	5.4576	18.784793	0.000456	4.562788	1.545914	0.000183
 139	1.3731e+01	5.4961	18.990687	0.000517	5.171160	1.752036	0.000207
 140	1.3831e+01	5.5362	19.136023	0.000365	3.650230	1.236732	0.000146
 141	1.3930e+01	5.5699	19.297509	0.000406	4.055812	1.374146	0.000162
 142	1.4030e+01	5.6084	19.507440	0.000527	5.272555	1.786390	0.000211
 143	1.4129e+01	5.6517	19.689111	0.000456	4.562788	1.545914	0.000183
 144	1.4229e+01	5.6870	19.870782	0.000456	4.562788	1.545914	0.000183
 145	1.4328e+01	5.7335	20.056490	0.000466	4.664183	1.580268	0.000187
 146	1.4428e+01	5.7672	20.213939	0.000395	3.954416	1.339793	0.000158
 147	1.4527e+01	5.8137	20.411758	0.000497	4.968369	1.683329	0.000199
 148	1.4627e+01	5.8490	20.581318	0.000426	4.258602	1.442853	0.000170
 149	1.4726e+01	5.8923	20.738766	0.000395	3.954416	1.339793	0.000158
 150	1.4825e+01	5.9405	20.884103	0.000365	3.650230	1.236732	0.000146
 151	1.4925e+01	5.9742	21.110183	0.000568	5.678136	1.923805	0.000227
 152	1.5024e+01	6.0079	21.287817	0.000446	4.461393	1.511561	0.000179
 153	1.5124e+01	6.0528	21.457376	0.000426	4.258602	1.442853	0.000170
 154	1.5223e+01	6.0929	21.618862	0.000406	4.055812	1.374146	0.000162
 155	1.5323e+01	6.1394	21.848979	0.000578	5.779532	1.958158	0.000231
 156	1.5422e+01	6.1635	21.990278	0.000355	3.548835	1.202378	0.000142
 157	1.5522e+01	6.2020	22.208284	0.000548	5.475346	1.855097	0.000219
 158	1.5621e+01	6.2533	22.385918	0.000446	4.461393	1.511561	0.000179
 159	1.5721e+01	6.2966	22.535292	0.000375	3.751626	1.271085	0.000150
 160	1.5820e+01	6.3335	22.725037	0.000477	4.765579	1.614622	0.000191
 161	1.5920e+01	6.3720	22.894597	0.000426	4.258602	1.442853	0.000170
 162	1.6020e+01	6.4073	23.140862	0.000619	6.185113	2.095573	0.000248
 163	1.6119e+01	6.4458	23.286199	0.000365	3.650230	1.236732	0.000146
 164	1.6218e+01	6.4891	23.419424	0.000335	3.346045	1.133671	0.000134
 165	1.6318e+01	6.5244	23.601096	0.000456	4.562788	1.545914	0.000183
 166	1.6418e+01	6.5629	23.778729	0.000446	4.461393	1.511561	0.000179
 167	1.6517e+01	6.5998	23.972512	0.000487	4.866974	1.648975	0.000195
 168	1.6616e+01	6.6447	24.129960	0.000395	3.954416	1.339793	0.000158
 169	1.6716e+01	6.6752	24.323743	0.000487	4.866974	1.648975	0.000195
 170	1.6816e+01	6.7265	24.505414	0.000456	4.562788	1.545914	0.000183
 171	1.6915e+01	6.7667	24.731494	0.000568	5.678136	1.923805	0.000227
 172	1.7015e+01	6.8084	24.880868	0.000375	3.751626	1.271085	0.000150
 173	1.7114e+01	6.8533	25.046390	0.000416	4.157207	1.408500	0.000166
 174	1.7213e+01	6.8886	25.236135	0.000477	4.765579	1.614622	0.000191
 175	1.7313e+01	6.9255	25.450104	0.000537	5.373950	1.820744	0.000215
 176	1.7413e+01	6.9640	25.599478	0.000375	3.751626	1.271085	0.000150
 177	1.7512e+01	6.9993	25.744815	0.000365	3.650230	1.236732	0.000146
 178	1.7611e+01	7.0490	25.930523	0.000466	4.664183	1.580268	0.000187
 179	1.7711e+01	7.0843	26.136417	0.000517	5.171160	1.752036	0.000207
 180	1.7811e+01	7.1260	26.318088	0.000456	4.562788	1.545914	0.000183
 181	1.7910e+01	7.1677	26.495722	0.000446	4.461393	1.511561	0.000179
 182	1.8009e+01	7.1982	26.689504	0.000487	4.866974	1.648975	0.000195
 183	1.8109e+01	7.2415	26.871175	0.000456	4.562788	1.545914	0.000183
 184	1.8209e+01	7.2864	27.016512	0.000365	3.650230	1.236732	0.000146
 185	1.8308e+01	7.3297	27.226443	0.000527	5.272555	1.786390	0.000211
 186	1.8407e+01	7.3650	27.400040	0.000436	4.359997	1.477207	0.000174
 187	1.8507e+01	7.4035	27.573637	0.000436	4.359997	1.477207	0.000174
 188	1.8607e+01	7.4452	27.763382	0.000477	4.765579	1.614622	0.000191
 189	1.8706e+01	7.4934	27.953128	0.000477	4.765579	1.614622	0.000191
 190	1.8805e+01	7.5190	28.110576	0.000395	3.954416	1.339793	0.000158
 191	1.8905e+01	7.5688	28.280136	0.000426	4.258602	1.442853	0.000170
 192	1.9005e+01	7.5976	28.522364	0.000608	6.083717	2.061219	0.000243
 193	1.9104e+01	7.6490	28.667701	0.000365	3.650230	1.236732	0.000146
 194	1.9203e+01	7.6923	28.821112	0.000385	3.853021	1.305439	0.000154
 195	1.9303e+01	7.7276	29.018932	0.000497	4.968369	1.683329	0.000199
 196	1.9402e+01	7.7677	29.236937	0.000548	5.475346	1.855097	0.000219
 197	1.9502e+01	7.8030	29.374200	0.000345	3.447440	1.168024	0.000138
 198	1.9602e+01	7.8447	29.567982	0.000487	4.866974	1.648975	0.000195
 199	1.9701e+01	7.8736	29.745616	0.000446	4.461393	1.511561	0.000179
 200	1.9800e+01	7.9201	29.923250	0.000446	4.461393	1.511561	0.000179
 201	1.9900e+01	7.9586	30.104921	0.000456	4.562788	1.545914	0.000183
 202	2.0000e+01	8.0035	30.278518	0.000436	4.359997	1.477207	0.000174
 203	2.0099e+01	8.0500	30.456152	0.000446	4.461393	1.511561	0.000179
 204	2.0198e+01	8.0789	30.645897	0.000477	4.765579	1.614622	0.000191
 205	2.0298e+01	8.1222	30.863903	0.000548	5.475346	1.855097	0.000219
 206	2.0398e+01	8.1720	31.025388	0.000406	4.055812	1.374146	0.000162
 207	2.0497e+01	8.2057	31.170725	0.000365	3.650230	1.236732	0.000146
 208	2.0596e+01	8.2425	31.372582	0.000507	5.069764	1.717683	0.000203
 209	2.0696e+01	8.2843	31.566364	0.000487	4.866974	1.648975	0.000195
 210	2.0796e+01	8.3228	31.739961	0.000436	4.359997	1.477207	0.000174
 211	2.0895e+01	8.3420	31.889335	0.000375	3.751626	1.271085	0.000150
 212	2.0994e+01	8.4094	32.095229	0.000517	5.171160	1.752036	0.000207
 213	2.1094e+01	8.4431	32.264789	0.000426	4.258602	1.442853	0.000170
 214	2.1194e+01	8.4864	32.478757	0.000537	5.373950	1.820744	0.000215
 215	2.1293e+01	8.5233	32.664465	0.000466	4.664183	1.580268	0.000187
 216	2.1392e+01	8.5538	32.858248	0.000487	4.866974	1.648975	0.000195
 217	2.1492e+01	8.6067	33.011659	0.000385	3.853021	1.305439	0.000154
 218	2.1591e+01	8.6436	33.177181	0.000416	4.157207	1.408500	0.000166
 219	2.1691e+01	8.6837	33.379038	0.000507	5.069764	1.717683	0.000203
 220	2.1791e+01	8.7238	33.576858	0.000497	4.968369	1.683329	0.000199
 221	2.1890e+01	8.7623	33.718158	0.000355	3.548835	1.202378	0.000142
 222	2.1989e+01	8.8056	33.928089	0.000527	5.272555	1.786390	0.000211
 223	2.2089e+01	8.8345	34.101686	0.000436	4.359997	1.477207	0.000174
 224	2.2189e+01	8.8810	34.279320	0.000446	4.461393	1.511561	0.000179
 225	2.2288e+01	8.9115	34.493288	0.000537	5.373950	1.820744	0.000215
 226	2.2387e+01	8.9645	34.662847	0.000426	4.258602	1.442853	0.000170
 227	2.2487e+01	9.0046	34.848556	0.000466	4.664183	1.580268	0.000187
 228	2.2587e+01	9.0415	34.997930	0.000375	3.751626	1.271085	0.000150
 229	2.2686e+01	9.0767	35.199786	0.000507	5.069764	1.717683	0.000203
 230	2.2785e+01	9.1169	35.365309	0.000416	4.157207	1.408500	0.000166
 231	2.2885e+01	9.1634	35.542943	0.000446	4.461393	1.511561	0.000179
 232	2.2985e+01	9.2067	35.720577	0.000446	4.461393	1.511561	0.000179
 233	2.3084e+01	9.2372	35.934545	0.000537	5.373950	1.820744	0.000215
 234	2.3183e+01	9.2789	36.091993	0.000395	3.954416	1.339793	0.000158
 235	2.3283e+01	9.3158	36.301925	0.000527	5.272555	1.786390	0.000211
 236	2.3383e+01	9.3559	36.439187	0.000345	3.447440	1.168024	0.000138
 237	2.3482e+01	9.3976	36.657193	0.000548	5.475346	1.855097	0.000219
 238	2.3581e+01	9.4281	36.818678	0.000406	4.055812	1.374146	0.000162
 239	2.3681e+01	9.4810	36.988238	0.000426	4.258602	1.442853	0.000170
 240	2.3780e+01	9.5163	37.149723	0.000406	4.055812	1.374146	0.000162
 241	2.3880e+01	9.5484	37.367728	0.000548	5.475346	1.855097	0.000219
 242	2.3980e+01	9.5997	37.517102	0.000375	3.751626	1.271085	0.000150
 243	2.4079e+01	9.6446	37.702811	0.000466	4.664183	1.580268	0.000187
 244	2.4178e+01	9.6767	37.884482	0.000456	4.562788	1.545914	0.000183
 245	2.4278e+01	9.7281	38.070190	0.000466	4.664183	1.580268	0.000187
 246	2.4378e+01	9.7505	38.288195	0.000548	5.475346	1.855097	0.000219
 247	2.4477e+01	9.7906	38.461792	0.000436	4.359997	1.477207	0.000174
 248	2.4576e+01	9.8323	38.603092	0.000355	3.548835	1.202378	0.000142
 249	2.4676e+01	9.8708	38.784763	0.000456	4.562788	1.545914	0.000183
 250	2.4776e+01	9.9142	38.974508	0.000477	4.765579	1.614622	0.000191
 251	2.4875e+01	9.9559	39.160217	0.000466	4.664183	1.580268	0.000187
 252	2.4974e+01	9.9912	39.329776	0.000426	4.258602	1.442853	0.000170
 253	2.5074e+01	10.0281	39.487225	0.000395	3.954416	1.339793	0.000158
 254	2.5174e+01	10.0682	39.693119	0.000517	5.171160	1.752036	0.000207
 255	2.5273e+01	10.1163	39.838455	0.000365	3.650230	1.236732	0.000146
 256	2.5372e+01	10.1516	40.048387	0.000527	5.272555	1.786390	0.000211
 257	2.5472e+01	10.1885	40.213909	0.000416	4.157207	1.408500	0.000166
 258	2.5572e+01	10.2398	40.411729	0.000497	4.968369	1.683329	0.000199
 259	2.5671e+01	10.2671	40.597437	0.000466	4.664183	1.580268	0.000187
 260	2.5770e+01	10.3136	40.762960	0.000416	4.157207	1.408500	0.000166
 261	2.5870e+01	10.3521	40.932519	0.000426	4.258602	1.442853	0.000170
 262	2.5970e+01	10.3858	41.130339	0.000497	4.968369	1.683329	0.000199
 263	2.6069e+01	10.4291	41.267602	0.000345	3.447440	1.168024	0.000138
 264	2.6169e+01	10.4676	41.513867	0.000619	6.185113	2.095573	0.000248
 265	2.6268e+01	10.5125	41.647092	0.000335	3.346045	1.133671	0.000134
 266	2.6367e+01	10.5559	41.852986	0.000517	5.171160	1.752036	0.000207
 267	2.6467e+01	10.5895	42.014472	0.000406	4.055812	1.374146	0.000162
 268	2.6567e+01	10.6345	42.236514	0.000558	5.576741	1.889451	0.000223
 269	2.6666e+01	10.6698	42.357628	0.000304	3.041859	1.030610	0.000122
 270	2.6765e+01	10.7099	42.567559	0.000527	5.272555	1.786390	0.000211
 271	2.6865e+01	10.7484	42.741156	0.000436	4.359997	1.477207	0.000174
 272	2.6965e+01	10.7933	42.914753	0.000436	4.359997	1.477207	0.000174
 273	2.7064e+01	10.8318	43.100461	0.000466	4.664183	1.580268	0.000187
 274	2.7163e+01	10.8735	43.278095	0.000446	4.461393	1.511561	0.000179
 275	2.7263e+01	10.9072	43.496100	0.000548	5.475346	1.855097	0.000219
 276	2.7363e+01	10.9441	43.637400	0.000355	3.548835	1.202378	0.000142
 277	2.7462e+01	10.9874	43.827146	0.000477	4.765579	1.614622	0.000191
 278	2.7561e+01	11.0291	44.020928	0.000487	4.866974	1.648975	0.000195
 279	2.7661e+01	11.0788	44.206636	0.000466	4.664183	1.580268	0.000187
 280	2.7761e+01	11.1141	44.384270	0.000446	4.461393	1.511561	0.000179
 281	2.7860e+01	11.1478	44.553830	0.000426	4.258602	1.442853	0.000170
 282	2.7959e+01	11.1847	44.707241	0.000385	3.853021	1.305439	0.000154
 283	2.8059e+01	11.2264	44.892949	0.000466	4.664183	1.580268	0.000187
 284	2.8159e+01	11.2697	45.094806	0.000507	5.069764	1.717683	0.000203
 285	2.8258e+01	11.3130	45.284552	0.000477	4.765579	1.614622	0.000191
 286	2.8358e+01	11.3467	45.397591	0.000284	2.839068	0.961902	0.000114
 287	2.8457e+01	11.3868	45.643857	0.000619	6.185113	2.095573	0.000248
 288	2.8556e+01	11.4302	45.756896	0.000284	2.839068	0.961902	0.000114
 289	2.8656e+01	11.4703	45.962790	0.000517	5.171160	1.752036	0.000207
 290	2.8756e+01	11.5072	46.112164	0.000375	3.751626	1.271085	0.000150
 291	2.8855e+01	11.5457	46.293836	0.000456	4.562788	1.545914	0.000183
 292	2.8954e+01	11.5954	46.491655	0.000497	4.968369	1.683329	0.000199
 293	2.9054e+01	11.6259	46.689475	0.000497	4.968369	1.683329	0.000199
 294	2.9154e+01	11.6628	46.859035	0.000426	4.258602	1.442853	0.000170
 295	2.9253e+01	11.7141	47.024557	0.000416	4.157207	1.408500	0.000166
 296	2.9352e+01	11.7446	47.129523	0.000264	2.636278	0.893195	0.000105
 297	2.9452e+01	11.7847	47.327342	0.000497	4.968369	1.683329	0.000199
 298	2.9552e+01	11.8136	47.565533	0.000598	5.982322	2.026866	0.000239
 299	2.9651e+01	11.8633	47.722982	0.000395	3.954416	1.339793	0.000158
 300	2.9750e+01	11.9098	47.896578	0.000436	4.359997	1.477207	0.000174
 301	2.9850e+01	11.9403	48.074212	0.000446	4.461393	1.511561	0.000179
 302	2.9950e+01	11.9788	48.243772	0.000426	4.258602	1.442853	0.000170
 303	3.0049e+01	12.0221	48.397183	0.000385	3.853021	1.305439	0.000154
 304	3.0148e+01	12.0622	48.582891	0.000466	4.664183	1.580268	0.000187
 305	3.0248e+01	12.0879	48.776674	0.000487	4.866974	1.648975	0.000195
 306	3.0348e+01	12.1473	48.962382	0.000466	4.664183	1.580268	0.000187
 307	3.0447e+01	12.1858	49.123868	0.000406	4.055812	1.374146	0.000162
 308	3.0547e+01	12.2307	49.277279	0.000385	3.853021	1.305439	0.000154
 309	3.0646e+01	12.2756	49.495284	0.000548	5.475346	1.855097	0.000219
 310	3.0745e+01	12.3077	49.624472	0.000324	3.244649	1.099317	0.000130
 311	3.0845e+01	12.3446	49.810181	0.000466	4.664183	1.580268	0.000187
 312	3.0945e+01	12.3831	49.983778	0.000436	4.359997	1.477207	0.000174
 313	3.1044e+01	12.4328	50.181597	0.000497	4.968369	1.683329	0.000199
 314	3.1143e+01	12.4681	50.335008	0.000385	3.853021	1.305439	0.000154
 315	3.1243e+01	12.5018	50.500531	0.000416	4.157207	1.408500	0.000166
 316	3.1343e+01	12.5467	50.686239	0.000466	4.664183	1.580268	0.000187
 317	3.1442e+01	12.5932	50.859836	0.000436	4.359997	1.477207	0.000174
 318	3.1541e+01	12.6381	51.029396	0.000426	4.258602	1.442853	0.000170
 319	3.1641e+01	12.6574	51.235290	0.000517	5.171160	1.752036	0.000207
 320	3.1741e+01	12.6991	51.412924	0.000446	4.461393	1.511561	0.000179
 321	3.1840e+01	12.7472	51.594595	0.000456	4.562788	1.545914	0.000183
 322	3.1939e+01	12.7873	51.756080	0.000406	4.055812	1.374146	0.000162
 323	3.2039e+01	12.8290	51.917566	0.000406	4.055812	1.374146	0.000162
 324	3.2139e+01	12.8611	52.091162	0.000436	4.359997	1.477207	0.000174
 325	3.2238e+01	12.9077	52.252648	0.000406	4.055812	1.374146	0.000162
 326	3.2337e+01	12.9430	52.470653	0.000548	5.475346	1.855097	0.000219
 327	3.2437e+01	12.9766	52.607916	0.000345	3.447440	1.168024	0.000138
 328	3.2536e+01	13.0200	52.785550	0.000446	4.461393	1.511561	0.000179
 329	3.2636e+01	13.0601	53.007592	0.000558	5.576741	1.889451	0.000223
 330	3.2736e+01	13.1034	53.132743	0.000314	3.143254	1.064963	0.000126
 331	3.2835e+01	13.1531	53.314415	0.000456	4.562788	1.545914	0.000183
 332	3.2934e+01	13.1772	53.483974	0.000426	4.258602	1.442853	0.000170
 333	3.3034e+01	13.2189	53.673720	0.000477	4.765579	1.614622	0.000191
 334	3.3133e+01	13.2510	53.839242	0.000416	4.157207	1.408500	0.000166
 335	3.3233e+01	13.3071	54.020913	0.000456	4.562788	1.545914	0.000183
 336	3.3333e+01	13.3424	54.198547	0.000446	4.461393	1.511561	0.000179
 337	3.3432e+01	13.3809	54.351958	0.000385	3.853021	1.305439	0.000154
 338	3.3532e+01	13.4210	54.513444	0.000406	4.055812	1.374146	0.000162
 339	3.3631e+01	13.4515	54.735486	0.000558	5.576741	1.889451	0.000223
 340	3.3730e+01	13.5028	54.880823	0.000365	3.650230	1.236732	0.000146
 341	3.3830e+01	13.5365	55.058457	0.000446	4.461393	1.511561	0.000179
 342	3.3929e+01	13.5782	55.268388	0.000527	5.272555	1.786390	0.000211
 343	3.4029e+01	13.6215	55.421799	0.000385	3.853021	1.305439	0.000154
 344	3.4129e+01	13.6584	55.595396	0.000436	4.359997	1.477207	0.000174
 345	3.4228e+01	13.6969	55.777067	0.000456	4.562788	1.545914	0.000183
 346	3.4328e+01	13.7435	55.938553	0.000406	4.055812	1.374146	0.000162
 347	3.4427e+01	13.7788	56.128298	0.000477	4.765579	1.614622	0.000191
 348	3.4526e+01	13.8140	56.241338	0.000284	2.839068	0.961902	0.000114
 349	3.4626e+01	13.8622	56.447232	0.000517	5.171160	1.752036	0.000207
 350	3.4725e+01	13.9039	56.624866	0.000446	4.461393	1.511561	0.000179
 351	3.4825e+01	13.9392	56.810574	0.000466	4.664183	1.580268	0.000187
 352	3.4925e+01	13.9745	56.992245	0.000456	4.562788	1.545914	0.000183
 353	3.5024e+01	14.0146	57.153731	0.000406	4.055812	1.374146	0.000162
 354	3.5123e+01	14.0595	57.315216	0.000406	4.055812	1.374146	0.000162
 355	3.5223e+01	14.0980	57.468627	0.000385	3.853021	1.305439	0.000154
 356	3.5322e+01	14.1429	57.638187	0.000426	4.258602	1.442853	0.000170
 357	3.5422e+01	14.1718	57.844081	0.000517	5.171160	1.752036	0.000207
 358	3.5522e+01	14.2151	58.005566	0.000406	4.055812	1.374146	0.000162
 359	3.5621e+01	14.2520	58.154940	0.000375	3.751626	1.271085	0.000150
 360	3.5721e+01	14.3001	58.320463	0.000416	4.157207	1.408500	0.000166
 361	3.5820e+01	14.3290	58.498097	0.000446	4.461393	1.511561	0.000179
 362	3.5919e+01	14.3787	58.647471	0.000375	3.751626	1.271085	0.000150
 363	3.6019e+01	14.4188	58.829142	0.000456	4.562788	1.545914	0.000183
 364	3.6118e+01	14.4525	59.039073	0.000527	5.272555	1.786390	0.000211
 365	3.6218e+01	14.4942	59.192484	0.000385	3.853021	1.305439	0.000154
 366	3.6318e+01	14.5360	59.382230	0.000477	4.765579	1.614622	0.000191
 367	3.6417e+01	14.5841	59.559864	0.000446	4.461393	1.511561	0.000179
 368	3.6517e+01	14.6210	59.689052	0.000324	3.244649	1.099317	0.000130
 369	3.6616e+01	14.6466	59.903020	0.000537	5.373950	1.820744	0.000215
 370	3.6715e+01	14.7012	60.100840	0.000497	4.968369	1.683329	0.000199
 371	3.6815e+01	14.7365	60.270399	0.000426	4.258602	1.442853	0.000170
 372	3.6914e+01	14.7734	60.411699	0.000355	3.548835	1.202378	0.000142
 373	3.7014e+01	14.8087	60.601445	0.000477	4.765579	1.614622	0.000191
 374	3.7114e+01	14.8536	60.746781	0.000365	3.650230	1.236732	0.000146
 375	3.7213e+01	14.8889	60.944601	0.000497	4.968369	1.683329	0.000199
 376	3.7313e+01	14.9306	61.118198	0.000436	4.359997	1.477207	0.000174
 377	3.7412e+01	14.9659	61.332166	0.000537	5.373950	1.820744	0.000215
 378	3.7511e+01	15.0108	61.437132	0.000264	2.636278	0.893195	0.000105
 379	3.7611e+01	15.0477	61.634951	0.000497	4.968369	1.683329	0.000199
 380	3.7711e+01	15.0894	61.816622	0.000456	4.562788	1.545914	0.000183
 381	3.7810e+01	15.1375	62.014442	0.000497	4.968369	1.683329	0.000199
 382	3.7910e+01	15.1664	62.163816	0.000375	3.751626	1.271085	0.000150
 383	3.8009e+01	15.2145	62.349524	0.000466	4.664183	1.580268	0.000187
 384	3.8108e+01	15.2595	62.494861	0.000365	3.650230	1.236732	0.000146
 385	3.8208e+01	15.2915	62.664421	0.000426	4.258602	1.442853	0.000170
 386	3.8307e+01	15.3365	62.874352	0.000527	5.272555	1.786390	0.000211
 387	3.8407e+01	15.3718	63.060060	0.000466	4.664183	1.580268	0.000187
 388	3.8507e+01	15.4103	63.209434	0.000375	3.751626	1.271085	0.000150
 389	3.8606e+01	15.4456	63.415328	0.000517	5.171160	1.752036	0.000207
 390	3.8706e+01	15.4889	63.560665	0.000365	3.650230	1.236732	0.000146
 391	3.8805e+01	15.5402	63.734262	0.000436	4.359997	1.477207	0.000174
 392	3.8904e+01	15.5659	63.887673	0.000385	3.853021	1.305439	0.000154
 393	3.9004e+01	15.6140	64.085493	0.000497	4.968369	1.683329	0.000199
 394	3.9103e+01	15.6493	64.275238	0.000477	4.765579	1.614622	0.000191
 395	3.9203e+01	15.6862	64.428649	0.000385	3.853021	1.305439	0.000154
 396	3.9303e+01	15.7263	64.622432	0.000487	4.866974	1.648975	0.000195
 397	3.9402e+01	15.7696	64.779880	0.000395	3.954416	1.339793	0.000158
 398	3.9502e+01	15.8049	64.945403	0.000416	4.157207	1.408500	0.000166
 399	3.9601e+01	15.8610	65.102851	0.000395	3.954416	1.339793	0.000158
 400	3.9700e+01	15.8931	65.292596	0.000477	4.765579	1.614622	0.000191
 401	3.9800e+01	15.9348	65.454082	0.000406	4.055812	1.374146	0.000162
 402	3.9900e+01	15.9685	65.635753	0.000456	4.562788	1.545914	0.000183
 403	3.9999e+01	16.0135	65.785127	0.000375	3.751626	1.271085	0.000150
 404	4.0099e+01	16.0471	65.991021	0.000517	5.171160	1.752036	0.000207
 405	4.0198e+01	16.0872	66.160580	0.000426	4.258602	1.442853	0.000170
 406	4.0297e+01	16.1322	66.330140	0.000426	4.258602	1.442853	0.000170
 407	4.0397e+01	16.1691	66.487588	0.000395	3.954416	1.339793	0.000158
 408	4.0496e+01	16.2076	66.669260	0.000456	4.562788	1.545914	0.000183
 409	4.0596e+01	16.2477	66.838819	0.000426	4.258602	1.442853	0.000170
 410	4.0696e+01	16.2830	66.980119	0.000355	3.548835	1.202378	0.000142
 411	4.0795e+01	16.3247	67.165827	0.000466	4.664183	1.580268	0.000187
 412	4.0895e+01	16.3664	67.323276	0.000395	3.954416	1.339793	0.000158
 413	4.0994e+01	16.4081	67.508984	0.000466	4.664183	1.580268	0.000187
 414	4.1093e+01	16.4578	67.690655	0.000456	4.562788	1.545914	0.000183
 415	4.1193e+01	16.4915	67.848103	0.000395	3.954416	1.339793	0.000158
 416	4.1292e+01	16.5220	68.025737	0.000446	4.461393	1.511561	0.000179
 417	4.1392e+01	16.5733	68.211445	0.000466	4.664183	1.580268	0.000187
 418	4.1492e+01	16.6102	68.360819	0.000375	3.751626	1.271085	0.000150
 419	4.1591e+01	16.6471	68.558639	0.000497	4.968369	1.683329	0.000199
 420	4.1691e+01	16.6920	68.699939	0.000355	3.548835	1.202378	0.000142
 421	4.1790e+01	16.7241	68.865461	0.000416	4.157207	1.408500	0.000166
 422	4.1889e+01	16.7626	69.071355	0.000517	5.171160	1.752036	0.000207
 423	4.1989e+01	16.8124	69.224767	0.000385	3.853021	1.305439	0.000154
 424	4.2089e+01	16.8460	69.382215	0.000395	3.954416	1.339793	0.000158
 425	4.2188e+01	16.8926	69.555812	0.000436	4.359997	1.477207	0.000174
 426	4.2288e+01	16.9263	69.737483	0.000456	4.562788	1.545914	0.000183
 427	4.2387e+01	16.9680	69.911080	0.000436	4.359997	1.477207	0.000174
 428	4.2486e+01	17.0113	70.080639	0.000426	4.258602	1.442853	0.000170
 429	4.2586e+01	17.0450	70.221939	0.000355	3.548835	1.202378	0.000142
 430	4.2685e+01	17.0835	70.411684	0.000477	4.765579	1.614622	0.000191
 431	4.2785e+01	17.1236	70.593356	0.000456	4.562788	1.545914	0.000183
 432	4.2885e+01	17.1701	70.754841	0.000406	4.055812	1.374146	0.000162
 433	4.2984e+01	17.2054	70.924401	0.000426	4.258602	1.442853	0.000170
 434	4.3084e+01	17.2407	71.097997	0.000436	4.359997	1.477207	0.000174
 435	4.3183e+01	17.2856	71.283706	0.000466	4.664183	1.580268	0.000187
 436	4.3282e+01	17.3177	71.416931	0.000335	3.346045	1.133671	0.000134
 437	4.3382e+01	17.3690	71.610714	0.000487	4.866974	1.648975	0.000195
 438	4.3481e+01	17.3947	71.800459	0.000477	4.765579	1.614622	0.000191
 439	4.3581e+01	17.4460	71.970019	0.000426	4.258602	1.442853	0.000170
 440	4.3681e+01	17.4926	72.115356	0.000365	3.650230	1.236732	0.000146
 441	4.3780e+01	17.5278	72.297027	0.000456	4.562788	1.545914	0.000183
 442	4.3880e+01	17.5567	72.462549	0.000416	4.157207	1.408500	0.000166
 443	4.3979e+01	17.6032	72.680555	0.000548	5.475346	1.855097	0.000219
 444	4.4078e+01	17.6385	72.833966	0.000385	3.853021	1.305439	0.000154
 445	4.4178e+01	17.6899	72.975266	0.000355	3.548835	1.202378	0.000142
 446	4.4278e+01	17.7188	73.148862	0.000436	4.359997	1.477207	0.000174
 447	4.4377e+01	17.7605	73.290162	0.000355	3.548835	1.202378	0.000142
 448	4.4477e+01	17.8038	73.528353	0.000598	5.982322	2.026866	0.000239
 449	4.4576e+01	17.8359	73.645430	0.000294	2.940463	0.996256	0.000118
 450	4.4675e+01	17.8904	73.819027	0.000436	4.359997	1.477207	0.000174
 451	4.4775e+01	17.9209	73.988587	0.000426	4.258602	1.442853	0.000170
 452	4.4874e+01	17.9626	74.121812	0.000335	3.346045	1.133671	0.000134
 453	4.4974e+01	17.9947	74.347892	0.000568	5.678136	1.923805	0.000227
 454	4.5074e+01	18.0332	74.485154	0.000345	3.447440	1.168024	0.000138
 455	4.5173e+01	18.0829	74.662788	0.000446	4.461393	1.511561	0.000179
 456	4.5273e+01	18.1182	74.820237	0.000395	3.954416	1.339793	0.000158
 457	4.5372e+01	18.1631	74.981722	0.000406	4.055812	1.374146	0.000162
 458	4.5471e+01	18.2016	75.183579	0.000507	5.069764	1.717683	0.000203
 459	4.5571e+01	18.2369	75.361213	0.000446	4.461393	1.511561	0.000179
 460	4.5670e+01	18.2834	75.478290	0.000294	2.940463	0.996256	0.000118
 461	4.5770e+01	18.3203	75.643812	0.000416	4.157207	1.408500	0.000166
 462	4.5870e+01	18.3701	75.797223	0.000385	3.853021	1.305439	0.000154
 463	4.5969e+01	18.3941	75.978895	0.000456	4.562788	1.545914	0.000183
 464	4.6069e+01	18.4358	76.156529	0.000446	4.461393	1.511561	0.000179
 465	4.6168e+01	18.4776	76.318014	0.000406	4.055812	1.374146	0.000162
 466	4.6267e+01	18.5177	76.475462	0.000395	3.954416	1.339793	0.000158
 467	4.6367e+01	18.5610	76.665208	0.000477	4.765579	1.614622	0.000191
 468	4.6467e+01	18.6043	76.854953	0.000477	4.765579	1.614622	0.000191
 469	4.6566e+01	18.6428	76.963956	0.000274	2.737673	0.927549	0.000110
 470	4.6666e+01	18.6765	77.137553	0.000436	4.359997	1.477207	0.000174
 471	4.6765e+01	18.7230	77.311149	0.000436	4.359997	1.477207	0.000174
 472	4.6864e+01	18.7519	77.464561	0.000385	3.853021	1.305439	0.000154
 473	4.6964e+01	18.7968	77.634120	0.000426	4.258602	1.442853	0.000170
 474	4.7063e+01	18.8417	77.803680	0.000426	4.258602	1.442853	0.000170
 475	4.7163e+01	18.8882	77.985351	0.000456	4.562788	1.545914	0.000183
 476	4.7263e+01	18.9187	78.175096	0.000477	4.765579	1.614622	0.000191
 477	4.7362e+01	18.9476	78.320433	0.000365	3.650230	1.236732	0.000146
 478	4.7462e+01	19.0053	78.506142	0.000466	4.664183	1.580268	0.000187
 479	4.7561e+01	19.0519	78.635330	0.000324	3.244649	1.099317	0.000130
 480	4.7660e+01	19.0856	78.792778	0.000395	3.954416	1.339793	0.000158
 481	4.7760e+01	19.1241	78.994635	0.000507	5.069764	1.717683	0.000203
 482	4.7859e+01	19.1529	79.152083	0.000395	3.954416	1.339793	0.000158
 483	4.7959e+01	19.1946	79.297420	0.000365	3.650230	1.236732	0.000146
 484	4.8059e+01	19.2444	79.471017	0.000436	4.359997	1.477207	0.000174
 485	4.8158e+01	19.2781	79.652688	0.000456	4.562788	1.545914	0.000183
 486	4.8258e+01	19.3166	79.806099	0.000385	3.853021	1.305439	0.000154
 487	4.8357e+01	19.3551	79.975659	0.000426	4.258602	1.442853	0.000170
 488	4.8456e+01	19.4000	80.129070	0.000385	3.853021	1.305439	0.000154
 489	4.8556e+01	19.4353	80.306704	0.000446	4.461393	1.511561	0.000179
 490	4.8656e+01	19.4802	80.460115	0.000385	3.853021	1.305439	0.000154
 491	4.8755e+01	19.5171	80.629675	0.000426	4.258602	1.442853	0.000170
 492	4.8855e+01	19.5652	80.799235	0.000426	4.258602	1.442853	0.000170
 493	4.8954e+01	19.5845	80.936497	0.000345	3.447440	1.168024	0.000138
 494	4.9053e+01	19.6262	81.134317	0.000497	4.968369	1.683329	0.000199
 495	4.9153e+01	19.6679	81.295802	0.000406	4.055812	1.374146	0.000162
 496	4.9252e+01	19.7160	81.473436	0.000446	4.461393	1.511561	0.000179
 497	4.9352e+01	19.7641	81.634922	0.000406	4.055812	1.374146	0.000162
 498	4.9452e+01	19.7898	81.824667	0.000477	4.765579	1.614622	0.000191
 499	4.9551e+01	19.8331	81.957893	0.000335	3.346045	1.133671	0.000134
 500	4.9651e+01	19.8684	82.111304	0.000385	3.853021	1.305439	0.000154
 501	4.9750e+01	19.9198	82.284901	0.000436	4.359997	1.477207	0.000174
 502	4.9849e+01	19.9695	82.482720	0.000497	4.968369	1.683329	0.000199
 503	4.9949e+01	19.9839	82.624020	0.000355	3.548835	1.202378	0.000142
 504	5.0048e+01	19.9486	82.523092	0.000253	2.534882	0.858841	-0.000101
 505	5.0148e+01	19.9037	82.397940	0.000314	3.143254	1.064963	-0.000126
 506	5.0248e+01	19.8829	82.268752	0.000324	3.244649	1.099317	-0.000130
 507	5.0347e+01	19.8395	82.200121	0.000172	1.723720	0.584012	-0.000069
 508	5.0447e+01	19.7962	82.046710	0.000385	3.853021	1.305439	-0.000154
 509	5.0546e+01	19.7497	81.937707	0.000274	2.737673	0.927549	-0.000110
 510	5.0645e+01	19.7096	81.812556	0.000314	3.143254	1.064963	-0.000126
 511	5.0745e+01	19.6679	81.723739	0.000223	2.230696	0.755780	-0.000089
 512	5.0844e+01	19.6310	81.610699	0.000284	2.839068	0.961902	-0.000114
 513	5.0944e+01	19.6053	81.493622	0.000294	2.940463	0.996256	-0.000118
 514	5.1044e+01	19.5540	81.336174	0.000395	3.954416	1.339793	-0.000158
 515	5.1143e+01	19.5139	81.194874	0.000355	3.548835	1.202378	-0.000142
 516	5.1242e+01	19.4754	81.069723	0.000314	3.143254	1.064963	-0.000126
 517	5.1342e+01	19.4401	80.952646	0.000294	2.940463	0.996256	-0.000118
 518	5.1441e+01	19.3968	80.839606	0.000284	2.839068	0.961902	-0.000114
 519	5.1541e+01	19.3599	80.706381	0.000335	3.346045	1.133671	-0.000134
 520	5.1641e+01	19.3278	80.561044	0.000365	3.650230	1.236732	-0.000146
 521	5.1740e+01	19.2749	80.431855	0.000324	3.244649	1.099317	-0.000130
 522	5.1840e+01	19.2380	80.302667	0.000324	3.244649	1.099317	-0.000130
 523	5.1939e+01	19.2043	80.193664	0.000274	2.737673	0.927549	-0.000110
 524	5.2038e+01	19.1561	80.011993	0.000456	4.562788	1.545914	-0.000183
 525	5.2138e+01	19.1144	79.882805	0.000324	3.244649	1.099317	-0.000130
 526	5.2237e+01	19.0711	79.777839	0.000264	2.636278	0.893195	-0.000105
 527	5.2337e+01	19.0326	79.616354	0.000406	4.055812	1.374146	-0.000162
 528	5.2437e+01	18.9989	79.491203	0.000314	3.143254	1.064963	-0.000126
 529	5.2536e+01	18.9604	79.374126	0.000294	2.940463	0.996256	-0.000118
 530	5.2636e+01	18.9203	79.236863	0.000345	3.447440	1.168024	-0.000138
 531	5.2735e+01	18.8914	79.079415	0.000395	3.954416	1.339793	-0.000158
 532	5.2834e+01	18.8401	78.962338	0.000294	2.940463	0.996256	-0.000118
 533	5.2934e+01	18.7968	78.808927	0.000385	3.853021	1.305439	-0.000154
 534	5.3033e+01	18.7583	78.687813	0.000304	3.041859	1.030610	-0.000122
 535	5.3133e+01	18.7198	78.538439	0.000375	3.751626	1.271085	-0.000150
 536	5.3233e+01	18.6845	78.401176	0.000345	3.447440	1.168024	-0.000138
 537	5.3332e+01	18.6332	78.292173	0.000274	2.737673	0.927549	-0.000110
 538	5.3431e+01	18.5979	78.130688	0.000406	4.055812	1.374146	-0.000162
 539	5.3531e+01	18.5578	78.017648	0.000284	2.839068	0.961902	-0.000114
 540	5.3630e+01	18.5209	77.884423	0.000335	3.346045	1.133671	-0.000134
 541	5.3730e+01	18.4759	77.702752	0.000456	4.562788	1.545914	-0.000183
 542	5.3830e+01	18.4391	77.622009	0.000203	2.027906	0.687073	-0.000081
 543	5.3929e+01	18.3989	77.484746	0.000345	3.447440	1.168024	-0.000138
 544	5.4029e+01	18.3492	77.290964	0.000487	4.866974	1.648975	-0.000195
 545	5.4128e+01	18.3139	77.210221	0.000203	2.027906	0.687073	-0.000081
 546	5.4227e+01	18.2754	77.028550	0.000456	4.562788	1.545914	-0.000183
 547	5.4327e+01	18.2449	76.927621	0.000253	2.534882	0.858841	-0.000101
 548	5.4426e+01	18.2048	76.806507	0.000304	3.041859	1.030610	-0.000122
 549	5.4526e+01	18.1567	76.640985	0.000416	4.157207	1.408500	-0.000166
 550	5.4626e+01	18.1262	76.499685	0.000355	3.548835	1.202378	-0.000142
 551	5.4725e+01	18.0861	76.354348	0.000365	3.650230	1.236732	-0.000146
 552	5.4825e+01	18.0380	76.213048	0.000355	3.548835	1.202378	-0.000142
 553	5.4924e+01	18.0027	76.116157	0.000243	2.433487	0.824488	-0.000097
 554	5.5023e+01	17.9626	75.926412	0.000477	4.765579	1.614622	-0.000191
 555	5.5123e+01	17.9289	75.789149	0.000345	3.447440	1.168024	-0.000138
 556	5.5222e+01	17.8840	75.680147	0.000274	2.737673	0.927549	-0.000110
 557	5.5322e+01	17.8471	75.538847	0.000355	3.548835	1.202378	-0.000142
 558	5.5422e+01	17.8070	75.397547	0.000355	3.548835	1.202378	-0.000142
 559	5.5521e+01	17.7556	75.203765	0.000487	4.866974	1.648975	-0.000195
 560	5.5620e+01	17.7316	75.110910	0.000233	2.332092	0.790134	-0.000093
 561	5.5720e+01	17.6786	74.965574	0.000365	3.650230	1.236732	-0.000146
 562	5.5819e+01	17.6482	74.840422	0.000314	3.143254	1.064963	-0.000126
 563	5.5919e+01	17.6032	74.715271	0.000314	3.143254	1.064963	-0.000126
 564	5.6019e+01	17.5647	74.545711	0.000426	4.258602	1.442853	-0.000170
 565	5.6118e+01	17.5246	74.420560	0.000314	3.143254	1.064963	-0.000126
 566	5.6218e+01	17.4829	74.259075	0.000406	4.055812	1.374146	-0.000162
 567	5.6317e+01	17.4460	74.093552	0.000416	4.157207	1.408500	-0.000166
 568	5.6416e+01	17.4043	73.992624	0.000253	2.534882	0.858841	-0.000101
 569	5.6516e+01	17.3674	73.806916	0.000466	4.664183	1.580268	-0.000187
 570	5.6615e+01	17.3305	73.677727	0.000324	3.244649	1.099317	-0.000130
 571	5.6715e+01	17.2792	73.544502	0.000335	3.346045	1.133671	-0.000134
 572	5.6815e+01	17.2439	73.387053	0.000395	3.954416	1.339793	-0.000158
 573	5.6914e+01	17.1990	73.201345	0.000466	4.664183	1.580268	-0.000187
 574	5.7014e+01	17.1621	73.116565	0.000213	2.129301	0.721427	-0.000085
 575	5.7113e+01	17.1284	72.938931	0.000446	4.461393	1.511561	-0.000179
 576	5.7212e+01	17.0803	72.801669	0.000345	3.447440	1.168024	-0.000138
 577	5.7312e+01	17.0434	72.656332	0.000365	3.650230	1.236732	-0.000146
 578	5.7411e+01	17.0049	72.510995	0.000365	3.650230	1.236732	-0.000146
 579	5.7511e+01	16.9680	72.349510	0.000406	4.055812	1.374146	-0.000162
 580	5.7611e+01	16.9359	72.220321	0.000324	3.244649	1.099317	-0.000130
 581	5.7710e+01	16.8846	72.087096	0.000335	3.346045	1.133671	-0.000134
 582	5.7809e+01	16.8428	71.949833	0.000345	3.447440	1.168024	-0.000138
 583	5.7909e+01	16.8075	71.784311	0.000416	4.157207	1.408500	-0.000166
 584	5.8008e+01	16.7755	71.643011	0.000355	3.548835	1.202378	-0.000142
 585	5.8108e+01	16.7225	71.505748	0.000345	3.447440	1.168024	-0.000138
 586	5.8208e+01	16.6840	71.344263	0.000406	4.055812	1.374146	-0.000162
 587	5.8307e+01	16.6519	71.211037	0.000335	3.346045	1.133671	-0.000134
 588	5.8407e+01	16.6070	71.053589	0.000395	3.954416	1.339793	-0.000158
 589	5.8506e+01	16.5653	70.879992	0.000436	4.359997	1.477207	-0.000174
 590	5.8605e+01	16.5316	70.758878	0.000304	3.041859	1.030610	-0.000122
 591	5.8705e+01	16.4851	70.597393	0.000406	4.055812	1.374146	-0.000162
 592	5.8804e+01	16.4530	70.456093	0.000355	3.548835	1.202378	-0.000142
 593	5.8904e+01	16.4065	70.314793	0.000355	3.548835	1.202378	-0.000142
 594	5.9004e+01	16.3632	70.145233	0.000426	4.258602	1.442853	-0.000170
 595	5.9103e+01	16.3263	70.020082	0.000314	3.143254	1.064963	-0.000126
 596	5.9203e+01	16.2974	69.870708	0.000375	3.751626	1.271085	-0.000150
 597	5.9302e+01	16.2493	69.729408	0.000355	3.548835	1.202378	-0.000142
 598	5.9401e+01	16.2060	69.535626	0.000487	4.866974	1.648975	-0.000195
 599	5.9501e+01	16.1610	69.430660	0.000264	2.636278	0.893195	-0.000105
 600	5.9600e+01	16.1274	69.293398	0.000345	3.447440	1.168024	-0.000138
 601	5.9700e+01	16.0905	69.152098	0.000355	3.548835	1.202378	-0.000142
 602	5.9800e+01	16.0455	68.994650	0.000395	3.954416	1.339793	-0.000158
 603	5.9899e+01	16.0086	68.837201	0.000395	3.954416	1.339793	-0.000158
 604	5.9998e+01	15.9782	68.695902	0.000355	3.548835	1.202378	-0.000142
 605	6.0098e+01	15.9252	68.522305	0.000436	4.359997	1.477207	-0.000174
 606	6.0197e+01	15.8899	68.356782	0.000416	4.157207	1.408500	-0.000166
 607	6.0297e+01	15.8482	68.235668	0.000304	3.041859	1.030610	-0.000122
 608	6.0397e+01	15.8129	68.074183	0.000406	4.055812	1.374146	-0.000162
 609	6.0496e+01	15.7696	67.957106	0.000294	2.940463	0.996256	-0.000118
 610	6.0596e+01	15.7311	67.815806	0.000355	3.548835	1.202378	-0.000142
 611	6.0695e+01	15.6894	67.654321	0.000406	4.055812	1.374146	-0.000162
 612	6.0794e+01	15.6541	67.448427	0.000517	5.171160	1.752036	-0.000207
 613	6.0894e+01	15.6188	67.299053	0.000375	3.751626	1.271085	-0.000150
 614	6.0993e+01	15.5627	67.190050	0.000274	2.737673	0.927549	-0.000110
 615	6.1093e+01	15.5338	67.060862	0.000324	3.244649	1.099317	-0.000130
 616	6.1193e+01	15.4969	66.859005	0.000507	5.069764	1.717683	-0.000203
 617	6.1292e+01	15.4552	66.733854	0.000314	3.143254	1.064963	-0.000126
 618	6.1392e+01	15.4087	66.608703	0.000314	3.143254	1.064963	-0.000126
 619	6.1491e+01	15.3637	66.443180	0.000416	4.157207	1.408500	-0.000166
 620	6.1590e+01	15.3300	66.265546	0.000446	4.461393	1.511561	-0.000179
 621	6.1690e+01	15.2819	66.071763	0.000487	4.866974	1.648975	-0.000195
 622	6.1789e+01	15.2595	65.934501	0.000345	3.447440	1.168024	-0.000138
 623	6.1889e+01	15.2097	65.829535	0.000264	2.636278	0.893195	-0.000105
 624	6.1989e+01	15.1760	65.655939	0.000436	4.359997	1.477207	-0.000174
 625	6.2088e+01	15.1311	65.506564	0.000375	3.751626	1.271085	-0.000150
 626	6.2188e+01	15.0894	65.312782	0.000487	4.866974	1.648975	-0.000195
 627	6.2287e+01	15.0525	65.187631	0.000314	3.143254	1.064963	-0.000126
 628	6.2386e+01	15.0156	65.050368	0.000345	3.447440	1.168024	-0.000138
 629	6.2486e+01	14.9739	64.868697	0.000456	4.562788	1.545914	-0.000183
 630	6.2586e+01	14.9354	64.711249	0.000395	3.954416	1.339793	-0.000158
 631	6.2685e+01	14.8921	64.561875	0.000375	3.751626	1.271085	-0.000150
 632	6.2785e+01	14.8472	64.408464	0.000385	3.853021	1.305439	-0.000154
 633	6.2884e+01	14.8071	64.283312	0.000314	3.143254	1.064963	-0.000126
 634	6.2983e+01	14.7686	64.105678	0.000446	4.461393	1.511561	-0.000179
 635	6.3083e+01	14.7301	63.924007	0.000456	4.562788	1.545914	-0.000183
 636	6.3182e+01	14.6980	63.782708	0.000355	3.548835	1.202378	-0.000142
 637	6.3282e+01	14.6466	63.653519	0.000324	3.244649	1.099317	-0.000130
 638	6.3382e+01	14.6114	63.455700	0.000497	4.968369	1.683329	-0.000199
 639	6.3481e+01	14.5793	63.322474	0.000335	3.346045	1.133671	-0.000134
 640	6.3581e+01	14.5295	63.193286	0.000324	3.244649	1.099317	-0.000130
 641	6.3680e+01	14.4926	63.051986	0.000355	3.548835	1.202378	-0.000142
 642	6.3779e+01	14.4525	62.866278	0.000466	4.664183	1.580268	-0.000187
 643	6.3879e+01	14.4172	62.680569	0.000466	4.664183	1.580268	-0.000187
 644	6.3978e+01	14.3803	62.531195	0.000375	3.751626	1.271085	-0.000150
 645	6.4078e+01	14.3354	62.422193	0.000274	2.737673	0.927549	-0.000110
 646	6.4177e+01	14.3001	62.228410	0.000487	4.866974	1.648975	-0.000195
 647	6.4277e+01	14.2472	62.054813	0.000436	4.359997	1.477207	-0.000174
 648	6.4376e+01	14.2231	61.937736	0.000294	2.940463	0.996256	-0.000118
 649	6.4476e+01	14.1766	61.764140	0.000436	4.359997	1.477207	-0.000174
 650	6.4576e+01	14.1333	61.618803	0.000365	3.650230	1.236732	-0.000146
 651	6.4675e+01	14.0964	61.469429	0.000375	3.751626	1.271085	-0.000150
 652	6.4775e+01	14.0611	61.299869	0.000426	4.258602	1.442853	-0.000170
 653	6.4874e+01	14.0242	61.130309	0.000426	4.258602	1.442853	-0.000170
 654	6.4974e+01	13.9600	60.940564	0.000477	4.765579	1.614622	-0.000191
 655	6.5073e+01	13.9392	60.803301	0.000345	3.447440	1.168024	-0.000138
 656	6.5172e+01	13.8943	60.657964	0.000365	3.650230	1.236732	-0.000146
 657	6.5272e+01	13.8493	60.492442	0.000416	4.157207	1.408500	-0.000166
 658	6.5371e+01	13.8221	60.355179	0.000345	3.447440	1.168024	-0.000138
 659	6.5471e+01	13.7836	60.185620	0.000426	4.258602	1.442853	-0.000170
 660	6.5570e+01	13.7290	60.044320	0.000355	3.548835	1.202378	-0.000142
 661	6.5670e+01	13.6985	59.858612	0.000466	4.664183	1.580268	-0.000187
 662	6.5769e+01	13.6552	59.709238	0.000375	3.751626	1.271085	-0.000150
 663	6.5869e+01	13.6119	59.567938	0.000355	3.548835	1.202378	-0.000142
 664	6.5969e+01	13.5895	59.378192	0.000477	4.765579	1.614622	-0.000191
 665	6.6068e+01	13.5381	59.249004	0.000324	3.244649	1.099317	-0.000130
 666	6.6168e+01	13.4980	59.099630	0.000375	3.751626	1.271085	-0.000150
 667	6.6267e+01	13.4627	58.926033	0.000436	4.359997	1.477207	-0.000174
 668	6.6367e+01	13.4178	58.760511	0.000416	4.157207	1.408500	-0.000166
 669	6.6466e+01	13.3729	58.594988	0.000416	4.157207	1.408500	-0.000166
 670	6.6566e+01	13.3488	58.405243	0.000477	4.765579	1.614622	-0.000191
 671	6.6665e+01	13.2911	58.259906	0.000365	3.650230	1.236732	-0.000146
 672	6.6764e+01	13.2638	58.122643	0.000345	3.447440	1.168024	-0.000138
 673	6.6864e+01	13.2253	57.989418	0.000335	3.346045	1.133671	-0.000134
 674	6.6963e+01	13.1724	57.775450	0.000537	5.373950	1.820744	-0.000215
 675	6.7063e+01	13.1306	57.650298	0.000314	3.143254	1.064963	-0.000126
 676	6.7162e+01	13.1050	57.484776	0.000416	4.157207	1.408500	-0.000166
 677	6.7262e+01	13.0681	57.347513	0.000345	3.447440	1.168024	-0.000138
 678	6.7362e+01	13.0151	57.161805	0.000466	4.664183	1.580268	-0.000187
 679	6.7461e+01	12.9766	56.988208	0.000436	4.359997	1.477207	-0.000174
 680	6.7561e+01	12.9381	56.838834	0.000375	3.751626	1.271085	-0.000150
 681	6.7660e+01	12.8996	56.685423	0.000385	3.853021	1.305439	-0.000154
 682	6.7760e+01	12.8643	56.519900	0.000416	4.157207	1.408500	-0.000166
 683	6.7859e+01	12.8178	56.354378	0.000416	4.157207	1.408500	-0.000166
 684	6.7959e+01	12.7889	56.221152	0.000335	3.346045	1.133671	-0.000134
 685	6.8058e+01	12.7440	56.031407	0.000477	4.765579	1.614622	-0.000191
 686	6.8157e+01	12.7103	55.882033	0.000375	3.751626	1.271085	-0.000150
 687	6.8257e+01	12.6686	55.716510	0.000416	4.157207	1.408500	-0.000166
 688	6.8356e+01	12.6349	55.571173	0.000365	3.650230	1.236732	-0.000146
 689	6.8456e+01	12.5852	55.397577	0.000436	4.359997	1.477207	-0.000174
 690	6.8555e+01	12.5499	55.248203	0.000375	3.751626	1.271085	-0.000150
 691	6.8655e+01	12.5018	55.114977	0.000335	3.346045	1.133671	-0.000134
 692	6.8754e+01	12.4681	54.937343	0.000446	4.461393	1.511561	-0.000179
 693	6.8854e+01	12.4216	54.743561	0.000487	4.866974	1.648975	-0.000195
 694	6.8954e+01	12.3927	54.602261	0.000355	3.548835	1.202378	-0.000142
 695	6.9053e+01	12.3494	54.416553	0.000466	4.664183	1.580268	-0.000187
 696	6.9153e+01	12.3157	54.218733	0.000497	4.968369	1.683329	-0.000199
 697	6.9252e+01	12.2628	54.081470	0.000345	3.447440	1.168024	-0.000138
 698	6.9352e+01	12.2275	53.928059	0.000385	3.853021	1.305439	-0.000154
 699	6.9451e+01	12.1825	53.746388	0.000456	4.562788	1.545914	-0.000183
 700	6.9550e+01	12.1489	53.580866	0.000416	4.157207	1.408500	-0.000166
 701	6.9650e+01	12.1039	53.431491	0.000375	3.751626	1.271085	-0.000150
 702	6.9749e+01	12.0638	53.302303	0.000324	3.244649	1.099317	-0.000130
 703	6.9849e+01	12.0285	53.136781	0.000416	4.157207	1.408500	-0.000166
 704	6.9948e+01	11.9948	52.955109	0.000456	4.562788	1.545914	-0.000183
 705	7.0048e+01	11.9435	52.797661	0.000395	3.954416	1.339793	-0.000158
 706	7.0147e+01	11.9018	52.648287	0.000375	3.751626	1.271085	-0.000150
 707	7.0247e+01	11.8745	52.486802	0.000406	4.055812	1.374146	-0.000162
 708	7.0347e+01	11.8280	52.309168	0.000446	4.461393	1.511561	-0.000179
 709	7.0446e+01	11.7879	52.167868	0.000355	3.548835	1.202378	-0.000142
 710	7.0546e+01	11.7542	52.002345	0.000416	4.157207	1.408500	-0.000166
 711	7.0645e+01	11.7077	51.840860	0.000406	4.055812	1.374146	-0.000162
 712	7.0745e+01	11.6708	51.639003	0.000507	5.069764	1.717683	-0.000203
 713	7.0844e+01	11.6323	51.517889	0.000304	3.041859	1.030610	-0.000122
 714	7.0944e+01	11.5922	51.344292	0.000436	4.359997	1.477207	-0.000174
 715	7.1043e+01	11.5505	51.202993	0.000355	3.548835	1.202378	-0.000142
 716	7.1142e+01	11.5168	51.041507	0.000406	4.055812	1.374146	-0.000162
 717	7.1242e+01	11.4751	50.843687	0.000497	4.968369	1.683329	-0.000199
 718	7.1341e+01	11.4382	50.718536	0.000314	3.143254	1.064963	-0.000126
 719	7.1441e+01	11.3901	50.520717	0.000497	4.968369	1.683329	-0.000199
 720	7.1540e+01	11.3548	50.383454	0.000345	3.447440	1.168024	-0.000138
 721	7.1640e+01	11.3114	50.230043	0.000385	3.853021	1.305439	-0.000154
 722	7.1740e+01	11.2649	50.044335	0.000466	4.664183	1.580268	-0.000187
 723	7.1839e+01	11.2280	49.890923	0.000385	3.853021	1.305439	-0.000154
 724	7.1939e+01	11.1847	49.709252	0.000456	4.562788	1.545914	-0.000183
 725	7.2038e+01	11.1478	49.580064	0.000324	3.244649	1.099317	-0.000130
 726	7.2138e+01	11.1045	49.390319	0.000477	4.765579	1.614622	-0.000191
 727	7.2237e+01	11.0724	49.204610	0.000466	4.664183	1.580268	-0.000187
 728	7.2337e+01	11.0291	49.063311	0.000355	3.548835	1.202378	-0.000142
 729	7.2436e+01	10.9842	48.901825	0.000406	4.055812	1.374146	-0.000162
 730	7.2535e+01	10.9473	48.732265	0.000426	4.258602	1.442853	-0.000170
 731	7.2635e+01	10.9120	48.582891	0.000375	3.751626	1.271085	-0.000150
 732	7.2734e+01	10.8719	48.389109	0.000487	4.866974	1.648975	-0.000195
 733	7.2834e+01	10.8366	48.259921	0.000324	3.244649	1.099317	-0.000130
 734	7.2933e+01	10.7901	48.102472	0.000395	3.954416	1.339793	-0.000158
 735	7.3033e+01	10.7371	47.924838	0.000446	4.461393	1.511561	-0.000179
 736	7.3132e+01	10.7179	47.779501	0.000365	3.650230	1.236732	-0.000146
 737	7.3232e+01	10.6698	47.561496	0.000548	5.475346	1.855097	-0.000219
 738	7.3332e+01	10.6264	47.404048	0.000395	3.954416	1.339793	-0.000158
 739	7.3431e+01	10.5911	47.230451	0.000436	4.359997	1.477207	-0.000174
 740	7.3531e+01	10.5591	47.081077	0.000375	3.751626	1.271085	-0.000150
 741	7.3630e+01	10.5125	46.919592	0.000406	4.055812	1.374146	-0.000162
 742	7.3730e+01	10.4788	46.782329	0.000345	3.447440	1.168024	-0.000138
 743	7.3829e+01	10.4371	46.588546	0.000487	4.866974	1.648975	-0.000195
 744	7.3928e+01	10.3938	46.390727	0.000497	4.968369	1.683329	-0.000199
 745	7.4028e+01	10.3489	46.253464	0.000345	3.447440	1.168024	-0.000138
 746	7.4127e+01	10.3184	46.071793	0.000456	4.562788	1.545914	-0.000183
 747	7.4227e+01	10.2687	45.938568	0.000335	3.346045	1.133671	-0.000134
 748	7.4326e+01	10.2334	45.764971	0.000436	4.359997	1.477207	-0.000174
 749	7.4426e+01	10.1885	45.583300	0.000456	4.562788	1.545914	-0.000183
 750	7.4525e+01	10.1532	45.385480	0.000497	4.968369	1.683329	-0.000199
 751	7.4625e+01	10.1035	45.256292	0.000324	3.244649	1.099317	-0.000130
 752	7.4725e+01	10.0682	45.082695	0.000436	4.359997	1.477207	-0.000174
 753	7.4824e+01	10.0313	44.917172	0.000416	4.157207	1.408500	-0.000166
 754	7.4924e+01	9.9896	44.719353	0.000497	4.968369	1.683329	-0.000199
 755	7.5023e+01	9.9543	44.582090	0.000345	3.447440	1.168024	-0.000138
 756	7.5123e+01	9.9206	44.396382	0.000466	4.664183	1.580268	-0.000187
 757	7.5222e+01	9.8676	44.230859	0.000416	4.157207	1.408500	-0.000166
 758	7.5322e+01	9.8339	44.073411	0.000395	3.954416	1.339793	-0.000158
 759	7.5421e+01	9.7970	43.903851	0.000426	4.258602	1.442853	-0.000170
 760	7.5520e+01	9.7585	43.714106	0.000477	4.765579	1.614622	-0.000191
 761	7.5620e+01	9.7104	43.560695	0.000385	3.853021	1.305439	-0.000154
 762	7.5719e+01	9.6735	43.407283	0.000385	3.853021	1.305439	-0.000154
 763	7.5819e+01	9.6334	43.261947	0.000365	3.650230	1.236732	-0.000146
 764	7.5918e+01	9.6013	43.064127	0.000497	4.968369	1.683329	-0.000199
 765	7.6018e+01	9.5516	42.894567	0.000426	4.258602	1.442853	-0.000170
 766	7.6118e+01	9.5195	42.733082	0.000406	4.055812	1.374146	-0.000162
 767	7.6217e+01	9.4794	42.571596	0.000406	4.055812	1.374146	-0.000162
 768	7.6317e+01	9.4457	42.389925	0.000456	4.562788	1.545914	-0.000183
 769	7.6416e+01	9.3928	42.244588	0.000365	3.650230	1.236732	-0.000146
 770	7.6516e+01	9.3559	42.075029	0.000426	4.258602	1.442853	-0.000170
 771	7.6615e+01	9.3190	41.893358	0.000456	4.562788	1.545914	-0.000183
 772	7.6715e+01	9.2821	41.752058	0.000355	3.548835	1.202378	-0.000142
 773	7.6814e+01	9.2404	41.554238	0.000497	4.968369	1.683329	-0.000199
 774	7.6913e+01	9.2019	41.380641	0.000436	4.359997	1.477207	-0.000174
 775	7.7013e+01	9.1634	41.194933	0.000466	4.664183	1.580268	-0.000187
 776	7.7112e+01	9.1120	41.069782	0.000314	3.143254	1.064963	-0.000126
 777	7.7212e+01	9.0848	40.892148	0.000446	4.461393	1.511561	-0.000179
 778	7.7311e+01	9.0382	40.686254	0.000517	5.171160	1.752036	-0.000207
 779	7.7411e+01	9.0030	40.524769	0.000406	4.055812	1.374146	-0.000162
 780	7.7510e+01	8.9580	40.359246	0.000416	4.157207	1.408500	-0.000166
 781	7.7610e+01	8.9147	40.189686	0.000426	4.258602	1.442853	-0.000170
 782	7.7710e+01	8.8778	40.028201	0.000406	4.055812	1.374146	-0.000162
 783	7.7809e+01	8.8377	39.830381	0.000497	4.968369	1.683329	-0.000199
 784	7.7909e+01	8.8040	39.713304	0.000294	2.940463	0.996256	-0.000118
 785	7.8008e+01	8.7607	39.527596	0.000466	4.664183	1.580268	-0.000187
 786	7.8108e+01	8.7142	39.366111	0.000406	4.055812	1.374146	-0.000162
 787	7.8207e+01	8.6805	39.168291	0.000497	4.968369	1.683329	-0.000199
 788	7.8306e+01	8.6468	39.014880	0.000385	3.853021	1.305439	-0.000154
 789	7.8406e+01	8.6019	38.817060	0.000497	4.968369	1.683329	-0.000199
 790	7.8505e+01	8.5586	38.691909	0.000314	3.143254	1.064963	-0.000126
 791	7.8605e+01	8.5201	38.506201	0.000466	4.664183	1.580268	-0.000187
 792	7.8704e+01	8.4864	38.328567	0.000446	4.461393	1.511561	-0.000179
 793	7.8804e+01	8.4399	38.171118	0.000395	3.954416	1.339793	-0.000158
 794	7.8903e+01	8.4046	37.973299	0.000497	4.968369	1.683329	-0.000199
 795	7.9003e+01	8.3629	37.783553	0.000477	4.765579	1.614622	-0.000191
 796	7.9103e+01	8.3260	37.597845	0.000466	4.664183	1.580268	-0.000187
 797	7.9202e+01	8.2827	37.440397	0.000395	3.954416	1.339793	-0.000158
 798	7.9302e+01	8.2329	37.311208	0.000324	3.244649	1.099317	-0.000130
 799	7.9401e+01	8.1944	37.101277	0.000527	5.272555	1.786390	-0.000211
 800	7.9501e+01	8.1655	36.935755	0.000416	4.157207	1.408500	-0.000166
 801	7.9600e+01	8.1206	36.733898	0.000507	5.069764	1.717683	-0.000203
 802	7.9700e+01	8.0837	36.544153	0.000477	4.765579	1.614622	-0.000191
 803	7.9799e+01	8.0388	36.406890	0.000345	3.447440	1.168024	-0.000138
 804	7.9898e+01	8.0035	36.213108	0.000487	4.866974	1.648975	-0.000195
 805	7.9998e+01	7.9586	36.027399	0.000466	4.664183	1.580268	-0.000187
 806	8.0097e+01	7.9121	35.873988	0.000385	3.853021	1.305439	-0.000154
 807	8.0197e+01	7.8800	35.704428	0.000426	4.258602	1.442853	-0.000170
 808	8.0296e+01	7.8463	35.542943	0.000406	4.055812	1.374146	-0.000162
 809	8.0396e+01	7.8126	35.333012	0.000527	5.272555	1.786390	-0.000211
 810	8.0496e+01	7.7613	35.167489	0.000416	4.157207	1.408500	-0.000166
 811	8.0595e+01	7.7228	35.001967	0.000416	4.157207	1.408500	-0.000166
 812	8.0695e+01	7.6827	34.836444	0.000416	4.157207	1.408500	-0.000166
 813	8.0794e+01	7.6474	34.658810	0.000446	4.461393	1.511561	-0.000179
 814	8.0894e+01	7.6025	34.501362	0.000395	3.954416	1.339793	-0.000158
 815	8.0993e+01	7.5656	34.319691	0.000456	4.562788	1.545914	-0.000183
 816	8.1093e+01	7.5239	34.138020	0.000456	4.562788	1.545914	-0.000183
 817	8.1192e+01	7.4805	33.952312	0.000466	4.664183	1.580268	-0.000187
 818	8.1291e+01	7.4388	33.778715	0.000436	4.359997	1.477207	-0.000174
 819	8.1391e+01	7.4100	33.609155	0.000426	4.258602	1.442853	-0.000170
 820	8.1490e+01	7.3602	33.431521	0.000446	4.461393	1.511561	-0.000179
 821	8.1590e+01	7.3313	33.278110	0.000385	3.853021	1.305439	-0.000154
 822	8.1689e+01	7.2832	33.064142	0.000537	5.373950	1.820744	-0.000215
 823	8.1789e+01	7.2431	32.910731	0.000385	3.853021	1.305439	-0.000154
 824	8.1888e+01	7.2078	32.716948	0.000487	4.866974	1.648975	-0.000195
 825	8.1988e+01	7.1581	32.527203	0.000477	4.765579	1.614622	-0.000191
 826	8.2088e+01	7.1276	32.389940	0.000345	3.447440	1.168024	-0.000138
 827	8.2187e+01	7.0827	32.188083	0.000507	5.069764	1.717683	-0.000203
 828	8.2287e+01	7.0474	32.014486	0.000436	4.359997	1.477207	-0.000174
 829	8.2386e+01	6.9993	31.848964	0.000416	4.157207	1.408500	-0.000166
 830	8.2486e+01	6.9576	31.699590	0.000375	3.751626	1.271085	-0.000150
 831	8.2585e+01	6.9239	31.550216	0.000375	3.751626	1.271085	-0.000150
 832	8.2684e+01	6.8870	31.324136	0.000568	5.678136	1.923805	-0.000227
 833	8.2784e+01	6.8469	31.182836	0.000355	3.548835	1.202378	-0.000142
 834	8.2883e+01	6.8036	30.972905	0.000527	5.272555	1.786390	-0.000211
 835	8.2983e+01	6.7699	30.827568	0.000365	3.650230	1.236732	-0.000146
 836	8.3082e+01	6.7330	30.633786	0.000487	4.866974	1.648975	-0.000195
 837	8.3182e+01	6.6848	30.444041	0.000477	4.765579	1.614622	-0.000191
 838	8.3281e+01	6.6479	30.314852	0.000324	3.244649	1.099317	-0.000130
 839	8.3381e+01	6.6110	30.096847	0.000548	5.475346	1.855097	-0.000219
 840	8.3481e+01	6.5790	29.915176	0.000456	4.562788	1.545914	-0.000183
 841	8.3580e+01	6.5164	29.777913	0.000345	3.447440	1.168024	-0.000138
 842	8.3680e+01	6.4907	29.580094	0.000497	4.968369	1.683329	-0.000199
 843	8.3779e+01	6.4554	29.398422	0.000456	4.562788	1.545914	-0.000183
 844	8.3879e+01	6.4041	29.261160	0.000345	3.447440	1.168024	-0.000138
 845	8.3978e+01	6.3752	29.055266	0.000517	5.171160	1.752036	-0.000207
 846	8.4078e+01	6.3351	28.897818	0.000395	3.954416	1.339793	-0.000158
 847	8.4177e+01	6.2902	28.716147	0.000456	4.562788	1.545914	-0.000183
 848	8.4276e+01	6.2517	28.550624	0.000416	4.157207	1.408500	-0.000166
 849	8.4376e+01	6.2100	28.352804	0.000497	4.968369	1.683329	-0.000199
 850	8.4475e+01	6.1683	28.175170	0.000446	4.461393	1.511561	-0.000179
 851	8.4575e+01	6.1378	27.989462	0.000466	4.664183	1.580268	-0.000187
 852	8.4674e+01	6.0800	27.815865	0.000436	4.359997	1.477207	-0.000174
 853	8.4774e+01	6.0576	27.622083	0.000487	4.866974	1.648975	-0.000195
 854	8.4874e+01	6.0127	27.509043	0.000284	2.839068	0.961902	-0.000114
 855	8.4973e+01	5.9726	27.287000	0.000558	5.576741	1.889451	-0.000223
 856	8.5073e+01	5.9357	27.109366	0.000446	4.461393	1.511561	-0.000179
 857	8.5172e+01	5.8956	26.923658	0.000466	4.664183	1.580268	-0.000187
 858	8.5272e+01	5.8635	26.733913	0.000477	4.765579	1.614622	-0.000191
 859	8.5371e+01	5.8137	26.560316	0.000436	4.359997	1.477207	-0.000174
 860	8.5471e+01	5.7672	26.410942	0.000375	3.751626	1.271085	-0.000150
 861	8.5570e+01	5.7255	26.201011	0.000527	5.272555	1.786390	-0.000211
 862	8.5669e+01	5.6918	26.027414	0.000436	4.359997	1.477207	-0.000174
 863	8.5769e+01	5.6437	25.853817	0.000436	4.359997	1.477207	-0.000174
 864	8.5868e+01	5.6036	25.672146	0.000456	4.562788	1.545914	-0.000183
 865	8.5968e+01	5.5747	25.502586	0.000426	4.258602	1.442853	-0.000170
 866	8.6067e+01	5.5330	25.300730	0.000507	5.069764	1.717683	-0.000203
 867	8.6167e+01	5.4961	25.119059	0.000456	4.562788	1.545914	-0.000183
 868	8.6266e+01	5.4528	24.985833	0.000335	3.346045	1.133671	-0.000134
 869	8.6366e+01	5.4095	24.800125	0.000466	4.664183	1.580268	-0.000187
 870	8.6466e+01	5.3678	24.626528	0.000436	4.359997	1.477207	-0.000174
 871	8.6565e+01	5.3405	24.452931	0.000436	4.359997	1.477207	-0.000174
 872	8.6665e+01	5.2940	24.255112	0.000497	4.968369	1.683329	-0.000199
 873	8.6764e+01	5.2555	24.093626	0.000406	4.055812	1.374146	-0.000162
 874	8.6864e+01	5.2041	23.871584	0.000558	5.576741	1.889451	-0.000223
 875	8.6963e+01	5.1753	23.750470	0.000304	3.041859	1.030610	-0.000122
 876	8.7063e+01	5.1448	23.560724	0.000477	4.765579	1.614622	-0.000191
 877	8.7162e+01	5.1063	23.399239	0.000406	4.055812	1.374146	-0.000162
 878	8.7261e+01	5.0565	23.197382	0.000507	5.069764	1.717683	-0.000203
 879	8.7361e+01	5.0148	23.035897	0.000406	4.055812	1.374146	-0.000162
 880	8.7460e+01	4.9795	22.825965	0.000527	5.272555	1.786390	-0.000211
 881	8.7560e+01	4.9378	22.680629	0.000365	3.650230	1.236732	-0.000146
 882	8.7659e+01	4.8977	22.535292	0.000365	3.650230	1.236732	-0.000146
 883	8.7759e+01	4.8624	22.353621	0.000456	4.562788	1.545914	-0.000183
 884	8.7859e+01	4.8159	22.147727	0.000517	5.171160	1.752036	-0.000207
 885	8.7958e+01	4.7710	21.978167	0.000426	4.258602	1.442853	-0.000170
 886	8.8058e+01	4.7405	21.808607	0.000426	4.258602	1.442853	-0.000170
 887	8.8157e+01	4.7036	21.643085	0.000416	4.157207	1.408500	-0.000166
 888	8.8257e+01	4.6587	21.437191	0.000517	5.171160	1.752036	-0.000207
 889	8.8356e+01	4.6138	21.271668	0.000416	4.157207	1.408500	-0.000166
 890	8.8456e+01	4.5737	21.073849	0.000497	4.968369	1.683329	-0.000199
 891	8.8555e+01	4.5368	20.932549	0.000355	3.548835	1.202378	-0.000142
 892	8.8654e+01	4.4919	20.742803	0.000477	4.765579	1.614622	-0.000191
 893	8.8754e+01	4.4598	20.528835	0.000537	5.373950	1.820744	-0.000215
 894	8.8853e+01	4.4197	20.367350	0.000406	4.055812	1.374146	-0.000162
 895	8.8953e+01	4.3763	20.213939	0.000385	3.853021	1.305439	-0.000154
 896	8.9052e+01	4.3427	20.024193	0.000477	4.765579	1.614622	-0.000191
 897	8.9152e+01	4.2977	19.830411	0.000487	4.866974	1.648975	-0.000195
 898	8.9251e+01	4.2544	19.701222	0.000324	3.244649	1.099317	-0.000130
 899	8.9351e+01	4.2175	19.511477	0.000477	4.765579	1.614622	-0.000191
 900	8.9451e+01	4.1774	19.313657	0.000497	4.968369	1.683329	-0.000199
 901	8.9550e+01	4.1325	19.160246	0.000385	3.853021	1.305439	-0.000154
 902	8.9650e+01	4.0972	18.942241	0.000548	5.475346	1.855097	-0.000219
 903	8.9749e+01	4.0651	18.764607	0.000446	4.461393	1.511561	-0.000179
 904	8.9849e+01	4.0154	18.591010	0.000436	4.359997	1.477207	-0.000174
 905	8.9948e+01	3.9737	18.425488	0.000416	4.157207	1.408500	-0.000166
 906	9.0047e+01	3.9448	18.223631	0.000507	5.069764	1.717683	-0.000203
 907	9.0147e+01	3.9063	18.025811	0.000497	4.968369	1.683329	-0.000199
 908	9.0246e+01	3.8502	17.868363	0.000395	3.954416	1.339793	-0.000158
 909	9.0346e+01	3.8213	17.718989	0.000375	3.751626	1.271085	-0.000150
 910	9.0445e+01	3.7860	17.484835	0.000588	5.880927	1.992512	-0.000235
 911	9.0545e+01	3.7379	17.327387	0.000395	3.954416	1.339793	-0.000158
 912	9.0644e+01	3.6833	17.149753	0.000446	4.461393	1.511561	-0.000179
 913	9.0744e+01	3.6657	17.004416	0.000365	3.650230	1.236732	-0.000146
 914	9.0844e+01	3.6224	16.786410	0.000548	5.475346	1.855097	-0.000219
 915	9.0943e+01	3.5742	16.596665	0.000477	4.765579	1.614622	-0.000191
 916	9.1043e+01	3.5373	16.435180	0.000406	4.055812	1.374146	-0.000162
 917	9.1142e+01	3.4988	16.245434	0.000477	4.765579	1.614622	-0.000191
 918	9.1242e+01	3.4700	16.071837	0.000436	4.359997	1.477207	-0.000174
 919	9.1341e+01	3.4170	15.906315	0.000416	4.157207	1.408500	-0.000166
 920	9.1441e+01	3.3817	15.728681	0.000446	4.461393	1.511561	-0.000179
 921	9.1540e+01	3.3480	15.567195	0.000406	4.055812	1.374146	-0.000162
 922	9.1639e+01	3.3031	15.373413	0.000487	4.866974	1.648975	-0.000195
 923	9.1739e+01	3.2630	15.211927	0.000406	4.055812	1.374146	-0.000162
 924	9.1838e+01	3.2245	15.006034	0.000517	5.171160	1.752036	-0.000207
 925	9.1938e+01	3.1732	14.816288	0.000477	4.765579	1.614622	-0.000191
 926	9.2037e+01	3.1443	14.634617	0.000456	4.562788	1.545914	-0.000183
 927	9.2137e+01	3.0994	14.432760	0.000507	5.069764	1.717683	-0.000203
 928	9.2237e+01	3.0657	14.299535	0.000335	3.346045	1.133671	-0.000134
 929	9.2336e+01	3.0208	14.081529	0.000548	5.475346	1.855097	-0.000219
 930	9.2436e+01	2.9823	13.911970	0.000426	4.258602	1.442853	-0.000170
 931	9.2535e+01	2.9438	13.734336	0.000446	4.461393	1.511561	-0.000179
 932	9.2635e+01	2.9053	13.568813	0.000416	4.157207	1.408500	-0.000166
 933	9.2734e+01	2.8603	13.375031	0.000487	4.866974	1.648975	-0.000195
 934	9.2834e+01	2.8170	13.189322	0.000466	4.664183	1.580268	-0.000187
 935	9.2933e+01	2.7817	13.011688	0.000446	4.461393	1.511561	-0.000179
 936	9.3032e+01	2.7352	12.858277	0.000385	3.853021	1.305439	-0.000154
 937	9.3132e+01	2.6983	12.660458	0.000497	4.968369	1.683329	-0.000199
 938	9.3231e+01	2.6550	12.494935	0.000416	4.157207	1.408500	-0.000166
 939	9.3331e+01	2.6229	12.321338	0.000436	4.359997	1.477207	-0.000174
 940	9.3430e+01	2.5876	12.143704	0.000446	4.461393	1.511561	-0.000179
 941	9.3530e+01	2.5443	11.970107	0.000436	4.359997	1.477207	-0.000174
 942	9.3629e+01	2.5010	11.788436	0.000456	4.562788	1.545914	-0.000183
 943	9.3729e+01	2.4641	11.574468	0.000537	5.373950	1.820744	-0.000215
 944	9.3829e+01	2.4352	11.473540	0.000253	2.534882	0.858841	-0.000101
 945	9.3928e+01	2.3823	11.239386	0.000588	5.880927	1.992512	-0.000235
 946	9.4028e+01	2.3518	11.045603	0.000487	4.866974	1.648975	-0.000195
 947	9.4127e+01	2.3021	10.892192	0.000385	3.853021	1.305439	-0.000154
 948	9.4227e+01	2.2716	10.698410	0.000487	4.866974	1.648975	-0.000195
 949	9.4326e+01	2.2283	10.492516	0.000517	5.171160	1.752036	-0.000207
 950	9.4425e+01	2.1834	10.322956	0.000426	4.258602	1.442853	-0.000170
 951	9.4525e+01	2.1481	10.177619	0.000365	3.650230	1.236732	-0.000146
 952	9.4624e+01	2.1112	9.975762	0.000507	5.069764	1.717683	-0.000203
 953	9.4724e+01	2.0695	9.798128	0.000446	4.461393	1.511561	-0.000179
 954	9.4823e+01	2.0278	9.563975	0.000588	5.880927	1.992512	-0.000235
 955	9.4923e+01	1.9844	9.410563	0.000385	3.853021	1.305439	-0.000154
 956	9.5022e+01	1.9475	9.224855	0.000466	4.664183	1.580268	-0.000187
 957	9.5122e+01	1.8994	9.059333	0.000416	4.157207	1.408500	-0.000166
 958	9.5222e+01	1.8609	8.849402	0.000527	5.272555	1.786390	-0.000211
 959	9.5321e+01	1.8320	8.724250	0.000314	3.143254	1.064963	-0.000126
 960	9.5421e+01	1.7871	8.510282	0.000537	5.373950	1.820744	-0.000215
 961	9.5520e+01	1.7470	8.316500	0.000487	4.866974	1.648975	-0.000195
 962	9.5620e+01	1.7021	8.142903	0.000436	4.359997	1.477207	-0.000174
 963	9.5719e+01	1.6716	7.977380	0.000416	4.157207	1.408500	-0.000166
 964	9.5819e+01	1.6283	7.795709	0.000456	4.562788	1.545914	-0.000183
 965	9.5918e+01	1.5866	7.577704	0.000548	5.475346	1.855097	-0.000219
 966	9.6017e+01	1.5481	7.400070	0.000446	4.461393	1.511561	-0.000179
 967	9.6117e+01	1.5128	7.242622	0.000395	3.954416	1.339793	-0.000158
 968	9.6216e+01	1.4759	7.036728	0.000517	5.171160	1.752036	-0.000207
 969	9.6316e+01	1.4262	6.867168	0.000426	4.258602	1.442853	-0.000170
 970	9.6415e+01	1.3796	6.653200	0.000537	5.373950	1.820744	-0.000215
 971	9.6515e+01	1.3411	6.524011	0.000324	3.244649	1.099317	-0.000130
 972	9.6615e+01	1.3026	6.326192	0.000497	4.968369	1.683329	-0.000199
 973	9.6714e+01	1.2706	6.116261	0.000527	5.272555	1.786390	-0.000211
 974	9.6814e+01	1.2240	5.938627	0.000446	4.461393	1.511561	-0.000179
 975	9.6913e+01	1.1823	5.797327	0.000355	3.548835	1.202378	-0.000142
 976	9.7013e+01	1.1454	5.591433	0.000517	5.171160	1.752036	-0.000207
 977	9.7112e+01	1.1021	5.381502	0.000527	5.272555	1.786390	-0.000211
 978	9.7212e+01	1.0604	5.220017	0.000406	4.055812	1.374146	-0.000162
 979	9.7311e+01	1.0251	5.042383	0.000446	4.461393	1.511561	-0.000179
 980	9.7410e+01	0.9882	4.856674	0.000466	4.664183	1.580268	-0.000187
 981	9.7510e+01	0.9513	4.630595	0.000568	5.678136	1.923805	-0.000227
 982	9.7609e+01	0.9080	4.505443	0.000314	3.143254	1.064963	-0.000126
 983	9.7709e+01	0.8743	4.275327	0.000578	5.779532	1.958158	-0.000231
 984	9.7808e+01	0.8310	4.113841	0.000406	4.055812	1.374146	-0.000162
 985	9.7908e+01	0.7877	3.932170	0.000456	4.562788	1.545914	-0.000183
 986	9.8007e+01	0.7476	3.778759	0.000385	3.853021	1.305439	-0.000154
 987	9.8107e+01	0.6994	3.584977	0.000487	4.866974	1.648975	-0.000195
 988	9.8207e+01	0.6802	3.383120	0.000507	5.069764	1.717683	-0.000203
 989	9.8306e+01	0.6321	3.181263	0.000507	5.069764	1.717683	-0.000203
 990	9.8406e+01	0.5936	3.076297	0.000264	2.636278	0.893195	-0.000105
 991	9.8505e+01	0.5470	2.858292	0.000548	5.475346	1.855097	-0.000219
 992	9.8605e+01	0.5150	2.688732	0.000426	4.258602	1.442853	-0.000170
 993	9.8704e+01	0.4668	2.503024	0.000466	4.664183	1.580268	-0.000187
 994	9.8803e+01	0.4331	2.313279	0.000477	4.765579	1.614622	-0.000191
 995	9.8903e+01	0.3930	2.131608	0.000456	4.562788	1.545914	-0.000183
 996	9.9002e+01	0.3449	1.953974	0.000446	4.461393	1.511561	-0.000179
 997	9.9102e+01	0.3160	1.748080	0.000517	5.171160	1.752036	-0.000207
 998	9.9201e+01	0.2759	1.610817	0.000345	3.447440	1.168024	-0.000138
 999	9.9301e+01	0.2310	1.384738	0.000568	5.678136	1.923805	-0.000227
1000	9.9400e+01	0.1925	1.211141	0.000436	4.359997	1.477207	-0.000174
1001	9.9500e+01	0.1588	1.053692	0.000395	3.954416	1.339793	-0.000158
1002	9.9600e+01	0.1107	0.851836	0.000507	5.069764	1.717683	-0.000203
1003	9.9699e+01	0.0754	0.686313	0.000416	4.157207	1.408500	-0.000166
1004	9.9799e+01	0.0385	0.492531	0.000487	4.866974	1.648975	-0.000195
1005	9.9898e+01	0.0080	0.343157	0.000375	3.751626	1.271085	-0.000150
1006	9.9998e+01	-0.0321	0.149374	0.000487	4.866974	1.648975	-0.000195
1007	1.0010e+02	-0.0786	-0.008074	0.000395	3.954416	1.339793	-0.000158
1008	1.0020e+02	-0.1267	-0.230117	0.000558	5.576741	1.889451	-0.000223
1009	1.0030e+02	-0.1652	-0.379491	0.000375	3.751626	1.271085	-0.000150
1010	1.0040e+02	-0.1973	-0.532902	0.000385	3.853021	1.305439	-0.000154
1011	1.0050e+02	-0.2406	-0.714573	0.000456	4.562788	1.545914	-0.000183
1012	1.0059e+02	-0.2759	-0.900281	0.000466	4.664183	1.580268	-0.000187
1013	1.0069e+02	-0.3289	-1.061767	0.000406	4.055812	1.374146	-0.000162
1014	1.0079e+02	-0.3561	-1.259586	0.000497	4.968369	1.683329	-0.000199
1015	1.0089e+02	-0.3962	-1.461443	0.000507	5.069764	1.717683	-0.000203
1016	1.0099e+02	-0.4364	-1.635040	0.000436	4.359997	1.477207	-0.000174
1017	1.0109e+02	-0.4765	-1.836897	0.000507	5.069764	1.717683	-0.000203
1018	1.0119e+02	-0.5198	-2.014531	0.000446	4.461393	1.511561	-0.000179
1019	1.0129e+02	-0.5519	-2.212350	0.000497	4.968369	1.683329	-0.000199
1020	1.0139e+02	-0.5936	-2.377873	0.000416	4.157207	1.408500	-0.000166
1021	1.0149e+02	-0.6353	-2.571655	0.000487	4.866974	1.648975	-0.000195
1022	1.0159e+02	-0.6786	-2.716992	0.000365	3.650230	1.236732	-0.000146
1023	1.0169e+02	-0.7251	-2.918849	0.000507	5.069764	1.717683	-0.000203
1024	1.0179e+02	-0.7604	-3.132817	0.000537	5.373950	1.820744	-0.000215
1025	1.0189e+02	-0.7941	-3.298340	0.000416	4.157207	1.408500	-0.000166
1026	1.0199e+02	-0.8422	-3.443677	0.000365	3.650230	1.236732	-0.000146
1027	1.0209e+02	-0.8903	-3.637459	0.000487	4.866974	1.648975	-0.000195
1028	1.0219e+02	-0.9192	-3.827205	0.000477	4.765579	1.614622	-0.000191
1029	1.0229e+02	-0.9577	-4.012913	0.000466	4.664183	1.580268	-0.000187
1030	1.0239e+02	-0.9914	-4.166324	0.000385	3.853021	1.305439	-0.000154
1031	1.0248e+02	-1.0395	-4.352032	0.000466	4.664183	1.580268	-0.000187
1032	1.0258e+02	-1.0700	-4.549852	0.000497	4.968369	1.683329	-0.000199
1033	1.0268e+02	-1.1133	-4.727486	0.000446	4.461393	1.511561	-0.000179
1034	1.0278e+02	-1.1550	-4.917231	0.000477	4.765579	1.614622	-0.000191
1035	1.0288e+02	-1.1984	-5.066605	0.000375	3.751626	1.271085	-0.000150
1036	1.0298e+02	-1.2433	-5.228091	0.000406	4.055812	1.374146	-0.000162
1037	1.0308e+02	-1.2786	-5.458208	0.000578	5.779532	1.958158	-0.000231
1038	1.0318e+02	-1.3123	-5.599507	0.000355	3.548835	1.202378	-0.000142
1039	1.0328e+02	-1.3572	-5.789253	0.000477	4.765579	1.614622	-0.000191
1040	1.0338e+02	-1.4037	-5.954775	0.000416	4.157207	1.408500	-0.000166
1041	1.0348e+02	-1.4390	-6.156632	0.000507	5.069764	1.717683	-0.000203
1042	1.0358e+02	-1.4743	-6.297932	0.000355	3.548835	1.202378	-0.000142
1043	1.0368e+02	-1.5192	-6.507863	0.000527	5.272555	1.786390	-0.000211
1044	1.0378e+02	-1.5545	-6.693571	0.000466	4.664183	1.580268	-0.000187
1045	1.0388e+02	-1.5930	-6.851019	0.000395	3.954416	1.339793	-0.000158
1046	1.0398e+02	-1.6283	-7.056913	0.000517	5.171160	1.752036	-0.000207
1047	1.0408e+02	-1.6684	-7.190139	0.000335	3.346045	1.133671	-0.000134
1048	1.0418e+02	-1.7133	-7.383921	0.000487	4.866974	1.648975	-0.000195
1049	1.0428e+02	-1.7534	-7.573667	0.000477	4.765579	1.614622	-0.000191
1050	1.0438e+02	-1.7887	-7.706892	0.000335	3.346045	1.133671	-0.000134
1051	1.0447e+02	-1.8288	-7.896638	0.000477	4.765579	1.614622	-0.000191
1052	1.0457e+02	-1.8705	-8.102531	0.000517	5.171160	1.752036	-0.000207
1053	1.0467e+02	-1.9090	-8.227683	0.000314	3.143254	1.064963	-0.000126
1054	1.0477e+02	-1.9556	-8.445688	0.000548	5.475346	1.855097	-0.000219
1055	1.0487e+02	-1.9909	-8.607173	0.000406	4.055812	1.374146	-0.000162
1056	1.0497e+02	-2.0294	-8.817104	0.000527	5.272555	1.786390	-0.000211
1057	1.0507e+02	-2.0663	-8.986664	0.000426	4.258602	1.442853	-0.000170
1058	1.0517e+02	-2.1048	-9.196595	0.000527	5.272555	1.786390	-0.000211
1059	1.0527e+02	-2.1609	-9.354044	0.000395	3.954416	1.339793	-0.000158
1060	1.0537e+02	-2.1914	-9.507455	0.000385	3.853021	1.305439	-0.000154
1061	1.0547e+02	-2.2347	-9.697200	0.000477	4.765579	1.614622	-0.000191
1062	1.0557e+02	-2.2700	-9.866760	0.000426	4.258602	1.442853	-0.000170
1063	1.0567e+02	-2.3021	-10.056505	0.000477	4.765579	1.614622	-0.000191
1064	1.0577e+02	-2.3502	-10.246251	0.000477	4.765579	1.614622	-0.000191
1065	1.0587e+02	-2.3839	-10.411773	0.000416	4.157207	1.408500	-0.000166
1066	1.0597e+02	-2.4320	-10.581333	0.000426	4.258602	1.442853	-0.000170
1067	1.0607e+02	-2.4753	-10.730707	0.000375	3.751626	1.271085	-0.000150
1068	1.0617e+02	-2.5058	-10.960824	0.000578	5.779532	1.958158	-0.000231
1069	1.0627e+02	-2.5523	-11.098086	0.000345	3.447440	1.168024	-0.000138
1070	1.0637e+02	-2.5876	-11.283794	0.000466	4.664183	1.580268	-0.000187
1071	1.0647e+02	-2.6245	-11.465465	0.000456	4.562788	1.545914	-0.000183
1072	1.0656e+02	-2.6694	-11.635025	0.000426	4.258602	1.442853	-0.000170
1073	1.0666e+02	-2.7079	-11.824771	0.000477	4.765579	1.614622	-0.000191
1074	1.0676e+02	-2.7464	-11.994330	0.000426	4.258602	1.442853	-0.000170
1075	1.0686e+02	-2.7882	-12.171964	0.000446	4.461393	1.511561	-0.000179
1076	1.0696e+02	-2.8283	-12.341524	0.000426	4.258602	1.442853	-0.000170
1077	1.0706e+02	-2.8716	-12.503009	0.000406	4.055812	1.374146	-0.000162
1078	1.0716e+02	-2.9117	-12.725052	0.000558	5.576741	1.889451	-0.000223
1079	1.0726e+02	-2.9502	-12.878463	0.000385	3.853021	1.305439	-0.000154
1080	1.0736e+02	-2.9919	-13.048023	0.000426	4.258602	1.442853	-0.000170
1081	1.0746e+02	-3.0368	-13.233731	0.000466	4.664183	1.580268	-0.000187
1082	1.0756e+02	-3.0673	-13.419439	0.000466	4.664183	1.580268	-0.000187
1083	1.0766e+02	-3.1058	-13.625333	0.000517	5.171160	1.752036	-0.000207
1084	1.0776e+02	-3.1523	-13.770670	0.000365	3.650230	1.236732	-0.000146
1085	1.0786e+02	-3.1844	-13.936193	0.000416	4.157207	1.408500	-0.000166
1086	1.0796e+02	-3.2261	-14.113827	0.000446	4.461393	1.511561	-0.000179
1087	1.0806e+02	-3.2630	-14.315683	0.000507	5.069764	1.717683	-0.000203
1088	1.0816e+02	-3.3111	-14.452946	0.000345	3.447440	1.168024	-0.000138
1089	1.0826e+02	-3.3432	-14.634617	0.000456	4.562788	1.545914	-0.000183
1090	1.0836e+02	-3.3865	-14.796102	0.000406	4.055812	1.374146	-0.000162
1091	1.0845e+02	-3.4218	-15.022182	0.000568	5.678136	1.923805	-0.000227
1092	1.0855e+02	-3.4748	-15.171556	0.000375	3.751626	1.271085	-0.000150
1093	1.0865e+02	-3.5101	-15.349190	0.000446	4.461393	1.511561	-0.000179
1094	1.0875e+02	-3.5454	-15.538935	0.000477	4.765579	1.614622	-0.000191
1095	1.0885e+02	-3.5935	-15.704458	0.000416	4.157207	1.408500	-0.000166
1096	1.0895e+02	-3.6272	-15.882092	0.000446	4.461393	1.511561	-0.000179
1097	1.0905e+02	-3.6609	-16.055689	0.000436	4.359997	1.477207	-0.000174
1098	1.0915e+02	-3.7042	-16.253508	0.000497	4.968369	1.683329	-0.000199
1099	1.0925e+02	-3.7443	-16.406920	0.000385	3.853021	1.305439	-0.000154
1100	1.0935e+02	-3.7940	-16.588591	0.000456	4.562788	1.545914	-0.000183
1101	1.0945e+02	-3.8277	-16.697593	0.000274	2.737673	0.927549	-0.000110
1102	1.0955e+02	-3.8678	-16.943859	0.000619	6.185113	2.095573	-0.000248
1103	1.0965e+02	-3.9063	-17.089196	0.000365	3.650230	1.236732	-0.000146
1104	1.0975e+02	-3.9432	-17.262792	0.000436	4.359997	1.477207	-0.000174
1105	1.0985e+02	-3.9801	-17.456575	0.000487	4.866974	1.648975	-0.000195
1106	1.0995e+02	-4.0266	-17.658432	0.000507	5.069764	1.717683	-0.000203
1107	1.1005e+02	-4.0667	-17.787620	0.000324	3.244649	1.099317	-0.000130
1108	1.1015e+02	-4.0988	-17.969291	0.000456	4.562788	1.545914	-0.000183
1109	1.1025e+02	-4.1357	-18.142888	0.000436	4.359997	1.477207	-0.000174
1110	1.1035e+02	-4.1806	-18.308411	0.000416	4.157207	1.408500	-0.000166
1111	1.1044e+02	-4.2223	-18.562750	0.000639	6.387903	2.164280	-0.000256
1112	1.1054e+02	-4.2641	-18.651567	0.000223	2.230696	0.755780	-0.000089
1113	1.1064e+02	-4.2945	-18.821127	0.000426	4.258602	1.442853	-0.000170
1114	1.1074e+02	-4.3378	-19.031058	0.000527	5.272555	1.786390	-0.000211
1115	1.1084e+02	-4.3780	-19.192543	0.000406	4.055812	1.374146	-0.000162
1116	1.1094e+02	-4.4229	-19.358066	0.000416	4.157207	1.408500	-0.000166
1117	1.1104e+02	-4.4630	-19.527626	0.000426	4.258602	1.442853	-0.000170
1118	1.1114e+02	-4.5047	-19.693148	0.000416	4.157207	1.408500	-0.000166
1119	1.1124e+02	-4.5464	-19.866745	0.000436	4.359997	1.477207	-0.000174
1120	1.1134e+02	-4.5753	-20.036305	0.000426	4.258602	1.442853	-0.000170
1121	1.1144e+02	-4.6298	-20.185679	0.000375	3.751626	1.271085	-0.000150
1122	1.1154e+02	-4.6667	-20.375424	0.000477	4.765579	1.614622	-0.000191
1123	1.1164e+02	-4.7068	-20.577281	0.000507	5.069764	1.717683	-0.000203
1124	1.1174e+02	-4.7341	-20.746841	0.000426	4.258602	1.442853	-0.000170
1125	1.1184e+02	-4.7790	-20.940623	0.000487	4.866974	1.648975	-0.000195
1126	1.1194e+02	-4.8191	-21.102109	0.000406	4.055812	1.374146	-0.000162
1127	1.1204e+02	-4.8688	-21.267631	0.000416	4.157207	1.408500	-0.000166
1128	1.1214e+02	-4.8961	-21.437191	0.000426	4.258602	1.442853	-0.000170
1129	1.1224e+02	-4.9298	-21.594639	0.000395	3.954416	1.339793	-0.000158
1130	1.1234e+02	-4.9763	-21.792459	0.000497	4.968369	1.683329	-0.000199
1131	1.1244e+02	-5.0261	-21.970093	0.000446	4.461393	1.511561	-0.000179
1132	1.1253e+02	-5.0694	-22.123504	0.000385	3.853021	1.305439	-0.000154
1133	1.1263e+02	-5.1015	-22.337472	0.000537	5.373950	1.820744	-0.000215
1134	1.1273e+02	-5.1335	-22.547403	0.000527	5.272555	1.786390	-0.000211
1135	1.1283e+02	-5.1801	-22.721000	0.000436	4.359997	1.477207	-0.000174
1136	1.1293e+02	-5.2202	-22.886522	0.000416	4.157207	1.408500	-0.000166
1137	1.1303e+02	-5.2571	-23.007637	0.000304	3.041859	1.030610	-0.000122
1138	1.1313e+02	-5.3036	-23.217568	0.000527	5.272555	1.786390	-0.000211
1139	1.1323e+02	-5.3341	-23.379053	0.000406	4.055812	1.374146	-0.000162
1140	1.1333e+02	-5.3838	-23.544576	0.000416	4.157207	1.408500	-0.000166
1141	1.1343e+02	-5.4127	-23.738358	0.000487	4.866974	1.648975	-0.000195
1142	1.1353e+02	-5.4432	-23.871584	0.000335	3.346045	1.133671	-0.000134
1143	1.1363e+02	-5.5041	-24.073440	0.000507	5.069764	1.717683	-0.000203
1144	1.1373e+02	-5.5442	-24.247037	0.000436	4.359997	1.477207	-0.000174
1145	1.1383e+02	-5.5843	-24.432745	0.000466	4.664183	1.580268	-0.000187
1146	1.1393e+02	-5.6132	-24.570008	0.000345	3.447440	1.168024	-0.000138
1147	1.1403e+02	-5.6662	-24.731494	0.000406	4.055812	1.374146	-0.000162
1148	1.1413e+02	-5.6870	-24.925276	0.000487	4.866974	1.648975	-0.000195
1149	1.1423e+02	-5.7415	-25.090799	0.000416	4.157207	1.408500	-0.000166
1150	1.1433e+02	-5.7704	-25.248247	0.000395	3.954416	1.339793	-0.000158
1151	1.1442e+02	-5.8137	-25.442029	0.000487	4.866974	1.648975	-0.000195
1152	1.1452e+02	-5.8571	-25.575255	0.000335	3.346045	1.133671	-0.000134
1153	1.1462e+02	-5.8988	-25.797297	0.000558	5.576741	1.889451	-0.000223
1154	1.1472e+02	-5.9421	-25.958783	0.000406	4.055812	1.374146	-0.000162
1155	1.1482e+02	-5.9790	-26.128342	0.000426	4.258602	1.442853	-0.000170
1156	1.1492e+02	-6.0095	-26.370571	0.000608	6.083717	2.061219	-0.000243
1157	1.1502e+02	-6.0528	-26.483610	0.000284	2.839068	0.961902	-0.000114
1158	1.1512e+02	-6.0977	-26.645096	0.000406	4.055812	1.374146	-0.000162
1159	1.1522e+02	-6.1362	-26.834841	0.000477	4.765579	1.614622	-0.000191
1160	1.1532e+02	-6.1667	-27.000364	0.000416	4.157207	1.408500	-0.000166
1161	1.1542e+02	-6.2276	-27.157812	0.000395	3.954416	1.339793	-0.000158
1162	1.1552e+02	-6.2645	-27.359669	0.000507	5.069764	1.717683	-0.000203
1163	1.1562e+02	-6.3014	-27.496932	0.000345	3.447440	1.168024	-0.000138
1164	1.1572e+02	-6.3367	-27.666491	0.000426	4.258602	1.442853	-0.000170
1165	1.1582e+02	-6.3848	-27.840088	0.000436	4.359997	1.477207	-0.000174
1166	1.1592e+02	-6.4105	-28.029833	0.000477	4.765579	1.614622	-0.000191
1167	1.1602e+02	-6.4570	-28.175170	0.000365	3.650230	1.236732	-0.000146
1168	1.1612e+02	-6.4875	-28.348767	0.000436	4.359997	1.477207	-0.000174
1169	1.1622e+02	-6.5244	-28.469881	0.000304	3.041859	1.030610	-0.000122
1170	1.1632e+02	-6.5693	-28.659627	0.000477	4.765579	1.614622	-0.000191
1171	1.1642e+02	-6.6175	-28.845335	0.000466	4.664183	1.580268	-0.000187
1172	1.1651e+02	-6.6544	-29.035080	0.000477	4.765579	1.614622	-0.000191
1173	1.1661e+02	-6.6961	-29.196566	0.000406	4.055812	1.374146	-0.000162
1174	1.1671e+02	-6.7346	-29.341903	0.000365	3.650230	1.236732	-0.000146
1175	1.1681e+02	-6.7747	-29.523574	0.000456	4.562788	1.545914	-0.000183
1176	1.1691e+02	-6.8116	-29.701208	0.000446	4.461393	1.511561	-0.000179
1177	1.1701e+02	-6.8565	-29.822322	0.000304	3.041859	1.030610	-0.000122
1178	1.1711e+02	-6.8806	-30.036290	0.000537	5.373950	1.820744	-0.000215
1179	1.1721e+02	-6.9287	-30.185664	0.000375	3.751626	1.271085	-0.000150
1180	1.1731e+02	-6.9720	-30.379446	0.000487	4.866974	1.648975	-0.000195
1181	1.1741e+02	-7.0057	-30.536895	0.000395	3.954416	1.339793	-0.000158
1182	1.1751e+02	-7.0458	-30.690306	0.000385	3.853021	1.305439	-0.000154
1183	1.1761e+02	-7.0939	-30.876014	0.000466	4.664183	1.580268	-0.000187
1184	1.1771e+02	-7.1260	-31.057685	0.000456	4.562788	1.545914	-0.000183
1185	1.1781e+02	-7.1725	-31.211096	0.000385	3.853021	1.305439	-0.000154
1186	1.1791e+02	-7.1950	-31.376619	0.000416	4.157207	1.408500	-0.000166
1187	1.1801e+02	-7.2415	-31.521956	0.000365	3.650230	1.236732	-0.000146
1188	1.1811e+02	-7.2961	-31.723813	0.000507	5.069764	1.717683	-0.000203
1189	1.1821e+02	-7.3297	-31.937781	0.000537	5.373950	1.820744	-0.000215
1190	1.1831e+02	-7.3650	-32.038709	0.000253	2.534882	0.858841	-0.000101
1191	1.1841e+02	-7.4035	-32.171935	0.000335	3.346045	1.133671	-0.000134
1192	1.1850e+02	-7.4420	-32.406089	0.000588	5.880927	1.992512	-0.000235
1193	1.1860e+02	-7.4886	-32.559500	0.000385	3.853021	1.305439	-0.000154
1194	1.1870e+02	-7.5239	-32.684651	0.000314	3.143254	1.064963	-0.000126
1195	1.1880e+02	-7.5591	-32.870359	0.000466	4.664183	1.580268	-0.000187
1196	1.1890e+02	-7.6105	-33.056067	0.000466	4.664183	1.580268	-0.000187
1197	1.1900e+02	-7.6570	-33.265998	0.000527	5.272555	1.786390	-0.000211
1198	1.1910e+02	-7.6907	-33.423447	0.000395	3.954416	1.339793	-0.000158
1199	1.1920e+02	-7.7292	-33.580895	0.000395	3.954416	1.339793	-0.000158
1200	1.1930e+02	-7.7725	-33.730269	0.000375	3.751626	1.271085	-0.000150
1201	1.1940e+02	-7.8110	-33.875606	0.000365	3.650230	1.236732	-0.000146
1202	1.1950e+02	-7.8415	-34.057277	0.000456	4.562788	1.545914	-0.000183
1203	1.1960e+02	-7.8848	-34.247022	0.000477	4.765579	1.614622	-0.000191
1204	1.1970e+02	-7.9249	-34.428694	0.000456	4.562788	1.545914	-0.000183
1205	1.1980e+02	-7.9666	-34.521548	0.000233	2.332092	0.790134	-0.000093
1206	1.1990e+02	-8.0003	-34.707256	0.000466	4.664183	1.580268	-0.000187
1207	1.2000e+02	-8.0468	-34.868741	0.000406	4.055812	1.374146	-0.000162
1208	1.2010e+02	-8.0901	-35.058487	0.000477	4.765579	1.614622	-0.000191
1209	1.2020e+02	-8.1335	-35.199786	0.000355	3.548835	1.202378	-0.000142
1210	1.2030e+02	-8.1591	-35.405680	0.000517	5.171160	1.752036	-0.000207
1211	1.2039e+02	-8.2105	-35.530832	0.000314	3.143254	1.064963	-0.000126
1212	1.2049e+02	-8.2586	-35.720577	0.000477	4.765579	1.614622	-0.000191
1213	1.2059e+02	-8.2810	-35.813431	0.000233	2.332092	0.790134	-0.000093
1214	1.2069e+02	-8.3308	-36.023362	0.000527	5.272555	1.786390	-0.000211
1215	1.2079e+02	-8.3613	-36.200996	0.000446	4.461393	1.511561	-0.000179
1216	1.2089e+02	-8.4046	-36.374593	0.000436	4.359997	1.477207	-0.000174
1217	1.2099e+02	-8.4431	-36.475521	0.000253	2.534882	0.858841	-0.000101
1218	1.2109e+02	-8.4864	-36.681415	0.000517	5.171160	1.752036	-0.000207
1219	1.2119e+02	-8.5265	-36.875198	0.000487	4.866974	1.648975	-0.000195
1220	1.2129e+02	-8.5650	-37.012460	0.000345	3.447440	1.168024	-0.000138
1221	1.2139e+02	-8.5971	-37.149723	0.000345	3.447440	1.168024	-0.000138
1222	1.2149e+02	-8.6340	-37.311208	0.000406	4.055812	1.374146	-0.000162
1223	1.2159e+02	-8.6869	-37.472694	0.000406	4.055812	1.374146	-0.000162
1224	1.2169e+02	-8.7270	-37.634179	0.000406	4.055812	1.374146	-0.000162
1225	1.2179e+02	-8.7591	-37.811813	0.000446	4.461393	1.511561	-0.000179
1226	1.2189e+02	-8.8088	-37.961187	0.000375	3.751626	1.271085	-0.000150
1227	1.2199e+02	-8.8425	-38.110561	0.000375	3.751626	1.271085	-0.000150
1228	1.2209e+02	-8.8810	-38.247824	0.000345	3.447440	1.168024	-0.000138
1229	1.2219e+02	-8.9292	-38.457755	0.000527	5.272555	1.786390	-0.000211
1230	1.2229e+02	-8.9661	-38.639426	0.000456	4.562788	1.545914	-0.000183
1231	1.2239e+02	-8.9965	-38.768614	0.000324	3.244649	1.099317	-0.000130
1232	1.2248e+02	-9.0399	-38.917989	0.000375	3.751626	1.271085	-0.000150
1233	1.2258e+02	-9.0816	-39.144068	0.000568	5.678136	1.923805	-0.000227
1234	1.2268e+02	-9.1281	-39.305554	0.000406	4.055812	1.374146	-0.000162
1235	1.2278e+02	-9.1682	-39.402445	0.000243	2.433487	0.824488	-0.000097
1236	1.2288e+02	-9.2035	-39.612376	0.000527	5.272555	1.786390	-0.000211
1237	1.2298e+02	-9.2452	-39.757713	0.000365	3.650230	1.236732	-0.000146
1238	1.2308e+02	-9.2741	-39.882864	0.000314	3.143254	1.064963	-0.000126
1239	1.2318e+02	-9.3270	-40.088758	0.000517	5.171160	1.752036	-0.000207
1240	1.2328e+02	-9.3639	-40.234095	0.000365	3.650230	1.236732	-0.000146
1241	1.2338e+02	-9.4008	-40.399617	0.000416	4.157207	1.408500	-0.000166
1242	1.2348e+02	-9.4345	-40.532843	0.000335	3.346045	1.133671	-0.000134
1243	1.2358e+02	-9.4906	-40.746811	0.000537	5.373950	1.820744	-0.000215
1244	1.2368e+02	-9.5131	-40.880036	0.000335	3.346045	1.133671	-0.000134
1245	1.2378e+02	-9.5564	-41.029411	0.000375	3.751626	1.271085	-0.000150
1246	1.2388e+02	-9.6013	-41.162636	0.000335	3.346045	1.133671	-0.000134
1247	1.2398e+02	-9.6398	-41.360456	0.000497	4.968369	1.683329	-0.000199
1248	1.2408e+02	-9.6751	-41.546164	0.000466	4.664183	1.580268	-0.000187
1249	1.2418e+02	-9.7233	-41.711686	0.000416	4.157207	1.408500	-0.000166
1250	1.2428e+02	-9.7569	-41.800503	0.000223	2.230696	0.755780	-0.000089
1251	1.2438e+02	-9.8019	-41.998323	0.000497	4.968369	1.683329	-0.000199
1252	1.2447e+02	-9.8323	-42.163846	0.000416	4.157207	1.408500	-0.000166
1253	1.2457e+02	-9.8741	-42.301108	0.000345	3.447440	1.168024	-0.000138
1254	1.2467e+02	-9.9126	-42.450482	0.000375	3.751626	1.271085	-0.000150
1255	1.2477e+02	-9.9559	-42.616005	0.000416	4.157207	1.408500	-0.000166
1256	1.2487e+02	-10.0024	-42.801713	0.000466	4.664183	1.580268	-0.000187
1257	1.2497e+02	-10.0313	-42.934939	0.000335	3.346045	1.133671	-0.000134
1258	1.2507e+02	-10.0762	-43.136795	0.000507	5.069764	1.717683	-0.000203
1259	1.2517e+02	-10.1259	-43.282132	0.000365	3.650230	1.236732	-0.000146
1260	1.2527e+02	-10.1660	-43.431506	0.000375	3.751626	1.271085	-0.000150
1261	1.2537e+02	-10.1917	-43.609140	0.000446	4.461393	1.511561	-0.000179
1262	1.2547e+02	-10.2430	-43.758514	0.000375	3.751626	1.271085	-0.000150
1263	1.2557e+02	-10.2735	-43.924037	0.000416	4.157207	1.408500	-0.000166
1264	1.2567e+02	-10.3200	-44.053225	0.000324	3.244649	1.099317	-0.000130
1265	1.2577e+02	-10.3682	-44.238933	0.000466	4.664183	1.580268	-0.000187
1266	1.2587e+02	-10.3906	-44.380233	0.000355	3.548835	1.202378	-0.000142
1267	1.2597e+02	-10.4420	-44.557867	0.000446	4.461393	1.511561	-0.000179
1268	1.2607e+02	-10.4772	-44.699167	0.000355	3.548835	1.202378	-0.000142
1269	1.2617e+02	-10.5286	-44.852578	0.000385	3.853021	1.305439	-0.000154
1270	1.2627e+02	-10.5526	-45.026175	0.000436	4.359997	1.477207	-0.000174
1271	1.2636e+02	-10.5944	-45.187660	0.000406	4.055812	1.374146	-0.000162
1272	1.2646e+02	-10.6409	-45.324923	0.000345	3.447440	1.168024	-0.000138
1273	1.2656e+02	-10.6794	-45.490445	0.000416	4.157207	1.408500	-0.000166
1274	1.2666e+02	-10.7275	-45.615597	0.000314	3.143254	1.064963	-0.000126
1275	1.2676e+02	-10.7564	-45.785156	0.000426	4.258602	1.442853	-0.000170
1276	1.2686e+02	-10.7965	-45.950679	0.000416	4.157207	1.408500	-0.000166
1277	1.2696e+02	-10.8318	-46.136387	0.000466	4.664183	1.580268	-0.000187
1278	1.2706e+02	-10.8767	-46.297873	0.000406	4.055812	1.374146	-0.000162
1279	1.2716e+02	-10.9200	-46.414950	0.000294	2.940463	0.996256	-0.000118
1280	1.2726e+02	-10.9489	-46.576435	0.000406	4.055812	1.374146	-0.000162
1281	1.2736e+02	-10.9938	-46.733883	0.000395	3.954416	1.339793	-0.000158
1282	1.2746e+02	-11.0291	-46.859035	0.000314	3.143254	1.064963	-0.000126
1283	1.2756e+02	-11.0804	-47.048780	0.000477	4.765579	1.614622	-0.000191
1284	1.2766e+02	-11.1173	-47.194117	0.000365	3.650230	1.236732	-0.000146
1285	1.2776e+02	-11.1574	-47.343491	0.000375	3.751626	1.271085	-0.000150
1286	1.2786e+02	-11.1863	-47.484791	0.000355	3.548835	1.202378	-0.000142
1287	1.2796e+02	-11.2377	-47.702796	0.000548	5.475346	1.855097	-0.000219
1288	1.2806e+02	-11.2697	-47.864281	0.000406	4.055812	1.374146	-0.000162
1289	1.2816e+02	-11.3098	-47.957135	0.000233	2.332092	0.790134	-0.000093
1290	1.2826e+02	-11.3580	-48.146881	0.000477	4.765579	1.614622	-0.000191
1291	1.2835e+02	-11.4029	-48.312403	0.000416	4.157207	1.408500	-0.000166
1292	1.2845e+02	-11.4318	-48.481963	0.000426	4.258602	1.442853	-0.000170
1293	1.2855e+02	-11.4751	-48.667671	0.000466	4.664183	1.580268	-0.000187
1294	1.2865e+02	-11.5088	-48.776674	0.000274	2.737673	0.927549	-0.000110
1295	1.2875e+02	-11.5553	-48.946234	0.000426	4.258602	1.442853	-0.000170
1296	1.2885e+02	-11.5874	-49.035051	0.000223	2.230696	0.755780	-0.000089
1297	1.2895e+02	-11.6275	-49.228833	0.000487	4.866974	1.648975	-0.000195
1298	1.2905e+02	-11.6740	-49.366096	0.000345	3.447440	1.168024	-0.000138
1299	1.2915e+02	-11.7141	-49.588138	0.000558	5.576741	1.889451	-0.000223
1300	1.2925e+02	-11.7574	-49.745587	0.000395	3.954416	1.339793	-0.000158
1301	1.2935e+02	-11.7879	-49.850552	0.000264	2.636278	0.893195	-0.000105
1302	1.2945e+02	-11.8312	-50.048372	0.000497	4.968369	1.683329	-0.000199
1303	1.2955e+02	-11.8713	-50.181597	0.000335	3.346045	1.133671	-0.000134
1304	1.2965e+02	-11.9114	-50.347120	0.000416	4.157207	1.408500	-0.000166
1305	1.2975e+02	-11.9563	-50.508605	0.000406	4.055812	1.374146	-0.000162
1306	1.2985e+02	-11.9852	-50.649905	0.000355	3.548835	1.202378	-0.000142
1307	1.2995e+02	-12.0350	-50.823502	0.000436	4.359997	1.477207	-0.000174
1308	1.3005e+02	-12.0702	-50.972876	0.000375	3.751626	1.271085	-0.000150
1309	1.3015e+02	-12.1168	-51.126287	0.000385	3.853021	1.305439	-0.000154
1310	1.3025e+02	-12.1569	-51.295847	0.000426	4.258602	1.442853	-0.000170
1311	1.3034e+02	-12.1841	-51.445221	0.000375	3.751626	1.271085	-0.000150
1312	1.3044e+02	-12.2243	-51.558261	0.000284	2.839068	0.961902	-0.000114
1313	1.3054e+02	-12.2788	-51.796452	0.000598	5.982322	2.026866	-0.000239
1314	1.3064e+02	-12.3029	-51.877194	0.000203	2.027906	0.687073	-0.000081
1315	1.3074e+02	-12.3494	-52.058865	0.000456	4.562788	1.545914	-0.000183
1316	1.3084e+02	-12.4007	-52.212276	0.000385	3.853021	1.305439	-0.000154
1317	1.3094e+02	-12.4248	-52.353576	0.000355	3.548835	1.202378	-0.000142
1318	1.3104e+02	-12.4697	-52.502950	0.000375	3.751626	1.271085	-0.000150
1319	1.3114e+02	-12.5130	-52.733067	0.000578	5.779532	1.958158	-0.000231
1320	1.3124e+02	-12.5499	-52.842070	0.000274	2.737673	0.927549	-0.000110
1321	1.3134e+02	-12.5932	-52.987407	0.000365	3.650230	1.236732	-0.000146
1322	1.3144e+02	-12.6333	-53.161003	0.000436	4.359997	1.477207	-0.000174
1323	1.3154e+02	-12.6686	-53.261932	0.000253	2.534882	0.858841	-0.000101
1324	1.3164e+02	-12.7135	-53.451677	0.000477	4.765579	1.614622	-0.000191
1325	1.3174e+02	-12.7472	-53.617200	0.000416	4.157207	1.408500	-0.000166
1326	1.3184e+02	-12.7841	-53.742351	0.000314	3.143254	1.064963	-0.000126
1327	1.3194e+02	-12.8210	-53.915948	0.000436	4.359997	1.477207	-0.000174
1328	1.3204e+02	-12.8708	-54.045136	0.000324	3.244649	1.099317	-0.000130
1329	1.3214e+02	-12.9061	-54.206622	0.000406	4.055812	1.374146	-0.000162
1330	1.3224e+02	-12.9574	-54.343884	0.000345	3.447440	1.168024	-0.000138
1331	1.3234e+02	-12.9734	-54.485184	0.000355	3.548835	1.202378	-0.000142
1332	1.3243e+02	-13.0216	-54.662818	0.000446	4.461393	1.511561	-0.000179
1333	1.3253e+02	-13.0665	-54.787969	0.000314	3.143254	1.064963	-0.000126
1334	1.3263e+02	-13.1034	-54.937343	0.000375	3.751626	1.271085	-0.000150
1335	1.3273e+02	-13.1515	-55.127089	0.000477	4.765579	1.614622	-0.000191
1336	1.3283e+02	-13.1868	-55.292611	0.000416	4.157207	1.408500	-0.000166
1337	1.3293e+02	-13.2221	-55.433911	0.000355	3.548835	1.202378	-0.000142
1338	1.3303e+02	-13.2606	-55.575211	0.000355	3.548835	1.202378	-0.000142
1339	1.3313e+02	-13.3039	-55.692288	0.000294	2.940463	0.996256	-0.000118
1340	1.3323e+02	-13.3376	-55.877996	0.000466	4.664183	1.580268	-0.000187
1341	1.3333e+02	-13.3873	-56.063704	0.000466	4.664183	1.580268	-0.000187
1342	1.3343e+02	-13.4194	-56.184818	0.000304	3.041859	1.030610	-0.000122
1343	1.3353e+02	-13.4643	-56.318044	0.000335	3.346045	1.133671	-0.000134
1344	1.3363e+02	-13.5012	-56.455306	0.000345	3.447440	1.168024	-0.000138
1345	1.3373e+02	-13.5526	-56.661200	0.000517	5.171160	1.752036	-0.000207
1346	1.3383e+02	-13.5798	-56.810574	0.000375	3.751626	1.271085	-0.000150
1347	1.3393e+02	-13.6231	-56.943800	0.000335	3.346045	1.133671	-0.000134
1348	1.3403e+02	-13.6649	-57.081062	0.000345	3.447440	1.168024	-0.000138
1349	1.3413e+02	-13.7114	-57.234473	0.000385	3.853021	1.305439	-0.000154
1350	1.3423e+02	-13.7435	-57.404033	0.000426	4.258602	1.442853	-0.000170
1351	1.3432e+02	-13.7852	-57.529184	0.000314	3.143254	1.064963	-0.000126
1352	1.3442e+02	-13.8317	-57.710855	0.000456	4.562788	1.545914	-0.000183
1353	1.3452e+02	-13.8686	-57.807747	0.000243	2.433487	0.824488	-0.000097
1354	1.3462e+02	-13.9071	-57.928861	0.000304	3.041859	1.030610	-0.000122
1355	1.3472e+02	-13.9408	-58.150903	0.000558	5.576741	1.889451	-0.000223
1356	1.3482e+02	-13.9841	-58.251832	0.000253	2.534882	0.858841	-0.000101
1357	1.3492e+02	-14.0242	-58.421391	0.000426	4.258602	1.442853	-0.000170
1358	1.3502e+02	-14.0515	-58.530394	0.000274	2.737673	0.927549	-0.000110
1359	1.3512e+02	-14.1044	-58.748399	0.000548	5.475346	1.855097	-0.000219
1360	1.3522e+02	-14.1429	-58.893736	0.000365	3.650230	1.236732	-0.000146
1361	1.3532e+02	-14.1846	-59.067333	0.000436	4.359997	1.477207	-0.000174
1362	1.3542e+02	-14.2279	-59.208633	0.000355	3.548835	1.202378	-0.000142
1363	1.3552e+02	-14.2600	-59.337821	0.000324	3.244649	1.099317	-0.000130
1364	1.3562e+02	-14.3033	-59.471047	0.000335	3.346045	1.133671	-0.000134
1365	1.3572e+02	-14.3434	-59.640606	0.000426	4.258602	1.442853	-0.000170
1366	1.3582e+02	-14.3803	-59.810166	0.000426	4.258602	1.442853	-0.000170
1367	1.3592e+02	-14.4172	-59.947429	0.000345	3.447440	1.168024	-0.000138
1368	1.3602e+02	-14.4622	-60.108914	0.000406	4.055812	1.374146	-0.000162
1369	1.3612e+02	-14.4975	-60.266362	0.000395	3.954416	1.339793	-0.000158
1370	1.3622e+02	-14.5440	-60.403625	0.000345	3.447440	1.168024	-0.000138
1371	1.3631e+02	-14.5793	-60.569147	0.000416	4.157207	1.408500	-0.000166
1372	1.3641e+02	-14.6210	-60.710447	0.000355	3.548835	1.202378	-0.000142
1373	1.3651e+02	-14.6579	-60.827524	0.000294	2.940463	0.996256	-0.000118
1374	1.3661e+02	-14.6964	-60.993047	0.000416	4.157207	1.408500	-0.000166
1375	1.3671e+02	-14.7397	-61.118198	0.000314	3.143254	1.064963	-0.000126
1376	1.3681e+02	-14.7862	-61.299869	0.000456	4.562788	1.545914	-0.000183
1377	1.3691e+02	-14.8199	-61.457317	0.000395	3.954416	1.339793	-0.000158
1378	1.3701e+02	-14.8616	-61.598617	0.000355	3.548835	1.202378	-0.000142
1379	1.3711e+02	-14.8985	-61.699545	0.000253	2.534882	0.858841	-0.000101
1380	1.3721e+02	-14.9418	-61.869105	0.000426	4.258602	1.442853	-0.000170
1381	1.3731e+02	-14.9851	-61.990219	0.000304	3.041859	1.030610	-0.000122
1382	1.3741e+02	-15.0092	-62.131519	0.000355	3.548835	1.202378	-0.000142
1383	1.3751e+02	-15.0509	-62.309153	0.000446	4.461393	1.511561	-0.000179
1384	1.3761e+02	-15.0990	-62.434304	0.000314	3.143254	1.064963	-0.000126
1385	1.3771e+02	-15.1343	-62.579641	0.000365	3.650230	1.236732	-0.000146
1386	1.3781e+02	-15.1728	-62.745164	0.000416	4.157207	1.408500	-0.000166
1387	1.3791e+02	-15.2161	-62.838018	0.000233	2.332092	0.790134	-0.000093
1388	1.3801e+02	-15.2530	-63.015652	0.000446	4.461393	1.511561	-0.000179
1389	1.3811e+02	-15.2948	-63.156951	0.000355	3.548835	1.202378	-0.000142
1390	1.3821e+02	-15.3413	-63.314400	0.000395	3.954416	1.339793	-0.000158
1391	1.3831e+02	-15.3766	-63.459737	0.000365	3.650230	1.236732	-0.000146
1392	1.3840e+02	-15.4167	-63.621222	0.000406	4.055812	1.374146	-0.000162
1393	1.3850e+02	-15.4584	-63.734262	0.000284	2.839068	0.961902	-0.000114
1394	1.3860e+02	-15.4889	-63.879599	0.000365	3.650230	1.236732	-0.000146
1395	1.3870e+02	-15.5322	-64.037047	0.000395	3.954416	1.339793	-0.000158
1396	1.3880e+02	-15.5723	-64.198533	0.000406	4.055812	1.374146	-0.000162
1397	1.3890e+02	-15.6236	-64.331758	0.000335	3.346045	1.133671	-0.000134
1398	1.3900e+02	-15.6525	-64.469021	0.000345	3.447440	1.168024	-0.000138
1399	1.3910e+02	-15.6910	-64.606283	0.000345	3.447440	1.168024	-0.000138
1400	1.3920e+02	-15.7375	-64.751620	0.000365	3.650230	1.236732	-0.000146
1401	1.3930e+02	-15.7744	-64.921180	0.000426	4.258602	1.442853	-0.000170
1402	1.3940e+02	-15.8177	-65.054405	0.000335	3.346045	1.133671	-0.000134
1403	1.3950e+02	-15.8594	-65.199742	0.000365	3.650230	1.236732	-0.000146
1404	1.3960e+02	-15.8835	-65.373339	0.000436	4.359997	1.477207	-0.000174
1405	1.3970e+02	-15.9381	-65.506564	0.000335	3.346045	1.133671	-0.000134
1406	1.3980e+02	-15.9717	-65.651901	0.000365	3.650230	1.236732	-0.000146
1407	1.3990e+02	-16.0215	-65.789164	0.000345	3.447440	1.168024	-0.000138
1408	1.4000e+02	-16.0487	-65.894130	0.000264	2.636278	0.893195	-0.000105
1409	1.4010e+02	-16.0889	-66.112135	0.000548	5.475346	1.855097	-0.000219
1410	1.4020e+02	-16.1241	-66.229212	0.000294	2.940463	0.996256	-0.000118
1411	1.4029e+02	-16.1771	-66.342252	0.000284	2.839068	0.961902	-0.000114
1412	1.4039e+02	-16.2140	-66.499700	0.000395	3.954416	1.339793	-0.000158
1413	1.4049e+02	-16.2477	-66.649074	0.000375	3.751626	1.271085	-0.000150
1414	1.4059e+02	-16.2958	-66.790374	0.000355	3.548835	1.202378	-0.000142
1415	1.4069e+02	-16.3279	-66.931673	0.000355	3.548835	1.202378	-0.000142
1416	1.4079e+02	-16.3712	-67.093159	0.000406	4.055812	1.374146	-0.000162
1417	1.4089e+02	-16.4113	-67.254644	0.000406	4.055812	1.374146	-0.000162
1418	1.4099e+02	-16.4546	-67.404018	0.000375	3.751626	1.271085	-0.000150
1419	1.4109e+02	-16.4915	-67.525132	0.000304	3.041859	1.030610	-0.000122
1420	1.4119e+02	-16.5380	-67.642209	0.000294	2.940463	0.996256	-0.000118
1421	1.4129e+02	-16.5781	-67.823880	0.000456	4.562788	1.545914	-0.000183
1422	1.4139e+02	-16.6166	-67.969217	0.000365	3.650230	1.236732	-0.000146
1423	1.4149e+02	-16.6487	-68.102443	0.000335	3.346045	1.133671	-0.000134
1424	1.4159e+02	-16.6856	-68.259891	0.000395	3.954416	1.339793	-0.000158
1425	1.4169e+02	-16.7338	-68.385042	0.000314	3.143254	1.064963	-0.000126
1426	1.4179e+02	-16.7690	-68.534416	0.000375	3.751626	1.271085	-0.000150
1427	1.4189e+02	-16.8092	-68.675716	0.000355	3.548835	1.202378	-0.000142
1428	1.4199e+02	-16.8525	-68.853350	0.000446	4.461393	1.511561	-0.000179
1429	1.4209e+02	-16.8765	-69.022910	0.000426	4.258602	1.442853	-0.000170
1430	1.4219e+02	-16.9375	-69.139987	0.000294	2.940463	0.996256	-0.000118
1431	1.4228e+02	-16.9680	-69.285324	0.000365	3.650230	1.236732	-0.000146
1432	1.4238e+02	-17.0129	-69.438735	0.000385	3.853021	1.305439	-0.000154
1433	1.4248e+02	-17.0578	-69.571960	0.000335	3.346045	1.133671	-0.000134
1434	1.4258e+02	-17.1011	-69.713260	0.000355	3.548835	1.202378	-0.000142
1435	1.4268e+02	-17.1172	-69.858597	0.000365	3.650230	1.236732	-0.000146
1436	1.4278e+02	-17.1669	-69.991822	0.000335	3.346045	1.133671	-0.000134
1437	1.4288e+02	-17.1990	-70.153308	0.000406	4.055812	1.374146	-0.000162
1438	1.4298e+02	-17.2359	-70.298645	0.000365	3.650230	1.236732	-0.000146
1439	1.4308e+02	-17.2968	-70.472241	0.000436	4.359997	1.477207	-0.000174
1440	1.4318e+02	-17.3289	-70.593356	0.000304	3.041859	1.030610	-0.000122
1441	1.4328e+02	-17.3754	-70.726581	0.000335	3.346045	1.133671	-0.000134
1442	1.4338e+02	-17.4123	-70.888066	0.000406	4.055812	1.374146	-0.000162
1443	1.4348e+02	-17.4557	-70.997069	0.000274	2.737673	0.927549	-0.000110
1444	1.4358e+02	-17.4845	-71.198926	0.000507	5.069764	1.717683	-0.000203
1445	1.4368e+02	-17.5327	-71.328114	0.000324	3.244649	1.099317	-0.000130
1446	1.4378e+02	-17.5663	-71.505748	0.000446	4.461393	1.511561	-0.000179
1447	1.4388e+02	-17.6081	-71.606677	0.000253	2.534882	0.858841	-0.000101
1448	1.4398e+02	-17.6498	-71.772199	0.000416	4.157207	1.408500	-0.000166
1449	1.4408e+02	-17.6851	-71.905425	0.000335	3.346045	1.133671	-0.000134
1450	1.4418e+02	-17.7316	-72.079021	0.000436	4.359997	1.477207	-0.000174
1451	1.4428e+02	-17.7685	-72.228395	0.000375	3.751626	1.271085	-0.000150
1452	1.4437e+02	-17.8038	-72.401992	0.000436	4.359997	1.477207	-0.000174
1453	1.4447e+02	-17.8487	-72.498884	0.000243	2.433487	0.824488	-0.000097
1454	1.4457e+02	-17.8872	-72.680555	0.000456	4.562788	1.545914	-0.000183
1455	1.4467e+02	-17.9241	-72.838003	0.000395	3.954416	1.339793	-0.000158
1456	1.4477e+02	-17.9658	-73.003526	0.000416	4.157207	1.408500	-0.000166
1457	1.4487e+02	-18.0139	-73.193271	0.000477	4.765579	1.614622	-0.000191
1458	1.4497e+02	-18.0396	-73.342645	0.000375	3.751626	1.271085	-0.000150
1459	1.4507e+02	-18.0813	-73.524316	0.000456	4.562788	1.545914	-0.000183
1460	1.4517e+02	-18.1214	-73.645430	0.000304	3.041859	1.030610	-0.000122
1461	1.4527e+02	-18.1695	-73.819027	0.000436	4.359997	1.477207	-0.000174
1462	1.4537e+02	-18.2016	-73.952252	0.000335	3.346045	1.133671	-0.000134
1463	1.4547e+02	-18.2514	-74.146035	0.000487	4.866974	1.648975	-0.000195
1464	1.4557e+02	-18.2818	-74.271186	0.000314	3.143254	1.064963	-0.000126
1465	1.4567e+02	-18.3171	-74.424597	0.000385	3.853021	1.305439	-0.000154
1466	1.4577e+02	-18.3733	-74.610306	0.000466	4.664183	1.580268	-0.000187
1467	1.4587e+02	-18.4086	-74.791977	0.000456	4.562788	1.545914	-0.000183
1468	1.4597e+02	-18.4487	-74.981722	0.000477	4.765579	1.614622	-0.000191
1469	1.4607e+02	-18.4808	-75.135133	0.000385	3.853021	1.305439	-0.000154
1470	1.4617e+02	-18.5305	-75.296619	0.000406	4.055812	1.374146	-0.000162
1471	1.4626e+02	-18.5658	-75.526735	0.000578	5.779532	1.958158	-0.000231
1472	1.4636e+02	-18.6059	-75.663998	0.000345	3.447440	1.168024	-0.000138
1473	1.4646e+02	-18.6476	-75.821446	0.000395	3.954416	1.339793	-0.000158
1474	1.4656e+02	-18.6861	-76.007155	0.000466	4.664183	1.580268	-0.000187
1475	1.4666e+02	-18.7278	-76.196900	0.000477	4.765579	1.614622	-0.000191
1476	1.4676e+02	-18.7567	-76.366460	0.000426	4.258602	1.442853	-0.000170
1477	1.4686e+02	-18.7936	-76.544094	0.000446	4.461393	1.511561	-0.000179
1478	1.4696e+02	-18.8369	-76.717690	0.000436	4.359997	1.477207	-0.000174
1479	1.4706e+02	-18.8850	-76.919547	0.000507	5.069764	1.717683	-0.000203
1480	1.4716e+02	-18.9299	-77.076996	0.000395	3.954416	1.339793	-0.000158
1481	1.4726e+02	-18.9620	-77.262704	0.000466	4.664183	1.580268	-0.000187
1482	1.4736e+02	-19.0086	-77.408041	0.000365	3.650230	1.236732	-0.000146
1483	1.4746e+02	-19.0551	-77.613935	0.000517	5.171160	1.752036	-0.000207
1484	1.4756e+02	-19.0856	-77.819828	0.000517	5.171160	1.752036	-0.000207
1485	1.4766e+02	-19.1225	-78.021685	0.000507	5.069764	1.717683	-0.000203
1486	1.4776e+02	-19.1706	-78.191245	0.000426	4.258602	1.442853	-0.000170
1487	1.4786e+02	-19.2075	-78.401176	0.000527	5.272555	1.786390	-0.000211
1488	1.4796e+02	-19.2412	-78.566699	0.000416	4.157207	1.408500	-0.000166
1489	1.4806e+02	-19.2845	-78.764518	0.000497	4.968369	1.683329	-0.000199
1490	1.4816e+02	-19.3262	-78.970412	0.000517	5.171160	1.752036	-0.000207
1491	1.4825e+02	-19.3663	-79.196492	0.000568	5.678136	1.923805	-0.000227
1492	1.4835e+02	-19.4000	-79.378163	0.000456	4.562788	1.545914	-0.000183
1493	1.4845e+02	-19.4385	-79.636540	0.000649	6.489299	2.198634	-0.000260
1494	1.4855e+02	-19.4850	-79.785914	0.000375	3.751626	1.271085	-0.000150
1495	1.4865e+02	-19.5219	-80.032179	0.000619	6.185113	2.095573	-0.000248
1496	1.4875e+02	-19.5556	-80.197701	0.000416	4.157207	1.408500	-0.000166
1497	1.4885e+02	-19.6005	-80.399558	0.000507	5.069764	1.717683	-0.000203
1498	1.4895e+02	-19.6406	-80.601415	0.000507	5.069764	1.717683	-0.000203
1499	1.4905e+02	-19.6759	-80.831532	0.000578	5.779532	1.958158	-0.000231
1500	1.4915e+02	-19.7112	-81.077797	0.000619	6.185113	2.095573	-0.000248
1501	1.4925e+02	-19.7641	-81.247357	0.000426	4.258602	1.442853	-0.000170
1502	1.4935e+02	-19.8043	-81.485548	0.000598	5.982322	2.026866	-0.000239
1503	1.4945e+02	-19.8363	-81.679330	0.000487	4.866974	1.648975	-0.000195
1504	1.4955e+02	-19.8941	-81.909447	0.000578	5.779532	1.958158	-0.000231
1505	1.4965e+02	-19.9166	-82.167824	0.000649	6.489299	2.198634	-0.000260
1506	1.4975e+02	-19.9631	-82.393903	0.000568	5.678136	1.923805	-0.000227
1507	1.4985e+02	-19.9936	-82.607871	0.000537	5.373950	1.820744	-0.000215
1508	1.4995e+02	-19.9615	-82.615946	-0.000020	-0.202791	-0.068707	-0.000008
1509	1.5005e+02	-19.9182	-82.624020	-0.000020	-0.202791	-0.068707	-0.000008
1510	1.5015e+02	-19.8732	-82.595760	0.000071	0.709767	0.240476	0.000028
1511	1.5025e+02	-19.8347	-82.595760	0.000000	0.000000	0.000000	0.000000
1512	1.5034e+02	-19.7994	-82.535203	0.000152	1.520929	0.515305	0.000061
1513	1.5044e+02	-19.7658	-82.531166	0.000010	0.101395	0.034354	0.000004
1514	1.5054e+02	-19.7208	-82.494832	0.000091	0.912558	0.309183	0.000037
1515	1.5064e+02	-19.6743	-82.478683	0.000041	0.405581	0.137415	0.000016
1516	1.5074e+02	-19.6390	-82.442349	0.000091	0.912558	0.309183	0.000037
1517	1.5084e+02	-19.5973	-82.373718	0.000172	1.723720	0.584012	0.000069
1518	1.5094e+02	-19.5588	-82.345458	0.000071	0.709767	0.240476	0.000028
1519	1.5104e+02	-19.5235	-82.244529	0.000253	2.534882	0.858841	0.000101
1520	1.5114e+02	-19.4786	-82.212232	0.000081	0.811162	0.274829	0.000032
1521	1.5124e+02	-19.4433	-82.115341	0.000243	2.433487	0.824488	0.000097
1522	1.5134e+02	-19.4080	-82.083044	0.000081	0.811162	0.274829	0.000032
1523	1.5144e+02	-19.3615	-82.026524	0.000142	1.419534	0.480951	0.000057
1524	1.5154e+02	-19.3118	-81.970004	0.000142	1.419534	0.480951	0.000057
1525	1.5164e+02	-19.2781	-81.889261	0.000203	2.027906	0.687073	0.000081
1526	1.5174e+02	-19.2412	-81.796407	0.000233	2.332092	0.790134	0.000093
1527	1.5184e+02	-19.2043	-81.747962	0.000122	1.216743	0.412244	0.000049
1528	1.5194e+02	-19.1658	-81.691442	0.000142	1.419534	0.480951	0.000057
1529	1.5204e+02	-19.1225	-81.602625	0.000223	2.230696	0.755780	0.000089
1530	1.5214e+02	-19.0823	-81.505733	0.000243	2.433487	0.824488	0.000097
1531	1.5224e+02	-19.0487	-81.404805	0.000253	2.534882	0.858841	0.000101
1532	1.5233e+02	-18.9989	-81.388656	0.000041	0.405581	0.137415	0.000016
1533	1.5243e+02	-18.9652	-81.259468	0.000324	3.244649	1.099317	0.000130
1534	1.5253e+02	-18.9267	-81.174688	0.000213	2.129301	0.721427	0.000085
1535	1.5263e+02	-18.8850	-81.114131	0.000152	1.520929	0.515305	0.000061
1536	1.5273e+02	-18.8465	-81.021277	0.000233	2.332092	0.790134	0.000093
1537	1.5283e+02	-18.8032	-80.936497	0.000213	2.129301	0.721427	0.000085
1538	1.5293e+02	-18.7583	-80.807309	0.000324	3.244649	1.099317	0.000130
1539	1.5303e+02	-18.7198	-80.766938	0.000101	1.013953	0.343537	0.000041
1540	1.5313e+02	-18.6861	-80.645824	0.000304	3.041859	1.030610	0.000122
1541	1.5323e+02	-18.6540	-80.532784	0.000284	2.839068	0.961902	0.000114
1542	1.5333e+02	-18.6059	-80.452041	0.000203	2.027906	0.687073	0.000081
1543	1.5343e+02	-18.5642	-80.314778	0.000345	3.447440	1.168024	0.000138
1544	1.5353e+02	-18.5305	-80.274407	0.000101	1.013953	0.343537	0.000041
1545	1.5363e+02	-18.4792	-80.133107	0.000355	3.548835	1.202378	0.000142
1546	1.5373e+02	-18.4503	-80.048327	0.000213	2.129301	0.721427	0.000085
1547	1.5383e+02	-18.3989	-79.959510	0.000223	2.230696	0.755780	0.000089
1548	1.5393e+02	-18.3749	-79.882805	0.000193	1.926511	0.652719	0.000077
1549	1.5403e+02	-18.3219	-79.709208	0.000436	4.359997	1.477207	0.000174
1550	1.5413e+02	-18.2883	-79.640577	0.000172	1.723720	0.584012	0.000069
1551	1.5422e+02	-18.2401	-79.515425	0.000314	3.143254	1.064963	0.000126
1552	1.5432e+02	-18.2048	-79.458906	0.000142	1.419534	0.480951	0.000057
1553	1.5442e+02	-18.1744	-79.329717	0.000324	3.244649	1.099317	0.000130
1554	1.5452e+02	-18.1359	-79.232826	0.000243	2.433487	0.824488	0.000097
1555	1.5462e+02	-18.0877	-79.115749	0.000294	2.940463	0.996256	0.000118
1556	1.5472e+02	-18.0428	-78.998672	0.000294	2.940463	0.996256	0.000118
1557	1.5482e+02	-18.0075	-78.881595	0.000294	2.940463	0.996256	0.000118
1558	1.5492e+02	-17.9770	-78.780667	0.000253	2.534882	0.858841	0.000101
1559	1.5502e+02	-17.9337	-78.724147	0.000142	1.419534	0.480951	0.000057
1560	1.5512e+02	-17.8856	-78.586884	0.000345	3.447440	1.168024	0.000138
1561	1.5522e+02	-17.8535	-78.518253	0.000172	1.723720	0.584012	0.000069
1562	1.5532e+02	-17.8006	-78.356768	0.000406	4.055812	1.374146	0.000162
1563	1.5542e+02	-17.7733	-78.288136	0.000172	1.723720	0.584012	0.000069
1564	1.5552e+02	-17.7252	-78.158948	0.000324	3.244649	1.099317	0.000130
1565	1.5562e+02	-17.6867	-78.066094	0.000233	2.332092	0.790134	0.000093
1566	1.5572e+02	-17.6401	-77.936905	0.000324	3.244649	1.099317	0.000130
1567	1.5582e+02	-17.6049	-77.807717	0.000324	3.244649	1.099317	0.000130
1568	1.5592e+02	-17.5712	-77.731012	0.000193	1.926511	0.652719	0.000077
1569	1.5602e+02	-17.5230	-77.605860	0.000314	3.143254	1.064963	0.000126
1570	1.5612e+02	-17.4765	-77.492820	0.000284	2.839068	0.961902	0.000114
1571	1.5622e+02	-17.4476	-77.379781	0.000284	2.839068	0.961902	0.000114
1572	1.5631e+02	-17.4107	-77.246555	0.000335	3.346045	1.133671	0.000134
1573	1.5641e+02	-17.3706	-77.129478	0.000294	2.940463	0.996256	0.000118
1574	1.5651e+02	-17.3321	-77.060847	0.000172	1.723720	0.584012	0.000069
1575	1.5661e+02	-17.2952	-76.903399	0.000395	3.954416	1.339793	0.000158
1576	1.5671e+02	-17.2471	-76.842842	0.000152	1.520929	0.515305	0.000061
1577	1.5681e+02	-17.2150	-76.741913	0.000253	2.534882	0.858841	0.000101
1578	1.5691e+02	-17.1733	-76.584465	0.000395	3.954416	1.339793	0.000158
1579	1.5701e+02	-17.1332	-76.483537	0.000253	2.534882	0.858841	0.000101
1580	1.5711e+02	-17.0867	-76.350311	0.000335	3.346045	1.133671	0.000134
1581	1.5721e+02	-17.0498	-76.229197	0.000304	3.041859	1.030610	0.000122
1582	1.5731e+02	-17.0129	-76.128269	0.000253	2.534882	0.858841	0.000101
1583	1.5741e+02	-16.9712	-76.035414	0.000233	2.332092	0.790134	0.000093
1584	1.5751e+02	-16.9311	-75.922375	0.000284	2.839068	0.961902	0.000114
1585	1.5761e+02	-16.8894	-75.797223	0.000314	3.143254	1.064963	0.000126
1586	1.5771e+02	-16.8460	-75.684184	0.000284	2.839068	0.961902	0.000114
1587	1.5781e+02	-16.8059	-75.550958	0.000335	3.346045	1.133671	0.000134
1588	1.5791e+02	-16.7690	-75.454067	0.000243	2.433487	0.824488	0.000097
1589	1.5801e+02	-16.7354	-75.300656	0.000385	3.853021	1.305439	0.000154
1590	1.5811e+02	-16.6985	-75.183579	0.000294	2.940463	0.996256	0.000118
1591	1.5821e+02	-16.6551	-75.114948	0.000172	1.723720	0.584012	0.000069
1592	1.5830e+02	-16.6166	-74.981722	0.000335	3.346045	1.133671	0.000134
1593	1.5840e+02	-16.5830	-74.840422	0.000355	3.548835	1.202378	0.000142
1594	1.5850e+02	-16.5316	-74.751605	0.000223	2.230696	0.755780	0.000089
1595	1.5860e+02	-16.4963	-74.606268	0.000365	3.650230	1.236732	0.000146
1596	1.5870e+02	-16.4482	-74.497266	0.000274	2.737673	0.927549	0.000110
1597	1.5880e+02	-16.4129	-74.392300	0.000264	2.636278	0.893195	0.000105
1598	1.5890e+02	-16.3696	-74.271186	0.000304	3.041859	1.030610	0.000122
1599	1.5900e+02	-16.3247	-74.162184	0.000274	2.737673	0.927549	0.000110
1600	1.5910e+02	-16.2974	-74.020884	0.000355	3.548835	1.202378	0.000142
1601	1.5920e+02	-16.2493	-73.875547	0.000365	3.650230	1.236732	0.000146
1602	1.5930e+02	-16.2124	-73.802878	0.000183	1.825115	0.618366	0.000073
1603	1.5940e+02	-16.1739	-73.669653	0.000335	3.346045	1.133671	0.000134
1604	1.5950e+02	-16.1370	-73.548539	0.000304	3.041859	1.030610	0.000122
1605	1.5960e+02	-16.0985	-73.455685	0.000233	2.332092	0.790134	0.000093
1606	1.5970e+02	-16.0487	-73.306311	0.000375	3.751626	1.271085	0.000150
1607	1.5980e+02	-16.0215	-73.177122	0.000324	3.244649	1.099317	0.000130
1608	1.5990e+02	-15.9733	-73.056008	0.000304	3.041859	1.030610	0.000122
1609	1.6000e+02	-15.9332	-72.959117	0.000243	2.433487	0.824488	0.000097
1610	1.6010e+02	-15.8867	-72.813780	0.000365	3.650230	1.236732	0.000146
1611	1.6019e+02	-15.8562	-72.680555	0.000335	3.346045	1.133671	0.000134
1612	1.6029e+02	-15.8193	-72.575589	0.000264	2.636278	0.893195	0.000105
1613	1.6039e+02	-15.7792	-72.462549	0.000284	2.839068	0.961902	0.000114
1614	1.6049e+02	-15.7327	-72.305101	0.000395	3.954416	1.339793	0.000158
1615	1.6059e+02	-15.6990	-72.183987	0.000304	3.041859	1.030610	0.000122
1616	1.6069e+02	-15.6557	-72.026539	0.000395	3.954416	1.339793	0.000158
1617	1.6079e+02	-15.6108	-71.978093	0.000122	1.216743	0.412244	0.000049
1618	1.6089e+02	-15.5803	-71.848905	0.000324	3.244649	1.099317	0.000130
1619	1.6099e+02	-15.5322	-71.691456	0.000395	3.954416	1.339793	0.000158
1620	1.6109e+02	-15.4953	-71.562268	0.000324	3.244649	1.099317	0.000130
1621	1.6119e+02	-15.4616	-71.437117	0.000314	3.143254	1.064963	0.000126
1622	1.6129e+02	-15.4119	-71.340226	0.000243	2.433487	0.824488	0.000097
1623	1.6139e+02	-15.3686	-71.190852	0.000375	3.751626	1.271085	0.000150
1624	1.6149e+02	-15.3333	-71.085886	0.000264	2.636278	0.893195	0.000105
1625	1.6159e+02	-15.2915	-70.988995	0.000243	2.433487	0.824488	0.000097
1626	1.6169e+02	-15.2514	-70.831547	0.000395	3.954416	1.339793	0.000158
1627	1.6179e+02	-15.2242	-70.742730	0.000223	2.230696	0.755780	0.000089
1628	1.6189e+02	-15.1825	-70.605467	0.000345	3.447440	1.168024	0.000138
1629	1.6199e+02	-15.1456	-70.456093	0.000375	3.751626	1.271085	0.000150
1630	1.6209e+02	-15.1006	-70.355165	0.000253	2.534882	0.858841	0.000101
1631	1.6219e+02	-15.0686	-70.221939	0.000335	3.346045	1.133671	0.000134
1632	1.6228e+02	-15.0156	-70.108899	0.000284	2.839068	0.961902	0.000114
1633	1.6238e+02	-14.9867	-69.939340	0.000426	4.258602	1.442853	0.000170
1634	1.6248e+02	-14.9354	-69.834374	0.000264	2.636278	0.893195	0.000105
1635	1.6258e+02	-14.8969	-69.737483	0.000243	2.433487	0.824488	0.000097
1636	1.6268e+02	-14.8616	-69.616369	0.000304	3.041859	1.030610	0.000122
1637	1.6278e+02	-14.8215	-69.487180	0.000324	3.244649	1.099317	0.000130
1638	1.6288e+02	-14.7766	-69.341843	0.000365	3.650230	1.236732	0.000146
1639	1.6298e+02	-14.7333	-69.232841	0.000274	2.737673	0.927549	0.000110
1640	1.6308e+02	-14.6916	-69.115764	0.000294	2.940463	0.996256	0.000118
1641	1.6318e+02	-14.6595	-68.966390	0.000375	3.751626	1.271085	0.000150
1642	1.6328e+02	-14.6226	-68.861424	0.000264	2.636278	0.893195	0.000105
1643	1.6338e+02	-14.5825	-68.732236	0.000324	3.244649	1.099317	0.000130
1644	1.6348e+02	-14.5343	-68.578825	0.000385	3.853021	1.305439	0.000154
1645	1.6358e+02	-14.5023	-68.490008	0.000223	2.230696	0.755780	0.000089
1646	1.6368e+02	-14.4670	-68.368894	0.000304	3.041859	1.030610	0.000122
1647	1.6378e+02	-14.4156	-68.207408	0.000406	4.055812	1.374146	0.000162
1648	1.6388e+02	-14.3755	-68.086294	0.000304	3.041859	1.030610	0.000122
1649	1.6398e+02	-14.3338	-67.973254	0.000284	2.839068	0.961902	0.000114
1650	1.6408e+02	-14.3049	-67.835992	0.000345	3.447440	1.168024	0.000138
1651	1.6418e+02	-14.2584	-67.686618	0.000375	3.751626	1.271085	0.000150
1652	1.6427e+02	-14.2215	-67.581652	0.000264	2.636278	0.893195	0.000105
1653	1.6437e+02	-14.1910	-67.480724	0.000253	2.534882	0.858841	0.000101
1654	1.6447e+02	-14.1477	-67.323276	0.000395	3.954416	1.339793	0.000158
1655	1.6457e+02	-14.0948	-67.210236	0.000284	2.839068	0.961902	0.000114
1656	1.6467e+02	-14.0627	-67.097196	0.000284	2.839068	0.961902	0.000114
1657	1.6477e+02	-14.0306	-66.963970	0.000335	3.346045	1.133671	0.000134
1658	1.6487e+02	-13.9745	-66.786337	0.000446	4.461393	1.511561	0.000179
1659	1.6497e+02	-13.9456	-66.665222	0.000304	3.041859	1.030610	0.000122
1660	1.6507e+02	-13.9055	-66.511811	0.000385	3.853021	1.305439	0.000154
1661	1.6517e+02	-13.8590	-66.410883	0.000253	2.534882	0.858841	0.000101
1662	1.6527e+02	-13.8157	-66.269583	0.000355	3.548835	1.202378	0.000142
1663	1.6537e+02	-13.7788	-66.188840	0.000203	2.027906	0.687073	0.000081
1664	1.6547e+02	-13.7451	-66.039466	0.000375	3.751626	1.271085	0.000150
1665	1.6557e+02	-13.7050	-65.902204	0.000345	3.447440	1.168024	0.000138
1666	1.6567e+02	-13.6584	-65.773015	0.000324	3.244649	1.099317	0.000130
1667	1.6577e+02	-13.6247	-65.659976	0.000284	2.839068	0.961902	0.000114
1668	1.6587e+02	-13.5862	-65.530787	0.000324	3.244649	1.099317	0.000130
1669	1.6597e+02	-13.5413	-65.377376	0.000385	3.853021	1.305439	0.000154
1670	1.6607e+02	-13.5012	-65.232039	0.000365	3.650230	1.236732	0.000146
1671	1.6616e+02	-13.4643	-65.127074	0.000264	2.636278	0.893195	0.000105
1672	1.6626e+02	-13.4290	-64.953477	0.000436	4.359997	1.477207	0.000174
1673	1.6636e+02	-13.3905	-64.840437	0.000284	2.839068	0.961902	0.000114
1674	1.6646e+02	-13.3536	-64.691063	0.000375	3.751626	1.271085	0.000150
1675	1.6656e+02	-13.3007	-64.606283	0.000213	2.129301	0.721427	0.000085
1676	1.6666e+02	-13.2686	-64.469021	0.000345	3.447440	1.168024	0.000138
1677	1.6676e+02	-13.2205	-64.335795	0.000335	3.346045	1.133671	0.000134
1678	1.6686e+02	-13.1772	-64.218718	0.000294	2.940463	0.996256	0.000118
1679	1.6696e+02	-13.1435	-64.028973	0.000477	4.765579	1.614622	0.000191
1680	1.6706e+02	-13.1018	-63.875562	0.000385	3.853021	1.305439	0.000154
1681	1.6716e+02	-13.0649	-63.770596	0.000264	2.636278	0.893195	0.000105
1682	1.6726e+02	-13.0264	-63.653519	0.000294	2.940463	0.996256	0.000118
1683	1.6736e+02	-12.9798	-63.500108	0.000385	3.853021	1.305439	0.000154
1684	1.6746e+02	-12.9478	-63.362845	0.000345	3.447440	1.168024	0.000138
1685	1.6756e+02	-12.9077	-63.245768	0.000294	2.940463	0.996256	0.000118
1686	1.6766e+02	-12.8676	-63.132729	0.000284	2.839068	0.961902	0.000114
1687	1.6776e+02	-12.8339	-62.963169	0.000426	4.258602	1.442853	0.000170
1688	1.6786e+02	-12.7857	-62.858203	0.000264	2.636278	0.893195	0.000105
1689	1.6796e+02	-12.7504	-62.749201	0.000274	2.737673	0.927549	0.000110
1690	1.6806e+02	-12.7087	-62.595790	0.000385	3.853021	1.305439	0.000154
1691	1.6816e+02	-12.6686	-62.490824	0.000264	2.636278	0.893195	0.000105
1692	1.6825e+02	-12.6269	-62.317227	0.000436	4.359997	1.477207	0.000174
1693	1.6835e+02	-12.5852	-62.167853	0.000375	3.751626	1.271085	0.000150
1694	1.6845e+02	-12.5515	-62.091148	0.000193	1.926511	0.652719	0.000077
1695	1.6855e+02	-12.5066	-61.921588	0.000426	4.258602	1.442853	0.000170
1696	1.6865e+02	-12.4681	-61.768177	0.000385	3.853021	1.305439	0.000154
1697	1.6875e+02	-12.4376	-61.651100	0.000294	2.940463	0.996256	0.000118
1698	1.6885e+02	-12.3975	-61.521912	0.000324	3.244649	1.099317	0.000130
1699	1.6895e+02	-12.3494	-61.376575	0.000365	3.650230	1.236732	0.000146
1700	1.6905e+02	-12.3157	-61.215089	0.000406	4.055812	1.374146	0.000162
1701	1.6915e+02	-12.2628	-61.142421	0.000183	1.825115	0.618366	0.000073
1702	1.6925e+02	-12.2194	-60.968824	0.000436	4.359997	1.477207	0.000174
1703	1.6935e+02	-12.1793	-60.875970	0.000233	2.332092	0.790134	0.000093
1704	1.6945e+02	-12.1473	-60.682187	0.000487	4.866974	1.648975	0.000195
1705	1.6955e+02	-12.1168	-60.557036	0.000314	3.143254	1.064963	0.000126
1706	1.6965e+02	-12.0719	-60.419773	0.000345	3.447440	1.168024	0.000138
1707	1.6975e+02	-12.0237	-60.302697	0.000294	2.940463	0.996256	0.000118
1708	1.6985e+02	-11.9868	-60.157360	0.000365	3.650230	1.236732	0.000146
1709	1.6995e+02	-11.9547	-60.028171	0.000324	3.244649	1.099317	0.000130
1710	1.7005e+02	-11.9082	-59.858612	0.000426	4.258602	1.442853	0.000170
1711	1.7015e+02	-11.8793	-59.729423	0.000324	3.244649	1.099317	0.000130
1712	1.7024e+02	-11.8264	-59.571975	0.000395	3.954416	1.339793	0.000158
1713	1.7034e+02	-11.7879	-59.450861	0.000304	3.041859	1.030610	0.000122
1714	1.7044e+02	-11.7382	-59.265153	0.000466	4.664183	1.580268	0.000187
1715	1.7054e+02	-11.7077	-59.172299	0.000233	2.332092	0.790134	0.000093
1716	1.7064e+02	-11.6740	-59.026962	0.000365	3.650230	1.236732	0.000146
1717	1.7074e+02	-11.6323	-58.921996	0.000264	2.636278	0.893195	0.000105
1718	1.7084e+02	-11.5922	-58.716102	0.000517	5.171160	1.752036	0.000207
1719	1.7094e+02	-11.5553	-58.578840	0.000345	3.447440	1.168024	0.000138
1720	1.7104e+02	-11.5136	-58.453688	0.000314	3.143254	1.064963	0.000126
1721	1.7114e+02	-11.4767	-58.320463	0.000335	3.346045	1.133671	0.000134
1722	1.7124e+02	-11.4302	-58.191275	0.000324	3.244649	1.099317	0.000130
1723	1.7134e+02	-11.3981	-57.997492	0.000487	4.866974	1.648975	0.000195
1724	1.7144e+02	-11.3580	-57.900601	0.000243	2.433487	0.824488	0.000097
1725	1.7154e+02	-11.3098	-57.747190	0.000385	3.853021	1.305439	0.000154
1726	1.7164e+02	-11.2762	-57.589741	0.000395	3.954416	1.339793	0.000158
1727	1.7174e+02	-11.2409	-57.448442	0.000355	3.548835	1.202378	0.000142
1728	1.7184e+02	-11.1943	-57.262733	0.000466	4.664183	1.580268	0.000187
1729	1.7194e+02	-11.1574	-57.161805	0.000253	2.534882	0.858841	0.000101
1730	1.7204e+02	-11.1205	-57.016468	0.000365	3.650230	1.236732	0.000146
1731	1.7213e+02	-11.0692	-56.854983	0.000406	4.055812	1.374146	0.000162
1732	1.7223e+02	-11.0339	-56.733869	0.000304	3.041859	1.030610	0.000122
1733	1.7233e+02	-10.9986	-56.596606	0.000345	3.447440	1.168024	0.000138
1734	1.7243e+02	-10.9585	-56.479529	0.000294	2.940463	0.996256	0.000118
1735	1.7253e+02	-10.9248	-56.350341	0.000324	3.244649	1.099317	0.000130
1736	1.7263e+02	-10.8671	-56.176744	0.000436	4.359997	1.477207	0.000174
1737	1.7273e+02	-10.8302	-56.039481	0.000345	3.447440	1.168024	0.000138
1738	1.7283e+02	-10.7949	-55.910293	0.000324	3.244649	1.099317	0.000130
1739	1.7293e+02	-10.7516	-55.760919	0.000375	3.751626	1.271085	0.000150
1740	1.7303e+02	-10.7034	-55.575211	0.000466	4.664183	1.580268	0.000187
1741	1.7313e+02	-10.6794	-55.450059	0.000314	3.143254	1.064963	0.000126
1742	1.7323e+02	-10.6280	-55.292611	0.000395	3.954416	1.339793	0.000158
1743	1.7333e+02	-10.5992	-55.151311	0.000355	3.548835	1.202378	0.000142
1744	1.7343e+02	-10.5607	-55.054420	0.000243	2.433487	0.824488	0.000097
1745	1.7353e+02	-10.5125	-54.860638	0.000487	4.866974	1.648975	0.000195
1746	1.7363e+02	-10.4772	-54.723375	0.000345	3.447440	1.168024	0.000138
1747	1.7373e+02	-10.4339	-54.590149	0.000335	3.346045	1.133671	0.000134
1748	1.7383e+02	-10.3970	-54.460961	0.000324	3.244649	1.099317	0.000130
1749	1.7393e+02	-10.3505	-54.291401	0.000426	4.258602	1.442853	0.000170
1750	1.7403e+02	-10.3232	-54.158176	0.000335	3.346045	1.133671	0.000134
1751	1.7413e+02	-10.2767	-54.000728	0.000395	3.954416	1.339793	0.000158
1752	1.7422e+02	-10.2398	-53.879614	0.000304	3.041859	1.030610	0.000122
1753	1.7432e+02	-10.2045	-53.722165	0.000395	3.954416	1.339793	0.000158
1754	1.7442e+02	-10.1628	-53.588940	0.000335	3.346045	1.133671	0.000134
1755	1.7452e+02	-10.1099	-53.411306	0.000446	4.461393	1.511561	0.000179
1756	1.7462e+02	-10.0762	-53.265969	0.000365	3.650230	1.236732	0.000146
1757	1.7472e+02	-10.0329	-53.136781	0.000324	3.244649	1.099317	0.000130
1758	1.7482e+02	-9.9944	-52.942998	0.000487	4.866974	1.648975	0.000195
1759	1.7492e+02	-9.9687	-52.821884	0.000304	3.041859	1.030610	0.000122
1760	1.7502e+02	-9.9174	-52.708844	0.000284	2.839068	0.961902	0.000114
1761	1.7512e+02	-9.8757	-52.563507	0.000365	3.650230	1.236732	0.000146
1762	1.7522e+02	-9.8436	-52.426245	0.000345	3.447440	1.168024	0.000138
1763	1.7532e+02	-9.7954	-52.268796	0.000395	3.954416	1.339793	0.000158
1764	1.7542e+02	-9.7585	-52.107311	0.000406	4.055812	1.374146	0.000162
1765	1.7552e+02	-9.7120	-51.961974	0.000365	3.650230	1.236732	0.000146
1766	1.7562e+02	-9.6815	-51.788377	0.000436	4.359997	1.477207	0.000174
1767	1.7572e+02	-9.6382	-51.695523	0.000233	2.332092	0.790134	0.000093
1768	1.7582e+02	-9.6029	-51.550186	0.000365	3.650230	1.236732	0.000146
1769	1.7592e+02	-9.5676	-51.408886	0.000355	3.548835	1.202378	0.000142
1770	1.7602e+02	-9.5259	-51.215104	0.000487	4.866974	1.648975	0.000195
1771	1.7612e+02	-9.4730	-51.093990	0.000304	3.041859	1.030610	0.000122
1772	1.7621e+02	-9.4441	-50.952690	0.000355	3.548835	1.202378	0.000142
1773	1.7631e+02	-9.4024	-50.783130	0.000426	4.258602	1.442853	0.000170
1774	1.7641e+02	-9.3575	-50.613571	0.000426	4.258602	1.442853	0.000170
1775	1.7651e+02	-9.3126	-50.500531	0.000284	2.839068	0.961902	0.000114
1776	1.7661e+02	-9.2757	-50.298674	0.000507	5.069764	1.717683	0.000203
1777	1.7671e+02	-9.2484	-50.169486	0.000324	3.244649	1.099317	0.000130
1778	1.7681e+02	-9.2067	-50.032223	0.000345	3.447440	1.168024	0.000138
1779	1.7691e+02	-9.1602	-49.878812	0.000385	3.853021	1.305439	0.000154
1780	1.7701e+02	-9.1201	-49.729438	0.000375	3.751626	1.271085	0.000150
1781	1.7711e+02	-9.0767	-49.576027	0.000385	3.853021	1.305439	0.000154
1782	1.7721e+02	-9.0431	-49.450876	0.000314	3.143254	1.064963	0.000126
1783	1.7731e+02	-9.0094	-49.313613	0.000345	3.447440	1.168024	0.000138
1784	1.7741e+02	-8.9580	-49.099645	0.000537	5.373950	1.820744	0.000215
1785	1.7751e+02	-8.9211	-48.982568	0.000294	2.940463	0.996256	0.000118
1786	1.7761e+02	-8.8874	-48.784748	0.000497	4.968369	1.683329	0.000199
1787	1.7771e+02	-8.8329	-48.667671	0.000294	2.940463	0.996256	0.000118
1788	1.7781e+02	-8.7992	-48.554632	0.000284	2.839068	0.961902	0.000114
1789	1.7791e+02	-8.7655	-48.356812	0.000497	4.968369	1.683329	0.000199
1790	1.7801e+02	-8.7174	-48.215512	0.000355	3.548835	1.202378	0.000142
1791	1.7810e+02	-8.6869	-48.078250	0.000345	3.447440	1.168024	0.000138
1792	1.7820e+02	-8.6372	-47.932913	0.000365	3.650230	1.236732	0.000146
1793	1.7830e+02	-8.6131	-47.791613	0.000355	3.548835	1.202378	0.000142
1794	1.7840e+02	-8.5714	-47.650313	0.000355	3.548835	1.202378	0.000142
1795	1.7850e+02	-8.5201	-47.496902	0.000385	3.853021	1.305439	0.000154
1796	1.7860e+02	-8.4720	-47.327342	0.000426	4.258602	1.442853	0.000170
1797	1.7870e+02	-8.4431	-47.222377	0.000264	2.636278	0.893195	0.000105
1798	1.7880e+02	-8.4062	-47.044743	0.000446	4.461393	1.511561	0.000179
1799	1.7890e+02	-8.3629	-46.899406	0.000365	3.650230	1.236732	0.000146
1800	1.7900e+02	-8.3228	-46.721772	0.000446	4.461393	1.511561	0.000179
1801	1.7910e+02	-8.2875	-46.568361	0.000385	3.853021	1.305439	0.000154
1802	1.7920e+02	-8.2458	-46.443210	0.000314	3.143254	1.064963	0.000126
1803	1.7930e+02	-8.2008	-46.297873	0.000365	3.650230	1.236732	0.000146
1804	1.7940e+02	-8.1639	-46.112164	0.000466	4.664183	1.580268	0.000187
1805	1.7950e+02	-8.1286	-45.995087	0.000294	2.940463	0.996256	0.000118
1806	1.7960e+02	-8.0885	-45.833602	0.000406	4.055812	1.374146	0.000162
1807	1.7970e+02	-8.0484	-45.672117	0.000406	4.055812	1.374146	0.000162
1808	1.7980e+02	-7.9971	-45.546965	0.000314	3.143254	1.064963	0.000126
1809	1.7990e+02	-7.9811	-45.349146	0.000497	4.968369	1.683329	0.000199
1810	1.8000e+02	-7.9281	-45.211883	0.000345	3.447440	1.168024	0.000138
1811	1.8009e+02	-7.8928	-45.062509	0.000375	3.751626	1.271085	0.000150
1812	1.8019e+02	-7.8431	-44.925246	0.000345	3.447440	1.168024	0.000138
1813	1.8029e+02	-7.8030	-44.792021	0.000335	3.346045	1.133671	0.000134
1814	1.8039e+02	-7.7677	-44.610350	0.000456	4.562788	1.545914	0.000183
1815	1.8049e+02	-7.7308	-44.452902	0.000395	3.954416	1.339793	0.000158
1816	1.8059e+02	-7.6843	-44.307565	0.000365	3.650230	1.236732	0.000146
1817	1.8069e+02	-7.6458	-44.154154	0.000385	3.853021	1.305439	0.000154
1818	1.8079e+02	-7.6057	-43.964408	0.000477	4.765579	1.614622	0.000191
1819	1.8089e+02	-7.5752	-43.815034	0.000375	3.751626	1.271085	0.000150
1820	1.8099e+02	-7.5351	-43.661623	0.000385	3.853021	1.305439	0.000154
1821	1.8109e+02	-7.4870	-43.536472	0.000314	3.143254	1.064963	0.000126
1822	1.8119e+02	-7.4436	-43.362875	0.000436	4.359997	1.477207	0.000174
1823	1.8129e+02	-7.4100	-43.278095	0.000213	2.129301	0.721427	0.000085
1824	1.8139e+02	-7.3634	-43.064127	0.000537	5.373950	1.820744	0.000215
1825	1.8149e+02	-7.3313	-42.922827	0.000355	3.548835	1.202378	0.000142
1826	1.8159e+02	-7.2848	-42.761342	0.000406	4.055812	1.374146	0.000162
1827	1.8169e+02	-7.2511	-42.616005	0.000365	3.650230	1.236732	0.000146
1828	1.8179e+02	-7.2062	-42.470668	0.000365	3.650230	1.236732	0.000146
1829	1.8189e+02	-7.1693	-42.357628	0.000284	2.839068	0.961902	0.000114
1830	1.8199e+02	-7.1228	-42.135586	0.000558	5.576741	1.889451	0.000223
1831	1.8209e+02	-7.0875	-41.953915	0.000456	4.562788	1.545914	0.000183
1832	1.8218e+02	-7.0394	-41.824726	0.000324	3.244649	1.099317	0.000130
1833	1.8228e+02	-7.0105	-41.683426	0.000355	3.548835	1.202378	0.000142
1834	1.8238e+02	-6.9720	-41.489644	0.000487	4.866974	1.648975	0.000195
1835	1.8248e+02	-6.9287	-41.364493	0.000314	3.143254	1.064963	0.000126
1836	1.8258e+02	-6.8902	-41.231267	0.000335	3.346045	1.133671	0.000134
1837	1.8268e+02	-6.8437	-41.017299	0.000537	5.373950	1.820744	0.000215
1838	1.8278e+02	-6.8212	-40.904259	0.000284	2.839068	0.961902	0.000114
1839	1.8288e+02	-6.7715	-40.771034	0.000335	3.346045	1.133671	0.000134
1840	1.8298e+02	-6.7346	-40.597437	0.000436	4.359997	1.477207	0.000174
1841	1.8308e+02	-6.6897	-40.391543	0.000517	5.171160	1.752036	0.000207
1842	1.8318e+02	-6.6479	-40.238132	0.000385	3.853021	1.305439	0.000154
1843	1.8328e+02	-6.6110	-40.068572	0.000426	4.258602	1.442853	0.000170
1844	1.8338e+02	-6.5838	-39.943421	0.000314	3.143254	1.064963	0.000126
1845	1.8348e+02	-6.5292	-39.781936	0.000406	4.055812	1.374146	0.000162
1846	1.8358e+02	-6.4987	-39.624487	0.000395	3.954416	1.339793	0.000158
1847	1.8368e+02	-6.4522	-39.463002	0.000406	4.055812	1.374146	0.000162
1848	1.8378e+02	-6.4121	-39.358036	0.000264	2.636278	0.893195	0.000105
1849	1.8388e+02	-6.3720	-39.152142	0.000517	5.171160	1.752036	0.000207
1850	1.8398e+02	-6.3367	-39.022954	0.000324	3.244649	1.099317	0.000130
1851	1.8407e+02	-6.3014	-38.841283	0.000456	4.562788	1.545914	0.000183
1852	1.8417e+02	-6.2629	-38.744392	0.000243	2.433487	0.824488	0.000097
1853	1.8427e+02	-6.2116	-38.518312	0.000568	5.678136	1.923805	0.000227
1854	1.8437e+02	-6.1699	-38.360864	0.000395	3.954416	1.339793	0.000158
1855	1.8447e+02	-6.1426	-38.223601	0.000345	3.447440	1.168024	0.000138
1856	1.8457e+02	-6.0913	-38.045967	0.000446	4.461393	1.511561	0.000179
1857	1.8467e+02	-6.0608	-37.912742	0.000335	3.346045	1.133671	0.000134
1858	1.8477e+02	-6.0223	-37.755293	0.000395	3.954416	1.339793	0.000158
1859	1.8487e+02	-5.9822	-37.581697	0.000436	4.359997	1.477207	0.000174
1860	1.8497e+02	-5.9373	-37.383877	0.000497	4.968369	1.683329	0.000199
1861	1.8507e+02	-5.8940	-37.262763	0.000304	3.041859	1.030610	0.000122
1862	1.8517e+02	-5.8587	-37.060906	0.000507	5.069764	1.717683	0.000203
1863	1.8527e+02	-5.8202	-36.907495	0.000385	3.853021	1.305439	0.000154
1864	1.8537e+02	-5.7833	-36.754084	0.000385	3.853021	1.305439	0.000154
1865	1.8547e+02	-5.7335	-36.628933	0.000314	3.143254	1.064963	0.000126
1866	1.8557e+02	-5.6934	-36.459373	0.000426	4.258602	1.442853	0.000170
1867	1.8567e+02	-5.6613	-36.301925	0.000395	3.954416	1.339793	0.000158
1868	1.8577e+02	-5.6148	-36.136402	0.000416	4.157207	1.408500	0.000166
1869	1.8587e+02	-5.5763	-35.950694	0.000466	4.664183	1.580268	0.000187
1870	1.8597e+02	-5.5394	-35.793245	0.000395	3.954416	1.339793	0.000158
1871	1.8606e+02	-5.4929	-35.676169	0.000294	2.940463	0.996256	0.000118
1872	1.8616e+02	-5.4560	-35.478349	0.000497	4.968369	1.683329	0.000199
1873	1.8626e+02	-5.4159	-35.308789	0.000426	4.258602	1.442853	0.000170
1874	1.8636e+02	-5.3774	-35.203824	0.000264	2.636278	0.893195	0.000105
1875	1.8646e+02	-5.3357	-35.014078	0.000477	4.765579	1.614622	0.000191
1876	1.8656e+02	-5.2956	-34.848556	0.000416	4.157207	1.408500	0.000166
1877	1.8666e+02	-5.2571	-34.650736	0.000497	4.968369	1.683329	0.000199
1878	1.8676e+02	-5.2170	-34.509436	0.000355	3.548835	1.202378	0.000142
1879	1.8686e+02	-5.1865	-34.376211	0.000335	3.346045	1.133671	0.000134
1880	1.8696e+02	-5.1368	-34.178391	0.000497	4.968369	1.683329	0.000199
1881	1.8706e+02	-5.0983	-34.012869	0.000416	4.157207	1.408500	0.000166
1882	1.8716e+02	-5.0646	-33.843309	0.000426	4.258602	1.442853	0.000170
1883	1.8726e+02	-5.0277	-33.689898	0.000385	3.853021	1.305439	0.000154
1884	1.8736e+02	-4.9811	-33.528412	0.000406	4.055812	1.374146	0.000162
1885	1.8746e+02	-4.9378	-33.387113	0.000355	3.548835	1.202378	0.000142
1886	1.8756e+02	-4.8977	-33.189293	0.000497	4.968369	1.683329	0.000199
1887	1.8766e+02	-4.8624	-33.023770	0.000416	4.157207	1.408500	0.000166
1888	1.8776e+02	-4.8159	-32.850174	0.000436	4.359997	1.477207	0.000174
1889	1.8786e+02	-4.7774	-32.676577	0.000436	4.359997	1.477207	0.000174
1890	1.8796e+02	-4.7533	-32.502980	0.000436	4.359997	1.477207	0.000174
1891	1.8806e+02	-4.6908	-32.349569	0.000385	3.853021	1.305439	0.000154
1892	1.8815e+02	-4.6555	-32.200195	0.000375	3.751626	1.271085	0.000150
1893	1.8825e+02	-4.6202	-32.066969	0.000335	3.346045	1.133671	0.000134
1894	1.8835e+02	-4.5801	-31.836852	0.000578	5.779532	1.958158	0.000231
1895	1.8845e+02	-4.5496	-31.695553	0.000355	3.548835	1.202378	0.000142
1896	1.8855e+02	-4.4999	-31.513882	0.000456	4.562788	1.545914	0.000183
1897	1.8865e+02	-4.4614	-31.376619	0.000345	3.447440	1.168024	0.000138
1898	1.8875e+02	-4.4197	-31.186874	0.000477	4.765579	1.614622	0.000191
1899	1.8885e+02	-4.3731	-31.057685	0.000324	3.244649	1.099317	0.000130
1900	1.8895e+02	-4.3394	-30.839680	0.000548	5.475346	1.855097	0.000219
1901	1.8905e+02	-4.3058	-30.658009	0.000456	4.562788	1.545914	0.000183
1902	1.8915e+02	-4.2673	-30.532858	0.000314	3.143254	1.064963	0.000126
1903	1.8925e+02	-4.2304	-30.343112	0.000477	4.765579	1.614622	0.000191
1904	1.8935e+02	-4.1726	-30.185664	0.000395	3.954416	1.339793	0.000158
1905	1.8945e+02	-4.1373	-30.040327	0.000365	3.650230	1.236732	0.000146
1906	1.8955e+02	-4.0988	-29.830396	0.000527	5.272555	1.786390	0.000211
1907	1.8965e+02	-4.0683	-29.701208	0.000324	3.244649	1.099317	0.000130
1908	1.8975e+02	-4.0234	-29.503388	0.000497	4.968369	1.683329	0.000199
1909	1.8985e+02	-3.9897	-29.337865	0.000416	4.157207	1.408500	0.000166
1910	1.8995e+02	-3.9480	-29.212714	0.000314	3.143254	1.064963	0.000126
1911	1.9004e+02	-3.9031	-28.974523	0.000598	5.982322	2.026866	0.000239
1912	1.9014e+02	-3.8630	-28.845335	0.000324	3.244649	1.099317	0.000130
1913	1.9024e+02	-3.8293	-28.683849	0.000406	4.055812	1.374146	0.000162
1914	1.9034e+02	-3.7812	-28.486030	0.000497	4.968369	1.683329	0.000199
1915	1.9044e+02	-3.7443	-28.344730	0.000355	3.548835	1.202378	0.000142
1916	1.9054e+02	-3.7074	-28.142873	0.000507	5.069764	1.717683	0.000203
1917	1.9064e+02	-3.6593	-27.961202	0.000456	4.562788	1.545914	0.000183
1918	1.9074e+02	-3.6240	-27.827977	0.000335	3.346045	1.133671	0.000134
1919	1.9084e+02	-3.5742	-27.662454	0.000416	4.157207	1.408500	0.000166
1920	1.9094e+02	-3.5454	-27.521154	0.000355	3.548835	1.202378	0.000142
1921	1.9104e+02	-3.5101	-27.303149	0.000548	5.475346	1.855097	0.000219
1922	1.9114e+02	-3.4684	-27.169924	0.000335	3.346045	1.133671	0.000134
1923	1.9124e+02	-3.4266	-26.964030	0.000517	5.171160	1.752036	0.000207
1924	1.9134e+02	-3.3785	-26.842916	0.000304	3.041859	1.030610	0.000122
1925	1.9144e+02	-3.3416	-26.661244	0.000456	4.562788	1.545914	0.000183
1926	1.9154e+02	-3.3063	-26.471499	0.000477	4.765579	1.614622	0.000191
1927	1.9164e+02	-3.2694	-26.326162	0.000365	3.650230	1.236732	0.000146
1928	1.9174e+02	-3.2293	-26.092008	0.000588	5.880927	1.992512	0.000235
1929	1.9184e+02	-3.1812	-25.970894	0.000304	3.041859	1.030610	0.000122
1930	1.9194e+02	-3.1443	-25.809409	0.000406	4.055812	1.374146	0.000162
1931	1.9203e+02	-3.1154	-25.635812	0.000436	4.359997	1.477207	0.000174
1932	1.9213e+02	-3.0705	-25.470289	0.000416	4.157207	1.408500	0.000166
1933	1.9223e+02	-3.0240	-25.276507	0.000487	4.866974	1.648975	0.000195
1934	1.9233e+02	-2.9935	-25.119059	0.000395	3.954416	1.339793	0.000158
1935	1.9243e+02	-2.9486	-24.977759	0.000355	3.548835	1.202378	0.000142
1936	1.9253e+02	-2.9117	-24.792051	0.000466	4.664183	1.580268	0.000187
1937	1.9263e+02	-2.8668	-24.618454	0.000436	4.359997	1.477207	0.000174
1938	1.9273e+02	-2.8234	-24.444857	0.000436	4.359997	1.477207	0.000174
1939	1.9283e+02	-2.7817	-24.279334	0.000416	4.157207	1.408500	0.000166
1940	1.9293e+02	-2.7497	-24.121886	0.000395	3.954416	1.339793	0.000158
1941	1.9303e+02	-2.7063	-23.915992	0.000517	5.171160	1.752036	0.000207
1942	1.9313e+02	-2.6727	-23.754507	0.000406	4.055812	1.374146	0.000162
1943	1.9323e+02	-2.6261	-23.588984	0.000416	4.157207	1.408500	0.000166
1944	1.9333e+02	-2.5924	-23.463833	0.000314	3.143254	1.064963	0.000126
1945	1.9343e+02	-2.5588	-23.241790	0.000558	5.576741	1.889451	0.000223
1946	1.9353e+02	-2.5010	-23.031859	0.000527	5.272555	1.786390	0.000211
1947	1.9363e+02	-2.4769	-22.878448	0.000385	3.853021	1.305439	0.000154
1948	1.9373e+02	-2.4304	-22.684666	0.000487	4.866974	1.648975	0.000195
1949	1.9383e+02	-2.3951	-22.535292	0.000375	3.751626	1.271085	0.000150
1950	1.9393e+02	-2.3486	-22.385918	0.000375	3.751626	1.271085	0.000150
1951	1.9403e+02	-2.3117	-22.196172	0.000477	4.765579	1.614622	0.000191
1952	1.9412e+02	-2.2620	-22.014501	0.000456	4.562788	1.545914	0.000183
1953	1.9422e+02	-2.2315	-21.848979	0.000416	4.157207	1.408500	0.000166
1954	1.9432e+02	-2.1946	-21.663270	0.000466	4.664183	1.580268	0.000187
1955	1.9442e+02	-2.1529	-21.489674	0.000436	4.359997	1.477207	0.000174
1956	1.9452e+02	-2.1128	-21.320114	0.000426	4.258602	1.442853	0.000170
1957	1.9462e+02	-2.0743	-21.114220	0.000517	5.171160	1.752036	0.000207
1958	1.9472e+02	-2.0310	-20.972920	0.000355	3.548835	1.202378	0.000142
1959	1.9482e+02	-1.9973	-20.811435	0.000406	4.055812	1.374146	0.000162
1960	1.9492e+02	-1.9524	-20.649949	0.000406	4.055812	1.374146	0.000162
1961	1.9502e+02	-1.9122	-20.472315	0.000446	4.461393	1.511561	0.000179
1962	1.9512e+02	-1.8673	-20.298718	0.000436	4.359997	1.477207	0.000174
1963	1.9522e+02	-1.8240	-20.108973	0.000477	4.765579	1.614622	0.000191
1964	1.9532e+02	-1.7951	-19.943451	0.000416	4.157207	1.408500	0.000166
1965	1.9542e+02	-1.7582	-19.818299	0.000314	3.143254	1.064963	0.000126
1966	1.9552e+02	-1.7133	-19.612405	0.000517	5.171160	1.752036	0.000207
1967	1.9562e+02	-1.6700	-19.426697	0.000466	4.664183	1.580268	0.000187
1968	1.9572e+02	-1.6299	-19.261175	0.000416	4.157207	1.408500	0.000166
1969	1.9582e+02	-1.5818	-19.083541	0.000446	4.461393	1.511561	0.000179
1970	1.9592e+02	-1.5513	-18.889758	0.000487	4.866974	1.648975	0.000195
1971	1.9601e+02	-1.5160	-18.756533	0.000335	3.346045	1.133671	0.000134
1972	1.9611e+02	-1.4599	-18.574862	0.000456	4.562788	1.545914	0.000183
1973	1.9621e+02	-1.4326	-18.393190	0.000456	4.562788	1.545914	0.000183
1974	1.9631e+02	-1.3973	-18.231705	0.000406	4.055812	1.374146	0.000162
1975	1.9641e+02	-1.3572	-18.054071	0.000446	4.461393	1.511561	0.000179
1976	1.9651e+02	-1.3155	-17.864326	0.000477	4.765579	1.614622	0.000191
1977	1.9661e+02	-1.2657	-17.702840	0.000406	4.055812	1.374146	0.000162
1978	1.9671e+02	-1.2449	-17.496946	0.000517	5.171160	1.752036	0.000207
1979	1.9681e+02	-1.1984	-17.339498	0.000395	3.954416	1.339793	0.000158
1980	1.9691e+02	-1.1567	-17.218384	0.000304	3.041859	1.030610	0.000122
1981	1.9701e+02	-1.1117	-17.024601	0.000487	4.866974	1.648975	0.000195
1982	1.9711e+02	-1.0732	-16.855042	0.000426	4.258602	1.442853	0.000170
1983	1.9721e+02	-1.0315	-16.665296	0.000477	4.765579	1.614622	0.000191
1984	1.9731e+02	-0.9978	-16.491699	0.000436	4.359997	1.477207	0.000174
1985	1.9741e+02	-0.9513	-16.305991	0.000466	4.664183	1.580268	0.000187
1986	1.9751e+02	-0.9224	-16.124320	0.000456	4.562788	1.545914	0.000183
1987	1.9761e+02	-0.8839	-15.938612	0.000466	4.664183	1.580268	0.000187
1988	1.9771e+02	-0.8326	-15.769052	0.000426	4.258602	1.442853	0.000170
1989	1.9781e+02	-0.7925	-15.615641	0.000385	3.853021	1.305439	0.000154
1990	1.9791e+02	-0.7636	-15.425896	0.000477	4.765579	1.614622	0.000191
1991	1.9800e+02	-0.7283	-15.248262	0.000446	4.461393	1.511561	0.000179
1992	1.9810e+02	-0.6770	-15.102925	0.000365	3.650230	1.236732	0.000146
1993	1.9820e+02	-0.6385	-14.909142	0.000487	4.866974	1.648975	0.000195
1994	1.9830e+02	-0.5968	-14.747657	0.000406	4.055812	1.374146	0.000162
1995	1.9840e+02	-0.5519	-14.586171	0.000406	4.055812	1.374146	0.000162
1996	1.9850e+02	-0.5166	-14.400463	0.000466	4.664183	1.580268	0.000187
1997	1.9860e+02	-0.4797	-14.186495	0.000537	5.373950	1.820744	0.000215
1998	1.9870e+02	-0.4444	-14.029047	0.000395	3.954416	1.339793	0.000158
1999	1.9880e+02	-0.3946	-13.859487	0.000426	4.258602	1.442853	0.000170
2000	1.9890e+02	-0.3626	-13.669742	0.000477	4.765579	1.614622	0.000191
2001	1.9900e+02	-0.3112	-13.524405	0.000365	3.650230	1.236732	0.000146
2002	1.9910e+02	-0.2791	-13.318511	0.000517	5.171160	1.752036	0.000207
2003	1.9920e+02	-0.2422	-13.144914	0.000436	4.359997	1.477207	0.000174
2004	1.9930e+02	-0.1957	-12.939020	0.000517	5.171160	1.752036	0.000207
2005	1.9940e+02	-0.1556	-12.805795	0.000335	3.346045	1.133671	0.000134
2006	1.9950e+02	-0.1235	-12.620086	0.000466	4.664183	1.580268	0.000187
2007	1.9960e+02	-0.0786	-12.422267	0.000497	4.968369	1.683329	0.000199
2008	1.9970e+02	-0.0385	-12.236558	0.000466	4.664183	1.580268	0.000187
2009	1.9980e+02	0.0000	-12.083147	0.000466	4.664183	1.580268	0.000154

PMax (uC/cm2):	8.70e+01
Pr (uC/cm2):	4.65e+00
-Pr (uC/cm2):	-7.74e+00
PLoss (uC/cm2):	-7.74e+00
-Vc:	-1.04e+00
C (Max-Eff) (nF):	4.35e-01
K (Eff):	1.47e+03
Vert. (+/-Pr) Shift (uC/cm2):	-1.55e+00
Offset (uC/cm2):	4.34e+00

A (Loop Area - uC/cm2·Volts):	5.23e-02



Hysteresis Version: 5.48.1 - Radiant Technologies, Inc., 1999 - 9/12/24

