»»»»»»»»»»»»»»»»»»»»»»»»»»»»»»»»»»»» Hysteresis ««««««««««««««««««««««««««««««««««««
»»»  Executed Version:	5.48.1
»»»  Vision Version:	5.48.4 (R)
»»»  Vision Compiled:	9/18/24
»»»  Driver Version:	5.47.0
»»»  Windows Version:	Windows 8 or 8.1
»»»  Processor Information:	x86 (AMD or Intel) - 32 Processors
»»»  Tester Name:	PMF21124-494 (100V)
»»»  Tester S/N:	PMF21124-494
»»»  Internal Amp Type:	100V RevK 270k
»»»  Internal Amp S/N:	iAB2-596/K     
»»»  Execution Count:	1
»»»»»»»»»»»»»»»»»»»»»»»»»»»»»»»»»»»»»»»»»»««««««««««««««««««««««««««««««««««««««««««

Stored:	6/18/2025 - 12:21:0
Configured:	06/18/25 09:47:30 AM
Executed:	06/18/25 12:20:28 PM

»»»»»»»»»»»»»»»»»»»»»»»»»»»»»»»»»»» Sample Info ««««««««««««««««««««««««««««««««««««
Sample Name:	
Lot Name:	
Wafer Name:	
Die Row/Column:	0/0
Capacitor Number:	0
Sample Area (cm2):	1.00e-04
Sample Thickness (microns):	3.00e-01

Amplifier:	Internal

»»»»»»»»»»»»»»»»»»»»»»»»»»»»»»»»»»» Tester Info «««««««««««««««««««««««««««««««««««
Tester Name:	PMF21124-494 (100V)
Tester Serial Number:	PMF21124-494
Return Signal Amp. Level:	0.19 [Index: 3]

»»»»»»»»»»»»»»»»»»»»»»»»»»»»»»»» Hysteresis Info ««««««««««««««««««««««««««««««««««
Task Name:	Hyst-554
Volts:	20.00
Field:	666.67 (kV/cm)
DCBias:	0.00
DCField:	0.00 (kV/cm)
Hysteresis Period (ms):	2.00e+02
Preset:	Enabled
Preset Delay (ms):	1.00e+03
Profile:	Standard Bipolar

»»»»»»»»»»»»»»»»»»»»»»»»»»»»»»»»»»»»»» Data «««««««««««««««««««««««««««««««««««««««
Points:	2009

Valid Data

Point	Time (ms)	Drive Voltage	Measured Polarization (uC/cm2)	Capacitance (uF)	Normalized Capacitance (uF/cm2)	Dielectric Constant	Instantaneous Current (mA)
   1	0.0000e+00	-0.0064	14.444872	0.000395	3.951879	1.338933	0.000158
   2	9.9500e-02	0.0321	14.602320	0.000395	3.951879	1.338933	0.000158
   3	1.9900e-01	0.0690	14.856660	0.000638	6.383804	2.162891	0.000256
   4	2.9850e-01	0.1107	15.115036	0.000649	6.485134	2.197223	0.000260
   5	3.9800e-01	0.1460	15.393599	0.000699	6.991786	2.368881	0.000280
   6	4.9750e-01	0.1957	15.607567	0.000537	5.370502	1.819575	0.000215
   7	5.9700e-01	0.2438	15.869981	0.000659	6.586465	2.231555	0.000264
   8	6.9650e-01	0.2711	16.116246	0.000618	6.181144	2.094228	0.000248
   9	7.9600e-01	0.3064	16.362511	0.000618	6.181144	2.094228	0.000248
  10	8.9550e-01	0.3561	16.612814	0.000628	6.282474	2.128560	0.000252
  11	9.9500e-01	0.3898	16.871190	0.000649	6.485134	2.197223	0.000260
  12	1.0945e+00	0.4460	17.125530	0.000638	6.383804	2.162891	0.000256
  13	1.1940e+00	0.4732	17.396018	0.000679	6.789125	2.300218	0.000272
  14	1.2935e+00	0.5085	17.622097	0.000567	5.674493	1.922570	0.000227
  15	1.3930e+00	0.5486	17.860289	0.000598	5.978483	2.025565	0.000239
  16	1.4925e+00	0.5968	18.130777	0.000679	6.789125	2.300218	0.000272
  17	1.5920e+00	0.6273	18.381079	0.000628	6.282474	2.128560	0.000252
  18	1.6915e+00	0.6770	18.635419	0.000638	6.383804	2.162891	0.000256
  19	1.7910e+00	0.7107	18.893795	0.000649	6.485134	2.197223	0.000260
  20	1.8905e+00	0.7444	19.188506	0.000740	7.397107	2.506208	0.000296
  21	1.9900e+00	0.7941	19.394400	0.000517	5.167842	1.750912	0.000207
  22	2.0895e+00	0.8358	19.677000	0.000709	7.093116	2.403213	0.000284
  23	2.1890e+00	0.8711	19.991896	0.000790	7.903758	2.677866	0.000316
  24	2.2885e+00	0.9144	20.193753	0.000507	5.066511	1.716581	0.000203
  25	2.3880e+00	0.9481	20.444055	0.000628	6.282474	2.128560	0.000252
  26	2.4875e+00	0.9946	20.738766	0.000740	7.397107	2.506208	0.000296
  27	2.5870e+00	1.0267	20.968883	0.000578	5.775823	1.956902	0.000231
  28	2.6865e+00	1.0684	21.199000	0.000578	5.775823	1.956902	0.000231
  29	2.7860e+00	1.1005	21.497748	0.000750	7.498437	2.540539	0.000300
  30	2.8855e+00	1.1470	21.752087	0.000638	6.383804	2.162891	0.000256
  31	2.9850e+00	1.1903	22.050835	0.000750	7.498437	2.540539	0.000300
  32	3.0845e+00	1.2208	22.248655	0.000497	4.965181	1.682249	0.000199
  33	3.1840e+00	1.2706	22.539329	0.000730	7.295776	2.471876	0.000292
  34	3.2835e+00	1.3074	22.785594	0.000618	6.181144	2.094228	0.000248
  35	3.3830e+00	1.3492	23.076268	0.000730	7.295776	2.471876	0.000292
  36	3.4825e+00	1.3845	23.334645	0.000649	6.485134	2.197223	0.000260
  37	3.5820e+00	1.4374	23.593021	0.000649	6.485134	2.197223	0.000260
  38	3.6815e+00	1.4679	23.932141	0.000851	8.511739	2.883855	0.000341
  39	3.7810e+00	1.5112	24.121886	0.000476	4.762521	1.613586	0.000191
  40	3.8805e+00	1.5465	24.416597	0.000740	7.397107	2.506208	0.000296
  41	3.9800e+00	1.5834	24.699196	0.000709	7.093116	2.403213	0.000284
  42	4.0795e+00	1.6283	24.965647	0.000669	6.687795	2.265886	0.000268
  43	4.1790e+00	1.6732	25.240173	0.000689	6.890455	2.334549	0.000276
  44	4.2785e+00	1.7117	25.494512	0.000638	6.383804	2.162891	0.000256
  45	4.3780e+00	1.7550	25.744815	0.000628	6.282474	2.128560	0.000252
  46	4.4775e+00	1.7919	26.031451	0.000719	7.194446	2.437544	0.000288
  47	4.5770e+00	1.8256	26.326162	0.000740	7.397107	2.506208	0.000296
  48	4.6765e+00	1.8657	26.564353	0.000598	5.978483	2.025565	0.000239
  49	4.7760e+00	1.9171	26.834841	0.000679	6.789125	2.300218	0.000272
  50	4.8755e+00	1.9379	27.137626	0.000760	7.599767	2.574871	0.000304
  51	4.9750e+00	1.9844	27.375817	0.000598	5.978483	2.025565	0.000239
  52	5.0745e+00	2.0278	27.666491	0.000730	7.295776	2.471876	0.000292
  53	5.1740e+00	2.0727	27.957165	0.000730	7.295776	2.471876	0.000292
  54	5.2735e+00	2.1080	28.207467	0.000628	6.282474	2.128560	0.000252
  55	5.3730e+00	2.1449	28.465844	0.000649	6.485134	2.197223	0.000260
  56	5.4725e+00	2.1850	28.792852	0.000821	8.207748	2.780860	0.000329
  57	5.5720e+00	2.2299	29.043154	0.000628	6.282474	2.128560	0.000252
  58	5.6715e+00	2.2700	29.345940	0.000760	7.599767	2.574871	0.000304
  59	5.7710e+00	2.3085	29.576056	0.000578	5.775823	1.956902	0.000231
  60	5.8705e+00	2.3502	29.882879	0.000770	7.701097	2.609202	0.000308
  61	5.9700e+00	2.3791	30.165478	0.000709	7.093116	2.403213	0.000284
  62	6.0695e+00	2.4240	30.444041	0.000699	6.991786	2.368881	0.000280
  63	6.1690e+00	2.4561	30.718566	0.000689	6.890455	2.334549	0.000276
  64	6.2685e+00	2.5106	30.976943	0.000649	6.485134	2.197223	0.000260
  65	6.3680e+00	2.5411	31.239356	0.000659	6.586465	2.231555	0.000264
  66	6.4675e+00	2.5844	31.570401	0.000831	8.309079	2.815192	0.000333
  67	6.5670e+00	2.6229	31.832815	0.000659	6.586465	2.231555	0.000264
  68	6.6665e+00	2.6791	32.091192	0.000649	6.485134	2.197223	0.000260
  69	6.7660e+00	2.7047	32.361680	0.000679	6.789125	2.300218	0.000272
  70	6.8655e+00	2.7448	32.660428	0.000750	7.498437	2.540539	0.000300
  71	6.9650e+00	2.7833	32.947065	0.000719	7.194446	2.437544	0.000288
  72	7.0645e+00	2.8283	33.225627	0.000699	6.991786	2.368881	0.000280
  73	7.1640e+00	2.8668	33.516301	0.000730	7.295776	2.471876	0.000292
  74	7.2635e+00	2.8972	33.778715	0.000659	6.586465	2.231555	0.000264
  75	7.3630e+00	2.9502	34.045166	0.000669	6.687795	2.265886	0.000268
  76	7.4625e+00	2.9791	34.360062	0.000790	7.903758	2.677866	0.000316
  77	7.5620e+00	3.0208	34.630550	0.000679	6.789125	2.300218	0.000272
  78	7.6615e+00	3.0641	34.888927	0.000649	6.485134	2.197223	0.000260
  79	7.7610e+00	3.0962	35.207861	0.000801	8.005088	2.712197	0.000321
  80	7.8605e+00	3.1411	35.490460	0.000709	7.093116	2.403213	0.000284
  81	7.9600e+00	3.1764	35.777097	0.000719	7.194446	2.437544	0.000288
  82	8.0595e+00	3.2293	35.987028	0.000527	5.269172	1.785244	0.000211
  83	8.1590e+00	3.2726	36.301925	0.000790	7.903758	2.677866	0.000316
  84	8.2585e+00	3.2935	36.632970	0.000831	8.309079	2.815192	0.000333
  85	8.3580e+00	3.3400	36.891346	0.000649	6.485134	2.197223	0.000260
  86	8.4575e+00	3.3865	37.165872	0.000689	6.890455	2.334549	0.000276
  87	8.5570e+00	3.4202	37.488842	0.000811	8.106418	2.746529	0.000325
  88	8.6565e+00	3.4571	37.735108	0.000618	6.181144	2.094228	0.000248
  89	8.7560e+00	3.4956	38.025782	0.000730	7.295776	2.471876	0.000292
  90	8.8555e+00	3.5277	38.304344	0.000699	6.991786	2.368881	0.000280
  91	8.9550e+00	3.5903	38.623278	0.000801	8.005088	2.712197	0.000321
  92	9.0545e+00	3.6224	38.913951	0.000730	7.295776	2.471876	0.000292
  93	9.1540e+00	3.6496	39.196551	0.000709	7.093116	2.403213	0.000284
  94	9.2535e+00	3.6929	39.454928	0.000649	6.485134	2.197223	0.000260
  95	9.3530e+00	3.7443	39.761750	0.000770	7.701097	2.609202	0.000308
  96	9.4525e+00	3.7796	40.048387	0.000719	7.194446	2.437544	0.000288
  97	9.5520e+00	3.8181	40.298689	0.000628	6.282474	2.128560	0.000252
  98	9.6515e+00	3.8630	40.613586	0.000790	7.903758	2.677866	0.000316
  99	9.7510e+00	3.9047	40.908296	0.000740	7.397107	2.506208	0.000296
 100	9.8505e+00	3.9368	41.219156	0.000780	7.802427	2.643534	0.000312
 101	9.9500e+00	3.9753	41.509830	0.000730	7.295776	2.471876	0.000292
 102	1.0050e+01	4.0218	41.784355	0.000689	6.890455	2.334549	0.000276
 103	1.0149e+01	4.0635	42.083103	0.000750	7.498437	2.540539	0.000300
 104	1.0248e+01	4.0972	42.341480	0.000649	6.485134	2.197223	0.000260
 105	1.0348e+01	4.1421	42.624079	0.000709	7.093116	2.403213	0.000284
 106	1.0447e+01	4.1662	42.938976	0.000790	7.903758	2.677866	0.000316
 107	1.0547e+01	4.2143	43.213501	0.000689	6.890455	2.334549	0.000276
 108	1.0646e+01	4.2624	43.536472	0.000811	8.106418	2.746529	0.000325
 109	1.0746e+01	4.3009	43.806960	0.000679	6.789125	2.300218	0.000272
 110	1.0845e+01	4.3459	44.073411	0.000669	6.687795	2.265886	0.000268
 111	1.0945e+01	4.3731	44.351973	0.000699	6.991786	2.368881	0.000280
 112	1.1044e+01	4.4197	44.666870	0.000790	7.903758	2.677866	0.000316
 113	1.1144e+01	4.4614	44.945432	0.000699	6.991786	2.368881	0.000280
 114	1.1243e+01	4.5015	45.272440	0.000821	8.207748	2.780860	0.000329
 115	1.1343e+01	4.5320	45.551003	0.000699	6.991786	2.368881	0.000280
 116	1.1443e+01	4.5817	45.781119	0.000578	5.775823	1.956902	0.000231
 117	1.1542e+01	4.6154	46.096016	0.000790	7.903758	2.677866	0.000316
 118	1.1642e+01	4.6539	46.390727	0.000740	7.397107	2.506208	0.000296
 119	1.1741e+01	4.6908	46.685438	0.000740	7.397107	2.506208	0.000296
 120	1.1841e+01	4.7437	46.976111	0.000730	7.295776	2.471876	0.000292
 121	1.1940e+01	4.7726	47.246600	0.000679	6.789125	2.300218	0.000272
 122	1.2040e+01	4.8191	47.521125	0.000689	6.890455	2.334549	0.000276
 123	1.2139e+01	4.8560	47.856207	0.000841	8.410409	2.849524	0.000337
 124	1.2239e+01	4.9025	48.102472	0.000618	6.181144	2.094228	0.000248
 125	1.2338e+01	4.9282	48.417369	0.000790	7.903758	2.677866	0.000316
 126	1.2438e+01	4.9747	48.708043	0.000730	7.295776	2.471876	0.000292
 127	1.2537e+01	5.0180	48.966419	0.000649	6.485134	2.197223	0.000260
 128	1.2636e+01	5.0485	49.297464	0.000831	8.309079	2.815192	0.000333
 129	1.2736e+01	5.0950	49.551804	0.000638	6.383804	2.162891	0.000256
 130	1.2835e+01	5.1319	49.842478	0.000730	7.295776	2.471876	0.000292
 131	1.2935e+01	5.1753	50.137189	0.000740	7.397107	2.506208	0.000296
 132	1.3034e+01	5.2073	50.460160	0.000811	8.106418	2.746529	0.000325
 133	1.3134e+01	5.2474	50.682202	0.000557	5.573162	1.888239	0.000223
 134	1.3233e+01	5.2940	50.968839	0.000719	7.194446	2.437544	0.000288
 135	1.3333e+01	5.3341	51.299884	0.000831	8.309079	2.815192	0.000333
 136	1.3432e+01	5.3646	51.562298	0.000659	6.586465	2.231555	0.000264
 137	1.3532e+01	5.4191	51.836823	0.000689	6.890455	2.334549	0.000276
 138	1.3632e+01	5.4592	52.151719	0.000790	7.903758	2.677866	0.000316
 139	1.3731e+01	5.4993	52.430282	0.000699	6.991786	2.368881	0.000280
 140	1.3831e+01	5.5346	52.704807	0.000689	6.890455	2.334549	0.000276
 141	1.3930e+01	5.5683	53.011629	0.000770	7.701097	2.609202	0.000308
 142	1.4030e+01	5.6100	53.274043	0.000659	6.586465	2.231555	0.000264
 143	1.4129e+01	5.6485	53.536457	0.000659	6.586465	2.231555	0.000264
 144	1.4229e+01	5.6838	53.843279	0.000770	7.701097	2.609202	0.000308
 145	1.4328e+01	5.7335	54.133953	0.000730	7.295776	2.471876	0.000292
 146	1.4428e+01	5.7704	54.440775	0.000770	7.701097	2.609202	0.000308
 147	1.4527e+01	5.8169	54.719338	0.000699	6.991786	2.368881	0.000280
 148	1.4627e+01	5.8571	54.997900	0.000699	6.991786	2.368881	0.000280
 149	1.4726e+01	5.8956	55.284537	0.000719	7.194446	2.437544	0.000288
 150	1.4825e+01	5.9308	55.567136	0.000709	7.093116	2.403213	0.000284
 151	1.4925e+01	5.9790	55.841662	0.000689	6.890455	2.334549	0.000276
 152	1.5024e+01	6.0079	56.144447	0.000760	7.599767	2.574871	0.000304
 153	1.5124e+01	6.0528	56.418972	0.000689	6.890455	2.334549	0.000276
 154	1.5223e+01	6.0993	56.709646	0.000730	7.295776	2.471876	0.000292
 155	1.5323e+01	6.1378	56.980134	0.000679	6.789125	2.300218	0.000272
 156	1.5422e+01	6.1731	57.246585	0.000669	6.687795	2.265886	0.000268
 157	1.5522e+01	6.2084	57.585704	0.000851	8.511739	2.883855	0.000341
 158	1.5621e+01	6.2501	57.872341	0.000719	7.194446	2.437544	0.000288
 159	1.5721e+01	6.2902	58.146866	0.000689	6.890455	2.334549	0.000276
 160	1.5820e+01	6.3303	58.449651	0.000760	7.599767	2.574871	0.000304
 161	1.5920e+01	6.3656	58.748399	0.000750	7.498437	2.540539	0.000300
 162	1.6020e+01	6.4089	58.998702	0.000628	6.282474	2.128560	0.000252
 163	1.6119e+01	6.4442	59.257078	0.000649	6.485134	2.197223	0.000260
 164	1.6218e+01	6.4987	59.555826	0.000750	7.498437	2.540539	0.000300
 165	1.6318e+01	6.5244	59.858612	0.000760	7.599767	2.574871	0.000304
 166	1.6418e+01	6.5677	60.112951	0.000638	6.383804	2.162891	0.000256
 167	1.6517e+01	6.6159	60.403625	0.000730	7.295776	2.471876	0.000292
 168	1.6616e+01	6.6528	60.714484	0.000780	7.802427	2.643534	0.000312
 169	1.6716e+01	6.6848	60.968824	0.000638	6.383804	2.162891	0.000256
 170	1.6816e+01	6.7201	61.299869	0.000831	8.309079	2.815192	0.000333
 171	1.6915e+01	6.7634	61.513837	0.000537	5.370502	1.819575	0.000215
 172	1.7015e+01	6.8019	61.816622	0.000760	7.599767	2.574871	0.000304
 173	1.7114e+01	6.8372	62.119408	0.000760	7.599767	2.574871	0.000304
 174	1.7213e+01	6.8870	62.393933	0.000689	6.890455	2.334549	0.000276
 175	1.7313e+01	6.9303	62.700755	0.000770	7.701097	2.609202	0.000308
 176	1.7413e+01	6.9624	62.967206	0.000669	6.687795	2.265886	0.000268
 177	1.7512e+01	7.0089	63.237694	0.000679	6.789125	2.300218	0.000272
 178	1.7611e+01	7.0522	63.544517	0.000770	7.701097	2.609202	0.000308
 179	1.7711e+01	7.0779	63.790782	0.000618	6.181144	2.094228	0.000248
 180	1.7811e+01	7.1180	64.113753	0.000811	8.106418	2.746529	0.000325
 181	1.7910e+01	7.1677	64.372129	0.000649	6.485134	2.197223	0.000260
 182	1.8009e+01	7.2190	64.630506	0.000649	6.485134	2.197223	0.000260
 183	1.8109e+01	7.2495	64.925217	0.000740	7.397107	2.506208	0.000296
 184	1.8209e+01	7.2896	65.207816	0.000709	7.093116	2.403213	0.000284
 185	1.8308e+01	7.3201	65.526750	0.000801	8.005088	2.712197	0.000321
 186	1.8407e+01	7.3634	65.768978	0.000608	6.079814	2.059897	0.000243
 187	1.8507e+01	7.4116	66.075801	0.000770	7.701097	2.609202	0.000308
 188	1.8607e+01	7.4404	66.362437	0.000719	7.194446	2.437544	0.000288
 189	1.8706e+01	7.4902	66.653111	0.000730	7.295776	2.471876	0.000292
 190	1.8805e+01	7.5303	66.907451	0.000638	6.383804	2.162891	0.000256
 191	1.8905e+01	7.5720	67.186013	0.000699	6.991786	2.368881	0.000280
 192	1.9005e+01	7.5944	67.468612	0.000709	7.093116	2.403213	0.000284
 193	1.9104e+01	7.6458	67.803695	0.000841	8.410409	2.849524	0.000337
 194	1.9203e+01	7.6827	68.017663	0.000537	5.370502	1.819575	0.000215
 195	1.9303e+01	7.7148	68.328522	0.000780	7.802427	2.643534	0.000312
 196	1.9402e+01	7.7645	68.574788	0.000618	6.181144	2.094228	0.000248
 197	1.9502e+01	7.8094	68.857387	0.000709	7.093116	2.403213	0.000284
 198	1.9602e+01	7.8479	69.148061	0.000730	7.295776	2.471876	0.000292
 199	1.9701e+01	7.8880	69.418549	0.000679	6.789125	2.300218	0.000272
 200	1.9800e+01	7.9153	69.717297	0.000750	7.498437	2.540539	0.000300
 201	1.9900e+01	7.9618	70.032194	0.000790	7.903758	2.677866	0.000316
 202	2.0000e+01	8.0131	70.310756	0.000699	6.991786	2.368881	0.000280
 203	2.0099e+01	8.0324	70.544910	0.000588	5.877153	1.991233	0.000235
 204	2.0198e+01	8.0869	70.851732	0.000770	7.701097	2.609202	0.000308
 205	2.0298e+01	8.1254	71.142406	0.000730	7.295776	2.471876	0.000292
 206	2.0398e+01	8.1607	71.408857	0.000669	6.687795	2.265886	0.000268
 207	2.0497e+01	8.2073	71.683382	0.000689	6.890455	2.334549	0.000276
 208	2.0596e+01	8.2409	71.957907	0.000689	6.890455	2.334549	0.000276
 209	2.0696e+01	8.2778	72.260693	0.000760	7.599767	2.574871	0.000304
 210	2.0796e+01	8.3292	72.567515	0.000770	7.701097	2.609202	0.000308
 211	2.0895e+01	8.3677	72.829929	0.000659	6.586465	2.231555	0.000264
 212	2.0994e+01	8.4030	73.140788	0.000780	7.802427	2.643534	0.000312
 213	2.1094e+01	8.4399	73.378979	0.000598	5.978483	2.025565	0.000239
 214	2.1194e+01	8.4832	73.677727	0.000750	7.498437	2.540539	0.000300
 215	2.1293e+01	8.5201	73.960327	0.000709	7.093116	2.403213	0.000284
 216	2.1392e+01	8.5698	74.263112	0.000760	7.599767	2.574871	0.000304
 217	2.1492e+01	8.5955	74.517451	0.000638	6.383804	2.162891	0.000256
 218	2.1591e+01	8.6420	74.800051	0.000709	7.093116	2.403213	0.000284
 219	2.1691e+01	8.6773	75.086688	0.000719	7.194446	2.437544	0.000288
 220	2.1791e+01	8.7238	75.385436	0.000750	7.498437	2.540539	0.000300
 221	2.1890e+01	8.7607	75.659961	0.000689	6.890455	2.334549	0.000276
 222	2.1989e+01	8.7992	75.942560	0.000709	7.093116	2.403213	0.000284
 223	2.2089e+01	8.8409	76.200937	0.000649	6.485134	2.197223	0.000260
 224	2.2189e+01	8.8794	76.511797	0.000780	7.802427	2.643534	0.000312
 225	2.2288e+01	8.9131	76.745950	0.000588	5.877153	1.991233	0.000235
 226	2.2387e+01	8.9661	77.020476	0.000689	6.890455	2.334549	0.000276
 227	2.2487e+01	8.9853	77.359595	0.000851	8.511739	2.883855	0.000341
 228	2.2587e+01	9.0382	77.622009	0.000659	6.586465	2.231555	0.000264
 229	2.2686e+01	9.0784	77.888460	0.000669	6.687795	2.265886	0.000268
 230	2.2785e+01	9.1136	78.167022	0.000699	6.991786	2.368881	0.000280
 231	2.2885e+01	9.1602	78.429436	0.000659	6.586465	2.231555	0.000264
 232	2.2985e+01	9.2131	78.703961	0.000689	6.890455	2.334549	0.000276
 233	2.3084e+01	9.2388	79.026932	0.000811	8.106418	2.746529	0.000325
 234	2.3183e+01	9.2805	79.285309	0.000649	6.485134	2.197223	0.000260
 235	2.3283e+01	9.3206	79.580020	0.000740	7.397107	2.506208	0.000296
 236	2.3383e+01	9.3623	79.866656	0.000719	7.194446	2.437544	0.000288
 237	2.3482e+01	9.3944	80.165404	0.000750	7.498437	2.540539	0.000300
 238	2.3581e+01	9.4425	80.427818	0.000659	6.586465	2.231555	0.000264
 239	2.3681e+01	9.4810	80.690232	0.000659	6.586465	2.231555	0.000264
 240	2.3780e+01	9.5227	80.972831	0.000709	7.093116	2.403213	0.000284
 241	2.3880e+01	9.5548	81.271580	0.000750	7.498437	2.540539	0.000300
 242	2.3980e+01	9.6029	81.558216	0.000719	7.194446	2.437544	0.000288
 243	2.4079e+01	9.6414	81.800444	0.000608	6.079814	2.059897	0.000243
 244	2.4178e+01	9.6799	82.042672	0.000608	6.079814	2.059897	0.000243
 245	2.4278e+01	9.7184	82.353532	0.000780	7.802427	2.643534	0.000312
 246	2.4378e+01	9.7537	82.656317	0.000760	7.599767	2.574871	0.000304
 247	2.4477e+01	9.7906	82.926805	0.000679	6.789125	2.300218	0.000272
 248	2.4576e+01	9.8356	83.189219	0.000659	6.586465	2.231555	0.000264
 249	2.4676e+01	9.8612	83.447596	0.000649	6.485134	2.197223	0.000260
 250	2.4776e+01	9.9142	83.782678	0.000841	8.410409	2.849524	0.000337
 251	2.4875e+01	9.9559	84.041055	0.000649	6.485134	2.197223	0.000260
 252	2.4974e+01	9.9992	84.335766	0.000740	7.397107	2.506208	0.000296
 253	2.5074e+01	10.0265	84.577994	0.000608	6.079814	2.059897	0.000243
 254	2.5174e+01	10.0746	84.852519	0.000689	6.890455	2.334549	0.000276
 255	2.5273e+01	10.1131	85.147230	0.000740	7.397107	2.506208	0.000296
 256	2.5372e+01	10.1516	85.409644	0.000659	6.586465	2.231555	0.000264
 257	2.5472e+01	10.1917	85.716466	0.000770	7.701097	2.609202	0.000308
 258	2.5572e+01	10.2286	85.990991	0.000689	6.890455	2.334549	0.000276
 259	2.5671e+01	10.2639	86.253405	0.000659	6.586465	2.231555	0.000264
 260	2.5770e+01	10.3184	86.531967	0.000699	6.991786	2.368881	0.000280
 261	2.5870e+01	10.3489	86.778233	0.000618	6.181144	2.094228	0.000248
 262	2.5970e+01	10.3922	87.093129	0.000790	7.903758	2.677866	0.000316
 263	2.6069e+01	10.4275	87.351506	0.000649	6.485134	2.197223	0.000260
 264	2.6169e+01	10.4644	87.609883	0.000649	6.485134	2.197223	0.000260
 265	2.6268e+01	10.5093	87.928816	0.000801	8.005088	2.712197	0.000321
 266	2.6367e+01	10.5591	88.167007	0.000598	5.978483	2.025565	0.000239
 267	2.6467e+01	10.5976	88.481904	0.000790	7.903758	2.677866	0.000316
 268	2.6567e+01	10.6329	88.776615	0.000740	7.397107	2.506208	0.000296
 269	2.6666e+01	10.6746	89.051140	0.000689	6.890455	2.334549	0.000276
 270	2.6765e+01	10.7195	89.301443	0.000628	6.282474	2.128560	0.000252
 271	2.6865e+01	10.7435	89.571931	0.000679	6.789125	2.300218	0.000272
 272	2.6965e+01	10.7965	89.886827	0.000790	7.903758	2.677866	0.000316
 273	2.7064e+01	10.8302	90.153278	0.000669	6.687795	2.265886	0.000268
 274	2.7163e+01	10.8655	90.399543	0.000618	6.181144	2.094228	0.000248
 275	2.7263e+01	10.9120	90.678106	0.000699	6.991786	2.368881	0.000280
 276	2.7363e+01	10.9425	90.964742	0.000719	7.194446	2.437544	0.000288
 277	2.7462e+01	10.9906	91.215045	0.000628	6.282474	2.128560	0.000252
 278	2.7561e+01	11.0307	91.497644	0.000709	7.093116	2.403213	0.000284
 279	2.7661e+01	11.0660	91.792355	0.000740	7.397107	2.506208	0.000296
 280	2.7761e+01	11.1189	92.050732	0.000649	6.485134	2.197223	0.000260
 281	2.7860e+01	11.1478	92.337369	0.000719	7.194446	2.437544	0.000288
 282	2.7959e+01	11.1959	92.611894	0.000689	6.890455	2.334549	0.000276
 283	2.8059e+01	11.2344	92.878345	0.000669	6.687795	2.265886	0.000268
 284	2.8159e+01	11.2665	93.181130	0.000760	7.599767	2.574871	0.000304
 285	2.8258e+01	11.3130	93.419321	0.000598	5.978483	2.025565	0.000239
 286	2.8358e+01	11.3419	93.673661	0.000638	6.383804	2.162891	0.000256
 287	2.8457e+01	11.3836	93.984520	0.000780	7.802427	2.643534	0.000312
 288	2.8556e+01	11.4286	94.238860	0.000638	6.383804	2.162891	0.000256
 289	2.8656e+01	11.4703	94.553756	0.000790	7.903758	2.677866	0.000316
 290	2.8756e+01	11.5056	94.775799	0.000557	5.573162	1.888239	0.000223
 291	2.8855e+01	11.5569	95.058398	0.000709	7.093116	2.403213	0.000284
 292	2.8954e+01	11.5810	95.300626	0.000608	6.079814	2.059897	0.000243
 293	2.9054e+01	11.6275	95.583226	0.000709	7.093116	2.403213	0.000284
 294	2.9154e+01	11.6628	95.886011	0.000760	7.599767	2.574871	0.000304
 295	2.9253e+01	11.7173	96.116128	0.000578	5.775823	1.956902	0.000231
 296	2.9352e+01	11.7542	96.386616	0.000679	6.789125	2.300218	0.000272
 297	2.9452e+01	11.7911	96.665178	0.000699	6.991786	2.368881	0.000280
 298	2.9552e+01	11.8248	96.951815	0.000719	7.194446	2.437544	0.000288
 299	2.9651e+01	11.8713	97.202117	0.000628	6.282474	2.128560	0.000252
 300	2.9750e+01	11.9098	97.468568	0.000669	6.687795	2.265886	0.000268
 301	2.9850e+01	11.9451	97.718871	0.000628	6.282474	2.128560	0.000252
 302	2.9950e+01	11.9868	98.037804	0.000801	8.005088	2.712197	0.000321
 303	3.0049e+01	12.0285	98.296181	0.000649	6.485134	2.197223	0.000260
 304	3.0148e+01	12.0654	98.558595	0.000659	6.586465	2.231555	0.000264
 305	3.0248e+01	12.1120	98.772563	0.000537	5.370502	1.819575	0.000215
 306	3.0348e+01	12.1408	99.071311	0.000750	7.498437	2.540539	0.000300
 307	3.0447e+01	12.1922	99.378133	0.000770	7.701097	2.609202	0.000308
 308	3.0547e+01	12.2226	99.596139	0.000547	5.471832	1.853907	0.000219
 309	3.0646e+01	12.2547	99.890850	0.000740	7.397107	2.506208	0.000296
 310	3.0745e+01	12.3029	100.116929	0.000567	5.674493	1.922570	0.000227
 311	3.0845e+01	12.3430	100.419714	0.000760	7.599767	2.574871	0.000304
 312	3.0945e+01	12.3895	100.686165	0.000669	6.687795	2.265886	0.000268
 313	3.1044e+01	12.4248	100.944542	0.000649	6.485134	2.197223	0.000260
 314	3.1143e+01	12.4745	101.210993	0.000669	6.687795	2.265886	0.000268
 315	3.1243e+01	12.5050	101.497630	0.000719	7.194446	2.437544	0.000288
 316	3.1343e+01	12.5547	101.776192	0.000699	6.991786	2.368881	0.000280
 317	3.1442e+01	12.5884	102.022457	0.000618	6.181144	2.094228	0.000248
 318	3.1541e+01	12.6205	102.333317	0.000780	7.802427	2.643534	0.000312
 319	3.1641e+01	12.6590	102.543248	0.000527	5.269172	1.785244	0.000211
 320	3.1741e+01	12.7119	102.821810	0.000699	6.991786	2.368881	0.000280
 321	3.1840e+01	12.7456	103.060001	0.000598	5.978483	2.025565	0.000239
 322	3.1939e+01	12.7761	103.334526	0.000689	6.890455	2.334549	0.000276
 323	3.2039e+01	12.8194	103.572717	0.000598	5.978483	2.025565	0.000239
 324	3.2139e+01	12.8692	103.871465	0.000750	7.498437	2.540539	0.000300
 325	3.2238e+01	12.8996	104.150028	0.000699	6.991786	2.368881	0.000280
 326	3.2337e+01	12.9494	104.396293	0.000618	6.181144	2.094228	0.000248
 327	3.2437e+01	12.9734	104.650633	0.000638	6.383804	2.162891	0.000256
 328	3.2536e+01	13.0264	104.888824	0.000598	5.978483	2.025565	0.000239
 329	3.2636e+01	13.0601	105.155275	0.000669	6.687795	2.265886	0.000268
 330	3.2736e+01	13.1066	105.421726	0.000669	6.687795	2.265886	0.000268
 331	3.2835e+01	13.1403	105.712399	0.000730	7.295776	2.471876	0.000292
 332	3.2934e+01	13.1804	105.938479	0.000567	5.674493	1.922570	0.000227
 333	3.3034e+01	13.2189	106.221078	0.000709	7.093116	2.403213	0.000284
 334	3.3133e+01	13.2670	106.511752	0.000730	7.295776	2.471876	0.000292
 335	3.3233e+01	13.2959	106.778203	0.000669	6.687795	2.265886	0.000268
 336	3.3333e+01	13.3392	107.032543	0.000638	6.383804	2.162891	0.000256
 337	3.3432e+01	13.3745	107.294957	0.000659	6.586465	2.231555	0.000264
 338	3.3532e+01	13.4290	107.561407	0.000669	6.687795	2.265886	0.000268
 339	3.3631e+01	13.4563	107.835933	0.000689	6.890455	2.334549	0.000276
 340	3.3730e+01	13.5044	108.074124	0.000598	5.978483	2.025565	0.000239
 341	3.3830e+01	13.5365	108.348649	0.000689	6.890455	2.334549	0.000276
 342	3.3929e+01	13.5830	108.574729	0.000567	5.674493	1.922570	0.000227
 343	3.4029e+01	13.6119	108.861365	0.000719	7.194446	2.437544	0.000288
 344	3.4129e+01	13.6552	109.119742	0.000649	6.485134	2.197223	0.000260
 345	3.4228e+01	13.7050	109.345821	0.000567	5.674493	1.922570	0.000227
 346	3.4328e+01	13.7403	109.652644	0.000770	7.701097	2.609202	0.000308
 347	3.4427e+01	13.7707	109.898909	0.000618	6.181144	2.094228	0.000248
 348	3.4526e+01	13.8189	110.145174	0.000618	6.181144	2.094228	0.000248
 349	3.4626e+01	13.8558	110.403551	0.000649	6.485134	2.197223	0.000260
 350	3.4725e+01	13.8991	110.682113	0.000699	6.991786	2.368881	0.000280
 351	3.4825e+01	13.9408	110.908193	0.000567	5.674493	1.922570	0.000227
 352	3.4925e+01	13.9697	111.182718	0.000689	6.890455	2.334549	0.000276
 353	3.5024e+01	14.0146	111.465318	0.000709	7.093116	2.403213	0.000284
 354	3.5123e+01	14.0467	111.711583	0.000618	6.181144	2.094228	0.000248
 355	3.5223e+01	14.0916	111.953811	0.000608	6.079814	2.059897	0.000243
 356	3.5322e+01	14.1413	112.200076	0.000618	6.181144	2.094228	0.000248
 357	3.5422e+01	14.1814	112.438267	0.000598	5.978483	2.025565	0.000239
 358	3.5522e+01	14.2167	112.765275	0.000821	8.207748	2.780860	0.000329
 359	3.5621e+01	14.2552	112.983281	0.000547	5.471832	1.853907	0.000219
 360	3.5721e+01	14.2953	113.257806	0.000689	6.890455	2.334549	0.000276
 361	3.5820e+01	14.3483	113.520220	0.000659	6.586465	2.231555	0.000264
 362	3.5919e+01	14.3707	113.786671	0.000669	6.687795	2.265886	0.000268
 363	3.6019e+01	14.4124	114.065233	0.000699	6.991786	2.368881	0.000280
 364	3.6118e+01	14.4493	114.283238	0.000547	5.471832	1.853907	0.000219
 365	3.6218e+01	14.5023	114.557764	0.000689	6.890455	2.334549	0.000276
 366	3.6318e+01	14.5327	114.836326	0.000699	6.991786	2.368881	0.000280
 367	3.6417e+01	14.5825	115.086628	0.000628	6.282474	2.128560	0.000252
 368	3.6517e+01	14.6178	115.316745	0.000578	5.775823	1.956902	0.000231
 369	3.6616e+01	14.6611	115.611456	0.000740	7.397107	2.506208	0.000296
 370	3.6715e+01	14.7028	115.881944	0.000679	6.789125	2.300218	0.000272
 371	3.6815e+01	14.7236	116.124172	0.000608	6.079814	2.059897	0.000243
 372	3.6914e+01	14.7702	116.366401	0.000608	6.079814	2.059897	0.000243
 373	3.7014e+01	14.8071	116.653037	0.000719	7.194446	2.437544	0.000288
 374	3.7114e+01	14.8472	116.883154	0.000578	5.775823	1.956902	0.000231
 375	3.7213e+01	14.8953	117.153642	0.000679	6.789125	2.300218	0.000272
 376	3.7313e+01	14.9290	117.424130	0.000679	6.789125	2.300218	0.000272
 377	3.7412e+01	14.9659	117.666358	0.000608	6.079814	2.059897	0.000243
 378	3.7511e+01	15.0092	117.940883	0.000689	6.890455	2.334549	0.000276
 379	3.7611e+01	15.0557	118.215409	0.000689	6.890455	2.334549	0.000276
 380	3.7711e+01	15.0942	118.433414	0.000547	5.471832	1.853907	0.000219
 381	3.7810e+01	15.1311	118.732162	0.000750	7.498437	2.540539	0.000300
 382	3.7910e+01	15.1696	118.962279	0.000578	5.775823	1.956902	0.000231
 383	3.8009e+01	15.2178	119.216618	0.000638	6.383804	2.162891	0.000256
 384	3.8108e+01	15.2514	119.442698	0.000567	5.674493	1.922570	0.000227
 385	3.8208e+01	15.2915	119.741446	0.000750	7.498437	2.540539	0.000300
 386	3.8307e+01	15.3381	120.032120	0.000730	7.295776	2.471876	0.000292
 387	3.8407e+01	15.3702	120.286459	0.000638	6.383804	2.162891	0.000256
 388	3.8507e+01	15.4038	120.552910	0.000669	6.687795	2.265886	0.000268
 389	3.8606e+01	15.4520	120.791101	0.000598	5.978483	2.025565	0.000239
 390	3.8706e+01	15.4921	121.029292	0.000598	5.978483	2.025565	0.000239
 391	3.8805e+01	15.5418	121.336115	0.000770	7.701097	2.609202	0.000308
 392	3.8904e+01	15.5787	121.566231	0.000578	5.775823	1.956902	0.000231
 393	3.9004e+01	15.6172	121.824608	0.000649	6.485134	2.197223	0.000260
 394	3.9103e+01	15.6557	122.058762	0.000588	5.877153	1.991233	0.000235
 395	3.9203e+01	15.6990	122.365584	0.000770	7.701097	2.609202	0.000308
 396	3.9303e+01	15.7343	122.652221	0.000719	7.194446	2.437544	0.000288
 397	3.9402e+01	15.7808	122.858115	0.000517	5.167842	1.750912	0.000207
 398	3.9502e+01	15.8081	123.112454	0.000638	6.383804	2.162891	0.000256
 399	3.9601e+01	15.8514	123.403128	0.000730	7.295776	2.471876	0.000292
 400	3.9700e+01	15.8915	123.629208	0.000567	5.674493	1.922570	0.000227
 401	3.9800e+01	15.9284	123.915844	0.000719	7.194446	2.437544	0.000288
 402	3.9900e+01	15.9605	124.190370	0.000689	6.890455	2.334549	0.000276
 403	3.9999e+01	16.0086	124.436635	0.000618	6.181144	2.094228	0.000248
 404	4.0099e+01	16.0520	124.703086	0.000669	6.687795	2.265886	0.000268
 405	4.0198e+01	16.0969	124.981648	0.000699	6.991786	2.368881	0.000280
 406	4.0297e+01	16.1386	125.175431	0.000486	4.863851	1.647917	0.000195
 407	4.0397e+01	16.1691	125.474179	0.000750	7.498437	2.540539	0.000300
 408	4.0496e+01	16.2092	125.728518	0.000638	6.383804	2.162891	0.000256
 409	4.0596e+01	16.2525	125.958635	0.000578	5.775823	1.956902	0.000231
 410	4.0696e+01	16.2878	126.265457	0.000770	7.701097	2.609202	0.000308
 411	4.0795e+01	16.3231	126.487500	0.000557	5.573162	1.888239	0.000223
 412	4.0895e+01	16.3680	126.749914	0.000659	6.586465	2.231555	0.000264
 413	4.0994e+01	16.4129	127.028476	0.000699	6.991786	2.368881	0.000280
 414	4.1093e+01	16.4450	127.294927	0.000669	6.687795	2.265886	0.000268
 415	4.1193e+01	16.4915	127.504858	0.000527	5.269172	1.785244	0.000211
 416	4.1292e+01	16.5332	127.795532	0.000730	7.295776	2.471876	0.000292
 417	4.1392e+01	16.5669	128.082168	0.000719	7.194446	2.437544	0.000288
 418	4.1492e+01	16.6022	128.332471	0.000628	6.282474	2.128560	0.000252
 419	4.1591e+01	16.6503	128.590848	0.000649	6.485134	2.197223	0.000260
 420	4.1691e+01	16.6953	128.812890	0.000557	5.573162	1.888239	0.000223
 421	4.1790e+01	16.7273	129.063192	0.000628	6.282474	2.128560	0.000252
 422	4.1889e+01	16.7642	129.333681	0.000679	6.789125	2.300218	0.000272
 423	4.1989e+01	16.8108	129.604169	0.000679	6.789125	2.300218	0.000272
 424	4.2089e+01	16.8444	129.834285	0.000578	5.775823	1.956902	0.000231
 425	4.2188e+01	16.8974	130.100736	0.000669	6.687795	2.265886	0.000268
 426	4.2288e+01	16.9214	130.387373	0.000719	7.194446	2.437544	0.000288
 427	4.2387e+01	16.9760	130.637675	0.000628	6.282474	2.128560	0.000252
 428	4.2486e+01	17.0001	130.908163	0.000679	6.789125	2.300218	0.000272
 429	4.2586e+01	17.0466	131.166540	0.000649	6.485134	2.197223	0.000260
 430	4.2685e+01	17.0899	131.388583	0.000557	5.573162	1.888239	0.000223
 431	4.2785e+01	17.1332	131.695405	0.000770	7.701097	2.609202	0.000308
 432	4.2885e+01	17.1621	131.921485	0.000567	5.674493	1.922570	0.000227
 433	4.2984e+01	17.2102	132.208121	0.000719	7.194446	2.437544	0.000288
 434	4.3084e+01	17.2551	132.422089	0.000537	5.370502	1.819575	0.000215
 435	4.3183e+01	17.2936	132.684503	0.000659	6.586465	2.231555	0.000264
 436	4.3282e+01	17.3273	132.950954	0.000669	6.687795	2.265886	0.000268
 437	4.3382e+01	17.3594	133.237591	0.000719	7.194446	2.437544	0.000288
 438	4.3481e+01	17.4091	133.483856	0.000618	6.181144	2.094228	0.000248
 439	4.3581e+01	17.4380	133.726084	0.000608	6.079814	2.059897	0.000243
 440	4.3681e+01	17.4813	133.972349	0.000618	6.181144	2.094228	0.000248
 441	4.3780e+01	17.5262	134.307432	0.000841	8.410409	2.849524	0.000337
 442	4.3880e+01	17.5663	134.517363	0.000527	5.269172	1.785244	0.000211
 443	4.3979e+01	17.6032	134.783814	0.000669	6.687795	2.265886	0.000268
 444	4.4078e+01	17.6498	135.030079	0.000618	6.181144	2.094228	0.000248
 445	4.4178e+01	17.6867	135.296530	0.000669	6.687795	2.265886	0.000268
 446	4.4278e+01	17.7268	135.558944	0.000659	6.586465	2.231555	0.000264
 447	4.4377e+01	17.7573	135.789061	0.000578	5.775823	1.956902	0.000231
 448	4.4477e+01	17.8006	136.039363	0.000628	6.282474	2.128560	0.000252
 449	4.4576e+01	17.8519	136.334074	0.000740	7.397107	2.506208	0.000296
 450	4.4675e+01	17.8904	136.556116	0.000557	5.573162	1.888239	0.000223
 451	4.4775e+01	17.9225	136.810456	0.000638	6.383804	2.162891	0.000256
 452	4.4874e+01	17.9658	137.072870	0.000659	6.586465	2.231555	0.000264
 453	4.4974e+01	18.0059	137.363543	0.000730	7.295776	2.471876	0.000292
 454	4.5074e+01	18.0396	137.565400	0.000507	5.066511	1.716581	0.000203
 455	4.5173e+01	18.0877	137.839926	0.000689	6.890455	2.334549	0.000276
 456	4.5273e+01	18.1182	138.106376	0.000669	6.687795	2.265886	0.000268
 457	4.5372e+01	18.1583	138.368790	0.000659	6.586465	2.231555	0.000264
 458	4.5471e+01	18.2032	138.582758	0.000537	5.370502	1.819575	0.000215
 459	4.5571e+01	18.2401	138.849209	0.000669	6.687795	2.265886	0.000268
 460	4.5670e+01	18.2770	139.091438	0.000608	6.079814	2.059897	0.000243
 461	4.5770e+01	18.3300	139.357889	0.000669	6.687795	2.265886	0.000268
 462	4.5870e+01	18.3733	139.632414	0.000689	6.890455	2.334549	0.000276
 463	4.5969e+01	18.4054	139.870605	0.000598	5.978483	2.025565	0.000239
 464	4.6069e+01	18.4455	140.100722	0.000578	5.775823	1.956902	0.000231
 465	4.6168e+01	18.4872	140.367172	0.000669	6.687795	2.265886	0.000268
 466	4.6267e+01	18.5145	140.645735	0.000699	6.991786	2.368881	0.000280
 467	4.6367e+01	18.5642	140.863740	0.000547	5.471832	1.853907	0.000219
 468	4.6467e+01	18.6043	141.110005	0.000618	6.181144	2.094228	0.000248
 469	4.6566e+01	18.6316	141.388568	0.000699	6.991786	2.368881	0.000280
 470	4.6666e+01	18.6749	141.638870	0.000628	6.282474	2.128560	0.000252
 471	4.6765e+01	18.7214	141.901284	0.000659	6.586465	2.231555	0.000264
 472	4.6864e+01	18.7679	142.131401	0.000578	5.775823	1.956902	0.000231
 473	4.6964e+01	18.8000	142.409963	0.000699	6.991786	2.368881	0.000280
 474	4.7063e+01	18.8433	142.664303	0.000638	6.383804	2.162891	0.000256
 475	4.7163e+01	18.8738	142.878271	0.000537	5.370502	1.819575	0.000215
 476	4.7263e+01	18.9283	143.148759	0.000679	6.789125	2.300218	0.000272
 477	4.7362e+01	18.9588	143.366764	0.000547	5.471832	1.853907	0.000219
 478	4.7462e+01	18.9989	143.621104	0.000638	6.383804	2.162891	0.000256
 479	4.7561e+01	19.0326	143.871406	0.000628	6.282474	2.128560	0.000252
 480	4.7660e+01	19.0759	144.141894	0.000679	6.789125	2.300218	0.000272
 481	4.7760e+01	19.1257	144.367974	0.000567	5.674493	1.922570	0.000227
 482	4.7859e+01	19.1529	144.662685	0.000740	7.397107	2.506208	0.000296
 483	4.7959e+01	19.1882	144.896839	0.000588	5.877153	1.991233	0.000235
 484	4.8059e+01	19.2492	145.110807	0.000537	5.370502	1.819575	0.000215
 485	4.8158e+01	19.2765	145.389369	0.000699	6.991786	2.368881	0.000280
 486	4.8258e+01	19.3166	145.627560	0.000598	5.978483	2.025565	0.000239
 487	4.8357e+01	19.3599	145.881900	0.000638	6.383804	2.162891	0.000256
 488	4.8456e+01	19.4064	146.124128	0.000608	6.079814	2.059897	0.000243
 489	4.8556e+01	19.4465	146.414802	0.000730	7.295776	2.471876	0.000292
 490	4.8656e+01	19.4658	146.636844	0.000557	5.573162	1.888239	0.000223
 491	4.8755e+01	19.5091	146.875035	0.000598	5.978483	2.025565	0.000239
 492	4.8855e+01	19.5668	147.137449	0.000659	6.586465	2.231555	0.000264
 493	4.8954e+01	19.6005	147.371603	0.000588	5.877153	1.991233	0.000235
 494	4.9053e+01	19.6278	147.646128	0.000689	6.890455	2.334549	0.000276
 495	4.9153e+01	19.6823	147.876245	0.000578	5.775823	1.956902	0.000231
 496	4.9252e+01	19.7208	148.106362	0.000578	5.775823	1.956902	0.000231
 497	4.9352e+01	19.7513	148.368776	0.000659	6.586465	2.231555	0.000264
 498	4.9452e+01	19.7930	148.635226	0.000669	6.687795	2.265886	0.000268
 499	4.9551e+01	19.8363	148.901677	0.000669	6.687795	2.265886	0.000268
 500	4.9651e+01	19.8716	149.139868	0.000598	5.978483	2.025565	0.000239
 501	4.9750e+01	19.9117	149.357874	0.000547	5.471832	1.853907	0.000219
 502	4.9849e+01	19.9518	149.596065	0.000598	5.978483	2.025565	0.000239
 503	4.9949e+01	19.9919	149.886739	0.000730	7.295776	2.471876	0.000292
 504	5.0048e+01	19.9615	149.757550	0.000324	3.242567	1.098612	-0.000130
 505	5.0148e+01	19.9149	149.616250	0.000355	3.546558	1.201606	-0.000142
 506	5.0248e+01	19.8700	149.454765	0.000405	4.053209	1.373264	-0.000162
 507	5.0347e+01	19.8299	149.305391	0.000375	3.749218	1.270270	-0.000150
 508	5.0447e+01	19.7930	149.131794	0.000436	4.357200	1.476259	-0.000174
 509	5.0546e+01	19.7481	148.994532	0.000345	3.445228	1.167275	-0.000138
 510	5.0645e+01	19.7144	148.816898	0.000446	4.458530	1.510591	-0.000179
 511	5.0745e+01	19.6775	148.627152	0.000476	4.762521	1.613586	-0.000191
 512	5.0844e+01	19.6230	148.453555	0.000436	4.357200	1.476259	-0.000174
 513	5.0944e+01	19.6037	148.316293	0.000345	3.445228	1.167275	-0.000138
 514	5.1044e+01	19.5636	148.158844	0.000395	3.951879	1.338933	-0.000158
 515	5.1143e+01	19.5091	148.001396	0.000395	3.951879	1.338933	-0.000158
 516	5.1242e+01	19.4754	147.803577	0.000497	4.965181	1.682249	-0.000199
 517	5.1342e+01	19.4305	147.625943	0.000446	4.458530	1.510591	-0.000179
 518	5.1441e+01	19.3920	147.452346	0.000436	4.357200	1.476259	-0.000174
 519	5.1541e+01	19.3535	147.238378	0.000537	5.370502	1.819575	-0.000215
 520	5.1641e+01	19.3198	147.048632	0.000476	4.762521	1.613586	-0.000191
 521	5.1740e+01	19.2829	146.879072	0.000426	4.255870	1.441928	-0.000170
 522	5.1840e+01	19.2412	146.745847	0.000334	3.343897	1.132943	-0.000134
 523	5.1939e+01	19.2091	146.548027	0.000497	4.965181	1.682249	-0.000199
 524	5.2038e+01	19.1594	146.370393	0.000446	4.458530	1.510591	-0.000179
 525	5.2138e+01	19.1144	146.184685	0.000466	4.661190	1.579254	-0.000187
 526	5.2237e+01	19.0759	146.019163	0.000415	4.154539	1.407596	-0.000166
 527	5.2337e+01	19.0422	145.801157	0.000547	5.471832	1.853907	-0.000219
 528	5.2437e+01	18.9989	145.611412	0.000476	4.762521	1.613586	-0.000191
 529	5.2536e+01	18.9540	145.466075	0.000365	3.647888	1.235938	-0.000146
 530	5.2636e+01	18.9235	145.268255	0.000497	4.965181	1.682249	-0.000199
 531	5.2735e+01	18.8786	145.066398	0.000507	5.066511	1.716581	-0.000203
 532	5.2834e+01	18.8465	144.880690	0.000466	4.661190	1.579254	-0.000187
 533	5.2934e+01	18.8000	144.682871	0.000497	4.965181	1.682249	-0.000199
 534	5.3033e+01	18.7535	144.517348	0.000415	4.154539	1.407596	-0.000166
 535	5.3133e+01	18.7262	144.303380	0.000537	5.370502	1.819575	-0.000215
 536	5.3233e+01	18.6749	144.117672	0.000466	4.661190	1.579254	-0.000187
 537	5.3332e+01	18.6300	143.948112	0.000426	4.255870	1.441928	-0.000170
 538	5.3431e+01	18.6011	143.726069	0.000557	5.573162	1.888239	-0.000223
 539	5.3531e+01	18.5626	143.548435	0.000446	4.458530	1.510591	-0.000179
 540	5.3630e+01	18.5257	143.362727	0.000466	4.661190	1.579254	-0.000187
 541	5.3730e+01	18.4840	143.152796	0.000527	5.269172	1.785244	-0.000211
 542	5.3830e+01	18.4423	142.967088	0.000466	4.661190	1.579254	-0.000187
 543	5.3929e+01	18.4086	142.769268	0.000497	4.965181	1.682249	-0.000199
 544	5.4029e+01	18.3588	142.567411	0.000507	5.066511	1.716581	-0.000203
 545	5.4128e+01	18.3252	142.397852	0.000426	4.255870	1.441928	-0.000170
 546	5.4227e+01	18.2802	142.216181	0.000456	4.559860	1.544922	-0.000183
 547	5.4327e+01	18.2369	141.998175	0.000547	5.471832	1.853907	-0.000219
 548	5.4426e+01	18.2048	141.816504	0.000456	4.559860	1.544922	-0.000183
 549	5.4526e+01	18.1679	141.610610	0.000517	5.167842	1.750912	-0.000207
 550	5.4626e+01	18.1246	141.424902	0.000466	4.661190	1.579254	-0.000187
 551	5.4725e+01	18.0829	141.174600	0.000628	6.282474	2.128560	-0.000252
 552	5.4825e+01	18.0364	141.049448	0.000314	3.141237	1.064280	-0.000126
 553	5.4924e+01	18.0187	140.819332	0.000578	5.775823	1.956902	-0.000231
 554	5.5023e+01	17.9642	140.621512	0.000497	4.965181	1.682249	-0.000199
 555	5.5123e+01	17.9241	140.411581	0.000527	5.269172	1.785244	-0.000211
 556	5.5222e+01	17.8904	140.221836	0.000476	4.762521	1.613586	-0.000191
 557	5.5322e+01	17.8391	139.995756	0.000567	5.674493	1.922570	-0.000227
 558	5.5422e+01	17.8054	139.862531	0.000334	3.343897	1.132943	-0.000134
 559	5.5521e+01	17.7621	139.624339	0.000598	5.978483	2.025565	-0.000239
 560	5.5620e+01	17.7220	139.398260	0.000567	5.674493	1.922570	-0.000227
 561	5.5720e+01	17.6802	139.220626	0.000446	4.458530	1.510591	-0.000179
 562	5.5819e+01	17.6417	139.022806	0.000497	4.965181	1.682249	-0.000199
 563	5.5919e+01	17.6049	138.812875	0.000527	5.269172	1.785244	-0.000211
 564	5.6019e+01	17.5680	138.635241	0.000446	4.458530	1.510591	-0.000179
 565	5.6118e+01	17.5166	138.417236	0.000547	5.471832	1.853907	-0.000219
 566	5.6218e+01	17.4893	138.259788	0.000395	3.951879	1.338933	-0.000158
 567	5.6317e+01	17.4428	138.009485	0.000628	6.282474	2.128560	-0.000252
 568	5.6416e+01	17.3995	137.815703	0.000486	4.863851	1.647917	-0.000195
 569	5.6516e+01	17.3562	137.613846	0.000507	5.066511	1.716581	-0.000203
 570	5.6615e+01	17.3241	137.428138	0.000466	4.661190	1.579254	-0.000187
 571	5.6715e+01	17.2792	137.222244	0.000517	5.167842	1.750912	-0.000207
 572	5.6815e+01	17.2471	137.016350	0.000517	5.167842	1.750912	-0.000207
 573	5.6914e+01	17.2134	136.822567	0.000486	4.863851	1.647917	-0.000195
 574	5.7014e+01	17.1685	136.640896	0.000456	4.559860	1.544922	-0.000183
 575	5.7113e+01	17.1252	136.414817	0.000567	5.674493	1.922570	-0.000227
 576	5.7212e+01	17.0947	136.196811	0.000547	5.471832	1.853907	-0.000219
 577	5.7312e+01	17.0337	135.998992	0.000497	4.965181	1.682249	-0.000199
 578	5.7411e+01	17.0049	135.776949	0.000557	5.573162	1.888239	-0.000223
 579	5.7511e+01	16.9664	135.583167	0.000486	4.863851	1.647917	-0.000195
 580	5.7611e+01	16.9247	135.409570	0.000436	4.357200	1.476259	-0.000174
 581	5.7710e+01	16.8894	135.147156	0.000659	6.586465	2.231555	-0.000264
 582	5.7809e+01	16.8477	134.989708	0.000395	3.951879	1.338933	-0.000158
 583	5.7909e+01	16.8059	134.751517	0.000598	5.978483	2.025565	-0.000239
 584	5.8008e+01	16.7658	134.581957	0.000426	4.255870	1.441928	-0.000170
 585	5.8108e+01	16.7273	134.351840	0.000578	5.775823	1.956902	-0.000231
 586	5.8208e+01	16.6904	134.141909	0.000527	5.269172	1.785244	-0.000211
 587	5.8307e+01	16.6519	133.948127	0.000486	4.863851	1.647917	-0.000195
 588	5.8407e+01	16.6070	133.730121	0.000547	5.471832	1.853907	-0.000219
 589	5.8506e+01	16.5685	133.540376	0.000476	4.762521	1.613586	-0.000191
 590	5.8605e+01	16.5252	133.326408	0.000537	5.370502	1.819575	-0.000215
 591	5.8705e+01	16.4851	133.072068	0.000638	6.383804	2.162891	-0.000256
 592	5.8804e+01	16.4514	132.902508	0.000426	4.255870	1.441928	-0.000170
 593	5.8904e+01	16.4033	132.700652	0.000507	5.066511	1.716581	-0.000203
 594	5.9004e+01	16.3664	132.458424	0.000608	6.079814	2.059897	-0.000243
 595	5.9103e+01	16.3263	132.264641	0.000486	4.863851	1.647917	-0.000195
 596	5.9203e+01	16.2926	132.062784	0.000507	5.066511	1.716581	-0.000203
 597	5.9302e+01	16.2445	131.836705	0.000567	5.674493	1.922570	-0.000227
 598	5.9401e+01	16.2076	131.634848	0.000507	5.066511	1.716581	-0.000203
 599	5.9501e+01	16.1707	131.416843	0.000547	5.471832	1.853907	-0.000219
 600	5.9600e+01	16.1306	131.219023	0.000497	4.965181	1.682249	-0.000199
 601	5.9700e+01	16.0856	131.021203	0.000497	4.965181	1.682249	-0.000199
 602	5.9800e+01	16.0423	130.795124	0.000567	5.674493	1.922570	-0.000227
 603	5.9899e+01	16.0086	130.569044	0.000567	5.674493	1.922570	-0.000227
 604	5.9998e+01	15.9717	130.375262	0.000486	4.863851	1.647917	-0.000195
 605	6.0098e+01	15.9316	130.189553	0.000466	4.661190	1.579254	-0.000187
 606	6.0197e+01	15.8883	129.951362	0.000598	5.978483	2.025565	-0.000239
 607	6.0297e+01	15.8530	129.749505	0.000507	5.066511	1.716581	-0.000203
 608	6.0397e+01	15.8161	129.515352	0.000588	5.877153	1.991233	-0.000235
 609	6.0496e+01	15.7664	129.325606	0.000476	4.762521	1.613586	-0.000191
 610	6.0596e+01	15.7343	129.115675	0.000527	5.269172	1.785244	-0.000211
 611	6.0695e+01	15.6974	128.942078	0.000436	4.357200	1.476259	-0.000174
 612	6.0794e+01	15.6477	128.687739	0.000638	6.383804	2.162891	-0.000256
 613	6.0894e+01	15.6188	128.429362	0.000649	6.485134	2.197223	-0.000260
 614	6.0993e+01	15.5691	128.284025	0.000365	3.647888	1.235938	-0.000146
 615	6.1093e+01	15.5242	128.041797	0.000608	6.079814	2.059897	-0.000243
 616	6.1193e+01	15.4953	127.815717	0.000567	5.674493	1.922570	-0.000227
 617	6.1292e+01	15.4504	127.662306	0.000385	3.850549	1.304601	-0.000154
 618	6.1392e+01	15.4167	127.424115	0.000598	5.978483	2.025565	-0.000239
 619	6.1491e+01	15.3830	127.173813	0.000628	6.282474	2.128560	-0.000252
 620	6.1590e+01	15.3333	126.955808	0.000547	5.471832	1.853907	-0.000219
 621	6.1690e+01	15.2964	126.745876	0.000527	5.269172	1.785244	-0.000211
 622	6.1789e+01	15.2514	126.531908	0.000537	5.370502	1.819575	-0.000215
 623	6.1889e+01	15.2210	126.334089	0.000497	4.965181	1.682249	-0.000199
 624	6.1989e+01	15.1744	126.124158	0.000527	5.269172	1.785244	-0.000211
 625	6.2088e+01	15.1199	125.902115	0.000557	5.573162	1.888239	-0.000223
 626	6.2188e+01	15.0878	125.659887	0.000608	6.079814	2.059897	-0.000243
 627	6.2287e+01	15.0589	125.449956	0.000527	5.269172	1.785244	-0.000211
 628	6.2386e+01	15.0140	125.203691	0.000618	6.181144	2.094228	-0.000248
 629	6.2486e+01	14.9771	125.005871	0.000497	4.965181	1.682249	-0.000199
 630	6.2586e+01	14.9386	124.783829	0.000557	5.573162	1.888239	-0.000223
 631	6.2685e+01	14.8921	124.573897	0.000527	5.269172	1.785244	-0.000211
 632	6.2785e+01	14.8600	124.335706	0.000598	5.978483	2.025565	-0.000239
 633	6.2884e+01	14.8103	124.097515	0.000598	5.978483	2.025565	-0.000239
 634	6.2983e+01	14.7734	123.879510	0.000547	5.471832	1.853907	-0.000219
 635	6.3083e+01	14.7349	123.645356	0.000588	5.877153	1.991233	-0.000235
 636	6.3182e+01	14.7028	123.447537	0.000497	4.965181	1.682249	-0.000199
 637	6.3282e+01	14.6643	123.237606	0.000527	5.269172	1.785244	-0.000211
 638	6.3382e+01	14.6194	123.023637	0.000537	5.370502	1.819575	-0.000215
 639	6.3481e+01	14.5696	122.777372	0.000618	6.181144	2.094228	-0.000248
 640	6.3581e+01	14.5343	122.567441	0.000527	5.269172	1.785244	-0.000211
 641	6.3680e+01	14.4958	122.349436	0.000547	5.471832	1.853907	-0.000219
 642	6.3779e+01	14.4622	122.119319	0.000578	5.775823	1.956902	-0.000231
 643	6.3879e+01	14.4140	121.864979	0.000638	6.383804	2.162891	-0.000256
 644	6.3978e+01	14.3691	121.707531	0.000395	3.951879	1.338933	-0.000158
 645	6.4078e+01	14.3418	121.485489	0.000557	5.573162	1.888239	-0.000223
 646	6.4177e+01	14.3017	121.198852	0.000719	7.194446	2.437544	-0.000288
 647	6.4277e+01	14.2600	120.984884	0.000537	5.370502	1.819575	-0.000215
 648	6.4376e+01	14.2183	120.742656	0.000608	6.079814	2.059897	-0.000243
 649	6.4476e+01	14.1798	120.548873	0.000486	4.863851	1.647917	-0.000195
 650	6.4576e+01	14.1413	120.306645	0.000608	6.079814	2.059897	-0.000243
 651	6.4675e+01	14.1140	120.092677	0.000537	5.370502	1.819575	-0.000215
 652	6.4775e+01	14.0579	119.838337	0.000638	6.383804	2.162891	-0.000256
 653	6.4874e+01	14.0242	119.608221	0.000578	5.775823	1.956902	-0.000231
 654	6.4974e+01	13.9761	119.390215	0.000547	5.471832	1.853907	-0.000219
 655	6.5073e+01	13.9312	119.168173	0.000557	5.573162	1.888239	-0.000223
 656	6.5172e+01	13.9039	118.934019	0.000588	5.877153	1.991233	-0.000235
 657	6.5272e+01	13.8558	118.699865	0.000588	5.877153	1.991233	-0.000235
 658	6.5371e+01	13.8140	118.489934	0.000527	5.269172	1.785244	-0.000211
 659	6.5471e+01	13.7788	118.227520	0.000659	6.586465	2.231555	-0.000264
 660	6.5570e+01	13.7370	118.053923	0.000436	4.357200	1.476259	-0.000174
 661	6.5670e+01	13.6937	117.839955	0.000537	5.370502	1.819575	-0.000215
 662	6.5769e+01	13.6568	117.593690	0.000618	6.181144	2.094228	-0.000248
 663	6.5869e+01	13.6183	117.315127	0.000699	6.991786	2.368881	-0.000280
 664	6.5969e+01	13.5798	117.093085	0.000557	5.573162	1.888239	-0.000223
 665	6.6068e+01	13.5494	116.903340	0.000476	4.762521	1.613586	-0.000191
 666	6.6168e+01	13.5028	116.657074	0.000618	6.181144	2.094228	-0.000248
 667	6.6267e+01	13.4627	116.439069	0.000547	5.471832	1.853907	-0.000219
 668	6.6367e+01	13.4130	116.217026	0.000557	5.573162	1.888239	-0.000223
 669	6.6466e+01	13.3857	115.986910	0.000578	5.775823	1.956902	-0.000231
 670	6.6566e+01	13.3360	115.756793	0.000578	5.775823	1.956902	-0.000231
 671	6.6665e+01	13.2911	115.510528	0.000618	6.181144	2.094228	-0.000248
 672	6.6764e+01	13.2590	115.240040	0.000679	6.789125	2.300218	-0.000272
 673	6.6864e+01	13.2125	115.094703	0.000365	3.647888	1.235938	-0.000146
 674	6.6963e+01	13.1740	114.828252	0.000669	6.687795	2.265886	-0.000268
 675	6.7063e+01	13.1467	114.561801	0.000669	6.687795	2.265886	-0.000268
 676	6.7162e+01	13.0954	114.323610	0.000598	5.978483	2.025565	-0.000239
 677	6.7262e+01	13.0649	114.069270	0.000638	6.383804	2.162891	-0.000256
 678	6.7362e+01	13.0280	113.891636	0.000446	4.458530	1.510591	-0.000179
 679	6.7461e+01	12.9766	113.633260	0.000649	6.485134	2.197223	-0.000260
 680	6.7561e+01	12.9365	113.403143	0.000578	5.775823	1.956902	-0.000231
 681	6.7660e+01	12.8996	113.152840	0.000628	6.282474	2.128560	-0.000252
 682	6.7760e+01	12.8659	112.987318	0.000415	4.154539	1.407596	-0.000166
 683	6.7859e+01	12.8162	112.741053	0.000618	6.181144	2.094228	-0.000248
 684	6.7959e+01	12.7922	112.486713	0.000638	6.383804	2.162891	-0.000256
 685	6.8058e+01	12.7520	112.236411	0.000628	6.282474	2.128560	-0.000252
 686	6.8157e+01	12.7071	111.978034	0.000649	6.485134	2.197223	-0.000260
 687	6.8257e+01	12.6718	111.768103	0.000527	5.269172	1.785244	-0.000211
 688	6.8356e+01	12.6237	111.521838	0.000618	6.181144	2.094228	-0.000248
 689	6.8456e+01	12.5788	111.283647	0.000598	5.978483	2.025565	-0.000239
 690	6.8555e+01	12.5467	111.041418	0.000608	6.079814	2.059897	-0.000243
 691	6.8655e+01	12.5082	110.843599	0.000497	4.965181	1.682249	-0.000199
 692	6.8754e+01	12.4713	110.565036	0.000699	6.991786	2.368881	-0.000280
 693	6.8854e+01	12.4248	110.322808	0.000608	6.079814	2.059897	-0.000243
 694	6.8954e+01	12.3895	110.096729	0.000567	5.674493	1.922570	-0.000227
 695	6.9053e+01	12.3558	109.850463	0.000618	6.181144	2.094228	-0.000248
 696	6.9153e+01	12.3125	109.636495	0.000537	5.370502	1.819575	-0.000215
 697	6.9252e+01	12.2724	109.370044	0.000669	6.687795	2.265886	-0.000268
 698	6.9352e+01	12.2243	109.156076	0.000537	5.370502	1.819575	-0.000215
 699	6.9451e+01	12.1922	108.889625	0.000669	6.687795	2.265886	-0.000268
 700	6.9550e+01	12.1456	108.663546	0.000567	5.674493	1.922570	-0.000227
 701	6.9650e+01	12.1087	108.421317	0.000608	6.079814	2.059897	-0.000243
 702	6.9749e+01	12.0654	108.219461	0.000507	5.066511	1.716581	-0.000203
 703	6.9849e+01	12.0253	107.957047	0.000659	6.586465	2.231555	-0.000264
 704	6.9948e+01	11.9820	107.730967	0.000567	5.674493	1.922570	-0.000227
 705	7.0048e+01	11.9419	107.480665	0.000628	6.282474	2.128560	-0.000252
 706	7.0147e+01	11.9034	107.234399	0.000618	6.181144	2.094228	-0.000248
 707	7.0247e+01	11.8665	107.028506	0.000517	5.167842	1.750912	-0.000207
 708	7.0347e+01	11.8216	106.770129	0.000649	6.485134	2.197223	-0.000260
 709	7.0446e+01	11.7783	106.511752	0.000649	6.485134	2.197223	-0.000260
 710	7.0546e+01	11.7462	106.301821	0.000527	5.269172	1.785244	-0.000211
 711	7.0645e+01	11.7029	106.067667	0.000588	5.877153	1.991233	-0.000235
 712	7.0745e+01	11.6692	105.805253	0.000659	6.586465	2.231555	-0.000264
 713	7.0844e+01	11.6323	105.583211	0.000557	5.573162	1.888239	-0.000223
 714	7.0944e+01	11.5858	105.353094	0.000578	5.775823	1.956902	-0.000231
 715	7.1043e+01	11.5392	105.098755	0.000638	6.383804	2.162891	-0.000256
 716	7.1142e+01	11.5040	104.852489	0.000618	6.181144	2.094228	-0.000248
 717	7.1242e+01	11.4767	104.614298	0.000598	5.978483	2.025565	-0.000239
 718	7.1341e+01	11.4350	104.392256	0.000557	5.573162	1.888239	-0.000223
 719	7.1441e+01	11.3933	104.137916	0.000638	6.383804	2.162891	-0.000256
 720	7.1540e+01	11.3532	103.879540	0.000649	6.485134	2.197223	-0.000260
 721	7.1640e+01	11.3082	103.677683	0.000507	5.066511	1.716581	-0.000203
 722	7.1740e+01	11.2649	103.423343	0.000638	6.383804	2.162891	-0.000256
 723	7.1839e+01	11.2264	103.193227	0.000578	5.775823	1.956902	-0.000231
 724	7.1939e+01	11.1863	102.946961	0.000618	6.181144	2.094228	-0.000248
 725	7.2038e+01	11.1526	102.680510	0.000669	6.687795	2.265886	-0.000268
 726	7.2138e+01	11.1189	102.474616	0.000517	5.167842	1.750912	-0.000207
 727	7.2237e+01	11.0708	102.244500	0.000578	5.775823	1.956902	-0.000231
 728	7.2337e+01	11.0339	101.965937	0.000699	6.991786	2.368881	-0.000280
 729	7.2436e+01	10.9938	101.723709	0.000608	6.079814	2.059897	-0.000243
 730	7.2535e+01	10.9521	101.529927	0.000486	4.863851	1.647917	-0.000195
 731	7.2635e+01	10.9088	101.243290	0.000719	7.194446	2.437544	-0.000288
 732	7.2734e+01	10.8735	101.021248	0.000557	5.573162	1.888239	-0.000223
 733	7.2834e+01	10.8318	100.726537	0.000740	7.397107	2.506208	-0.000296
 734	7.2933e+01	10.7853	100.504494	0.000557	5.573162	1.888239	-0.000223
 735	7.3033e+01	10.7484	100.290526	0.000537	5.370502	1.819575	-0.000215
 736	7.3132e+01	10.7131	100.024075	0.000669	6.687795	2.265886	-0.000268
 737	7.3232e+01	10.6698	99.789921	0.000588	5.877153	1.991233	-0.000235
 738	7.3332e+01	10.6361	99.543656	0.000618	6.181144	2.094228	-0.000248
 739	7.3431e+01	10.5927	99.301428	0.000608	6.079814	2.059897	-0.000243
 740	7.3531e+01	10.5478	99.095534	0.000517	5.167842	1.750912	-0.000207
 741	7.3630e+01	10.5109	98.808897	0.000719	7.194446	2.437544	-0.000288
 742	7.3730e+01	10.4676	98.615115	0.000486	4.863851	1.647917	-0.000195
 743	7.3829e+01	10.4371	98.340589	0.000689	6.890455	2.334549	-0.000276
 744	7.3928e+01	10.3938	98.102398	0.000598	5.978483	2.025565	-0.000239
 745	7.4028e+01	10.3473	97.848059	0.000638	6.383804	2.162891	-0.000256
 746	7.4127e+01	10.3104	97.621979	0.000567	5.674493	1.922570	-0.000227
 747	7.4227e+01	10.2751	97.359565	0.000659	6.586465	2.231555	-0.000264
 748	7.4326e+01	10.2286	97.121374	0.000598	5.978483	2.025565	-0.000239
 749	7.4426e+01	10.1901	96.854923	0.000669	6.687795	2.265886	-0.000268
 750	7.4525e+01	10.1580	96.620770	0.000588	5.877153	1.991233	-0.000235
 751	7.4625e+01	10.1099	96.382579	0.000598	5.978483	2.025565	-0.000239
 752	7.4725e+01	10.0730	96.112091	0.000679	6.789125	2.300218	-0.000272
 753	7.4824e+01	10.0329	95.877937	0.000588	5.877153	1.991233	-0.000235
 754	7.4924e+01	9.9863	95.627634	0.000628	6.282474	2.128560	-0.000252
 755	7.5023e+01	9.9543	95.405592	0.000557	5.573162	1.888239	-0.000223
 756	7.5123e+01	9.9158	95.127029	0.000699	6.991786	2.368881	-0.000280
 757	7.5222e+01	9.8676	94.909024	0.000547	5.471832	1.853907	-0.000219
 758	7.5322e+01	9.8356	94.650647	0.000649	6.485134	2.197223	-0.000260
 759	7.5421e+01	9.7970	94.420531	0.000578	5.775823	1.956902	-0.000231
 760	7.5520e+01	9.7457	94.162154	0.000649	6.485134	2.197223	-0.000260
 761	7.5620e+01	9.7136	93.932037	0.000578	5.775823	1.956902	-0.000231
 762	7.5719e+01	9.6703	93.653475	0.000699	6.991786	2.368881	-0.000280
 763	7.5819e+01	9.6318	93.487952	0.000415	4.154539	1.407596	-0.000166
 764	7.5918e+01	9.5917	93.152870	0.000841	8.410409	2.849524	-0.000337
 765	7.6018e+01	9.5564	92.934865	0.000547	5.471832	1.853907	-0.000219
 766	7.6118e+01	9.5243	92.692637	0.000608	6.079814	2.059897	-0.000243
 767	7.6217e+01	9.4650	92.414074	0.000699	6.991786	2.368881	-0.000280
 768	7.6317e+01	9.4377	92.187995	0.000567	5.674493	1.922570	-0.000227
 769	7.6416e+01	9.3992	91.929618	0.000649	6.485134	2.197223	-0.000260
 770	7.6516e+01	9.3495	91.687390	0.000608	6.079814	2.059897	-0.000243
 771	7.6615e+01	9.3174	91.433050	0.000638	6.383804	2.162891	-0.000256
 772	7.6715e+01	9.2789	91.202933	0.000578	5.775823	1.956902	-0.000231
 773	7.6814e+01	9.2308	90.952631	0.000628	6.282474	2.128560	-0.000252
 774	7.6913e+01	9.1971	90.714440	0.000598	5.978483	2.025565	-0.000239
 775	7.7013e+01	9.1602	90.468175	0.000618	6.181144	2.094228	-0.000248
 776	7.7112e+01	9.1249	90.229984	0.000598	5.978483	2.025565	-0.000239
 777	7.7212e+01	9.0832	89.967570	0.000659	6.586465	2.231555	-0.000264
 778	7.7311e+01	9.0495	89.717268	0.000628	6.282474	2.128560	-0.000252
 779	7.7411e+01	8.9997	89.503299	0.000537	5.370502	1.819575	-0.000215
 780	7.7510e+01	8.9693	89.212626	0.000730	7.295776	2.471876	-0.000292
 781	7.7610e+01	8.9179	88.942137	0.000679	6.789125	2.300218	-0.000272
 782	7.7710e+01	8.8746	88.724132	0.000547	5.471832	1.853907	-0.000219
 783	7.7809e+01	8.8329	88.485941	0.000598	5.978483	2.025565	-0.000239
 784	7.7909e+01	8.8056	88.195267	0.000730	7.295776	2.471876	-0.000292
 785	7.8008e+01	8.7511	87.977262	0.000547	5.471832	1.853907	-0.000219
 786	7.8108e+01	8.7270	87.690625	0.000719	7.194446	2.437544	-0.000288
 787	7.8207e+01	8.6773	87.448397	0.000608	6.079814	2.059897	-0.000243
 788	7.8306e+01	8.6452	87.185983	0.000659	6.586465	2.231555	-0.000264
 789	7.8406e+01	8.5987	86.959904	0.000567	5.674493	1.922570	-0.000227
 790	7.8505e+01	8.5618	86.697490	0.000659	6.586465	2.231555	-0.000264
 791	7.8605e+01	8.5265	86.406816	0.000730	7.295776	2.471876	-0.000292
 792	7.8704e+01	8.4832	86.192848	0.000537	5.370502	1.819575	-0.000215
 793	7.8804e+01	8.4367	85.894100	0.000750	7.498437	2.540539	-0.000300
 794	7.8903e+01	8.4110	85.696280	0.000497	4.965181	1.682249	-0.000199
 795	7.9003e+01	8.3661	85.437904	0.000649	6.485134	2.197223	-0.000260
 796	7.9103e+01	8.3147	85.171453	0.000669	6.687795	2.265886	-0.000268
 797	7.9202e+01	8.2827	84.884816	0.000719	7.194446	2.437544	-0.000288
 798	7.9302e+01	8.2425	84.662774	0.000557	5.573162	1.888239	-0.000223
 799	7.9401e+01	8.1976	84.400360	0.000659	6.586465	2.231555	-0.000264
 800	7.9501e+01	8.1575	84.146020	0.000638	6.383804	2.162891	-0.000256
 801	7.9600e+01	8.1174	83.911866	0.000588	5.877153	1.991233	-0.000235
 802	7.9700e+01	8.0741	83.584858	0.000821	8.207748	2.780860	-0.000329
 803	7.9799e+01	8.0356	83.366853	0.000547	5.471832	1.853907	-0.000219
 804	7.9898e+01	8.0051	83.064068	0.000760	7.599767	2.574871	-0.000304
 805	7.9998e+01	7.9586	82.862211	0.000507	5.066511	1.716581	-0.000203
 806	8.0097e+01	7.9185	82.587686	0.000689	6.890455	2.334549	-0.000276
 807	8.0197e+01	7.8784	82.373718	0.000537	5.370502	1.819575	-0.000215
 808	8.0296e+01	7.8431	82.034598	0.000851	8.511739	2.883855	-0.000341
 809	8.0396e+01	7.7998	81.780259	0.000638	6.383804	2.162891	-0.000256
 810	8.0496e+01	7.7677	81.562253	0.000547	5.471832	1.853907	-0.000219
 811	8.0595e+01	7.7340	81.299839	0.000659	6.586465	2.231555	-0.000264
 812	8.0695e+01	7.6779	81.013203	0.000719	7.194446	2.437544	-0.000288
 813	8.0794e+01	7.6490	80.783086	0.000578	5.775823	1.956902	-0.000231
 814	8.0894e+01	7.6105	80.496449	0.000719	7.194446	2.437544	-0.000288
 815	8.0993e+01	7.5527	80.229999	0.000669	6.687795	2.265886	-0.000268
 816	8.1093e+01	7.5287	79.971622	0.000649	6.485134	2.197223	-0.000260
 817	8.1192e+01	7.4821	79.725357	0.000618	6.181144	2.094228	-0.000248
 818	8.1291e+01	7.4485	79.442757	0.000709	7.093116	2.403213	-0.000284
 819	8.1391e+01	7.4019	79.200529	0.000608	6.079814	2.059897	-0.000243
 820	8.1490e+01	7.3650	78.913892	0.000719	7.194446	2.437544	-0.000288
 821	8.1590e+01	7.3233	78.663590	0.000628	6.282474	2.128560	-0.000252
 822	8.1689e+01	7.2912	78.437510	0.000567	5.674493	1.922570	-0.000227
 823	8.1789e+01	7.2479	78.134725	0.000760	7.599767	2.574871	-0.000304
 824	8.1888e+01	7.1982	77.880386	0.000638	6.383804	2.162891	-0.000256
 825	8.1988e+01	7.1629	77.613935	0.000669	6.687795	2.265886	-0.000268
 826	8.2088e+01	7.1244	77.315187	0.000750	7.498437	2.540539	-0.000300
 827	8.2187e+01	7.0795	77.097181	0.000547	5.471832	1.853907	-0.000219
 828	8.2287e+01	7.0490	76.802470	0.000740	7.397107	2.506208	-0.000296
 829	8.2386e+01	6.9993	76.576391	0.000567	5.674493	1.922570	-0.000227
 830	8.2486e+01	6.9688	76.313977	0.000659	6.586465	2.231555	-0.000264
 831	8.2585e+01	6.9207	76.055600	0.000649	6.485134	2.197223	-0.000260
 832	8.2684e+01	6.8902	75.764926	0.000730	7.295776	2.471876	-0.000292
 833	8.2784e+01	6.8421	75.526735	0.000598	5.978483	2.025565	-0.000239
 834	8.2883e+01	6.8036	75.244136	0.000709	7.093116	2.403213	-0.000284
 835	8.2983e+01	6.7683	74.989796	0.000638	6.383804	2.162891	-0.000256
 836	8.3082e+01	6.7233	74.735457	0.000638	6.383804	2.162891	-0.000256
 837	8.3182e+01	6.6848	74.477080	0.000649	6.485134	2.197223	-0.000260
 838	8.3281e+01	6.6544	74.198518	0.000699	6.991786	2.368881	-0.000280
 839	8.3381e+01	6.6046	73.903807	0.000740	7.397107	2.506208	-0.000296
 840	8.3481e+01	6.5629	73.677727	0.000567	5.674493	1.922570	-0.000227
 841	8.3580e+01	6.5292	73.423388	0.000638	6.383804	2.162891	-0.000256
 842	8.3680e+01	6.4907	73.120602	0.000760	7.599767	2.574871	-0.000304
 843	8.3779e+01	6.4506	72.866263	0.000638	6.383804	2.162891	-0.000256
 844	8.3879e+01	6.4137	72.587701	0.000699	6.991786	2.368881	-0.000280
 845	8.3978e+01	6.3704	72.337398	0.000628	6.282474	2.128560	-0.000252
 846	8.4078e+01	6.3303	72.062873	0.000689	6.890455	2.334549	-0.000276
 847	8.4177e+01	6.2870	71.812571	0.000628	6.282474	2.128560	-0.000252
 848	8.4276e+01	6.2517	71.574379	0.000598	5.978483	2.025565	-0.000239
 849	8.4376e+01	6.2084	71.239297	0.000841	8.410409	2.849524	-0.000337
 850	8.4475e+01	6.1779	70.932475	0.000770	7.701097	2.609202	-0.000308
 851	8.4575e+01	6.1266	70.734655	0.000497	4.965181	1.682249	-0.000199
 852	8.4674e+01	6.0977	70.452056	0.000709	7.093116	2.403213	-0.000284
 853	8.4774e+01	6.0415	70.181568	0.000679	6.789125	2.300218	-0.000272
 854	8.4874e+01	6.0111	69.878782	0.000760	7.599767	2.574871	-0.000304
 855	8.4973e+01	5.9677	69.592146	0.000719	7.194446	2.437544	-0.000288
 856	8.5073e+01	5.9341	69.309546	0.000709	7.093116	2.403213	-0.000284
 857	8.5172e+01	5.9004	69.091541	0.000547	5.471832	1.853907	-0.000219
 858	8.5272e+01	5.8490	68.804904	0.000719	7.194446	2.437544	-0.000288
 859	8.5371e+01	5.8121	68.558639	0.000618	6.181144	2.094228	-0.000248
 860	8.5471e+01	5.7720	68.276040	0.000709	7.093116	2.403213	-0.000284
 861	8.5570e+01	5.7319	67.977292	0.000750	7.498437	2.540539	-0.000300
 862	8.5669e+01	5.6934	67.731026	0.000618	6.181144	2.094228	-0.000248
 863	8.5769e+01	5.6549	67.440353	0.000730	7.295776	2.471876	-0.000292
 864	8.5868e+01	5.6084	67.206199	0.000588	5.877153	1.991233	-0.000235
 865	8.5968e+01	5.5779	66.935711	0.000679	6.789125	2.300218	-0.000272
 866	8.6067e+01	5.5314	66.653111	0.000709	7.093116	2.403213	-0.000284
 867	8.6167e+01	5.4945	66.378586	0.000689	6.890455	2.334549	-0.000276
 868	8.6266e+01	5.4608	66.104061	0.000689	6.890455	2.334549	-0.000276
 869	8.6366e+01	5.4063	65.829535	0.000689	6.890455	2.334549	-0.000276
 870	8.6466e+01	5.3742	65.587307	0.000608	6.079814	2.059897	-0.000243
 871	8.6565e+01	5.3293	65.304708	0.000709	7.093116	2.403213	-0.000284
 872	8.6665e+01	5.3020	65.034220	0.000679	6.789125	2.300218	-0.000272
 873	8.6764e+01	5.2587	64.755657	0.000699	6.991786	2.368881	-0.000280
 874	8.6864e+01	5.2202	64.485169	0.000679	6.789125	2.300218	-0.000272
 875	8.6963e+01	5.1849	64.214681	0.000679	6.789125	2.300218	-0.000272
 876	8.7063e+01	5.1319	63.956304	0.000649	6.485134	2.197223	-0.000260
 877	8.7162e+01	5.0902	63.641408	0.000790	7.903758	2.677866	-0.000316
 878	8.7261e+01	5.0549	63.411291	0.000578	5.775823	1.956902	-0.000231
 879	8.7361e+01	5.0148	63.148877	0.000659	6.586465	2.231555	-0.000264
 880	8.7460e+01	4.9795	62.850129	0.000750	7.498437	2.540539	-0.000300
 881	8.7560e+01	4.9378	62.595790	0.000638	6.383804	2.162891	-0.000256
 882	8.7659e+01	4.8945	62.301079	0.000740	7.397107	2.506208	-0.000296
 883	8.7759e+01	4.8576	62.026553	0.000689	6.890455	2.334549	-0.000276
 884	8.7859e+01	4.8191	61.788362	0.000598	5.978483	2.025565	-0.000239
 885	8.7958e+01	4.7678	61.497689	0.000730	7.295776	2.471876	-0.000292
 886	8.8058e+01	4.7309	61.239312	0.000649	6.485134	2.197223	-0.000260
 887	8.8157e+01	4.6940	60.940564	0.000750	7.498437	2.540539	-0.000300
 888	8.8257e+01	4.6523	60.674113	0.000669	6.687795	2.265886	-0.000268
 889	8.8356e+01	4.6186	60.383439	0.000730	7.295776	2.471876	-0.000292
 890	8.8456e+01	4.5785	60.104877	0.000699	6.991786	2.368881	-0.000280
 891	8.8555e+01	4.5336	59.858612	0.000618	6.181144	2.094228	-0.000248
 892	8.8654e+01	4.4935	59.624458	0.000588	5.877153	1.991233	-0.000235
 893	8.8754e+01	4.4630	59.325710	0.000750	7.498437	2.540539	-0.000300
 894	8.8853e+01	4.4116	59.055222	0.000679	6.789125	2.300218	-0.000272
 895	8.8953e+01	4.3715	58.768585	0.000719	7.194446	2.437544	-0.000288
 896	8.9052e+01	4.3475	58.522320	0.000618	6.181144	2.094228	-0.000248
 897	8.9152e+01	4.2977	58.211460	0.000780	7.802427	2.643534	-0.000312
 898	8.9251e+01	4.2560	57.973269	0.000598	5.978483	2.025565	-0.000239
 899	8.9351e+01	4.2223	57.686633	0.000719	7.194446	2.437544	-0.000288
 900	8.9451e+01	4.1774	57.420182	0.000669	6.687795	2.265886	-0.000268
 901	8.9550e+01	4.1437	57.149694	0.000679	6.789125	2.300218	-0.000272
 902	8.9650e+01	4.1004	56.891317	0.000649	6.485134	2.197223	-0.000260
 903	8.9749e+01	4.0555	56.628903	0.000659	6.586465	2.231555	-0.000264
 904	8.9849e+01	4.0090	56.293821	0.000841	8.410409	2.849524	-0.000337
 905	8.9948e+01	3.9785	56.051593	0.000608	6.079814	2.059897	-0.000243
 906	9.0047e+01	3.9400	55.760919	0.000730	7.295776	2.471876	-0.000292
 907	9.0147e+01	3.9047	55.502542	0.000649	6.485134	2.197223	-0.000260
 908	9.0246e+01	3.8550	55.240128	0.000659	6.586465	2.231555	-0.000264
 909	9.0346e+01	3.8181	54.989826	0.000628	6.282474	2.128560	-0.000252
 910	9.0445e+01	3.7716	54.723375	0.000669	6.687795	2.265886	-0.000268
 911	9.0545e+01	3.7459	54.408478	0.000790	7.903758	2.677866	-0.000316
 912	9.0644e+01	3.7042	54.137990	0.000679	6.789125	2.300218	-0.000272
 913	9.0744e+01	3.6560	53.867502	0.000679	6.789125	2.300218	-0.000272
 914	9.0844e+01	3.6175	53.625274	0.000608	6.079814	2.059897	-0.000243
 915	9.0943e+01	3.5774	53.318452	0.000770	7.701097	2.609202	-0.000308
 916	9.1043e+01	3.5518	53.052001	0.000669	6.687795	2.265886	-0.000268
 917	9.1142e+01	3.4940	52.805735	0.000618	6.181144	2.094228	-0.000248
 918	9.1242e+01	3.4635	52.535247	0.000679	6.789125	2.300218	-0.000272
 919	9.1341e+01	3.4186	52.224388	0.000780	7.802427	2.643534	-0.000312
 920	9.1441e+01	3.3817	51.921603	0.000760	7.599767	2.574871	-0.000304
 921	9.1540e+01	3.3352	51.647077	0.000689	6.890455	2.334549	-0.000276
 922	9.1639e+01	3.3127	51.384664	0.000659	6.586465	2.231555	-0.000264
 923	9.1739e+01	3.2598	51.114176	0.000679	6.789125	2.300218	-0.000272
 924	9.1838e+01	3.2149	50.871947	0.000608	6.079814	2.059897	-0.000243
 925	9.1938e+01	3.1828	50.585311	0.000719	7.194446	2.437544	-0.000288
 926	9.2037e+01	3.1443	50.294637	0.000730	7.295776	2.471876	-0.000292
 927	9.2137e+01	3.1074	50.028186	0.000669	6.687795	2.265886	-0.000268
 928	9.2237e+01	3.0673	49.781921	0.000618	6.181144	2.094228	-0.000248
 929	9.2336e+01	3.0256	49.467024	0.000790	7.903758	2.677866	-0.000316
 930	9.2436e+01	2.9823	49.212685	0.000638	6.383804	2.162891	-0.000256
 931	9.2535e+01	2.9438	48.974494	0.000598	5.978483	2.025565	-0.000239
 932	9.2635e+01	2.9085	48.675746	0.000750	7.498437	2.540539	-0.000300
 933	9.2734e+01	2.8620	48.389109	0.000719	7.194446	2.437544	-0.000288
 934	9.2834e+01	2.8267	48.086324	0.000760	7.599767	2.574871	-0.000304
 935	9.2933e+01	2.7833	47.840058	0.000618	6.181144	2.094228	-0.000248
 936	9.3032e+01	2.7481	47.581682	0.000649	6.485134	2.197223	-0.000260
 937	9.3132e+01	2.6999	47.315231	0.000669	6.687795	2.265886	-0.000268
 938	9.3231e+01	2.6646	47.004371	0.000780	7.802427	2.643534	-0.000312
 939	9.3331e+01	2.6261	46.754069	0.000628	6.282474	2.128560	-0.000252
 940	9.3430e+01	2.5876	46.491655	0.000659	6.586465	2.231555	-0.000264
 941	9.3530e+01	2.5427	46.196944	0.000740	7.397107	2.506208	-0.000296
 942	9.3629e+01	2.5074	45.902233	0.000740	7.397107	2.506208	-0.000296
 943	9.3729e+01	2.4673	45.631745	0.000679	6.789125	2.300218	-0.000272
 944	9.3829e+01	2.4320	45.381443	0.000628	6.282474	2.128560	-0.000252
 945	9.3928e+01	2.3743	45.106918	0.000689	6.890455	2.334549	-0.000276
 946	9.4028e+01	2.3518	44.820281	0.000719	7.194446	2.437544	-0.000288
 947	9.4127e+01	2.3069	44.529607	0.000730	7.295776	2.471876	-0.000292
 948	9.4227e+01	2.2636	44.283342	0.000618	6.181144	2.094228	-0.000248
 949	9.4326e+01	2.2187	43.988631	0.000740	7.397107	2.506208	-0.000296
 950	9.4425e+01	2.1834	43.714106	0.000689	6.890455	2.334549	-0.000276
 951	9.4525e+01	2.1368	43.407283	0.000770	7.701097	2.609202	-0.000308
 952	9.4624e+01	2.0919	43.116610	0.000730	7.295776	2.471876	-0.000292
 953	9.4724e+01	2.0679	42.898604	0.000547	5.471832	1.853907	-0.000219
 954	9.4823e+01	2.0213	42.575633	0.000811	8.106418	2.746529	-0.000325
 955	9.4923e+01	1.9844	42.321294	0.000638	6.383804	2.162891	-0.000256
 956	9.5022e+01	1.9427	42.026583	0.000740	7.397107	2.506208	-0.000296
 957	9.5122e+01	1.9042	41.768206	0.000649	6.485134	2.197223	-0.000260
 958	9.5222e+01	1.8705	41.445235	0.000811	8.106418	2.746529	-0.000325
 959	9.5321e+01	1.8272	41.186859	0.000649	6.485134	2.197223	-0.000260
 960	9.5421e+01	1.7871	40.940594	0.000618	6.181144	2.094228	-0.000248
 961	9.5520e+01	1.7438	40.670105	0.000679	6.789125	2.300218	-0.000272
 962	9.5620e+01	1.7117	40.355209	0.000790	7.903758	2.677866	-0.000316
 963	9.5719e+01	1.6652	40.068572	0.000719	7.194446	2.437544	-0.000288
 964	9.5819e+01	1.6219	39.790010	0.000699	6.991786	2.368881	-0.000280
 965	9.5918e+01	1.5882	39.527596	0.000659	6.586465	2.231555	-0.000264
 966	9.6017e+01	1.5433	39.236922	0.000730	7.295776	2.471876	-0.000292
 967	9.6117e+01	1.5112	38.942211	0.000740	7.397107	2.506208	-0.000296
 968	9.6216e+01	1.4711	38.699983	0.000608	6.079814	2.059897	-0.000243
 969	9.6316e+01	1.4197	38.377012	0.000811	8.106418	2.746529	-0.000325
 970	9.6415e+01	1.3941	38.078264	0.000750	7.498437	2.540539	-0.000300
 971	9.6515e+01	1.3427	37.864296	0.000537	5.370502	1.819575	-0.000215
 972	9.6615e+01	1.3074	37.557474	0.000770	7.701097	2.609202	-0.000308
 973	9.6714e+01	1.2722	37.299097	0.000649	6.485134	2.197223	-0.000260
 974	9.6814e+01	1.2288	37.000349	0.000750	7.498437	2.540539	-0.000300
 975	9.6913e+01	1.1968	36.725824	0.000689	6.890455	2.334549	-0.000276
 976	9.7013e+01	1.1454	36.414964	0.000780	7.802427	2.643534	-0.000312
 977	9.7112e+01	1.1101	36.152551	0.000659	6.586465	2.231555	-0.000264
 978	9.7212e+01	1.0668	35.845728	0.000770	7.701097	2.609202	-0.000308
 979	9.7311e+01	1.0315	35.583314	0.000659	6.586465	2.231555	-0.000264
 980	9.7410e+01	1.0010	35.316863	0.000669	6.687795	2.265886	-0.000268
 981	9.7510e+01	0.9497	35.026190	0.000730	7.295776	2.471876	-0.000292
 982	9.7609e+01	0.9048	34.723404	0.000760	7.599767	2.574871	-0.000304
 983	9.7709e+01	0.8711	34.452916	0.000679	6.789125	2.300218	-0.000272
 984	9.7808e+01	0.8374	34.182428	0.000679	6.789125	2.300218	-0.000272
 985	9.7908e+01	0.7893	33.875606	0.000770	7.701097	2.609202	-0.000308
 986	9.8007e+01	0.7492	33.609155	0.000669	6.687795	2.265886	-0.000268
 987	9.8107e+01	0.7091	33.314444	0.000740	7.397107	2.506208	-0.000296
 988	9.8207e+01	0.6722	33.039919	0.000689	6.890455	2.334549	-0.000276
 989	9.8306e+01	0.6369	32.761357	0.000699	6.991786	2.368881	-0.000280
 990	9.8406e+01	0.5968	32.470683	0.000730	7.295776	2.471876	-0.000292
 991	9.8505e+01	0.5503	32.175972	0.000740	7.397107	2.506208	-0.000296
 992	9.8605e+01	0.5118	31.941818	0.000588	5.877153	1.991233	-0.000235
 993	9.8704e+01	0.4781	31.634996	0.000770	7.701097	2.609202	-0.000308
 994	9.8803e+01	0.4364	31.340285	0.000740	7.397107	2.506208	-0.000296
 995	9.8903e+01	0.3866	31.041537	0.000750	7.498437	2.540539	-0.000300
 996	9.9002e+01	0.3561	30.754900	0.000719	7.194446	2.437544	-0.000288
 997	9.9102e+01	0.3112	30.528820	0.000567	5.674493	1.922570	-0.000227
 998	9.9201e+01	0.2759	30.213924	0.000790	7.903758	2.677866	-0.000316
 999	9.9301e+01	0.2310	29.927287	0.000719	7.194446	2.437544	-0.000288
1000	9.9400e+01	0.1893	29.644688	0.000709	7.093116	2.403213	-0.000284
1001	9.9500e+01	0.1604	29.390348	0.000638	6.383804	2.162891	-0.000256
1002	9.9600e+01	0.1219	29.095637	0.000740	7.397107	2.506208	-0.000296
1003	9.9699e+01	0.0626	28.829186	0.000669	6.687795	2.265886	-0.000268
1004	9.9799e+01	0.0273	28.522364	0.000770	7.701097	2.609202	-0.000308
1005	9.9898e+01	0.0080	28.304359	0.000547	5.471832	1.853907	-0.000219
1006	9.9998e+01	-0.0417	27.997536	0.000770	7.701097	2.609202	-0.000308
1007	1.0010e+02	-0.0770	27.735123	0.000659	6.586465	2.231555	-0.000264
1008	1.0020e+02	-0.1219	27.404077	0.000831	8.309079	2.815192	-0.000333
1009	1.0030e+02	-0.1556	27.133589	0.000679	6.789125	2.300218	-0.000272
1010	1.0040e+02	-0.2037	26.850990	0.000709	7.093116	2.403213	-0.000284
1011	1.0050e+02	-0.2278	26.612799	0.000598	5.978483	2.025565	-0.000239
1012	1.0059e+02	-0.2888	26.257531	0.000892	8.917060	3.021182	-0.000357
1013	1.0069e+02	-0.3160	26.031451	0.000567	5.674493	1.922570	-0.000227
1014	1.0079e+02	-0.3593	25.708480	0.000811	8.106418	2.746529	-0.000325
1015	1.0089e+02	-0.3946	25.417807	0.000730	7.295776	2.471876	-0.000292
1016	1.0099e+02	-0.4299	25.127133	0.000730	7.295776	2.471876	-0.000292
1017	1.0109e+02	-0.4781	24.840496	0.000719	7.194446	2.437544	-0.000288
1018	1.0119e+02	-0.5214	24.570008	0.000679	6.789125	2.300218	-0.000272
1019	1.0129e+02	-0.5663	24.303557	0.000669	6.687795	2.265886	-0.000268
1020	1.0139e+02	-0.5888	23.992698	0.000780	7.802427	2.643534	-0.000312
1021	1.0149e+02	-0.6289	23.734321	0.000649	6.485134	2.197223	-0.000260
1022	1.0159e+02	-0.6706	23.427499	0.000770	7.701097	2.609202	-0.000308
1023	1.0169e+02	-0.7187	23.136825	0.000730	7.295776	2.471876	-0.000292
1024	1.0179e+02	-0.7476	22.874411	0.000659	6.586465	2.231555	-0.000264
1025	1.0189e+02	-0.7925	22.559515	0.000790	7.903758	2.677866	-0.000316
1026	1.0199e+02	-0.8326	22.280952	0.000699	6.991786	2.368881	-0.000280
1027	1.0209e+02	-0.8711	22.026613	0.000638	6.383804	2.162891	-0.000256
1028	1.0219e+02	-0.9192	21.748050	0.000699	6.991786	2.368881	-0.000280
1029	1.0229e+02	-0.9561	21.433154	0.000790	7.903758	2.677866	-0.000316
1030	1.0239e+02	-0.9834	21.154591	0.000699	6.991786	2.368881	-0.000280
1031	1.0248e+02	-1.0379	20.835658	0.000801	8.005088	2.712197	-0.000321
1032	1.0258e+02	-1.0716	20.609578	0.000567	5.674493	1.922570	-0.000227
1033	1.0268e+02	-1.1230	20.286607	0.000811	8.106418	2.746529	-0.000325
1034	1.0278e+02	-1.1534	19.999970	0.000719	7.194446	2.437544	-0.000288
1035	1.0288e+02	-1.1952	19.709297	0.000730	7.295776	2.471876	-0.000292
1036	1.0298e+02	-1.2304	19.438809	0.000679	6.789125	2.300218	-0.000272
1037	1.0308e+02	-1.2754	19.164283	0.000689	6.890455	2.334549	-0.000276
1038	1.0318e+02	-1.3171	18.897832	0.000669	6.687795	2.265886	-0.000268
1039	1.0328e+02	-1.3476	18.586973	0.000780	7.802427	2.643534	-0.000312
1040	1.0338e+02	-1.4101	18.320522	0.000669	6.687795	2.265886	-0.000268
1041	1.0348e+02	-1.4406	18.054071	0.000669	6.687795	2.265886	-0.000268
1042	1.0358e+02	-1.4823	17.731100	0.000811	8.106418	2.746529	-0.000325
1043	1.0368e+02	-1.5112	17.464649	0.000669	6.687795	2.265886	-0.000268
1044	1.0378e+02	-1.5481	17.202235	0.000659	6.586465	2.231555	-0.000264
1045	1.0388e+02	-1.5930	16.871190	0.000831	8.309079	2.815192	-0.000333
1046	1.0398e+02	-1.6299	16.608776	0.000659	6.586465	2.231555	-0.000264
1047	1.0408e+02	-1.6780	16.330214	0.000699	6.991786	2.368881	-0.000280
1048	1.0418e+02	-1.7133	16.075875	0.000638	6.383804	2.162891	-0.000256
1049	1.0428e+02	-1.7518	15.793275	0.000709	7.093116	2.403213	-0.000284
1050	1.0438e+02	-1.7919	15.498564	0.000740	7.397107	2.506208	-0.000296
1051	1.0447e+02	-1.8368	15.220002	0.000699	6.991786	2.368881	-0.000280
1052	1.0457e+02	-1.8737	14.929328	0.000730	7.295776	2.471876	-0.000292
1053	1.0467e+02	-1.9187	14.654803	0.000689	6.890455	2.334549	-0.000276
1054	1.0477e+02	-1.9540	14.400463	0.000638	6.383804	2.162891	-0.000256
1055	1.0487e+02	-1.9989	14.089604	0.000780	7.802427	2.643534	-0.000312
1056	1.0497e+02	-2.0422	13.815078	0.000689	6.890455	2.334549	-0.000276
1057	1.0507e+02	-2.0679	13.552665	0.000659	6.586465	2.231555	-0.000264
1058	1.0517e+02	-2.0999	13.294288	0.000649	6.485134	2.197223	-0.000260
1059	1.0527e+02	-2.1545	12.959206	0.000841	8.410409	2.849524	-0.000337
1060	1.0537e+02	-2.1802	12.696792	0.000659	6.586465	2.231555	-0.000264
1061	1.0547e+02	-2.2315	12.357672	0.000851	8.511739	2.883855	-0.000341
1062	1.0557e+02	-2.2700	12.127556	0.000578	5.775823	1.956902	-0.000231
1063	1.0567e+02	-2.3133	11.869179	0.000649	6.485134	2.197223	-0.000260
1064	1.0577e+02	-2.3534	11.590617	0.000699	6.991786	2.368881	-0.000280
1065	1.0587e+02	-2.3983	11.303980	0.000719	7.194446	2.437544	-0.000288
1066	1.0597e+02	-2.4304	11.025418	0.000699	6.991786	2.368881	-0.000280
1067	1.0607e+02	-2.4641	10.775115	0.000628	6.282474	2.128560	-0.000252
1068	1.0617e+02	-2.5170	10.476367	0.000750	7.498437	2.540539	-0.000300
1069	1.0627e+02	-2.5443	10.181656	0.000740	7.397107	2.506208	-0.000296
1070	1.0637e+02	-2.5876	9.903094	0.000699	6.991786	2.368881	-0.000280
1071	1.0647e+02	-2.6229	9.628569	0.000689	6.890455	2.334549	-0.000276
1072	1.0656e+02	-2.6662	9.366155	0.000659	6.586465	2.231555	-0.000264
1073	1.0666e+02	-2.7112	9.063370	0.000760	7.599767	2.574871	-0.000304
1074	1.0676e+02	-2.7416	8.784807	0.000699	6.991786	2.368881	-0.000280
1075	1.0686e+02	-2.7946	8.538542	0.000618	6.181144	2.094228	-0.000248
1076	1.0696e+02	-2.8234	8.235757	0.000760	7.599767	2.574871	-0.000304
1077	1.0706e+02	-2.8716	7.937009	0.000750	7.498437	2.540539	-0.000300
1078	1.0716e+02	-2.9069	7.670558	0.000669	6.687795	2.265886	-0.000268
1079	1.0726e+02	-2.9534	7.424293	0.000618	6.181144	2.094228	-0.000248
1080	1.0736e+02	-2.9887	7.125545	0.000750	7.498437	2.540539	-0.000300
1081	1.0746e+02	-3.0304	6.855056	0.000679	6.789125	2.300218	-0.000272
1082	1.0756e+02	-3.0753	6.616865	0.000598	5.978483	2.025565	-0.000239
1083	1.0766e+02	-3.1122	6.314080	0.000760	7.599767	2.574871	-0.000304
1084	1.0776e+02	-3.1443	6.027444	0.000719	7.194446	2.437544	-0.000288
1085	1.0786e+02	-3.1780	5.756956	0.000679	6.789125	2.300218	-0.000272
1086	1.0796e+02	-3.2229	5.462245	0.000740	7.397107	2.506208	-0.000296
1087	1.0806e+02	-3.2630	5.167534	0.000740	7.397107	2.506208	-0.000296
1088	1.0816e+02	-3.3031	4.929343	0.000598	5.978483	2.025565	-0.000239
1089	1.0826e+02	-3.3577	4.662892	0.000669	6.687795	2.265886	-0.000268
1090	1.0836e+02	-3.3881	4.404515	0.000649	6.485134	2.197223	-0.000260
1091	1.0845e+02	-3.4186	4.109804	0.000740	7.397107	2.506208	-0.000296
1092	1.0855e+02	-3.4651	3.847390	0.000659	6.586465	2.231555	-0.000264
1093	1.0865e+02	-3.5085	3.564791	0.000709	7.093116	2.403213	-0.000284
1094	1.0875e+02	-3.5518	3.262006	0.000760	7.599767	2.574871	-0.000304
1095	1.0885e+02	-3.5758	2.983443	0.000699	6.991786	2.368881	-0.000280
1096	1.0895e+02	-3.6224	2.725067	0.000649	6.485134	2.197223	-0.000260
1097	1.0905e+02	-3.6625	2.454579	0.000679	6.789125	2.300218	-0.000272
1098	1.0915e+02	-3.7074	2.176016	0.000699	6.991786	2.368881	-0.000280
1099	1.0925e+02	-3.7491	1.905528	0.000679	6.789125	2.300218	-0.000272
1100	1.0935e+02	-3.7828	1.631003	0.000689	6.890455	2.334549	-0.000276
1101	1.0945e+02	-3.8229	1.328218	0.000760	7.599767	2.574871	-0.000304
1102	1.0955e+02	-3.8598	1.102138	0.000567	5.674493	1.922570	-0.000227
1103	1.0965e+02	-3.9031	0.827613	0.000689	6.890455	2.334549	-0.000276
1104	1.0975e+02	-3.9464	0.540976	0.000719	7.194446	2.437544	-0.000288
1105	1.0985e+02	-3.9785	0.258377	0.000709	7.093116	2.403213	-0.000284
1106	1.0995e+02	-4.0330	-0.004037	0.000659	6.586465	2.231555	-0.000264
1107	1.1005e+02	-4.0635	-0.246265	0.000608	6.079814	2.059897	-0.000243
1108	1.1015e+02	-4.1068	-0.565199	0.000801	8.005088	2.712197	-0.000321
1109	1.1025e+02	-4.1309	-0.831650	0.000669	6.687795	2.265886	-0.000268
1110	1.1035e+02	-4.1903	-1.106175	0.000689	6.890455	2.334549	-0.000276
1111	1.1044e+02	-4.2207	-1.352440	0.000618	6.181144	2.094228	-0.000248
1112	1.1054e+02	-4.2592	-1.618891	0.000669	6.687795	2.265886	-0.000268
1113	1.1064e+02	-4.3026	-1.909565	0.000730	7.295776	2.471876	-0.000292
1114	1.1074e+02	-4.3411	-2.159868	0.000628	6.282474	2.128560	-0.000252
1115	1.1084e+02	-4.3796	-2.434393	0.000689	6.890455	2.334549	-0.000276
1116	1.1094e+02	-4.4245	-2.729104	0.000740	7.397107	2.506208	-0.000296
1117	1.1104e+02	-4.4614	-2.959220	0.000578	5.775823	1.956902	-0.000231
1118	1.1114e+02	-4.4999	-3.257969	0.000750	7.498437	2.540539	-0.000300
1119	1.1124e+02	-4.5464	-3.568828	0.000780	7.802427	2.643534	-0.000312
1120	1.1134e+02	-4.5849	-3.798945	0.000578	5.775823	1.956902	-0.000231
1121	1.1144e+02	-4.6138	-4.049247	0.000628	6.282474	2.128560	-0.000252
1122	1.1154e+02	-4.6587	-4.356069	0.000770	7.701097	2.609202	-0.000308
1123	1.1164e+02	-4.7004	-4.614446	0.000649	6.485134	2.197223	-0.000260
1124	1.1174e+02	-4.7389	-4.824377	0.000527	5.269172	1.785244	-0.000211
1125	1.1184e+02	-4.7838	-5.143311	0.000801	8.005088	2.712197	-0.000321
1126	1.1194e+02	-4.8207	-5.405725	0.000659	6.586465	2.231555	-0.000264
1127	1.1204e+02	-4.8576	-5.724658	0.000801	8.005088	2.712197	-0.000321
1128	1.1214e+02	-4.9025	-6.003221	0.000699	6.991786	2.368881	-0.000280
1129	1.1224e+02	-4.9410	-6.245449	0.000608	6.079814	2.059897	-0.000243
1130	1.1234e+02	-4.9876	-6.507863	0.000659	6.586465	2.231555	-0.000264
1131	1.1244e+02	-5.0212	-6.830834	0.000811	8.106418	2.746529	-0.000325
1132	1.1253e+02	-5.0630	-7.081136	0.000628	6.282474	2.128560	-0.000252
1133	1.1263e+02	-5.0950	-7.379884	0.000750	7.498437	2.540539	-0.000300
1134	1.1273e+02	-5.1416	-7.614038	0.000588	5.877153	1.991233	-0.000235
1135	1.1283e+02	-5.1801	-7.868378	0.000638	6.383804	2.162891	-0.000256
1136	1.1293e+02	-5.2202	-8.146940	0.000699	6.991786	2.368881	-0.000280
1137	1.1303e+02	-5.2603	-8.393205	0.000618	6.181144	2.094228	-0.000248
1138	1.1313e+02	-5.3020	-8.712139	0.000801	8.005088	2.712197	-0.000321
1139	1.1323e+02	-5.3357	-8.966478	0.000638	6.383804	2.162891	-0.000256
1140	1.1333e+02	-5.3902	-9.236967	0.000679	6.789125	2.300218	-0.000272
1141	1.1343e+02	-5.4159	-9.531677	0.000740	7.397107	2.506208	-0.000296
1142	1.1353e+02	-5.4576	-9.765831	0.000588	5.877153	1.991233	-0.000235
1143	1.1363e+02	-5.4977	-10.064579	0.000750	7.498437	2.540539	-0.000300
1144	1.1373e+02	-5.5330	-10.318919	0.000638	6.383804	2.162891	-0.000256
1145	1.1383e+02	-5.5731	-10.581333	0.000659	6.586465	2.231555	-0.000264
1146	1.1393e+02	-5.6164	-10.823561	0.000608	6.079814	2.059897	-0.000243
1147	1.1403e+02	-5.6565	-11.098086	0.000689	6.890455	2.334549	-0.000276
1148	1.1413e+02	-5.6998	-11.396834	0.000750	7.498437	2.540539	-0.000300
1149	1.1423e+02	-5.7351	-11.675397	0.000699	6.991786	2.368881	-0.000280
1150	1.1433e+02	-5.7768	-11.941848	0.000669	6.687795	2.265886	-0.000268
1151	1.1442e+02	-5.8137	-12.188113	0.000618	6.181144	2.094228	-0.000248
1152	1.1452e+02	-5.8506	-12.462638	0.000689	6.890455	2.334549	-0.000276
1153	1.1462e+02	-5.8988	-12.721015	0.000649	6.485134	2.197223	-0.000260
1154	1.1472e+02	-5.9260	-13.031874	0.000780	7.802427	2.643534	-0.000312
1155	1.1482e+02	-5.9742	-13.261991	0.000578	5.775823	1.956902	-0.000231
1156	1.1492e+02	-6.0207	-13.520368	0.000649	6.485134	2.197223	-0.000260
1157	1.1502e+02	-6.0528	-13.786819	0.000669	6.687795	2.265886	-0.000268
1158	1.1512e+02	-6.0945	-14.089604	0.000760	7.599767	2.574871	-0.000304
1159	1.1522e+02	-6.1442	-14.323758	0.000588	5.877153	1.991233	-0.000235
1160	1.1532e+02	-6.1811	-14.614431	0.000730	7.295776	2.471876	-0.000292
1161	1.1542e+02	-6.2292	-14.892994	0.000699	6.991786	2.368881	-0.000280
1162	1.1552e+02	-6.2517	-15.175593	0.000709	7.093116	2.403213	-0.000284
1163	1.1562e+02	-6.2918	-15.421859	0.000618	6.181144	2.094228	-0.000248
1164	1.1572e+02	-6.3399	-15.684272	0.000659	6.586465	2.231555	-0.000264
1165	1.1582e+02	-6.3768	-15.954760	0.000679	6.789125	2.300218	-0.000272
1166	1.1592e+02	-6.4185	-16.225249	0.000679	6.789125	2.300218	-0.000272
1167	1.1602e+02	-6.4554	-16.483625	0.000649	6.485134	2.197223	-0.000260
1168	1.1612e+02	-6.4907	-16.733928	0.000628	6.282474	2.128560	-0.000252
1169	1.1622e+02	-6.5324	-17.020564	0.000719	7.194446	2.437544	-0.000288
1170	1.1632e+02	-6.5693	-17.274904	0.000638	6.383804	2.162891	-0.000256
1171	1.1642e+02	-6.6094	-17.525206	0.000628	6.282474	2.128560	-0.000252
1172	1.1651e+02	-6.6560	-17.811843	0.000719	7.194446	2.437544	-0.000288
1173	1.1661e+02	-6.6977	-18.041960	0.000578	5.775823	1.956902	-0.000231
1174	1.1671e+02	-6.7298	-18.324559	0.000709	7.093116	2.403213	-0.000284
1175	1.1681e+02	-6.7667	-18.586973	0.000659	6.586465	2.231555	-0.000264
1176	1.1691e+02	-6.8132	-18.857461	0.000679	6.789125	2.300218	-0.000272
1177	1.1701e+02	-6.8549	-19.087578	0.000578	5.775823	1.956902	-0.000231
1178	1.1711e+02	-6.8822	-19.370177	0.000709	7.093116	2.403213	-0.000284
1179	1.1721e+02	-6.9207	-19.628554	0.000649	6.485134	2.197223	-0.000260
1180	1.1731e+02	-6.9672	-19.907116	0.000699	6.991786	2.368881	-0.000280
1181	1.1741e+02	-7.0089	-20.173567	0.000669	6.687795	2.265886	-0.000268
1182	1.1751e+02	-7.0538	-20.488464	0.000790	7.903758	2.677866	-0.000316
1183	1.1761e+02	-7.0875	-20.718581	0.000578	5.775823	1.956902	-0.000231
1184	1.1771e+02	-7.1244	-21.013292	0.000740	7.397107	2.506208	-0.000296
1185	1.1781e+02	-7.1709	-21.267631	0.000638	6.383804	2.162891	-0.000256
1186	1.1791e+02	-7.2030	-21.489674	0.000557	5.573162	1.888239	-0.000223
1187	1.1801e+02	-7.2479	-21.792459	0.000760	7.599767	2.574871	-0.000304
1188	1.1811e+02	-7.2832	-22.058910	0.000669	6.687795	2.265886	-0.000268
1189	1.1821e+02	-7.3329	-22.305175	0.000618	6.181144	2.094228	-0.000248
1190	1.1831e+02	-7.3666	-22.563552	0.000649	6.485134	2.197223	-0.000260
1191	1.1841e+02	-7.4035	-22.878448	0.000790	7.903758	2.677866	-0.000316
1192	1.1850e+02	-7.4485	-23.088379	0.000527	5.269172	1.785244	-0.000211
1193	1.1860e+02	-7.4902	-23.395202	0.000770	7.701097	2.609202	-0.000308
1194	1.1870e+02	-7.5174	-23.653578	0.000649	6.485134	2.197223	-0.000260
1195	1.1880e+02	-7.5736	-23.867546	0.000537	5.370502	1.819575	-0.000215
1196	1.1890e+02	-7.6105	-24.158220	0.000730	7.295776	2.471876	-0.000292
1197	1.1900e+02	-7.6506	-24.416597	0.000649	6.485134	2.197223	-0.000260
1198	1.1910e+02	-7.6811	-24.703234	0.000719	7.194446	2.437544	-0.000288
1199	1.1920e+02	-7.7228	-24.965647	0.000659	6.586465	2.231555	-0.000264
1200	1.1930e+02	-7.7661	-25.183653	0.000547	5.471832	1.853907	-0.000219
1201	1.1940e+02	-7.8078	-25.458178	0.000689	6.890455	2.334549	-0.000276
1202	1.1950e+02	-7.8479	-25.724629	0.000669	6.687795	2.265886	-0.000268
1203	1.1960e+02	-7.8864	-25.942634	0.000547	5.471832	1.853907	-0.000219
1204	1.1970e+02	-7.9281	-26.209085	0.000669	6.687795	2.265886	-0.000268
1205	1.1980e+02	-7.9714	-26.507833	0.000750	7.498437	2.540539	-0.000300
1206	1.1990e+02	-8.0035	-26.774284	0.000669	6.687795	2.265886	-0.000268
1207	1.2000e+02	-8.0452	-27.040735	0.000669	6.687795	2.265886	-0.000268
1208	1.2010e+02	-8.0853	-27.303149	0.000659	6.586465	2.231555	-0.000264
1209	1.2020e+02	-8.1190	-27.496932	0.000486	4.863851	1.647917	-0.000195
1210	1.2030e+02	-8.1720	-27.759345	0.000659	6.586465	2.231555	-0.000264
1211	1.2039e+02	-8.2105	-28.041945	0.000709	7.093116	2.403213	-0.000284
1212	1.2049e+02	-8.2458	-28.284173	0.000608	6.079814	2.059897	-0.000243
1213	1.2059e+02	-8.2875	-28.570810	0.000719	7.194446	2.437544	-0.000288
1214	1.2069e+02	-8.3372	-28.841298	0.000679	6.789125	2.300218	-0.000272
1215	1.2079e+02	-8.3645	-29.067377	0.000567	5.674493	1.922570	-0.000227
1216	1.2089e+02	-8.3998	-29.325754	0.000649	6.485134	2.197223	-0.000260
1217	1.2099e+02	-8.4415	-29.588168	0.000659	6.586465	2.231555	-0.000264
1218	1.2109e+02	-8.4880	-29.850582	0.000659	6.586465	2.231555	-0.000264
1219	1.2119e+02	-8.5313	-30.064550	0.000537	5.370502	1.819575	-0.000215
1220	1.2129e+02	-8.5634	-30.343112	0.000699	6.991786	2.368881	-0.000280
1221	1.2139e+02	-8.6035	-30.597452	0.000638	6.383804	2.162891	-0.000256
1222	1.2149e+02	-8.6420	-30.851791	0.000638	6.383804	2.162891	-0.000256
1223	1.2159e+02	-8.6885	-31.061722	0.000527	5.269172	1.785244	-0.000211
1224	1.2169e+02	-8.7302	-31.380656	0.000801	8.005088	2.712197	-0.000321
1225	1.2179e+02	-8.7639	-31.582513	0.000507	5.066511	1.716581	-0.000203
1226	1.2189e+02	-8.8040	-31.881261	0.000750	7.498437	2.540539	-0.000300
1227	1.2199e+02	-8.8457	-32.087155	0.000517	5.167842	1.750912	-0.000207
1228	1.2209e+02	-8.8810	-32.341494	0.000638	6.383804	2.162891	-0.000256
1229	1.2219e+02	-8.9131	-32.611982	0.000679	6.789125	2.300218	-0.000272
1230	1.2229e+02	-8.9661	-32.890545	0.000699	6.991786	2.368881	-0.000280
1231	1.2239e+02	-9.0062	-33.088365	0.000497	4.965181	1.682249	-0.000199
1232	1.2248e+02	-9.0366	-33.387113	0.000750	7.498437	2.540539	-0.000300
1233	1.2258e+02	-9.0848	-33.597044	0.000527	5.269172	1.785244	-0.000211
1234	1.2268e+02	-9.1265	-33.879643	0.000709	7.093116	2.403213	-0.000284
1235	1.2278e+02	-9.1554	-34.109760	0.000578	5.775823	1.956902	-0.000231
1236	1.2288e+02	-9.2035	-34.323728	0.000537	5.370502	1.819575	-0.000215
1237	1.2298e+02	-9.2259	-34.634587	0.000780	7.802427	2.643534	-0.000312
1238	1.2308e+02	-9.2901	-34.884890	0.000628	6.282474	2.128560	-0.000252
1239	1.2318e+02	-9.3174	-35.110970	0.000567	5.674493	1.922570	-0.000227
1240	1.2328e+02	-9.3591	-35.381458	0.000679	6.789125	2.300218	-0.000272
1241	1.2338e+02	-9.3992	-35.619649	0.000598	5.978483	2.025565	-0.000239
1242	1.2348e+02	-9.4409	-35.869951	0.000628	6.282474	2.128560	-0.000252
1243	1.2358e+02	-9.4842	-36.096031	0.000567	5.674493	1.922570	-0.000227
1244	1.2368e+02	-9.5195	-36.366519	0.000679	6.789125	2.300218	-0.000272
1245	1.2378e+02	-9.5548	-36.612784	0.000618	6.181144	2.094228	-0.000248
1246	1.2388e+02	-9.5949	-36.846938	0.000588	5.877153	1.991233	-0.000235
1247	1.2398e+02	-9.6414	-37.073017	0.000567	5.674493	1.922570	-0.000227
1248	1.2408e+02	-9.6912	-37.351580	0.000699	6.991786	2.368881	-0.000280
1249	1.2418e+02	-9.7233	-37.601882	0.000628	6.282474	2.128560	-0.000252
1250	1.2428e+02	-9.7602	-37.840073	0.000598	5.978483	2.025565	-0.000239
1251	1.2438e+02	-9.7970	-38.058079	0.000547	5.471832	1.853907	-0.000219
1252	1.2447e+02	-9.8420	-38.304344	0.000618	6.181144	2.094228	-0.000248
1253	1.2457e+02	-9.8805	-38.526386	0.000557	5.573162	1.888239	-0.000223
1254	1.2467e+02	-9.9110	-38.821097	0.000740	7.397107	2.506208	-0.000296
1255	1.2477e+02	-9.9639	-39.071400	0.000628	6.282474	2.128560	-0.000252
1256	1.2487e+02	-9.9992	-39.305554	0.000588	5.877153	1.991233	-0.000235
1257	1.2497e+02	-10.0377	-39.527596	0.000557	5.573162	1.888239	-0.000223
1258	1.2507e+02	-10.0826	-39.794047	0.000669	6.687795	2.265886	-0.000268
1259	1.2517e+02	-10.1163	-40.060498	0.000669	6.687795	2.265886	-0.000268
1260	1.2527e+02	-10.1644	-40.306763	0.000618	6.181144	2.094228	-0.000248
1261	1.2537e+02	-10.1917	-40.565140	0.000649	6.485134	2.197223	-0.000260
1262	1.2547e+02	-10.2430	-40.799294	0.000588	5.877153	1.991233	-0.000235
1263	1.2557e+02	-10.2783	-41.037485	0.000598	5.978483	2.025565	-0.000239
1264	1.2567e+02	-10.3329	-41.259527	0.000557	5.573162	1.888239	-0.000223
1265	1.2577e+02	-10.3505	-41.513867	0.000638	6.383804	2.162891	-0.000256
1266	1.2587e+02	-10.3970	-41.735909	0.000557	5.573162	1.888239	-0.000223
1267	1.2597e+02	-10.4403	-42.006397	0.000679	6.789125	2.300218	-0.000272
1268	1.2607e+02	-10.4756	-42.240551	0.000588	5.877153	1.991233	-0.000235
1269	1.2617e+02	-10.5206	-42.482779	0.000608	6.079814	2.059897	-0.000243
1270	1.2627e+02	-10.5719	-42.700785	0.000547	5.471832	1.853907	-0.000219
1271	1.2636e+02	-10.5927	-42.971273	0.000679	6.789125	2.300218	-0.000272
1272	1.2646e+02	-10.6457	-43.189278	0.000547	5.471832	1.853907	-0.000219
1273	1.2656e+02	-10.6810	-43.403246	0.000537	5.370502	1.819575	-0.000215
1274	1.2666e+02	-10.7115	-43.649512	0.000618	6.181144	2.094228	-0.000248
1275	1.2676e+02	-10.7596	-43.887703	0.000598	5.978483	2.025565	-0.000239
1276	1.2686e+02	-10.7933	-44.142042	0.000638	6.383804	2.162891	-0.000256
1277	1.2696e+02	-10.8318	-44.404456	0.000659	6.586465	2.231555	-0.000264
1278	1.2706e+02	-10.8783	-44.630536	0.000567	5.674493	1.922570	-0.000227
1279	1.2716e+02	-10.9136	-44.828355	0.000497	4.965181	1.682249	-0.000199
1280	1.2726e+02	-10.9553	-45.127103	0.000750	7.498437	2.540539	-0.000300
1281	1.2736e+02	-11.0018	-45.361257	0.000588	5.877153	1.991233	-0.000235
1282	1.2746e+02	-11.0323	-45.571188	0.000527	5.269172	1.785244	-0.000211
1283	1.2756e+02	-11.0788	-45.841676	0.000679	6.789125	2.300218	-0.000272
1284	1.2766e+02	-11.1173	-46.039496	0.000497	4.965181	1.682249	-0.000199
1285	1.2776e+02	-11.1558	-46.285761	0.000618	6.181144	2.094228	-0.000248
1286	1.2786e+02	-11.1991	-46.507804	0.000557	5.573162	1.888239	-0.000223
1287	1.2796e+02	-11.2312	-46.750032	0.000608	6.079814	2.059897	-0.000243
1288	1.2806e+02	-11.2762	-47.016483	0.000669	6.687795	2.265886	-0.000268
1289	1.2816e+02	-11.3179	-47.262748	0.000618	6.181144	2.094228	-0.000248
1290	1.2826e+02	-11.3516	-47.504976	0.000608	6.079814	2.059897	-0.000243
1291	1.2835e+02	-11.3901	-47.767390	0.000659	6.586465	2.231555	-0.000264
1292	1.2845e+02	-11.4382	-47.997507	0.000578	5.775823	1.956902	-0.000231
1293	1.2855e+02	-11.4767	-48.243772	0.000618	6.181144	2.094228	-0.000248
1294	1.2865e+02	-11.5104	-48.498112	0.000638	6.383804	2.162891	-0.000256
1295	1.2875e+02	-11.5521	-48.704006	0.000517	5.167842	1.750912	-0.000207
1296	1.2885e+02	-11.5890	-48.938159	0.000588	5.877153	1.991233	-0.000235
1297	1.2895e+02	-11.6307	-49.135979	0.000497	4.965181	1.682249	-0.000199
1298	1.2905e+02	-11.6708	-49.434727	0.000750	7.498437	2.540539	-0.000300
1299	1.2915e+02	-11.7029	-49.664844	0.000578	5.775823	1.956902	-0.000231
1300	1.2925e+02	-11.7510	-49.919183	0.000638	6.383804	2.162891	-0.000256
1301	1.2935e+02	-11.7927	-50.153337	0.000588	5.877153	1.991233	-0.000235
1302	1.2945e+02	-11.8248	-50.395565	0.000608	6.079814	2.059897	-0.000243
1303	1.2955e+02	-11.8761	-50.666054	0.000679	6.789125	2.300218	-0.000272
1304	1.2965e+02	-11.9114	-50.880022	0.000537	5.370502	1.819575	-0.000215
1305	1.2975e+02	-11.9563	-51.126287	0.000618	6.181144	2.094228	-0.000248
1306	1.2985e+02	-12.0013	-51.320070	0.000486	4.863851	1.647917	-0.000195
1307	1.2995e+02	-12.0317	-51.574409	0.000638	6.383804	2.162891	-0.000256
1308	1.3005e+02	-12.0751	-51.800489	0.000567	5.674493	1.922570	-0.000227
1309	1.3015e+02	-12.1087	-52.038680	0.000598	5.978483	2.025565	-0.000239
1310	1.3025e+02	-12.1521	-52.309168	0.000679	6.789125	2.300218	-0.000272
1311	1.3034e+02	-12.1874	-52.547359	0.000598	5.978483	2.025565	-0.000239
1312	1.3044e+02	-12.2307	-52.749216	0.000507	5.066511	1.716581	-0.000203
1313	1.3054e+02	-12.2676	-53.015667	0.000669	6.687795	2.265886	-0.000268
1314	1.3064e+02	-12.3093	-53.290192	0.000689	6.890455	2.334549	-0.000276
1315	1.3074e+02	-12.3574	-53.520308	0.000578	5.775823	1.956902	-0.000231
1316	1.3084e+02	-12.3911	-53.738314	0.000547	5.471832	1.853907	-0.000219
1317	1.3094e+02	-12.4280	-54.004765	0.000669	6.687795	2.265886	-0.000268
1318	1.3104e+02	-12.4761	-54.210659	0.000517	5.167842	1.750912	-0.000207
1319	1.3114e+02	-12.5066	-54.469035	0.000649	6.485134	2.197223	-0.000260
1320	1.3124e+02	-12.5355	-54.687041	0.000547	5.471832	1.853907	-0.000219
1321	1.3134e+02	-12.5836	-54.917157	0.000578	5.775823	1.956902	-0.000231
1322	1.3144e+02	-12.6301	-55.199757	0.000709	7.093116	2.403213	-0.000284
1323	1.3154e+02	-12.6670	-55.417762	0.000547	5.471832	1.853907	-0.000219
1324	1.3164e+02	-12.7055	-55.676139	0.000649	6.485134	2.197223	-0.000260
1325	1.3174e+02	-12.7472	-55.910293	0.000588	5.877153	1.991233	-0.000235
1326	1.3184e+02	-12.7777	-56.160595	0.000628	6.282474	2.128560	-0.000252
1327	1.3194e+02	-12.8258	-56.374563	0.000537	5.370502	1.819575	-0.000215
1328	1.3204e+02	-12.8643	-56.620829	0.000618	6.181144	2.094228	-0.000248
1329	1.3214e+02	-12.8964	-56.838834	0.000547	5.471832	1.853907	-0.000219
1330	1.3224e+02	-12.9542	-57.089136	0.000628	6.282474	2.128560	-0.000252
1331	1.3234e+02	-12.9847	-57.319253	0.000578	5.775823	1.956902	-0.000231
1332	1.3243e+02	-13.0264	-57.589741	0.000679	6.789125	2.300218	-0.000272
1333	1.3253e+02	-13.0665	-57.795635	0.000517	5.167842	1.750912	-0.000207
1334	1.3263e+02	-13.1082	-58.037863	0.000608	6.079814	2.059897	-0.000243
1335	1.3273e+02	-13.1435	-58.263943	0.000567	5.674493	1.922570	-0.000227
1336	1.3283e+02	-13.1788	-58.477911	0.000537	5.370502	1.819575	-0.000215
1337	1.3293e+02	-13.2269	-58.744362	0.000669	6.687795	2.265886	-0.000268
1338	1.3303e+02	-13.2654	-59.022924	0.000699	6.991786	2.368881	-0.000280
1339	1.3313e+02	-13.3087	-59.265153	0.000608	6.079814	2.059897	-0.000243
1340	1.3323e+02	-13.3408	-59.467009	0.000507	5.066511	1.716581	-0.000203
1341	1.3333e+02	-13.3905	-59.725386	0.000649	6.485134	2.197223	-0.000260
1342	1.3343e+02	-13.4194	-59.963577	0.000598	5.978483	2.025565	-0.000239
1343	1.3353e+02	-13.4547	-60.242139	0.000699	6.991786	2.368881	-0.000280
1344	1.3363e+02	-13.5076	-60.415736	0.000436	4.357200	1.476259	-0.000174
1345	1.3373e+02	-13.5510	-60.686224	0.000679	6.789125	2.300218	-0.000272
1346	1.3383e+02	-13.5798	-60.944601	0.000649	6.485134	2.197223	-0.000260
1347	1.3393e+02	-13.6328	-61.186829	0.000608	6.079814	2.059897	-0.000243
1348	1.3403e+02	-13.6616	-61.420983	0.000588	5.877153	1.991233	-0.000235
1349	1.3413e+02	-13.6985	-61.602654	0.000456	4.559860	1.544922	-0.000183
1350	1.3423e+02	-13.7386	-61.893328	0.000730	7.295776	2.471876	-0.000292
1351	1.3432e+02	-13.7852	-62.131519	0.000598	5.978483	2.025565	-0.000239
1352	1.3442e+02	-13.8221	-62.389896	0.000649	6.485134	2.197223	-0.000260
1353	1.3452e+02	-13.8670	-62.583678	0.000486	4.863851	1.647917	-0.000195
1354	1.3462e+02	-13.9087	-62.906649	0.000811	8.106418	2.746529	-0.000325
1355	1.3472e+02	-13.9440	-63.120617	0.000537	5.370502	1.819575	-0.000215
1356	1.3482e+02	-13.9905	-63.338623	0.000547	5.471832	1.853907	-0.000219
1357	1.3492e+02	-14.0210	-63.572776	0.000588	5.877153	1.991233	-0.000235
1358	1.3502e+02	-14.0739	-63.815005	0.000608	6.079814	2.059897	-0.000243
1359	1.3512e+02	-14.1028	-64.109716	0.000740	7.397107	2.506208	-0.000296
1360	1.3522e+02	-14.1445	-64.372129	0.000659	6.586465	2.231555	-0.000264
1361	1.3532e+02	-14.1814	-64.598209	0.000567	5.674493	1.922570	-0.000227
1362	1.3542e+02	-14.2279	-64.917143	0.000801	8.005088	2.712197	-0.000321
1363	1.3552e+02	-14.2584	-65.090740	0.000436	4.357200	1.476259	-0.000174
1364	1.3562e+02	-14.3001	-65.328931	0.000598	5.978483	2.025565	-0.000239
1365	1.3572e+02	-14.3290	-65.587307	0.000649	6.485134	2.197223	-0.000260
1366	1.3582e+02	-14.3787	-65.813387	0.000567	5.674493	1.922570	-0.000227
1367	1.3592e+02	-14.4156	-66.095986	0.000709	7.093116	2.403213	-0.000284
1368	1.3602e+02	-14.4557	-66.370512	0.000689	6.890455	2.334549	-0.000276
1369	1.3612e+02	-14.4958	-66.624851	0.000638	6.383804	2.162891	-0.000256
1370	1.3622e+02	-14.5392	-66.822671	0.000497	4.965181	1.682249	-0.000199
1371	1.3631e+02	-14.5857	-67.085085	0.000659	6.586465	2.231555	-0.000264
1372	1.3641e+02	-14.6258	-67.351536	0.000669	6.687795	2.265886	-0.000268
1373	1.3651e+02	-14.6643	-67.613949	0.000659	6.586465	2.231555	-0.000264
1374	1.3661e+02	-14.7076	-67.892512	0.000699	6.991786	2.368881	-0.000280
1375	1.3671e+02	-14.7381	-68.090331	0.000497	4.965181	1.682249	-0.000199
1376	1.3681e+02	-14.7798	-68.352745	0.000659	6.586465	2.231555	-0.000264
1377	1.3691e+02	-14.8167	-68.607085	0.000638	6.383804	2.162891	-0.000256
1378	1.3701e+02	-14.8600	-68.893721	0.000719	7.194446	2.437544	-0.000288
1379	1.3711e+02	-14.9017	-69.119801	0.000567	5.674493	1.922570	-0.000227
1380	1.3721e+02	-14.9370	-69.422586	0.000760	7.599767	2.574871	-0.000304
1381	1.3731e+02	-14.9787	-69.689037	0.000669	6.687795	2.265886	-0.000268
1382	1.3741e+02	-15.0124	-69.939340	0.000628	6.282474	2.128560	-0.000252
1383	1.3751e+02	-15.0573	-70.197716	0.000649	6.485134	2.197223	-0.000260
1384	1.3761e+02	-15.0990	-70.480316	0.000709	7.093116	2.403213	-0.000284
1385	1.3771e+02	-15.1456	-70.738692	0.000649	6.485134	2.197223	-0.000260
1386	1.3781e+02	-15.1793	-70.988995	0.000628	6.282474	2.128560	-0.000252
1387	1.3791e+02	-15.2129	-71.340226	0.000882	8.815730	2.986850	-0.000353
1388	1.3801e+02	-15.2579	-71.529971	0.000476	4.762521	1.613586	-0.000191
1389	1.3811e+02	-15.2915	-71.856979	0.000821	8.207748	2.780860	-0.000329
1390	1.3821e+02	-15.3413	-72.119393	0.000659	6.586465	2.231555	-0.000264
1391	1.3831e+02	-15.3894	-72.373732	0.000638	6.383804	2.162891	-0.000256
1392	1.3840e+02	-15.4119	-72.676518	0.000760	7.599767	2.574871	-0.000304
1393	1.3850e+02	-15.4616	-72.926820	0.000628	6.282474	2.128560	-0.000252
1394	1.3860e+02	-15.4857	-73.213457	0.000719	7.194446	2.437544	-0.000288
1395	1.3870e+02	-15.5402	-73.548539	0.000841	8.410409	2.849524	-0.000337
1396	1.3880e+02	-15.5883	-73.810953	0.000659	6.586465	2.231555	-0.000264
1397	1.3890e+02	-15.6140	-74.069329	0.000649	6.485134	2.197223	-0.000260
1398	1.3900e+02	-15.6477	-74.368077	0.000750	7.498437	2.540539	-0.000300
1399	1.3910e+02	-15.7006	-74.678937	0.000780	7.802427	2.643534	-0.000312
1400	1.3920e+02	-15.7391	-74.973648	0.000740	7.397107	2.506208	-0.000296
1401	1.3930e+02	-15.7760	-75.223950	0.000628	6.282474	2.128560	-0.000252
1402	1.3940e+02	-15.8129	-75.575181	0.000882	8.815730	2.986850	-0.000353
1403	1.3950e+02	-15.8643	-75.853743	0.000699	6.991786	2.368881	-0.000280
1404	1.3960e+02	-15.8963	-76.213048	0.000902	9.018390	3.055513	-0.000361
1405	1.3970e+02	-15.9381	-76.487574	0.000689	6.890455	2.334549	-0.000276
1406	1.3980e+02	-15.9830	-76.762099	0.000689	6.890455	2.334549	-0.000276
1407	1.3990e+02	-16.0151	-77.113330	0.000882	8.815730	2.986850	-0.000353
1408	1.4000e+02	-16.0487	-77.428226	0.000790	7.903758	2.677866	-0.000316
1409	1.4010e+02	-16.0889	-77.767346	0.000851	8.511739	2.883855	-0.000341
1410	1.4020e+02	-16.1322	-78.058019	0.000730	7.295776	2.471876	-0.000292
1411	1.4029e+02	-16.1691	-78.461733	0.001013	10.133023	3.433161	-0.000406
1412	1.4039e+02	-16.2124	-78.756444	0.000740	7.397107	2.506208	-0.000296
1413	1.4049e+02	-16.2621	-79.043081	0.000719	7.194446	2.437544	-0.000288
1414	1.4059e+02	-16.2878	-79.402386	0.000902	9.018390	3.055513	-0.000361
1415	1.4069e+02	-16.3231	-79.749579	0.000871	8.714399	2.952518	-0.000349
1416	1.4079e+02	-16.3648	-80.080624	0.000831	8.309079	2.815192	-0.000333
1417	1.4089e+02	-16.4177	-80.427818	0.000871	8.714399	2.952518	-0.000349
1418	1.4099e+02	-16.4466	-80.815383	0.000973	9.727702	3.295835	-0.000390
1419	1.4109e+02	-16.4915	-81.122206	0.000770	7.701097	2.609202	-0.000308
1420	1.4119e+02	-16.5316	-81.501696	0.000953	9.525041	3.227171	-0.000381
1421	1.4129e+02	-16.5701	-81.800444	0.000750	7.498437	2.540539	-0.000300
1422	1.4139e+02	-16.6086	-82.200121	0.001003	10.031692	3.398829	-0.000402
1423	1.4149e+02	-16.6471	-82.567500	0.000922	9.221051	3.124177	-0.000369
1424	1.4159e+02	-16.6872	-82.963139	0.000993	9.930362	3.364498	-0.000398
1425	1.4169e+02	-16.7338	-83.306296	0.000861	8.613069	2.918187	-0.000345
1426	1.4179e+02	-16.7674	-83.677712	0.000932	9.322381	3.158508	-0.000373
1427	1.4189e+02	-16.8075	-84.057203	0.000953	9.525041	3.227171	-0.000381
1428	1.4199e+02	-16.8541	-84.464954	0.001023	10.234353	3.467493	-0.000410
1429	1.4209e+02	-16.8829	-84.856556	0.000983	9.829032	3.330166	-0.000394
1430	1.4219e+02	-16.9327	-85.219898	0.000912	9.119720	3.089845	-0.000365
1431	1.4228e+02	-16.9680	-85.655909	0.001094	10.943664	3.707814	-0.000438
1432	1.4238e+02	-17.0081	-86.104031	0.001125	11.247655	3.810809	-0.000450
1433	1.4248e+02	-17.0466	-86.463336	0.000902	9.018390	3.055513	-0.000361
1434	1.4258e+02	-17.0963	-86.871087	0.001023	10.234353	3.467493	-0.000410
1435	1.4268e+02	-17.1316	-87.294986	0.001064	10.639674	3.604819	-0.000426
1436	1.4278e+02	-17.1701	-87.751182	0.001145	11.450316	3.879472	-0.000458
1437	1.4288e+02	-17.2166	-88.175082	0.001064	10.639674	3.604819	-0.000426
1438	1.4298e+02	-17.2519	-88.570721	0.000993	9.930362	3.364498	-0.000398
1439	1.4308e+02	-17.2920	-89.083437	0.001287	12.868939	4.360114	-0.000515
1440	1.4318e+02	-17.3402	-89.462928	0.000953	9.525041	3.227171	-0.000381
1441	1.4328e+02	-17.3658	-89.907013	0.001115	11.146325	3.776477	-0.000446
1442	1.4338e+02	-17.4075	-90.379358	0.001186	11.855636	4.016798	-0.000475
1443	1.4348e+02	-17.4557	-90.863814	0.001216	12.159627	4.119793	-0.000487
1444	1.4358e+02	-17.4974	-91.340196	0.001196	11.956967	4.051130	-0.000479
1445	1.4368e+02	-17.5327	-91.776207	0.001094	10.943664	3.707814	-0.000438
1446	1.4378e+02	-17.5696	-92.309109	0.001338	13.375590	4.531773	-0.000536
1447	1.4388e+02	-17.6065	-92.724934	0.001044	10.437013	3.536156	-0.000418
1448	1.4398e+02	-17.6369	-93.265910	0.001358	13.578250	4.600436	-0.000544
1449	1.4408e+02	-17.7011	-93.762478	0.001246	12.463618	4.222788	-0.000499
1450	1.4418e+02	-17.7268	-94.263082	0.001256	12.564948	4.257120	-0.000503
1451	1.4428e+02	-17.7669	-94.779836	0.001297	12.970269	4.394446	-0.000519
1452	1.4437e+02	-17.8070	-95.300626	0.001307	13.071599	4.428778	-0.000523
1453	1.4447e+02	-17.8551	-95.853714	0.001388	13.882241	4.703431	-0.000556
1454	1.4457e+02	-17.8872	-96.382579	0.001327	13.274260	4.497441	-0.000532
1455	1.4467e+02	-17.9177	-96.943740	0.001408	14.084901	4.772094	-0.000564
1456	1.4477e+02	-17.9658	-97.432234	0.001226	12.260957	4.154125	-0.000491
1457	1.4487e+02	-18.0075	-98.017619	0.001469	14.692883	4.978083	-0.000588
1458	1.4497e+02	-18.0492	-98.566669	0.001378	13.780911	4.669099	-0.000552
1459	1.4507e+02	-18.0781	-99.180314	0.001540	15.402194	5.218405	-0.000617
1460	1.4517e+02	-18.1246	-99.769735	0.001479	14.794213	5.012415	-0.000592
1461	1.4527e+02	-18.1615	-100.371269	0.001510	15.098204	5.115410	-0.000605
1462	1.4537e+02	-18.2032	-100.904171	0.001338	13.375590	4.531773	-0.000536
1463	1.4547e+02	-18.2433	-101.542038	0.001601	16.010176	5.424394	-0.000641
1464	1.4557e+02	-18.2850	-102.187980	0.001621	16.212836	5.493058	-0.000649
1465	1.4567e+02	-18.3284	-102.789513	0.001510	15.098204	5.115410	-0.000605
1466	1.4577e+02	-18.3637	-103.459678	0.001682	16.820818	5.699047	-0.000674
1467	1.4587e+02	-18.4150	-104.097545	0.001601	16.010176	5.424394	-0.000641
1468	1.4597e+02	-18.4407	-104.751561	0.001642	16.415497	5.561721	-0.000657
1469	1.4607e+02	-18.4888	-105.373280	0.001560	15.604855	5.287068	-0.000625
1470	1.4617e+02	-18.5209	-106.059593	0.001723	17.226138	5.836374	-0.000690
1471	1.4626e+02	-18.5626	-106.741869	0.001712	17.124808	5.802042	-0.000686
1472	1.4636e+02	-18.6043	-107.416071	0.001692	16.922148	5.733379	-0.000678
1473	1.4646e+02	-18.6396	-108.102384	0.001723	17.226138	5.836374	-0.000690
1474	1.4656e+02	-18.6861	-108.816957	0.001794	17.935450	6.076695	-0.000718
1475	1.4666e+02	-18.7150	-109.535567	0.001804	18.036780	6.111027	-0.000722
1476	1.4676e+02	-18.7583	-110.270326	0.001844	18.442101	6.248353	-0.000738
1477	1.4686e+02	-18.8112	-111.029307	0.001905	19.050083	6.454343	-0.000763
1478	1.4696e+02	-18.8545	-111.760029	0.001834	18.340771	6.214021	-0.000734
1479	1.4706e+02	-18.8802	-112.506899	0.001875	18.746092	6.351348	-0.000751
1480	1.4716e+02	-18.9203	-113.277992	0.001935	19.354073	6.557338	-0.000775
1481	1.4726e+02	-18.9620	-114.057159	0.001956	19.556734	6.626001	-0.000783
1482	1.4736e+02	-18.9989	-114.848437	0.001986	19.860724	6.728996	-0.000795
1483	1.4746e+02	-19.0455	-115.643753	0.001996	19.962055	6.763327	-0.000799
1484	1.4756e+02	-19.0711	-116.495589	0.002138	21.380678	7.243970	-0.000856
1485	1.4766e+02	-19.1273	-117.307053	0.002037	20.367375	6.900654	-0.000816
1486	1.4776e+02	-19.1674	-118.126592	0.002057	20.570036	6.969317	-0.000824
1487	1.4786e+02	-19.2059	-118.994576	0.002179	21.785999	7.381296	-0.000872
1488	1.4796e+02	-19.2428	-119.814114	0.002057	20.570036	6.969317	-0.000824
1489	1.4806e+02	-19.2893	-120.710359	0.002250	22.495310	7.621617	-0.000901
1490	1.4816e+02	-19.3262	-121.622751	0.002290	22.900631	7.758944	-0.000917
1491	1.4825e+02	-19.3551	-122.506884	0.002219	22.191320	7.518623	-0.000889
1492	1.4835e+02	-19.4080	-123.403128	0.002250	22.495310	7.621617	-0.000901
1493	1.4845e+02	-19.4417	-124.327632	0.002320	23.204622	7.861939	-0.000929
1494	1.4855e+02	-19.4818	-125.272322	0.002371	23.711273	8.033597	-0.000949
1495	1.4865e+02	-19.5219	-126.188752	0.002300	23.001961	7.793275	-0.000921
1496	1.4875e+02	-19.5604	-127.145553	0.002402	24.015264	8.136592	-0.000962
1497	1.4885e+02	-19.6037	-128.150800	0.002523	25.231226	8.548571	-0.001010
1498	1.4895e+02	-19.6374	-129.127787	0.002452	24.521915	8.308250	-0.000982
1499	1.4905e+02	-19.6775	-130.149182	0.002564	25.636547	8.685897	-0.001027
1500	1.4915e+02	-19.7144	-131.134243	0.002472	24.724575	8.376913	-0.000990
1501	1.4925e+02	-19.7577	-132.175824	0.002614	26.143198	8.857555	-0.001047
1502	1.4935e+02	-19.7914	-133.253739	0.002706	27.055170	9.166540	-0.001083
1503	1.4945e+02	-19.8379	-134.299357	0.002624	26.244529	8.891887	-0.001051
1504	1.4955e+02	-19.8813	-135.353050	0.002645	26.447189	8.960550	-0.001059
1505	1.4965e+02	-19.9101	-136.394631	0.002614	26.143198	8.857555	-0.001047
1506	1.4975e+02	-19.9647	-137.541177	0.002878	28.777784	9.750177	-0.001152
1507	1.4985e+02	-20.0032	-138.651390	0.002787	27.865812	9.441193	-0.001116
1508	1.4995e+02	-19.9551	-139.438631	-0.001976	-19.759394	-6.694664	-0.000791
1509	1.5005e+02	-19.9198	-140.169353	-0.001834	-18.340771	-6.214021	-0.000734
1510	1.5015e+02	-19.8716	-140.863740	-0.001743	-17.428799	-5.905037	-0.000698
1511	1.5025e+02	-19.8508	-141.465273	-0.001510	-15.098204	-5.115410	-0.000605
1512	1.5034e+02	-19.7962	-142.103141	-0.001601	-16.010176	-5.424394	-0.000641
1513	1.5044e+02	-19.7545	-142.656228	-0.001388	-13.882241	-4.703431	-0.000556
1514	1.5054e+02	-19.7096	-143.152796	-0.001246	-12.463618	-4.222788	-0.000499
1515	1.5064e+02	-19.6855	-143.689735	-0.001348	-13.476920	-4.566104	-0.000540
1516	1.5074e+02	-19.6358	-144.065189	-0.000942	-9.423711	-3.192840	-0.000377
1517	1.5084e+02	-19.6037	-144.557719	-0.001236	-12.362288	-4.188456	-0.000495
1518	1.5094e+02	-19.5668	-144.945284	-0.000973	-9.727702	-3.295835	-0.000390
1519	1.5104e+02	-19.5203	-145.377258	-0.001084	-10.842334	-3.673482	-0.000434
1520	1.5114e+02	-19.4674	-145.776934	-0.001003	-10.031692	-3.398829	-0.000402
1521	1.5124e+02	-19.4417	-146.099905	-0.000811	-8.106418	-2.746529	-0.000325
1522	1.5134e+02	-19.4000	-146.430950	-0.000831	-8.309079	-2.815192	-0.000333
1523	1.5144e+02	-19.3599	-146.729698	-0.000750	-7.498437	-2.540539	-0.000300
1524	1.5154e+02	-19.3278	-147.084966	-0.000892	-8.917060	-3.021182	-0.000357
1525	1.5164e+02	-19.2781	-147.294897	-0.000527	-5.269172	-1.785244	-0.000211
1526	1.5174e+02	-19.2428	-147.553274	-0.000649	-6.485134	-2.197223	-0.000260
1527	1.5184e+02	-19.2091	-147.799539	-0.000618	-6.181144	-2.094228	-0.000248
1528	1.5194e+02	-19.1610	-147.993322	-0.000486	-4.863851	-1.647917	-0.000195
1529	1.5204e+02	-19.1192	-148.215364	-0.000557	-5.573162	-1.888239	-0.000223
1530	1.5214e+02	-19.0840	-148.425295	-0.000527	-5.269172	-1.785244	-0.000211
1531	1.5224e+02	-19.0374	-148.590818	-0.000415	-4.154539	-1.407596	-0.000166
1532	1.5233e+02	-19.0021	-148.756341	-0.000415	-4.154539	-1.407596	-0.000166
1533	1.5243e+02	-18.9636	-148.885529	-0.000324	-3.242567	-1.098612	-0.000130
1534	1.5253e+02	-18.9235	-149.055089	-0.000426	-4.255870	-1.441928	-0.000170
1535	1.5263e+02	-18.8786	-149.184277	-0.000324	-3.242567	-1.098612	-0.000130
1536	1.5273e+02	-18.8545	-149.256945	-0.000182	-1.823944	-0.617969	-0.000073
1537	1.5283e+02	-18.8064	-149.390171	-0.000334	-3.343897	-1.132943	-0.000134
1538	1.5293e+02	-18.7567	-149.458802	-0.000172	-1.722614	-0.583637	-0.000069
1539	1.5303e+02	-18.7230	-149.583953	-0.000314	-3.141237	-1.064280	-0.000126
1540	1.5313e+02	-18.6861	-149.656622	-0.000182	-1.823944	-0.617969	-0.000073
1541	1.5323e+02	-18.6476	-149.676807	-0.000051	-0.506651	-0.171658	-0.000020
1542	1.5333e+02	-18.6107	-149.705067	-0.000071	-0.709312	-0.240321	-0.000028
1543	1.5343e+02	-18.5658	-149.757550	-0.000132	-1.317293	-0.446311	-0.000053
1544	1.5353e+02	-18.5305	-149.834256	-0.000193	-1.925274	-0.652301	-0.000077
1545	1.5363e+02	-18.4856	-149.826182	0.000020	0.202660	0.068663	0.000008
1546	1.5373e+02	-18.4471	-149.882701	-0.000142	-1.418623	-0.480643	-0.000057
1547	1.5383e+02	-18.4102	-149.866553	0.000041	0.405321	0.137326	0.000016
1548	1.5393e+02	-18.3637	-149.882701	-0.000041	-0.405321	-0.137326	-0.000016
1549	1.5403e+02	-18.3300	-149.878664	0.000010	0.101330	0.034332	0.000004
1550	1.5413e+02	-18.2883	-149.886739	-0.000020	-0.202660	-0.068663	-0.000008
1551	1.5422e+02	-18.2514	-149.874627	0.000030	0.303991	0.102995	0.000012
1552	1.5432e+02	-18.1968	-149.886739	-0.000030	-0.303991	-0.102995	-0.000012
1553	1.5442e+02	-18.1615	-149.846367	0.000101	1.013302	0.343316	0.000041
1554	1.5452e+02	-18.1214	-149.801959	0.000111	1.114632	0.377648	0.000045
1555	1.5462e+02	-18.0974	-149.761587	0.000101	1.013302	0.343316	0.000041
1556	1.5472e+02	-18.0492	-149.684882	0.000193	1.925274	0.652301	0.000077
1557	1.5482e+02	-17.9979	-149.684882	0.000000	0.000000	0.000000	0.000000
1558	1.5492e+02	-17.9674	-149.608176	0.000193	1.925274	0.652301	0.000077
1559	1.5502e+02	-17.9289	-149.596065	0.000030	0.303991	0.102995	0.000012
1560	1.5512e+02	-17.8920	-149.499174	0.000243	2.431925	0.823959	0.000097
1561	1.5522e+02	-17.8423	-149.426505	0.000182	1.823944	0.617969	0.000073
1562	1.5532e+02	-17.8006	-149.365948	0.000152	1.519953	0.514974	0.000061
1563	1.5542e+02	-17.7669	-149.321540	0.000111	1.114632	0.377648	0.000045
1564	1.5552e+02	-17.7284	-149.200425	0.000304	3.039907	1.029948	0.000122
1565	1.5562e+02	-17.6883	-149.168128	0.000081	0.810642	0.274653	0.000032
1566	1.5572e+02	-17.6562	-149.038940	0.000324	3.242567	1.098612	0.000130
1567	1.5582e+02	-17.6000	-148.982420	0.000142	1.418623	0.480643	0.000057
1568	1.5592e+02	-17.5615	-148.877455	0.000263	2.634586	0.892622	0.000105
1569	1.5602e+02	-17.5327	-148.784600	0.000233	2.330595	0.789627	0.000093
1570	1.5612e+02	-17.4893	-148.691746	0.000233	2.330595	0.789627	0.000093
1571	1.5622e+02	-17.4557	-148.602929	0.000223	2.229265	0.755295	0.000089
1572	1.5631e+02	-17.4027	-148.518150	0.000213	2.127935	0.720964	0.000085
1573	1.5641e+02	-17.3690	-148.392998	0.000314	3.141237	1.064280	0.000126
1574	1.5651e+02	-17.3257	-148.340516	0.000132	1.317293	0.446311	0.000053
1575	1.5661e+02	-17.2920	-148.174993	0.000415	4.154539	1.407596	0.000166
1576	1.5671e+02	-17.2519	-148.074065	0.000253	2.533256	0.858290	0.000101
1577	1.5681e+02	-17.2182	-147.977173	0.000243	2.431925	0.823959	0.000097
1578	1.5691e+02	-17.1701	-147.856059	0.000304	3.039907	1.029948	0.000122
1579	1.5701e+02	-17.1284	-147.698611	0.000395	3.951879	1.338933	0.000158
1580	1.5711e+02	-17.0819	-147.609794	0.000223	2.229265	0.755295	0.000089
1581	1.5721e+02	-17.0498	-147.496754	0.000284	2.837246	0.961285	0.000114
1582	1.5731e+02	-17.0209	-147.347380	0.000375	3.749218	1.270270	0.000150
1583	1.5741e+02	-16.9744	-147.246452	0.000253	2.533256	0.858290	0.000101
1584	1.5751e+02	-16.9198	-147.117263	0.000324	3.242567	1.098612	0.000130
1585	1.5761e+02	-16.8958	-146.975964	0.000355	3.546558	1.201606	0.000142
1586	1.5771e+02	-16.8541	-146.854850	0.000304	3.039907	1.029948	0.000122
1587	1.5781e+02	-16.8075	-146.737773	0.000294	2.938577	0.995617	0.000118
1588	1.5791e+02	-16.7706	-146.580324	0.000395	3.951879	1.338933	0.000158
1589	1.5801e+02	-16.7402	-146.471322	0.000274	2.735916	0.926953	0.000110
1590	1.5811e+02	-16.7033	-146.305799	0.000415	4.154539	1.407596	0.000166
1591	1.5821e+02	-16.6535	-146.212945	0.000233	2.330595	0.789627	0.000093
1592	1.5830e+02	-16.6006	-146.091831	0.000304	3.039907	1.029948	0.000122
1593	1.5840e+02	-16.5717	-145.930346	0.000405	4.053209	1.373264	0.000162
1594	1.5850e+02	-16.5332	-145.744637	0.000466	4.661190	1.579254	0.000187
1595	1.5860e+02	-16.4931	-145.599300	0.000365	3.647888	1.235938	0.000146
1596	1.5870e+02	-16.4434	-145.482223	0.000294	2.938577	0.995617	0.000118
1597	1.5880e+02	-16.4113	-145.344961	0.000345	3.445228	1.167275	0.000138
1598	1.5890e+02	-16.3776	-145.175401	0.000426	4.255870	1.441928	0.000170
1599	1.5900e+02	-16.3327	-145.021990	0.000385	3.850549	1.304601	0.000154
1600	1.5910e+02	-16.2974	-144.904913	0.000294	2.938577	0.995617	0.000118
1601	1.5920e+02	-16.2477	-144.723242	0.000456	4.559860	1.544922	0.000183
1602	1.5930e+02	-16.2156	-144.602128	0.000304	3.039907	1.029948	0.000122
1603	1.5940e+02	-16.1755	-144.432568	0.000426	4.255870	1.441928	0.000170
1604	1.5950e+02	-16.1322	-144.287231	0.000365	3.647888	1.235938	0.000146
1605	1.5960e+02	-16.1033	-144.129783	0.000395	3.951879	1.338933	0.000158
1606	1.5970e+02	-16.0552	-143.968298	0.000405	4.053209	1.373264	0.000162
1607	1.5980e+02	-16.0151	-143.802775	0.000415	4.154539	1.407596	0.000166
1608	1.5990e+02	-15.9685	-143.641290	0.000405	4.053209	1.373264	0.000162
1609	1.6000e+02	-15.9413	-143.463656	0.000446	4.458530	1.510591	0.000179
1610	1.6010e+02	-15.9028	-143.314282	0.000375	3.749218	1.270270	0.000150
1611	1.6019e+02	-15.8546	-143.177019	0.000345	3.445228	1.167275	0.000138
1612	1.6029e+02	-15.8161	-142.975162	0.000507	5.066511	1.716581	0.000203
1613	1.6039e+02	-15.7840	-142.894419	0.000203	2.026605	0.686632	0.000081
1614	1.6049e+02	-15.7375	-142.664303	0.000578	5.775823	1.956902	0.000231
1615	1.6059e+02	-15.7054	-142.547226	0.000294	2.938577	0.995617	0.000118
1616	1.6069e+02	-15.6541	-142.373629	0.000436	4.357200	1.476259	0.000174
1617	1.6079e+02	-15.6124	-142.204069	0.000426	4.255870	1.441928	0.000170
1618	1.6089e+02	-15.5755	-142.054695	0.000375	3.749218	1.270270	0.000150
1619	1.6099e+02	-15.5386	-141.844764	0.000527	5.269172	1.785244	0.000211
1620	1.6109e+02	-15.4857	-141.727687	0.000294	2.938577	0.995617	0.000118
1621	1.6119e+02	-15.4600	-141.541979	0.000466	4.661190	1.579254	0.000187
1622	1.6129e+02	-15.4183	-141.344159	0.000497	4.965181	1.682249	0.000199
1623	1.6139e+02	-15.3734	-141.178637	0.000415	4.154539	1.407596	0.000166
1624	1.6149e+02	-15.3349	-141.029263	0.000375	3.749218	1.270270	0.000150
1625	1.6159e+02	-15.2996	-140.851629	0.000446	4.458530	1.510591	0.000179
1626	1.6169e+02	-15.2530	-140.694180	0.000395	3.951879	1.338933	0.000158
1627	1.6179e+02	-15.2145	-140.532695	0.000405	4.053209	1.373264	0.000162
1628	1.6189e+02	-15.1776	-140.367172	0.000415	4.154539	1.407596	0.000166
1629	1.6199e+02	-15.1375	-140.201650	0.000415	4.154539	1.407596	0.000166
1630	1.6209e+02	-15.0958	-140.068424	0.000334	3.343897	1.132943	0.000134
1631	1.6219e+02	-15.0525	-139.870605	0.000497	4.965181	1.682249	0.000199
1632	1.6228e+02	-15.0156	-139.692971	0.000446	4.458530	1.510591	0.000179
1633	1.6238e+02	-14.9787	-139.519374	0.000436	4.357200	1.476259	0.000174
1634	1.6248e+02	-14.9370	-139.374037	0.000365	3.647888	1.235938	0.000146
1635	1.6258e+02	-14.9049	-139.176217	0.000497	4.965181	1.682249	0.000199
1636	1.6268e+02	-14.8664	-139.018769	0.000395	3.951879	1.338933	0.000158
1637	1.6278e+02	-14.8183	-138.873432	0.000365	3.647888	1.235938	0.000146
1638	1.6288e+02	-14.7798	-138.647353	0.000567	5.674493	1.922570	0.000227
1639	1.6298e+02	-14.7477	-138.497979	0.000375	3.749218	1.270270	0.000150
1640	1.6308e+02	-14.6980	-138.352642	0.000365	3.647888	1.235938	0.000146
1641	1.6318e+02	-14.6595	-138.199231	0.000385	3.850549	1.304601	0.000154
1642	1.6328e+02	-14.6178	-137.989300	0.000527	5.269172	1.785244	0.000211
1643	1.6338e+02	-14.5809	-137.815703	0.000436	4.357200	1.476259	0.000174
1644	1.6348e+02	-14.5376	-137.678440	0.000345	3.445228	1.167275	0.000138
1645	1.6358e+02	-14.5055	-137.472546	0.000517	5.167842	1.750912	0.000207
1646	1.6368e+02	-14.4525	-137.319135	0.000385	3.850549	1.304601	0.000154
1647	1.6378e+02	-14.4237	-137.113241	0.000517	5.167842	1.750912	0.000207
1648	1.6388e+02	-14.3868	-136.963867	0.000375	3.749218	1.270270	0.000150
1649	1.6398e+02	-14.3386	-136.798344	0.000415	4.154539	1.407596	0.000166
1650	1.6408e+02	-14.3033	-136.608599	0.000476	4.762521	1.613586	0.000191
1651	1.6418e+02	-14.2568	-136.430965	0.000446	4.458530	1.510591	0.000179
1652	1.6427e+02	-14.2135	-136.249294	0.000456	4.559860	1.544922	0.000183
1653	1.6437e+02	-14.1766	-136.079734	0.000426	4.255870	1.441928	0.000170
1654	1.6447e+02	-14.1509	-135.898063	0.000456	4.559860	1.544922	0.000183
1655	1.6457e+02	-14.0948	-135.708318	0.000476	4.762521	1.613586	0.000191
1656	1.6467e+02	-14.0595	-135.542795	0.000415	4.154539	1.407596	0.000166
1657	1.6477e+02	-14.0098	-135.381310	0.000405	4.053209	1.373264	0.000162
1658	1.6487e+02	-13.9825	-135.183490	0.000497	4.965181	1.682249	0.000199
1659	1.6497e+02	-13.9456	-134.973559	0.000527	5.269172	1.785244	0.000211
1660	1.6507e+02	-13.8975	-134.803999	0.000426	4.255870	1.441928	0.000170
1661	1.6517e+02	-13.8638	-134.662700	0.000355	3.546558	1.201606	0.000142
1662	1.6527e+02	-13.8269	-134.472954	0.000476	4.762521	1.613586	0.000191
1663	1.6537e+02	-13.7820	-134.283209	0.000476	4.762521	1.613586	0.000191
1664	1.6547e+02	-13.7419	-134.121723	0.000405	4.053209	1.373264	0.000162
1665	1.6557e+02	-13.7001	-133.936015	0.000466	4.661190	1.579254	0.000187
1666	1.6567e+02	-13.6633	-133.750307	0.000466	4.661190	1.579254	0.000187
1667	1.6577e+02	-13.6280	-133.556524	0.000486	4.863851	1.647917	0.000195
1668	1.6587e+02	-13.5895	-133.350631	0.000517	5.167842	1.750912	0.000207
1669	1.6597e+02	-13.5477	-133.217405	0.000334	3.343897	1.132943	0.000134
1670	1.6607e+02	-13.5028	-132.999400	0.000547	5.471832	1.853907	0.000219
1671	1.6616e+02	-13.4595	-132.829840	0.000426	4.255870	1.441928	0.000170
1672	1.6626e+02	-13.4226	-132.660280	0.000426	4.255870	1.441928	0.000170
1673	1.6636e+02	-13.3873	-132.458424	0.000507	5.066511	1.716581	0.000203
1674	1.6646e+02	-13.3488	-132.236381	0.000557	5.573162	1.888239	0.000223
1675	1.6656e+02	-13.3055	-132.143527	0.000233	2.330595	0.789627	0.000093
1676	1.6666e+02	-13.2654	-131.917447	0.000567	5.674493	1.922570	0.000227
1677	1.6676e+02	-13.2253	-131.687331	0.000578	5.775823	1.956902	0.000231
1678	1.6686e+02	-13.1884	-131.558142	0.000324	3.242567	1.098612	0.000130
1679	1.6696e+02	-13.1451	-131.352248	0.000517	5.167842	1.750912	0.000207
1680	1.6706e+02	-13.1034	-131.194800	0.000395	3.951879	1.338933	0.000158
1681	1.6716e+02	-13.0649	-131.013129	0.000456	4.559860	1.544922	0.000183
1682	1.6726e+02	-13.0248	-130.799161	0.000537	5.370502	1.819575	0.000215
1683	1.6736e+02	-12.9831	-130.629601	0.000426	4.255870	1.441928	0.000170
1684	1.6746e+02	-12.9413	-130.439856	0.000476	4.762521	1.613586	0.000191
1685	1.6756e+02	-12.9061	-130.237999	0.000507	5.066511	1.716581	0.000203
1686	1.6766e+02	-12.8692	-130.036142	0.000507	5.066511	1.716581	0.000203
1687	1.6776e+02	-12.8290	-129.890805	0.000365	3.647888	1.235938	0.000146
1688	1.6786e+02	-12.7905	-129.717208	0.000436	4.357200	1.476259	0.000174
1689	1.6796e+02	-12.7537	-129.535537	0.000456	4.559860	1.544922	0.000183
1690	1.6806e+02	-12.7184	-129.341755	0.000486	4.863851	1.647917	0.000195
1691	1.6816e+02	-12.6622	-129.152009	0.000476	4.762521	1.613586	0.000191
1692	1.6825e+02	-12.6381	-128.970338	0.000456	4.559860	1.544922	0.000183
1693	1.6835e+02	-12.5932	-128.780593	0.000476	4.762521	1.613586	0.000191
1694	1.6845e+02	-12.5515	-128.590848	0.000476	4.762521	1.613586	0.000191
1695	1.6855e+02	-12.5146	-128.380916	0.000527	5.269172	1.785244	0.000211
1696	1.6865e+02	-12.4649	-128.166948	0.000537	5.370502	1.819575	0.000215
1697	1.6875e+02	-12.4328	-128.005463	0.000405	4.053209	1.373264	0.000162
1698	1.6885e+02	-12.3943	-127.852052	0.000385	3.850549	1.304601	0.000154
1699	1.6895e+02	-12.3542	-127.597712	0.000638	6.383804	2.162891	0.000256
1700	1.6905e+02	-12.2932	-127.452375	0.000365	3.647888	1.235938	0.000146
1701	1.6915e+02	-12.2724	-127.254556	0.000497	4.965181	1.682249	0.000199
1702	1.6925e+02	-12.2371	-127.056736	0.000497	4.965181	1.682249	0.000199
1703	1.6935e+02	-12.1874	-126.866991	0.000476	4.762521	1.613586	0.000191
1704	1.6945e+02	-12.1489	-126.661097	0.000517	5.167842	1.750912	0.000207
1705	1.6955e+02	-12.1200	-126.467314	0.000486	4.863851	1.647917	0.000195
1706	1.6965e+02	-12.0686	-126.289680	0.000446	4.458530	1.510591	0.000179
1707	1.6975e+02	-12.0317	-126.083786	0.000517	5.167842	1.750912	0.000207
1708	1.6985e+02	-11.9965	-125.890004	0.000486	4.863851	1.647917	0.000195
1709	1.6995e+02	-11.9515	-125.720444	0.000426	4.255870	1.441928	0.000170
1710	1.7005e+02	-11.9178	-125.518587	0.000507	5.066511	1.716581	0.000203
1711	1.7015e+02	-11.8665	-125.324805	0.000486	4.863851	1.647917	0.000195
1712	1.7024e+02	-11.8328	-125.135059	0.000476	4.762521	1.613586	0.000191
1713	1.7034e+02	-11.7927	-124.925128	0.000527	5.269172	1.785244	0.000211
1714	1.7044e+02	-11.7542	-124.695012	0.000578	5.775823	1.956902	0.000231
1715	1.7054e+02	-11.7141	-124.541600	0.000385	3.850549	1.304601	0.000154
1716	1.7064e+02	-11.6788	-124.327632	0.000537	5.370502	1.819575	0.000215
1717	1.7074e+02	-11.6323	-124.097515	0.000578	5.775823	1.956902	0.000231
1718	1.7084e+02	-11.5890	-123.923919	0.000436	4.357200	1.476259	0.000174
1719	1.7094e+02	-11.5585	-123.750322	0.000436	4.357200	1.476259	0.000174
1720	1.7104e+02	-11.5136	-123.524242	0.000567	5.674493	1.922570	0.000227
1721	1.7114e+02	-11.4783	-123.314311	0.000527	5.269172	1.785244	0.000211
1722	1.7124e+02	-11.4398	-123.116491	0.000497	4.965181	1.682249	0.000199
1723	1.7134e+02	-11.3981	-122.918672	0.000497	4.965181	1.682249	0.000199
1724	1.7144e+02	-11.3435	-122.737001	0.000456	4.559860	1.544922	0.000183
1725	1.7154e+02	-11.3211	-122.551292	0.000466	4.661190	1.579254	0.000187
1726	1.7164e+02	-11.2697	-122.337324	0.000537	5.370502	1.819575	0.000215
1727	1.7174e+02	-11.2264	-122.127393	0.000527	5.269172	1.785244	0.000211
1728	1.7184e+02	-11.1911	-121.969945	0.000395	3.951879	1.338933	0.000158
1729	1.7194e+02	-11.1623	-121.747902	0.000557	5.573162	1.888239	0.000223
1730	1.7204e+02	-11.1173	-121.489526	0.000649	6.485134	2.197223	0.000260
1731	1.7213e+02	-11.0804	-121.315929	0.000436	4.357200	1.476259	0.000174
1732	1.7223e+02	-11.0307	-121.142332	0.000436	4.357200	1.476259	0.000174
1733	1.7233e+02	-10.9922	-120.875881	0.000669	6.687795	2.265886	0.000268
1734	1.7243e+02	-10.9601	-120.690173	0.000466	4.661190	1.579254	0.000187
1735	1.7253e+02	-10.9104	-120.496390	0.000486	4.863851	1.647917	0.000195
1736	1.7263e+02	-10.8703	-120.274348	0.000557	5.573162	1.888239	0.000223
1737	1.7273e+02	-10.8254	-120.096714	0.000446	4.458530	1.510591	0.000179
1738	1.7283e+02	-10.7917	-119.850449	0.000618	6.181144	2.094228	0.000248
1739	1.7293e+02	-10.7580	-119.656666	0.000486	4.863851	1.647917	0.000195
1740	1.7303e+02	-10.7131	-119.434624	0.000557	5.573162	1.888239	0.000223
1741	1.7313e+02	-10.6890	-119.244878	0.000476	4.762521	1.613586	0.000191
1742	1.7323e+02	-10.6409	-119.047059	0.000497	4.965181	1.682249	0.000199
1743	1.7333e+02	-10.5944	-118.833090	0.000537	5.370502	1.819575	0.000215
1744	1.7343e+02	-10.5623	-118.635271	0.000497	4.965181	1.682249	0.000199
1745	1.7353e+02	-10.5109	-118.433414	0.000507	5.066511	1.716581	0.000203
1746	1.7363e+02	-10.4805	-118.203297	0.000578	5.775823	1.956902	0.000231
1747	1.7373e+02	-10.4371	-117.948958	0.000638	6.383804	2.162891	0.000256
1748	1.7383e+02	-10.4051	-117.811695	0.000345	3.445228	1.167275	0.000138
1749	1.7393e+02	-10.3537	-117.621950	0.000476	4.762521	1.613586	0.000191
1750	1.7403e+02	-10.3120	-117.403944	0.000547	5.471832	1.853907	0.000219
1751	1.7413e+02	-10.2767	-117.169791	0.000588	5.877153	1.991233	0.000235
1752	1.7422e+02	-10.2398	-116.959859	0.000527	5.269172	1.785244	0.000211
1753	1.7432e+02	-10.2077	-116.753966	0.000517	5.167842	1.750912	0.000207
1754	1.7442e+02	-10.1660	-116.544034	0.000527	5.269172	1.785244	0.000211
1755	1.7452e+02	-10.1147	-116.321992	0.000557	5.573162	1.888239	0.000223
1756	1.7462e+02	-10.0762	-116.108024	0.000537	5.370502	1.819575	0.000215
1757	1.7472e+02	-10.0425	-115.877907	0.000578	5.775823	1.956902	0.000231
1758	1.7482e+02	-9.9928	-115.684125	0.000486	4.863851	1.647917	0.000195
1759	1.7492e+02	-9.9527	-115.462082	0.000557	5.573162	1.888239	0.000223
1760	1.7502e+02	-9.9174	-115.252151	0.000527	5.269172	1.785244	0.000211
1761	1.7512e+02	-9.8805	-115.022034	0.000578	5.775823	1.956902	0.000231
1762	1.7522e+02	-9.8259	-114.820178	0.000507	5.066511	1.716581	0.000203
1763	1.7532e+02	-9.8003	-114.626395	0.000486	4.863851	1.647917	0.000195
1764	1.7542e+02	-9.7585	-114.416464	0.000527	5.269172	1.785244	0.000211
1765	1.7552e+02	-9.7249	-114.186347	0.000578	5.775823	1.956902	0.000231
1766	1.7562e+02	-9.6703	-113.944119	0.000608	6.079814	2.059897	0.000243
1767	1.7572e+02	-9.6398	-113.750337	0.000486	4.863851	1.647917	0.000195
1768	1.7582e+02	-9.6110	-113.491960	0.000649	6.485134	2.197223	0.000260
1769	1.7592e+02	-9.5580	-113.314326	0.000446	4.458530	1.510591	0.000179
1770	1.7602e+02	-9.5179	-113.092283	0.000557	5.573162	1.888239	0.000223
1771	1.7612e+02	-9.4778	-112.910612	0.000456	4.559860	1.544922	0.000183
1772	1.7621e+02	-9.4425	-112.623976	0.000719	7.194446	2.437544	0.000288
1773	1.7631e+02	-9.3976	-112.474602	0.000375	3.749218	1.270270	0.000150
1774	1.7641e+02	-9.3623	-112.204114	0.000679	6.789125	2.300218	0.000272
1775	1.7651e+02	-9.3206	-112.014368	0.000476	4.762521	1.613586	0.000191
1776	1.7661e+02	-9.2789	-111.800400	0.000537	5.370502	1.819575	0.000215
1777	1.7671e+02	-9.2532	-111.546060	0.000638	6.383804	2.162891	0.000256
1778	1.7681e+02	-9.1939	-111.295758	0.000628	6.282474	2.128560	0.000252
1779	1.7691e+02	-9.1618	-111.114087	0.000456	4.559860	1.544922	0.000183
1780	1.7701e+02	-9.1265	-110.912230	0.000507	5.066511	1.716581	0.000203
1781	1.7711e+02	-9.0832	-110.670002	0.000608	6.079814	2.059897	0.000243
1782	1.7721e+02	-9.0415	-110.415662	0.000638	6.383804	2.162891	0.000256
1783	1.7731e+02	-8.9965	-110.205731	0.000527	5.269172	1.785244	0.000211
1784	1.7741e+02	-8.9677	-110.015986	0.000476	4.762521	1.613586	0.000191
1785	1.7751e+02	-8.9276	-109.741461	0.000689	6.890455	2.334549	0.000276
1786	1.7761e+02	-8.8746	-109.571901	0.000426	4.255870	1.441928	0.000170
1787	1.7771e+02	-8.8361	-109.317562	0.000638	6.383804	2.162891	0.000256
1788	1.7781e+02	-8.7896	-109.115705	0.000507	5.066511	1.716581	0.000203
1789	1.7791e+02	-8.7543	-108.869439	0.000618	6.181144	2.094228	0.000248
1790	1.7801e+02	-8.7254	-108.695843	0.000436	4.357200	1.476259	0.000174
1791	1.7810e+02	-8.6773	-108.445540	0.000628	6.282474	2.128560	0.000252
1792	1.7820e+02	-8.6436	-108.231572	0.000537	5.370502	1.819575	0.000215
1793	1.7830e+02	-8.6083	-107.981270	0.000628	6.282474	2.128560	0.000252
1794	1.7840e+02	-8.5650	-107.771339	0.000527	5.269172	1.785244	0.000211
1795	1.7850e+02	-8.5265	-107.573519	0.000497	4.965181	1.682249	0.000199
1796	1.7860e+02	-8.4864	-107.339365	0.000588	5.877153	1.991233	0.000235
1797	1.7870e+02	-8.4383	-107.056766	0.000709	7.093116	2.403213	0.000284
1798	1.7880e+02	-8.4062	-106.879132	0.000446	4.458530	1.510591	0.000179
1799	1.7890e+02	-8.3709	-106.640941	0.000598	5.978483	2.025565	0.000239
1800	1.7900e+02	-8.3163	-106.459269	0.000456	4.559860	1.544922	0.000183
1801	1.7910e+02	-8.2843	-106.188781	0.000679	6.789125	2.300218	0.000272
1802	1.7920e+02	-8.2474	-105.986925	0.000507	5.066511	1.716581	0.000203
1803	1.7930e+02	-8.2057	-105.772956	0.000537	5.370502	1.819575	0.000215
1804	1.7940e+02	-8.1591	-105.558988	0.000537	5.370502	1.819575	0.000215
1805	1.7950e+02	-8.1319	-105.312723	0.000618	6.181144	2.094228	0.000248
1806	1.7960e+02	-8.0853	-105.078569	0.000588	5.877153	1.991233	0.000235
1807	1.7970e+02	-8.0420	-104.888824	0.000476	4.762521	1.613586	0.000191
1808	1.7980e+02	-8.0099	-104.666781	0.000557	5.573162	1.888239	0.000223
1809	1.7990e+02	-7.9650	-104.408404	0.000649	6.485134	2.197223	0.000260
1810	1.8000e+02	-7.9297	-104.186362	0.000557	5.573162	1.888239	0.000223
1811	1.8009e+02	-7.8880	-103.972394	0.000537	5.370502	1.819575	0.000215
1812	1.8019e+02	-7.8591	-103.762463	0.000527	5.269172	1.785244	0.000211
1813	1.8029e+02	-7.8030	-103.500049	0.000659	6.586465	2.231555	0.000264
1814	1.8039e+02	-7.7613	-103.249747	0.000628	6.282474	2.128560	0.000252
1815	1.8049e+02	-7.7308	-103.055964	0.000486	4.863851	1.647917	0.000195
1816	1.8059e+02	-7.6827	-102.801624	0.000638	6.383804	2.162891	0.000256
1817	1.8069e+02	-7.6458	-102.575545	0.000567	5.674493	1.922570	0.000227
1818	1.8079e+02	-7.6025	-102.341391	0.000588	5.877153	1.991233	0.000235
1819	1.8089e+02	-7.5640	-102.139534	0.000507	5.066511	1.716581	0.000203
1820	1.8099e+02	-7.5271	-101.933640	0.000517	5.167842	1.750912	0.000207
1821	1.8109e+02	-7.4934	-101.679301	0.000638	6.383804	2.162891	0.000256
1822	1.8119e+02	-7.4452	-101.481481	0.000497	4.965181	1.682249	0.000199
1823	1.8129e+02	-7.4116	-101.223104	0.000649	6.485134	2.197223	0.000260
1824	1.8139e+02	-7.3682	-100.992988	0.000578	5.775823	1.956902	0.000231
1825	1.8149e+02	-7.3346	-100.726537	0.000669	6.687795	2.265886	0.000268
1826	1.8159e+02	-7.2880	-100.512568	0.000537	5.370502	1.819575	0.000215
1827	1.8169e+02	-7.2495	-100.314749	0.000497	4.965181	1.682249	0.000199
1828	1.8179e+02	-7.2078	-100.028112	0.000719	7.194446	2.437544	0.000288
1829	1.8189e+02	-7.1693	-99.826255	0.000507	5.066511	1.716581	0.000203
1830	1.8199e+02	-7.1212	-99.620361	0.000517	5.167842	1.750912	0.000207
1831	1.8209e+02	-7.0907	-99.361985	0.000649	6.485134	2.197223	0.000260
1832	1.8218e+02	-7.0490	-99.143979	0.000547	5.471832	1.853907	0.000219
1833	1.8228e+02	-7.0025	-98.901751	0.000608	6.079814	2.059897	0.000243
1834	1.8238e+02	-6.9624	-98.655486	0.000618	6.181144	2.094228	0.000248
1835	1.8248e+02	-6.9351	-98.433444	0.000557	5.573162	1.888239	0.000223
1836	1.8258e+02	-6.8838	-98.219475	0.000537	5.370502	1.819575	0.000215
1837	1.8268e+02	-6.8469	-97.953024	0.000669	6.687795	2.265886	0.000268
1838	1.8278e+02	-6.8164	-97.706759	0.000618	6.181144	2.094228	0.000248
1839	1.8288e+02	-6.7699	-97.496828	0.000527	5.269172	1.785244	0.000211
1840	1.8298e+02	-6.7330	-97.282860	0.000537	5.370502	1.819575	0.000215
1841	1.8308e+02	-6.6913	-97.028520	0.000638	6.383804	2.162891	0.000256
1842	1.8318e+02	-6.6560	-96.774181	0.000638	6.383804	2.162891	0.000256
1843	1.8328e+02	-6.6175	-96.540027	0.000588	5.877153	1.991233	0.000235
1844	1.8338e+02	-6.5693	-96.326059	0.000537	5.370502	1.819575	0.000215
1845	1.8348e+02	-6.5260	-96.112091	0.000537	5.370502	1.819575	0.000215
1846	1.8358e+02	-6.4859	-95.869862	0.000608	6.079814	2.059897	0.000243
1847	1.8368e+02	-6.4538	-95.611486	0.000649	6.485134	2.197223	0.000260
1848	1.8378e+02	-6.4105	-95.385406	0.000567	5.674493	1.922570	0.000227
1849	1.8388e+02	-6.3736	-95.175475	0.000527	5.269172	1.785244	0.000211
1850	1.8398e+02	-6.3271	-94.917098	0.000649	6.485134	2.197223	0.000260
1851	1.8407e+02	-6.2950	-94.699093	0.000547	5.471832	1.853907	0.000219
1852	1.8417e+02	-6.2613	-94.481088	0.000547	5.471832	1.853907	0.000219
1853	1.8427e+02	-6.2116	-94.255008	0.000567	5.674493	1.922570	0.000227
1854	1.8437e+02	-6.1763	-93.992594	0.000659	6.586465	2.231555	0.000264
1855	1.8447e+02	-6.1330	-93.754403	0.000598	5.978483	2.025565	0.000239
1856	1.8457e+02	-6.0929	-93.516212	0.000598	5.978483	2.025565	0.000239
1857	1.8467e+02	-6.0464	-93.306281	0.000527	5.269172	1.785244	0.000211
1858	1.8477e+02	-6.0143	-92.999459	0.000770	7.701097	2.609202	0.000308
1859	1.8487e+02	-5.9790	-92.773379	0.000567	5.674493	1.922570	0.000227
1860	1.8497e+02	-5.9341	-92.527114	0.000618	6.181144	2.094228	0.000248
1861	1.8507e+02	-5.9020	-92.341406	0.000466	4.661190	1.579254	0.000187
1862	1.8517e+02	-5.8522	-92.115326	0.000567	5.674493	1.922570	0.000227
1863	1.8527e+02	-5.8041	-91.852912	0.000659	6.586465	2.231555	0.000264
1864	1.8537e+02	-5.7784	-91.610684	0.000608	6.079814	2.059897	0.000243
1865	1.8547e+02	-5.7367	-91.364419	0.000618	6.181144	2.094228	0.000248
1866	1.8557e+02	-5.6918	-91.089894	0.000689	6.890455	2.334549	0.000276
1867	1.8567e+02	-5.6613	-90.875925	0.000537	5.370502	1.819575	0.000215
1868	1.8577e+02	-5.6180	-90.645809	0.000578	5.775823	1.956902	0.000231
1869	1.8587e+02	-5.5715	-90.415692	0.000578	5.775823	1.956902	0.000231
1870	1.8597e+02	-5.5298	-90.161352	0.000638	6.383804	2.162891	0.000256
1871	1.8606e+02	-5.5009	-89.898939	0.000659	6.586465	2.231555	0.000264
1872	1.8616e+02	-5.4592	-89.648636	0.000628	6.282474	2.128560	0.000252
1873	1.8626e+02	-5.4175	-89.446779	0.000507	5.066511	1.716581	0.000203
1874	1.8636e+02	-5.3726	-89.192440	0.000638	6.383804	2.162891	0.000256
1875	1.8646e+02	-5.3453	-88.925989	0.000669	6.687795	2.265886	0.000268
1876	1.8656e+02	-5.2988	-88.683761	0.000608	6.079814	2.059897	0.000243
1877	1.8666e+02	-5.2651	-88.449607	0.000588	5.877153	1.991233	0.000235
1878	1.8676e+02	-5.2250	-88.187193	0.000659	6.586465	2.231555	0.000264
1879	1.8686e+02	-5.1785	-87.973225	0.000537	5.370502	1.819575	0.000215
1880	1.8696e+02	-5.1432	-87.718885	0.000638	6.383804	2.162891	0.000256
1881	1.8706e+02	-5.0902	-87.460509	0.000649	6.485134	2.197223	0.000260
1882	1.8716e+02	-5.0565	-87.202132	0.000649	6.485134	2.197223	0.000260
1883	1.8726e+02	-5.0277	-86.972015	0.000578	5.775823	1.956902	0.000231
1884	1.8736e+02	-4.9747	-86.725750	0.000618	6.181144	2.094228	0.000248
1885	1.8746e+02	-4.9346	-86.471410	0.000638	6.383804	2.162891	0.000256
1886	1.8756e+02	-4.9009	-86.208997	0.000659	6.586465	2.231555	0.000264
1887	1.8766e+02	-4.8576	-85.962731	0.000618	6.181144	2.094228	0.000248
1888	1.8776e+02	-4.8239	-85.700317	0.000659	6.586465	2.231555	0.000264
1889	1.8786e+02	-4.7774	-85.425792	0.000689	6.890455	2.334549	0.000276
1890	1.8796e+02	-4.7437	-85.187601	0.000598	5.978483	2.025565	0.000239
1891	1.8806e+02	-4.6988	-84.957484	0.000578	5.775823	1.956902	0.000231
1892	1.8815e+02	-4.6683	-84.678922	0.000699	6.991786	2.368881	0.000280
1893	1.8825e+02	-4.6218	-84.404397	0.000689	6.890455	2.334549	0.000276
1894	1.8835e+02	-4.5833	-84.194466	0.000527	5.269172	1.785244	0.000211
1895	1.8845e+02	-4.5448	-83.928015	0.000669	6.687795	2.265886	0.000268
1896	1.8855e+02	-4.5063	-83.701935	0.000567	5.674493	1.922570	0.000227
1897	1.8865e+02	-4.4678	-83.423373	0.000699	6.991786	2.368881	0.000280
1898	1.8875e+02	-4.4181	-83.152885	0.000679	6.789125	2.300218	0.000272
1899	1.8885e+02	-4.3763	-82.894508	0.000649	6.485134	2.197223	0.000260
1900	1.8895e+02	-4.3411	-82.680540	0.000537	5.370502	1.819575	0.000215
1901	1.8905e+02	-4.3026	-82.385829	0.000740	7.397107	2.506208	0.000296
1902	1.8915e+02	-4.2673	-82.151675	0.000588	5.877153	1.991233	0.000235
1903	1.8925e+02	-4.2352	-81.865038	0.000719	7.194446	2.437544	0.000288
1904	1.8935e+02	-4.1951	-81.659145	0.000517	5.167842	1.750912	0.000207
1905	1.8945e+02	-4.1437	-81.388656	0.000679	6.789125	2.300218	0.000272
1906	1.8955e+02	-4.0972	-81.126243	0.000659	6.586465	2.231555	0.000264
1907	1.8965e+02	-4.0619	-80.867866	0.000649	6.485134	2.197223	0.000260
1908	1.8975e+02	-4.0330	-80.601415	0.000669	6.687795	2.265886	0.000268
1909	1.8985e+02	-3.9833	-80.326890	0.000689	6.890455	2.334549	0.000276
1910	1.8995e+02	-3.9432	-80.092736	0.000588	5.877153	1.991233	0.000235
1911	1.9004e+02	-3.9079	-79.810136	0.000709	7.093116	2.403213	0.000284
1912	1.9014e+02	-3.8614	-79.519463	0.000730	7.295776	2.471876	0.000292
1913	1.9024e+02	-3.8389	-79.321643	0.000497	4.965181	1.682249	0.000199
1914	1.9034e+02	-3.7860	-79.006746	0.000790	7.903758	2.677866	0.000316
1915	1.9044e+02	-3.7539	-78.772593	0.000588	5.877153	1.991233	0.000235
1916	1.9054e+02	-3.6962	-78.510179	0.000659	6.586465	2.231555	0.000264
1917	1.9064e+02	-3.6657	-78.239691	0.000679	6.789125	2.300218	0.000272
1918	1.9074e+02	-3.6191	-77.973240	0.000669	6.687795	2.265886	0.000268
1919	1.9084e+02	-3.5903	-77.718900	0.000638	6.383804	2.162891	0.000256
1920	1.9094e+02	-3.5454	-77.484746	0.000588	5.877153	1.991233	0.000235
1921	1.9104e+02	-3.5101	-77.210221	0.000689	6.890455	2.334549	0.000276
1922	1.9114e+02	-3.4635	-76.955881	0.000638	6.383804	2.162891	0.000256
1923	1.9124e+02	-3.4218	-76.685393	0.000679	6.789125	2.300218	0.000272
1924	1.9134e+02	-3.3881	-76.422980	0.000659	6.586465	2.231555	0.000264
1925	1.9144e+02	-3.3400	-76.180751	0.000608	6.079814	2.059897	0.000243
1926	1.9154e+02	-3.3111	-75.910263	0.000679	6.789125	2.300218	0.000272
1927	1.9164e+02	-3.2646	-75.663998	0.000618	6.181144	2.094228	0.000248
1928	1.9174e+02	-3.2309	-75.349101	0.000790	7.903758	2.677866	0.000316
1929	1.9184e+02	-3.1860	-75.135133	0.000537	5.370502	1.819575	0.000215
1930	1.9194e+02	-3.1395	-74.828311	0.000770	7.701097	2.609202	0.000308
1931	1.9203e+02	-3.1122	-74.545711	0.000709	7.093116	2.403213	0.000284
1932	1.9213e+02	-3.0721	-74.307520	0.000598	5.978483	2.025565	0.000239
1933	1.9223e+02	-3.0336	-74.101626	0.000517	5.167842	1.750912	0.000207
1934	1.9233e+02	-2.9839	-73.774618	0.000821	8.207748	2.780860	0.000329
1935	1.9243e+02	-2.9502	-73.512205	0.000659	6.586465	2.231555	0.000264
1936	1.9253e+02	-2.9101	-73.229605	0.000709	7.093116	2.403213	0.000284
1937	1.9263e+02	-2.8764	-72.922783	0.000770	7.701097	2.609202	0.000308
1938	1.9273e+02	-2.8234	-72.729000	0.000486	4.863851	1.647917	0.000195
1939	1.9283e+02	-2.7882	-72.434289	0.000740	7.397107	2.506208	0.000296
1940	1.9293e+02	-2.7400	-72.159764	0.000689	6.890455	2.334549	0.000276
1941	1.9303e+02	-2.7047	-71.881202	0.000699	6.991786	2.368881	0.000280
1942	1.9313e+02	-2.6630	-71.638974	0.000608	6.079814	2.059897	0.000243
1943	1.9323e+02	-2.6342	-71.316003	0.000811	8.106418	2.746529	0.000325
1944	1.9333e+02	-2.5892	-71.081849	0.000588	5.877153	1.991233	0.000235
1945	1.9343e+02	-2.5555	-70.815398	0.000669	6.687795	2.265886	0.000268
1946	1.9353e+02	-2.5122	-70.544910	0.000679	6.789125	2.300218	0.000272
1947	1.9363e+02	-2.4657	-70.230013	0.000790	7.903758	2.677866	0.000316
1948	1.9373e+02	-2.4288	-69.947414	0.000709	7.093116	2.403213	0.000284
1949	1.9383e+02	-2.3807	-69.725371	0.000557	5.573162	1.888239	0.000223
1950	1.9393e+02	-2.3518	-69.442772	0.000709	7.093116	2.403213	0.000284
1951	1.9403e+02	-2.3037	-69.176321	0.000669	6.687795	2.265886	0.000268
1952	1.9412e+02	-2.2796	-68.905833	0.000679	6.789125	2.300218	0.000272
1953	1.9422e+02	-2.2267	-68.639382	0.000669	6.687795	2.265886	0.000268
1954	1.9432e+02	-2.1914	-68.385042	0.000638	6.383804	2.162891	0.000256
1955	1.9442e+02	-2.1561	-68.086294	0.000750	7.498437	2.540539	0.000300
1956	1.9452e+02	-2.1128	-67.803695	0.000709	7.093116	2.403213	0.000284
1957	1.9462e+02	-2.0679	-67.533207	0.000679	6.789125	2.300218	0.000272
1958	1.9472e+02	-2.0294	-67.258681	0.000689	6.890455	2.334549	0.000276
1959	1.9482e+02	-1.9892	-67.016453	0.000608	6.079814	2.059897	0.000243
1960	1.9492e+02	-1.9475	-66.733854	0.000709	7.093116	2.403213	0.000284
1961	1.9502e+02	-1.9058	-66.463366	0.000679	6.789125	2.300218	0.000272
1962	1.9512e+02	-1.8737	-66.196915	0.000669	6.687795	2.265886	0.000268
1963	1.9522e+02	-1.8385	-65.946612	0.000628	6.282474	2.128560	0.000252
1964	1.9532e+02	-1.7887	-65.599419	0.000871	8.714399	2.952518	0.000349
1965	1.9542e+02	-1.7550	-65.337005	0.000659	6.586465	2.231555	0.000264
1966	1.9552e+02	-1.7053	-65.070554	0.000669	6.687795	2.265886	0.000268
1967	1.9562e+02	-1.6732	-64.828326	0.000608	6.079814	2.059897	0.000243
1968	1.9572e+02	-1.6267	-64.525541	0.000760	7.599767	2.574871	0.000304
1969	1.9582e+02	-1.5946	-64.275238	0.000628	6.282474	2.128560	0.000252
1970	1.9592e+02	-1.5545	-63.988601	0.000719	7.194446	2.437544	0.000288
1971	1.9601e+02	-1.5224	-63.722150	0.000669	6.687795	2.265886	0.000268
1972	1.9611e+02	-1.4727	-63.435514	0.000719	7.194446	2.437544	0.000288
1973	1.9621e+02	-1.4342	-63.169063	0.000669	6.687795	2.265886	0.000268
1974	1.9631e+02	-1.3941	-62.918760	0.000628	6.282474	2.128560	0.000252
1975	1.9641e+02	-1.3556	-62.640198	0.000699	6.991786	2.368881	0.000280
1976	1.9651e+02	-1.3171	-62.349524	0.000730	7.295776	2.471876	0.000292
1977	1.9661e+02	-1.2689	-62.083073	0.000669	6.687795	2.265886	0.000268
1978	1.9671e+02	-1.2256	-61.836808	0.000618	6.181144	2.094228	0.000248
1979	1.9681e+02	-1.1984	-61.521912	0.000790	7.903758	2.677866	0.000316
1980	1.9691e+02	-1.1663	-61.231238	0.000730	7.295776	2.471876	0.000292
1981	1.9701e+02	-1.1149	-60.948638	0.000709	7.093116	2.403213	0.000284
1982	1.9711e+02	-1.0700	-60.690262	0.000649	6.485134	2.197223	0.000260
1983	1.9721e+02	-1.0444	-60.431885	0.000649	6.485134	2.197223	0.000260
1984	1.9731e+02	-0.9930	-60.181582	0.000628	6.282474	2.128560	0.000252
1985	1.9741e+02	-0.9465	-59.870723	0.000780	7.802427	2.643534	0.000312
1986	1.9751e+02	-0.9064	-59.612346	0.000649	6.485134	2.197223	0.000260
1987	1.9761e+02	-0.8759	-59.366081	0.000618	6.181144	2.094228	0.000248
1988	1.9771e+02	-0.8326	-59.035036	0.000831	8.309079	2.815192	0.000333
1989	1.9781e+02	-0.7909	-58.736288	0.000750	7.498437	2.540539	0.000300
1990	1.9791e+02	-0.7492	-58.453688	0.000709	7.093116	2.403213	0.000284
1991	1.9800e+02	-0.7171	-58.183200	0.000679	6.789125	2.300218	0.000272
1992	1.9810e+02	-0.6786	-57.953084	0.000578	5.775823	1.956902	0.000231
1993	1.9820e+02	-0.6273	-57.646261	0.000770	7.701097	2.609202	0.000308
1994	1.9830e+02	-0.5952	-57.363662	0.000709	7.093116	2.403213	0.000284
1995	1.9840e+02	-0.5567	-57.085099	0.000699	6.991786	2.368881	0.000280
1996	1.9850e+02	-0.5246	-56.834797	0.000628	6.282474	2.128560	0.000252
1997	1.9860e+02	-0.4797	-56.515863	0.000801	8.005088	2.712197	0.000321
1998	1.9870e+02	-0.4412	-56.277672	0.000598	5.978483	2.025565	0.000239
1999	1.9880e+02	-0.3995	-55.958738	0.000801	8.005088	2.712197	0.000321
2000	1.9890e+02	-0.3545	-55.716510	0.000608	6.079814	2.059897	0.000243
2001	1.9900e+02	-0.3208	-55.409688	0.000770	7.701097	2.609202	0.000308
2002	1.9910e+02	-0.2743	-55.135163	0.000689	6.890455	2.334549	0.000276
2003	1.9920e+02	-0.2422	-54.848526	0.000719	7.194446	2.437544	0.000288
2004	1.9930e+02	-0.1973	-54.561889	0.000719	7.194446	2.437544	0.000288
2005	1.9940e+02	-0.1620	-54.319661	0.000608	6.079814	2.059897	0.000243
2006	1.9950e+02	-0.1187	-54.020913	0.000750	7.498437	2.540539	0.000300
2007	1.9960e+02	-0.0834	-53.730240	0.000730	7.295776	2.471876	0.000292
2008	1.9970e+02	-0.0385	-53.483974	0.000618	6.181144	2.094228	0.000248
2009	1.9980e+02	0.0048	-53.189263	0.000618	6.181144	2.094228	0.000296

PMax (uC/cm2):	1.35e+02
Pr (uC/cm2):	1.38e+01
-Pr (uC/cm2):	-6.76e+01
PLoss (uC/cm2):	-6.76e+01
-Vc:	-1.95e+00
C (Max-Eff) (nF):	6.77e-01
K (Eff):	2.30e+03
Vert. (+/-Pr) Shift (uC/cm2):	-2.69e+01
Offset (uC/cm2):	-1.45e+01

A (Loop Area - uC/cm2·Volts):	-3.69e-02



Hysteresis Version: 5.48.1 - Radiant Technologies, Inc., 1999 - 9/12/24

