»»»»»»»»»»»»»»»»»»»»»»»»»»»»»»»»»»»» Hysteresis ««««««««««««««««««««««««««««««««««««
»»»  Executed Version:	5.48.1
»»»  Vision Version:	5.48.4 (R)
»»»  Vision Compiled:	9/18/24
»»»  Driver Version:	5.47.0
»»»  Windows Version:	Windows 8 or 8.1
»»»  Processor Information:	x86 (AMD or Intel) - 32 Processors
»»»  Tester Name:	PMF21124-494 (100V)
»»»  Tester S/N:	PMF21124-494
»»»  Internal Amp Type:	100V RevK 270k
»»»  Internal Amp S/N:	iAB2-596/K     
»»»  Execution Count:	1
»»»»»»»»»»»»»»»»»»»»»»»»»»»»»»»»»»»»»»»»»»««««««««««««««««««««««««««««««««««««««««««

Stored:	6/18/2025 - 12:27:4
Configured:	06/18/25 09:47:30 AM
Executed:	06/18/25 12:26:25 PM

»»»»»»»»»»»»»»»»»»»»»»»»»»»»»»»»»»» Sample Info ««««««««««««««««««««««««««««««««««««
Sample Name:	
Lot Name:	
Wafer Name:	
Die Row/Column:	0/0
Capacitor Number:	0
Sample Area (cm2):	1.00e-04
Sample Thickness (microns):	3.00e-01

Amplifier:	Internal

»»»»»»»»»»»»»»»»»»»»»»»»»»»»»»»»»»» Tester Info «««««««««««««««««««««««««««««««««««
Tester Name:	PMF21124-494 (100V)
Tester Serial Number:	PMF21124-494
Return Signal Amp. Level:	0.19 [Index: 3]

»»»»»»»»»»»»»»»»»»»»»»»»»»»»»»»» Hysteresis Info ««««««««««««««««««««««««««««««««««
Task Name:	Hyst-554
Volts:	20.00
Field:	666.67 (kV/cm)
DCBias:	0.00
DCField:	0.00 (kV/cm)
Hysteresis Period (ms):	2.00e+02
Preset:	Enabled
Preset Delay (ms):	1.00e+03
Profile:	Standard Bipolar

»»»»»»»»»»»»»»»»»»»»»»»»»»»»»»»»»»»»»» Data «««««««««««««««««««««««««««««««««««««««
Points:	2009

Valid Data

Point	Time (ms)	Drive Voltage	Measured Polarization (uC/cm2)	Capacitance (uF)	Normalized Capacitance (uF/cm2)	Dielectric Constant	Instantaneous Current (mA)
   1	0.0000e+00	0.0016	-27.258741	0.000406	4.055242	1.373953	0.000162
   2	9.9500e-02	0.0337	-27.097255	0.000406	4.055242	1.373953	0.000162
   3	1.9900e-01	0.0722	-26.879250	0.000547	5.474577	1.854837	0.000219
   4	2.9850e-01	0.1107	-26.596650	0.000710	7.096673	2.404418	0.000284
   5	3.9800e-01	0.1428	-26.382682	0.000537	5.373196	1.820488	0.000215
   6	4.9750e-01	0.1861	-26.136417	0.000618	6.184244	2.095279	0.000248
   7	5.9700e-01	0.2278	-25.910337	0.000568	5.677339	1.923534	0.000227
   8	6.9650e-01	0.2663	-25.676183	0.000588	5.880101	1.992232	0.000235
   9	7.9600e-01	0.3096	-25.446067	0.000578	5.778720	1.957883	0.000231
  10	8.9550e-01	0.3465	-25.187690	0.000649	6.488387	2.198325	0.000260
  11	9.9500e-01	0.3914	-24.993907	0.000487	4.866290	1.648744	0.000195
  12	1.0945e+00	0.4331	-24.723419	0.000679	6.792530	2.301372	0.000272
  13	1.1940e+00	0.4749	-24.497340	0.000568	5.677339	1.923534	0.000227
  14	1.2935e+00	0.5166	-24.275297	0.000558	5.575958	1.889186	0.000223
  15	1.3930e+00	0.5503	-24.012883	0.000659	6.589768	2.232674	0.000264
  16	1.4925e+00	0.5936	-23.802952	0.000527	5.271815	1.786139	0.000211
  17	1.5920e+00	0.6257	-23.528427	0.000689	6.893911	2.335720	0.000276
  18	1.6915e+00	0.6754	-23.302347	0.000568	5.677339	1.923534	0.000227
  19	1.7910e+00	0.7075	-23.100491	0.000507	5.069052	1.717441	0.000203
  20	1.8905e+00	0.7428	-22.834040	0.000669	6.691149	2.267023	0.000268
  21	1.9900e+00	0.7925	-22.579700	0.000639	6.387006	2.163976	0.000256
  22	2.0895e+00	0.8326	-22.333435	0.000618	6.184244	2.095279	0.000248
  23	2.1890e+00	0.8679	-22.103318	0.000578	5.778720	1.957883	0.000231
  24	2.2885e+00	0.9032	-21.897424	0.000517	5.170434	1.751790	0.000207
  25	2.3880e+00	0.9529	-21.651159	0.000618	6.184244	2.095279	0.000248
  26	2.4875e+00	0.9866	-21.392782	0.000649	6.488387	2.198325	0.000260
  27	2.5870e+00	1.0267	-21.138443	0.000639	6.387006	2.163976	0.000256
  28	2.6865e+00	1.0668	-20.932549	0.000517	5.170434	1.751790	0.000207
  29	2.7860e+00	1.1005	-20.674172	0.000649	6.488387	2.198325	0.000260
  30	2.8855e+00	1.1550	-20.407721	0.000669	6.691149	2.267023	0.000268
  31	2.9850e+00	1.1887	-20.165493	0.000608	6.082863	2.060930	0.000243
  32	3.0845e+00	1.2304	-19.967673	0.000497	4.967671	1.683093	0.000199
  33	3.1840e+00	1.2657	-19.664888	0.000760	7.603579	2.576162	0.000304
  34	3.2835e+00	1.3123	-19.463031	0.000507	5.069052	1.717441	0.000203
  35	3.3830e+00	1.3508	-19.212729	0.000629	6.285625	2.129627	0.000252
  36	3.4825e+00	1.3828	-18.962427	0.000629	6.285625	2.129627	0.000252
  37	3.5820e+00	1.4246	-18.732310	0.000578	5.778720	1.957883	0.000231
  38	3.6815e+00	1.4679	-18.482007	0.000629	6.285625	2.129627	0.000252
  39	3.7810e+00	1.5048	-18.223631	0.000649	6.488387	2.198325	0.000260
  40	3.8805e+00	1.5433	-17.997551	0.000568	5.677339	1.923534	0.000227
  41	3.9800e+00	1.5770	-17.739174	0.000649	6.488387	2.198325	0.000260
  42	4.0795e+00	1.6267	-17.513095	0.000568	5.677339	1.923534	0.000227
  43	4.1790e+00	1.6732	-17.278941	0.000588	5.880101	1.992232	0.000235
  44	4.2785e+00	1.7005	-17.028639	0.000629	6.285625	2.129627	0.000252
  45	4.3780e+00	1.7454	-16.762188	0.000669	6.691149	2.267023	0.000268
  46	4.4775e+00	1.7919	-16.556294	0.000517	5.170434	1.751790	0.000207
  47	4.5770e+00	1.8272	-16.310028	0.000618	6.184244	2.095279	0.000248
  48	4.6765e+00	1.8609	-16.055689	0.000639	6.387006	2.163976	0.000256
  49	4.7760e+00	1.9058	-15.760978	0.000740	7.400817	2.507465	0.000296
  50	4.8755e+00	1.9459	-15.526824	0.000588	5.880101	1.992232	0.000235
  51	4.9750e+00	1.9876	-15.300744	0.000568	5.677339	1.923534	0.000227
  52	5.0745e+00	2.0213	-15.062553	0.000598	5.981482	2.026581	0.000239
  53	5.1740e+00	2.0663	-14.800140	0.000659	6.589768	2.232674	0.000264
  54	5.2735e+00	2.1128	-14.565986	0.000588	5.880101	1.992232	0.000235
  55	5.3730e+00	2.1352	-14.356055	0.000527	5.271815	1.786139	0.000211
  56	5.4725e+00	2.1914	-14.033084	0.000811	8.110484	2.747906	0.000325
  57	5.5720e+00	2.2219	-13.798930	0.000588	5.880101	1.992232	0.000235
  58	5.6715e+00	2.2572	-13.568813	0.000578	5.778720	1.957883	0.000231
  59	5.7710e+00	2.3037	-13.298325	0.000679	6.792530	2.301372	0.000272
  60	5.8705e+00	2.3486	-13.100505	0.000497	4.967671	1.683093	0.000199
  61	5.9700e+00	2.3871	-12.850203	0.000629	6.285625	2.129627	0.000252
  62	6.0695e+00	2.4288	-12.567604	0.000710	7.096673	2.404418	0.000284
  63	6.1690e+00	2.4689	-12.309227	0.000649	6.488387	2.198325	0.000260
  64	6.2685e+00	2.4946	-12.111407	0.000497	4.967671	1.683093	0.000199
  65	6.3680e+00	2.5379	-11.824771	0.000720	7.198055	2.438767	0.000288
  66	6.4675e+00	2.5828	-11.570431	0.000639	6.387006	2.163976	0.000256
  67	6.5670e+00	2.6309	-11.324166	0.000618	6.184244	2.095279	0.000248
  68	6.6665e+00	2.6630	-11.110198	0.000537	5.373196	1.820488	0.000215
  69	6.7660e+00	2.7031	-10.892192	0.000547	5.474577	1.854837	0.000219
  70	6.8655e+00	2.7448	-10.641890	0.000629	6.285625	2.129627	0.000252
  71	6.9650e+00	2.7866	-10.371402	0.000679	6.792530	2.301372	0.000272
  72	7.0645e+00	2.8267	-10.129174	0.000608	6.082863	2.060930	0.000243
  73	7.1640e+00	2.8603	-9.878871	0.000629	6.285625	2.129627	0.000252
  74	7.2635e+00	2.9021	-9.612420	0.000669	6.691149	2.267023	0.000268
  75	7.3630e+00	2.9438	-9.394415	0.000547	5.474577	1.854837	0.000219
  76	7.4625e+00	2.9967	-9.160261	0.000588	5.880101	1.992232	0.000235
  77	7.5620e+00	3.0208	-8.885736	0.000689	6.893911	2.335720	0.000276
  78	7.6615e+00	3.0721	-8.647545	0.000598	5.981482	2.026581	0.000239
  79	7.7610e+00	3.1042	-8.352834	0.000740	7.400817	2.507465	0.000296
  80	7.8605e+00	3.1539	-8.110606	0.000608	6.082863	2.060930	0.000243
  81	7.9600e+00	3.1924	-7.876452	0.000588	5.880101	1.992232	0.000235
  82	8.0595e+00	3.2197	-7.610001	0.000669	6.691149	2.267023	0.000268
  83	8.1590e+00	3.2742	-7.371810	0.000598	5.981482	2.026581	0.000239
  84	8.2585e+00	3.2919	-7.137656	0.000588	5.880101	1.992232	0.000235
  85	8.3580e+00	3.3416	-6.867168	0.000679	6.792530	2.301372	0.000272
  86	8.4575e+00	3.3785	-6.624940	0.000608	6.082863	2.060930	0.000243
  87	8.5570e+00	3.4154	-6.378674	0.000618	6.184244	2.095279	0.000248
  88	8.6565e+00	3.4587	-6.100112	0.000700	6.995292	2.370069	0.000280
  89	8.7560e+00	3.4892	-5.853847	0.000618	6.184244	2.095279	0.000248
  90	8.8555e+00	3.5438	-5.619693	0.000588	5.880101	1.992232	0.000235
  91	8.9550e+00	3.5855	-5.361316	0.000649	6.488387	2.198325	0.000260
  92	9.0545e+00	3.6224	-5.119088	0.000608	6.082863	2.060930	0.000243
  93	9.1540e+00	3.6544	-4.832451	0.000720	7.198055	2.438767	0.000288
  94	9.2535e+00	3.6978	-4.586186	0.000618	6.184244	2.095279	0.000248
  95	9.3530e+00	3.7363	-4.356069	0.000578	5.778720	1.957883	0.000231
  96	9.4525e+00	3.7908	-4.101730	0.000639	6.387006	2.163976	0.000256
  97	9.5520e+00	3.8084	-3.847390	0.000639	6.387006	2.163976	0.000256
  98	9.6515e+00	3.8486	-3.564791	0.000710	7.096673	2.404418	0.000284
  99	9.7510e+00	3.8951	-3.326600	0.000598	5.981482	2.026581	0.000239
 100	9.8505e+00	3.9352	-3.104557	0.000558	5.575958	1.889186	0.000223
 101	9.9500e+00	3.9817	-2.809846	0.000740	7.400817	2.507465	0.000296
 102	1.0050e+01	4.0170	-2.599915	0.000527	5.271815	1.786139	0.000211
 103	1.0149e+01	4.0475	-2.285019	0.000791	7.907722	2.679209	0.000316
 104	1.0248e+01	4.0956	-2.046828	0.000598	5.981482	2.026581	0.000239
 105	1.0348e+01	4.1389	-1.780377	0.000669	6.691149	2.267023	0.000268
 106	1.0447e+01	4.1742	-1.509889	0.000679	6.792530	2.301372	0.000272
 107	1.0547e+01	4.2288	-1.287846	0.000558	5.575958	1.889186	0.000223
 108	1.0646e+01	4.2576	-0.997173	0.000730	7.299436	2.473116	0.000292
 109	1.0746e+01	4.2993	-0.758982	0.000598	5.981482	2.026581	0.000239
 110	1.0845e+01	4.3443	-0.536939	0.000558	5.575958	1.889186	0.000223
 111	1.0945e+01	4.3844	-0.242228	0.000740	7.400817	2.507465	0.000296
 112	1.1044e+01	4.4229	0.028260	0.000679	6.792530	2.301372	0.000272
 113	1.1144e+01	4.4517	0.254340	0.000568	5.677339	1.923534	0.000227
 114	1.1243e+01	4.4999	0.456196	0.000507	5.069052	1.717441	0.000203
 115	1.1343e+01	4.5384	0.791279	0.000841	8.414627	2.850953	0.000337
 116	1.1443e+01	4.5721	1.025432	0.000588	5.880101	1.992232	0.000235
 117	1.1542e+01	4.6154	1.295921	0.000679	6.792530	2.301372	0.000272
 118	1.1642e+01	4.6491	1.570446	0.000689	6.893911	2.335720	0.000276
 119	1.1741e+01	4.6972	1.832860	0.000659	6.589768	2.232674	0.000264
 120	1.1841e+01	4.7309	2.091236	0.000649	6.488387	2.198325	0.000260
 121	1.1940e+01	4.7726	2.321353	0.000578	5.778720	1.957883	0.000231
 122	1.2040e+01	4.8079	2.595878	0.000689	6.893911	2.335720	0.000276
 123	1.2139e+01	4.8512	2.846181	0.000629	6.285625	2.129627	0.000252
 124	1.2239e+01	4.8913	3.080335	0.000588	5.880101	1.992232	0.000235
 125	1.2338e+01	4.9282	3.322563	0.000608	6.082863	2.060930	0.000243
 126	1.2438e+01	4.9651	3.572865	0.000629	6.285625	2.129627	0.000252
 127	1.2537e+01	5.0100	3.863539	0.000730	7.299436	2.473116	0.000292
 128	1.2636e+01	5.0533	4.146138	0.000710	7.096673	2.404418	0.000284
 129	1.2736e+01	5.0902	4.380292	0.000588	5.880101	1.992232	0.000235
 130	1.2835e+01	5.1351	4.646743	0.000669	6.691149	2.267023	0.000268
 131	1.2935e+01	5.1704	4.901083	0.000639	6.387006	2.163976	0.000256
 132	1.3034e+01	5.2122	5.151385	0.000629	6.285625	2.129627	0.000252
 133	1.3134e+01	5.2458	5.438022	0.000720	7.198055	2.438767	0.000288
 134	1.3233e+01	5.2795	5.656027	0.000547	5.474577	1.854837	0.000219
 135	1.3333e+01	5.3325	5.934590	0.000700	6.995292	2.370069	0.000280
 136	1.3432e+01	5.3806	6.209115	0.000689	6.893911	2.335720	0.000276
 137	1.3532e+01	5.4191	6.443269	0.000588	5.880101	1.992232	0.000235
 138	1.3632e+01	5.4528	6.685497	0.000608	6.082863	2.060930	0.000243
 139	1.3731e+01	5.4977	7.012505	0.000821	8.211865	2.782255	0.000329
 140	1.3831e+01	5.5250	7.218399	0.000517	5.170434	1.751790	0.000207
 141	1.3930e+01	5.5763	7.460627	0.000608	6.082863	2.060930	0.000243
 142	1.4030e+01	5.6212	7.743226	0.000710	7.096673	2.404418	0.000284
 143	1.4129e+01	5.6549	8.017752	0.000689	6.893911	2.335720	0.000276
 144	1.4229e+01	5.6918	8.276128	0.000649	6.488387	2.198325	0.000260
 145	1.4328e+01	5.7223	8.506245	0.000578	5.778720	1.957883	0.000231
 146	1.4428e+01	5.7688	8.748473	0.000608	6.082863	2.060930	0.000243
 147	1.4527e+01	5.8202	9.059333	0.000781	7.806341	2.644860	0.000312
 148	1.4627e+01	5.8538	9.313672	0.000639	6.387006	2.163976	0.000256
 149	1.4726e+01	5.8972	9.555900	0.000608	6.082863	2.060930	0.000243
 150	1.4825e+01	5.9276	9.794091	0.000598	5.981482	2.026581	0.000239
 151	1.4925e+01	5.9726	10.072654	0.000700	6.995292	2.370069	0.000280
 152	1.5024e+01	6.0095	10.310845	0.000598	5.981482	2.026581	0.000239
 153	1.5124e+01	6.0544	10.573258	0.000659	6.589768	2.232674	0.000264
 154	1.5223e+01	6.1025	10.859895	0.000720	7.198055	2.438767	0.000288
 155	1.5323e+01	6.1378	11.110198	0.000629	6.285625	2.129627	0.000252
 156	1.5422e+01	6.1699	11.392797	0.000710	7.096673	2.404418	0.000284
 157	1.5522e+01	6.2068	11.614840	0.000558	5.575958	1.889186	0.000223
 158	1.5621e+01	6.2517	11.869179	0.000639	6.387006	2.163976	0.000256
 159	1.5721e+01	6.2902	12.139667	0.000679	6.792530	2.301372	0.000272
 160	1.5820e+01	6.3319	12.426304	0.000720	7.198055	2.438767	0.000288
 161	1.5920e+01	6.3688	12.680643	0.000639	6.387006	2.163976	0.000256
 162	1.6020e+01	6.4073	12.918834	0.000598	5.981482	2.026581	0.000239
 163	1.6119e+01	6.4442	13.165100	0.000618	6.184244	2.095279	0.000248
 164	1.6218e+01	6.4843	13.443662	0.000700	6.995292	2.370069	0.000280
 165	1.6318e+01	6.5228	13.661667	0.000547	5.474577	1.854837	0.000219
 166	1.6418e+01	6.5693	13.948304	0.000720	7.198055	2.438767	0.000288
 167	1.6517e+01	6.6014	14.238978	0.000730	7.299436	2.473116	0.000292
 168	1.6616e+01	6.6511	14.456983	0.000547	5.474577	1.854837	0.000219
 169	1.6716e+01	6.6800	14.699211	0.000608	6.082863	2.060930	0.000243
 170	1.6816e+01	6.7298	14.981811	0.000710	7.096673	2.404418	0.000284
 171	1.6915e+01	6.7699	15.244225	0.000659	6.589768	2.232674	0.000264
 172	1.7015e+01	6.8052	15.502601	0.000649	6.488387	2.198325	0.000260
 173	1.7114e+01	6.8517	15.688309	0.000466	4.663528	1.580046	0.000187
 174	1.7213e+01	6.8902	15.974946	0.000720	7.198055	2.438767	0.000288
 175	1.7313e+01	6.9287	16.265620	0.000730	7.299436	2.473116	0.000292
 176	1.7413e+01	6.9672	16.528034	0.000659	6.589768	2.232674	0.000264
 177	1.7512e+01	7.0041	16.782373	0.000639	6.387006	2.163976	0.000256
 178	1.7611e+01	7.0410	17.004416	0.000558	5.575958	1.889186	0.000223
 179	1.7711e+01	7.0795	17.258755	0.000639	6.387006	2.163976	0.000256
 180	1.7811e+01	7.1228	17.541355	0.000710	7.096673	2.404418	0.000284
 181	1.7910e+01	7.1581	17.759360	0.000547	5.474577	1.854837	0.000219
 182	1.8009e+01	7.2174	18.033885	0.000689	6.893911	2.335720	0.000276
 183	1.8109e+01	7.2431	18.284188	0.000629	6.285625	2.129627	0.000252
 184	1.8209e+01	7.2880	18.554676	0.000679	6.792530	2.301372	0.000272
 185	1.8308e+01	7.3281	18.788830	0.000588	5.880101	1.992232	0.000235
 186	1.8407e+01	7.3586	19.039132	0.000629	6.285625	2.129627	0.000252
 187	1.8507e+01	7.4067	19.273286	0.000588	5.880101	1.992232	0.000235
 188	1.8607e+01	7.4436	19.523588	0.000629	6.285625	2.129627	0.000252
 189	1.8706e+01	7.4837	19.765817	0.000608	6.082863	2.060930	0.000243
 190	1.8805e+01	7.5271	20.032268	0.000669	6.691149	2.267023	0.000268
 191	1.8905e+01	7.5591	20.294681	0.000659	6.589768	2.232674	0.000264
 192	1.9005e+01	7.5993	20.520761	0.000568	5.677339	1.923534	0.000227
 193	1.9104e+01	7.6410	20.799323	0.000700	6.995292	2.370069	0.000280
 194	1.9203e+01	7.6843	21.033477	0.000588	5.880101	1.992232	0.000235
 195	1.9303e+01	7.7292	21.303965	0.000679	6.792530	2.301372	0.000272
 196	1.9402e+01	7.7533	21.586565	0.000710	7.096673	2.404418	0.000284
 197	1.9502e+01	7.8110	21.796496	0.000527	5.271815	1.786139	0.000211
 198	1.9602e+01	7.8399	22.050835	0.000639	6.387006	2.163976	0.000256
 199	1.9701e+01	7.8848	22.301138	0.000629	6.285625	2.129627	0.000252
 200	1.9800e+01	7.9249	22.551440	0.000629	6.285625	2.129627	0.000252
 201	1.9900e+01	7.9666	22.813854	0.000659	6.589768	2.232674	0.000264
 202	2.0000e+01	7.9907	23.060119	0.000618	6.184244	2.095279	0.000248
 203	2.0099e+01	8.0468	23.314459	0.000639	6.387006	2.163976	0.000256
 204	2.0198e+01	8.0789	23.536501	0.000558	5.575958	1.889186	0.000223
 205	2.0298e+01	8.1254	23.815064	0.000700	6.995292	2.370069	0.000280
 206	2.0398e+01	8.1607	24.033069	0.000547	5.474577	1.854837	0.000219
 207	2.0497e+01	8.2008	24.271260	0.000598	5.981482	2.026581	0.000239
 208	2.0596e+01	8.2490	24.537711	0.000669	6.691149	2.267023	0.000268
 209	2.0696e+01	8.2778	24.792051	0.000639	6.387006	2.163976	0.000256
 210	2.0796e+01	8.3179	25.034279	0.000608	6.082863	2.060930	0.000243
 211	2.0895e+01	8.3661	25.300730	0.000669	6.691149	2.267023	0.000268
 212	2.0994e+01	8.3885	25.530846	0.000578	5.778720	1.957883	0.000231
 213	2.1094e+01	8.4415	25.760963	0.000578	5.778720	1.957883	0.000231
 214	2.1194e+01	8.4816	26.039526	0.000700	6.995292	2.370069	0.000280
 215	2.1293e+01	8.5249	26.297902	0.000649	6.488387	2.198325	0.000260
 216	2.1392e+01	8.5634	26.584539	0.000720	7.198055	2.438767	0.000288
 217	2.1492e+01	8.5939	26.782358	0.000497	4.967671	1.683093	0.000199
 218	2.1591e+01	8.6484	27.040735	0.000649	6.488387	2.198325	0.000260
 219	2.1691e+01	8.6805	27.258741	0.000547	5.474577	1.854837	0.000219
 220	2.1791e+01	8.7158	27.517117	0.000649	6.488387	2.198325	0.000260
 221	2.1890e+01	8.7623	27.807791	0.000730	7.299436	2.473116	0.000292
 222	2.1989e+01	8.7896	28.005611	0.000497	4.967671	1.683093	0.000199
 223	2.2089e+01	8.8441	28.263987	0.000649	6.488387	2.198325	0.000260
 224	2.2189e+01	8.8810	28.530438	0.000669	6.691149	2.267023	0.000268
 225	2.2288e+01	8.9131	28.780741	0.000629	6.285625	2.129627	0.000252
 226	2.2387e+01	8.9596	28.994709	0.000537	5.373196	1.820488	0.000215
 227	2.2487e+01	8.9965	29.249048	0.000639	6.387006	2.163976	0.000256
 228	2.2587e+01	9.0415	29.503388	0.000639	6.387006	2.163976	0.000256
 229	2.2686e+01	9.0735	29.745616	0.000608	6.082863	2.060930	0.000243
 230	2.2785e+01	9.1217	30.008030	0.000659	6.589768	2.232674	0.000264
 231	2.2885e+01	9.1521	30.226035	0.000547	5.474577	1.854837	0.000219
 232	2.2985e+01	9.2003	30.520746	0.000740	7.400817	2.507465	0.000296
 233	2.3084e+01	9.2388	30.750863	0.000578	5.778720	1.957883	0.000231
 234	2.3183e+01	9.2773	30.972905	0.000558	5.575958	1.889186	0.000223
 235	2.3283e+01	9.3238	31.178799	0.000517	5.170434	1.751790	0.000207
 236	2.3383e+01	9.3639	31.457362	0.000700	6.995292	2.370069	0.000280
 237	2.3482e+01	9.3976	31.691516	0.000588	5.880101	1.992232	0.000235
 238	2.3581e+01	9.4361	31.945855	0.000639	6.387006	2.163976	0.000256
 239	2.3681e+01	9.4794	32.151749	0.000517	5.170434	1.751790	0.000207
 240	2.3780e+01	9.5195	32.414163	0.000659	6.589768	2.232674	0.000264
 241	2.3880e+01	9.5532	32.640242	0.000568	5.677339	1.923534	0.000227
 242	2.3980e+01	9.5949	32.878433	0.000598	5.981482	2.026581	0.000239
 243	2.4079e+01	9.6414	33.152959	0.000689	6.893911	2.335720	0.000276
 244	2.4178e+01	9.6719	33.383075	0.000578	5.778720	1.957883	0.000231
 245	2.4278e+01	9.7072	33.621266	0.000598	5.981482	2.026581	0.000239
 246	2.4378e+01	9.7489	33.875606	0.000639	6.387006	2.163976	0.000256
 247	2.4477e+01	9.7890	34.109760	0.000588	5.880101	1.992232	0.000235
 248	2.4576e+01	9.8388	34.356025	0.000618	6.184244	2.095279	0.000248
 249	2.4676e+01	9.8692	34.610365	0.000639	6.387006	2.163976	0.000256
 250	2.4776e+01	9.9142	34.828370	0.000547	5.474577	1.854837	0.000219
 251	2.4875e+01	9.9527	35.082710	0.000639	6.387006	2.163976	0.000256
 252	2.4974e+01	10.0008	35.300715	0.000547	5.474577	1.854837	0.000219
 253	2.5074e+01	10.0377	35.575240	0.000689	6.893911	2.335720	0.000276
 254	2.5174e+01	10.0746	35.809394	0.000588	5.880101	1.992232	0.000235
 255	2.5273e+01	10.1179	36.059696	0.000629	6.285625	2.129627	0.000252
 256	2.5372e+01	10.1596	36.301925	0.000608	6.082863	2.060930	0.000243
 257	2.5472e+01	10.1917	36.519930	0.000547	5.474577	1.854837	0.000219
 258	2.5572e+01	10.2270	36.750047	0.000578	5.778720	1.957883	0.000231
 259	2.5671e+01	10.2703	37.068980	0.000801	8.009103	2.713558	0.000321
 260	2.5770e+01	10.3152	37.262763	0.000487	4.866290	1.648744	0.000195
 261	2.5870e+01	10.3489	37.517102	0.000639	6.387006	2.163976	0.000256
 262	2.5970e+01	10.3922	37.727033	0.000527	5.271815	1.786139	0.000211
 263	2.6069e+01	10.4339	37.973299	0.000618	6.184244	2.095279	0.000248
 264	2.6169e+01	10.4772	38.243787	0.000679	6.792530	2.301372	0.000272
 265	2.6268e+01	10.5093	38.465829	0.000558	5.575958	1.889186	0.000223
 266	2.6367e+01	10.5478	38.724206	0.000649	6.488387	2.198325	0.000260
 267	2.6467e+01	10.5927	38.958360	0.000588	5.880101	1.992232	0.000235
 268	2.6567e+01	10.6329	39.253071	0.000740	7.400817	2.507465	0.000296
 269	2.6666e+01	10.6698	39.483188	0.000578	5.778720	1.957883	0.000231
 270	2.6765e+01	10.7163	39.713304	0.000578	5.778720	1.957883	0.000231
 271	2.6865e+01	10.7564	39.931310	0.000547	5.474577	1.854837	0.000219
 272	2.6965e+01	10.7853	40.161426	0.000578	5.778720	1.957883	0.000231
 273	2.7064e+01	10.8318	40.452100	0.000730	7.299436	2.473116	0.000292
 274	2.7163e+01	10.8751	40.670105	0.000547	5.474577	1.854837	0.000219
 275	2.7263e+01	10.9136	40.916371	0.000618	6.184244	2.095279	0.000248
 276	2.7363e+01	10.9553	41.166673	0.000629	6.285625	2.129627	0.000252
 277	2.7462e+01	10.9906	41.425050	0.000649	6.488387	2.198325	0.000260
 278	2.7561e+01	11.0355	41.659204	0.000588	5.880101	1.992232	0.000235
 279	2.7661e+01	11.0708	41.901432	0.000608	6.082863	2.060930	0.000243
 280	2.7761e+01	11.1077	42.188068	0.000720	7.198055	2.438767	0.000288
 281	2.7860e+01	11.1446	42.398000	0.000527	5.271815	1.786139	0.000211
 282	2.7959e+01	11.1847	42.624079	0.000568	5.677339	1.923534	0.000227
 283	2.8059e+01	11.2232	42.850159	0.000568	5.677339	1.923534	0.000227
 284	2.8159e+01	11.2617	43.128721	0.000700	6.995292	2.370069	0.000280
 285	2.8258e+01	11.3066	43.342689	0.000537	5.373196	1.820488	0.000215
 286	2.8358e+01	11.3516	43.621252	0.000700	6.995292	2.370069	0.000280
 287	2.8457e+01	11.3901	43.843294	0.000558	5.575958	1.889186	0.000223
 288	2.8556e+01	11.4334	44.041114	0.000497	4.967671	1.683093	0.000199
 289	2.8656e+01	11.4638	44.368122	0.000821	8.211865	2.782255	0.000329
 290	2.8756e+01	11.5152	44.578053	0.000527	5.271815	1.786139	0.000211
 291	2.8855e+01	11.5425	44.844504	0.000669	6.691149	2.267023	0.000268
 292	2.8954e+01	11.5810	45.074621	0.000578	5.778720	1.957883	0.000231
 293	2.9054e+01	11.6243	45.284552	0.000527	5.271815	1.786139	0.000211
 294	2.9154e+01	11.6660	45.502557	0.000547	5.474577	1.854837	0.000219
 295	2.9253e+01	11.7061	45.817453	0.000791	7.907722	2.679209	0.000316
 296	2.9352e+01	11.7414	46.051607	0.000588	5.880101	1.992232	0.000235
 297	2.9452e+01	11.7879	46.318058	0.000669	6.691149	2.267023	0.000268
 298	2.9552e+01	11.8264	46.491655	0.000436	4.359385	1.477000	0.000174
 299	2.9651e+01	11.8697	46.762143	0.000679	6.792530	2.301372	0.000272
 300	2.9750e+01	11.9066	47.004371	0.000608	6.082863	2.060930	0.000243
 301	2.9850e+01	11.9483	47.234488	0.000578	5.778720	1.957883	0.000231
 302	2.9950e+01	11.9868	47.492865	0.000649	6.488387	2.198325	0.000260
 303	3.0049e+01	12.0253	47.747204	0.000639	6.387006	2.163976	0.000256
 304	3.0148e+01	12.0638	47.973284	0.000568	5.677339	1.923534	0.000227
 305	3.0248e+01	12.1120	48.191289	0.000547	5.474577	1.854837	0.000219
 306	3.0348e+01	12.1473	48.469852	0.000700	6.995292	2.370069	0.000280
 307	3.0447e+01	12.1825	48.675746	0.000517	5.170434	1.751790	0.000207
 308	3.0547e+01	12.2210	48.930085	0.000639	6.387006	2.163976	0.000256
 309	3.0646e+01	12.2628	49.184425	0.000639	6.387006	2.163976	0.000256
 310	3.0745e+01	12.3029	49.442801	0.000649	6.488387	2.198325	0.000260
 311	3.0845e+01	12.3462	49.664844	0.000558	5.575958	1.889186	0.000223
 312	3.0945e+01	12.3847	49.907072	0.000608	6.082863	2.060930	0.000243
 313	3.1044e+01	12.4200	50.141226	0.000588	5.880101	1.992232	0.000235
 314	3.1143e+01	12.4681	50.395565	0.000639	6.387006	2.163976	0.000256
 315	3.1243e+01	12.5050	50.613571	0.000547	5.474577	1.854837	0.000219
 316	3.1343e+01	12.5515	50.867910	0.000639	6.387006	2.163976	0.000256
 317	3.1442e+01	12.5900	51.178770	0.000781	7.806341	2.644860	0.000312
 318	3.1541e+01	12.6173	51.360441	0.000456	4.562147	1.545697	0.000183
 319	3.1641e+01	12.6718	51.614780	0.000639	6.387006	2.163976	0.000256
 320	3.1741e+01	12.7055	51.905454	0.000730	7.299436	2.473116	0.000292
 321	3.1840e+01	12.7424	52.135571	0.000578	5.778720	1.957883	0.000231
 322	3.1939e+01	12.7857	52.389910	0.000639	6.387006	2.163976	0.000256
 323	3.2039e+01	12.8210	52.624064	0.000588	5.880101	1.992232	0.000235
 324	3.2139e+01	12.8643	52.862255	0.000598	5.981482	2.026581	0.000239
 325	3.2238e+01	12.8980	53.096409	0.000588	5.880101	1.992232	0.000235
 326	3.2337e+01	12.9446	53.310377	0.000537	5.373196	1.820488	0.000215
 327	3.2437e+01	12.9718	53.576828	0.000669	6.691149	2.267023	0.000268
 328	3.2536e+01	13.0248	53.831168	0.000639	6.387006	2.163976	0.000256
 329	3.2636e+01	13.0552	54.065322	0.000588	5.880101	1.992232	0.000235
 330	3.2736e+01	13.0970	54.347921	0.000710	7.096673	2.404418	0.000284
 331	3.2835e+01	13.1419	54.549778	0.000507	5.069052	1.717441	0.000203
 332	3.2934e+01	13.1756	54.800081	0.000629	6.285625	2.129627	0.000252
 333	3.3034e+01	13.2141	55.046346	0.000618	6.184244	2.095279	0.000248
 334	3.3133e+01	13.2638	55.288574	0.000608	6.082863	2.060930	0.000243
 335	3.3233e+01	13.3007	55.514654	0.000568	5.677339	1.923534	0.000227
 336	3.3333e+01	13.3408	55.781104	0.000669	6.691149	2.267023	0.000268
 337	3.3432e+01	13.3809	56.015258	0.000588	5.880101	1.992232	0.000235
 338	3.3532e+01	13.4194	56.297858	0.000710	7.096673	2.404418	0.000284
 339	3.3631e+01	13.4707	56.527975	0.000578	5.778720	1.957883	0.000231
 340	3.3730e+01	13.4996	56.729831	0.000507	5.069052	1.717441	0.000203
 341	3.3830e+01	13.5333	56.976097	0.000618	6.184244	2.095279	0.000248
 342	3.3929e+01	13.5782	57.198139	0.000558	5.575958	1.889186	0.000223
 343	3.4029e+01	13.6247	57.488813	0.000730	7.299436	2.473116	0.000292
 344	3.4129e+01	13.6536	57.686633	0.000497	4.967671	1.683093	0.000199
 345	3.4228e+01	13.7001	57.961158	0.000689	6.893911	2.335720	0.000276
 346	3.4328e+01	13.7274	58.207423	0.000618	6.184244	2.095279	0.000248
 347	3.4427e+01	13.7723	58.437540	0.000578	5.778720	1.957883	0.000231
 348	3.4526e+01	13.8269	58.708028	0.000679	6.792530	2.301372	0.000272
 349	3.4626e+01	13.8574	58.913922	0.000517	5.170434	1.751790	0.000207
 350	3.4725e+01	13.8911	59.176336	0.000659	6.589768	2.232674	0.000264
 351	3.4825e+01	13.9376	59.426638	0.000629	6.285625	2.129627	0.000252
 352	3.4925e+01	13.9825	59.664829	0.000598	5.981482	2.026581	0.000239
 353	3.5024e+01	14.0226	59.903020	0.000598	5.981482	2.026581	0.000239
 354	3.5123e+01	14.0627	60.129100	0.000568	5.677339	1.923534	0.000227
 355	3.5223e+01	14.0964	60.391514	0.000659	6.589768	2.232674	0.000264
 356	3.5322e+01	14.1317	60.645853	0.000639	6.387006	2.163976	0.000256
 357	3.5422e+01	14.1830	60.875970	0.000578	5.778720	1.957883	0.000231
 358	3.5522e+01	14.2231	61.118198	0.000608	6.082863	2.060930	0.000243
 359	3.5621e+01	14.2552	61.376575	0.000649	6.488387	2.198325	0.000260
 360	3.5721e+01	14.2905	61.594580	0.000547	5.474577	1.854837	0.000219
 361	3.5820e+01	14.3354	61.848920	0.000639	6.387006	2.163976	0.000256
 362	3.5919e+01	14.3771	62.087111	0.000598	5.981482	2.026581	0.000239
 363	3.6019e+01	14.4172	62.349524	0.000659	6.589768	2.232674	0.000264
 364	3.6118e+01	14.4573	62.583678	0.000588	5.880101	1.992232	0.000235
 365	3.6218e+01	14.4894	62.862241	0.000700	6.995292	2.370069	0.000280
 366	3.6318e+01	14.5360	63.088320	0.000568	5.677339	1.923534	0.000227
 367	3.6417e+01	14.5729	63.330548	0.000608	6.082863	2.060930	0.000243
 368	3.6517e+01	14.6114	63.584888	0.000639	6.387006	2.163976	0.000256
 369	3.6616e+01	14.6499	63.810967	0.000568	5.677339	1.923534	0.000227
 370	3.6715e+01	14.6900	64.069344	0.000649	6.488387	2.198325	0.000260
 371	3.6815e+01	14.7317	64.295424	0.000568	5.677339	1.923534	0.000227
 372	3.6914e+01	14.7702	64.533615	0.000598	5.981482	2.026581	0.000239
 373	3.7014e+01	14.8183	64.812177	0.000700	6.995292	2.370069	0.000280
 374	3.7114e+01	14.8520	65.046331	0.000588	5.880101	1.992232	0.000235
 375	3.7213e+01	14.8985	65.284522	0.000598	5.981482	2.026581	0.000239
 376	3.7313e+01	14.9226	65.538862	0.000639	6.387006	2.163976	0.000256
 377	3.7412e+01	14.9723	65.773015	0.000588	5.880101	1.992232	0.000235
 378	3.7511e+01	15.0172	66.039466	0.000669	6.691149	2.267023	0.000268
 379	3.7611e+01	15.0557	66.273620	0.000588	5.880101	1.992232	0.000235
 380	3.7711e+01	15.0958	66.491626	0.000547	5.474577	1.854837	0.000219
 381	3.7810e+01	15.1311	66.745965	0.000639	6.387006	2.163976	0.000256
 382	3.7910e+01	15.1696	66.984156	0.000598	5.981482	2.026581	0.000239
 383	3.8009e+01	15.2113	67.242533	0.000649	6.488387	2.198325	0.000260
 384	3.8108e+01	15.2434	67.488798	0.000618	6.184244	2.095279	0.000248
 385	3.8208e+01	15.2867	67.747175	0.000649	6.488387	2.198325	0.000260
 386	3.8307e+01	15.3188	68.001514	0.000639	6.387006	2.163976	0.000256
 387	3.8407e+01	15.3702	68.247780	0.000618	6.184244	2.095279	0.000248
 388	3.8507e+01	15.4215	68.490008	0.000608	6.082863	2.060930	0.000243
 389	3.8606e+01	15.4472	68.740310	0.000629	6.285625	2.129627	0.000252
 390	3.8706e+01	15.4857	69.002724	0.000659	6.589768	2.232674	0.000264
 391	3.8805e+01	15.5258	69.261101	0.000649	6.488387	2.198325	0.000260
 392	3.8904e+01	15.5803	69.491217	0.000578	5.778720	1.957883	0.000231
 393	3.9004e+01	15.6076	69.749594	0.000649	6.488387	2.198325	0.000260
 394	3.9103e+01	15.6509	69.999897	0.000629	6.285625	2.129627	0.000252
 395	3.9203e+01	15.6878	70.246162	0.000618	6.184244	2.095279	0.000248
 396	3.9303e+01	15.7247	70.520687	0.000689	6.893911	2.335720	0.000276
 397	3.9402e+01	15.7808	70.766952	0.000618	6.184244	2.095279	0.000248
 398	3.9502e+01	15.8097	70.968809	0.000507	5.069052	1.717441	0.000203
 399	3.9601e+01	15.8546	71.279669	0.000781	7.806341	2.644860	0.000312
 400	3.9700e+01	15.8899	71.517860	0.000598	5.981482	2.026581	0.000239
 401	3.9800e+01	15.9284	71.756051	0.000598	5.981482	2.026581	0.000239
 402	3.9900e+01	15.9733	71.953870	0.000497	4.967671	1.683093	0.000199
 403	3.9999e+01	16.0070	72.232433	0.000700	6.995292	2.370069	0.000280
 404	4.0099e+01	16.0455	72.470624	0.000598	5.981482	2.026581	0.000239
 405	4.0198e+01	16.0905	72.724963	0.000639	6.387006	2.163976	0.000256
 406	4.0297e+01	16.1209	72.959117	0.000588	5.880101	1.992232	0.000235
 407	4.0397e+01	16.1675	73.241717	0.000710	7.096673	2.404418	0.000284
 408	4.0496e+01	16.2044	73.496056	0.000639	6.387006	2.163976	0.000256
 409	4.0596e+01	16.2477	73.722136	0.000568	5.677339	1.923534	0.000227
 410	4.0696e+01	16.2878	73.992624	0.000679	6.792530	2.301372	0.000272
 411	4.0795e+01	16.3247	74.210629	0.000547	5.474577	1.854837	0.000219
 412	4.0895e+01	16.3680	74.513414	0.000760	7.603579	2.576162	0.000304
 413	4.0994e+01	16.4081	74.747568	0.000588	5.880101	1.992232	0.000235
 414	4.1093e+01	16.4498	75.001908	0.000639	6.387006	2.163976	0.000256
 415	4.1193e+01	16.4835	75.268359	0.000669	6.691149	2.267023	0.000268
 416	4.1292e+01	16.5300	75.506550	0.000598	5.981482	2.026581	0.000239
 417	4.1392e+01	16.5637	75.825483	0.000801	8.009103	2.713558	0.000321
 418	4.1492e+01	16.6086	76.051563	0.000568	5.677339	1.923534	0.000227
 419	4.1591e+01	16.6407	76.305903	0.000639	6.387006	2.163976	0.000256
 420	4.1691e+01	16.6840	76.560242	0.000639	6.387006	2.163976	0.000256
 421	4.1790e+01	16.7225	76.818619	0.000649	6.488387	2.198325	0.000260
 422	4.1889e+01	16.7674	77.085070	0.000669	6.691149	2.267023	0.000268
 423	4.1989e+01	16.8140	77.343446	0.000649	6.488387	2.198325	0.000260
 424	4.2089e+01	16.8444	77.601823	0.000649	6.488387	2.198325	0.000260
 425	4.2188e+01	16.8813	77.864237	0.000659	6.589768	2.232674	0.000264
 426	4.2288e+01	16.9263	78.138762	0.000689	6.893911	2.335720	0.000276
 427	4.2387e+01	16.9680	78.397139	0.000649	6.488387	2.198325	0.000260
 428	4.2486e+01	17.0081	78.671664	0.000689	6.893911	2.335720	0.000276
 429	4.2586e+01	17.0450	78.974449	0.000760	7.603579	2.576162	0.000304
 430	4.2685e+01	17.0819	79.160158	0.000466	4.663528	1.580046	0.000187
 431	4.2785e+01	17.1188	79.466980	0.000770	7.704960	2.610511	0.000308
 432	4.2885e+01	17.1749	79.773802	0.000770	7.704960	2.610511	0.000308
 433	4.2984e+01	17.2054	80.003919	0.000578	5.778720	1.957883	0.000231
 434	4.3084e+01	17.2407	80.286518	0.000710	7.096673	2.404418	0.000284
 435	4.3183e+01	17.2792	80.532784	0.000618	6.184244	2.095279	0.000248
 436	4.3282e+01	17.3337	80.835569	0.000760	7.603579	2.576162	0.000304
 437	4.3382e+01	17.3674	81.073760	0.000598	5.981482	2.026581	0.000239
 438	4.3481e+01	17.4091	81.368471	0.000740	7.400817	2.507465	0.000296
 439	4.3581e+01	17.4364	81.634922	0.000669	6.691149	2.267023	0.000268
 440	4.3681e+01	17.4749	81.961930	0.000821	8.211865	2.782255	0.000329
 441	4.3780e+01	17.5278	82.200121	0.000598	5.981482	2.026581	0.000239
 442	4.3880e+01	17.5696	82.470609	0.000679	6.792530	2.301372	0.000272
 443	4.3979e+01	17.6065	82.785505	0.000791	7.907722	2.679209	0.000316
 444	4.4078e+01	17.6434	83.047919	0.000659	6.589768	2.232674	0.000264
 445	4.4178e+01	17.6786	83.318407	0.000679	6.792530	2.301372	0.000272
 446	4.4278e+01	17.7236	83.576784	0.000649	6.488387	2.198325	0.000260
 447	4.4377e+01	17.7637	83.879569	0.000760	7.603579	2.576162	0.000304
 448	4.4477e+01	17.8006	84.158132	0.000700	6.995292	2.370069	0.000280
 449	4.4576e+01	17.8391	84.416508	0.000649	6.488387	2.198325	0.000260
 450	4.4675e+01	17.8792	84.727368	0.000781	7.806341	2.644860	0.000312
 451	4.4775e+01	17.9161	84.977670	0.000629	6.285625	2.129627	0.000252
 452	4.4874e+01	17.9642	85.312752	0.000841	8.414627	2.850953	0.000337
 453	4.4974e+01	18.0075	85.571129	0.000649	6.488387	2.198325	0.000260
 454	4.5074e+01	18.0380	85.861803	0.000730	7.299436	2.473116	0.000292
 455	4.5173e+01	18.0829	86.160551	0.000750	7.502198	2.541813	0.000300
 456	4.5273e+01	18.1278	86.459299	0.000750	7.502198	2.541813	0.000300
 457	4.5372e+01	18.1631	86.733824	0.000689	6.893911	2.335720	0.000276
 458	4.5471e+01	18.1984	87.052758	0.000801	8.009103	2.713558	0.000321
 459	4.5571e+01	18.2498	87.355543	0.000760	7.603579	2.576162	0.000304
 460	4.5670e+01	18.2818	87.621994	0.000669	6.691149	2.267023	0.000268
 461	4.5770e+01	18.3268	87.896519	0.000689	6.893911	2.335720	0.000276
 462	4.5870e+01	18.3653	88.146822	0.000629	6.285625	2.129627	0.000252
 463	4.5969e+01	18.4006	88.518238	0.000933	9.327057	3.160092	0.000373
 464	4.6069e+01	18.4374	88.796801	0.000700	6.995292	2.370069	0.000280
 465	4.6168e+01	18.4824	89.099586	0.000760	7.603579	2.576162	0.000304
 466	4.6267e+01	18.5209	89.406408	0.000770	7.704960	2.610511	0.000308
 467	4.6367e+01	18.5642	89.717268	0.000781	7.806341	2.644860	0.000312
 468	4.6467e+01	18.5979	90.007941	0.000730	7.299436	2.473116	0.000292
 469	4.6566e+01	18.6348	90.310726	0.000760	7.603579	2.576162	0.000304
 470	4.6666e+01	18.6797	90.621586	0.000781	7.806341	2.644860	0.000312
 471	4.6765e+01	18.7198	90.928408	0.000770	7.704960	2.610511	0.000308
 472	4.6864e+01	18.7567	91.227156	0.000750	7.502198	2.541813	0.000300
 473	4.6964e+01	18.7936	91.513793	0.000720	7.198055	2.438767	0.000288
 474	4.7063e+01	18.8465	91.832727	0.000801	8.009103	2.713558	0.000321
 475	4.7163e+01	18.8818	92.139549	0.000770	7.704960	2.610511	0.000308
 476	4.7263e+01	18.9219	92.482705	0.000862	8.617389	2.919651	0.000345
 477	4.7362e+01	18.9540	92.741082	0.000649	6.488387	2.198325	0.000260
 478	4.7462e+01	18.9989	93.043867	0.000760	7.603579	2.576162	0.000304
 479	4.7561e+01	19.0310	93.403172	0.000902	9.022913	3.057046	0.000361
 480	4.7660e+01	19.0807	93.701920	0.000750	7.502198	2.541813	0.000300
 481	4.7760e+01	19.1112	94.016817	0.000791	7.907722	2.679209	0.000316
 482	4.7859e+01	19.1577	94.319602	0.000760	7.603579	2.576162	0.000304
 483	4.7959e+01	19.2011	94.610276	0.000730	7.299436	2.473116	0.000292
 484	4.8059e+01	19.2396	94.941321	0.000831	8.313246	2.816604	0.000333
 485	4.8158e+01	19.2700	95.272366	0.000831	8.313246	2.816604	0.000333
 486	4.8258e+01	19.3134	95.587263	0.000791	7.907722	2.679209	0.000316
 487	4.8357e+01	19.3599	95.942531	0.000892	8.921532	3.022697	0.000357
 488	4.8456e+01	19.3936	96.273576	0.000831	8.313246	2.816604	0.000333
 489	4.8556e+01	19.4305	96.572324	0.000750	7.502198	2.541813	0.000300
 490	4.8656e+01	19.4722	96.931629	0.000902	9.022913	3.057046	0.000361
 491	4.8755e+01	19.5107	97.198080	0.000669	6.691149	2.267023	0.000268
 492	4.8855e+01	19.5620	97.569497	0.000933	9.327057	3.160092	0.000373
 493	4.8954e+01	19.5957	97.928802	0.000902	9.022913	3.057046	0.000361
 494	4.9053e+01	19.6326	98.247735	0.000801	8.009103	2.713558	0.000321
 495	4.9153e+01	19.6775	98.578780	0.000831	8.313246	2.816604	0.000333
 496	4.9252e+01	19.7128	98.917900	0.000852	8.516008	2.885302	0.000341
 497	4.9352e+01	19.7465	99.208574	0.000730	7.299436	2.473116	0.000292
 498	4.9452e+01	19.7962	99.579990	0.000933	9.327057	3.160092	0.000373
 499	4.9551e+01	19.8331	99.935258	0.000892	8.921532	3.022697	0.000357
 500	4.9651e+01	19.8716	100.254192	0.000801	8.009103	2.713558	0.000321
 501	4.9750e+01	19.9133	100.641757	0.000973	9.732581	3.297488	0.000390
 502	4.9849e+01	19.9518	100.980876	0.000852	8.516008	2.885302	0.000341
 503	4.9949e+01	19.9807	101.340181	0.000902	9.022913	3.057046	0.000361
 504	5.0048e+01	19.9647	101.315958	0.000061	0.608286	0.206093	-0.000024
 505	5.0148e+01	19.9101	101.287699	0.000071	0.709667	0.240442	-0.000028
 506	5.0248e+01	19.8716	101.279624	0.000020	0.202762	0.068698	-0.000008
 507	5.0347e+01	19.8283	101.275587	0.000010	0.101381	0.034349	-0.000004
 508	5.0447e+01	19.7930	101.231179	0.000112	1.115192	0.377837	-0.000045
 509	5.0546e+01	19.7577	101.279624	-0.000122	-1.216573	-0.412186	0.000049
 510	5.0645e+01	19.7064	101.190807	0.000223	2.230383	0.755674	-0.000089
 511	5.0745e+01	19.6727	101.158510	0.000081	0.811048	0.274791	-0.000032
 512	5.0844e+01	19.6358	101.182733	-0.000061	-0.608286	-0.206093	0.000024
 513	5.0944e+01	19.6053	101.174659	0.000020	0.202762	0.068698	-0.000008
 514	5.1044e+01	19.5508	101.110065	0.000162	1.622097	0.549581	-0.000065
 515	5.1143e+01	19.5091	101.110065	-0.000000	-0.000000	-0.000000	0.000000
 516	5.1242e+01	19.4786	101.057582	0.000132	1.317954	0.446535	-0.000053
 517	5.1342e+01	19.4385	101.033359	0.000061	0.608286	0.206093	-0.000024
 518	5.1441e+01	19.3936	100.972802	0.000152	1.520716	0.515232	-0.000061
 519	5.1541e+01	19.3599	100.928393	0.000112	1.115192	0.377837	-0.000045
 520	5.1641e+01	19.3166	100.932431	-0.000010	-0.101381	-0.034349	0.000004
 521	5.1740e+01	19.2749	100.900134	0.000081	0.811048	0.274791	-0.000032
 522	5.1840e+01	19.2460	100.847651	0.000132	1.317954	0.446535	-0.000053
 523	5.1939e+01	19.1962	100.783057	0.000162	1.622097	0.549581	-0.000065
 524	5.2038e+01	19.1642	100.766908	0.000041	0.405524	0.137395	-0.000016
 525	5.2138e+01	19.1176	100.718462	0.000122	1.216573	0.412186	-0.000049
 526	5.2237e+01	19.0775	100.670017	0.000122	1.216573	0.412186	-0.000049
 527	5.2337e+01	19.0471	100.649831	0.000051	0.506905	0.171744	-0.000020
 528	5.2437e+01	18.9989	100.597348	0.000132	1.317954	0.446535	-0.000053
 529	5.2536e+01	18.9492	100.548903	0.000122	1.216573	0.412186	-0.000049
 530	5.2636e+01	18.9139	100.504494	0.000112	1.115192	0.377837	-0.000045
 531	5.2735e+01	18.8786	100.456049	0.000122	1.216573	0.412186	-0.000049
 532	5.2834e+01	18.8401	100.423751	0.000081	0.811048	0.274791	-0.000032
 533	5.2934e+01	18.7968	100.371269	0.000132	1.317954	0.446535	-0.000053
 534	5.3033e+01	18.7551	100.330897	0.000101	1.013810	0.343488	-0.000041
 535	5.3133e+01	18.7230	100.286489	0.000112	1.115192	0.377837	-0.000045
 536	5.3233e+01	18.6877	100.254192	0.000081	0.811048	0.274791	-0.000032
 537	5.3332e+01	18.6412	100.193635	0.000152	1.520716	0.515232	-0.000061
 538	5.3431e+01	18.6027	100.145189	0.000122	1.216573	0.412186	-0.000049
 539	5.3531e+01	18.5546	100.125003	0.000051	0.506905	0.171744	-0.000020
 540	5.3630e+01	18.5161	100.056372	0.000172	1.723478	0.583930	-0.000069
 541	5.3730e+01	18.4824	100.020038	0.000091	0.912429	0.309139	-0.000037
 542	5.3830e+01	18.4358	99.991778	0.000071	0.709667	0.240442	-0.000028
 543	5.3929e+01	18.4038	99.947369	0.000112	1.115192	0.377837	-0.000045
 544	5.4029e+01	18.3669	99.878738	0.000172	1.723478	0.583930	-0.000069
 545	5.4128e+01	18.3155	99.834330	0.000112	1.115192	0.377837	-0.000045
 546	5.4227e+01	18.2883	99.789921	0.000112	1.115192	0.377837	-0.000045
 547	5.4327e+01	18.2337	99.721290	0.000172	1.723478	0.583930	-0.000069
 548	5.4426e+01	18.2016	99.664770	0.000142	1.419335	0.480884	-0.000057
 549	5.4526e+01	18.1599	99.616324	0.000122	1.216573	0.412186	-0.000049
 550	5.4626e+01	18.1246	99.563842	0.000132	1.317954	0.446535	-0.000053
 551	5.4725e+01	18.0781	99.495210	0.000172	1.723478	0.583930	-0.000069
 552	5.4825e+01	18.0492	99.466950	0.000071	0.709667	0.240442	-0.000028
 553	5.4924e+01	18.0043	99.418505	0.000122	1.216573	0.412186	-0.000049
 554	5.5023e+01	17.9562	99.325651	0.000233	2.331764	0.790023	-0.000093
 555	5.5123e+01	17.9225	99.285279	0.000101	1.013810	0.343488	-0.000041
 556	5.5222e+01	17.8904	99.216648	0.000172	1.723478	0.583930	-0.000069
 557	5.5322e+01	17.8487	99.111682	0.000264	2.635907	0.893070	-0.000105
 558	5.5422e+01	17.8054	99.083422	0.000071	0.709667	0.240442	-0.000028
 559	5.5521e+01	17.7653	99.018828	0.000162	1.622097	0.549581	-0.000065
 560	5.5620e+01	17.7236	98.942123	0.000193	1.926240	0.652628	-0.000077
 561	5.5720e+01	17.6835	98.869454	0.000182	1.824859	0.618279	-0.000073
 562	5.5819e+01	17.6353	98.825046	0.000112	1.115192	0.377837	-0.000045
 563	5.5919e+01	17.5984	98.712006	0.000284	2.838669	0.961767	-0.000114
 564	5.6019e+01	17.5760	98.643375	0.000172	1.723478	0.583930	-0.000069
 565	5.6118e+01	17.5278	98.607040	0.000091	0.912429	0.309139	-0.000037
 566	5.6218e+01	17.4877	98.558595	0.000122	1.216573	0.412186	-0.000049
 567	5.6317e+01	17.4492	98.457666	0.000253	2.534526	0.858721	-0.000101
 568	5.6416e+01	17.4107	98.384998	0.000182	1.824859	0.618279	-0.000073
 569	5.6516e+01	17.3674	98.284070	0.000253	2.534526	0.858721	-0.000101
 570	5.6615e+01	17.3241	98.243698	0.000101	1.013810	0.343488	-0.000041
 571	5.6715e+01	17.2920	98.146807	0.000243	2.433145	0.824372	-0.000097
 572	5.6815e+01	17.2487	98.102398	0.000112	1.115192	0.377837	-0.000045
 573	5.6914e+01	17.1990	97.993396	0.000274	2.737288	0.927418	-0.000110
 574	5.7014e+01	17.1653	97.916690	0.000193	1.926240	0.652628	-0.000077
 575	5.7113e+01	17.1332	97.823836	0.000233	2.331764	0.790023	-0.000093
 576	5.7212e+01	17.0883	97.718871	0.000264	2.635907	0.893070	-0.000105
 577	5.7312e+01	17.0498	97.589682	0.000324	3.244194	1.099163	-0.000130
 578	5.7411e+01	17.0049	97.488754	0.000253	2.534526	0.858721	-0.000101
 579	5.7511e+01	16.9503	97.367640	0.000304	3.041431	1.030465	-0.000122
 580	5.7611e+01	16.9279	97.218266	0.000375	3.751099	1.270907	-0.000150
 581	5.7710e+01	16.8846	97.137523	0.000203	2.027621	0.686977	-0.000081
 582	5.7809e+01	16.8477	97.016409	0.000304	3.041431	1.030465	-0.000122
 583	5.7909e+01	16.8027	96.887221	0.000324	3.244194	1.099163	-0.000130
 584	5.8008e+01	16.7674	96.794366	0.000233	2.331764	0.790023	-0.000093
 585	5.8108e+01	16.7209	96.677290	0.000294	2.940050	0.996116	-0.000118
 586	5.8208e+01	16.6824	96.568287	0.000274	2.737288	0.927418	-0.000110
 587	5.8307e+01	16.6567	96.459284	0.000274	2.737288	0.927418	-0.000110
 588	5.8407e+01	16.6102	96.382579	0.000193	1.926240	0.652628	-0.000077
 589	5.8506e+01	16.5605	96.245316	0.000345	3.446956	1.167860	-0.000138
 590	5.8605e+01	16.5300	96.140350	0.000264	2.635907	0.893070	-0.000105
 591	5.8705e+01	16.4835	96.059608	0.000203	2.027621	0.686977	-0.000081
 592	5.8804e+01	16.4386	95.954642	0.000264	2.635907	0.893070	-0.000105
 593	5.8904e+01	16.4065	95.849677	0.000264	2.635907	0.893070	-0.000105
 594	5.9004e+01	16.3712	95.748748	0.000253	2.534526	0.858721	-0.000101
 595	5.9103e+01	16.3247	95.647820	0.000253	2.534526	0.858721	-0.000101
 596	5.9203e+01	16.2798	95.538817	0.000274	2.737288	0.927418	-0.000110
 597	5.9302e+01	16.2509	95.437889	0.000253	2.534526	0.858721	-0.000101
 598	5.9401e+01	16.2044	95.328886	0.000274	2.737288	0.927418	-0.000110
 599	5.9501e+01	16.1562	95.264292	0.000162	1.622097	0.549581	-0.000065
 600	5.9600e+01	16.1322	95.118955	0.000365	3.649718	1.236558	-0.000146
 601	5.9700e+01	16.0856	95.062435	0.000142	1.419335	0.480884	-0.000057
 602	5.9800e+01	16.0520	94.917098	0.000365	3.649718	1.236558	-0.000146
 603	5.9899e+01	16.0102	94.828281	0.000223	2.230383	0.755674	-0.000089
 604	5.9998e+01	15.9669	94.727353	0.000253	2.534526	0.858721	-0.000101
 605	6.0098e+01	15.9284	94.658722	0.000172	1.723478	0.583930	-0.000069
 606	6.0197e+01	15.8899	94.521459	0.000345	3.446956	1.167860	-0.000138
 607	6.0297e+01	15.8514	94.428605	0.000233	2.331764	0.790023	-0.000093
 608	6.0397e+01	15.8161	94.331714	0.000243	2.433145	0.824372	-0.000097
 609	6.0496e+01	15.7664	94.246934	0.000213	2.129002	0.721325	-0.000085
 610	6.0596e+01	15.7359	94.137931	0.000274	2.737288	0.927418	-0.000110
 611	6.0695e+01	15.6846	94.028928	0.000274	2.737288	0.927418	-0.000110
 612	6.0794e+01	15.6573	93.919926	0.000274	2.737288	0.927418	-0.000110
 613	6.0894e+01	15.6204	93.831109	0.000223	2.230383	0.755674	-0.000089
 614	6.0993e+01	15.5739	93.718069	0.000284	2.838669	0.961767	-0.000114
 615	6.1093e+01	15.5354	93.596955	0.000304	3.041431	1.030465	-0.000122
 616	6.1193e+01	15.4953	93.491989	0.000264	2.635907	0.893070	-0.000105
 617	6.1292e+01	15.4552	93.395098	0.000243	2.433145	0.824372	-0.000097
 618	6.1392e+01	15.4071	93.298207	0.000243	2.433145	0.824372	-0.000097
 619	6.1491e+01	15.3702	93.164981	0.000335	3.345575	1.133511	-0.000134
 620	6.1590e+01	15.3317	93.027719	0.000345	3.446956	1.167860	-0.000138
 621	6.1690e+01	15.2915	92.906605	0.000304	3.041431	1.030465	-0.000122
 622	6.1789e+01	15.2466	92.837973	0.000172	1.723478	0.583930	-0.000069
 623	6.1889e+01	15.2097	92.720896	0.000294	2.940050	0.996116	-0.000118
 624	6.1989e+01	15.1760	92.599782	0.000304	3.041431	1.030465	-0.000122
 625	6.2088e+01	15.1327	92.470594	0.000324	3.244194	1.099163	-0.000130
 626	6.2188e+01	15.0942	92.349480	0.000304	3.041431	1.030465	-0.000122
 627	6.2287e+01	15.0493	92.264700	0.000213	2.129002	0.721325	-0.000085
 628	6.2386e+01	15.0140	92.123400	0.000355	3.548337	1.202209	-0.000142
 629	6.2486e+01	14.9739	92.014398	0.000274	2.737288	0.927418	-0.000110
 630	6.2586e+01	14.9290	91.877135	0.000345	3.446956	1.167860	-0.000138
 631	6.2685e+01	14.8889	91.788318	0.000223	2.230383	0.755674	-0.000089
 632	6.2785e+01	14.8504	91.683353	0.000264	2.635907	0.893070	-0.000105
 633	6.2884e+01	14.8135	91.558201	0.000314	3.142813	1.064814	-0.000126
 634	6.2983e+01	14.7798	91.416902	0.000355	3.548337	1.202209	-0.000142
 635	6.3083e+01	14.7301	91.295788	0.000304	3.041431	1.030465	-0.000122
 636	6.3182e+01	14.6948	91.162562	0.000335	3.345575	1.133511	-0.000134
 637	6.3282e+01	14.6611	91.045485	0.000294	2.940050	0.996116	-0.000118
 638	6.3382e+01	14.6097	90.916297	0.000324	3.244194	1.099163	-0.000130
 639	6.3481e+01	14.5680	90.779034	0.000345	3.446956	1.167860	-0.000138
 640	6.3581e+01	14.5343	90.665994	0.000284	2.838669	0.961767	-0.000114
 641	6.3680e+01	14.5007	90.548917	0.000294	2.940050	0.996116	-0.000118
 642	6.3779e+01	14.4509	90.383395	0.000416	4.156623	1.408302	-0.000166
 643	6.3879e+01	14.4092	90.286504	0.000243	2.433145	0.824372	-0.000097
 644	6.3978e+01	14.3755	90.145204	0.000355	3.548337	1.202209	-0.000142
 645	6.4078e+01	14.3418	90.020053	0.000314	3.142813	1.064814	-0.000126
 646	6.4177e+01	14.2937	89.882790	0.000345	3.446956	1.167860	-0.000138
 647	6.4277e+01	14.2520	89.761676	0.000304	3.041431	1.030465	-0.000122
 648	6.4376e+01	14.2167	89.620376	0.000355	3.548337	1.202209	-0.000142
 649	6.4476e+01	14.1718	89.491188	0.000324	3.244194	1.099163	-0.000130
 650	6.4576e+01	14.1333	89.366037	0.000314	3.142813	1.064814	-0.000126
 651	6.4675e+01	14.0964	89.232811	0.000335	3.345575	1.133511	-0.000134
 652	6.4775e+01	14.0611	89.091511	0.000355	3.548337	1.202209	-0.000142
 653	6.4874e+01	14.0210	88.925989	0.000416	4.156623	1.408302	-0.000166
 654	6.4974e+01	13.9713	88.829098	0.000243	2.433145	0.824372	-0.000097
 655	6.5073e+01	13.9360	88.631278	0.000497	4.967671	1.683093	-0.000199
 656	6.5172e+01	13.8894	88.538424	0.000233	2.331764	0.790023	-0.000093
 657	6.5272e+01	13.8638	88.364827	0.000436	4.359385	1.477000	-0.000174
 658	6.5371e+01	13.8157	88.251787	0.000284	2.838669	0.961767	-0.000114
 659	6.5471e+01	13.7755	88.122599	0.000324	3.244194	1.099163	-0.000130
 660	6.5570e+01	13.7258	87.973225	0.000375	3.751099	1.270907	-0.000150
 661	6.5670e+01	13.6889	87.803665	0.000426	4.258004	1.442651	-0.000170
 662	6.5769e+01	13.6600	87.646217	0.000395	3.953861	1.339604	-0.000158
 663	6.5869e+01	13.6199	87.517029	0.000324	3.244194	1.099163	-0.000130
 664	6.5969e+01	13.5702	87.383803	0.000335	3.345575	1.133511	-0.000134
 665	6.6068e+01	13.5381	87.234429	0.000375	3.751099	1.270907	-0.000150
 666	6.6168e+01	13.5028	87.076981	0.000395	3.953861	1.339604	-0.000158
 667	6.6267e+01	13.4595	86.911458	0.000416	4.156623	1.408302	-0.000166
 668	6.6367e+01	13.4194	86.782270	0.000324	3.244194	1.099163	-0.000130
 669	6.6466e+01	13.3841	86.624822	0.000395	3.953861	1.339604	-0.000158
 670	6.6566e+01	13.3360	86.447188	0.000446	4.460766	1.511348	-0.000179
 671	6.6665e+01	13.2959	86.253405	0.000487	4.866290	1.648744	-0.000195
 672	6.6764e+01	13.2574	86.120180	0.000335	3.345575	1.133511	-0.000134
 673	6.6864e+01	13.2125	85.946583	0.000436	4.359385	1.477000	-0.000174
 674	6.6963e+01	13.1852	85.789134	0.000395	3.953861	1.339604	-0.000158
 675	6.7063e+01	13.1483	85.623612	0.000416	4.156623	1.408302	-0.000166
 676	6.7162e+01	13.1050	85.490386	0.000335	3.345575	1.133511	-0.000134
 677	6.7262e+01	13.0552	85.320827	0.000426	4.258004	1.442651	-0.000170
 678	6.7362e+01	13.0264	85.139156	0.000456	4.562147	1.545697	-0.000183
 679	6.7461e+01	12.9782	84.957484	0.000456	4.562147	1.545697	-0.000183
 680	6.7561e+01	12.9413	84.836370	0.000304	3.041431	1.030465	-0.000122
 681	6.7660e+01	12.9077	84.670848	0.000416	4.156623	1.408302	-0.000166
 682	6.7760e+01	12.8627	84.481102	0.000476	4.764909	1.614395	-0.000191
 683	6.7859e+01	12.8194	84.335766	0.000365	3.649718	1.236558	-0.000146
 684	6.7959e+01	12.7873	84.182354	0.000385	3.852480	1.305256	-0.000154
 685	6.8058e+01	12.7424	84.032980	0.000375	3.751099	1.270907	-0.000150
 686	6.8157e+01	12.6959	83.855346	0.000446	4.460766	1.511348	-0.000179
 687	6.8257e+01	12.6702	83.677712	0.000446	4.460766	1.511348	-0.000179
 688	6.8356e+01	12.6301	83.532376	0.000365	3.649718	1.236558	-0.000146
 689	6.8456e+01	12.5948	83.374927	0.000395	3.953861	1.339604	-0.000158
 690	6.8555e+01	12.5451	83.209405	0.000416	4.156623	1.408302	-0.000166
 691	6.8655e+01	12.5018	83.039845	0.000426	4.258004	1.442651	-0.000170
 692	6.8754e+01	12.4681	82.870285	0.000426	4.258004	1.442651	-0.000170
 693	6.8854e+01	12.4264	82.737060	0.000335	3.345575	1.133511	-0.000134
 694	6.8954e+01	12.3815	82.547314	0.000476	4.764909	1.614395	-0.000191
 695	6.9053e+01	12.3446	82.389866	0.000395	3.953861	1.339604	-0.000158
 696	6.9153e+01	12.3045	82.179935	0.000527	5.271815	1.786139	-0.000211
 697	6.9252e+01	12.2708	82.022487	0.000395	3.953861	1.339604	-0.000158
 698	6.9352e+01	12.2323	81.856964	0.000416	4.156623	1.408302	-0.000166
 699	6.9451e+01	12.1841	81.663182	0.000487	4.866290	1.648744	-0.000195
 700	6.9550e+01	12.1408	81.505733	0.000395	3.953861	1.339604	-0.000158
 701	6.9650e+01	12.1152	81.336174	0.000426	4.258004	1.442651	-0.000170
 702	6.9749e+01	12.0590	81.162577	0.000436	4.359385	1.477000	-0.000174
 703	6.9849e+01	12.0269	80.972831	0.000476	4.764909	1.614395	-0.000191
 704	6.9948e+01	11.9900	80.775012	0.000497	4.967671	1.683093	-0.000199
 705	7.0048e+01	11.9483	80.613526	0.000406	4.055242	1.373953	-0.000162
 706	7.0147e+01	11.9162	80.456078	0.000395	3.953861	1.339604	-0.000158
 707	7.0247e+01	11.8729	80.258258	0.000497	4.967671	1.683093	-0.000199
 708	7.0347e+01	11.8264	80.044290	0.000537	5.373196	1.820488	-0.000215
 709	7.0446e+01	11.7863	79.907028	0.000345	3.446956	1.167860	-0.000138
 710	7.0546e+01	11.7558	79.705171	0.000507	5.069052	1.717441	-0.000203
 711	7.0645e+01	11.7077	79.531574	0.000436	4.359385	1.477000	-0.000174
 712	7.0745e+01	11.6612	79.366051	0.000416	4.156623	1.408302	-0.000166
 713	7.0844e+01	11.6275	79.168232	0.000497	4.967671	1.683093	-0.000199
 714	7.0944e+01	11.5842	79.002709	0.000416	4.156623	1.408302	-0.000166
 715	7.1043e+01	11.5441	78.821038	0.000456	4.562147	1.545697	-0.000183
 716	7.1142e+01	11.5136	78.647441	0.000436	4.359385	1.477000	-0.000174
 717	7.1242e+01	11.4751	78.457696	0.000476	4.764909	1.614395	-0.000191
 718	7.1341e+01	11.4334	78.271988	0.000466	4.663528	1.580046	-0.000187
 719	7.1441e+01	11.3965	78.078205	0.000487	4.866290	1.648744	-0.000195
 720	7.1540e+01	11.3403	77.876348	0.000507	5.069052	1.717441	-0.000203
 721	7.1640e+01	11.3147	77.690640	0.000466	4.663528	1.580046	-0.000187
 722	7.1740e+01	11.2681	77.513006	0.000446	4.460766	1.511348	-0.000179
 723	7.1839e+01	11.2232	77.319224	0.000487	4.866290	1.648744	-0.000195
 724	7.1939e+01	11.1975	77.157738	0.000406	4.055242	1.373953	-0.000162
 725	7.2038e+01	11.1494	76.927621	0.000578	5.778720	1.957883	-0.000231
 726	7.2138e+01	11.1109	76.766136	0.000406	4.055242	1.373953	-0.000162
 727	7.2237e+01	11.0676	76.584465	0.000456	4.562147	1.545697	-0.000183
 728	7.2337e+01	11.0275	76.382608	0.000507	5.069052	1.717441	-0.000203
 729	7.2436e+01	10.9906	76.164603	0.000547	5.474577	1.854837	-0.000219
 730	7.2535e+01	10.9521	75.995043	0.000426	4.258004	1.442651	-0.000170
 731	7.2635e+01	10.9104	75.789149	0.000517	5.170434	1.751790	-0.000207
 732	7.2734e+01	10.8719	75.587292	0.000507	5.069052	1.717441	-0.000203
 733	7.2834e+01	10.8366	75.405621	0.000456	4.562147	1.545697	-0.000183
 734	7.2933e+01	10.7933	75.203765	0.000507	5.069052	1.717441	-0.000203
 735	7.3033e+01	10.7516	74.985759	0.000547	5.474577	1.854837	-0.000219
 736	7.3132e+01	10.7179	74.816199	0.000426	4.258004	1.442651	-0.000170
 737	7.3232e+01	10.6714	74.602231	0.000537	5.373196	1.820488	-0.000215
 738	7.3332e+01	10.6377	74.351929	0.000629	6.285625	2.129627	-0.000252
 739	7.3431e+01	10.5863	74.182369	0.000426	4.258004	1.442651	-0.000170
 740	7.3531e+01	10.5478	73.960327	0.000558	5.575958	1.889186	-0.000223
 741	7.3630e+01	10.5157	73.758470	0.000507	5.069052	1.717441	-0.000203
 742	7.3730e+01	10.4805	73.576799	0.000456	4.562147	1.545697	-0.000183
 743	7.3829e+01	10.4291	73.354756	0.000558	5.575958	1.889186	-0.000223
 744	7.3928e+01	10.3986	73.156937	0.000497	4.967671	1.683093	-0.000199
 745	7.4028e+01	10.3489	72.955080	0.000507	5.069052	1.717441	-0.000203
 746	7.4127e+01	10.3136	72.765335	0.000476	4.764909	1.614395	-0.000191
 747	7.4227e+01	10.2671	72.515032	0.000629	6.285625	2.129627	-0.000252
 748	7.4326e+01	10.2270	72.313175	0.000507	5.069052	1.717441	-0.000203
 749	7.4426e+01	10.1949	72.091133	0.000558	5.575958	1.889186	-0.000223
 750	7.4525e+01	10.1548	71.873128	0.000547	5.474577	1.854837	-0.000219
 751	7.4625e+01	10.1019	71.699531	0.000436	4.359385	1.477000	-0.000174
 752	7.4725e+01	10.0762	71.501711	0.000497	4.967671	1.683093	-0.000199
 753	7.4824e+01	10.0425	71.279669	0.000558	5.575958	1.889186	-0.000223
 754	7.4924e+01	9.9928	71.037440	0.000608	6.082863	2.060930	-0.000243
 755	7.5023e+01	9.9511	70.831547	0.000517	5.170434	1.751790	-0.000207
 756	7.5123e+01	9.9142	70.605467	0.000568	5.677339	1.923534	-0.000227
 757	7.5222e+01	9.8805	70.379387	0.000568	5.677339	1.923534	-0.000227
 758	7.5322e+01	9.8307	70.217902	0.000406	4.055242	1.373953	-0.000162
 759	7.5421e+01	9.7987	69.991822	0.000568	5.677339	1.923534	-0.000227
 760	7.5520e+01	9.7537	69.769780	0.000558	5.575958	1.889186	-0.000223
 761	7.5620e+01	9.7200	69.575997	0.000487	4.866290	1.648744	-0.000195
 762	7.5719e+01	9.6687	69.341843	0.000588	5.880101	1.992232	-0.000235
 763	7.5819e+01	9.6446	69.139987	0.000507	5.069052	1.717441	-0.000203
 764	7.5918e+01	9.5949	68.917944	0.000558	5.575958	1.889186	-0.000223
 765	7.6018e+01	9.5564	68.703976	0.000537	5.373196	1.820488	-0.000215
 766	7.6118e+01	9.5259	68.477896	0.000568	5.677339	1.923534	-0.000227
 767	7.6217e+01	9.4778	68.267965	0.000527	5.271815	1.786139	-0.000211
 768	7.6317e+01	9.4409	68.062071	0.000517	5.170434	1.751790	-0.000207
 769	7.6416e+01	9.3976	67.827918	0.000588	5.880101	1.992232	-0.000235
 770	7.6516e+01	9.3607	67.634135	0.000487	4.866290	1.648744	-0.000195
 771	7.6615e+01	9.3190	67.424204	0.000527	5.271815	1.786139	-0.000211
 772	7.6715e+01	9.2757	67.186013	0.000598	5.981482	2.026581	-0.000239
 773	7.6814e+01	9.2356	66.959933	0.000568	5.677339	1.923534	-0.000227
 774	7.6913e+01	9.1890	66.729817	0.000578	5.778720	1.957883	-0.000231
 775	7.7013e+01	9.1602	66.531997	0.000497	4.967671	1.683093	-0.000199
 776	7.7112e+01	9.1169	66.285732	0.000618	6.184244	2.095279	-0.000248
 777	7.7212e+01	9.0751	66.083875	0.000507	5.069052	1.717441	-0.000203
 778	7.7311e+01	9.0399	65.845684	0.000598	5.981482	2.026581	-0.000239
 779	7.7411e+01	8.9997	65.643827	0.000507	5.069052	1.717441	-0.000203
 780	7.7510e+01	8.9596	65.417747	0.000568	5.677339	1.923534	-0.000227
 781	7.7610e+01	8.9115	65.248188	0.000426	4.258004	1.442651	-0.000170
 782	7.7710e+01	8.8826	64.973663	0.000689	6.893911	2.335720	-0.000276
 783	7.7809e+01	8.8409	64.747583	0.000568	5.677339	1.923534	-0.000227
 784	7.7909e+01	8.7992	64.561875	0.000466	4.663528	1.580046	-0.000187
 785	7.8008e+01	8.7735	64.307535	0.000639	6.387006	2.163976	-0.000256
 786	7.8108e+01	8.7238	64.113753	0.000487	4.866290	1.648744	-0.000195
 787	7.8207e+01	8.6773	63.903822	0.000527	5.271815	1.786139	-0.000211
 788	7.8306e+01	8.6388	63.653519	0.000629	6.285625	2.129627	-0.000252
 789	7.8406e+01	8.5955	63.451662	0.000507	5.069052	1.717441	-0.000203
 790	7.8505e+01	8.5714	63.233657	0.000547	5.474577	1.854837	-0.000219
 791	7.8605e+01	8.5297	62.938946	0.000740	7.400817	2.507465	-0.000296
 792	7.8704e+01	8.4832	62.777461	0.000406	4.055242	1.373953	-0.000162
 793	7.8804e+01	8.4367	62.535233	0.000608	6.082863	2.060930	-0.000243
 794	7.8903e+01	8.3917	62.321264	0.000537	5.373196	1.820488	-0.000215
 795	7.9003e+01	8.3581	62.095185	0.000568	5.677339	1.923534	-0.000227
 796	7.9103e+01	8.3260	61.869105	0.000568	5.677339	1.923534	-0.000227
 797	7.9202e+01	8.2794	61.618803	0.000629	6.285625	2.129627	-0.000252
 798	7.9302e+01	8.2458	61.404835	0.000537	5.373196	1.820488	-0.000215
 799	7.9401e+01	8.1960	61.158569	0.000618	6.184244	2.095279	-0.000248
 800	7.9501e+01	8.1543	60.924415	0.000588	5.880101	1.992232	-0.000235
 801	7.9600e+01	8.1190	60.710447	0.000537	5.373196	1.820488	-0.000215
 802	7.9700e+01	8.0773	60.504553	0.000517	5.170434	1.751790	-0.000207
 803	7.9799e+01	8.0404	60.286548	0.000547	5.474577	1.854837	-0.000219
 804	7.9898e+01	8.0067	60.084691	0.000507	5.069052	1.717441	-0.000203
 805	7.9998e+01	7.9554	59.838426	0.000618	6.184244	2.095279	-0.000248
 806	8.0097e+01	7.9169	59.588123	0.000629	6.285625	2.129627	-0.000252
 807	8.0197e+01	7.8880	59.390304	0.000497	4.967671	1.683093	-0.000199
 808	8.0296e+01	7.8415	59.160187	0.000578	5.778720	1.957883	-0.000231
 809	8.0396e+01	7.8094	58.921996	0.000598	5.981482	2.026581	-0.000239
 810	8.0496e+01	7.7629	58.687842	0.000588	5.880101	1.992232	-0.000235
 811	8.0595e+01	7.7260	58.453688	0.000588	5.880101	1.992232	-0.000235
 812	8.0695e+01	7.6811	58.223572	0.000578	5.778720	1.957883	-0.000231
 813	8.0794e+01	7.6345	57.997492	0.000568	5.677339	1.923534	-0.000227
 814	8.0894e+01	7.6073	57.755264	0.000608	6.082863	2.060930	-0.000243
 815	8.0993e+01	7.5672	57.529184	0.000568	5.677339	1.923534	-0.000227
 816	8.1093e+01	7.5206	57.323290	0.000517	5.170434	1.751790	-0.000207
 817	8.1192e+01	7.4918	57.093174	0.000578	5.778720	1.957883	-0.000231
 818	8.1291e+01	7.4468	56.863057	0.000578	5.778720	1.957883	-0.000231
 819	8.1391e+01	7.4083	56.636977	0.000568	5.677339	1.923534	-0.000227
 820	8.1490e+01	7.3666	56.406861	0.000578	5.778720	1.957883	-0.000231
 821	8.1590e+01	7.3313	56.148484	0.000649	6.488387	2.198325	-0.000260
 822	8.1689e+01	7.2816	55.954701	0.000487	4.866290	1.648744	-0.000195
 823	8.1789e+01	7.2399	55.676139	0.000700	6.995292	2.370069	-0.000280
 824	8.1888e+01	7.2030	55.482356	0.000487	4.866290	1.648744	-0.000195
 825	8.1988e+01	7.1565	55.292611	0.000476	4.764909	1.614395	-0.000191
 826	8.2088e+01	7.1228	55.030197	0.000659	6.589768	2.232674	-0.000264
 827	8.2187e+01	7.0795	54.800081	0.000578	5.778720	1.957883	-0.000231
 828	8.2287e+01	7.0458	54.553815	0.000618	6.184244	2.095279	-0.000248
 829	8.2386e+01	7.0105	54.323698	0.000578	5.778720	1.957883	-0.000231
 830	8.2486e+01	6.9624	54.154139	0.000426	4.258004	1.442651	-0.000170
 831	8.2585e+01	6.9271	53.895762	0.000649	6.488387	2.198325	-0.000260
 832	8.2684e+01	6.8902	53.665645	0.000578	5.778720	1.957883	-0.000231
 833	8.2784e+01	6.8404	53.419380	0.000618	6.184244	2.095279	-0.000248
 834	8.2883e+01	6.8084	53.205412	0.000537	5.373196	1.820488	-0.000215
 835	8.2983e+01	6.7634	52.955109	0.000629	6.285625	2.129627	-0.000252
 836	8.3082e+01	6.7201	52.724993	0.000578	5.778720	1.957883	-0.000231
 837	8.3182e+01	6.6880	52.490839	0.000588	5.880101	1.992232	-0.000235
 838	8.3281e+01	6.6560	52.264759	0.000568	5.677339	1.923534	-0.000227
 839	8.3381e+01	6.5982	52.026568	0.000598	5.981482	2.026581	-0.000239
 840	8.3481e+01	6.5709	51.784340	0.000608	6.082863	2.060930	-0.000243
 841	8.3580e+01	6.5260	51.562298	0.000558	5.575958	1.889186	-0.000223
 842	8.3680e+01	6.4875	51.311995	0.000629	6.285625	2.129627	-0.000252
 843	8.3779e+01	6.4490	51.106101	0.000517	5.170434	1.751790	-0.000207
 844	8.3879e+01	6.4137	50.892133	0.000537	5.373196	1.820488	-0.000215
 845	8.3978e+01	6.3672	50.601459	0.000730	7.299436	2.473116	-0.000292
 846	8.4078e+01	6.3287	50.379417	0.000558	5.575958	1.889186	-0.000223
 847	8.4177e+01	6.2982	50.129114	0.000629	6.285625	2.129627	-0.000252
 848	8.4276e+01	6.2501	49.915146	0.000537	5.373196	1.820488	-0.000215
 849	8.4376e+01	6.2068	49.664844	0.000629	6.285625	2.129627	-0.000252
 850	8.4475e+01	6.1667	49.430690	0.000588	5.880101	1.992232	-0.000235
 851	8.4575e+01	6.1298	49.208648	0.000558	5.575958	1.889186	-0.000223
 852	8.4674e+01	6.0881	48.966419	0.000608	6.082863	2.060930	-0.000243
 853	8.4774e+01	6.0399	48.732265	0.000588	5.880101	1.992232	-0.000235
 854	8.4874e+01	6.0079	48.477926	0.000639	6.387006	2.163976	-0.000256
 855	8.4973e+01	5.9677	48.195326	0.000710	7.096673	2.404418	-0.000284
 856	8.5073e+01	5.9260	47.989433	0.000517	5.170434	1.751790	-0.000207
 857	8.5172e+01	5.8875	47.771427	0.000547	5.474577	1.854837	-0.000219
 858	8.5272e+01	5.8506	47.496902	0.000689	6.893911	2.335720	-0.000276
 859	8.5371e+01	5.8041	47.250637	0.000618	6.184244	2.095279	-0.000248
 860	8.5471e+01	5.7688	47.040706	0.000527	5.271815	1.786139	-0.000211
 861	8.5570e+01	5.7319	46.806552	0.000588	5.880101	1.992232	-0.000235
 862	8.5669e+01	5.6918	46.544138	0.000659	6.589768	2.232674	-0.000264
 863	8.5769e+01	5.6533	46.326133	0.000547	5.474577	1.854837	-0.000219
 864	8.5868e+01	5.6116	46.096016	0.000578	5.778720	1.957883	-0.000231
 865	8.5968e+01	5.5683	45.841676	0.000639	6.387006	2.163976	-0.000256
 866	8.6067e+01	5.5378	45.611560	0.000578	5.778720	1.957883	-0.000231
 867	8.6167e+01	5.4929	45.393554	0.000547	5.474577	1.854837	-0.000219
 868	8.6266e+01	5.4640	45.127103	0.000669	6.691149	2.267023	-0.000268
 869	8.6366e+01	5.4047	44.896987	0.000578	5.778720	1.957883	-0.000231
 870	8.6466e+01	5.3806	44.626498	0.000679	6.792530	2.301372	-0.000272
 871	8.6565e+01	5.3309	44.376196	0.000629	6.285625	2.129627	-0.000252
 872	8.6665e+01	5.2988	44.138005	0.000598	5.981482	2.026581	-0.000239
 873	8.6764e+01	5.2523	43.903851	0.000588	5.880101	1.992232	-0.000235
 874	8.6864e+01	5.2218	43.657586	0.000618	6.184244	2.095279	-0.000248
 875	8.6963e+01	5.1704	43.407283	0.000629	6.285625	2.129627	-0.000252
 876	8.7063e+01	5.1255	43.161018	0.000618	6.184244	2.095279	-0.000248
 877	8.7162e+01	5.1015	42.918790	0.000608	6.082863	2.060930	-0.000243
 878	8.7261e+01	5.0517	42.636191	0.000710	7.096673	2.404418	-0.000284
 879	8.7361e+01	5.0084	42.462594	0.000436	4.359385	1.477000	-0.000174
 880	8.7460e+01	4.9763	42.196143	0.000669	6.691149	2.267023	-0.000268
 881	8.7560e+01	4.9378	41.961989	0.000588	5.880101	1.992232	-0.000235
 882	8.7659e+01	4.8961	41.731872	0.000578	5.778720	1.957883	-0.000231
 883	8.7759e+01	4.8576	41.477533	0.000639	6.387006	2.163976	-0.000256
 884	8.7859e+01	4.8175	41.215119	0.000659	6.589768	2.232674	-0.000264
 885	8.7958e+01	4.7758	40.976928	0.000598	5.981482	2.026581	-0.000239
 886	8.8058e+01	4.7389	40.714514	0.000659	6.589768	2.232674	-0.000264
 887	8.8157e+01	4.7020	40.524769	0.000476	4.764909	1.614395	-0.000191
 888	8.8257e+01	4.6523	40.286578	0.000598	5.981482	2.026581	-0.000239
 889	8.8356e+01	4.6202	40.024164	0.000659	6.589768	2.232674	-0.000264
 890	8.8456e+01	4.5769	39.757713	0.000669	6.691149	2.267023	-0.000268
 891	8.8555e+01	4.5400	39.511447	0.000618	6.184244	2.095279	-0.000248
 892	8.8654e+01	4.5063	39.228848	0.000710	7.096673	2.404418	-0.000284
 893	8.8754e+01	4.4598	39.031028	0.000497	4.967671	1.683093	-0.000199
 894	8.8853e+01	4.4116	38.817060	0.000537	5.373196	1.820488	-0.000215
 895	8.8953e+01	4.3699	38.554646	0.000659	6.589768	2.232674	-0.000264
 896	8.9052e+01	4.3443	38.308381	0.000618	6.184244	2.095279	-0.000248
 897	8.9152e+01	4.2977	38.001559	0.000770	7.704960	2.610511	-0.000308
 898	8.9251e+01	4.2641	37.807776	0.000487	4.866290	1.648744	-0.000195
 899	8.9351e+01	4.2143	37.545362	0.000659	6.589768	2.232674	-0.000264
 900	8.9451e+01	4.1790	37.315246	0.000578	5.778720	1.957883	-0.000231
 901	8.9550e+01	4.1341	37.052832	0.000659	6.589768	2.232674	-0.000264
 902	8.9650e+01	4.1020	36.782344	0.000679	6.792530	2.301372	-0.000272
 903	8.9749e+01	4.0571	36.552227	0.000578	5.778720	1.957883	-0.000231
 904	8.9849e+01	4.0202	36.301925	0.000629	6.285625	2.129627	-0.000252
 905	8.9948e+01	3.9801	36.043548	0.000649	6.488387	2.198325	-0.000260
 906	9.0047e+01	3.9304	35.769023	0.000689	6.893911	2.335720	-0.000276
 907	9.0147e+01	3.9015	35.546980	0.000558	5.575958	1.889186	-0.000223
 908	9.0246e+01	3.8550	35.276492	0.000679	6.792530	2.301372	-0.000272
 909	9.0346e+01	3.8229	35.050412	0.000568	5.677339	1.923534	-0.000227
 910	9.0445e+01	3.7748	34.796073	0.000639	6.387006	2.163976	-0.000256
 911	9.0545e+01	3.7443	34.574030	0.000558	5.575958	1.889186	-0.000223
 912	9.0644e+01	3.6929	34.287394	0.000720	7.198055	2.438767	-0.000288
 913	9.0744e+01	3.6560	34.081500	0.000517	5.170434	1.751790	-0.000207
 914	9.0844e+01	3.6191	33.806975	0.000689	6.893911	2.335720	-0.000276
 915	9.0943e+01	3.5806	33.552635	0.000639	6.387006	2.163976	-0.000256
 916	9.1043e+01	3.5470	33.249850	0.000760	7.603579	2.576162	-0.000304
 917	9.1142e+01	3.5085	33.068179	0.000456	4.562147	1.545697	-0.000183
 918	9.1242e+01	3.4555	32.785579	0.000710	7.096673	2.404418	-0.000284
 919	9.1341e+01	3.4266	32.523166	0.000659	6.589768	2.232674	-0.000264
 920	9.1441e+01	3.3833	32.297086	0.000568	5.677339	1.923534	-0.000227
 921	9.1540e+01	3.3480	32.058895	0.000598	5.981482	2.026581	-0.000239
 922	9.1639e+01	3.3031	31.800518	0.000649	6.488387	2.198325	-0.000260
 923	9.1739e+01	3.2726	31.538104	0.000659	6.589768	2.232674	-0.000264
 924	9.1838e+01	3.2277	31.295876	0.000608	6.082863	2.060930	-0.000243
 925	9.1938e+01	3.1876	31.057685	0.000598	5.981482	2.026581	-0.000239
 926	9.2037e+01	3.1363	30.827568	0.000578	5.778720	1.957883	-0.000231
 927	9.2137e+01	3.0962	30.573229	0.000639	6.387006	2.163976	-0.000256
 928	9.2237e+01	3.0689	30.314852	0.000649	6.488387	2.198325	-0.000260
 929	9.2336e+01	3.0208	30.040327	0.000689	6.893911	2.335720	-0.000276
 930	9.2436e+01	2.9839	29.798099	0.000608	6.082863	2.060930	-0.000243
 931	9.2535e+01	2.9341	29.523574	0.000689	6.893911	2.335720	-0.000276
 932	9.2635e+01	2.8956	29.337865	0.000466	4.663528	1.580046	-0.000187
 933	9.2734e+01	2.8668	29.067377	0.000679	6.792530	2.301372	-0.000272
 934	9.2834e+01	2.8234	28.813038	0.000639	6.387006	2.163976	-0.000256
 935	9.2933e+01	2.7801	28.562735	0.000629	6.285625	2.129627	-0.000252
 936	9.3032e+01	2.7432	28.324544	0.000598	5.981482	2.026581	-0.000239
 937	9.3132e+01	2.7079	28.033871	0.000730	7.299436	2.473116	-0.000292
 938	9.3231e+01	2.6662	27.832014	0.000507	5.069052	1.717441	-0.000203
 939	9.3331e+01	2.6277	27.585748	0.000618	6.184244	2.095279	-0.000248
 940	9.3430e+01	2.5844	27.315260	0.000679	6.792530	2.301372	-0.000272
 941	9.3530e+01	2.5443	27.052847	0.000659	6.589768	2.232674	-0.000264
 942	9.3629e+01	2.4962	26.814656	0.000598	5.981482	2.026581	-0.000239
 943	9.3729e+01	2.4689	26.548205	0.000669	6.691149	2.267023	-0.000268
 944	9.3829e+01	2.4176	26.310014	0.000598	5.981482	2.026581	-0.000239
 945	9.3928e+01	2.3855	26.087971	0.000558	5.575958	1.889186	-0.000223
 946	9.4028e+01	2.3486	25.825557	0.000659	6.589768	2.232674	-0.000264
 947	9.4127e+01	2.3053	25.587366	0.000598	5.981482	2.026581	-0.000239
 948	9.4227e+01	2.2684	25.365324	0.000558	5.575958	1.889186	-0.000223
 949	9.4326e+01	2.2283	25.094836	0.000679	6.792530	2.301372	-0.000272
 950	9.4425e+01	2.1850	24.872793	0.000558	5.575958	1.889186	-0.000223
 951	9.4525e+01	2.1465	24.590194	0.000710	7.096673	2.404418	-0.000284
 952	9.4624e+01	2.0983	24.339891	0.000629	6.285625	2.129627	-0.000252
 953	9.4724e+01	2.0711	24.101700	0.000598	5.981482	2.026581	-0.000239
 954	9.4823e+01	2.0229	23.802952	0.000750	7.502198	2.541813	-0.000300
 955	9.4923e+01	1.9796	23.552650	0.000629	6.285625	2.129627	-0.000252
 956	9.5022e+01	1.9427	23.318496	0.000588	5.880101	1.992232	-0.000235
 957	9.5122e+01	1.9138	23.088379	0.000578	5.778720	1.957883	-0.000231
 958	9.5222e+01	1.8609	22.854225	0.000588	5.880101	1.992232	-0.000235
 959	9.5321e+01	1.8272	22.583737	0.000679	6.792530	2.301372	-0.000272
 960	9.5421e+01	1.7823	22.329398	0.000639	6.387006	2.163976	-0.000256
 961	9.5520e+01	1.7566	22.103318	0.000568	5.677339	1.923534	-0.000227
 962	9.5620e+01	1.7021	21.812644	0.000730	7.299436	2.473116	-0.000292
 963	9.5719e+01	1.6652	21.578491	0.000588	5.880101	1.992232	-0.000235
 964	9.5819e+01	1.6315	21.328188	0.000629	6.285625	2.129627	-0.000252
 965	9.5918e+01	1.5818	21.077886	0.000629	6.285625	2.129627	-0.000252
 966	9.6017e+01	1.5465	20.863917	0.000537	5.373196	1.820488	-0.000215
 967	9.6117e+01	1.5144	20.609578	0.000639	6.387006	2.163976	-0.000256
 968	9.6216e+01	1.4566	20.347164	0.000659	6.589768	2.232674	-0.000264
 969	9.6316e+01	1.4246	20.064565	0.000710	7.096673	2.404418	-0.000284
 970	9.6415e+01	1.3861	19.862708	0.000507	5.069052	1.717441	-0.000203
 971	9.6515e+01	1.3443	19.572034	0.000730	7.299436	2.473116	-0.000292
 972	9.6615e+01	1.3074	19.341917	0.000578	5.778720	1.957883	-0.000231
 973	9.6714e+01	1.2754	19.083541	0.000649	6.488387	2.198325	-0.000260
 974	9.6814e+01	1.2321	18.825164	0.000649	6.488387	2.198325	-0.000260
 975	9.6913e+01	1.1919	18.591010	0.000588	5.880101	1.992232	-0.000235
 976	9.7013e+01	1.1615	18.300336	0.000730	7.299436	2.473116	-0.000292
 977	9.7112e+01	1.1021	18.110591	0.000476	4.764909	1.614395	-0.000191
 978	9.7212e+01	1.0748	17.819917	0.000730	7.299436	2.473116	-0.000292
 979	9.7311e+01	1.0299	17.581726	0.000598	5.981482	2.026581	-0.000239
 980	9.7410e+01	0.9898	17.335461	0.000618	6.184244	2.095279	-0.000248
 981	9.7510e+01	0.9465	17.089196	0.000618	6.184244	2.095279	-0.000248
 982	9.7609e+01	0.9192	16.834856	0.000639	6.387006	2.163976	-0.000256
 983	9.7709e+01	0.8743	16.584554	0.000629	6.285625	2.129627	-0.000252
 984	9.7808e+01	0.8262	16.314066	0.000679	6.792530	2.301372	-0.000272
 985	9.7908e+01	0.7845	16.079912	0.000588	5.880101	1.992232	-0.000235
 986	9.8007e+01	0.7524	15.837684	0.000608	6.082863	2.060930	-0.000243
 987	9.8107e+01	0.7075	15.595455	0.000608	6.082863	2.060930	-0.000243
 988	9.8207e+01	0.6802	15.312856	0.000710	7.096673	2.404418	-0.000284
 989	9.8306e+01	0.6417	15.082739	0.000578	5.778720	1.957883	-0.000231
 990	9.8406e+01	0.5952	14.856660	0.000568	5.677339	1.923534	-0.000227
 991	9.8505e+01	0.5438	14.598283	0.000649	6.488387	2.198325	-0.000260
 992	9.8605e+01	0.5134	14.335869	0.000659	6.589768	2.232674	-0.000264
 993	9.8704e+01	0.4716	14.097678	0.000598	5.981482	2.026581	-0.000239
 994	9.8803e+01	0.4203	13.867561	0.000578	5.778720	1.957883	-0.000231
 995	9.8903e+01	0.3882	13.601110	0.000669	6.691149	2.267023	-0.000268
 996	9.9002e+01	0.3481	13.358882	0.000608	6.082863	2.060930	-0.000243
 997	9.9102e+01	0.3160	13.112617	0.000618	6.184244	2.095279	-0.000248
 998	9.9201e+01	0.2679	12.878463	0.000588	5.880101	1.992232	-0.000235
 999	9.9301e+01	0.2246	12.616049	0.000659	6.589768	2.232674	-0.000264
1000	9.9400e+01	0.1893	12.394007	0.000558	5.575958	1.889186	-0.000223
1001	9.9500e+01	0.1524	12.099296	0.000740	7.400817	2.507465	-0.000296
1002	9.9600e+01	0.1043	11.828808	0.000679	6.792530	2.301372	-0.000272
1003	9.9699e+01	0.0626	11.614840	0.000537	5.373196	1.820488	-0.000215
1004	9.9799e+01	0.0337	11.332240	0.000710	7.096673	2.404418	-0.000284
1005	9.9898e+01	-0.0080	11.166717	0.000416	4.156623	1.408302	-0.000166
1006	9.9998e+01	-0.0433	10.904304	0.000659	6.589768	2.232674	-0.000264
1007	1.0010e+02	-0.0802	10.645927	0.000649	6.488387	2.198325	-0.000260
1008	1.0020e+02	-0.1171	10.399662	0.000618	6.184244	2.095279	-0.000248
1009	1.0030e+02	-0.1652	10.121099	0.000700	6.995292	2.370069	-0.000280
1010	1.0040e+02	-0.1925	9.923280	0.000497	4.967671	1.683093	-0.000199
1011	1.0050e+02	-0.2422	9.672977	0.000629	6.285625	2.129627	-0.000252
1012	1.0059e+02	-0.2791	9.386341	0.000720	7.198055	2.438767	-0.000288
1013	1.0069e+02	-0.3176	9.136038	0.000629	6.285625	2.129627	-0.000252
1014	1.0079e+02	-0.3561	8.918033	0.000547	5.474577	1.854837	-0.000219
1015	1.0089e+02	-0.3930	8.651582	0.000669	6.691149	2.267023	-0.000268
1016	1.0099e+02	-0.4364	8.348797	0.000760	7.603579	2.576162	-0.000304
1017	1.0109e+02	-0.4765	8.146940	0.000507	5.069052	1.717441	-0.000203
1018	1.0119e+02	-0.5182	7.892600	0.000639	6.387006	2.163976	-0.000256
1019	1.0129e+02	-0.5551	7.622112	0.000679	6.792530	2.301372	-0.000272
1020	1.0139e+02	-0.5952	7.387958	0.000588	5.880101	1.992232	-0.000235
1021	1.0149e+02	-0.6465	7.113433	0.000689	6.893911	2.335720	-0.000276
1022	1.0159e+02	-0.6722	6.842945	0.000679	6.792530	2.301372	-0.000272
1023	1.0169e+02	-0.7171	6.649163	0.000487	4.866290	1.648744	-0.000195
1024	1.0179e+02	-0.7524	6.366563	0.000710	7.096673	2.404418	-0.000284
1025	1.0189e+02	-0.7941	6.120298	0.000618	6.184244	2.095279	-0.000248
1026	1.0199e+02	-0.8422	5.821550	0.000750	7.502198	2.541813	-0.000300
1027	1.0209e+02	-0.8871	5.627767	0.000487	4.866290	1.648744	-0.000195
1028	1.0219e+02	-0.9144	5.341131	0.000720	7.198055	2.438767	-0.000288
1029	1.0229e+02	-0.9625	5.078717	0.000659	6.589768	2.232674	-0.000264
1030	1.0239e+02	-0.9930	4.832451	0.000618	6.184244	2.095279	-0.000248
1031	1.0248e+02	-1.0379	4.557926	0.000689	6.893911	2.335720	-0.000276
1032	1.0258e+02	-1.0748	4.327810	0.000578	5.778720	1.957883	-0.000231
1033	1.0268e+02	-1.1165	4.065396	0.000659	6.589768	2.232674	-0.000264
1034	1.0278e+02	-1.1534	3.831242	0.000588	5.880101	1.992232	-0.000235
1035	1.0288e+02	-1.1952	3.601125	0.000578	5.778720	1.957883	-0.000231
1036	1.0298e+02	-1.2353	3.350823	0.000629	6.285625	2.129627	-0.000252
1037	1.0308e+02	-1.2770	3.068223	0.000710	7.096673	2.404418	-0.000284
1038	1.0318e+02	-1.3107	2.813884	0.000639	6.387006	2.163976	-0.000256
1039	1.0328e+02	-1.3652	2.555507	0.000649	6.488387	2.198325	-0.000260
1040	1.0338e+02	-1.3925	2.337502	0.000547	5.474577	1.854837	-0.000219
1041	1.0348e+02	-1.4390	2.062976	0.000689	6.893911	2.335720	-0.000276
1042	1.0358e+02	-1.4743	1.780377	0.000710	7.096673	2.404418	-0.000284
1043	1.0368e+02	-1.5144	1.530074	0.000629	6.285625	2.129627	-0.000252
1044	1.0378e+02	-1.5465	1.320143	0.000527	5.271815	1.786139	-0.000211
1045	1.0388e+02	-1.5962	1.037544	0.000710	7.096673	2.404418	-0.000284
1046	1.0398e+02	-1.6219	0.795316	0.000608	6.082863	2.060930	-0.000243
1047	1.0408e+02	-1.6732	0.557125	0.000598	5.981482	2.026581	-0.000239
1048	1.0418e+02	-1.7149	0.278562	0.000700	6.995292	2.370069	-0.000280
1049	1.0428e+02	-1.7502	0.044408	0.000588	5.880101	1.992232	-0.000235
1050	1.0438e+02	-1.7855	-0.197820	0.000608	6.082863	2.060930	-0.000243
1051	1.0447e+02	-1.8304	-0.460233	0.000659	6.589768	2.232674	-0.000264
1052	1.0457e+02	-1.8705	-0.694387	0.000588	5.880101	1.992232	-0.000235
1053	1.0467e+02	-1.9219	-0.989098	0.000740	7.400817	2.507465	-0.000296
1054	1.0477e+02	-1.9491	-1.255549	0.000669	6.691149	2.267023	-0.000268
1055	1.0487e+02	-1.9957	-1.485666	0.000578	5.778720	1.957883	-0.000231
1056	1.0497e+02	-2.0374	-1.723857	0.000598	5.981482	2.026581	-0.000239
1057	1.0507e+02	-2.0775	-1.994345	0.000679	6.792530	2.301372	-0.000272
1058	1.0517e+02	-2.1080	-2.244647	0.000629	6.285625	2.129627	-0.000252
1059	1.0527e+02	-2.1577	-2.507061	0.000659	6.589768	2.232674	-0.000264
1060	1.0537e+02	-2.1930	-2.761401	0.000639	6.387006	2.163976	-0.000256
1061	1.0547e+02	-2.2235	-3.003629	0.000608	6.082863	2.060930	-0.000243
1062	1.0557e+02	-2.2732	-3.241820	0.000598	5.981482	2.026581	-0.000239
1063	1.0567e+02	-2.3069	-3.475974	0.000588	5.880101	1.992232	-0.000235
1064	1.0577e+02	-2.3422	-3.770685	0.000740	7.400817	2.507465	-0.000296
1065	1.0587e+02	-2.3903	-3.960430	0.000476	4.764909	1.614395	-0.000191
1066	1.0597e+02	-2.4368	-4.279364	0.000801	8.009103	2.713558	-0.000321
1067	1.0607e+02	-2.4769	-4.497369	0.000547	5.474577	1.854837	-0.000219
1068	1.0617e+02	-2.5122	-4.824377	0.000821	8.211865	2.782255	-0.000329
1069	1.0627e+02	-2.5507	-5.014123	0.000476	4.764909	1.614395	-0.000191
1070	1.0637e+02	-2.5989	-5.312871	0.000750	7.502198	2.541813	-0.000300
1071	1.0647e+02	-2.6358	-5.518765	0.000517	5.170434	1.751790	-0.000207
1072	1.0656e+02	-2.6694	-5.817513	0.000750	7.502198	2.541813	-0.000300
1073	1.0666e+02	-2.7144	-6.019369	0.000507	5.069052	1.717441	-0.000203
1074	1.0676e+02	-2.7497	-6.301969	0.000710	7.096673	2.404418	-0.000284
1075	1.0686e+02	-2.7898	-6.580531	0.000700	6.995292	2.370069	-0.000280
1076	1.0696e+02	-2.8283	-6.846982	0.000669	6.691149	2.267023	-0.000268
1077	1.0706e+02	-2.8636	-7.036728	0.000476	4.764909	1.614395	-0.000191
1078	1.0716e+02	-2.9053	-7.315290	0.000700	6.995292	2.370069	-0.000280
1079	1.0726e+02	-2.9454	-7.589815	0.000689	6.893911	2.335720	-0.000276
1080	1.0736e+02	-2.9887	-7.836080	0.000618	6.184244	2.095279	-0.000248
1081	1.0746e+02	-3.0352	-8.114643	0.000700	6.995292	2.370069	-0.000280
1082	1.0756e+02	-3.0561	-8.320537	0.000517	5.170434	1.751790	-0.000207
1083	1.0766e+02	-3.1170	-8.627359	0.000770	7.704960	2.610511	-0.000308
1084	1.0776e+02	-3.1491	-8.861513	0.000588	5.880101	1.992232	-0.000235
1085	1.0786e+02	-3.1860	-9.087593	0.000568	5.677339	1.923534	-0.000227
1086	1.0796e+02	-3.2229	-9.354044	0.000669	6.691149	2.267023	-0.000268
1087	1.0806e+02	-3.2566	-9.592235	0.000598	5.981482	2.026581	-0.000239
1088	1.0816e+02	-3.3079	-9.870797	0.000700	6.995292	2.370069	-0.000280
1089	1.0826e+02	-3.3448	-10.117062	0.000618	6.184244	2.095279	-0.000248
1090	1.0836e+02	-3.3865	-10.322956	0.000517	5.170434	1.751790	-0.000207
1091	1.0845e+02	-3.4331	-10.581333	0.000649	6.488387	2.198325	-0.000260
1092	1.0855e+02	-3.4651	-10.831635	0.000629	6.285625	2.129627	-0.000252
1093	1.0865e+02	-3.5101	-11.110198	0.000700	6.995292	2.370069	-0.000280
1094	1.0875e+02	-3.5389	-11.356463	0.000618	6.184244	2.095279	-0.000248
1095	1.0885e+02	-3.5887	-11.610802	0.000639	6.387006	2.163976	-0.000256
1096	1.0895e+02	-3.6159	-11.824771	0.000537	5.373196	1.820488	-0.000215
1097	1.0905e+02	-3.6689	-12.087184	0.000659	6.589768	2.232674	-0.000264
1098	1.0915e+02	-3.6897	-12.337487	0.000629	6.285625	2.129627	-0.000252
1099	1.0925e+02	-3.7347	-12.612012	0.000689	6.893911	2.335720	-0.000276
1100	1.0935e+02	-3.7860	-12.825980	0.000537	5.373196	1.820488	-0.000215
1101	1.0945e+02	-3.8149	-13.088394	0.000659	6.589768	2.232674	-0.000264
1102	1.0955e+02	-3.8662	-13.322548	0.000588	5.880101	1.992232	-0.000235
1103	1.0965e+02	-3.9095	-13.572850	0.000629	6.285625	2.129627	-0.000252
1104	1.0975e+02	-3.9464	-13.839301	0.000669	6.691149	2.267023	-0.000268
1105	1.0985e+02	-3.9881	-14.061344	0.000558	5.575958	1.889186	-0.000223
1106	1.0995e+02	-4.0218	-14.315683	0.000639	6.387006	2.163976	-0.000256
1107	1.1005e+02	-4.0651	-14.574060	0.000649	6.488387	2.198325	-0.000260
1108	1.1015e+02	-4.1020	-14.816288	0.000608	6.082863	2.060930	-0.000243
1109	1.1025e+02	-4.1534	-15.026219	0.000527	5.271815	1.786139	-0.000211
1110	1.1035e+02	-4.1806	-15.292670	0.000669	6.691149	2.267023	-0.000268
1111	1.1044e+02	-4.2223	-15.530861	0.000598	5.981482	2.026581	-0.000239
1112	1.1054e+02	-4.2592	-15.777126	0.000618	6.184244	2.095279	-0.000248
1113	1.1064e+02	-4.2993	-15.987058	0.000527	5.271815	1.786139	-0.000211
1114	1.1074e+02	-4.3411	-16.253508	0.000669	6.691149	2.267023	-0.000268
1115	1.1084e+02	-4.3892	-16.495737	0.000608	6.082863	2.060930	-0.000243
1116	1.1094e+02	-4.4229	-16.754113	0.000649	6.488387	2.198325	-0.000260
1117	1.1104e+02	-4.4710	-17.024601	0.000679	6.792530	2.301372	-0.000272
1118	1.1114e+02	-4.4999	-17.258755	0.000588	5.880101	1.992232	-0.000235
1119	1.1124e+02	-4.5416	-17.464649	0.000517	5.170434	1.751790	-0.000207
1120	1.1134e+02	-4.5737	-17.743212	0.000700	6.995292	2.370069	-0.000280
1121	1.1144e+02	-4.6218	-17.985440	0.000608	6.082863	2.060930	-0.000243
1122	1.1154e+02	-4.6571	-18.203445	0.000547	5.474577	1.854837	-0.000219
1123	1.1164e+02	-4.6972	-18.453747	0.000629	6.285625	2.129627	-0.000252
1124	1.1174e+02	-4.7293	-18.663679	0.000527	5.271815	1.786139	-0.000211
1125	1.1184e+02	-4.7854	-18.946278	0.000710	7.096673	2.404418	-0.000284
1126	1.1194e+02	-4.8207	-19.184469	0.000598	5.981482	2.026581	-0.000239
1127	1.1204e+02	-4.8656	-19.422660	0.000598	5.981482	2.026581	-0.000239
1128	1.1214e+02	-4.9041	-19.668925	0.000618	6.184244	2.095279	-0.000248
1129	1.1224e+02	-4.9314	-19.882894	0.000537	5.373196	1.820488	-0.000215
1130	1.1234e+02	-4.9811	-20.157419	0.000689	6.893911	2.335720	-0.000276
1131	1.1244e+02	-5.0245	-20.387535	0.000578	5.778720	1.957883	-0.000231
1132	1.1253e+02	-5.0614	-20.629764	0.000608	6.082863	2.060930	-0.000243
1133	1.1263e+02	-5.0966	-20.851806	0.000558	5.575958	1.889186	-0.000223
1134	1.1273e+02	-5.1544	-21.094034	0.000608	6.082863	2.060930	-0.000243
1135	1.1283e+02	-5.1753	-21.340300	0.000618	6.184244	2.095279	-0.000248
1136	1.1293e+02	-5.2202	-21.586565	0.000618	6.184244	2.095279	-0.000248
1137	1.1303e+02	-5.2571	-21.828793	0.000608	6.082863	2.060930	-0.000243
1138	1.1313e+02	-5.2988	-22.058910	0.000578	5.778720	1.957883	-0.000231
1139	1.1323e+02	-5.3421	-22.268841	0.000527	5.271815	1.786139	-0.000211
1140	1.1333e+02	-5.3742	-22.543366	0.000689	6.893911	2.335720	-0.000276
1141	1.1343e+02	-5.4143	-22.793668	0.000629	6.285625	2.129627	-0.000252
1142	1.1353e+02	-5.4560	-22.991488	0.000497	4.967671	1.683093	-0.000199
1143	1.1363e+02	-5.4993	-23.261976	0.000679	6.792530	2.301372	-0.000272
1144	1.1373e+02	-5.5378	-23.516316	0.000639	6.387006	2.163976	-0.000256
1145	1.1383e+02	-5.5811	-23.738358	0.000558	5.575958	1.889186	-0.000223
1146	1.1393e+02	-5.6132	-23.932141	0.000487	4.866290	1.648744	-0.000195
1147	1.1403e+02	-5.6581	-24.214740	0.000710	7.096673	2.404418	-0.000284
1148	1.1413e+02	-5.7030	-24.444857	0.000578	5.778720	1.957883	-0.000231
1149	1.1423e+02	-5.7432	-24.707271	0.000659	6.589768	2.232674	-0.000264
1150	1.1433e+02	-5.7784	-24.917202	0.000527	5.271815	1.786139	-0.000211
1151	1.1442e+02	-5.8121	-25.127133	0.000527	5.271815	1.786139	-0.000211
1152	1.1452e+02	-5.8619	-25.381472	0.000639	6.387006	2.163976	-0.000256
1153	1.1462e+02	-5.8923	-25.591403	0.000527	5.271815	1.786139	-0.000211
1154	1.1472e+02	-5.9373	-25.865929	0.000689	6.893911	2.335720	-0.000276
1155	1.1482e+02	-5.9806	-26.100083	0.000588	5.880101	1.992232	-0.000235
1156	1.1492e+02	-6.0175	-26.330199	0.000578	5.778720	1.957883	-0.000231
1157	1.1502e+02	-6.0560	-26.564353	0.000588	5.880101	1.992232	-0.000235
1158	1.1512e+02	-6.0993	-26.838878	0.000689	6.893911	2.335720	-0.000276
1159	1.1522e+02	-6.1538	-27.048809	0.000527	5.271815	1.786139	-0.000211
1160	1.1532e+02	-6.1811	-27.210295	0.000406	4.055242	1.373953	-0.000162
1161	1.1542e+02	-6.2116	-27.492894	0.000710	7.096673	2.404418	-0.000284
1162	1.1552e+02	-6.2549	-27.714937	0.000558	5.575958	1.889186	-0.000223
1163	1.1562e+02	-6.3014	-27.941016	0.000568	5.677339	1.923534	-0.000227
1164	1.1572e+02	-6.3351	-28.199393	0.000649	6.488387	2.198325	-0.000260
1165	1.1582e+02	-6.3768	-28.417398	0.000547	5.474577	1.854837	-0.000219
1166	1.1592e+02	-6.4217	-28.631367	0.000537	5.373196	1.820488	-0.000215
1167	1.1602e+02	-6.4618	-28.857446	0.000568	5.677339	1.923534	-0.000227
1168	1.1612e+02	-6.4955	-29.075452	0.000547	5.474577	1.854837	-0.000219
1169	1.1622e+02	-6.5292	-29.321717	0.000618	6.184244	2.095279	-0.000248
1170	1.1632e+02	-6.5709	-29.572019	0.000629	6.285625	2.129627	-0.000252
1171	1.1642e+02	-6.6126	-29.785987	0.000537	5.373196	1.820488	-0.000215
1172	1.1651e+02	-6.6495	-29.995919	0.000527	5.271815	1.786139	-0.000211
1173	1.1661e+02	-6.6848	-30.258332	0.000659	6.589768	2.232674	-0.000264
1174	1.1671e+02	-6.7298	-30.435966	0.000446	4.460766	1.511348	-0.000179
1175	1.1681e+02	-6.7715	-30.706454	0.000679	6.792530	2.301372	-0.000272
1176	1.1691e+02	-6.8228	-30.940608	0.000588	5.880101	1.992232	-0.000235
1177	1.1701e+02	-6.8469	-31.190911	0.000629	6.285625	2.129627	-0.000252
1178	1.1711e+02	-6.8966	-31.396805	0.000517	5.170434	1.751790	-0.000207
1179	1.1721e+02	-6.9319	-31.659218	0.000659	6.589768	2.232674	-0.000264
1180	1.1731e+02	-6.9688	-31.885298	0.000568	5.677339	1.923534	-0.000227
1181	1.1741e+02	-7.0105	-32.095229	0.000527	5.271815	1.786139	-0.000211
1182	1.1751e+02	-7.0426	-32.337457	0.000608	6.082863	2.060930	-0.000243
1183	1.1761e+02	-7.0843	-32.587760	0.000629	6.285625	2.129627	-0.000252
1184	1.1771e+02	-7.1404	-32.797691	0.000527	5.271815	1.786139	-0.000211
1185	1.1781e+02	-7.1757	-33.011659	0.000537	5.373196	1.820488	-0.000215
1186	1.1791e+02	-7.2110	-33.282147	0.000679	6.792530	2.301372	-0.000272
1187	1.1801e+02	-7.2511	-33.500152	0.000547	5.474577	1.854837	-0.000219
1188	1.1811e+02	-7.2816	-33.734306	0.000588	5.880101	1.992232	-0.000235
1189	1.1821e+02	-7.3297	-33.984609	0.000629	6.285625	2.129627	-0.000252
1190	1.1831e+02	-7.3634	-34.182428	0.000497	4.967671	1.683093	-0.000199
1191	1.1841e+02	-7.4100	-34.416582	0.000588	5.880101	1.992232	-0.000235
1192	1.1850e+02	-7.4468	-34.670922	0.000639	6.387006	2.163976	-0.000256
1193	1.1860e+02	-7.4821	-34.888927	0.000547	5.474577	1.854837	-0.000219
1194	1.1870e+02	-7.5319	-35.074635	0.000466	4.663528	1.580046	-0.000187
1195	1.1880e+02	-7.5688	-35.357235	0.000710	7.096673	2.404418	-0.000284
1196	1.1890e+02	-7.6041	-35.522757	0.000416	4.156623	1.408302	-0.000166
1197	1.1900e+02	-7.6442	-35.833617	0.000781	7.806341	2.644860	-0.000312
1198	1.1910e+02	-7.6891	-36.047585	0.000537	5.373196	1.820488	-0.000215
1199	1.1920e+02	-7.7244	-36.249442	0.000507	5.069052	1.717441	-0.000203
1200	1.1930e+02	-7.7597	-36.487633	0.000598	5.981482	2.026581	-0.000239
1201	1.1940e+02	-7.8046	-36.705638	0.000547	5.474577	1.854837	-0.000219
1202	1.1950e+02	-7.8495	-36.980163	0.000689	6.893911	2.335720	-0.000276
1203	1.1960e+02	-7.8848	-37.149723	0.000426	4.258004	1.442651	-0.000170
1204	1.1970e+02	-7.9169	-37.359654	0.000527	5.271815	1.786139	-0.000211
1205	1.1980e+02	-7.9634	-37.634179	0.000689	6.893911	2.335720	-0.000276
1206	1.1990e+02	-8.0051	-37.864296	0.000578	5.778720	1.957883	-0.000231
1207	1.2000e+02	-8.0549	-38.058079	0.000487	4.866290	1.648744	-0.000195
1208	1.2010e+02	-8.0966	-38.308381	0.000629	6.285625	2.129627	-0.000252
1209	1.2020e+02	-8.1303	-38.542535	0.000588	5.880101	1.992232	-0.000235
1210	1.2030e+02	-8.1575	-38.808986	0.000669	6.691149	2.267023	-0.000268
1211	1.2039e+02	-8.2089	-38.990657	0.000456	4.562147	1.545697	-0.000183
1212	1.2049e+02	-8.2425	-39.269219	0.000700	6.995292	2.370069	-0.000280
1213	1.2059e+02	-8.2875	-39.458965	0.000476	4.764909	1.614395	-0.000191
1214	1.2069e+02	-8.3244	-39.681007	0.000558	5.575958	1.889186	-0.000223
1215	1.2079e+02	-8.3581	-39.919198	0.000598	5.981482	2.026581	-0.000239
1216	1.2089e+02	-8.4014	-40.137204	0.000547	5.474577	1.854837	-0.000219
1217	1.2099e+02	-8.4399	-40.391543	0.000639	6.387006	2.163976	-0.000256
1218	1.2109e+02	-8.4880	-40.601474	0.000527	5.271815	1.786139	-0.000211
1219	1.2119e+02	-8.5137	-40.827554	0.000568	5.677339	1.923534	-0.000227
1220	1.2129e+02	-8.5682	-41.041522	0.000537	5.373196	1.820488	-0.000215
1221	1.2139e+02	-8.6099	-41.255490	0.000537	5.373196	1.820488	-0.000215
1222	1.2149e+02	-8.6452	-41.513867	0.000649	6.488387	2.198325	-0.000260
1223	1.2159e+02	-8.6789	-41.739946	0.000568	5.677339	1.923534	-0.000227
1224	1.2169e+02	-8.7302	-41.970063	0.000578	5.778720	1.957883	-0.000231
1225	1.2179e+02	-8.7591	-42.167883	0.000497	4.967671	1.683093	-0.000199
1226	1.2189e+02	-8.7976	-42.377814	0.000527	5.271815	1.786139	-0.000211
1227	1.2199e+02	-8.8457	-42.595819	0.000547	5.474577	1.854837	-0.000219
1228	1.2209e+02	-8.8842	-42.805750	0.000527	5.271815	1.786139	-0.000211
1229	1.2219e+02	-8.9243	-43.084313	0.000700	6.995292	2.370069	-0.000280
1230	1.2229e+02	-8.9612	-43.270021	0.000466	4.663528	1.580046	-0.000187
1231	1.2239e+02	-9.0078	-43.516286	0.000618	6.184244	2.095279	-0.000248
1232	1.2248e+02	-9.0511	-43.726217	0.000527	5.271815	1.786139	-0.000211
1233	1.2258e+02	-9.0816	-43.984594	0.000649	6.488387	2.198325	-0.000260
1234	1.2268e+02	-9.1265	-44.202599	0.000547	5.474577	1.854837	-0.000219
1235	1.2278e+02	-9.1666	-44.392345	0.000476	4.764909	1.614395	-0.000191
1236	1.2288e+02	-9.1987	-44.650721	0.000649	6.488387	2.198325	-0.000260
1237	1.2298e+02	-9.2436	-44.884875	0.000588	5.880101	1.992232	-0.000235
1238	1.2308e+02	-9.2869	-45.127103	0.000608	6.082863	2.060930	-0.000243
1239	1.2318e+02	-9.3270	-45.304737	0.000446	4.460766	1.511348	-0.000179
1240	1.2328e+02	-9.3511	-45.522743	0.000547	5.474577	1.854837	-0.000219
1241	1.2338e+02	-9.4072	-45.781119	0.000649	6.488387	2.198325	-0.000260
1242	1.2348e+02	-9.4361	-46.023347	0.000608	6.082863	2.060930	-0.000243
1243	1.2358e+02	-9.4714	-46.176759	0.000385	3.852480	1.305256	-0.000154
1244	1.2368e+02	-9.5179	-46.398801	0.000558	5.575958	1.889186	-0.000223
1245	1.2378e+02	-9.5596	-46.641029	0.000608	6.082863	2.060930	-0.000243
1246	1.2388e+02	-9.5933	-46.875183	0.000588	5.880101	1.992232	-0.000235
1247	1.2398e+02	-9.6350	-47.113374	0.000598	5.981482	2.026581	-0.000239
1248	1.2408e+02	-9.6831	-47.339454	0.000568	5.677339	1.923534	-0.000227
1249	1.2418e+02	-9.7249	-47.569570	0.000578	5.778720	1.957883	-0.000231
1250	1.2428e+02	-9.7569	-47.783539	0.000537	5.373196	1.820488	-0.000215
1251	1.2438e+02	-9.8019	-47.985395	0.000507	5.069052	1.717441	-0.000203
1252	1.2447e+02	-9.8436	-48.223586	0.000598	5.981482	2.026581	-0.000239
1253	1.2457e+02	-9.8869	-48.417369	0.000487	4.866290	1.648744	-0.000195
1254	1.2467e+02	-9.9254	-48.643449	0.000568	5.677339	1.923534	-0.000227
1255	1.2477e+02	-9.9703	-48.869528	0.000568	5.677339	1.923534	-0.000227
1256	1.2487e+02	-9.9944	-49.079459	0.000527	5.271815	1.786139	-0.000211
1257	1.2497e+02	-10.0409	-49.313613	0.000588	5.880101	1.992232	-0.000235
1258	1.2507e+02	-10.0714	-49.535656	0.000558	5.575958	1.889186	-0.000223
1259	1.2517e+02	-10.1275	-49.765772	0.000578	5.778720	1.957883	-0.000231
1260	1.2527e+02	-10.1564	-49.987815	0.000558	5.575958	1.889186	-0.000223
1261	1.2537e+02	-10.1949	-50.161412	0.000436	4.359385	1.477000	-0.000174
1262	1.2547e+02	-10.2350	-50.399603	0.000598	5.981482	2.026581	-0.000239
1263	1.2557e+02	-10.2831	-50.621645	0.000558	5.575958	1.889186	-0.000223
1264	1.2567e+02	-10.3264	-50.827539	0.000517	5.170434	1.751790	-0.000207
1265	1.2577e+02	-10.3633	-51.021321	0.000487	4.866290	1.648744	-0.000195
1266	1.2587e+02	-10.3986	-51.231253	0.000527	5.271815	1.786139	-0.000211
1267	1.2597e+02	-10.4403	-51.465406	0.000588	5.880101	1.992232	-0.000235
1268	1.2607e+02	-10.4837	-51.699560	0.000588	5.880101	1.992232	-0.000235
1269	1.2617e+02	-10.5174	-51.901417	0.000507	5.069052	1.717441	-0.000203
1270	1.2627e+02	-10.5526	-52.123460	0.000558	5.575958	1.889186	-0.000223
1271	1.2636e+02	-10.5944	-52.341465	0.000547	5.474577	1.854837	-0.000219
1272	1.2646e+02	-10.6377	-52.575619	0.000588	5.880101	1.992232	-0.000235
1273	1.2656e+02	-10.6746	-52.696733	0.000304	3.041431	1.030465	-0.000122
1274	1.2666e+02	-10.7147	-52.987407	0.000730	7.299436	2.473116	-0.000292
1275	1.2676e+02	-10.7564	-53.189263	0.000507	5.069052	1.717441	-0.000203
1276	1.2686e+02	-10.7965	-53.366897	0.000446	4.460766	1.511348	-0.000179
1277	1.2696e+02	-10.8350	-53.580866	0.000537	5.373196	1.820488	-0.000215
1278	1.2706e+02	-10.8671	-53.802908	0.000558	5.575958	1.889186	-0.000223
1279	1.2716e+02	-10.9152	-54.008802	0.000517	5.170434	1.751790	-0.000207
1280	1.2726e+02	-10.9585	-54.255067	0.000618	6.184244	2.095279	-0.000248
1281	1.2736e+02	-10.9922	-54.469035	0.000537	5.373196	1.820488	-0.000215
1282	1.2746e+02	-11.0323	-54.654744	0.000466	4.663528	1.580046	-0.000187
1283	1.2756e+02	-11.0772	-54.848526	0.000487	4.866290	1.648744	-0.000195
1284	1.2766e+02	-11.1077	-55.090754	0.000608	6.082863	2.060930	-0.000243
1285	1.2776e+02	-11.1542	-55.292611	0.000507	5.069052	1.717441	-0.000203
1286	1.2786e+02	-11.1863	-55.510616	0.000547	5.474577	1.854837	-0.000219
1287	1.2796e+02	-11.2360	-55.736696	0.000568	5.677339	1.923534	-0.000227
1288	1.2806e+02	-11.2778	-55.934516	0.000497	4.967671	1.683093	-0.000199
1289	1.2816e+02	-11.3211	-56.108112	0.000436	4.359385	1.477000	-0.000174
1290	1.2826e+02	-11.3596	-56.358415	0.000629	6.285625	2.129627	-0.000252
1291	1.2835e+02	-11.3901	-56.556235	0.000497	4.967671	1.683093	-0.000199
1292	1.2845e+02	-11.4350	-56.741943	0.000466	4.663528	1.580046	-0.000187
1293	1.2855e+02	-11.4783	-56.943800	0.000507	5.069052	1.717441	-0.000203
1294	1.2865e+02	-11.5088	-57.141619	0.000497	4.967671	1.683093	-0.000199
1295	1.2875e+02	-11.5537	-57.355587	0.000537	5.373196	1.820488	-0.000215
1296	1.2885e+02	-11.5922	-57.577630	0.000558	5.575958	1.889186	-0.000223
1297	1.2895e+02	-11.6291	-57.791598	0.000537	5.373196	1.820488	-0.000215
1298	1.2905e+02	-11.6708	-57.977306	0.000466	4.663528	1.580046	-0.000187
1299	1.2915e+02	-11.7221	-58.223572	0.000618	6.184244	2.095279	-0.000248
1300	1.2925e+02	-11.7446	-58.356797	0.000335	3.345575	1.133511	-0.000134
1301	1.2935e+02	-11.7863	-58.627285	0.000679	6.792530	2.301372	-0.000272
1302	1.2945e+02	-11.8216	-58.817031	0.000476	4.764909	1.614395	-0.000191
1303	1.2955e+02	-11.8697	-59.026962	0.000527	5.271815	1.786139	-0.000211
1304	1.2965e+02	-11.9050	-59.249004	0.000558	5.575958	1.889186	-0.000223
1305	1.2975e+02	-11.9483	-59.430675	0.000456	4.562147	1.545697	-0.000183
1306	1.2985e+02	-11.9884	-59.604272	0.000436	4.359385	1.477000	-0.000174
1307	1.2995e+02	-12.0366	-59.818240	0.000537	5.373196	1.820488	-0.000215
1308	1.3005e+02	-12.0751	-60.052394	0.000588	5.880101	1.992232	-0.000235
1309	1.3015e+02	-12.1087	-60.270399	0.000547	5.474577	1.854837	-0.000219
1310	1.3025e+02	-12.1617	-60.476293	0.000517	5.170434	1.751790	-0.000207
1311	1.3034e+02	-12.1970	-60.686224	0.000527	5.271815	1.786139	-0.000211
1312	1.3044e+02	-12.2371	-60.892118	0.000517	5.170434	1.751790	-0.000207
1313	1.3054e+02	-12.2756	-61.085901	0.000487	4.866290	1.648744	-0.000195
1314	1.3064e+02	-12.3109	-61.267572	0.000456	4.562147	1.545697	-0.000183
1315	1.3074e+02	-12.3478	-61.465392	0.000497	4.967671	1.683093	-0.000199
1316	1.3084e+02	-12.3879	-61.715694	0.000629	6.285625	2.129627	-0.000252
1317	1.3094e+02	-12.4232	-61.897365	0.000456	4.562147	1.545697	-0.000183
1318	1.3104e+02	-12.4697	-62.079036	0.000456	4.562147	1.545697	-0.000183
1319	1.3114e+02	-12.5066	-62.252633	0.000436	4.359385	1.477000	-0.000174
1320	1.3124e+02	-12.5483	-62.519084	0.000669	6.691149	2.267023	-0.000268
1321	1.3134e+02	-12.5884	-62.680569	0.000406	4.055242	1.373953	-0.000162
1322	1.3144e+02	-12.6333	-62.898575	0.000547	5.474577	1.854837	-0.000219
1323	1.3154e+02	-12.6783	-63.112543	0.000537	5.373196	1.820488	-0.000215
1324	1.3164e+02	-12.7103	-63.269991	0.000395	3.953861	1.339604	-0.000158
1325	1.3174e+02	-12.7488	-63.475885	0.000517	5.170434	1.751790	-0.000207
1326	1.3184e+02	-12.7873	-63.681779	0.000517	5.170434	1.751790	-0.000207
1327	1.3194e+02	-12.8307	-63.887673	0.000517	5.170434	1.751790	-0.000207
1328	1.3204e+02	-12.8659	-64.097604	0.000527	5.271815	1.786139	-0.000211
1329	1.3214e+02	-12.9028	-64.246978	0.000375	3.751099	1.270907	-0.000150
1330	1.3224e+02	-12.9510	-64.481132	0.000588	5.880101	1.992232	-0.000235
1331	1.3234e+02	-12.9798	-64.662803	0.000456	4.562147	1.545697	-0.000183
1332	1.3243e+02	-13.0248	-64.905031	0.000608	6.082863	2.060930	-0.000243
1333	1.3253e+02	-13.0649	-65.086702	0.000456	4.562147	1.545697	-0.000183
1334	1.3263e+02	-13.1050	-65.260299	0.000436	4.359385	1.477000	-0.000174
1335	1.3273e+02	-13.1467	-65.486379	0.000568	5.677339	1.923534	-0.000227
1336	1.3283e+02	-13.1916	-65.623641	0.000345	3.446956	1.167860	-0.000138
1337	1.3293e+02	-13.2205	-65.853758	0.000578	5.778720	1.957883	-0.000231
1338	1.3303e+02	-13.2622	-66.043504	0.000476	4.764909	1.614395	-0.000191
1339	1.3313e+02	-13.3023	-66.269583	0.000568	5.677339	1.923534	-0.000227
1340	1.3323e+02	-13.3488	-66.451254	0.000456	4.562147	1.545697	-0.000183
1341	1.3333e+02	-13.3761	-66.665222	0.000537	5.373196	1.820488	-0.000215
1342	1.3343e+02	-13.4258	-66.834782	0.000426	4.258004	1.442651	-0.000170
1343	1.3353e+02	-13.4707	-67.020490	0.000466	4.663528	1.580046	-0.000187
1344	1.3363e+02	-13.5060	-67.222347	0.000507	5.069052	1.717441	-0.000203
1345	1.3373e+02	-13.5526	-67.452464	0.000578	5.778720	1.957883	-0.000231
1346	1.3383e+02	-13.5814	-67.638172	0.000466	4.663528	1.580046	-0.000187
1347	1.3393e+02	-13.6264	-67.856177	0.000547	5.474577	1.854837	-0.000219
1348	1.3403e+02	-13.6633	-68.082257	0.000568	5.677339	1.923534	-0.000227
1349	1.3413e+02	-13.7066	-68.243743	0.000406	4.055242	1.373953	-0.000162
1350	1.3423e+02	-13.7419	-68.429451	0.000466	4.663528	1.580046	-0.000187
1351	1.3432e+02	-13.7932	-68.655530	0.000568	5.677339	1.923534	-0.000227
1352	1.3442e+02	-13.8237	-68.841239	0.000466	4.663528	1.580046	-0.000187
1353	1.3452e+02	-13.8670	-69.035021	0.000487	4.866290	1.648744	-0.000195
1354	1.3462e+02	-13.8991	-69.224767	0.000476	4.764909	1.614395	-0.000191
1355	1.3472e+02	-13.9440	-69.434698	0.000527	5.271815	1.786139	-0.000211
1356	1.3482e+02	-13.9697	-69.616369	0.000456	4.562147	1.545697	-0.000183
1357	1.3492e+02	-14.0226	-69.826300	0.000527	5.271815	1.786139	-0.000211
1358	1.3502e+02	-14.0563	-69.975674	0.000375	3.751099	1.270907	-0.000150
1359	1.3512e+02	-14.1060	-70.258273	0.000710	7.096673	2.404418	-0.000284
1360	1.3522e+02	-14.1413	-70.464167	0.000517	5.170434	1.751790	-0.000207
1361	1.3532e+02	-14.1846	-70.621615	0.000395	3.953861	1.339604	-0.000158
1362	1.3542e+02	-14.2231	-70.762915	0.000355	3.548337	1.202209	-0.000142
1363	1.3552e+02	-14.2648	-71.013218	0.000629	6.285625	2.129627	-0.000252
1364	1.3562e+02	-14.3114	-71.223149	0.000527	5.271815	1.786139	-0.000211
1365	1.3572e+02	-14.3402	-71.420968	0.000497	4.967671	1.683093	-0.000199
1366	1.3582e+02	-14.3723	-71.638974	0.000547	5.474577	1.854837	-0.000219
1367	1.3592e+02	-14.4204	-71.784311	0.000365	3.649718	1.236558	-0.000146
1368	1.3602e+02	-14.4718	-71.998279	0.000537	5.373196	1.820488	-0.000215
1369	1.3612e+02	-14.4958	-72.183987	0.000466	4.663528	1.580046	-0.000187
1370	1.3622e+02	-14.5456	-72.414104	0.000578	5.778720	1.957883	-0.000231
1371	1.3631e+02	-14.5761	-72.539255	0.000314	3.142813	1.064814	-0.000126
1372	1.3641e+02	-14.6130	-72.773409	0.000588	5.880101	1.992232	-0.000235
1373	1.3651e+02	-14.6563	-72.975266	0.000507	5.069052	1.717441	-0.000203
1374	1.3661e+02	-14.7012	-73.205382	0.000578	5.778720	1.957883	-0.000231
1375	1.3671e+02	-14.7381	-73.403202	0.000497	4.967671	1.683093	-0.000199
1376	1.3681e+02	-14.7894	-73.580836	0.000446	4.460766	1.511348	-0.000179
1377	1.3691e+02	-14.8135	-73.766544	0.000466	4.663528	1.580046	-0.000187
1378	1.3701e+02	-14.8568	-73.980512	0.000537	5.373196	1.820488	-0.000215
1379	1.3711e+02	-14.9017	-74.154109	0.000436	4.359385	1.477000	-0.000174
1380	1.3721e+02	-14.9322	-74.331743	0.000446	4.460766	1.511348	-0.000179
1381	1.3731e+02	-14.9819	-74.557823	0.000568	5.677339	1.923534	-0.000227
1382	1.3741e+02	-15.0204	-74.763717	0.000517	5.170434	1.751790	-0.000207
1383	1.3751e+02	-15.0541	-74.977685	0.000537	5.373196	1.820488	-0.000215
1384	1.3761e+02	-15.1039	-75.191653	0.000537	5.373196	1.820488	-0.000215
1385	1.3771e+02	-15.1359	-75.341027	0.000375	3.751099	1.270907	-0.000150
1386	1.3781e+02	-15.1793	-75.554995	0.000537	5.373196	1.820488	-0.000215
1387	1.3791e+02	-15.2161	-75.732629	0.000446	4.460766	1.511348	-0.000179
1388	1.3801e+02	-15.2514	-75.934486	0.000507	5.069052	1.717441	-0.000203
1389	1.3811e+02	-15.2915	-76.128269	0.000487	4.866290	1.648744	-0.000195
1390	1.3821e+02	-15.3413	-76.338200	0.000527	5.271815	1.786139	-0.000211
1391	1.3831e+02	-15.3766	-76.531982	0.000487	4.866290	1.648744	-0.000195
1392	1.3840e+02	-15.4103	-76.709616	0.000446	4.460766	1.511348	-0.000179
1393	1.3850e+02	-15.4696	-76.931659	0.000558	5.575958	1.889186	-0.000223
1394	1.3860e+02	-15.5017	-77.145627	0.000537	5.373196	1.820488	-0.000215
1395	1.3870e+02	-15.5450	-77.319224	0.000436	4.359385	1.477000	-0.000174
1396	1.3880e+02	-15.5691	-77.508969	0.000476	4.764909	1.614395	-0.000191
1397	1.3890e+02	-15.6140	-77.718900	0.000527	5.271815	1.786139	-0.000211
1398	1.3900e+02	-15.6589	-77.920757	0.000507	5.069052	1.717441	-0.000203
1399	1.3910e+02	-15.6926	-78.102428	0.000456	4.562147	1.545697	-0.000183
1400	1.3920e+02	-15.7375	-78.308322	0.000517	5.170434	1.751790	-0.000207
1401	1.3930e+02	-15.7760	-78.514216	0.000517	5.170434	1.751790	-0.000207
1402	1.3940e+02	-15.8065	-78.675701	0.000406	4.055242	1.373953	-0.000162
1403	1.3950e+02	-15.8482	-78.865447	0.000476	4.764909	1.614395	-0.000191
1404	1.3960e+02	-15.8899	-79.075378	0.000527	5.271815	1.786139	-0.000211
1405	1.3970e+02	-15.9364	-79.305494	0.000578	5.778720	1.957883	-0.000231
1406	1.3980e+02	-15.9750	-79.475054	0.000426	4.258004	1.442651	-0.000170
1407	1.3990e+02	-16.0102	-79.680948	0.000517	5.170434	1.751790	-0.000207
1408	1.4000e+02	-16.0536	-79.907028	0.000568	5.677339	1.923534	-0.000227
1409	1.4010e+02	-16.0921	-80.044290	0.000345	3.446956	1.167860	-0.000138
1410	1.4020e+02	-16.1306	-80.286518	0.000608	6.082863	2.060930	-0.000243
1411	1.4029e+02	-16.1723	-80.476264	0.000476	4.764909	1.614395	-0.000191
1412	1.4039e+02	-16.2092	-80.698306	0.000558	5.575958	1.889186	-0.000223
1413	1.4049e+02	-16.2557	-80.863829	0.000416	4.156623	1.408302	-0.000166
1414	1.4059e+02	-16.2894	-81.073760	0.000527	5.271815	1.786139	-0.000211
1415	1.4069e+02	-16.3311	-81.299839	0.000568	5.677339	1.923534	-0.000227
1416	1.4079e+02	-16.3632	-81.433065	0.000335	3.345575	1.133511	-0.000134
1417	1.4089e+02	-16.4177	-81.691442	0.000649	6.488387	2.198325	-0.000260
1418	1.4099e+02	-16.4546	-81.913484	0.000558	5.575958	1.889186	-0.000223
1419	1.4109e+02	-16.4915	-82.095155	0.000456	4.562147	1.545697	-0.000183
1420	1.4119e+02	-16.5348	-82.297012	0.000507	5.069052	1.717441	-0.000203
1421	1.4129e+02	-16.5797	-82.490795	0.000487	4.866290	1.648744	-0.000195
1422	1.4139e+02	-16.6086	-82.680540	0.000476	4.764909	1.614395	-0.000191
1423	1.4149e+02	-16.6519	-82.874322	0.000487	4.866290	1.648744	-0.000195
1424	1.4159e+02	-16.6920	-83.156922	0.000710	7.096673	2.404418	-0.000284
1425	1.4169e+02	-16.7338	-83.306296	0.000375	3.751099	1.270907	-0.000150
1426	1.4179e+02	-16.7706	-83.496041	0.000476	4.764909	1.614395	-0.000191
1427	1.4189e+02	-16.8075	-83.669638	0.000436	4.359385	1.477000	-0.000174
1428	1.4199e+02	-16.8477	-83.875532	0.000517	5.170434	1.751790	-0.000207
1429	1.4209e+02	-16.8829	-84.065277	0.000476	4.764909	1.614395	-0.000191
1430	1.4219e+02	-16.9327	-84.279246	0.000537	5.373196	1.820488	-0.000215
1431	1.4228e+02	-16.9728	-84.460917	0.000456	4.562147	1.545697	-0.000183
1432	1.4238e+02	-17.0113	-84.622402	0.000406	4.055242	1.373953	-0.000162
1433	1.4248e+02	-17.0450	-84.892890	0.000679	6.792530	2.301372	-0.000272
1434	1.4258e+02	-17.0931	-85.078599	0.000466	4.663528	1.580046	-0.000187
1435	1.4268e+02	-17.1332	-85.219898	0.000355	3.548337	1.202209	-0.000142
1436	1.4278e+02	-17.1669	-85.437904	0.000547	5.474577	1.854837	-0.000219
1437	1.4288e+02	-17.2134	-85.696280	0.000649	6.488387	2.198325	-0.000260
1438	1.4298e+02	-17.2471	-85.906211	0.000527	5.271815	1.786139	-0.000211
1439	1.4308e+02	-17.2872	-86.035400	0.000324	3.244194	1.099163	-0.000130
1440	1.4318e+02	-17.3369	-86.257442	0.000558	5.575958	1.889186	-0.000223
1441	1.4328e+02	-17.3722	-86.463336	0.000517	5.170434	1.751790	-0.000207
1442	1.4338e+02	-17.4091	-86.693453	0.000578	5.778720	1.957883	-0.000231
1443	1.4348e+02	-17.4444	-86.863013	0.000426	4.258004	1.442651	-0.000170
1444	1.4358e+02	-17.5022	-87.097166	0.000588	5.880101	1.992232	-0.000235
1445	1.4368e+02	-17.5343	-87.270763	0.000436	4.359385	1.477000	-0.000174
1446	1.4378e+02	-17.5760	-87.476657	0.000517	5.170434	1.751790	-0.000207
1447	1.4388e+02	-17.6145	-87.650254	0.000436	4.359385	1.477000	-0.000174
1448	1.4398e+02	-17.6466	-87.900556	0.000629	6.285625	2.129627	-0.000252
1449	1.4408e+02	-17.6851	-88.114525	0.000537	5.373196	1.820488	-0.000215
1450	1.4418e+02	-17.7284	-88.320419	0.000517	5.170434	1.751790	-0.000207
1451	1.4428e+02	-17.7669	-88.506127	0.000466	4.663528	1.580046	-0.000187
1452	1.4437e+02	-17.8118	-88.695872	0.000476	4.764909	1.614395	-0.000191
1453	1.4447e+02	-17.8535	-88.925989	0.000578	5.778720	1.957883	-0.000231
1454	1.4457e+02	-17.8776	-89.123809	0.000497	4.967671	1.683093	-0.000199
1455	1.4467e+02	-17.9321	-89.325665	0.000507	5.069052	1.717441	-0.000203
1456	1.4477e+02	-17.9770	-89.588079	0.000659	6.589768	2.232674	-0.000264
1457	1.4487e+02	-18.0059	-89.761676	0.000436	4.359385	1.477000	-0.000174
1458	1.4497e+02	-18.0540	-89.971607	0.000527	5.271815	1.786139	-0.000211
1459	1.4507e+02	-18.0829	-90.165390	0.000487	4.866290	1.648744	-0.000195
1460	1.4517e+02	-18.1326	-90.383395	0.000547	5.474577	1.854837	-0.000219
1461	1.4527e+02	-18.1663	-90.601400	0.000547	5.474577	1.854837	-0.000219
1462	1.4537e+02	-18.2048	-90.795183	0.000487	4.866290	1.648744	-0.000195
1463	1.4547e+02	-18.2401	-91.013188	0.000547	5.474577	1.854837	-0.000219
1464	1.4557e+02	-18.2899	-91.243305	0.000578	5.778720	1.957883	-0.000231
1465	1.4567e+02	-18.3187	-91.437087	0.000487	4.866290	1.648744	-0.000195
1466	1.4577e+02	-18.3653	-91.675278	0.000598	5.981482	2.026581	-0.000239
1467	1.4587e+02	-18.4070	-91.865024	0.000476	4.764909	1.614395	-0.000191
1468	1.4597e+02	-18.4471	-92.119363	0.000639	6.387006	2.163976	-0.000256
1469	1.4607e+02	-18.4840	-92.317183	0.000497	4.967671	1.683093	-0.000199
1470	1.4617e+02	-18.5337	-92.571522	0.000639	6.387006	2.163976	-0.000256
1471	1.4626e+02	-18.5674	-92.757231	0.000466	4.663528	1.580046	-0.000187
1472	1.4636e+02	-18.6043	-92.951013	0.000487	4.866290	1.648744	-0.000195
1473	1.4646e+02	-18.6508	-93.156907	0.000517	5.170434	1.751790	-0.000207
1474	1.4656e+02	-18.6797	-93.407210	0.000629	6.285625	2.129627	-0.000252
1475	1.4666e+02	-18.7198	-93.629252	0.000558	5.575958	1.889186	-0.000223
1476	1.4676e+02	-18.7615	-93.903777	0.000689	6.893911	2.335720	-0.000276
1477	1.4686e+02	-18.8160	-94.097560	0.000487	4.866290	1.648744	-0.000195
1478	1.4696e+02	-18.8417	-94.303454	0.000517	5.170434	1.751790	-0.000207
1479	1.4706e+02	-18.8914	-94.553756	0.000629	6.285625	2.129627	-0.000252
1480	1.4716e+02	-18.9155	-94.808096	0.000639	6.387006	2.163976	-0.000256
1481	1.4726e+02	-18.9604	-95.026101	0.000547	5.474577	1.854837	-0.000219
1482	1.4736e+02	-19.0005	-95.244106	0.000547	5.474577	1.854837	-0.000219
1483	1.4746e+02	-19.0406	-95.490372	0.000618	6.184244	2.095279	-0.000248
1484	1.4756e+02	-19.0840	-95.724525	0.000588	5.880101	1.992232	-0.000235
1485	1.4766e+02	-19.1209	-95.877937	0.000385	3.852480	1.305256	-0.000154
1486	1.4776e+02	-19.1690	-96.184759	0.000770	7.704960	2.610511	-0.000308
1487	1.4786e+02	-19.2107	-96.426987	0.000608	6.082863	2.060930	-0.000243
1488	1.4796e+02	-19.2396	-96.705549	0.000700	6.995292	2.370069	-0.000280
1489	1.4806e+02	-19.2781	-96.915481	0.000527	5.271815	1.786139	-0.000211
1490	1.4816e+02	-19.3262	-97.097152	0.000456	4.562147	1.545697	-0.000183
1491	1.4825e+02	-19.3663	-97.335343	0.000598	5.981482	2.026581	-0.000239
1492	1.4835e+02	-19.4000	-97.585645	0.000629	6.285625	2.129627	-0.000252
1493	1.4845e+02	-19.4449	-97.827873	0.000608	6.082863	2.060930	-0.000243
1494	1.4855e+02	-19.4802	-98.045879	0.000547	5.474577	1.854837	-0.000219
1495	1.4865e+02	-19.5219	-98.389035	0.000862	8.617389	2.919651	-0.000345
1496	1.4875e+02	-19.5636	-98.590892	0.000507	5.069052	1.717441	-0.000203
1497	1.4885e+02	-19.6117	-98.849269	0.000649	6.488387	2.198325	-0.000260
1498	1.4895e+02	-19.6310	-99.039014	0.000476	4.764909	1.614395	-0.000191
1499	1.4905e+02	-19.6855	-99.321613	0.000710	7.096673	2.404418	-0.000284
1500	1.4915e+02	-19.7289	-99.571916	0.000629	6.285625	2.129627	-0.000252
1501	1.4925e+02	-19.7609	-99.830293	0.000649	6.488387	2.198325	-0.000260
1502	1.4935e+02	-19.7930	-100.064446	0.000588	5.880101	1.992232	-0.000235
1503	1.4945e+02	-19.8251	-100.330897	0.000669	6.691149	2.267023	-0.000268
1504	1.4955e+02	-19.8780	-100.589274	0.000649	6.488387	2.198325	-0.000260
1505	1.4965e+02	-19.9326	-100.827465	0.000598	5.981482	2.026581	-0.000239
1506	1.4975e+02	-19.9486	-101.114102	0.000720	7.198055	2.438767	-0.000288
1507	1.4985e+02	-20.0016	-101.340181	0.000568	5.677339	1.923534	-0.000227
1508	1.4995e+02	-19.9567	-101.340181	0.000000	0.000000	0.000000	0.000000
1509	1.5005e+02	-19.9182	-101.332107	0.000020	0.202762	0.068698	0.000008
1510	1.5015e+02	-19.8716	-101.283661	0.000122	1.216573	0.412186	0.000049
1511	1.5025e+02	-19.8379	-101.231179	0.000132	1.317954	0.446535	0.000053
1512	1.5034e+02	-19.7962	-101.215030	0.000041	0.405524	0.137395	0.000016
1513	1.5044e+02	-19.7641	-101.142362	0.000182	1.824859	0.618279	0.000073
1514	1.5054e+02	-19.7128	-101.101990	0.000101	1.013810	0.343488	0.000041
1515	1.5064e+02	-19.6727	-101.049508	0.000132	1.317954	0.446535	0.000053
1516	1.5074e+02	-19.6390	-100.944542	0.000264	2.635907	0.893070	0.000105
1517	1.5084e+02	-19.5989	-100.900134	0.000112	1.115192	0.377837	0.000045
1518	1.5094e+02	-19.5620	-100.835539	0.000162	1.622097	0.549581	0.000065
1519	1.5104e+02	-19.5107	-100.750759	0.000213	2.129002	0.721325	0.000085
1520	1.5114e+02	-19.4898	-100.682128	0.000172	1.723478	0.583930	0.000069
1521	1.5124e+02	-19.4385	-100.617534	0.000162	1.622097	0.549581	0.000065
1522	1.5134e+02	-19.4032	-100.476234	0.000355	3.548337	1.202209	0.000142
1523	1.5144e+02	-19.3631	-100.415677	0.000152	1.520716	0.515232	0.000061
1524	1.5154e+02	-19.3230	-100.347046	0.000172	1.723478	0.583930	0.000069
1525	1.5164e+02	-19.2813	-100.242080	0.000264	2.635907	0.893070	0.000105
1526	1.5174e+02	-19.2476	-100.161338	0.000203	2.027621	0.686977	0.000081
1527	1.5184e+02	-19.2059	-100.072521	0.000223	2.230383	0.755674	0.000089
1528	1.5194e+02	-19.1594	-99.983704	0.000223	2.230383	0.755674	0.000089
1529	1.5204e+02	-19.1289	-99.890850	0.000233	2.331764	0.790023	0.000093
1530	1.5214e+02	-19.0888	-99.789921	0.000253	2.534526	0.858721	0.000101
1531	1.5224e+02	-19.0390	-99.680919	0.000274	2.737288	0.927418	0.000110
1532	1.5233e+02	-19.0053	-99.575953	0.000264	2.635907	0.893070	0.000105
1533	1.5243e+02	-18.9701	-99.507322	0.000172	1.723478	0.583930	0.000069
1534	1.5253e+02	-18.9203	-99.366022	0.000355	3.548337	1.202209	0.000142
1535	1.5263e+02	-18.8834	-99.244908	0.000304	3.041431	1.030465	0.000122
1536	1.5273e+02	-18.8353	-99.152054	0.000233	2.331764	0.790023	0.000093
1537	1.5283e+02	-18.8032	-99.034977	0.000294	2.940050	0.996116	0.000118
1538	1.5293e+02	-18.7647	-98.934048	0.000253	2.534526	0.858721	0.000101
1539	1.5303e+02	-18.7294	-98.812934	0.000304	3.041431	1.030465	0.000122
1540	1.5313e+02	-18.6813	-98.724117	0.000223	2.230383	0.755674	0.000089
1541	1.5323e+02	-18.6460	-98.607040	0.000294	2.940050	0.996116	0.000118
1542	1.5333e+02	-18.6059	-98.485926	0.000304	3.041431	1.030465	0.000122
1543	1.5343e+02	-18.5674	-98.344627	0.000355	3.548337	1.202209	0.000142
1544	1.5353e+02	-18.5305	-98.243698	0.000253	2.534526	0.858721	0.000101
1545	1.5363e+02	-18.4824	-98.122584	0.000304	3.041431	1.030465	0.000122
1546	1.5373e+02	-18.4439	-98.025693	0.000243	2.433145	0.824372	0.000097
1547	1.5383e+02	-18.3989	-97.876319	0.000375	3.751099	1.270907	0.000150
1548	1.5393e+02	-18.3540	-97.795576	0.000203	2.027621	0.686977	0.000081
1549	1.5403e+02	-18.3284	-97.682536	0.000284	2.838669	0.961767	0.000114
1550	1.5413e+02	-18.2899	-97.512977	0.000426	4.258004	1.442651	0.000170
1551	1.5422e+02	-18.2433	-97.387825	0.000314	3.142813	1.064814	0.000126
1552	1.5432e+02	-18.2080	-97.278823	0.000274	2.737288	0.927418	0.000110
1553	1.5442e+02	-18.1663	-97.149634	0.000324	3.244194	1.099163	0.000130
1554	1.5452e+02	-18.1246	-97.048706	0.000253	2.534526	0.858721	0.000101
1555	1.5462e+02	-18.0813	-96.867035	0.000456	4.562147	1.545697	0.000183
1556	1.5472e+02	-18.0492	-96.762069	0.000264	2.635907	0.893070	0.000105
1557	1.5482e+02	-18.0011	-96.653067	0.000274	2.737288	0.927418	0.000110
1558	1.5492e+02	-17.9738	-96.535990	0.000294	2.940050	0.996116	0.000118
1559	1.5502e+02	-17.9209	-96.398727	0.000345	3.446956	1.167860	0.000138
1560	1.5512e+02	-17.8824	-96.225130	0.000436	4.359385	1.477000	0.000174
1561	1.5522e+02	-17.8455	-96.039422	0.000466	4.663528	1.580046	0.000187
1562	1.5532e+02	-17.8070	-95.942531	0.000243	2.433145	0.824372	0.000097
1563	1.5542e+02	-17.7653	-95.821417	0.000304	3.041431	1.030465	0.000122
1564	1.5552e+02	-17.7300	-95.647820	0.000436	4.359385	1.477000	0.000174
1565	1.5562e+02	-17.6899	-95.583226	0.000162	1.622097	0.549581	0.000065
1566	1.5572e+02	-17.6434	-95.433852	0.000375	3.751099	1.270907	0.000150
1567	1.5582e+02	-17.6081	-95.276403	0.000395	3.953861	1.339604	0.000158
1568	1.5592e+02	-17.5647	-95.163364	0.000284	2.838669	0.961767	0.000114
1569	1.5602e+02	-17.5262	-95.005915	0.000395	3.953861	1.339604	0.000158
1570	1.5612e+02	-17.4926	-94.929210	0.000193	1.926240	0.652628	0.000077
1571	1.5622e+02	-17.4557	-94.763687	0.000416	4.156623	1.408302	0.000166
1572	1.5631e+02	-17.4075	-94.642573	0.000304	3.041431	1.030465	0.000122
1573	1.5641e+02	-17.3706	-94.525496	0.000294	2.940050	0.996116	0.000118
1574	1.5651e+02	-17.3402	-94.380159	0.000365	3.649718	1.236558	0.000146
1575	1.5661e+02	-17.2920	-94.246934	0.000335	3.345575	1.133511	0.000134
1576	1.5671e+02	-17.2535	-94.085448	0.000406	4.055242	1.373953	0.000162
1577	1.5681e+02	-17.2166	-93.980483	0.000264	2.635907	0.893070	0.000105
1578	1.5691e+02	-17.1733	-93.814960	0.000416	4.156623	1.408302	0.000166
1579	1.5701e+02	-17.1348	-93.669623	0.000365	3.649718	1.236558	0.000146
1580	1.5711e+02	-17.0931	-93.560621	0.000274	2.737288	0.927418	0.000110
1581	1.5721e+02	-17.0530	-93.370875	0.000476	4.764909	1.614395	0.000191
1582	1.5731e+02	-17.0097	-93.249761	0.000304	3.041431	1.030465	0.000122
1583	1.5741e+02	-16.9664	-93.096350	0.000385	3.852480	1.305256	0.000154
1584	1.5751e+02	-16.9311	-92.995422	0.000253	2.534526	0.858721	0.000101
1585	1.5761e+02	-16.8910	-92.837973	0.000395	3.953861	1.339604	0.000158
1586	1.5771e+02	-16.8589	-92.708785	0.000324	3.244194	1.099163	0.000130
1587	1.5781e+02	-16.8075	-92.559411	0.000375	3.751099	1.270907	0.000150
1588	1.5791e+02	-16.7739	-92.414074	0.000365	3.649718	1.236558	0.000146
1589	1.5801e+02	-16.7209	-92.288923	0.000314	3.142813	1.064814	0.000126
1590	1.5811e+02	-16.6856	-92.127438	0.000406	4.055242	1.373953	0.000162
1591	1.5821e+02	-16.6455	-91.961915	0.000416	4.156623	1.408302	0.000166
1592	1.5830e+02	-16.6150	-91.860987	0.000253	2.534526	0.858721	0.000101
1593	1.5840e+02	-16.5701	-91.703538	0.000395	3.953861	1.339604	0.000158
1594	1.5850e+02	-16.5316	-91.521867	0.000456	4.562147	1.545697	0.000183
1595	1.5860e+02	-16.4947	-91.388642	0.000335	3.345575	1.133511	0.000134
1596	1.5870e+02	-16.4530	-91.219082	0.000426	4.258004	1.442651	0.000170
1597	1.5880e+02	-16.4097	-91.061634	0.000395	3.953861	1.339604	0.000158
1598	1.5890e+02	-16.3792	-90.968780	0.000233	2.331764	0.790023	0.000093
1599	1.5900e+02	-16.3247	-90.758849	0.000527	5.271815	1.786139	0.000211
1600	1.5910e+02	-16.2862	-90.633697	0.000314	3.142813	1.064814	0.000126
1601	1.5920e+02	-16.2573	-90.516620	0.000294	2.940050	0.996116	0.000118
1602	1.5930e+02	-16.2092	-90.351098	0.000416	4.156623	1.408302	0.000166
1603	1.5940e+02	-16.1739	-90.229984	0.000304	3.041431	1.030465	0.000122
1604	1.5950e+02	-16.1338	-90.024090	0.000517	5.170434	1.751790	0.000207
1605	1.5960e+02	-16.0985	-89.882790	0.000355	3.548337	1.202209	0.000142
1606	1.5970e+02	-16.0455	-89.733416	0.000375	3.751099	1.270907	0.000150
1607	1.5980e+02	-16.0183	-89.580005	0.000385	3.852480	1.305256	0.000154
1608	1.5990e+02	-15.9798	-89.418519	0.000406	4.055242	1.373953	0.000162
1609	1.6000e+02	-15.9348	-89.309517	0.000274	2.737288	0.927418	0.000110
1610	1.6010e+02	-15.8979	-89.111697	0.000497	4.967671	1.683093	0.000199
1611	1.6019e+02	-15.8562	-88.994620	0.000294	2.940050	0.996116	0.000118
1612	1.6029e+02	-15.8161	-88.812949	0.000456	4.562147	1.545697	0.000183
1613	1.6039e+02	-15.7760	-88.639352	0.000436	4.359385	1.477000	0.000174
1614	1.6049e+02	-15.7455	-88.550535	0.000223	2.230383	0.755674	0.000089
1615	1.6059e+02	-15.7006	-88.332530	0.000547	5.474577	1.854837	0.000219
1616	1.6069e+02	-15.6541	-88.175082	0.000395	3.953861	1.339604	0.000158
1617	1.6079e+02	-15.6236	-88.053968	0.000304	3.041431	1.030465	0.000122
1618	1.6089e+02	-15.5707	-87.888445	0.000416	4.156623	1.408302	0.000166
1619	1.6099e+02	-15.5450	-87.722922	0.000416	4.156623	1.408302	0.000166
1620	1.6109e+02	-15.5033	-87.545288	0.000446	4.460766	1.511348	0.000179
1621	1.6119e+02	-15.4552	-87.395914	0.000375	3.751099	1.270907	0.000150
1622	1.6129e+02	-15.4151	-87.250578	0.000365	3.649718	1.236558	0.000146
1623	1.6139e+02	-15.3702	-87.093129	0.000395	3.953861	1.339604	0.000158
1624	1.6149e+02	-15.3236	-86.935681	0.000395	3.953861	1.339604	0.000158
1625	1.6159e+02	-15.2964	-86.802456	0.000335	3.345575	1.133511	0.000134
1626	1.6169e+02	-15.2595	-86.600599	0.000507	5.069052	1.717441	0.000203
1627	1.6179e+02	-15.2178	-86.439113	0.000406	4.055242	1.373953	0.000162
1628	1.6189e+02	-15.1712	-86.273591	0.000416	4.156623	1.408302	0.000166
1629	1.6199e+02	-15.1343	-86.112105	0.000406	4.055242	1.373953	0.000162
1630	1.6209e+02	-15.1006	-85.990991	0.000304	3.041431	1.030465	0.000122
1631	1.6219e+02	-15.0525	-85.853729	0.000345	3.446956	1.167860	0.000138
1632	1.6228e+02	-15.0236	-85.635723	0.000547	5.474577	1.854837	0.000219
1633	1.6238e+02	-14.9739	-85.482312	0.000385	3.852480	1.305256	0.000154
1634	1.6248e+02	-14.9354	-85.349087	0.000335	3.345575	1.133511	0.000134
1635	1.6258e+02	-14.9017	-85.139156	0.000527	5.271815	1.786139	0.000211
1636	1.6268e+02	-14.8584	-84.977670	0.000406	4.055242	1.373953	0.000162
1637	1.6278e+02	-14.8167	-84.848482	0.000324	3.244194	1.099163	0.000130
1638	1.6288e+02	-14.7814	-84.678922	0.000426	4.258004	1.442651	0.000170
1639	1.6298e+02	-14.7429	-84.537622	0.000355	3.548337	1.202209	0.000142
1640	1.6308e+02	-14.6948	-84.376137	0.000406	4.055242	1.373953	0.000162
1641	1.6318e+02	-14.6643	-84.162169	0.000537	5.373196	1.820488	0.000215
1642	1.6328e+02	-14.6290	-84.016832	0.000365	3.649718	1.236558	0.000146
1643	1.6338e+02	-14.5841	-83.847272	0.000426	4.258004	1.442651	0.000170
1644	1.6348e+02	-14.5343	-83.730195	0.000294	2.940050	0.996116	0.000118
1645	1.6358e+02	-14.4975	-83.580821	0.000375	3.751099	1.270907	0.000150
1646	1.6368e+02	-14.4654	-83.370890	0.000527	5.271815	1.786139	0.000211
1647	1.6378e+02	-14.4204	-83.209405	0.000406	4.055242	1.373953	0.000162
1648	1.6388e+02	-14.3852	-83.051956	0.000395	3.953861	1.339604	0.000158
1649	1.6398e+02	-14.3450	-82.862211	0.000476	4.764909	1.614395	0.000191
1650	1.6408e+02	-14.3033	-82.745134	0.000294	2.940050	0.996116	0.000118
1651	1.6418e+02	-14.2632	-82.531166	0.000537	5.373196	1.820488	0.000215
1652	1.6427e+02	-14.2263	-82.357569	0.000436	4.359385	1.477000	0.000174
1653	1.6437e+02	-14.1910	-82.204158	0.000385	3.852480	1.305256	0.000154
1654	1.6447e+02	-14.1574	-82.058821	0.000365	3.649718	1.236558	0.000146
1655	1.6457e+02	-14.0884	-81.828704	0.000578	5.778720	1.957883	0.000231
1656	1.6467e+02	-14.0627	-81.671256	0.000395	3.953861	1.339604	0.000158
1657	1.6477e+02	-14.0258	-81.517845	0.000385	3.852480	1.305256	0.000154
1658	1.6487e+02	-13.9857	-81.328099	0.000476	4.764909	1.614395	0.000191
1659	1.6497e+02	-13.9424	-81.174688	0.000385	3.852480	1.305256	0.000154
1660	1.6507e+02	-13.9039	-81.025314	0.000375	3.751099	1.270907	0.000150
1661	1.6517e+02	-13.8622	-80.819420	0.000517	5.170434	1.751790	0.000207
1662	1.6527e+02	-13.8317	-80.670046	0.000375	3.751099	1.270907	0.000150
1663	1.6537e+02	-13.7836	-80.500487	0.000426	4.258004	1.442651	0.000170
1664	1.6547e+02	-13.7403	-80.330927	0.000426	4.258004	1.442651	0.000170
1665	1.6557e+02	-13.7050	-80.165404	0.000416	4.156623	1.408302	0.000166
1666	1.6567e+02	-13.6633	-79.987770	0.000446	4.460766	1.511348	0.000179
1667	1.6577e+02	-13.6199	-79.814174	0.000436	4.359385	1.477000	0.000174
1668	1.6587e+02	-13.5670	-79.636540	0.000446	4.460766	1.511348	0.000179
1669	1.6597e+02	-13.5558	-79.458906	0.000446	4.460766	1.511348	0.000179
1670	1.6607e+02	-13.4964	-79.240900	0.000547	5.474577	1.854837	0.000219
1671	1.6616e+02	-13.4740	-79.115749	0.000314	3.142813	1.064814	0.000126
1672	1.6626e+02	-13.4210	-78.917929	0.000497	4.967671	1.683093	0.000199
1673	1.6636e+02	-13.3889	-78.744333	0.000436	4.359385	1.477000	0.000174
1674	1.6646e+02	-13.3408	-78.582847	0.000406	4.055242	1.373953	0.000162
1675	1.6656e+02	-13.3119	-78.376953	0.000517	5.170434	1.751790	0.000207
1676	1.6666e+02	-13.2558	-78.219505	0.000395	3.953861	1.339604	0.000158
1677	1.6676e+02	-13.2301	-78.070131	0.000375	3.751099	1.270907	0.000150
1678	1.6686e+02	-13.1900	-77.884423	0.000466	4.663528	1.580046	0.000187
1679	1.6696e+02	-13.1499	-77.751197	0.000335	3.345575	1.133511	0.000134
1680	1.6706e+02	-13.1114	-77.545303	0.000517	5.170434	1.751790	0.000207
1681	1.6716e+02	-13.0633	-77.371706	0.000436	4.359385	1.477000	0.000174
1682	1.6726e+02	-13.0296	-77.190035	0.000456	4.562147	1.545697	0.000183
1683	1.6736e+02	-12.9895	-77.048736	0.000355	3.548337	1.202209	0.000142
1684	1.6746e+02	-12.9462	-76.863027	0.000466	4.663528	1.580046	0.000187
1685	1.6756e+02	-12.9012	-76.673282	0.000476	4.764909	1.614395	0.000191
1686	1.6766e+02	-12.8708	-76.515834	0.000395	3.953861	1.339604	0.000158
1687	1.6776e+02	-12.8258	-76.297828	0.000547	5.474577	1.854837	0.000219
1688	1.6786e+02	-12.7905	-76.160566	0.000345	3.446956	1.167860	0.000138
1689	1.6796e+02	-12.7376	-75.999080	0.000406	4.055242	1.373953	0.000162
1690	1.6806e+02	-12.7087	-75.801261	0.000497	4.967671	1.683093	0.000199
1691	1.6816e+02	-12.6606	-75.643812	0.000395	3.953861	1.339604	0.000158
1692	1.6825e+02	-12.6301	-75.478290	0.000416	4.156623	1.408302	0.000166
1693	1.6835e+02	-12.5932	-75.304693	0.000436	4.359385	1.477000	0.000174
1694	1.6845e+02	-12.5499	-75.074576	0.000578	5.778720	1.957883	0.000231
1695	1.6855e+02	-12.5050	-74.884831	0.000476	4.764909	1.614395	0.000191
1696	1.6865e+02	-12.4697	-74.751605	0.000335	3.345575	1.133511	0.000134
1697	1.6875e+02	-12.4344	-74.610306	0.000355	3.548337	1.202209	0.000142
1698	1.6885e+02	-12.3911	-74.404412	0.000517	5.170434	1.751790	0.000207
1699	1.6895e+02	-12.3478	-74.263112	0.000355	3.548337	1.202209	0.000142
1700	1.6905e+02	-12.3045	-74.057218	0.000517	5.170434	1.751790	0.000207
1701	1.6915e+02	-12.2708	-73.863435	0.000487	4.866290	1.648744	0.000195
1702	1.6925e+02	-12.2291	-73.693876	0.000426	4.258004	1.442651	0.000170
1703	1.6935e+02	-12.1970	-73.520279	0.000436	4.359385	1.477000	0.000174
1704	1.6945e+02	-12.1424	-73.362831	0.000395	3.953861	1.339604	0.000158
1705	1.6955e+02	-12.1136	-73.169048	0.000487	4.866290	1.648744	0.000195
1706	1.6965e+02	-12.0670	-73.039860	0.000324	3.244194	1.099163	0.000130
1707	1.6975e+02	-12.0301	-72.781483	0.000649	6.488387	2.198325	0.000260
1708	1.6985e+02	-11.9756	-72.652295	0.000324	3.244194	1.099163	0.000130
1709	1.6995e+02	-11.9612	-72.494846	0.000395	3.953861	1.339604	0.000158
1710	1.7005e+02	-11.9098	-72.272804	0.000558	5.575958	1.889186	0.000223
1711	1.7015e+02	-11.8697	-72.135541	0.000345	3.446956	1.167860	0.000138
1712	1.7024e+02	-11.8232	-71.953870	0.000456	4.562147	1.545697	0.000183
1713	1.7034e+02	-11.7927	-71.739902	0.000537	5.373196	1.820488	0.000215
1714	1.7044e+02	-11.7558	-71.550157	0.000476	4.764909	1.614395	0.000191
1715	1.7054e+02	-11.7125	-71.368486	0.000456	4.562147	1.545697	0.000183
1716	1.7064e+02	-11.6740	-71.190852	0.000446	4.460766	1.511348	0.000179
1717	1.7074e+02	-11.6243	-71.017255	0.000436	4.359385	1.477000	0.000174
1718	1.7084e+02	-11.5890	-70.811361	0.000517	5.170434	1.751790	0.000207
1719	1.7094e+02	-11.5473	-70.698321	0.000284	2.838669	0.961767	0.000114
1720	1.7104e+02	-11.5200	-70.484353	0.000537	5.373196	1.820488	0.000215
1721	1.7114e+02	-11.4719	-70.326905	0.000395	3.953861	1.339604	0.000158
1722	1.7124e+02	-11.4302	-70.141196	0.000466	4.663528	1.580046	0.000187
1723	1.7134e+02	-11.3917	-69.947414	0.000487	4.866290	1.648744	0.000195
1724	1.7144e+02	-11.3612	-69.757668	0.000476	4.764909	1.614395	0.000191
1725	1.7154e+02	-11.3147	-69.604257	0.000385	3.852480	1.305256	0.000154
1726	1.7164e+02	-11.2810	-69.422586	0.000456	4.562147	1.545697	0.000183
1727	1.7174e+02	-11.2409	-69.236878	0.000466	4.663528	1.580046	0.000187
1728	1.7184e+02	-11.1927	-69.071355	0.000416	4.156623	1.408302	0.000166
1729	1.7194e+02	-11.1639	-68.865461	0.000517	5.170434	1.751790	0.000207
1730	1.7204e+02	-11.1173	-68.675716	0.000476	4.764909	1.614395	0.000191
1731	1.7213e+02	-11.0708	-68.514231	0.000406	4.055242	1.373953	0.000162
1732	1.7223e+02	-11.0387	-68.292188	0.000558	5.575958	1.889186	0.000223
1733	1.7233e+02	-10.9986	-68.138777	0.000385	3.852480	1.305256	0.000154
1734	1.7243e+02	-10.9553	-67.953069	0.000466	4.663528	1.580046	0.000187
1735	1.7253e+02	-10.9168	-67.739101	0.000537	5.373196	1.820488	0.000215
1736	1.7263e+02	-10.8703	-67.585689	0.000385	3.852480	1.305256	0.000154
1737	1.7273e+02	-10.8366	-67.399981	0.000466	4.663528	1.580046	0.000187
1738	1.7283e+02	-10.7869	-67.218310	0.000456	4.562147	1.545697	0.000183
1739	1.7293e+02	-10.7580	-67.060862	0.000395	3.953861	1.339604	0.000158
1740	1.7303e+02	-10.7115	-66.826708	0.000588	5.880101	1.992232	0.000235
1741	1.7313e+02	-10.6730	-66.693482	0.000335	3.345575	1.133511	0.000134
1742	1.7323e+02	-10.6329	-66.499700	0.000487	4.866290	1.648744	0.000195
1743	1.7333e+02	-10.6024	-66.289769	0.000527	5.271815	1.786139	0.000211
1744	1.7343e+02	-10.5542	-66.071763	0.000547	5.474577	1.854837	0.000219
1745	1.7353e+02	-10.5222	-65.914315	0.000395	3.953861	1.339604	0.000158
1746	1.7363e+02	-10.4788	-65.768978	0.000365	3.649718	1.236558	0.000146
1747	1.7373e+02	-10.4323	-65.571159	0.000497	4.967671	1.683093	0.000199
1748	1.7383e+02	-10.3922	-65.393525	0.000446	4.460766	1.511348	0.000179
1749	1.7393e+02	-10.3585	-65.199742	0.000487	4.866290	1.648744	0.000195
1750	1.7403e+02	-10.3232	-65.001923	0.000497	4.967671	1.683093	0.000199
1751	1.7413e+02	-10.2879	-64.832363	0.000426	4.258004	1.442651	0.000170
1752	1.7422e+02	-10.2286	-64.622432	0.000527	5.271815	1.786139	0.000211
1753	1.7432e+02	-10.1965	-64.456909	0.000416	4.156623	1.408302	0.000166
1754	1.7442e+02	-10.1692	-64.271201	0.000466	4.663528	1.580046	0.000187
1755	1.7452e+02	-10.1179	-64.105678	0.000416	4.156623	1.408302	0.000166
1756	1.7462e+02	-10.0746	-63.903822	0.000507	5.069052	1.717441	0.000203
1757	1.7472e+02	-10.0361	-63.681779	0.000558	5.575958	1.889186	0.000223
1758	1.7482e+02	-9.9863	-63.524331	0.000395	3.953861	1.339604	0.000158
1759	1.7492e+02	-9.9543	-63.354771	0.000426	4.258004	1.442651	0.000170
1760	1.7502e+02	-9.9158	-63.124654	0.000578	5.778720	1.957883	0.000231
1761	1.7512e+02	-9.8805	-62.959132	0.000416	4.156623	1.408302	0.000166
1762	1.7522e+02	-9.8420	-62.753238	0.000517	5.170434	1.751790	0.000207
1763	1.7532e+02	-9.7970	-62.579641	0.000436	4.359385	1.477000	0.000174
1764	1.7542e+02	-9.7553	-62.349524	0.000578	5.778720	1.957883	0.000231
1765	1.7552e+02	-9.7233	-62.139593	0.000527	5.271815	1.786139	0.000211
1766	1.7562e+02	-9.6751	-61.982145	0.000395	3.953861	1.339604	0.000158
1767	1.7572e+02	-9.6334	-61.768177	0.000537	5.373196	1.820488	0.000215
1768	1.7582e+02	-9.6013	-61.614766	0.000385	3.852480	1.305256	0.000154
1769	1.7592e+02	-9.5676	-61.384649	0.000578	5.778720	1.957883	0.000231
1770	1.7602e+02	-9.5179	-61.178755	0.000517	5.170434	1.751790	0.000207
1771	1.7612e+02	-9.4842	-61.037455	0.000355	3.548337	1.202209	0.000142
1772	1.7621e+02	-9.4361	-60.819450	0.000547	5.474577	1.854837	0.000219
1773	1.7631e+02	-9.4056	-60.625667	0.000487	4.866290	1.648744	0.000195
1774	1.7641e+02	-9.3575	-60.456108	0.000426	4.258004	1.442651	0.000170
1775	1.7651e+02	-9.3238	-60.217917	0.000598	5.981482	2.026581	0.000239
1776	1.7661e+02	-9.2853	-60.060468	0.000395	3.953861	1.339604	0.000158
1777	1.7671e+02	-9.2420	-59.822277	0.000598	5.981482	2.026581	0.000239
1778	1.7681e+02	-9.1987	-59.656755	0.000416	4.156623	1.408302	0.000166
1779	1.7691e+02	-9.1570	-59.475084	0.000456	4.562147	1.545697	0.000183
1780	1.7701e+02	-9.1104	-59.244967	0.000578	5.778720	1.957883	0.000231
1781	1.7711e+02	-9.0832	-59.079444	0.000416	4.156623	1.408302	0.000166
1782	1.7721e+02	-9.0366	-58.877588	0.000507	5.069052	1.717441	0.000203
1783	1.7731e+02	-8.9997	-58.667657	0.000527	5.271815	1.786139	0.000211
1784	1.7741e+02	-8.9628	-58.425428	0.000608	6.082863	2.060930	0.000243
1785	1.7751e+02	-8.9195	-58.247794	0.000446	4.460766	1.511348	0.000179
1786	1.7761e+02	-8.8810	-58.054012	0.000487	4.866290	1.648744	0.000195
1787	1.7771e+02	-8.8345	-57.831969	0.000558	5.575958	1.889186	0.000223
1788	1.7781e+02	-8.8008	-57.678558	0.000385	3.852480	1.305256	0.000154
1789	1.7791e+02	-8.7671	-57.452479	0.000568	5.677339	1.923534	0.000227
1790	1.7801e+02	-8.7190	-57.299068	0.000385	3.852480	1.305256	0.000154
1791	1.7810e+02	-8.6853	-57.044728	0.000639	6.387006	2.163976	0.000256
1792	1.7820e+02	-8.6452	-56.854983	0.000476	4.764909	1.614395	0.000191
1793	1.7830e+02	-8.6035	-56.641014	0.000537	5.373196	1.820488	0.000215
1794	1.7840e+02	-8.5650	-56.447232	0.000487	4.866290	1.648744	0.000195
1795	1.7850e+02	-8.5297	-56.253449	0.000487	4.866290	1.648744	0.000195
1796	1.7860e+02	-8.4848	-56.027370	0.000568	5.677339	1.923534	0.000227
1797	1.7870e+02	-8.4431	-55.833587	0.000487	4.866290	1.648744	0.000195
1798	1.7880e+02	-8.4078	-55.647879	0.000466	4.663528	1.580046	0.000187
1799	1.7890e+02	-8.3629	-55.437948	0.000527	5.271815	1.786139	0.000211
1800	1.7900e+02	-8.3356	-55.219943	0.000547	5.474577	1.854837	0.000219
1801	1.7910e+02	-8.2891	-55.001937	0.000547	5.474577	1.854837	0.000219
1802	1.7920e+02	-8.2442	-54.836415	0.000416	4.156623	1.408302	0.000166
1803	1.7930e+02	-8.2008	-54.626484	0.000527	5.271815	1.786139	0.000211
1804	1.7940e+02	-8.1655	-54.432701	0.000487	4.866290	1.648744	0.000195
1805	1.7950e+02	-8.1222	-54.214696	0.000547	5.474577	1.854837	0.000219
1806	1.7960e+02	-8.0918	-54.020913	0.000487	4.866290	1.648744	0.000195
1807	1.7970e+02	-8.0500	-53.790797	0.000578	5.778720	1.957883	0.000231
1808	1.7980e+02	-8.0083	-53.564717	0.000568	5.677339	1.923534	0.000227
1809	1.7990e+02	-7.9634	-53.330563	0.000588	5.880101	1.992232	0.000235
1810	1.8000e+02	-7.9265	-53.165041	0.000416	4.156623	1.408302	0.000166
1811	1.8009e+02	-7.8912	-52.995481	0.000426	4.258004	1.442651	0.000170
1812	1.8019e+02	-7.8447	-52.833995	0.000406	4.055242	1.373953	0.000162
1813	1.8029e+02	-7.8094	-52.539284	0.000740	7.400817	2.507465	0.000296
1814	1.8039e+02	-7.7581	-52.357613	0.000456	4.562147	1.545697	0.000183
1815	1.8049e+02	-7.7340	-52.159794	0.000497	4.967671	1.683093	0.000199
1816	1.8059e+02	-7.6923	-51.925640	0.000588	5.880101	1.992232	0.000235
1817	1.8069e+02	-7.6490	-51.731857	0.000487	4.866290	1.648744	0.000195
1818	1.8079e+02	-7.6041	-51.558261	0.000436	4.359385	1.477000	0.000174
1819	1.8089e+02	-7.5736	-51.320070	0.000598	5.981482	2.026581	0.000239
1820	1.8099e+02	-7.5190	-51.142436	0.000446	4.460766	1.511348	0.000179
1821	1.8109e+02	-7.4886	-50.867910	0.000689	6.893911	2.335720	0.000276
1822	1.8119e+02	-7.4533	-50.686239	0.000456	4.562147	1.545697	0.000183
1823	1.8129e+02	-7.4100	-50.504568	0.000456	4.562147	1.545697	0.000183
1824	1.8139e+02	-7.3698	-50.282526	0.000558	5.575958	1.889186	0.000223
1825	1.8149e+02	-7.3362	-50.056446	0.000568	5.677339	1.923534	0.000227
1826	1.8159e+02	-7.2944	-49.814218	0.000608	6.082863	2.060930	0.000243
1827	1.8169e+02	-7.2383	-49.620435	0.000487	4.866290	1.648744	0.000195
1828	1.8179e+02	-7.2110	-49.418579	0.000507	5.069052	1.717441	0.000203
1829	1.8189e+02	-7.1725	-49.160202	0.000649	6.488387	2.198325	0.000260
1830	1.8199e+02	-7.1244	-48.974494	0.000466	4.663528	1.580046	0.000187
1831	1.8209e+02	-7.0939	-48.772637	0.000507	5.069052	1.717441	0.000203
1832	1.8218e+02	-7.0490	-48.530409	0.000608	6.082863	2.060930	0.000243
1833	1.8228e+02	-7.0105	-48.328552	0.000507	5.069052	1.717441	0.000203
1834	1.8238e+02	-6.9720	-48.126695	0.000507	5.069052	1.717441	0.000203
1835	1.8248e+02	-6.9319	-47.884467	0.000608	6.082863	2.060930	0.000243
1836	1.8258e+02	-6.8790	-47.654350	0.000578	5.778720	1.957883	0.000231
1837	1.8268e+02	-6.8565	-47.464605	0.000476	4.764909	1.614395	0.000191
1838	1.8278e+02	-6.8019	-47.198154	0.000669	6.691149	2.267023	0.000268
1839	1.8288e+02	-6.7715	-47.024557	0.000436	4.359385	1.477000	0.000174
1840	1.8298e+02	-6.7282	-46.822700	0.000507	5.069052	1.717441	0.000203
1841	1.8308e+02	-6.6977	-46.580472	0.000608	6.082863	2.060930	0.000243
1842	1.8318e+02	-6.6544	-46.382652	0.000497	4.967671	1.683093	0.000199
1843	1.8328e+02	-6.6014	-46.160610	0.000558	5.575958	1.889186	0.000223
1844	1.8338e+02	-6.5758	-45.982976	0.000446	4.460766	1.511348	0.000179
1845	1.8348e+02	-6.5292	-45.728637	0.000639	6.387006	2.163976	0.000256
1846	1.8358e+02	-6.4891	-45.514668	0.000537	5.373196	1.820488	0.000215
1847	1.8368e+02	-6.4538	-45.332997	0.000456	4.562147	1.545697	0.000183
1848	1.8378e+02	-6.4169	-45.119029	0.000537	5.373196	1.820488	0.000215
1849	1.8388e+02	-6.3672	-44.909098	0.000527	5.271815	1.786139	0.000211
1850	1.8398e+02	-6.3335	-44.731464	0.000446	4.460766	1.511348	0.000179
1851	1.8407e+02	-6.3030	-44.444827	0.000720	7.198055	2.438767	0.000288
1852	1.8417e+02	-6.2597	-44.242971	0.000507	5.069052	1.717441	0.000203
1853	1.8427e+02	-6.2084	-44.037077	0.000517	5.170434	1.751790	0.000207
1854	1.8437e+02	-6.1779	-43.782737	0.000639	6.387006	2.163976	0.000256
1855	1.8447e+02	-6.1346	-43.588955	0.000487	4.866290	1.648744	0.000195
1856	1.8457e+02	-6.0993	-43.395172	0.000487	4.866290	1.648744	0.000195
1857	1.8467e+02	-6.0640	-43.161018	0.000588	5.880101	1.992232	0.000235
1858	1.8477e+02	-6.0143	-42.959161	0.000507	5.069052	1.717441	0.000203
1859	1.8487e+02	-5.9806	-42.720970	0.000598	5.981482	2.026581	0.000239
1860	1.8497e+02	-5.9325	-42.494891	0.000568	5.677339	1.923534	0.000227
1861	1.8507e+02	-5.8956	-42.260737	0.000588	5.880101	1.992232	0.000235
1862	1.8517e+02	-5.8538	-42.091177	0.000426	4.258004	1.442651	0.000170
1863	1.8527e+02	-5.8169	-41.865098	0.000568	5.677339	1.923534	0.000227
1864	1.8537e+02	-5.7784	-41.598647	0.000669	6.691149	2.267023	0.000268
1865	1.8547e+02	-5.7383	-41.453310	0.000365	3.649718	1.236558	0.000146
1866	1.8557e+02	-5.6934	-41.198970	0.000639	6.387006	2.163976	0.000256
1867	1.8567e+02	-5.6565	-40.960779	0.000598	5.981482	2.026581	0.000239
1868	1.8577e+02	-5.6212	-40.758922	0.000507	5.069052	1.717441	0.000203
1869	1.8587e+02	-5.5779	-40.548991	0.000527	5.271815	1.786139	0.000211
1870	1.8597e+02	-5.5298	-40.326949	0.000558	5.575958	1.889186	0.000223
1871	1.8606e+02	-5.4977	-40.104906	0.000558	5.575958	1.889186	0.000223
1872	1.8616e+02	-5.4528	-39.882864	0.000558	5.575958	1.889186	0.000223
1873	1.8626e+02	-5.4255	-39.656784	0.000568	5.677339	1.923534	0.000227
1874	1.8636e+02	-5.3854	-39.442816	0.000537	5.373196	1.820488	0.000215
1875	1.8646e+02	-5.3357	-39.176365	0.000669	6.691149	2.267023	0.000268
1876	1.8656e+02	-5.3004	-38.978546	0.000497	4.967671	1.683093	0.000199
1877	1.8666e+02	-5.2587	-38.748429	0.000578	5.778720	1.957883	0.000231
1878	1.8676e+02	-5.2186	-38.562721	0.000466	4.663528	1.580046	0.000187
1879	1.8686e+02	-5.1785	-38.340678	0.000558	5.575958	1.889186	0.000223
1880	1.8696e+02	-5.1416	-38.082301	0.000649	6.488387	2.198325	0.000260
1881	1.8706e+02	-5.1047	-37.868333	0.000537	5.373196	1.820488	0.000215
1882	1.8716e+02	-5.0565	-37.650328	0.000547	5.474577	1.854837	0.000219
1883	1.8726e+02	-5.0132	-37.420211	0.000578	5.778720	1.957883	0.000231
1884	1.8736e+02	-4.9876	-37.194132	0.000568	5.677339	1.923534	0.000227
1885	1.8746e+02	-4.9378	-36.996312	0.000497	4.967671	1.683093	0.000199
1886	1.8756e+02	-4.8977	-36.754084	0.000608	6.082863	2.060930	0.000243
1887	1.8766e+02	-4.8592	-36.560301	0.000487	4.866290	1.648744	0.000195
1888	1.8776e+02	-4.8271	-36.338259	0.000558	5.575958	1.889186	0.000223
1889	1.8786e+02	-4.7822	-36.079882	0.000649	6.488387	2.198325	0.000260
1890	1.8796e+02	-4.7501	-35.857840	0.000558	5.575958	1.889186	0.000223
1891	1.8806e+02	-4.7036	-35.635797	0.000558	5.575958	1.889186	0.000223
1892	1.8815e+02	-4.6587	-35.442015	0.000487	4.866290	1.648744	0.000195
1893	1.8825e+02	-4.6330	-35.163452	0.000700	6.995292	2.370069	0.000280
1894	1.8835e+02	-4.5865	-34.953521	0.000527	5.271815	1.786139	0.000211
1895	1.8845e+02	-4.5432	-34.723404	0.000578	5.778720	1.957883	0.000231
1896	1.8855e+02	-4.5063	-34.489251	0.000588	5.880101	1.992232	0.000235
1897	1.8865e+02	-4.4614	-34.287394	0.000507	5.069052	1.717441	0.000203
1898	1.8875e+02	-4.4148	-34.037091	0.000629	6.285625	2.129627	0.000252
1899	1.8885e+02	-4.3812	-33.782752	0.000639	6.387006	2.163976	0.000256
1900	1.8895e+02	-4.3394	-33.588969	0.000487	4.866290	1.648744	0.000195
1901	1.8905e+02	-4.3026	-33.366927	0.000558	5.575958	1.889186	0.000223
1902	1.8915e+02	-4.2657	-33.148922	0.000547	5.474577	1.854837	0.000219
1903	1.8925e+02	-4.2272	-32.894582	0.000639	6.387006	2.163976	0.000256
1904	1.8935e+02	-4.1870	-32.648317	0.000618	6.184244	2.095279	0.000248
1905	1.8945e+02	-4.1502	-32.442423	0.000517	5.170434	1.751790	0.000207
1906	1.8955e+02	-4.1133	-32.212306	0.000578	5.778720	1.957883	0.000231
1907	1.8965e+02	-4.0603	-31.974115	0.000598	5.981482	2.026581	0.000239
1908	1.8975e+02	-4.0266	-31.788407	0.000466	4.663528	1.580046	0.000187
1909	1.8985e+02	-3.9801	-31.566364	0.000558	5.575958	1.889186	0.000223
1910	1.8995e+02	-3.9400	-31.368545	0.000497	4.967671	1.683093	0.000199
1911	1.9004e+02	-3.8919	-31.102094	0.000669	6.691149	2.267023	0.000268
1912	1.9014e+02	-3.8582	-30.859866	0.000608	6.082863	2.060930	0.000243
1913	1.9024e+02	-3.8341	-30.658009	0.000507	5.069052	1.717441	0.000203
1914	1.9034e+02	-3.7860	-30.440003	0.000547	5.474577	1.854837	0.000219
1915	1.9044e+02	-3.7443	-30.177590	0.000659	6.589768	2.232674	0.000264
1916	1.9054e+02	-3.7010	-29.939399	0.000598	5.981482	2.026581	0.000239
1917	1.9064e+02	-3.6657	-29.745616	0.000487	4.866290	1.648744	0.000195
1918	1.9074e+02	-3.6240	-29.499351	0.000618	6.184244	2.095279	0.000248
1919	1.9084e+02	-3.5806	-29.273271	0.000568	5.677339	1.923534	0.000227
1920	1.9094e+02	-3.5470	-28.990672	0.000710	7.096673	2.404418	0.000284
1921	1.9104e+02	-3.5085	-28.756518	0.000588	5.880101	1.992232	0.000235
1922	1.9114e+02	-3.4651	-28.570810	0.000466	4.663528	1.580046	0.000187
1923	1.9124e+02	-3.4266	-28.364916	0.000517	5.170434	1.751790	0.000207
1924	1.9134e+02	-3.3881	-28.066168	0.000750	7.502198	2.541813	0.000300
1925	1.9144e+02	-3.3480	-27.868348	0.000497	4.967671	1.683093	0.000199
1926	1.9154e+02	-3.3063	-27.622083	0.000618	6.184244	2.095279	0.000248
1927	1.9164e+02	-3.2758	-27.408115	0.000537	5.373196	1.820488	0.000215
1928	1.9174e+02	-3.2245	-27.186072	0.000558	5.575958	1.889186	0.000223
1929	1.9184e+02	-3.1828	-26.935770	0.000629	6.285625	2.129627	0.000252
1930	1.9194e+02	-3.1555	-26.713727	0.000558	5.575958	1.889186	0.000223
1931	1.9203e+02	-3.1106	-26.451313	0.000659	6.589768	2.232674	0.000264
1932	1.9213e+02	-3.0609	-26.245419	0.000517	5.170434	1.751790	0.000207
1933	1.9223e+02	-3.0272	-26.003191	0.000608	6.082863	2.060930	0.000243
1934	1.9233e+02	-2.9839	-25.744815	0.000649	6.488387	2.198325	0.000260
1935	1.9243e+02	-2.9550	-25.514698	0.000578	5.778720	1.957883	0.000231
1936	1.9253e+02	-2.9101	-25.280544	0.000588	5.880101	1.992232	0.000235
1937	1.9263e+02	-2.8764	-25.030242	0.000629	6.285625	2.129627	0.000252
1938	1.9273e+02	-2.8218	-24.808199	0.000558	5.575958	1.889186	0.000223
1939	1.9283e+02	-2.7866	-24.578082	0.000578	5.778720	1.957883	0.000231
1940	1.9293e+02	-2.7545	-24.319706	0.000649	6.488387	2.198325	0.000260
1941	1.9303e+02	-2.7095	-24.073440	0.000618	6.184244	2.095279	0.000248
1942	1.9313e+02	-2.6630	-23.835249	0.000598	5.981482	2.026581	0.000239
1943	1.9323e+02	-2.6325	-23.597058	0.000598	5.981482	2.026581	0.000239
1944	1.9333e+02	-2.5860	-23.375016	0.000558	5.575958	1.889186	0.000223
1945	1.9343e+02	-2.5427	-23.124714	0.000629	6.285625	2.129627	0.000252
1946	1.9353e+02	-2.5138	-22.870374	0.000639	6.387006	2.163976	0.000256
1947	1.9363e+02	-2.4673	-22.664480	0.000517	5.170434	1.751790	0.000207
1948	1.9373e+02	-2.4288	-22.434363	0.000578	5.778720	1.957883	0.000231
1949	1.9383e+02	-2.3887	-22.147727	0.000720	7.198055	2.438767	0.000288
1950	1.9393e+02	-2.3486	-21.933758	0.000537	5.373196	1.820488	0.000215
1951	1.9403e+02	-2.3149	-21.695567	0.000598	5.981482	2.026581	0.000239
1952	1.9412e+02	-2.2732	-21.461414	0.000588	5.880101	1.992232	0.000235
1953	1.9422e+02	-2.2251	-21.199000	0.000659	6.589768	2.232674	0.000264
1954	1.9432e+02	-2.1834	-20.952734	0.000618	6.184244	2.095279	0.000248
1955	1.9442e+02	-2.1561	-20.682246	0.000679	6.792530	2.301372	0.000272
1956	1.9452e+02	-2.1080	-20.464241	0.000547	5.474577	1.854837	0.000219
1957	1.9462e+02	-2.0775	-20.246236	0.000547	5.474577	1.854837	0.000219
1958	1.9472e+02	-2.0358	-19.979785	0.000669	6.691149	2.267023	0.000268
1959	1.9482e+02	-1.9876	-19.729482	0.000629	6.285625	2.129627	0.000252
1960	1.9492e+02	-1.9524	-19.475143	0.000639	6.387006	2.163976	0.000256
1961	1.9502e+02	-1.9171	-19.285397	0.000476	4.764909	1.614395	0.000191
1962	1.9512e+02	-1.8721	-19.022984	0.000659	6.589768	2.232674	0.000264
1963	1.9522e+02	-1.8352	-18.744421	0.000700	6.995292	2.370069	0.000280
1964	1.9532e+02	-1.7887	-18.482007	0.000659	6.589768	2.232674	0.000264
1965	1.9542e+02	-1.7502	-18.284188	0.000497	4.967671	1.683093	0.000199
1966	1.9552e+02	-1.7165	-18.025811	0.000649	6.488387	2.198325	0.000260
1967	1.9562e+02	-1.6764	-17.747249	0.000700	6.995292	2.370069	0.000280
1968	1.9572e+02	-1.6283	-17.517132	0.000578	5.778720	1.957883	0.000231
1969	1.9582e+02	-1.5930	-17.278941	0.000598	5.981482	2.026581	0.000239
1970	1.9592e+02	-1.5689	-16.996341	0.000710	7.096673	2.404418	0.000284
1971	1.9601e+02	-1.5176	-16.786410	0.000527	5.271815	1.786139	0.000211
1972	1.9611e+02	-1.4759	-16.532071	0.000639	6.387006	2.163976	0.000256
1973	1.9621e+02	-1.4278	-16.273694	0.000649	6.488387	2.198325	0.000260
1974	1.9631e+02	-1.3957	-16.031466	0.000608	6.082863	2.060930	0.000243
1975	1.9641e+02	-1.3636	-15.813461	0.000547	5.474577	1.854837	0.000219
1976	1.9651e+02	-1.3283	-15.571233	0.000608	6.082863	2.060930	0.000243
1977	1.9661e+02	-1.2738	-15.296707	0.000689	6.893911	2.335720	0.000276
1978	1.9671e+02	-1.2385	-15.038331	0.000649	6.488387	2.198325	0.000260
1979	1.9681e+02	-1.1984	-14.800140	0.000598	5.981482	2.026581	0.000239
1980	1.9691e+02	-1.1454	-14.541763	0.000649	6.488387	2.198325	0.000260
1981	1.9701e+02	-1.1117	-14.283386	0.000649	6.488387	2.198325	0.000260
1982	1.9711e+02	-1.0813	-14.037121	0.000618	6.184244	2.095279	0.000248
1983	1.9721e+02	-1.0347	-13.811041	0.000568	5.677339	1.923534	0.000227
1984	1.9731e+02	-1.0010	-13.524405	0.000720	7.198055	2.438767	0.000288
1985	1.9741e+02	-0.9529	-13.294288	0.000578	5.778720	1.957883	0.000231
1986	1.9751e+02	-0.9208	-13.043986	0.000629	6.285625	2.129627	0.000252
1987	1.9761e+02	-0.8711	-12.753312	0.000730	7.299436	2.473116	0.000292
1988	1.9771e+02	-0.8358	-12.539344	0.000537	5.373196	1.820488	0.000215
1989	1.9781e+02	-0.7989	-12.301153	0.000598	5.981482	2.026581	0.000239
1990	1.9791e+02	-0.7572	-12.046813	0.000639	6.387006	2.163976	0.000256
1991	1.9800e+02	-0.7219	-11.752102	0.000740	7.400817	2.507465	0.000296
1992	1.9810e+02	-0.6770	-11.509874	0.000608	6.082863	2.060930	0.000243
1993	1.9820e+02	-0.6385	-11.263609	0.000618	6.184244	2.095279	0.000248
1994	1.9830e+02	-0.6096	-11.013306	0.000629	6.285625	2.129627	0.000252
1995	1.9840e+02	-0.5551	-10.750892	0.000659	6.589768	2.232674	0.000264
1996	1.9850e+02	-0.5182	-10.508664	0.000608	6.082863	2.060930	0.000243
1997	1.9860e+02	-0.4813	-10.274510	0.000588	5.880101	1.992232	0.000235
1998	1.9870e+02	-0.4444	-9.967688	0.000770	7.704960	2.610511	0.000308
1999	1.9880e+02	-0.3946	-9.721423	0.000618	6.184244	2.095279	0.000248
2000	1.9890e+02	-0.3610	-9.475158	0.000618	6.184244	2.095279	0.000248
2001	1.9900e+02	-0.3257	-9.245041	0.000578	5.778720	1.957883	0.000231
2002	1.9910e+02	-0.2775	-8.978590	0.000669	6.691149	2.267023	0.000268
2003	1.9920e+02	-0.2454	-8.679842	0.000750	7.502198	2.541813	0.000300
2004	1.9930e+02	-0.2005	-8.449725	0.000578	5.778720	1.957883	0.000231
2005	1.9940e+02	-0.1652	-8.183274	0.000669	6.691149	2.267023	0.000268
2006	1.9950e+02	-0.1219	-7.957195	0.000568	5.677339	1.923534	0.000227
2007	1.9960e+02	-0.0818	-7.690744	0.000669	6.691149	2.267023	0.000268
2008	1.9970e+02	-0.0401	-7.444478	0.000618	6.184244	2.095279	0.000248
2009	1.9980e+02	-0.0016	-7.169953	0.000618	6.184244	2.095279	0.000276

PMax (uC/cm2):	1.29e+02
Pr (uC/cm2):	3.85e+01
-Pr (uC/cm2):	2.01e+01
PLoss (uC/cm2):	2.01e+01
Vc:	-3.24e+00
-Vc:	-6.19e+00
C (Max-Eff) (nF):	6.44e-01
K (Eff):	2.18e+03
Vert. (+/-Pr) Shift (uC/cm2):	2.93e+01
Horiz. Shift (+/-Vc):	-4.72e+00
Offset (uC/cm2):	2.73e+01

A (Loop Area - uC/cm2·Volts):	-1.48e+00



Hysteresis Version: 5.48.1 - Radiant Technologies, Inc., 1999 - 9/12/24

