»»»»»»»»»»»»»»»»»»»»»»»»»»»»»»»»»»»» Hysteresis ««««««««««««««««««««««««««««««««««««
»»»  Executed Version:	5.48.1
»»»  Vision Version:	5.48.4 (R)
»»»  Vision Compiled:	9/18/24
»»»  Driver Version:	5.47.0
»»»  Windows Version:	Windows 8 or 8.1
»»»  Processor Information:	x86 (AMD or Intel) - 32 Processors
»»»  Tester Name:	PMF21124-494 (100V)
»»»  Tester S/N:	PMF21124-494
»»»  Internal Amp Type:	100V RevK 270k
»»»  Internal Amp S/N:	iAB2-596/K     
»»»  Execution Count:	1
»»»»»»»»»»»»»»»»»»»»»»»»»»»»»»»»»»»»»»»»»»««««««««««««««««««««««««««««««««««««««««««

Stored:	6/18/2025 - 12:26:14
Configured:	06/18/25 09:47:30 AM
Executed:	06/18/25 12:25:47 PM

»»»»»»»»»»»»»»»»»»»»»»»»»»»»»»»»»»» Sample Info ««««««««««««««««««««««««««««««««««««
Sample Name:	
Lot Name:	
Wafer Name:	
Die Row/Column:	0/0
Capacitor Number:	0
Sample Area (cm2):	1.00e-04
Sample Thickness (microns):	3.00e-01

Amplifier:	Internal

»»»»»»»»»»»»»»»»»»»»»»»»»»»»»»»»»»» Tester Info «««««««««««««««««««««««««««««««««««
Tester Name:	PMF21124-494 (100V)
Tester Serial Number:	PMF21124-494
Return Signal Amp. Level:	0.19 [Index: 3]

»»»»»»»»»»»»»»»»»»»»»»»»»»»»»»»» Hysteresis Info ««««««««««««««««««««««««««««««««««
Task Name:	Hyst-554
Volts:	20.00
Field:	666.67 (kV/cm)
DCBias:	0.00
DCField:	0.00 (kV/cm)
Hysteresis Period (ms):	1.00e+00
Preset:	Enabled
Preset Delay (ms):	1.00e+03
Profile:	Standard Bipolar

»»»»»»»»»»»»»»»»»»»»»»»»»»»»»»»»»»»»»» Data «««««««««««««««««««««««««««««««««««««««
Points:	2001

Valid Data

Point	Time (ms)	Drive Voltage	Measured Polarization (uC/cm2)	Capacitance (uF)	Normalized Capacitance (uF/cm2)	Dielectric Constant	Instantaneous Current (mA)
   1	0.0000e+00	0.0128	-9.612891	0.000647	6.466583	2.190938	0.051624
   2	5.0000e-04	0.0385	-9.354772	0.000647	6.466583	2.190938	0.051624
   3	1.0000e-03	0.0449	-9.322507	0.000081	0.808323	0.273867	0.006453
   4	1.5000e-03	0.0995	-9.350739	-0.000071	-0.707283	-0.239634	-0.005646
   5	2.0000e-03	0.1315	-9.080522	0.000677	6.769704	2.293638	0.054044
   6	2.5000e-03	0.1733	-8.911131	0.000424	4.243695	1.437803	0.033878
   7	3.0000e-03	0.2230	-8.564285	0.000869	8.689471	2.944073	0.069369
   8	3.5000e-03	0.2487	-8.322299	0.000606	6.062422	2.054004	0.048397
   9	4.0000e-03	0.2952	-8.120644	0.000505	5.052018	1.711670	0.040331
  10	4.5000e-03	0.3257	-7.765731	0.000889	8.891552	3.012539	0.070983
  11	5.0000e-03	0.3706	-7.523745	0.000606	6.062422	2.054004	0.048397
  12	5.5000e-03	0.4139	-7.435017	0.000222	2.222888	0.753135	0.017746
  13	6.0000e-03	0.4476	-6.987343	0.001122	11.215480	3.799908	0.089535
  14	6.5000e-03	0.4925	-6.947012	0.000101	1.010404	0.342334	0.008066
  15	7.0000e-03	0.5310	-6.769556	0.000445	4.445776	1.506270	0.035491
  16	7.5000e-03	0.5615	-6.382379	0.000970	9.699875	3.286407	0.077435
  17	8.0000e-03	0.6112	-6.184757	0.000495	4.950978	1.677437	0.039524
  18	8.5000e-03	0.6513	-6.128293	0.000141	1.414565	0.479268	0.011293
  19	9.0000e-03	0.6930	-5.599957	0.001324	13.236287	4.484576	0.105667
  20	9.5000e-03	0.7347	-5.458799	0.000354	3.536413	1.198169	0.028232
  21	1.0000e-02	0.7700	-5.426534	0.000081	0.808323	0.273867	0.006453
  22	1.0500e-02	0.8101	-5.208747	0.000546	5.456180	1.848604	0.043557
  23	1.1000e-02	0.8518	-4.837702	0.000930	9.295713	3.149473	0.074209
  24	1.1500e-02	0.8903	-4.381962	0.001142	11.417561	3.868374	0.091148
  25	1.2000e-02	0.9321	-4.385995	-0.000010	-0.101040	-0.034233	-0.000807
  26	1.2500e-02	0.9625	-4.184340	0.000505	5.052018	1.711670	0.040331
  27	1.3000e-02	1.0026	-3.740699	0.001111	11.114440	3.765674	0.088728
  28	1.3500e-02	1.0508	-3.607607	0.000333	3.334332	1.129702	0.026618
  29	1.4000e-02	1.0893	-3.345455	0.000657	6.567624	2.225171	0.052430
  30	1.4500e-02	1.1246	-3.075238	0.000677	6.769704	2.293638	0.054044
  31	1.5000e-02	1.1759	-3.051039	0.000061	0.606242	0.205400	0.004840
  32	1.5500e-02	1.2192	-2.756623	0.000738	7.375946	2.499038	0.058883
  33	1.6000e-02	1.2481	-2.405743	0.000879	8.790511	2.978306	0.070176
  34	1.6500e-02	1.2850	-2.200055	0.000515	5.153058	1.745903	0.041138
  35	1.7000e-02	1.3363	-2.159724	0.000101	1.010404	0.342334	0.008066
  36	1.7500e-02	1.3572	-1.631388	0.001324	13.236287	4.484576	0.105667
  37	1.8000e-02	1.4069	-1.486197	0.000364	3.637453	1.232402	0.029038
  38	1.8500e-02	1.4534	-1.228079	0.000647	6.466583	2.190938	0.051624
  39	1.9000e-02	1.4791	-1.006258	0.000556	5.557220	1.882837	0.044364
  40	1.9500e-02	1.5240	-0.861067	0.000364	3.637453	1.232402	0.029038
  41	2.0000e-02	1.5689	-0.623114	0.000596	5.961381	2.019771	0.047591
  42	2.0500e-02	1.6106	-0.320631	0.000758	7.578027	2.567505	0.060496
  43	2.1000e-02	1.6492	-0.090745	0.000576	5.759301	1.951304	0.045977
  44	2.1500e-02	1.6925	0.094778	0.000465	4.647857	1.574736	0.037105
  45	2.2000e-02	1.7213	0.389194	0.000738	7.375946	2.499038	0.058883
  46	2.2500e-02	1.7743	0.530352	0.000354	3.536413	1.198169	0.028232
  47	2.3000e-02	1.8144	0.780405	0.000626	6.264502	2.122471	0.050010
  48	2.3500e-02	1.8513	1.155483	0.000940	9.396754	3.183706	0.075016
  49	2.4000e-02	1.8834	1.316807	0.000404	4.041614	1.369336	0.032265
  50	2.4500e-02	1.9363	1.591057	0.000687	6.870745	2.327871	0.054850
  51	2.5000e-02	1.9700	1.925805	0.000839	8.386350	2.841372	0.066949
  52	2.5500e-02	2.0005	2.183923	0.000647	6.466583	2.190938	0.051624
  53	2.6000e-02	2.0582	2.135526	-0.000121	-1.212484	-0.410801	-0.009679
  54	2.6500e-02	2.0887	2.510604	0.000940	9.396754	3.183706	0.075016
  55	2.7000e-02	2.1384	2.752590	0.000606	6.062422	2.054004	0.048397
  56	2.7500e-02	2.1689	2.998609	0.000616	6.163462	2.088237	0.049204
  57	2.8000e-02	2.2090	3.284959	0.000717	7.173866	2.430571	0.057270
  58	2.8500e-02	2.2556	3.373687	0.000222	2.222888	0.753135	0.017746
  59	2.9000e-02	2.2941	3.760864	0.000970	9.699875	3.286407	0.077435
  60	2.9500e-02	2.3261	4.075446	0.000788	7.881148	2.670205	0.062916
  61	3.0000e-02	2.3823	4.446491	0.000930	9.295713	3.149473	0.074209
  62	3.0500e-02	2.4176	4.539252	0.000232	2.323928	0.787368	0.018552
  63	3.1000e-02	2.4481	4.744941	0.000515	5.153058	1.745903	0.041138
  64	3.1500e-02	2.4834	5.111952	0.000919	9.194673	3.115240	0.073402
  65	3.2000e-02	2.5379	5.357971	0.000616	6.163462	2.088237	0.049204
  66	3.2500e-02	2.5764	5.196648	-0.000404	-4.041614	-1.369336	-0.032265
  67	3.3000e-02	2.6053	5.624156	0.001071	10.710278	3.628741	0.085502
  68	3.3500e-02	2.6502	5.975036	0.000879	8.790511	2.978306	0.070176
  69	3.4000e-02	2.6919	6.180724	0.000515	5.153058	1.745903	0.041138
  70	3.4500e-02	2.7336	6.374312	0.000485	4.849937	1.643203	0.038718
  71	3.5000e-02	2.7737	6.507405	0.000333	3.334332	1.129702	0.026618
  72	3.5500e-02	2.8106	6.890549	0.000960	9.598834	3.252173	0.076629
  73	3.6000e-02	2.8523	7.080105	0.000475	4.748897	1.608970	0.037911
  74	3.6500e-02	2.8956	7.390653	0.000778	7.780108	2.635972	0.062110
  75	3.7000e-02	2.9309	7.636672	0.000616	6.163462	2.088237	0.049204
  76	3.7500e-02	2.9742	7.814129	0.000445	4.445776	1.506270	0.035491
  77	3.8000e-02	3.0079	7.999651	0.000465	4.647857	1.574736	0.037105
  78	3.8500e-02	3.0480	8.386829	0.000970	9.699875	3.286407	0.077435
  79	3.9000e-02	3.0898	8.721576	0.000839	8.386350	2.841372	0.066949
  80	3.9500e-02	3.1315	8.794172	0.000182	1.818727	0.616201	0.014519
  81	4.0000e-02	3.1716	8.963562	0.000424	4.243695	1.437803	0.033878
  82	4.0500e-02	3.2133	9.403169	0.001101	11.013399	3.731441	0.087922
  83	4.1000e-02	3.2566	9.479798	0.000192	1.919767	0.650435	0.015326
  84	4.1500e-02	3.2967	9.814545	0.000839	8.386350	2.841372	0.066949
  85	4.2000e-02	3.3368	9.955704	0.000354	3.536413	1.198169	0.028232
  86	4.2500e-02	3.3705	10.282385	0.000818	8.184269	2.772906	0.065336
  87	4.3000e-02	3.4090	10.601000	0.000798	7.982189	2.704439	0.063723
  88	4.3500e-02	3.4539	10.762324	0.000404	4.041614	1.369336	0.032265
  89	4.4000e-02	3.4844	11.169667	0.001021	10.205077	3.457574	0.081469
  90	4.4500e-02	3.5293	11.282593	0.000283	2.829130	0.958535	0.022585
  91	4.5000e-02	3.5742	11.464083	0.000455	4.546816	1.540503	0.036298
  92	4.5500e-02	3.6111	11.814962	0.000879	8.790511	2.978306	0.070176
  93	4.6000e-02	3.6480	11.907724	0.000232	2.323928	0.787368	0.018552
  94	4.6500e-02	3.6913	12.165842	0.000647	6.466583	2.190938	0.051624
  95	4.7000e-02	3.7298	12.403795	0.000596	5.961381	2.019771	0.047591
  96	4.7500e-02	3.7764	12.726443	0.000808	8.083229	2.738672	0.064530
  97	4.8000e-02	3.8117	13.024892	0.000748	7.476987	2.533272	0.059690
  98	4.8500e-02	3.8405	13.315275	0.000727	7.274906	2.464805	0.058077
  99	4.9000e-02	3.8903	13.569360	0.000637	6.365543	2.156704	0.050817
 100	4.9500e-02	3.9304	13.605658	0.000091	0.909363	0.308101	0.007260
 101	5.0000e-02	3.9657	13.956538	0.000879	8.790511	2.978306	0.070176
 102	5.0500e-02	4.0090	14.033167	0.000192	1.919767	0.650435	0.015326
 103	5.1000e-02	4.0427	14.593767	0.001404	14.044610	4.758443	0.112120
 104	5.1500e-02	4.0924	14.662330	0.000172	1.717686	0.581968	0.013713
 105	5.2000e-02	4.1325	14.835753	0.000434	4.344736	1.472036	0.034685
 106	5.2500e-02	4.1662	15.093872	0.000647	6.466583	2.190938	0.051624
 107	5.3000e-02	4.2159	15.428619	0.000839	8.386350	2.841372	0.066949
 108	5.3500e-02	4.2544	15.618174	0.000475	4.748897	1.608970	0.037911
 109	5.4000e-02	4.2865	15.815796	0.000495	4.950978	1.677437	0.039524
 110	5.4500e-02	4.3330	16.142477	0.000818	8.184269	2.772906	0.065336
 111	5.5000e-02	4.3699	16.505456	0.000909	9.093633	3.081006	0.072596
 112	5.5500e-02	4.4100	16.707111	0.000505	5.052018	1.711670	0.040331
 113	5.6000e-02	4.4437	16.981362	0.000687	6.870745	2.327871	0.054850
 114	5.6500e-02	4.4951	17.380638	0.001000	10.002996	3.389107	0.079855
 115	5.7000e-02	4.5336	17.525830	0.000364	3.637453	1.232402	0.029038
 116	5.7500e-02	4.5673	17.634724	0.000273	2.728090	0.924302	0.021779
 117	5.8000e-02	4.6074	17.816213	0.000455	4.546816	1.540503	0.036298
 118	5.8500e-02	4.6571	18.114662	0.000748	7.476987	2.533272	0.059690
 119	5.9000e-02	4.6908	18.376814	0.000657	6.567624	2.225171	0.052430
 120	5.9500e-02	4.7325	18.445376	0.000172	1.717686	0.581968	0.013713
 121	6.0000e-02	4.7774	18.913216	0.001172	11.720682	3.971075	0.093568
 122	6.0500e-02	4.8111	19.155202	0.000606	6.062422	2.054004	0.048397
 123	6.1000e-02	4.8544	19.385088	0.000576	5.759301	1.951304	0.045977
 124	6.1500e-02	4.8897	19.695637	0.000778	7.780108	2.635972	0.062110
 125	6.2000e-02	4.9330	19.792431	0.000242	2.424969	0.821602	0.019359
 126	6.2500e-02	4.9747	20.228006	0.001091	10.912359	3.697207	0.087115
 127	6.3000e-02	5.0148	20.304635	0.000192	1.919767	0.650435	0.015326
 128	6.3500e-02	5.0485	20.643415	0.000849	8.487390	2.875606	0.067756
 129	6.4000e-02	5.0902	20.905567	0.000657	6.567624	2.225171	0.052430
 130	6.4500e-02	5.1335	21.195950	0.000727	7.274906	2.464805	0.058077
 131	6.5000e-02	5.1737	21.506498	0.000778	7.780108	2.635972	0.062110
 132	6.5500e-02	5.2025	21.462134	-0.000111	-1.111444	-0.376567	-0.008873
 133	6.6000e-02	5.2474	21.841245	0.000950	9.497794	3.217940	0.075822
 134	6.6500e-02	5.2940	22.167926	0.000818	8.184269	2.772906	0.065336
 135	6.7000e-02	5.3389	22.405879	0.000596	5.961381	2.019771	0.047591
 136	6.7500e-02	5.3710	22.647865	0.000606	6.062422	2.054004	0.048397
 137	6.8000e-02	5.4111	23.075374	0.001071	10.710278	3.628741	0.085502
 138	6.8500e-02	5.4544	23.172168	0.000242	2.424969	0.821602	0.019359
 139	6.9000e-02	5.4849	23.442386	0.000677	6.769704	2.293638	0.054044
 140	6.9500e-02	5.5378	23.716636	0.000687	6.870745	2.327871	0.054850
 141	7.0000e-02	5.5747	23.821497	0.000263	2.627049	0.890068	0.020972
 142	7.0500e-02	5.6084	24.253038	0.001081	10.811319	3.662974	0.086308
 143	7.1000e-02	5.6549	24.503091	0.000626	6.264502	2.122471	0.050010
 144	7.1500e-02	5.6966	24.696679	0.000485	4.849937	1.643203	0.038718
 145	7.2000e-02	5.7367	25.039493	0.000859	8.588431	2.909839	0.068563
 146	7.2500e-02	5.7752	25.184684	0.000364	3.637453	1.232402	0.029038
 147	7.3000e-02	5.7993	25.366174	0.000455	4.546816	1.540503	0.036298
 148	7.3500e-02	5.8619	25.648491	0.000707	7.072825	2.396338	0.056463
 149	7.4000e-02	5.8875	25.898543	0.000626	6.264502	2.122471	0.050010
 150	7.4500e-02	5.9260	26.152628	0.000637	6.365543	2.156704	0.050817
 151	7.5000e-02	5.9742	26.447044	0.000738	7.375946	2.499038	0.058883
 152	7.5500e-02	6.0143	26.664831	0.000546	5.456180	1.848604	0.043557
 153	7.6000e-02	6.0544	26.894718	0.000576	5.759301	1.951304	0.045977
 154	7.6500e-02	6.0849	27.273829	0.000950	9.497794	3.217940	0.075822
 155	7.7000e-02	6.1314	27.362557	0.000222	2.222888	0.753135	0.017746
 156	7.7500e-02	6.1667	27.354491	-0.000020	-0.202081	-0.068467	-0.001613
 157	7.8000e-02	6.2132	27.818298	0.001162	11.619642	3.936841	0.092761
 158	7.8500e-02	6.2501	28.096581	0.000697	6.971785	2.362105	0.055657
 159	7.9000e-02	6.2982	28.431329	0.000839	8.386350	2.841372	0.066949
 160	7.9500e-02	6.3335	28.540222	0.000273	2.728090	0.924302	0.021779
 161	8.0000e-02	6.3832	28.879003	0.000849	8.487390	2.875606	0.067756
 162	8.0500e-02	6.4121	29.189551	0.000778	7.780108	2.635972	0.062110
 163	8.1000e-02	6.4426	29.794516	0.001516	15.156054	5.135010	0.120993
 164	8.1500e-02	6.4891	29.693688	-0.000253	-2.526009	-0.855835	-0.020165
 165	8.2000e-02	6.5324	29.738053	0.000111	1.111444	0.376567	0.008873
 166	8.2500e-02	6.5709	30.080866	0.000859	8.588431	2.909839	0.068563
 167	8.3000e-02	6.6078	30.576937	0.001243	12.427965	4.210708	0.099214
 168	8.3500e-02	6.6447	30.770526	0.000485	4.849937	1.643203	0.038718
 169	8.4000e-02	6.6864	31.093174	0.000808	8.083229	2.738672	0.064530
 170	8.4500e-02	6.7330	31.262564	0.000424	4.243695	1.437803	0.033878
 171	8.5000e-02	6.7731	31.395656	0.000333	3.334332	1.129702	0.026618
 172	8.5500e-02	6.8132	31.641675	0.000616	6.163462	2.088237	0.049204
 173	8.6000e-02	6.8549	31.750569	0.000273	2.728090	0.924302	0.021779
 174	8.6500e-02	6.8934	31.940124	0.000475	4.748897	1.608970	0.037911
 175	8.7000e-02	6.9271	32.403931	0.001162	11.619642	3.936841	0.092761
 176	8.7500e-02	6.9768	32.686248	0.000707	7.072825	2.396338	0.056463
 177	8.8000e-02	7.0041	32.932267	0.000616	6.163462	2.088237	0.049204
 178	8.8500e-02	7.0506	33.214584	0.000707	7.072825	2.396338	0.056463
 179	8.9000e-02	7.0907	33.299279	0.000212	2.121848	0.718901	0.016939
 180	8.9500e-02	7.1372	33.561430	0.000657	6.567624	2.225171	0.052430
 181	9.0000e-02	7.1661	33.734853	0.000434	4.344736	1.472036	0.034685
 182	9.0500e-02	7.2062	34.113965	0.000950	9.497794	3.217940	0.075822
 183	9.1000e-02	7.2495	34.412414	0.000748	7.476987	2.533272	0.059690
 184	9.1500e-02	7.2896	34.501142	0.000222	2.222888	0.753135	0.017746
 185	9.2000e-02	7.3410	34.811691	0.000778	7.780108	2.635972	0.062110
 186	9.2500e-02	7.3795	35.013346	0.000505	5.052018	1.711670	0.040331
 187	9.3000e-02	7.4051	35.400523	0.000970	9.699875	3.286407	0.077435
 188	9.3500e-02	7.4468	35.743336	0.000859	8.588431	2.909839	0.068563
 189	9.4000e-02	7.4870	36.005488	0.000657	6.567624	2.225171	0.052430
 190	9.4500e-02	7.5287	36.154712	0.000374	3.738493	1.266636	0.029845
 191	9.5000e-02	7.5672	36.380566	0.000566	5.658260	1.917070	0.045171
 192	9.5500e-02	7.6073	36.763710	0.000960	9.598834	3.252173	0.076629
 193	9.6000e-02	7.6490	36.670949	-0.000232	-2.323928	-0.787368	-0.018552
 194	9.6500e-02	7.6891	37.191219	0.001303	13.034207	4.416109	0.104054
 195	9.7000e-02	7.7292	37.348510	0.000394	3.940574	1.335103	0.031458
 196	9.7500e-02	7.7725	37.529999	0.000455	4.546816	1.540503	0.036298
 197	9.8000e-02	7.8110	37.941375	0.001031	10.306117	3.491807	0.082275
 198	9.8500e-02	7.8575	37.989772	0.000121	1.212484	0.410801	0.009679
 199	9.9000e-02	7.8864	38.401148	0.001031	10.306117	3.491807	0.082275
 200	9.9500e-02	7.9345	38.465678	0.000162	1.616646	0.547734	0.012906
 201	1.0000e-01	7.9714	38.631035	0.000414	4.142655	1.403569	0.033071
 202	1.0050e-01	8.0131	38.941584	0.000778	7.780108	2.635972	0.062110
 203	1.0100e-01	8.0516	39.236000	0.000738	7.375946	2.499038	0.058883
 204	1.0150e-01	8.0901	39.808700	0.001435	14.347731	4.861143	0.114540
 205	1.0200e-01	8.1319	40.127315	0.000798	7.982189	2.704439	0.063723
 206	1.0250e-01	8.1800	40.236208	0.000273	2.728090	0.924302	0.021779
 207	1.0300e-01	8.2105	40.437863	0.000505	5.052018	1.711670	0.040331
 208	1.0350e-01	8.2522	40.462062	0.000061	0.606242	0.205400	0.004840
 209	1.0400e-01	8.2907	40.736312	0.000687	6.870745	2.327871	0.054850
 210	1.0450e-01	8.3388	41.026696	0.000727	7.274906	2.464805	0.058077
 211	1.0500e-01	8.3693	41.325145	0.000748	7.476987	2.533272	0.059690
 212	1.0550e-01	8.4142	41.571164	0.000616	6.163462	2.088237	0.049204
 213	1.0600e-01	8.4623	41.764753	0.000485	4.849937	1.643203	0.038718
 214	1.0650e-01	8.5008	41.926077	0.000404	4.041614	1.369336	0.032265
 215	1.0700e-01	8.5297	42.268890	0.000859	8.588431	2.909839	0.068563
 216	1.0750e-01	8.5762	42.478611	0.000525	5.254099	1.780137	0.041944
 217	1.0800e-01	8.6115	42.773027	0.000738	7.375946	2.499038	0.058883
 218	1.0850e-01	8.6532	43.055344	0.000707	7.072825	2.396338	0.056463
 219	1.0900e-01	8.6949	43.220701	0.000414	4.142655	1.403569	0.033071
 220	1.0950e-01	8.7334	43.394124	0.000434	4.344736	1.472036	0.034685
 221	1.1000e-01	8.7671	43.708706	0.000788	7.881148	2.670205	0.062916
 222	1.1050e-01	8.8104	44.156380	0.001122	11.215480	3.799908	0.089535
 223	1.1100e-01	8.8506	44.345936	0.000475	4.748897	1.608970	0.037911
 224	1.1150e-01	8.8955	44.495160	0.000374	3.738493	1.266636	0.029845
 225	1.1200e-01	8.9227	44.664550	0.000424	4.243695	1.437803	0.033878
 226	1.1250e-01	8.9661	44.987198	0.000808	8.083229	2.738672	0.064530
 227	1.1300e-01	9.0126	45.414707	0.001071	10.710278	3.628741	0.085502
 228	1.1350e-01	9.0495	45.386475	-0.000071	-0.707283	-0.239634	-0.005646
 229	1.1400e-01	9.0880	45.717189	0.000829	8.285310	2.807139	0.066143
 230	1.1450e-01	9.1393	45.979341	0.000657	6.567624	2.225171	0.052430
 231	1.1500e-01	9.1682	46.197128	0.000546	5.456180	1.848604	0.043557
 232	1.1550e-01	9.2115	46.443147	0.000616	6.163462	2.088237	0.049204
 233	1.1600e-01	9.2596	46.842424	0.001000	10.002996	3.389107	0.079855
 234	1.1650e-01	9.2901	46.898887	0.000141	1.414565	0.479268	0.011293
 235	1.1700e-01	9.3398	47.116674	0.000546	5.456180	1.848604	0.043557
 236	1.1750e-01	9.3623	47.528050	0.001031	10.306117	3.491807	0.082275
 237	1.1800e-01	9.4185	47.649043	0.000303	3.031211	1.027002	0.024199
 238	1.1850e-01	9.4521	47.749871	0.000253	2.526009	0.855835	0.020165
 239	1.1900e-01	9.4971	48.124949	0.000940	9.396754	3.183706	0.075016
 240	1.1950e-01	9.5324	48.427431	0.000758	7.578027	2.567505	0.060496
 241	1.2000e-01	9.5773	48.475829	0.000121	1.212484	0.410801	0.009679
 242	1.2050e-01	9.6206	48.915436	0.001101	11.013399	3.731441	0.087922
 243	1.2100e-01	9.6527	49.008198	0.000232	2.323928	0.787368	0.018552
 244	1.2150e-01	9.6944	49.258250	0.000626	6.264502	2.122471	0.050010
 245	1.2200e-01	9.7281	49.641394	0.000960	9.598834	3.252173	0.076629
 246	1.2250e-01	9.7730	50.044704	0.001010	10.104036	3.423340	0.080662
 247	1.2300e-01	9.8163	50.113267	0.000172	1.717686	0.581968	0.013713
 248	1.2350e-01	9.8612	50.355253	0.000606	6.062422	2.054004	0.048397
 249	1.2400e-01	9.8821	50.617404	0.000657	6.567624	2.225171	0.052430
 250	1.2450e-01	9.9286	50.798893	0.000455	4.546816	1.540503	0.036298
 251	1.2500e-01	9.9671	51.032813	0.000586	5.860341	1.985537	0.046784
 252	1.2550e-01	10.0120	51.395792	0.000909	9.093633	3.081006	0.072596
 253	1.2600e-01	10.0441	51.601480	0.000515	5.153058	1.745903	0.041138
 254	1.2650e-01	10.0890	51.855565	0.000637	6.365543	2.156704	0.050817
 255	1.2700e-01	10.1243	52.238710	0.000960	9.598834	3.252173	0.076629
 256	1.2750e-01	10.1692	52.484729	0.000616	6.163462	2.088237	0.049204
 257	1.2800e-01	10.2077	52.650086	0.000414	4.142655	1.403569	0.033071
 258	1.2850e-01	10.2607	52.593622	-0.000141	-1.414565	-0.479268	-0.011293
 259	1.2900e-01	10.2912	52.746880	0.000384	3.839534	1.300869	0.030652
 260	1.2950e-01	10.3345	52.871906	0.000313	3.132251	1.061235	0.025005
 261	1.3000e-01	10.3746	53.210686	0.000849	8.487390	2.875606	0.067756
 262	1.3050e-01	10.4051	53.747089	0.001344	13.438368	4.553042	0.107280
 263	1.3100e-01	10.4548	54.130233	0.000960	9.598834	3.252173	0.076629
 264	1.3150e-01	10.4869	54.138299	0.000020	0.202081	0.068467	0.001613
 265	1.3200e-01	10.5302	54.388351	0.000626	6.264502	2.122471	0.050010
 266	1.3250e-01	10.5655	54.489179	0.000253	2.526009	0.855835	0.020165
 267	1.3300e-01	10.6104	54.888455	0.001000	10.002996	3.389107	0.079855
 268	1.3350e-01	10.6537	55.227236	0.000849	8.487390	2.875606	0.067756
 269	1.3400e-01	10.6922	55.412758	0.000465	4.647857	1.574736	0.037105
 270	1.3450e-01	10.7227	55.602314	0.000475	4.748897	1.608970	0.037911
 271	1.3500e-01	10.7804	55.908829	0.000768	7.679068	2.601738	0.061303
 272	1.3550e-01	10.8141	55.928995	0.000051	0.505202	0.171167	0.004033
 273	1.3600e-01	10.8591	56.114517	0.000465	4.647857	1.574736	0.037105
 274	1.3650e-01	10.8959	56.618655	0.001263	12.630045	4.279175	0.100827
 275	1.3700e-01	10.9264	57.034064	0.001041	10.407157	3.526040	0.083082
 276	1.3750e-01	10.9713	57.183289	0.000374	3.738493	1.266636	0.029845
 277	1.3800e-01	11.0066	57.316381	0.000333	3.334332	1.129702	0.026618
 278	1.3850e-01	11.0516	57.550301	0.000586	5.860341	1.985537	0.046784
 279	1.3900e-01	11.0852	57.901180	0.000879	8.790511	2.978306	0.070176
 280	1.3950e-01	11.1382	58.183497	0.000707	7.072825	2.396338	0.056463
 281	1.4000e-01	11.1703	58.308523	0.000313	3.132251	1.061235	0.025005
 282	1.4050e-01	11.2152	58.417417	0.000273	2.728090	0.924302	0.021779
 283	1.4100e-01	11.2441	58.788462	0.000930	9.295713	3.149473	0.074209
 284	1.4150e-01	11.2922	58.986084	0.000495	4.950978	1.677437	0.039524
 285	1.4200e-01	11.3307	59.236136	0.000626	6.264502	2.122471	0.050010
 286	1.4250e-01	11.3708	59.538618	0.000758	7.578027	2.567505	0.060496
 287	1.4300e-01	11.4157	59.764472	0.000566	5.658260	1.917070	0.045171
 288	1.4350e-01	11.4574	59.849167	0.000212	2.121848	0.718901	0.016939
 289	1.4400e-01	11.4863	60.187947	0.000849	8.487390	2.875606	0.067756
 290	1.4450e-01	11.5296	60.361370	0.000434	4.344736	1.472036	0.034685
 291	1.4500e-01	11.5665	60.546893	0.000465	4.647857	1.574736	0.037105
 292	1.4550e-01	11.6050	61.087328	0.001354	13.539408	4.587276	0.108087
 293	1.4600e-01	11.6499	61.196222	0.000273	2.728090	0.924302	0.021779
 294	1.4650e-01	11.6965	61.236553	0.000101	1.010404	0.342334	0.008066
 295	1.4700e-01	11.7318	61.434174	0.000495	4.950978	1.677437	0.039524
 296	1.4750e-01	11.7622	61.813286	0.000950	9.497794	3.217940	0.075822
 297	1.4800e-01	11.8023	62.224662	0.001031	10.306117	3.491807	0.082275
 298	1.4850e-01	11.8521	62.385986	0.000404	4.041614	1.369336	0.032265
 299	1.4900e-01	11.8906	62.547310	0.000404	4.041614	1.369336	0.032265
 300	1.4950e-01	11.9291	62.817527	0.000677	6.769704	2.293638	0.054044
 301	1.5000e-01	11.9756	62.914322	0.000242	2.424969	0.821602	0.019359
 302	1.5050e-01	12.0077	63.176473	0.000657	6.567624	2.225171	0.052430
 303	1.5100e-01	12.0510	63.418459	0.000606	6.062422	2.054004	0.048397
 304	1.5150e-01	12.0895	63.692710	0.000687	6.870745	2.327871	0.054850
 305	1.5200e-01	12.1296	63.898398	0.000515	5.153058	1.745903	0.041138
 306	1.5250e-01	12.1665	64.132317	0.000586	5.860341	1.985537	0.046784
 307	1.5300e-01	12.2146	64.446899	0.000788	7.881148	2.670205	0.062916
 308	1.5350e-01	12.2483	64.688885	0.000606	6.062422	2.054004	0.048397
 309	1.5400e-01	12.2932	64.878441	0.000475	4.748897	1.608970	0.037911
 310	1.5450e-01	12.3333	64.874408	-0.000010	-0.101040	-0.034233	-0.000807
 311	1.5500e-01	12.3670	65.418876	0.001364	13.640449	4.621509	0.108894
 312	1.5550e-01	12.4103	65.539869	0.000303	3.031211	1.027002	0.024199
 313	1.5600e-01	12.4569	65.697160	0.000394	3.940574	1.335103	0.031458
 314	1.5650e-01	12.4970	65.959311	0.000657	6.567624	2.225171	0.052430
 315	1.5700e-01	12.5387	66.136767	0.000445	4.445776	1.506270	0.035491
 316	1.5750e-01	12.5660	66.523945	0.000970	9.699875	3.286407	0.077435
 317	1.5800e-01	12.6221	66.725600	0.000505	5.052018	1.711670	0.040331
 318	1.5850e-01	12.6574	66.523945	-0.000505	-5.052018	-1.711670	-0.040331
 319	1.5900e-01	12.6991	66.923222	0.001000	10.002996	3.389107	0.079855
 320	1.5950e-01	12.7376	67.314432	0.000980	9.800915	3.320640	0.078242
 321	1.6000e-01	12.7649	67.786305	0.001182	11.821722	4.005308	0.094375
 322	1.6050e-01	12.8018	68.040390	0.000637	6.365543	2.156704	0.050817
 323	1.6100e-01	12.8515	68.004092	-0.000091	-0.909363	-0.308101	-0.007260
 324	1.6150e-01	12.8916	68.484031	0.001202	12.023803	4.073775	0.095988
 325	1.6200e-01	12.9253	68.536461	0.000131	1.313525	0.445034	0.010486
 326	1.6250e-01	12.9702	68.681653	0.000364	3.637453	1.232402	0.029038
 327	1.6300e-01	13.0103	68.778447	0.000242	2.424969	0.821602	0.019359
 328	1.6350e-01	13.0504	69.270485	0.001233	12.326924	4.176475	0.098408
 329	1.6400e-01	13.0937	69.355180	0.000212	2.121848	0.718901	0.016939
 330	1.6450e-01	13.1322	69.512471	0.000394	3.940574	1.335103	0.031458
 331	1.6500e-01	13.1691	69.754457	0.000606	6.062422	2.054004	0.048397
 332	1.6550e-01	13.2157	70.004509	0.000626	6.264502	2.122471	0.050010
 333	1.6600e-01	13.2445	70.270693	0.000667	6.668664	2.259404	0.053237
 334	1.6650e-01	13.2847	70.553010	0.000707	7.072825	2.396338	0.056463
 335	1.6700e-01	13.3248	70.734500	0.000455	4.546816	1.540503	0.036298
 336	1.6750e-01	13.3681	71.012784	0.000697	6.971785	2.362105	0.055657
 337	1.6800e-01	13.4082	71.214439	0.000505	5.052018	1.711670	0.040331
 338	1.6850e-01	13.4515	71.464491	0.000626	6.264502	2.122471	0.050010
 339	1.6900e-01	13.4820	71.722609	0.000647	6.466583	2.190938	0.051624
 340	1.6950e-01	13.5221	71.912165	0.000475	4.748897	1.608970	0.037911
 341	1.7000e-01	13.5686	72.416302	0.001263	12.630045	4.279175	0.100827
 342	1.7050e-01	13.6087	72.424368	0.000020	0.202081	0.068467	0.001613
 343	1.7100e-01	13.6408	72.448567	0.000061	0.606242	0.205400	0.004840
 344	1.7150e-01	13.6873	72.847844	0.001000	10.002996	3.389107	0.079855
 345	1.7200e-01	13.7306	72.984969	0.000344	3.435372	1.163936	0.027425
 346	1.7250e-01	13.7659	73.085796	0.000253	2.526009	0.855835	0.020165
 347	1.7300e-01	13.8076	73.485073	0.001000	10.002996	3.389107	0.079855
 348	1.7350e-01	13.8574	73.690761	0.000515	5.153058	1.745903	0.041138
 349	1.7400e-01	13.8846	73.940813	0.000626	6.264502	2.122471	0.050010
 350	1.7450e-01	13.9392	74.206998	0.000667	6.668664	2.259404	0.053237
 351	1.7500e-01	13.9697	74.372355	0.000414	4.142655	1.403569	0.033071
 352	1.7550e-01	14.0001	74.525613	0.000384	3.839534	1.300869	0.030652
 353	1.7600e-01	14.0483	74.715168	0.000475	4.748897	1.608970	0.037911
 354	1.7650e-01	14.0804	75.045882	0.000829	8.285310	2.807139	0.066143
 355	1.7700e-01	14.1269	75.501622	0.001142	11.417561	3.868374	0.091148
 356	1.7750e-01	14.1718	75.533887	0.000081	0.808323	0.273867	0.006453
 357	1.7800e-01	14.2103	75.626648	0.000232	2.323928	0.787368	0.018552
 358	1.7850e-01	14.2440	76.138852	0.001283	12.832126	4.347642	0.102441
 359	1.7900e-01	14.2873	76.275977	0.000344	3.435372	1.163936	0.027425
 360	1.7950e-01	14.3338	76.409070	0.000333	3.334332	1.129702	0.026618
 361	1.8000e-01	14.3675	76.796247	0.000970	9.699875	3.286407	0.077435
 362	1.8050e-01	14.4092	76.832545	0.000091	0.909363	0.308101	0.007260
 363	1.8100e-01	14.4557	76.961604	0.000323	3.233292	1.095469	0.025812
 364	1.8150e-01	14.4894	77.344748	0.000960	9.598834	3.252173	0.076629
 365	1.8200e-01	14.5343	77.590767	0.000616	6.163462	2.088237	0.049204
 366	1.8250e-01	14.5616	77.885184	0.000738	7.375946	2.499038	0.058883
 367	1.8300e-01	14.6065	77.998110	0.000283	2.829130	0.958535	0.022585
 368	1.8350e-01	14.6466	78.203798	0.000515	5.153058	1.745903	0.041138
 369	1.8400e-01	14.6819	78.409486	0.000515	5.153058	1.745903	0.041138
 370	1.8450e-01	14.7285	78.796664	0.000970	9.699875	3.286407	0.077435
 371	1.8500e-01	14.7654	78.990253	0.000485	4.849937	1.643203	0.038718
 372	1.8550e-01	14.8167	79.099146	0.000273	2.728090	0.924302	0.021779
 373	1.8600e-01	14.8440	79.224172	0.000313	3.132251	1.061235	0.025005
 374	1.8650e-01	14.8793	79.683946	0.001152	11.518601	3.902608	0.091955
 375	1.8700e-01	14.9274	79.954163	0.000677	6.769704	2.293638	0.054044
 376	1.8750e-01	14.9643	80.216315	0.000657	6.567624	2.225171	0.052430
 377	1.8800e-01	15.0076	80.345374	0.000323	3.233292	1.095469	0.025812
 378	1.8850e-01	15.0413	80.466367	0.000303	3.031211	1.027002	0.024199
 379	1.8900e-01	15.0830	80.555095	0.000222	2.222888	0.753135	0.017746
 380	1.8950e-01	15.1391	80.797081	0.000606	6.062422	2.054004	0.048397
 381	1.9000e-01	15.1680	81.156027	0.000899	8.992592	3.046773	0.071789
 382	1.9050e-01	15.2065	81.438344	0.000707	7.072825	2.396338	0.056463
 383	1.9100e-01	15.2402	81.615800	0.000445	4.445776	1.506270	0.035491
 384	1.9150e-01	15.2932	81.728727	0.000283	2.829130	0.958535	0.022585
 385	1.9200e-01	15.3268	81.954580	0.000566	5.658260	1.917070	0.045171
 386	1.9250e-01	15.3718	82.329658	0.000940	9.396754	3.183706	0.075016
 387	1.9300e-01	15.4151	82.716836	0.000970	9.699875	3.286407	0.077435
 388	1.9350e-01	15.4504	82.704736	-0.000030	-0.303121	-0.102700	-0.002420
 389	1.9400e-01	15.4921	82.894292	0.000475	4.748897	1.608970	0.037911
 390	1.9450e-01	15.5290	83.015285	0.000303	3.031211	1.027002	0.024199
 391	1.9500e-01	15.5675	83.394396	0.000950	9.497794	3.217940	0.075822
 392	1.9550e-01	15.6140	83.499257	0.000263	2.627049	0.890068	0.020972
 393	1.9600e-01	15.6589	83.704945	0.000515	5.153058	1.745903	0.041138
 394	1.9650e-01	15.6846	83.950964	0.000616	6.163462	2.088237	0.049204
 395	1.9700e-01	15.7215	84.451068	0.001253	12.529005	4.244942	0.100021
 396	1.9750e-01	15.7680	84.604326	0.000384	3.839534	1.300869	0.030652
 397	1.9800e-01	15.8049	84.652723	0.000121	1.212484	0.410801	0.009679
 398	1.9850e-01	15.8546	84.838246	0.000465	4.647857	1.574736	0.037105
 399	1.9900e-01	15.8915	85.023768	0.000465	4.647857	1.574736	0.037105
 400	1.9950e-01	15.9316	85.104430	0.000202	2.020807	0.684668	0.016132
 401	2.0000e-01	15.9717	85.527906	0.001061	10.609238	3.594507	0.084695
 402	2.0050e-01	16.0263	85.794090	0.000667	6.668664	2.259404	0.053237
 403	2.0100e-01	16.0455	86.019944	0.000566	5.658260	1.917070	0.045171
 404	2.0150e-01	16.0872	86.302260	0.000707	7.072825	2.396338	0.056463
 405	2.0200e-01	16.1209	86.451485	0.000374	3.738493	1.266636	0.029845
 406	2.0250e-01	16.1659	86.596677	0.000364	3.637453	1.232402	0.029038
 407	2.0300e-01	16.2076	86.834629	0.000596	5.961381	2.019771	0.047591
 408	2.0350e-01	16.2525	86.899159	0.000162	1.616646	0.547734	0.012906
 409	2.0400e-01	16.2974	87.221807	0.000808	8.083229	2.738672	0.064530
 410	2.0450e-01	16.3295	87.451694	0.000576	5.759301	1.951304	0.045977
 411	2.0500e-01	16.3728	87.734010	0.000707	7.072825	2.396338	0.056463
 412	2.0550e-01	16.4033	88.056658	0.000808	8.083229	2.738672	0.064530
 413	2.0600e-01	16.4482	88.157486	0.000253	2.526009	0.855835	0.020165
 414	2.0650e-01	16.4947	88.165552	0.000020	0.202081	0.068467	0.001613
 415	2.0700e-01	16.5316	88.637425	0.001182	11.821722	4.005308	0.094375
 416	2.0750e-01	16.5669	88.786649	0.000374	3.738493	1.266636	0.029845
 417	2.0800e-01	16.6134	89.056867	0.000677	6.769704	2.293638	0.054044
 418	2.0850e-01	16.6503	89.274654	0.000546	5.456180	1.848604	0.043557
 419	2.0900e-01	16.6920	89.399680	0.000313	3.132251	1.061235	0.025005
 420	2.0950e-01	16.7402	89.621501	0.000556	5.557220	1.882837	0.044364
 421	2.1000e-01	16.7771	89.827189	0.000515	5.153058	1.745903	0.041138
 422	2.1050e-01	16.8220	90.028844	0.000505	5.052018	1.711670	0.040331
 423	2.1100e-01	16.8477	90.226465	0.000495	4.950978	1.677437	0.039524
 424	2.1150e-01	16.8958	90.609610	0.000960	9.598834	3.252173	0.076629
 425	2.1200e-01	16.9295	90.863695	0.000637	6.365543	2.156704	0.050817
 426	2.1250e-01	16.9744	91.041151	0.000445	4.445776	1.506270	0.035491
 427	2.1300e-01	17.0065	91.226674	0.000465	4.647857	1.574736	0.037105
 428	2.1350e-01	17.0514	91.383965	0.000394	3.940574	1.335103	0.031458
 429	2.1400e-01	17.0931	91.658215	0.000687	6.870745	2.327871	0.054850
 430	2.1450e-01	17.1412	91.730811	0.000182	1.818727	0.616201	0.014519
 431	2.1500e-01	17.1701	91.940532	0.000525	5.254099	1.780137	0.041944
 432	2.1550e-01	17.2118	92.154287	0.000536	5.355139	1.814370	0.042751
 433	2.1600e-01	17.2503	92.359975	0.000515	5.153058	1.745903	0.041138
 434	2.1650e-01	17.2904	92.448703	0.000222	2.222888	0.753135	0.017746
 435	2.1700e-01	17.3257	92.823781	0.000940	9.396754	3.183706	0.075016
 436	2.1750e-01	17.3674	93.033502	0.000525	5.254099	1.780137	0.041944
 437	2.1800e-01	17.4043	93.440845	0.001021	10.205077	3.457574	0.081469
 438	2.1850e-01	17.4524	93.537639	0.000242	2.424969	0.821602	0.019359
 439	2.1900e-01	17.4958	93.888519	0.000879	8.790511	2.978306	0.070176
 440	2.1950e-01	17.5375	94.102273	0.000536	5.355139	1.814370	0.042751
 441	2.2000e-01	17.5615	94.195034	0.000232	2.323928	0.787368	0.018552
 442	2.2050e-01	17.6065	94.416855	0.000556	5.557220	1.882837	0.044364
 443	2.2100e-01	17.6466	94.481384	0.000162	1.616646	0.547734	0.012906
 444	2.2150e-01	17.6995	94.594311	0.000283	2.829130	0.958535	0.022585
 445	2.2200e-01	17.7300	94.937125	0.000859	8.588431	2.909839	0.068563
 446	2.2250e-01	17.7653	95.074250	0.000344	3.435372	1.163936	0.027425
 447	2.2300e-01	17.8086	95.400931	0.000818	8.184269	2.772906	0.065336
 448	2.2350e-01	17.8519	95.558222	0.000394	3.940574	1.335103	0.031458
 449	2.2400e-01	17.8968	95.913134	0.000889	8.891552	3.012539	0.070983
 450	2.2450e-01	17.9401	96.050260	0.000344	3.435372	1.163936	0.027425
 451	2.2500e-01	17.9786	96.223683	0.000434	4.344736	1.472036	0.034685
 452	2.2550e-01	18.0155	96.425338	0.000505	5.052018	1.711670	0.040331
 453	2.2600e-01	18.0605	96.703622	0.000697	6.971785	2.362105	0.055657
 454	2.2650e-01	18.0941	97.078700	0.000940	9.396754	3.183706	0.075016
 455	2.2700e-01	18.1359	97.058534	-0.000051	-0.505202	-0.171167	-0.004033
 456	2.2750e-01	18.1776	97.240024	0.000455	4.546816	1.540503	0.036298
 457	2.2800e-01	18.2096	97.510241	0.000677	6.769704	2.293638	0.054044
 458	2.2850e-01	18.2514	97.711896	0.000505	5.052018	1.711670	0.040331
 459	2.2900e-01	18.3011	97.881287	0.000424	4.243695	1.437803	0.033878
 460	2.2950e-01	18.3316	98.466086	0.001465	14.650852	4.963843	0.116960
 461	2.3000e-01	18.3701	98.675807	0.000525	5.254099	1.780137	0.041944
 462	2.3050e-01	18.4214	98.675807	0.000000	0.000000	0.000000	0.000000
 463	2.3100e-01	18.4535	98.909727	0.000586	5.860341	1.985537	0.046784
 464	2.3150e-01	18.4920	99.143646	0.000586	5.860341	1.985537	0.046784
 465	2.3200e-01	18.5369	99.248507	0.000263	2.627049	0.890068	0.020972
 466	2.3250e-01	18.5754	99.333202	0.000212	2.121848	0.718901	0.016939
 467	2.3300e-01	18.6107	99.748611	0.001041	10.407157	3.526040	0.083082
 468	2.3350e-01	18.6540	99.966399	0.000546	5.456180	1.848604	0.043557
 469	2.3400e-01	18.6941	100.139822	0.000434	4.344736	1.472036	0.034685
 470	2.3450e-01	18.7326	100.422139	0.000707	7.072825	2.396338	0.056463
 471	2.3500e-01	18.7727	100.555231	0.000333	3.334332	1.129702	0.026618
 472	2.3550e-01	18.8128	100.692356	0.000344	3.435372	1.163936	0.027425
 473	2.3600e-01	18.8465	100.962574	0.000677	6.769704	2.293638	0.054044
 474	2.3650e-01	18.8930	101.071468	0.000273	2.728090	0.924302	0.021779
 475	2.3700e-01	18.9348	101.240858	0.000424	4.243695	1.437803	0.033878
 476	2.3750e-01	18.9813	101.474777	0.000586	5.860341	1.985537	0.046784
 477	2.3800e-01	19.0150	101.680465	0.000515	5.153058	1.745903	0.041138
 478	2.3850e-01	19.0471	101.902286	0.000556	5.557220	1.882837	0.044364
 479	2.3900e-01	19.0872	102.301563	0.001000	10.002996	3.389107	0.079855
 480	2.3950e-01	19.1289	102.511284	0.000525	5.254099	1.780137	0.041944
 481	2.4000e-01	19.1722	102.426589	-0.000212	-2.121848	-0.718901	-0.016939
 482	2.4050e-01	19.2139	102.761336	0.000839	8.386350	2.841372	0.066949
 483	2.4100e-01	19.2556	102.862163	0.000253	2.526009	0.855835	0.020165
 484	2.4150e-01	19.2989	103.253374	0.000980	9.800915	3.320640	0.078242
 485	2.4200e-01	19.3278	103.531658	0.000697	6.971785	2.362105	0.055657
 486	2.4250e-01	19.3711	104.059994	0.001324	13.236287	4.484576	0.105667
 487	2.4300e-01	19.4160	103.922868	-0.000344	-3.435372	-1.163936	-0.027425
 488	2.4350e-01	19.4417	104.217284	0.000738	7.375946	2.499038	0.058883
 489	2.4400e-01	19.4882	104.354410	0.000344	3.435372	1.163936	0.027425
 490	2.4450e-01	19.5299	104.406840	0.000131	1.313525	0.445034	0.010486
 491	2.4500e-01	19.5732	104.439105	0.000081	0.808323	0.273867	0.006453
 492	2.4550e-01	19.6214	104.999706	0.001404	14.044610	4.758443	0.112120
 493	2.4600e-01	19.6486	105.116665	0.000293	2.930170	0.992769	0.023392
 494	2.4650e-01	19.6871	105.366718	0.000626	6.264502	2.122471	0.050010
 495	2.4700e-01	19.7273	105.499810	0.000333	3.334332	1.129702	0.026618
 496	2.4750e-01	19.7625	105.681299	0.000455	4.546816	1.540503	0.036298
 497	2.4800e-01	19.8203	106.016046	0.000839	8.386350	2.841372	0.066949
 498	2.4850e-01	19.8476	106.169304	0.000384	3.839534	1.300869	0.030652
 499	2.4900e-01	19.8861	106.141072	-0.000071	-0.707283	-0.239634	-0.005646
 500	2.4950e-01	19.9326	106.399191	0.000647	6.466583	2.190938	0.051624
 501	2.5000e-01	19.9647	106.786368	0.000970	9.699875	3.286407	0.077435
 502	2.5050e-01	19.9759	106.693607	-0.000232	-2.323928	-0.787368	-0.018552
 503	2.5100e-01	19.9551	106.608912	0.000212	2.121848	0.718901	-0.016939
 504	2.5150e-01	19.9166	106.451621	0.000394	3.940574	1.335103	-0.031458
 505	2.5200e-01	19.8764	106.294330	0.000394	3.940574	1.335103	-0.031458
 506	2.5250e-01	19.8363	106.161238	0.000333	3.334332	1.129702	-0.026618
 507	2.5300e-01	19.7994	106.068477	0.000232	2.323928	0.787368	-0.018552
 508	2.5350e-01	19.7641	105.830524	0.000596	5.961381	2.019771	-0.047591
 509	2.5400e-01	19.7128	105.689365	0.000354	3.536413	1.198169	-0.028232
 510	2.5450e-01	19.6759	105.713564	-0.000061	-0.606242	-0.205400	0.004840
 511	2.5500e-01	19.6358	105.439313	0.000687	6.870745	2.327871	-0.054850
 512	2.5550e-01	19.5909	105.161030	0.000697	6.971785	2.362105	-0.055657
 513	2.5600e-01	19.5508	105.052136	0.000273	2.728090	0.924302	-0.021779
 514	2.5650e-01	19.5203	104.995672	0.000141	1.414565	0.479268	-0.011293
 515	2.5700e-01	19.4658	104.753687	0.000606	6.062422	2.054004	-0.048397
 516	2.5750e-01	19.4353	104.535899	0.000546	5.456180	1.848604	-0.043557
 517	2.5800e-01	19.3855	104.031762	0.001263	12.630045	4.279175	-0.100827
 518	2.5850e-01	19.3503	104.007563	0.000061	0.606242	0.205400	-0.004840
 519	2.5900e-01	19.3150	104.059994	-0.000131	-1.313525	-0.445034	0.010486
 520	2.5950e-01	19.2749	103.894637	0.000414	4.142655	1.403569	-0.033071
 521	2.6000e-01	19.2380	103.515525	0.000950	9.497794	3.217940	-0.075822
 522	2.6050e-01	19.2043	103.398565	0.000293	2.930170	0.992769	-0.023392
 523	2.6100e-01	19.1513	103.180778	0.000546	5.456180	1.848604	-0.043557
 524	2.6150e-01	19.1064	103.047686	0.000333	3.334332	1.129702	-0.026618
 525	2.6200e-01	19.0807	102.862163	0.000465	4.647857	1.574736	-0.037105
 526	2.6250e-01	19.0294	102.729071	0.000333	3.334332	1.129702	-0.026618
 527	2.6300e-01	19.0021	102.458853	0.000677	6.769704	2.293638	-0.054044
 528	2.6350e-01	18.9588	102.450787	0.000020	0.202081	0.068467	-0.001613
 529	2.6400e-01	18.9203	102.168470	0.000707	7.072825	2.396338	-0.056463
 530	2.6450e-01	18.8818	102.087808	0.000202	2.020807	0.684668	-0.016132
 531	2.6500e-01	18.8289	101.813558	0.000687	6.870745	2.327871	-0.054850
 532	2.6550e-01	18.8016	101.644168	0.000424	4.243695	1.437803	-0.033878
 533	2.6600e-01	18.7551	101.692565	-0.000121	-1.212484	-0.410801	0.009679
 534	2.6650e-01	18.7134	101.434446	0.000647	6.466583	2.190938	-0.051624
 535	2.6700e-01	18.6781	101.236825	0.000495	4.950978	1.677437	-0.039524
 536	2.6750e-01	18.6412	100.994839	0.000606	6.062422	2.054004	-0.048397
 537	2.6800e-01	18.5947	100.805283	0.000475	4.748897	1.608970	-0.037911
 538	2.6850e-01	18.5530	100.575396	0.000576	5.759301	1.951304	-0.045977
 539	2.6900e-01	18.5209	100.361642	0.000536	5.355139	1.814370	-0.042751
 540	2.6950e-01	18.4759	100.047060	0.000788	7.881148	2.670205	-0.062916
 541	2.7000e-01	18.4407	99.938167	0.000273	2.728090	0.924302	-0.021779
 542	2.7050e-01	18.4022	99.728446	0.000525	5.254099	1.780137	-0.041944
 543	2.7100e-01	18.3685	99.409831	0.000798	7.982189	2.704439	-0.063723
 544	2.7150e-01	18.3203	99.498559	-0.000222	-2.222888	-0.753135	0.017746
 545	2.7200e-01	18.2786	99.462261	0.000091	0.909363	0.308101	-0.007260
 546	2.7250e-01	18.2369	99.288838	0.000434	4.344736	1.472036	-0.034685
 547	2.7300e-01	18.1920	99.115415	0.000434	4.344736	1.472036	-0.034685
 548	2.7350e-01	18.1567	98.853263	0.000657	6.567624	2.225171	-0.052430
 549	2.7400e-01	18.1134	98.514483	0.000849	8.487390	2.875606	-0.067756
 550	2.7450e-01	18.0813	98.256365	0.000647	6.466583	2.190938	-0.051624
 551	2.7500e-01	18.0332	98.216034	0.000101	1.010404	0.342334	-0.008066
 552	2.7550e-01	17.9979	98.111173	0.000263	2.627049	0.890068	-0.020972
 553	2.7600e-01	17.9594	97.699797	0.001031	10.306117	3.491807	-0.082275
 554	2.7650e-01	17.9161	97.667532	0.000081	0.808323	0.273867	-0.006453
 555	2.7700e-01	17.8776	97.518308	0.000374	3.738493	1.266636	-0.029845
 556	2.7750e-01	17.8343	97.252123	0.000667	6.668664	2.259404	-0.053237
 557	2.7800e-01	17.7909	97.018203	0.000586	5.860341	1.985537	-0.046784
 558	2.7850e-01	17.7556	96.772184	0.000616	6.163462	2.088237	-0.049204
 559	2.7900e-01	17.7155	96.780251	-0.000020	-0.202081	-0.068467	0.001613
 560	2.7950e-01	17.6754	96.562463	0.000546	5.456180	1.848604	-0.043557
 561	2.8000e-01	17.6353	96.336610	0.000566	5.658260	1.917070	-0.045171
 562	2.8050e-01	17.5952	95.997829	0.000849	8.487390	2.875606	-0.067756
 563	2.8100e-01	17.5567	95.901035	0.000242	2.424969	0.821602	-0.019359
 564	2.8150e-01	17.5150	95.767943	0.000333	3.334332	1.129702	-0.026618
 565	2.8200e-01	17.4845	95.441262	0.000818	8.184269	2.772906	-0.065336
 566	2.8250e-01	17.4332	95.336401	0.000263	2.627049	0.890068	-0.020972
 567	2.8300e-01	17.4011	95.134746	0.000505	5.052018	1.711670	-0.040331
 568	2.8350e-01	17.3530	94.929058	0.000515	5.153058	1.745903	-0.041138
 569	2.8400e-01	17.3097	94.727403	0.000505	5.052018	1.711670	-0.040331
 570	2.8450e-01	17.2696	94.558013	0.000424	4.243695	1.437803	-0.033878
 571	2.8500e-01	17.2311	94.412822	0.000364	3.637453	1.232402	-0.029038
 572	2.8550e-01	17.1990	94.307961	0.000263	2.627049	0.890068	-0.020972
 573	2.8600e-01	17.1492	94.110339	0.000495	4.950978	1.677437	-0.039524
 574	2.8650e-01	17.1124	93.690897	0.001051	10.508198	3.560274	-0.083888
 575	2.8700e-01	17.0771	93.638467	0.000131	1.313525	0.445034	-0.010486
 576	2.8750e-01	17.0321	93.440845	0.000495	4.950978	1.677437	-0.039524
 577	2.8800e-01	16.9968	93.392448	0.000121	1.212484	0.410801	-0.009679
 578	2.8850e-01	16.9439	93.251289	0.000354	3.536413	1.198169	-0.028232
 579	2.8900e-01	16.9150	93.001237	0.000626	6.264502	2.122471	-0.050010
 580	2.8950e-01	16.8765	92.650358	0.000879	8.790511	2.978306	-0.070176
 581	2.9000e-01	16.8364	92.597927	0.000131	1.313525	0.445034	-0.010486
 582	2.9050e-01	16.8011	92.238982	0.000899	8.992592	3.046773	-0.071789
 583	2.9100e-01	16.7594	92.069591	0.000424	4.243695	1.437803	-0.033878
 584	2.9150e-01	16.7161	91.855837	0.000536	5.355139	1.814370	-0.042751
 585	2.9200e-01	16.6744	91.867937	-0.000030	-0.303121	-0.102700	0.002420
 586	2.9250e-01	16.6391	91.601752	0.000667	6.668664	2.259404	-0.053237
 587	2.9300e-01	16.5974	91.513024	0.000222	2.222888	0.753135	-0.017746
 588	2.9350e-01	16.5493	91.089548	0.001061	10.609238	3.594507	-0.084695
 589	2.9400e-01	16.5188	91.166177	-0.000192	-1.919767	-0.650435	0.015326
 590	2.9450e-01	16.4739	90.875794	0.000727	7.274906	2.464805	-0.058077
 591	2.9500e-01	16.4338	90.516848	0.000899	8.992592	3.046773	-0.071789
 592	2.9550e-01	16.3969	90.262763	0.000637	6.365543	2.156704	-0.050817
 593	2.9600e-01	16.3632	90.109506	0.000384	3.839534	1.300869	-0.030652
 594	2.9650e-01	16.3199	90.061108	0.000121	1.212484	0.410801	-0.009679
 595	2.9700e-01	16.2782	89.851387	0.000525	5.254099	1.780137	-0.041944
 596	2.9750e-01	16.2396	89.633600	0.000546	5.456180	1.848604	-0.043557
 597	2.9800e-01	16.1931	89.419846	0.000536	5.355139	1.814370	-0.042751
 598	2.9850e-01	16.1594	89.185926	0.000586	5.860341	1.985537	-0.046784
 599	2.9900e-01	16.1113	88.915708	0.000677	6.769704	2.293638	-0.054044
 600	2.9950e-01	16.0792	88.867311	0.000121	1.212484	0.410801	-0.009679
 601	3.0000e-01	16.0359	88.863278	0.000010	0.101040	0.034233	-0.000807
 602	3.0050e-01	15.9926	88.492233	0.000930	9.295713	3.149473	-0.074209
 603	3.0100e-01	15.9605	88.294611	0.000495	4.950978	1.677437	-0.039524
 604	3.0150e-01	15.9156	88.181684	0.000283	2.829130	0.958535	-0.022585
 605	3.0200e-01	15.8739	87.810639	0.000930	9.295713	3.149473	-0.074209
 606	3.0250e-01	15.8322	87.540422	0.000677	6.769704	2.293638	-0.054044
 607	3.0300e-01	15.7969	87.314568	0.000566	5.658260	1.917070	-0.045171
 608	3.0350e-01	15.7584	87.282303	0.000081	0.808323	0.273867	-0.006453
 609	3.0400e-01	15.7151	87.185509	0.000242	2.424969	0.821602	-0.019359
 610	3.0450e-01	15.6685	86.858828	0.000818	8.184269	2.772906	-0.065336
 611	3.0500e-01	15.6397	86.653140	0.000515	5.153058	1.745903	-0.041138
 612	3.0550e-01	15.5931	86.346625	0.000768	7.679068	2.601738	-0.061303
 613	3.0600e-01	15.5562	86.253863	0.000232	2.323928	0.787368	-0.018552
 614	3.0650e-01	15.5081	85.919116	0.000839	8.386350	2.841372	-0.066949
 615	3.0700e-01	15.4792	85.564203	0.000889	8.891552	3.012539	-0.070983
 616	3.0750e-01	15.4359	85.588402	-0.000061	-0.606242	-0.205400	0.004840
 617	3.0800e-01	15.3958	85.382714	0.000515	5.153058	1.745903	-0.041138
 618	3.0850e-01	15.3429	85.233489	0.000374	3.738493	1.266636	-0.029845
 619	3.0900e-01	15.3140	84.926974	0.000768	7.679068	2.601738	-0.061303
 620	3.0950e-01	15.2803	84.737418	0.000475	4.748897	1.608970	-0.037911
 621	3.1000e-01	15.2370	84.644657	0.000232	2.323928	0.787368	-0.018552
 622	3.1050e-01	15.1921	84.471234	0.000434	4.344736	1.472036	-0.034685
 623	3.1100e-01	15.1568	84.394605	0.000192	1.919767	0.650435	-0.015326
 624	3.1150e-01	15.1119	84.140520	0.000637	6.365543	2.156704	-0.050817
 625	3.1200e-01	15.0782	83.749309	0.000980	9.800915	3.320640	-0.078242
 626	3.1250e-01	15.0429	83.684779	0.000162	1.616646	0.547734	-0.012906
 627	3.1300e-01	14.9916	83.366165	0.000798	7.982189	2.704439	-0.063723
 628	3.1350e-01	14.9531	83.325834	0.000101	1.010404	0.342334	-0.008066
 629	3.1400e-01	14.9178	82.962855	0.000909	9.093633	3.081006	-0.072596
 630	3.1450e-01	14.8696	82.954789	0.000020	0.202081	0.068467	-0.001613
 631	3.1500e-01	14.8424	82.571644	0.000960	9.598834	3.252173	-0.076629
 632	3.1550e-01	14.7958	82.337725	0.000586	5.860341	1.985537	-0.046784
 633	3.1600e-01	14.7573	82.111871	0.000566	5.658260	1.917070	-0.045171
 634	3.1650e-01	14.7156	81.958613	0.000384	3.839534	1.300869	-0.030652
 635	3.1700e-01	14.6723	81.998944	-0.000101	-1.010404	-0.342334	0.008066
 636	3.1750e-01	14.6354	81.797289	0.000505	5.052018	1.711670	-0.040331
 637	3.1800e-01	14.5905	81.458509	0.000849	8.487390	2.875606	-0.067756
 638	3.1850e-01	14.5520	81.248788	0.000525	5.254099	1.780137	-0.041944
 639	3.1900e-01	14.5183	81.047133	0.000505	5.052018	1.711670	-0.040331
 640	3.1950e-01	14.4734	80.817246	0.000576	5.759301	1.951304	-0.045977
 641	3.2000e-01	14.4333	80.595426	0.000556	5.557220	1.882837	-0.044364
 642	3.2050e-01	14.4028	80.510731	0.000212	2.121848	0.718901	-0.016939
 643	3.2100e-01	14.3499	80.180017	0.000829	8.285310	2.807139	-0.066143
 644	3.2150e-01	14.3114	79.970296	0.000525	5.254099	1.780137	-0.041944
 645	3.2200e-01	14.2793	79.704111	0.000667	6.668664	2.259404	-0.053237
 646	3.2250e-01	14.2392	79.595217	0.000273	2.728090	0.924302	-0.021779
 647	3.2300e-01	14.2007	79.522622	0.000182	1.818727	0.616201	-0.014519
 648	3.2350e-01	14.1493	79.248371	0.000687	6.870745	2.327871	-0.054850
 649	3.2400e-01	14.1156	79.002352	0.000616	6.163462	2.088237	-0.049204
 650	3.2450e-01	14.0739	78.707936	0.000738	7.375946	2.499038	-0.058883
 651	3.2500e-01	14.0386	78.530479	0.000445	4.445776	1.506270	-0.035491
 652	3.2550e-01	13.9969	78.219931	0.000778	7.780108	2.635972	-0.062110
 653	3.2600e-01	13.9536	77.937614	0.000707	7.072825	2.396338	-0.056463
 654	3.2650e-01	13.9087	77.877117	0.000152	1.515605	0.513501	-0.012099
 655	3.2700e-01	13.8798	77.679496	0.000495	4.950978	1.677437	-0.039524
 656	3.2750e-01	13.8365	77.614966	0.000162	1.616646	0.547734	-0.012906
 657	3.2800e-01	13.7884	77.316517	0.000748	7.476987	2.533272	-0.059690
 658	3.2850e-01	13.7595	77.062432	0.000637	6.365543	2.156704	-0.050817
 659	3.2900e-01	13.7226	76.876909	0.000465	4.647857	1.574736	-0.037105
 660	3.2950e-01	13.6745	76.651055	0.000566	5.658260	1.917070	-0.045171
 661	3.3000e-01	13.6280	76.481665	0.000424	4.243695	1.437803	-0.033878
 662	3.3050e-01	13.5927	76.546195	-0.000162	-1.616646	-0.547734	0.012906
 663	3.3100e-01	13.5558	76.098521	0.001122	11.215480	3.799908	-0.089535
 664	3.3150e-01	13.5237	75.937197	0.000404	4.041614	1.369336	-0.032265
 665	3.3200e-01	13.4772	75.626648	0.000778	7.780108	2.635972	-0.062110
 666	3.3250e-01	13.4354	75.437093	0.000475	4.748897	1.608970	-0.037911
 667	3.3300e-01	13.4034	75.340298	0.000242	2.424969	0.821602	-0.019359
 668	3.3350e-01	13.3552	75.170908	0.000424	4.243695	1.437803	-0.033878
 669	3.3400e-01	13.3151	74.783731	0.000970	9.699875	3.286407	-0.077435
 670	3.3450e-01	13.2702	74.424785	0.000899	8.992592	3.046773	-0.071789
 671	3.3500e-01	13.2317	74.166667	0.000647	6.466583	2.190938	-0.051624
 672	3.3550e-01	13.1964	73.936780	0.000576	5.759301	1.951304	-0.045977
 673	3.3600e-01	13.1515	74.086005	-0.000374	-3.738493	-1.266636	0.029845
 674	3.3650e-01	13.1114	73.835953	0.000626	6.264502	2.122471	-0.050010
 675	3.3700e-01	13.0793	73.577834	0.000647	6.466583	2.190938	-0.051624
 676	3.3750e-01	13.0312	73.347948	0.000576	5.759301	1.951304	-0.045977
 677	3.3800e-01	12.9975	73.218889	0.000323	3.233292	1.095469	-0.025812
 678	3.3850e-01	12.9510	72.896241	0.000808	8.083229	2.738672	-0.064530
 679	3.3900e-01	12.9141	72.541328	0.000889	8.891552	3.012539	-0.070983
 680	3.3950e-01	12.8740	72.492931	0.000121	1.212484	0.410801	-0.009679
 681	3.4000e-01	12.8274	72.339673	0.000384	3.839534	1.300869	-0.030652
 682	3.4050e-01	12.7938	71.960562	0.000950	9.497794	3.217940	-0.075822
 683	3.4100e-01	12.7520	71.883933	0.000192	1.919767	0.650435	-0.015326
 684	3.4150e-01	12.7168	71.722609	0.000404	4.041614	1.369336	-0.032265
 685	3.4200e-01	12.6895	71.403994	0.000798	7.982189	2.704439	-0.063723
 686	3.4250e-01	12.6381	71.323332	0.000202	2.020807	0.684668	-0.016132
 687	3.4300e-01	12.5964	71.206372	0.000293	2.930170	0.992769	-0.023392
 688	3.4350e-01	12.5692	70.855493	0.000879	8.790511	2.978306	-0.070176
 689	3.4400e-01	12.5082	70.718367	0.000344	3.435372	1.163936	-0.027425
 690	3.4450e-01	12.4841	70.516713	0.000505	5.052018	1.711670	-0.040331
 691	3.4500e-01	12.4505	70.210197	0.000768	7.679068	2.601738	-0.061303
 692	3.4550e-01	12.4039	69.964178	0.000616	6.163462	2.088237	-0.049204
 693	3.4600e-01	12.3526	69.774622	0.000475	4.748897	1.608970	-0.037911
 694	3.4650e-01	12.3253	69.637497	0.000344	3.435372	1.163936	-0.027425
 695	3.4700e-01	12.2868	69.375346	0.000657	6.567624	2.225171	-0.052430
 696	3.4750e-01	12.2387	69.157558	0.000546	5.456180	1.848604	-0.043557
 697	3.4800e-01	12.1986	68.802646	0.000889	8.891552	3.012539	-0.070983
 698	3.4850e-01	12.1553	68.730050	0.000182	1.818727	0.616201	-0.014519
 699	3.4900e-01	12.1136	68.463865	0.000667	6.668664	2.259404	-0.053237
 700	3.4950e-01	12.0751	68.572759	-0.000273	-2.728090	-0.924302	0.021779
 701	3.5000e-01	12.0285	68.108953	0.001162	11.619642	3.936841	-0.092761
 702	3.5050e-01	11.9997	67.931496	0.000445	4.445776	1.506270	-0.035491
 703	3.5100e-01	11.9628	67.669345	0.000657	6.567624	2.225171	-0.052430
 704	3.5150e-01	11.9114	67.411227	0.000647	6.466583	2.190938	-0.051624
 705	3.5200e-01	11.8890	67.286201	0.000313	3.132251	1.061235	-0.025005
 706	3.5250e-01	11.8344	66.983718	0.000758	7.578027	2.567505	-0.060496
 707	3.5300e-01	11.8007	66.943387	0.000101	1.010404	0.342334	-0.008066
 708	3.5350e-01	11.7574	66.483614	0.001152	11.518601	3.902608	-0.091955
 709	3.5400e-01	11.7221	66.281959	0.000505	5.052018	1.711670	-0.040331
 710	3.5450e-01	11.6772	66.201297	0.000202	2.020807	0.684668	-0.016132
 711	3.5500e-01	11.6371	65.987543	0.000536	5.355139	1.814370	-0.042751
 712	3.5550e-01	11.5954	65.705226	0.000707	7.072825	2.396338	-0.056463
 713	3.5600e-01	11.5649	65.426942	0.000697	6.971785	2.362105	-0.055657
 714	3.5650e-01	11.5216	65.253519	0.000434	4.344736	1.472036	-0.034685
 715	3.5700e-01	11.4815	65.035732	0.000546	5.456180	1.848604	-0.043557
 716	3.5750e-01	11.4398	64.559826	0.001192	11.922763	4.039541	-0.095181
 717	3.5800e-01	11.3965	64.338005	0.000556	5.557220	1.882837	-0.044364
 718	3.5850e-01	11.3612	64.233145	0.000263	2.627049	0.890068	-0.020972
 719	3.5900e-01	11.3163	64.108119	0.000313	3.132251	1.061235	-0.025005
 720	3.5950e-01	11.2762	63.890332	0.000546	5.456180	1.848604	-0.043557
 721	3.6000e-01	11.2409	63.841934	0.000121	1.212484	0.410801	-0.009679
 722	3.6050e-01	11.1975	63.491055	0.000879	8.790511	2.978306	-0.070176
 723	3.6100e-01	11.1606	63.228903	0.000657	6.567624	2.225171	-0.052430
 724	3.6150e-01	11.1157	62.946586	0.000707	7.072825	2.396338	-0.056463
 725	3.6200e-01	11.0836	62.748965	0.000495	4.950978	1.677437	-0.039524
 726	3.6250e-01	11.0451	62.648137	0.000253	2.526009	0.855835	-0.020165
 727	3.6300e-01	10.9954	62.406151	0.000606	6.062422	2.054004	-0.048397
 728	3.6350e-01	10.9585	62.103669	0.000758	7.578027	2.567505	-0.060496
 729	3.6400e-01	10.9136	62.027040	0.000192	1.919767	0.650435	-0.015326
 730	3.6450e-01	10.8863	61.845551	0.000455	4.546816	1.540503	-0.036298
 731	3.6500e-01	10.8318	61.716491	0.000323	3.233292	1.095469	-0.025812
 732	3.6550e-01	10.7933	61.482572	0.000586	5.860341	1.985537	-0.046784
 733	3.6600e-01	10.7612	61.288983	0.000485	4.849937	1.643203	-0.038718
 734	3.6650e-01	10.7227	61.051030	0.000596	5.961381	2.019771	-0.047591
 735	3.6700e-01	10.6826	60.772746	0.000697	6.971785	2.362105	-0.055657
 736	3.6750e-01	10.6425	60.437999	0.000839	8.386350	2.841372	-0.066949
 737	3.6800e-01	10.5879	60.345238	0.000232	2.323928	0.787368	-0.018552
 738	3.6850e-01	10.5639	60.038722	0.000768	7.679068	2.601738	-0.061303
 739	3.6900e-01	10.5222	59.534585	0.001263	12.630045	4.279175	-0.100827
 740	3.6950e-01	10.4788	59.546684	-0.000030	-0.303121	-0.102700	0.002420
 741	3.7000e-01	10.4484	59.232103	0.000788	7.881148	2.670205	-0.062916
 742	3.7050e-01	10.3986	59.086911	0.000364	3.637453	1.232402	-0.029038
 743	3.7100e-01	10.3569	59.103043	-0.000040	-0.404161	-0.136934	0.003226
 744	3.7150e-01	10.3216	58.764263	0.000849	8.487390	2.875606	-0.067756
 745	3.7200e-01	10.2735	58.538410	0.000566	5.658260	1.917070	-0.045171
 746	3.7250e-01	10.2350	58.336755	0.000505	5.052018	1.711670	-0.040331
 747	3.7300e-01	10.2013	57.925379	0.001031	10.306117	3.491807	-0.082275
 748	3.7350e-01	10.1580	57.828584	0.000242	2.424969	0.821602	-0.019359
 749	3.7400e-01	10.1147	57.582565	0.000616	6.163462	2.088237	-0.049204
 750	3.7450e-01	10.0810	57.437374	0.000364	3.637453	1.232402	-0.029038
 751	3.7500e-01	10.0345	57.380910	0.000141	1.414565	0.479268	-0.011293
 752	3.7550e-01	9.9992	56.933236	0.001122	11.215480	3.799908	-0.089535
 753	3.7600e-01	9.9607	56.747714	0.000465	4.647857	1.574736	-0.037105
 754	3.7650e-01	9.9302	56.513794	0.000586	5.860341	1.985537	-0.046784
 755	3.7700e-01	9.8789	56.158881	0.000889	8.891552	3.012539	-0.070983
 756	3.7750e-01	9.8372	56.045955	0.000283	2.829130	0.958535	-0.022585
 757	3.7800e-01	9.7954	55.779770	0.000667	6.668664	2.259404	-0.053237
 758	3.7850e-01	9.7521	55.578115	0.000505	5.052018	1.711670	-0.040331
 759	3.7900e-01	9.7168	55.199004	0.000950	9.497794	3.217940	-0.075822
 760	3.7950e-01	9.6783	55.037680	0.000404	4.041614	1.369336	-0.032265
 761	3.8000e-01	9.6366	54.819893	0.000546	5.456180	1.848604	-0.043557
 762	3.8050e-01	9.5981	54.710999	0.000273	2.728090	0.924302	-0.021779
 763	3.8100e-01	9.5548	54.444815	0.000667	6.668664	2.259404	-0.053237
 764	3.8150e-01	9.5147	54.295590	0.000374	3.738493	1.266636	-0.029845
 765	3.8200e-01	9.4730	54.178630	0.000293	2.930170	0.992769	-0.023392
 766	3.8250e-01	9.4441	53.763221	0.001041	10.407157	3.526040	-0.083082
 767	3.8300e-01	9.3944	53.319580	0.001111	11.114440	3.765674	-0.088728
 768	3.8350e-01	9.3495	53.134058	0.000465	4.647857	1.574736	-0.037105
 769	3.8400e-01	9.3174	53.109859	0.000061	0.606242	0.205400	-0.004840
 770	3.8450e-01	9.2773	52.855774	0.000637	6.365543	2.156704	-0.050817
 771	3.8500e-01	9.2340	52.734781	0.000303	3.031211	1.027002	-0.024199
 772	3.8550e-01	9.1971	52.480696	0.000637	6.365543	2.156704	-0.050817
 773	3.8600e-01	9.1570	52.299206	0.000455	4.546816	1.540503	-0.036298
 774	3.8650e-01	9.1104	51.988658	0.000778	7.780108	2.635972	-0.062110
 775	3.8700e-01	9.0751	51.661977	0.000818	8.184269	2.772906	-0.065336
 776	3.8750e-01	9.0382	51.569215	0.000232	2.323928	0.787368	-0.018552
 777	3.8800e-01	8.9917	51.379660	0.000475	4.748897	1.608970	-0.037911
 778	3.8850e-01	8.9484	51.040879	0.000849	8.487390	2.875606	-0.067756
 779	3.8900e-01	8.9211	50.766629	0.000687	6.870745	2.327871	-0.054850
 780	3.8950e-01	8.8714	50.577073	0.000475	4.748897	1.608970	-0.037911
 781	3.9000e-01	8.8361	50.355253	0.000556	5.557220	1.882837	-0.044364
 782	3.9050e-01	8.7944	50.089068	0.000667	6.668664	2.259404	-0.053237
 783	3.9100e-01	8.7591	49.863215	0.000566	5.658260	1.917070	-0.045171
 784	3.9150e-01	8.7206	49.766420	0.000242	2.424969	0.821602	-0.019359
 785	3.9200e-01	8.6773	49.455872	0.000778	7.780108	2.635972	-0.062110
 786	3.9250e-01	8.6356	49.262283	0.000485	4.849937	1.643203	-0.038718
 787	3.9300e-01	8.5939	49.052562	0.000525	5.254099	1.780137	-0.041944
 788	3.9350e-01	8.5506	48.669417	0.000960	9.598834	3.252173	-0.076629
 789	3.9400e-01	8.5153	48.616987	0.000131	1.313525	0.445034	-0.010486
 790	3.9450e-01	8.4784	48.286273	0.000829	8.285310	2.807139	-0.066143
 791	3.9500e-01	8.4335	48.012022	0.000687	6.870745	2.327871	-0.054850
 792	3.9550e-01	8.4078	47.713573	0.000748	7.476987	2.533272	-0.059690
 793	3.9600e-01	8.3500	47.564348	0.000374	3.738493	1.266636	-0.029845
 794	3.9650e-01	8.3179	47.439322	0.000313	3.132251	1.061235	-0.025005
 795	3.9700e-01	8.2746	47.161039	0.000697	6.971785	2.362105	-0.055657
 796	3.9750e-01	8.2345	46.927119	0.000586	5.860341	1.985537	-0.046784
 797	3.9800e-01	8.2008	46.769828	0.000394	3.940574	1.335103	-0.031458
 798	3.9850e-01	8.1655	46.366518	0.001010	10.104036	3.423340	-0.080662
 799	3.9900e-01	8.1062	46.382650	-0.000040	-0.404161	-0.136934	0.003226
 800	3.9950e-01	8.0709	45.902712	0.001202	12.023803	4.073775	-0.095988
 801	4.0000e-01	8.0452	45.648627	0.000637	6.365543	2.156704	-0.050817
 802	4.0050e-01	7.9907	45.580064	0.000172	1.717686	0.581968	-0.013713
 803	4.0100e-01	7.9554	45.330012	0.000626	6.264502	2.122471	-0.050010
 804	4.0150e-01	7.9185	44.983165	0.000869	8.689471	2.944073	-0.069369
 805	4.0200e-01	7.8736	44.797643	0.000465	4.647857	1.574736	-0.037105
 806	4.0250e-01	7.8399	44.531458	0.000667	6.668664	2.259404	-0.053237
 807	4.0300e-01	7.7982	44.172512	0.000899	8.992592	3.046773	-0.071789
 808	4.0350e-01	7.7581	44.051519	0.000303	3.031211	1.027002	-0.024199
 809	4.0400e-01	7.7212	44.257208	-0.000515	-5.153058	-1.745903	0.041138
 810	4.0450e-01	7.6795	43.503018	0.001889	18.894548	6.401646	-0.150838
 811	4.0500e-01	7.6361	43.329595	0.000434	4.344736	1.472036	-0.034685
 812	4.0550e-01	7.5993	43.160205	0.000424	4.243695	1.437803	-0.033878
 813	4.0600e-01	7.5511	43.027112	0.000333	3.334332	1.129702	-0.026618
 814	4.0650e-01	7.5110	42.708498	0.000798	7.982189	2.704439	-0.063723
 815	4.0700e-01	7.4645	42.498777	0.000525	5.254099	1.780137	-0.041944
 816	4.0750e-01	7.4372	42.365684	0.000333	3.334332	1.129702	-0.026618
 817	4.0800e-01	7.4035	41.922043	0.001111	11.114440	3.765674	-0.088728
 818	4.0850e-01	7.3410	41.805084	0.000293	2.930170	0.992769	-0.023392
 819	4.0900e-01	7.3217	41.583263	0.000556	5.557220	1.882837	-0.044364
 820	4.0950e-01	7.2736	41.220284	0.000909	9.093633	3.081006	-0.072596
 821	4.1000e-01	7.2383	41.054927	0.000414	4.142655	1.403569	-0.033071
 822	4.1050e-01	7.1886	40.865372	0.000475	4.748897	1.608970	-0.037911
 823	4.1100e-01	7.1645	40.506426	0.000899	8.992592	3.046773	-0.071789
 824	4.1150e-01	7.1212	40.441896	0.000162	1.616646	0.547734	-0.012906
 825	4.1200e-01	7.0682	40.038586	0.001010	10.104036	3.423340	-0.080662
 826	4.1250e-01	7.0394	39.893395	0.000364	3.637453	1.232402	-0.029038
 827	4.1300e-01	6.9977	39.586879	0.000768	7.679068	2.601738	-0.061303
 828	4.1350e-01	6.9672	39.502184	0.000212	2.121848	0.718901	-0.016939
 829	4.1400e-01	6.9094	39.328761	0.000434	4.344736	1.472036	-0.034685
 830	4.1450e-01	6.8790	39.010146	0.000798	7.982189	2.704439	-0.063723
 831	4.1500e-01	6.8308	38.752028	0.000647	6.466583	2.190938	-0.051624
 832	4.1550e-01	6.7987	38.627002	0.000313	3.132251	1.061235	-0.025005
 833	4.1600e-01	6.7554	38.320486	0.000768	7.679068	2.601738	-0.061303
 834	4.1650e-01	6.7121	38.046236	0.000687	6.870745	2.327871	-0.054850
 835	4.1700e-01	6.6720	37.888945	0.000394	3.940574	1.335103	-0.031458
 836	4.1750e-01	6.6351	37.570330	0.000798	7.982189	2.704439	-0.063723
 837	4.1800e-01	6.5918	37.400940	0.000424	4.243695	1.437803	-0.033878
 838	4.1850e-01	6.5629	37.009729	0.000980	9.800915	3.320640	-0.078242
 839	4.1900e-01	6.5228	36.723379	0.000717	7.173866	2.430571	-0.057270
 840	4.1950e-01	6.4731	36.340235	0.000960	9.598834	3.252173	-0.076629
 841	4.2000e-01	6.4506	36.231341	0.000273	2.728090	0.924302	-0.021779
 842	4.2050e-01	6.4009	36.001455	0.000576	5.759301	1.951304	-0.045977
 843	4.2100e-01	6.3592	35.767535	0.000586	5.860341	1.985537	-0.046784
 844	4.2150e-01	6.3159	35.751403	0.000040	0.404161	0.136934	-0.003226
 845	4.2200e-01	6.2758	35.521516	0.000576	5.759301	1.951304	-0.045977
 846	4.2250e-01	6.2389	35.065776	0.001142	11.417561	3.868374	-0.091148
 847	4.2300e-01	6.2020	34.864121	0.000505	5.052018	1.711670	-0.040331
 848	4.2350e-01	6.1522	34.763293	0.000253	2.526009	0.855835	-0.020165
 849	4.2400e-01	6.1185	34.368050	0.000990	9.901955	3.354873	-0.079049
 850	4.2450e-01	6.0768	34.279322	0.000222	2.222888	0.753135	-0.017746
 851	4.2500e-01	6.0399	34.037336	0.000606	6.062422	2.054004	-0.048397
 852	4.2550e-01	5.9902	33.726787	0.000778	7.780108	2.635972	-0.062110
 853	4.2600e-01	5.9565	33.496900	0.000576	5.759301	1.951304	-0.045977
 854	4.2650e-01	5.9196	33.267014	0.000576	5.759301	1.951304	-0.045977
 855	4.2700e-01	5.8763	33.053260	0.000536	5.355139	1.814370	-0.042751
 856	4.2750e-01	5.8394	32.851605	0.000505	5.052018	1.711670	-0.040331
 857	4.2800e-01	5.7897	32.549122	0.000758	7.578027	2.567505	-0.060496
 858	4.2850e-01	5.7576	32.367633	0.000455	4.546816	1.540503	-0.036298
 859	4.2900e-01	5.7127	32.198243	0.000424	4.243695	1.437803	-0.033878
 860	4.2950e-01	5.6838	31.669907	0.001324	13.236287	4.484576	-0.105667
 861	4.3000e-01	5.6244	31.444053	0.000566	5.658260	1.917070	-0.045171
 862	4.3050e-01	5.5908	31.359358	0.000212	2.121848	0.718901	-0.016939
 863	4.3100e-01	5.5619	31.036710	0.000808	8.083229	2.738672	-0.064530
 864	4.3150e-01	5.5234	30.822956	0.000536	5.355139	1.814370	-0.042751
 865	4.3200e-01	5.4720	30.645500	0.000445	4.445776	1.506270	-0.035491
 866	4.3250e-01	5.4351	30.310753	0.000839	8.386350	2.841372	-0.066949
 867	4.3300e-01	5.3902	30.222024	0.000222	2.222888	0.753135	-0.017746
 868	4.3350e-01	5.3549	29.746119	0.001192	11.922763	4.039541	-0.095181
 869	4.3400e-01	5.3148	29.629159	0.000293	2.930170	0.992769	-0.023392
 870	4.3450e-01	5.2731	29.540431	0.000222	2.222888	0.753135	-0.017746
 871	4.3500e-01	5.2330	29.221816	0.000798	7.982189	2.704439	-0.063723
 872	4.3550e-01	5.1977	29.044360	0.000445	4.445776	1.506270	-0.035491
 873	4.3600e-01	5.1544	28.649116	0.000990	9.901955	3.354873	-0.079049
 874	4.3650e-01	5.1223	28.427295	0.000556	5.557220	1.882837	-0.044364
 875	4.3700e-01	5.0790	28.225641	0.000505	5.052018	1.711670	-0.040331
 876	4.3750e-01	5.0293	28.032052	0.000485	4.849937	1.643203	-0.038718
 877	4.3800e-01	4.9972	27.818298	0.000536	5.355139	1.814370	-0.042751
 878	4.3850e-01	4.9571	27.487584	0.000829	8.285310	2.807139	-0.066143
 879	4.3900e-01	4.9186	27.273829	0.000536	5.355139	1.814370	-0.042751
 880	4.3950e-01	4.8737	27.096373	0.000445	4.445776	1.506270	-0.035491
 881	4.4000e-01	4.8384	26.644666	0.001132	11.316521	3.834141	-0.090341
 882	4.4050e-01	4.8031	26.277654	0.000919	9.194673	3.115240	-0.073402
 883	4.4100e-01	4.7549	26.233290	0.000111	1.111444	0.376567	-0.008873
 884	4.4150e-01	4.7148	25.942907	0.000727	7.274906	2.464805	-0.058077
 885	4.4200e-01	4.6763	25.805781	0.000344	3.435372	1.163936	-0.027425
 886	4.4250e-01	4.6298	25.575895	0.000576	5.759301	1.951304	-0.045977
 887	4.4300e-01	4.5929	25.172585	0.001010	10.104036	3.423340	-0.080662
 888	4.4350e-01	4.5640	24.930599	0.000606	6.062422	2.054004	-0.048397
 889	4.4400e-01	4.5207	24.728944	0.000505	5.052018	1.711670	-0.040331
 890	4.4450e-01	4.4726	24.434528	0.000738	7.375946	2.499038	-0.058883
 891	4.4500e-01	4.4341	24.236906	0.000495	4.950978	1.677437	-0.039524
 892	4.4550e-01	4.3972	24.148178	0.000222	2.222888	0.753135	-0.017746
 893	4.4600e-01	4.3555	23.785199	0.000909	9.093633	3.081006	-0.072596
 894	4.4650e-01	4.3218	23.385922	0.001000	10.002996	3.389107	-0.079855
 895	4.4700e-01	4.2753	23.143936	0.000606	6.062422	2.054004	-0.048397
 896	4.4750e-01	4.2336	23.232664	-0.000222	-2.222888	-0.753135	0.017746
 897	4.4800e-01	4.1951	23.010844	0.000556	5.557220	1.882837	-0.044364
 898	4.4850e-01	4.1630	22.708362	0.000758	7.578027	2.567505	-0.060496
 899	4.4900e-01	4.1261	22.337317	0.000930	9.295713	3.149473	-0.074209
 900	4.4950e-01	4.0812	21.768650	0.001425	14.246691	4.826910	-0.113733
 901	4.5000e-01	4.0395	21.704120	0.000162	1.616646	0.547734	-0.012906
 902	4.5050e-01	4.0058	21.583127	0.000303	3.031211	1.027002	-0.024199
 903	4.5100e-01	3.9576	21.296777	0.000717	7.173866	2.430571	-0.057270
 904	4.5150e-01	3.9175	21.208049	0.000222	2.222888	0.753135	-0.017746
 905	4.5200e-01	3.8742	20.703912	0.001263	12.630045	4.279175	-0.100827
 906	4.5250e-01	3.8437	20.538555	0.000414	4.142655	1.403569	-0.033071
 907	4.5300e-01	3.7876	20.490157	0.000121	1.212484	0.410801	-0.009679
 908	4.5350e-01	3.7603	20.179609	0.000778	7.780108	2.635972	-0.062110
 909	4.5400e-01	3.7122	19.860994	0.000798	7.982189	2.704439	-0.063723
 910	4.5450e-01	3.6785	19.469784	0.000980	9.800915	3.320640	-0.078242
 911	4.5500e-01	3.6384	19.344757	0.000313	3.132251	1.061235	-0.025005
 912	4.5550e-01	3.5999	19.058407	0.000717	7.173866	2.430571	-0.057270
 913	4.5600e-01	3.5566	18.836587	0.000556	5.557220	1.882837	-0.044364
 914	4.5650e-01	3.5149	18.715594	0.000303	3.031211	1.027002	-0.024199
 915	4.5700e-01	3.4684	18.437310	0.000697	6.971785	2.362105	-0.055657
 916	4.5750e-01	3.4395	18.110629	0.000818	8.184269	2.772906	-0.065336
 917	4.5800e-01	3.3978	17.824279	0.000717	7.173866	2.430571	-0.057270
 918	4.5850e-01	3.3577	17.590360	0.000586	5.860341	1.985537	-0.046784
 919	4.5900e-01	3.3208	17.352407	0.000596	5.961381	2.019771	-0.047591
 920	4.5950e-01	3.2807	17.328208	0.000061	0.606242	0.205400	-0.004840
 921	4.6000e-01	3.2357	16.771641	0.001394	13.943570	4.724209	-0.111314
 922	4.6050e-01	3.2004	16.541754	0.000576	5.759301	1.951304	-0.045977
 923	4.6100e-01	3.1603	16.388496	0.000384	3.839534	1.300869	-0.030652
 924	4.6150e-01	3.1186	16.275569	0.000283	2.829130	0.958535	-0.022585
 925	4.6200e-01	3.0833	15.702869	0.001435	14.347731	4.861143	-0.114540
 926	4.6250e-01	3.0336	15.448784	0.000637	6.365543	2.156704	-0.050817
 927	4.6300e-01	2.9999	15.315692	0.000333	3.334332	1.129702	-0.026618
 928	4.6350e-01	2.9534	15.166467	0.000374	3.738493	1.266636	-0.029845
 929	4.6400e-01	2.9181	14.815588	0.000879	8.790511	2.978306	-0.070176
 930	4.6450e-01	2.8812	14.674429	0.000354	3.536413	1.198169	-0.028232
 931	4.6500e-01	2.8315	14.412278	0.000657	6.567624	2.225171	-0.052430
 932	4.6550e-01	2.8042	14.190457	0.000556	5.557220	1.882837	-0.044364
 933	4.6600e-01	2.7577	13.823445	0.000919	9.194673	3.115240	-0.073402
 934	4.6650e-01	2.7208	13.666155	0.000394	3.940574	1.335103	-0.031458
 935	4.6700e-01	2.6710	13.472566	0.000485	4.849937	1.643203	-0.038718
 936	4.6750e-01	2.6309	13.335441	0.000344	3.435372	1.163936	-0.027425
 937	4.6800e-01	2.5956	13.000693	0.000839	8.386350	2.841372	-0.066949
 938	4.6850e-01	2.5604	12.762741	0.000596	5.961381	2.019771	-0.047591
 939	4.6900e-01	2.5074	12.315067	0.001122	11.215480	3.799908	-0.089535
 940	4.6950e-01	2.4785	12.028717	0.000717	7.173866	2.430571	-0.057270
 941	4.7000e-01	2.4304	11.794797	0.000586	5.860341	1.985537	-0.046784
 942	4.7050e-01	2.4080	11.746400	0.000121	1.212484	0.410801	-0.009679
 943	4.7100e-01	2.3566	11.427785	0.000798	7.982189	2.704439	-0.063723
 944	4.7150e-01	2.3245	11.189832	0.000596	5.961381	2.019771	-0.047591
 945	4.7200e-01	2.2796	10.895416	0.000738	7.375946	2.499038	-0.058883
 946	4.7250e-01	2.2347	10.572768	0.000808	8.083229	2.738672	-0.064530
 947	4.7300e-01	2.2010	10.391279	0.000455	4.546816	1.540503	-0.036298
 948	4.7350e-01	2.1577	10.141226	0.000626	6.264502	2.122471	-0.050010
 949	4.7400e-01	2.1208	9.887141	0.000637	6.365543	2.156704	-0.050817
 950	4.7450e-01	2.0791	9.653222	0.000586	5.860341	1.985537	-0.046784
 951	4.7500e-01	2.0358	9.427368	0.000566	5.658260	1.917070	-0.045171
 952	4.7550e-01	1.9925	8.999860	0.001071	10.710278	3.628741	-0.085502
 953	4.7600e-01	1.9507	8.915164	0.000212	2.121848	0.718901	-0.016939
 954	4.7650e-01	1.9090	8.661079	0.000637	6.365543	2.156704	-0.050817
 955	4.7700e-01	1.8721	8.435226	0.000566	5.658260	1.917070	-0.045171
 956	4.7750e-01	1.8417	8.181141	0.000637	6.365543	2.156704	-0.050817
 957	4.7800e-01	1.7983	7.894791	0.000717	7.173866	2.430571	-0.057270
 958	4.7850e-01	1.7566	7.608441	0.000717	7.173866	2.430571	-0.057270
 959	4.7900e-01	1.7213	7.322091	0.000717	7.173866	2.430571	-0.057270
 960	4.7950e-01	1.6780	7.108336	0.000536	5.355139	1.814370	-0.042751
 961	4.8000e-01	1.6331	6.761490	0.000869	8.689471	2.944073	-0.069369
 962	4.8050e-01	1.6026	6.628398	0.000333	3.334332	1.129702	-0.026618
 963	4.8100e-01	1.5481	6.475140	0.000384	3.839534	1.300869	-0.030652
 964	4.8150e-01	1.5192	6.027466	0.001122	11.215480	3.799908	-0.089535
 965	4.8200e-01	1.4663	5.757248	0.000677	6.769704	2.293638	-0.054044
 966	4.8250e-01	1.4358	5.353938	0.001010	10.104036	3.423340	-0.080662
 967	4.8300e-01	1.3877	5.168416	0.000465	4.647857	1.574736	-0.037105
 968	4.8350e-01	1.3524	5.083721	0.000212	2.121848	0.718901	-0.016939
 969	4.8400e-01	1.3171	4.918364	0.000414	4.142655	1.403569	-0.033071
 970	4.8450e-01	1.2706	4.704610	0.000536	5.355139	1.814370	-0.042751
 971	4.8500e-01	1.2337	4.466657	0.000596	5.961381	2.019771	-0.047591
 972	4.8550e-01	1.2000	4.099645	0.000919	9.194673	3.115240	-0.073402
 973	4.8600e-01	1.1550	3.692302	0.001021	10.205077	3.457574	-0.081469
 974	4.8650e-01	1.1230	3.639871	0.000131	1.313525	0.445034	-0.010486
 975	4.8700e-01	1.0748	3.325290	0.000788	7.881148	2.670205	-0.062916
 976	4.8750e-01	1.0395	3.204297	0.000303	3.031211	1.027002	-0.024199
 977	4.8800e-01	0.9962	2.978443	0.000566	5.658260	1.917070	-0.045171
 978	4.8850e-01	0.9625	2.587233	0.000980	9.800915	3.320640	-0.078242
 979	4.8900e-01	0.9240	2.236353	0.000879	8.790511	2.978306	-0.070176
 980	4.8950e-01	0.8791	2.022599	0.000536	5.355139	1.814370	-0.042751
 981	4.9000e-01	0.8390	1.724150	0.000748	7.476987	2.533272	-0.059690
 982	4.9050e-01	0.7925	1.708017	0.000040	0.404161	0.136934	-0.003226
 983	4.9100e-01	0.7492	1.409568	0.000748	7.476987	2.533272	-0.059690
 984	4.9150e-01	0.7107	1.123218	0.000717	7.173866	2.430571	-0.057270
 985	4.9200e-01	0.6706	1.042556	0.000202	2.020807	0.684668	-0.016132
 986	4.9250e-01	0.6401	0.554551	0.001223	12.225884	4.142242	-0.097601
 987	4.9300e-01	0.6048	0.332731	0.000556	5.557220	1.882837	-0.044364
 988	4.9350e-01	0.5567	0.046381	0.000717	7.173866	2.430571	-0.057270
 989	4.9400e-01	0.5166	-0.203671	0.000626	6.264502	2.122471	-0.050010
 990	4.9450e-01	0.4716	-0.385161	0.000455	4.546816	1.540503	-0.036298
 991	4.9500e-01	0.4380	-0.615048	0.000576	5.759301	1.951304	-0.045977
 992	4.9550e-01	0.3962	-0.873166	0.000647	6.466583	2.190938	-0.051624
 993	4.9600e-01	0.3577	-1.151450	0.000697	6.971785	2.362105	-0.055657
 994	4.9650e-01	0.3176	-1.558793	0.001021	10.205077	3.457574	-0.081469
 995	4.9700e-01	0.2791	-1.607190	0.000121	1.212484	0.410801	-0.009679
 996	4.9750e-01	0.2406	-1.792712	0.000465	4.647857	1.574736	-0.037105
 997	4.9800e-01	0.2005	-2.183923	0.000980	9.800915	3.320640	-0.078242
 998	4.9850e-01	0.1636	-2.579167	0.000990	9.901955	3.354873	-0.079049
 999	4.9900e-01	0.1059	-2.651762	0.000182	1.818727	0.616201	-0.014519
1000	4.9950e-01	0.0706	-2.829219	0.000445	4.445776	1.506270	-0.035491
1001	5.0000e-01	0.0401	-3.518879	0.001728	17.277902	5.853912	-0.137932
1002	5.0050e-01	-0.0016	-3.591474	0.000182	1.818727	0.616201	-0.014519
1003	5.0100e-01	-0.0401	-3.571309	-0.000051	-0.505202	-0.171167	0.004033
1004	5.0150e-01	-0.0722	-3.785063	0.000536	5.355139	1.814370	-0.042751
1005	5.0200e-01	-0.1107	-4.144009	0.000899	8.992592	3.046773	-0.071789
1006	5.0250e-01	-0.1508	-4.470690	0.000818	8.184269	2.772906	-0.065336
1007	5.0300e-01	-0.1989	-4.527153	0.000141	1.414565	0.479268	-0.011293
1008	5.0350e-01	-0.2390	-4.724775	0.000495	4.950978	1.677437	-0.039524
1009	5.0400e-01	-0.2759	-5.083721	0.000899	8.992592	3.046773	-0.071789
1010	5.0450e-01	-0.3144	-5.563660	0.001202	12.023803	4.073775	-0.095988
1011	5.0500e-01	-0.3529	-5.866142	0.000758	7.578027	2.567505	-0.060496
1012	5.0550e-01	-0.4027	-5.979069	0.000283	2.829130	0.958535	-0.022585
1013	5.0600e-01	-0.4460	-5.983102	0.000010	0.101040	0.034233	-0.000807
1014	5.0650e-01	-0.4749	-6.229121	0.000616	6.163462	2.088237	-0.049204
1015	5.0700e-01	-0.5214	-6.632431	0.001010	10.104036	3.423340	-0.080662
1016	5.0750e-01	-0.5583	-6.785688	0.000384	3.839534	1.300869	-0.030652
1017	5.0800e-01	-0.5968	-7.104303	0.000798	7.982189	2.704439	-0.063723
1018	5.0850e-01	-0.6385	-7.201098	0.000242	2.424969	0.821602	-0.019359
1019	5.0900e-01	-0.6770	-7.483414	0.000707	7.072825	2.396338	-0.056463
1020	5.0950e-01	-0.7187	-7.745566	0.000657	6.567624	2.225171	-0.052430
1021	5.1000e-01	-0.7540	-8.052081	0.000768	7.679068	2.601738	-0.061303
1022	5.1050e-01	-0.7973	-8.402961	0.000879	8.790511	2.978306	-0.070176
1023	5.1100e-01	-0.8278	-8.628814	0.000566	5.658260	1.917070	-0.045171
1024	5.1150e-01	-0.8743	-8.790138	0.000404	4.041614	1.369336	-0.032265
1025	5.1200e-01	-0.9128	-9.120852	0.000829	8.285310	2.807139	-0.066143
1026	5.1250e-01	-0.9593	-9.286210	0.000414	4.142655	1.403569	-0.033071
1027	5.1300e-01	-0.9994	-9.508030	0.000556	5.557220	1.882837	-0.044364
1028	5.1350e-01	-1.0315	-9.814545	0.000768	7.679068	2.601738	-0.061303
1029	5.1400e-01	-1.0764	-9.975869	0.000404	4.041614	1.369336	-0.032265
1030	5.1450e-01	-1.1230	-10.153326	0.000445	4.445776	1.506270	-0.035491
1031	5.1500e-01	-1.1502	-10.520338	0.000919	9.194673	3.115240	-0.073402
1032	5.1550e-01	-1.1871	-10.907515	0.000970	9.699875	3.286407	-0.077435
1033	5.1600e-01	-1.2465	-10.955912	0.000121	1.212484	0.410801	-0.009679
1034	5.1650e-01	-1.2818	-11.326957	0.000930	9.295713	3.149473	-0.074209
1035	5.1700e-01	-1.3171	-11.484248	0.000394	3.940574	1.335103	-0.031458
1036	5.1750e-01	-1.3540	-11.766565	0.000707	7.072825	2.396338	-0.056463
1037	5.1800e-01	-1.3957	-12.069048	0.000758	7.578027	2.567505	-0.060496
1038	5.1850e-01	-1.4278	-12.359431	0.000727	7.274906	2.464805	-0.058077
1039	5.1900e-01	-1.4823	-12.565119	0.000515	5.153058	1.745903	-0.041138
1040	5.1950e-01	-1.5224	-12.843402	0.000697	6.971785	2.362105	-0.055657
1041	5.2000e-01	-1.5593	-13.149918	0.000768	7.679068	2.601738	-0.061303
1042	5.2050e-01	-1.5866	-13.395937	0.000616	6.163462	2.088237	-0.049204
1043	5.2100e-01	-1.6411	-13.617757	0.000556	5.557220	1.882837	-0.044364
1044	5.2150e-01	-1.6812	-13.650022	0.000081	0.808323	0.273867	-0.006453
1045	5.2200e-01	-1.7213	-14.013001	0.000909	9.093633	3.081006	-0.072596
1046	5.2250e-01	-1.7566	-14.384046	0.000930	9.295713	3.149473	-0.074209
1047	5.2300e-01	-1.7903	-14.561503	0.000445	4.445776	1.506270	-0.035491
1048	5.2350e-01	-1.8368	-14.767191	0.000515	5.153058	1.745903	-0.041138
1049	5.2400e-01	-1.8818	-14.997077	0.000576	5.759301	1.951304	-0.045977
1050	5.2450e-01	-1.9138	-15.138236	0.000354	3.536413	1.198169	-0.028232
1051	5.2500e-01	-1.9556	-15.529446	0.000980	9.800915	3.320640	-0.078242
1052	5.2550e-01	-1.9925	-15.658505	0.000323	3.233292	1.095469	-0.025812
1053	5.2600e-01	-2.0422	-16.009385	0.000879	8.790511	2.978306	-0.070176
1054	5.2650e-01	-2.0775	-16.323967	0.000788	7.881148	2.670205	-0.062916
1055	5.2700e-01	-2.1208	-16.473191	0.000374	3.738493	1.266636	-0.029845
1056	5.2750e-01	-2.1561	-16.723243	0.000626	6.264502	2.122471	-0.050010
1057	5.2800e-01	-2.2010	-16.836170	0.000283	2.829130	0.958535	-0.022585
1058	5.2850e-01	-2.2315	-17.170917	0.000839	8.386350	2.841372	-0.066949
1059	5.2900e-01	-2.2812	-17.380638	0.000525	5.254099	1.780137	-0.041944
1060	5.2950e-01	-2.3181	-17.662955	0.000707	7.072825	2.396338	-0.056463
1061	5.3000e-01	-2.3695	-17.844445	0.000455	4.546816	1.540503	-0.036298
1062	5.3050e-01	-2.3951	-18.251788	0.001021	10.205077	3.457574	-0.081469
1063	5.3100e-01	-2.4416	-18.505873	0.000637	6.365543	2.156704	-0.050817
1064	5.3150e-01	-2.4850	-18.768024	0.000657	6.567624	2.225171	-0.052430
1065	5.3200e-01	-2.5202	-19.030176	0.000657	6.567624	2.225171	-0.052430
1066	5.3250e-01	-2.5684	-19.046308	0.000040	0.404161	0.136934	-0.003226
1067	5.3300e-01	-2.5973	-19.449618	0.001010	10.104036	3.423340	-0.080662
1068	5.3350e-01	-2.6374	-19.679505	0.000576	5.759301	1.951304	-0.045977
1069	5.3400e-01	-2.6855	-19.735968	0.000141	1.414565	0.479268	-0.011293
1070	5.3450e-01	-2.7192	-20.002153	0.000667	6.668664	2.259404	-0.053237
1071	5.3500e-01	-2.7657	-20.340933	0.000849	8.487390	2.875606	-0.067756
1072	5.3550e-01	-2.7994	-20.514356	0.000434	4.344736	1.472036	-0.034685
1073	5.3600e-01	-2.8427	-20.667614	0.000384	3.839534	1.300869	-0.030652
1074	5.3650e-01	-2.8780	-21.022526	0.000889	8.891552	3.012539	-0.070983
1075	5.3700e-01	-2.9165	-21.325009	0.000758	7.578027	2.567505	-0.060496
1076	5.3750e-01	-2.9598	-21.627491	0.000758	7.578027	2.567505	-0.060496
1077	5.3800e-01	-2.9951	-21.663789	0.000091	0.909363	0.308101	-0.007260
1078	5.3850e-01	-3.0416	-22.075165	0.001031	10.306117	3.491807	-0.082275
1079	5.3900e-01	-3.0865	-22.192125	0.000293	2.930170	0.992769	-0.023392
1080	5.3950e-01	-3.1138	-22.458310	0.000667	6.668664	2.259404	-0.053237
1081	5.4000e-01	-3.1603	-22.688196	0.000576	5.759301	1.951304	-0.045977
1082	5.4050e-01	-3.1988	-23.127804	0.001101	11.013399	3.731441	-0.087922
1083	5.4100e-01	-3.2373	-23.349624	0.000556	5.557220	1.882837	-0.044364
1084	5.4150e-01	-3.2742	-23.422220	0.000182	1.818727	0.616201	-0.014519
1085	5.4200e-01	-3.3224	-23.805365	0.000960	9.598834	3.252173	-0.076629
1086	5.4250e-01	-3.3528	-23.817464	0.000030	0.303121	0.102700	-0.002420
1087	5.4300e-01	-3.4042	-24.228840	0.001031	10.306117	3.491807	-0.082275
1088	5.4350e-01	-3.4363	-24.434528	0.000515	5.153058	1.745903	-0.041138
1089	5.4400e-01	-3.4780	-24.543422	0.000273	2.728090	0.924302	-0.021779
1090	5.4450e-01	-3.5245	-24.712812	0.000424	4.243695	1.437803	-0.033878
1091	5.4500e-01	-3.5566	-25.095956	0.000960	9.598834	3.252173	-0.076629
1092	5.4550e-01	-3.6031	-25.398438	0.000758	7.578027	2.567505	-0.060496
1093	5.4600e-01	-3.6416	-25.499266	0.000253	2.526009	0.855835	-0.020165
1094	5.4650e-01	-3.6753	-25.644457	0.000364	3.637453	1.232402	-0.029038
1095	5.4700e-01	-3.7154	-26.039701	0.000990	9.901955	3.354873	-0.079049
1096	5.4750e-01	-3.7571	-26.293786	0.000637	6.365543	2.156704	-0.050817
1097	5.4800e-01	-3.8020	-26.644666	0.000879	8.790511	2.978306	-0.070176
1098	5.4850e-01	-3.8309	-26.971347	0.000818	8.184269	2.772906	-0.065336
1099	5.4900e-01	-3.8822	-26.979413	0.000020	0.202081	0.068467	-0.001613
1100	5.4950e-01	-3.9159	-27.289962	0.000778	7.780108	2.635972	-0.062110
1101	5.5000e-01	-3.9657	-27.479517	0.000475	4.748897	1.608970	-0.037911
1102	5.5050e-01	-3.9961	-27.705371	0.000566	5.658260	1.917070	-0.045171
1103	5.5100e-01	-4.0427	-27.947357	0.000606	6.062422	2.054004	-0.048397
1104	5.5150e-01	-4.0844	-27.943324	-0.000010	-0.101040	-0.034233	0.000807
1105	5.5200e-01	-4.1133	-28.386965	0.001111	11.114440	3.765674	-0.088728
1106	5.5250e-01	-4.1566	-28.637017	0.000626	6.264502	2.122471	-0.050010
1107	5.5300e-01	-4.1935	-28.866903	0.000576	5.759301	1.951304	-0.045977
1108	5.5350e-01	-4.2416	-29.028227	0.000404	4.041614	1.369336	-0.032265
1109	5.5400e-01	-4.2849	-29.270213	0.000606	6.062422	2.054004	-0.048397
1110	5.5450e-01	-4.3218	-29.471868	0.000505	5.052018	1.711670	-0.040331
1111	5.5500e-01	-4.3635	-29.721920	0.000626	6.264502	2.122471	-0.050010
1112	5.5550e-01	-4.4068	-30.193793	0.001182	11.821722	4.005308	-0.094375
1113	5.5600e-01	-4.4421	-30.476110	0.000707	7.072825	2.396338	-0.056463
1114	5.5650e-01	-4.4742	-30.447878	-0.000071	-0.707283	-0.239634	0.005646
1115	5.5700e-01	-4.5207	-30.891519	0.001111	11.114440	3.765674	-0.088728
1116	5.5750e-01	-4.5496	-31.117372	0.000566	5.658260	1.917070	-0.045171
1117	5.5800e-01	-4.5913	-31.165769	0.000121	1.212484	0.410801	-0.009679
1118	5.5850e-01	-4.6314	-31.367424	0.000505	5.052018	1.711670	-0.040331
1119	5.5900e-01	-4.6795	-31.573112	0.000515	5.153058	1.745903	-0.041138
1120	5.5950e-01	-4.7148	-31.891727	0.000798	7.982189	2.704439	-0.063723
1121	5.6000e-01	-4.7566	-32.424096	0.001334	13.337328	4.518809	-0.106474
1122	5.6050e-01	-4.7983	-32.573321	0.000374	3.738493	1.266636	-0.029845
1123	5.6100e-01	-4.8368	-32.633817	0.000152	1.515605	0.513501	-0.012099
1124	5.6150e-01	-4.8785	-32.855638	0.000556	5.557220	1.882837	-0.044364
1125	5.6200e-01	-4.9186	-33.029061	0.000434	4.344736	1.472036	-0.034685
1126	5.6250e-01	-4.9523	-33.448503	0.001051	10.508198	3.560274	-0.083888
1127	5.6300e-01	-5.0068	-33.565463	0.000293	2.930170	0.992769	-0.023392
1128	5.6350e-01	-5.0357	-33.803416	0.000596	5.961381	2.019771	-0.047591
1129	5.6400e-01	-5.0662	-34.073634	0.000677	6.769704	2.293638	-0.054044
1130	5.6450e-01	-5.1159	-34.440646	0.000919	9.194673	3.115240	-0.073402
1131	5.6500e-01	-5.1560	-34.650367	0.000525	5.254099	1.780137	-0.041944
1132	5.6550e-01	-5.1993	-34.803624	0.000384	3.839534	1.300869	-0.030652
1133	5.6600e-01	-5.2346	-34.868154	0.000162	1.616646	0.547734	-0.012906
1134	5.6650e-01	-5.2827	-35.085941	0.000546	5.456180	1.848604	-0.043557
1135	5.6700e-01	-5.3180	-35.348093	0.000657	6.567624	2.225171	-0.052430
1136	5.6750e-01	-5.3533	-35.525549	0.000445	4.445776	1.506270	-0.035491
1137	5.6800e-01	-5.3950	-35.626377	0.000253	2.526009	0.855835	-0.020165
1138	5.6850e-01	-5.4383	-36.078084	0.001132	11.316521	3.834141	-0.090341
1139	5.6900e-01	-5.4801	-36.432996	0.000889	8.891552	3.012539	-0.070983
1140	5.6950e-01	-5.5009	-36.553989	0.000303	3.031211	1.027002	-0.024199
1141	5.7000e-01	-5.5699	-36.626585	0.000182	1.818727	0.616201	-0.014519
1142	5.7050e-01	-5.5908	-37.021829	0.000990	9.901955	3.354873	-0.079049
1143	5.7100e-01	-5.6421	-37.171053	0.000374	3.738493	1.266636	-0.029845
1144	5.7150e-01	-5.6694	-37.473536	0.000758	7.578027	2.567505	-0.060496
1145	5.7200e-01	-5.7207	-37.675191	0.000505	5.052018	1.711670	-0.040331
1146	5.7250e-01	-5.7672	-37.860713	0.000465	4.647857	1.574736	-0.037105
1147	5.7300e-01	-5.8025	-38.022037	0.000404	4.041614	1.369336	-0.032265
1148	5.7350e-01	-5.8426	-38.352751	0.000829	8.285310	2.807139	-0.066143
1149	5.7400e-01	-5.8763	-38.610869	0.000647	6.466583	2.190938	-0.051624
1150	5.7450e-01	-5.9244	-38.643134	0.000081	0.808323	0.273867	-0.006453
1151	5.7500e-01	-5.9581	-38.985948	0.000859	8.588431	2.909839	-0.068563
1152	5.7550e-01	-5.9982	-39.389257	0.001010	10.104036	3.423340	-0.080662
1153	5.7600e-01	-6.0367	-39.486052	0.000242	2.424969	0.821602	-0.019359
1154	5.7650e-01	-6.0800	-39.699806	0.000536	5.355139	1.814370	-0.042751
1155	5.7700e-01	-6.1250	-39.925660	0.000566	5.658260	1.917070	-0.045171
1156	5.7750e-01	-6.1586	-40.171679	0.000616	6.163462	2.088237	-0.049204
1157	5.7800e-01	-6.2068	-40.357201	0.000465	4.647857	1.574736	-0.037105
1158	5.7850e-01	-6.2389	-40.470128	0.000283	2.829130	0.958535	-0.022585
1159	5.7900e-01	-6.2838	-40.841173	0.000930	9.295713	3.149473	-0.074209
1160	5.7950e-01	-6.3223	-41.143655	0.000758	7.578027	2.567505	-0.060496
1161	5.8000e-01	-6.3560	-41.542932	0.001000	10.002996	3.389107	-0.079855
1162	5.8050e-01	-6.3961	-41.635693	0.000232	2.323928	0.787368	-0.018552
1163	5.8100e-01	-6.4394	-41.946242	0.000778	7.780108	2.635972	-0.062110
1164	5.8150e-01	-6.4763	-41.974474	0.000071	0.707283	0.239634	-0.005646
1165	5.8200e-01	-6.5164	-42.228559	0.000637	6.365543	2.156704	-0.050817
1166	5.8250e-01	-6.5565	-42.426181	0.000495	4.950978	1.677437	-0.039524
1167	5.8300e-01	-6.5982	-42.527008	0.000253	2.526009	0.855835	-0.020165
1168	5.8350e-01	-6.6367	-42.833524	0.000768	7.679068	2.601738	-0.061303
1169	5.8400e-01	-6.6784	-43.261032	0.001071	10.710278	3.628741	-0.085502
1170	5.8450e-01	-6.7169	-43.498985	0.000596	5.961381	2.019771	-0.047591
1171	5.8500e-01	-6.7586	-43.341694	-0.000394	-3.940574	-1.335103	0.031458
1172	5.8550e-01	-6.7939	-43.632077	0.000727	7.274906	2.464805	-0.058077
1173	5.8600e-01	-6.8260	-43.914394	0.000707	7.072825	2.396338	-0.056463
1174	5.8650e-01	-6.8822	-44.043453	0.000323	3.233292	1.095469	-0.025812
1175	5.8700e-01	-6.9191	-44.470962	0.001071	10.710278	3.628741	-0.085502
1176	5.8750e-01	-6.9560	-44.587922	0.000293	2.930170	0.992769	-0.023392
1177	5.8800e-01	-6.9993	-44.817808	0.000576	5.759301	1.951304	-0.045977
1178	5.8850e-01	-7.0362	-44.983165	0.000414	4.142655	1.403569	-0.033071
1179	5.8900e-01	-7.0779	-45.168688	0.000465	4.647857	1.574736	-0.037105
1180	5.8950e-01	-7.1164	-45.479236	0.000778	7.780108	2.635972	-0.062110
1181	5.9000e-01	-7.1581	-45.620395	0.000354	3.536413	1.198169	-0.028232
1182	5.9050e-01	-7.1982	-46.023705	0.001010	10.104036	3.423340	-0.080662
1183	5.9100e-01	-7.2399	-46.160830	0.000344	3.435372	1.163936	-0.027425
1184	5.9150e-01	-7.2752	-46.402816	0.000606	6.062422	2.054004	-0.048397
1185	5.9200e-01	-7.3153	-46.531875	0.000323	3.233292	1.095469	-0.025812
1186	5.9250e-01	-7.3554	-46.850490	0.000798	7.982189	2.704439	-0.063723
1187	5.9300e-01	-7.3923	-46.906953	0.000141	1.414565	0.479268	-0.011293
1188	5.9350e-01	-7.4452	-47.092476	0.000465	4.647857	1.574736	-0.037105
1189	5.9400e-01	-7.4725	-47.302197	0.000525	5.254099	1.780137	-0.041944
1190	5.9450e-01	-7.5255	-47.411091	0.000273	2.728090	0.924302	-0.021779
1191	5.9500e-01	-7.5656	-47.798268	0.000970	9.699875	3.286407	-0.077435
1192	5.9550e-01	-7.5880	-48.068486	0.000677	6.769704	2.293638	-0.054044
1193	5.9600e-01	-7.6361	-48.399200	0.000829	8.285310	2.807139	-0.066143
1194	5.9650e-01	-7.6779	-48.733947	0.000839	8.386350	2.841372	-0.066949
1195	5.9700e-01	-7.7164	-48.725881	-0.000020	-0.202081	-0.068467	0.001613
1196	5.9750e-01	-7.7661	-48.850907	0.000313	3.132251	1.061235	-0.025005
1197	5.9800e-01	-7.7918	-48.975933	0.000313	3.132251	1.061235	-0.025005
1198	5.9850e-01	-7.8399	-49.306647	0.000829	8.285310	2.807139	-0.066143
1199	5.9900e-01	-7.8816	-49.326812	0.000051	0.505202	0.171167	-0.004033
1200	5.9950e-01	-7.9137	-49.750288	0.001061	10.609238	3.594507	-0.084695
1201	6.0000e-01	-7.9570	-49.947910	0.000495	4.950978	1.677437	-0.039524
1202	6.0050e-01	-7.9987	-50.302822	0.000889	8.891552	3.012539	-0.070983
1203	6.0100e-01	-8.0324	-50.520610	0.000546	5.456180	1.848604	-0.043557
1204	6.0150e-01	-8.0805	-50.738397	0.000546	5.456180	1.848604	-0.043557
1205	6.0200e-01	-8.1174	-50.927953	0.000475	4.748897	1.608970	-0.037911
1206	6.0250e-01	-8.1623	-50.940052	0.000030	0.303121	0.102700	-0.002420
1207	6.0300e-01	-8.2008	-51.242534	0.000758	7.578027	2.567505	-0.060496
1208	6.0350e-01	-8.2297	-51.496620	0.000637	6.365543	2.156704	-0.050817
1209	6.0400e-01	-8.2762	-51.811201	0.000788	7.881148	2.670205	-0.062916
1210	6.0450e-01	-8.3147	-52.065286	0.000637	6.365543	2.156704	-0.050817
1211	6.0500e-01	-8.3516	-52.230643	0.000414	4.142655	1.403569	-0.033071
1212	6.0550e-01	-8.3950	-52.295173	0.000162	1.616646	0.547734	-0.012906
1213	6.0600e-01	-8.4399	-52.508927	0.000536	5.355139	1.814370	-0.042751
1214	6.0650e-01	-8.4768	-52.589589	0.000202	2.020807	0.684668	-0.016132
1215	6.0700e-01	-8.5137	-52.936436	0.000869	8.689471	2.944073	-0.069369
1216	6.0750e-01	-8.5650	-53.061462	0.000313	3.132251	1.061235	-0.025005
1217	6.0800e-01	-8.5939	-53.315547	0.000637	6.365543	2.156704	-0.050817
1218	6.0850e-01	-8.6404	-53.549467	0.000586	5.860341	1.985537	-0.046784
1219	6.0900e-01	-8.6853	-53.827750	0.000697	6.971785	2.362105	-0.055657
1220	6.0950e-01	-8.7158	-54.013273	0.000465	4.647857	1.574736	-0.037105
1221	6.1000e-01	-8.7527	-54.182663	0.000424	4.243695	1.437803	-0.033878
1222	6.1050e-01	-8.7896	-54.339954	0.000394	3.940574	1.335103	-0.031458
1223	6.1100e-01	-8.8329	-54.755363	0.001041	10.407157	3.526040	-0.083082
1224	6.1150e-01	-8.8730	-54.896522	0.000354	3.536413	1.198169	-0.028232
1225	6.1200e-01	-8.9099	-55.182872	0.000717	7.173866	2.430571	-0.057270
1226	6.1250e-01	-8.9532	-55.493420	0.000778	7.780108	2.635972	-0.062110
1227	6.1300e-01	-8.9997	-55.525685	0.000081	0.808323	0.273867	-0.006453
1228	6.1350e-01	-9.0334	-55.719274	0.000485	4.849937	1.643203	-0.038718
1229	6.1400e-01	-9.0848	-55.892697	0.000434	4.344736	1.472036	-0.034685
1230	6.1450e-01	-9.1153	-56.106451	0.000536	5.355139	1.814370	-0.042751
1231	6.1500e-01	-9.1586	-56.469430	0.000909	9.093633	3.081006	-0.072596
1232	6.1550e-01	-9.1971	-56.542026	0.000182	1.818727	0.616201	-0.014519
1233	6.1600e-01	-9.2308	-56.860641	0.000798	7.982189	2.704439	-0.063723
1234	6.1650e-01	-9.2805	-57.066329	0.000515	5.153058	1.745903	-0.041138
1235	6.1700e-01	-9.3126	-57.255884	0.000475	4.748897	1.608970	-0.037911
1236	6.1750e-01	-9.3543	-57.417208	0.000404	4.041614	1.369336	-0.032265
1237	6.1800e-01	-9.4040	-57.522069	0.000263	2.627049	0.890068	-0.020972
1238	6.1850e-01	-9.4329	-57.764055	0.000606	6.062422	2.054004	-0.048397
1239	6.1900e-01	-9.4794	-58.114934	0.000879	8.790511	2.978306	-0.070176
1240	6.1950e-01	-9.5147	-58.280291	0.000414	4.142655	1.403569	-0.033071
1241	6.2000e-01	-9.5628	-58.485979	0.000515	5.153058	1.745903	-0.041138
1242	6.2050e-01	-9.5997	-58.582774	0.000242	2.424969	0.821602	-0.019359
1243	6.2100e-01	-9.6334	-58.784429	0.000505	5.052018	1.711670	-0.040331
1244	6.2150e-01	-9.6735	-59.002216	0.000546	5.456180	1.848604	-0.043557
1245	6.2200e-01	-9.7184	-59.264367	0.000657	6.567624	2.225171	-0.052430
1246	6.2250e-01	-9.7569	-59.220003	-0.000111	-1.111444	-0.376567	0.008873
1247	6.2300e-01	-9.7938	-59.486188	0.000667	6.668664	2.259404	-0.053237
1248	6.2350e-01	-9.8339	-59.748339	0.000657	6.567624	2.225171	-0.052430
1249	6.2400e-01	-9.8708	-60.062921	0.000788	7.881148	2.670205	-0.062916
1250	6.2450e-01	-9.9190	-60.147616	0.000212	2.121848	0.718901	-0.016939
1251	6.2500e-01	-9.9591	-60.260543	0.000283	2.829130	0.958535	-0.022585
1252	6.2550e-01	-9.9960	-60.607389	0.000869	8.689471	2.944073	-0.069369
1253	6.2600e-01	-10.0377	-60.990534	0.000960	9.598834	3.252173	-0.076629
1254	6.2650e-01	-10.0682	-61.115560	0.000313	3.132251	1.061235	-0.025005
1255	6.2700e-01	-10.1211	-61.240586	0.000313	3.132251	1.061235	-0.025005
1256	6.2750e-01	-10.1596	-61.240586	-0.000000	-0.000000	-0.000000	0.000000
1257	6.2800e-01	-10.1949	-61.518870	0.000697	6.971785	2.362105	-0.055657
1258	6.2850e-01	-10.2366	-61.821352	0.000758	7.578027	2.567505	-0.060496
1259	6.2900e-01	-10.2783	-61.994775	0.000434	4.344736	1.472036	-0.034685
1260	6.2950e-01	-10.3136	-62.200463	0.000515	5.153058	1.745903	-0.041138
1261	6.3000e-01	-10.3489	-62.329522	0.000323	3.233292	1.095469	-0.025812
1262	6.3050e-01	-10.3906	-62.708634	0.000950	9.497794	3.217940	-0.075822
1263	6.3100e-01	-10.4355	-63.144208	0.001091	10.912359	3.697207	-0.087115
1264	6.3150e-01	-10.4724	-63.144208	-0.000000	-0.000000	-0.000000	0.000000
1265	6.3200e-01	-10.5157	-63.208738	0.000162	1.616646	0.547734	-0.012906
1266	6.3250e-01	-10.5575	-63.660445	0.001132	11.316521	3.834141	-0.090341
1267	6.3300e-01	-10.6024	-63.636246	-0.000061	-0.606242	-0.205400	0.004840
1268	6.3350e-01	-10.6457	-63.781438	0.000364	3.637453	1.232402	-0.029038
1269	6.3400e-01	-10.6714	-64.063755	0.000707	7.072825	2.396338	-0.056463
1270	6.3450e-01	-10.7195	-64.184748	0.000303	3.031211	1.027002	-0.024199
1271	6.3500e-01	-10.7516	-64.269443	0.000212	2.121848	0.718901	-0.016939
1272	6.3550e-01	-10.7997	-64.640488	0.000930	9.295713	3.149473	-0.074209
1273	6.3600e-01	-10.8350	-64.866341	0.000566	5.658260	1.917070	-0.045171
1274	6.3650e-01	-10.8703	-64.987334	0.000303	3.031211	1.027002	-0.024199
1275	6.3700e-01	-10.9136	-65.366446	0.000950	9.497794	3.217940	-0.075822
1276	6.3750e-01	-10.9569	-65.483405	0.000293	2.930170	0.992769	-0.023392
1277	6.3800e-01	-11.0018	-65.620531	0.000344	3.435372	1.163936	-0.027425
1278	6.3850e-01	-11.0291	-65.701193	0.000202	2.020807	0.684668	-0.016132
1279	6.3900e-01	-11.0772	-65.955278	0.000637	6.365543	2.156704	-0.050817
1280	6.3950e-01	-11.1173	-66.298091	0.000859	8.588431	2.909839	-0.068563
1281	6.4000e-01	-11.1606	-66.540077	0.000606	6.062422	2.054004	-0.048397
1282	6.4050e-01	-11.1975	-66.560243	0.000051	0.505202	0.171167	-0.004033
1283	6.4100e-01	-11.2328	-66.640905	0.000202	2.020807	0.684668	-0.016132
1284	6.4150e-01	-11.2713	-66.959520	0.000798	7.982189	2.704439	-0.063723
1285	6.4200e-01	-11.3130	-67.193439	0.000586	5.860341	1.985537	-0.046784
1286	6.4250e-01	-11.3644	-67.330565	0.000344	3.435372	1.163936	-0.027425
1287	6.4300e-01	-11.3901	-67.592716	0.000657	6.567624	2.225171	-0.052430
1288	6.4350e-01	-11.4318	-67.786305	0.000485	4.849937	1.643203	-0.038718
1289	6.4400e-01	-11.4847	-67.830669	0.000111	1.111444	0.376567	-0.008873
1290	6.4450e-01	-11.5200	-67.991993	0.000404	4.041614	1.369336	-0.032265
1291	6.4500e-01	-11.5569	-68.322707	0.000829	8.285310	2.807139	-0.066143
1292	6.4550e-01	-11.5954	-68.617123	0.000738	7.375946	2.499038	-0.058883
1293	6.4600e-01	-11.6355	-68.730050	0.000283	2.829130	0.958535	-0.022585
1294	6.4650e-01	-11.6772	-69.048665	0.000798	7.982189	2.704439	-0.063723
1295	6.4700e-01	-11.7173	-69.072863	0.000061	0.606242	0.205400	-0.004840
1296	6.4750e-01	-11.7622	-69.306783	0.000586	5.860341	1.985537	-0.046784
1297	6.4800e-01	-11.7975	-69.443908	0.000344	3.435372	1.163936	-0.027425
1298	6.4850e-01	-11.8392	-69.851251	0.001021	10.205077	3.457574	-0.081469
1299	6.4900e-01	-11.8761	-70.032741	0.000455	4.546816	1.540503	-0.036298
1300	6.4950e-01	-11.9194	-70.093237	0.000152	1.515605	0.513501	-0.012099
1301	6.5000e-01	-11.9580	-70.306991	0.000536	5.355139	1.814370	-0.042751
1302	6.5050e-01	-12.0109	-70.210197	-0.000242	-2.424969	-0.821602	0.019359
1303	6.5100e-01	-12.0334	-70.399753	0.000475	4.748897	1.608970	-0.037911
1304	6.5150e-01	-12.0799	-70.782897	0.000960	9.598834	3.252173	-0.076629
1305	6.5200e-01	-12.1232	-70.871625	0.000222	2.222888	0.753135	-0.017746
1306	6.5250e-01	-12.1473	-71.238637	0.000919	9.194673	3.115240	-0.073402
1307	6.5300e-01	-12.2034	-71.323332	0.000212	2.121848	0.718901	-0.016939
1308	6.5350e-01	-12.2323	-71.625815	0.000758	7.578027	2.567505	-0.060496
1309	6.5400e-01	-12.2788	-71.702444	0.000192	1.919767	0.650435	-0.015326
1310	6.5450e-01	-12.3157	-71.879900	0.000445	4.445776	1.506270	-0.035491
1311	6.5500e-01	-12.3606	-72.025091	0.000364	3.637453	1.232402	-0.029038
1312	6.5550e-01	-12.4023	-72.222713	0.000495	4.950978	1.677437	-0.039524
1313	6.5600e-01	-12.4296	-72.581659	0.000899	8.992592	3.046773	-0.071789
1314	6.5650e-01	-12.4777	-72.734917	0.000384	3.839534	1.300869	-0.030652
1315	6.5700e-01	-12.5210	-73.154359	0.001051	10.508198	3.560274	-0.083888
1316	6.5750e-01	-12.5579	-73.335848	0.000455	4.546816	1.540503	-0.036298
1317	6.5800e-01	-12.5996	-73.384246	0.000121	1.212484	0.410801	-0.009679
1318	6.5850e-01	-12.6349	-73.553636	0.000424	4.243695	1.437803	-0.033878
1319	6.5900e-01	-12.6750	-73.811754	0.000647	6.466583	2.190938	-0.051624
1320	6.5950e-01	-12.7216	-73.989210	0.000445	4.445776	1.506270	-0.035491
1321	6.6000e-01	-12.7504	-74.029541	0.000101	1.010404	0.342334	-0.008066
1322	6.6050e-01	-12.7954	-74.267494	0.000596	5.961381	2.019771	-0.047591
1323	6.6100e-01	-12.8403	-74.453017	0.000465	4.647857	1.574736	-0.037105
1324	6.6150e-01	-12.8868	-74.824062	0.000930	9.295713	3.149473	-0.074209
1325	6.6200e-01	-12.9125	-74.860360	0.000091	0.909363	0.308101	-0.007260
1326	6.6250e-01	-12.9526	-75.114445	0.000637	6.365543	2.156704	-0.050817
1327	6.6300e-01	-12.9927	-75.304001	0.000475	4.748897	1.608970	-0.037911
1328	6.6350e-01	-13.0312	-75.465324	0.000404	4.041614	1.369336	-0.032265
1329	6.6400e-01	-13.0777	-75.513722	0.000121	1.212484	0.410801	-0.009679
1330	6.6450e-01	-13.1130	-75.731509	0.000546	5.456180	1.848604	-0.043557
1331	6.6500e-01	-13.1531	-75.989627	0.000647	6.466583	2.190938	-0.051624
1332	6.6550e-01	-13.2028	-75.981561	-0.000020	-0.202081	-0.068467	0.001613
1333	6.6600e-01	-13.2317	-76.316308	0.000839	8.386350	2.841372	-0.066949
1334	6.6650e-01	-13.2814	-76.594592	0.000697	6.971785	2.362105	-0.055657
1335	6.6700e-01	-13.3167	-76.691386	0.000242	2.424969	0.821602	-0.019359
1336	6.6750e-01	-13.3520	-76.860777	0.000424	4.243695	1.437803	-0.033878
1337	6.6800e-01	-13.3986	-77.098729	0.000596	5.961381	2.019771	-0.047591
1338	6.6850e-01	-13.4322	-77.223755	0.000313	3.132251	1.061235	-0.025005
1339	6.6900e-01	-13.4772	-77.502039	0.000697	6.971785	2.362105	-0.055657
1340	6.6950e-01	-13.5189	-77.606900	0.000263	2.627049	0.890068	-0.020972
1341	6.7000e-01	-13.5606	-77.647231	0.000101	1.010404	0.342334	-0.008066
1342	6.7050e-01	-13.5959	-77.957779	0.000778	7.780108	2.635972	-0.062110
1343	6.7100e-01	-13.6392	-78.030375	0.000182	1.818727	0.616201	-0.014519
1344	6.7150e-01	-13.6793	-78.284460	0.000637	6.365543	2.156704	-0.050817
1345	6.7200e-01	-13.7146	-78.590976	0.000768	7.679068	2.601738	-0.061303
1346	6.7250e-01	-13.7547	-78.917657	0.000818	8.184269	2.772906	-0.065336
1347	6.7300e-01	-13.8044	-79.010418	0.000232	2.323928	0.787368	-0.018552
1348	6.7350e-01	-13.8461	-78.957988	-0.000131	-1.313525	-0.445034	0.010486
1349	6.7400e-01	-13.8750	-78.974120	0.000040	0.404161	0.136934	-0.003226
1350	6.7450e-01	-13.9151	-79.437927	0.001162	11.619642	3.936841	-0.092761
1351	6.7500e-01	-13.9488	-79.389529	-0.000121	-1.212484	-0.410801	0.009679
1352	6.7550e-01	-13.9889	-79.663780	0.000687	6.870745	2.327871	-0.054850
1353	6.7600e-01	-14.0290	-79.958196	0.000738	7.375946	2.499038	-0.058883
1354	6.7650e-01	-14.0787	-79.998527	0.000101	1.010404	0.342334	-0.008066
1355	6.7700e-01	-14.1205	-80.200182	0.000505	5.052018	1.711670	-0.040331
1356	6.7750e-01	-14.1574	-80.555095	0.000889	8.891552	3.012539	-0.070983
1357	6.7800e-01	-14.1910	-80.740617	0.000465	4.647857	1.574736	-0.037105
1358	6.7850e-01	-14.2424	-80.833379	0.000232	2.323928	0.787368	-0.018552
1359	6.7900e-01	-14.2777	-81.031001	0.000495	4.950978	1.677437	-0.039524
1360	6.7950e-01	-14.3226	-81.349615	0.000798	7.982189	2.704439	-0.063723
1361	6.8000e-01	-14.3659	-81.615800	0.000667	6.668664	2.259404	-0.053237
1362	6.8050e-01	-14.3884	-81.635965	0.000051	0.505202	0.171167	-0.004033
1363	6.8100e-01	-14.4445	-81.837620	0.000505	5.052018	1.711670	-0.040331
1364	6.8150e-01	-14.4830	-82.031209	0.000485	4.849937	1.643203	-0.038718
1365	6.8200e-01	-14.5167	-82.382089	0.000879	8.790511	2.978306	-0.070176
1366	6.8250e-01	-14.5504	-82.410320	0.000071	0.707283	0.239634	-0.005646
1367	6.8300e-01	-14.5985	-82.515181	0.000263	2.627049	0.890068	-0.020972
1368	6.8350e-01	-14.6274	-82.809597	0.000738	7.375946	2.499038	-0.058883
1369	6.8400e-01	-14.6835	-82.894292	0.000212	2.121848	0.718901	-0.016939
1370	6.8450e-01	-14.7124	-83.128212	0.000586	5.860341	1.985537	-0.046784
1371	6.8500e-01	-14.7541	-83.390363	0.000657	6.567624	2.225171	-0.052430
1372	6.8550e-01	-14.8023	-83.237106	-0.000384	-3.839534	-1.300869	0.030652
1373	6.8600e-01	-14.8343	-83.567820	0.000829	8.285310	2.807139	-0.066143
1374	6.8650e-01	-14.8728	-83.761408	0.000485	4.849937	1.643203	-0.038718
1375	6.8700e-01	-14.9226	-84.104222	0.000859	8.588431	2.909839	-0.068563
1376	6.8750e-01	-14.9595	-84.209082	0.000263	2.627049	0.890068	-0.020972
1377	6.8800e-01	-14.9980	-84.269579	0.000152	1.515605	0.513501	-0.012099
1378	6.8850e-01	-15.0365	-84.447035	0.000445	4.445776	1.506270	-0.035491
1379	6.8900e-01	-15.0814	-84.624491	0.000445	4.445776	1.506270	-0.035491
1380	6.8950e-01	-15.1199	-84.676922	0.000131	1.313525	0.445034	-0.010486
1381	6.9000e-01	-15.1616	-85.261721	0.001465	14.650852	4.963843	-0.116960
1382	6.9050e-01	-15.1921	-85.398846	0.000344	3.435372	1.163936	-0.027425
1383	6.9100e-01	-15.2418	-85.431111	0.000081	0.808323	0.273867	-0.006453
1384	6.9150e-01	-15.2771	-85.773925	0.000859	8.588431	2.909839	-0.068563
1385	6.9200e-01	-15.3124	-85.854586	0.000202	2.020807	0.684668	-0.016132
1386	6.9250e-01	-15.3541	-86.088506	0.000586	5.860341	1.985537	-0.046784
1387	6.9300e-01	-15.3926	-86.237731	0.000374	3.738493	1.266636	-0.029845
1388	6.9350e-01	-15.4439	-86.314360	0.000192	1.919767	0.650435	-0.015326
1389	6.9400e-01	-15.4792	-86.495849	0.000455	4.546816	1.540503	-0.036298
1390	6.9450e-01	-15.5145	-86.810431	0.000788	7.881148	2.670205	-0.062916
1391	6.9500e-01	-15.5514	-87.004020	0.000485	4.849937	1.643203	-0.038718
1392	6.9550e-01	-15.6028	-87.052417	0.000121	1.212484	0.410801	-0.009679
1393	6.9600e-01	-15.6397	-87.241972	0.000475	4.748897	1.608970	-0.037911
1394	6.9650e-01	-15.6750	-87.524289	0.000707	7.072825	2.396338	-0.056463
1395	6.9700e-01	-15.7247	-87.576720	0.000131	1.313525	0.445034	-0.010486
1396	6.9750e-01	-15.7584	-87.762242	0.000465	4.647857	1.574736	-0.037105
1397	6.9800e-01	-15.8001	-87.875169	0.000283	2.829130	0.958535	-0.022585
1398	6.9850e-01	-15.8386	-88.076824	0.000505	5.052018	1.711670	-0.040331
1399	6.9900e-01	-15.8771	-88.205883	0.000323	3.233292	1.095469	-0.025812
1400	6.9950e-01	-15.9204	-88.447869	0.000606	6.062422	2.054004	-0.048397
1401	7.0000e-01	-15.9669	-88.673722	0.000566	5.658260	1.917070	-0.045171
1402	7.0050e-01	-15.9974	-88.831013	0.000394	3.940574	1.335103	-0.031458
1403	7.0100e-01	-16.0343	-89.101231	0.000677	6.769704	2.293638	-0.054044
1404	7.0150e-01	-16.0776	-89.214158	0.000283	2.829130	0.958535	-0.022585
1405	7.0200e-01	-16.1306	-89.270621	0.000141	1.414565	0.479268	-0.011293
1406	7.0250e-01	-16.1530	-89.488408	0.000546	5.456180	1.848604	-0.043557
1407	7.0300e-01	-16.1995	-89.657798	0.000424	4.243695	1.437803	-0.033878
1408	7.0350e-01	-16.2413	-89.863487	0.000515	5.153058	1.745903	-0.041138
1409	7.0400e-01	-16.2733	-89.960281	0.000242	2.424969	0.821602	-0.019359
1410	7.0450e-01	-16.3215	-90.319227	0.000899	8.992592	3.046773	-0.071789
1411	7.0500e-01	-16.3503	-90.464418	0.000364	3.637453	1.232402	-0.029038
1412	7.0550e-01	-16.3969	-90.593477	0.000323	3.233292	1.095469	-0.025812
1413	7.0600e-01	-16.4418	-90.722537	0.000323	3.233292	1.095469	-0.025812
1414	7.0650e-01	-16.4771	-90.916125	0.000485	4.849937	1.643203	-0.038718
1415	7.0700e-01	-16.5108	-90.980655	0.000162	1.616646	0.547734	-0.012906
1416	7.0750e-01	-16.5541	-91.097615	0.000293	2.930170	0.992769	-0.023392
1417	7.0800e-01	-16.6022	-91.408163	0.000778	7.780108	2.635972	-0.062110
1418	7.0850e-01	-16.6439	-91.718712	0.000778	7.780108	2.635972	-0.062110
1419	7.0900e-01	-16.6904	-91.863903	0.000364	3.637453	1.232402	-0.029038
1420	7.0950e-01	-16.7161	-91.964731	0.000253	2.526009	0.855835	-0.020165
1421	7.1000e-01	-16.7514	-92.400306	0.001091	10.912359	3.697207	-0.087115
1422	7.1050e-01	-16.7947	-92.480967	0.000202	2.020807	0.684668	-0.016132
1423	7.1100e-01	-16.8444	-92.694722	0.000536	5.355139	1.814370	-0.042751
1424	7.1150e-01	-16.8781	-92.884277	0.000475	4.748897	1.608970	-0.037911
1425	7.1200e-01	-16.9198	-93.154495	0.000677	6.769704	2.293638	-0.054044
1426	7.1250e-01	-16.9535	-93.037535	-0.000293	-2.930170	-0.992769	0.023392
1427	7.1300e-01	-17.0033	-93.287587	0.000626	6.264502	2.122471	-0.050010
1428	7.1350e-01	-17.0273	-93.396481	0.000273	2.728090	0.924302	-0.021779
1429	7.1400e-01	-17.0658	-93.711063	0.000788	7.881148	2.670205	-0.062916
1430	7.1450e-01	-17.1043	-93.892552	0.000455	4.546816	1.540503	-0.036298
1431	7.1500e-01	-17.1525	-94.033710	0.000354	3.536413	1.198169	-0.028232
1432	7.1550e-01	-17.1942	-94.275696	0.000606	6.062422	2.054004	-0.048397
1433	7.1600e-01	-17.2407	-94.243432	-0.000081	-0.808323	-0.273867	0.006453
1434	7.1650e-01	-17.2728	-94.638675	0.000990	9.901955	3.354873	-0.079049
1435	7.1700e-01	-17.3209	-94.771768	0.000333	3.334332	1.129702	-0.026618
1436	7.1750e-01	-17.3658	-94.937125	0.000414	4.142655	1.403569	-0.033071
1437	7.1800e-01	-17.3947	-95.114581	0.000445	4.445776	1.506270	-0.035491
1438	7.1850e-01	-17.4348	-95.207342	0.000232	2.323928	0.787368	-0.018552
1439	7.1900e-01	-17.4749	-95.489659	0.000707	7.072825	2.396338	-0.056463
1440	7.1950e-01	-17.5214	-95.546122	0.000141	1.414565	0.479268	-0.011293
1441	7.2000e-01	-17.5535	-95.884903	0.000849	8.487390	2.875606	-0.067756
1442	7.2050e-01	-17.6000	-96.038160	0.000384	3.839534	1.300869	-0.030652
1443	7.2100e-01	-17.6417	-96.155120	0.000293	2.930170	0.992769	-0.023392
1444	7.2150e-01	-17.6674	-96.332577	0.000445	4.445776	1.506270	-0.035491
1445	7.2200e-01	-17.7123	-96.469702	0.000344	3.435372	1.163936	-0.027425
1446	7.2250e-01	-17.7492	-96.756052	0.000717	7.173866	2.430571	-0.057270
1447	7.2300e-01	-17.7893	-96.868979	0.000283	2.829130	0.958535	-0.022585
1448	7.2350e-01	-17.8407	-96.885111	0.000040	0.404161	0.136934	-0.003226
1449	7.2400e-01	-17.8808	-97.110965	0.000566	5.658260	1.917070	-0.045171
1450	7.2450e-01	-17.9097	-97.304553	0.000485	4.849937	1.643203	-0.038718
1451	7.2500e-01	-17.9562	-97.518308	0.000536	5.355139	1.814370	-0.042751
1452	7.2550e-01	-17.9963	-97.889353	0.000930	9.295713	3.149473	-0.074209
1453	7.2600e-01	-18.0380	-98.216034	0.000818	8.184269	2.772906	-0.065336
1454	7.2650e-01	-18.0621	-98.280563	0.000162	1.616646	0.547734	-0.012906
1455	7.2700e-01	-18.1230	-98.397523	0.000293	2.930170	0.992769	-0.023392
1456	7.2750e-01	-18.1551	-98.486251	0.000222	2.222888	0.753135	-0.017746
1457	7.2800e-01	-18.1968	-98.708072	0.000556	5.557220	1.882837	-0.044364
1458	7.2850e-01	-18.2273	-98.950058	0.000606	6.062422	2.054004	-0.048397
1459	7.2900e-01	-18.2786	-99.042819	0.000232	2.323928	0.787368	-0.018552
1460	7.2950e-01	-18.3187	-99.022653	-0.000051	-0.505202	-0.171167	0.004033
1461	7.3000e-01	-18.3588	-99.381599	0.000899	8.992592	3.046773	-0.071789
1462	7.3050e-01	-18.3957	-99.611486	0.000576	5.759301	1.951304	-0.045977
1463	7.3100e-01	-18.4407	-99.720379	0.000273	2.728090	0.924302	-0.021779
1464	7.3150e-01	-18.4792	-99.974465	0.000637	6.365543	2.156704	-0.050817
1465	7.3200e-01	-18.5048	-100.159987	0.000465	4.647857	1.574736	-0.037105
1466	7.3250e-01	-18.5610	-100.401973	0.000606	6.062422	2.054004	-0.048397
1467	7.3300e-01	-18.6027	-100.381808	-0.000051	-0.505202	-0.171167	0.004033
1468	7.3350e-01	-18.6396	-100.668158	0.000717	7.173866	2.430571	-0.057270
1469	7.3400e-01	-18.6636	-100.736720	0.000172	1.717686	0.581968	-0.013713
1470	7.3450e-01	-18.7134	-101.244891	0.001273	12.731086	4.313409	-0.101634
1471	7.3500e-01	-18.7567	-101.313453	0.000172	1.717686	0.581968	-0.013713
1472	7.3550e-01	-18.8032	-101.361851	0.000121	1.212484	0.410801	-0.009679
1473	7.3600e-01	-18.8321	-101.668366	0.000768	7.679068	2.601738	-0.061303
1474	7.3650e-01	-18.8754	-101.736929	0.000172	1.717686	0.581968	-0.013713
1475	7.3700e-01	-18.9187	-101.861955	0.000313	3.132251	1.061235	-0.025005
1476	7.3750e-01	-18.9636	-102.204768	0.000859	8.588431	2.909839	-0.068563
1477	7.3800e-01	-19.0037	-102.269298	0.000162	1.616646	0.547734	-0.012906
1478	7.3850e-01	-19.0406	-102.604045	0.000839	8.386350	2.841372	-0.066949
1479	7.3900e-01	-19.0791	-102.704872	0.000253	2.526009	0.855835	-0.020165
1480	7.3950e-01	-19.1209	-102.914594	0.000525	5.254099	1.780137	-0.041944
1481	7.4000e-01	-19.1561	-102.991222	0.000192	1.919767	0.650435	-0.015326
1482	7.4050e-01	-19.1979	-103.237241	0.000616	6.163462	2.088237	-0.049204
1483	7.4100e-01	-19.2428	-103.567956	0.000829	8.285310	2.807139	-0.066143
1484	7.4150e-01	-19.2749	-103.624419	0.000141	1.414565	0.479268	-0.011293
1485	7.4200e-01	-19.3214	-104.233417	0.001526	15.257095	5.169244	-0.121800
1486	7.4250e-01	-19.3519	-103.934968	-0.000748	-7.476987	-2.533272	0.059690
1487	7.4300e-01	-19.3920	-104.072093	0.000344	3.435372	1.163936	-0.027425
1488	7.4350e-01	-19.4273	-104.245516	0.000434	4.344736	1.472036	-0.034685
1489	7.4400e-01	-19.4722	-104.576230	0.000829	8.285310	2.807139	-0.066143
1490	7.4450e-01	-19.5059	-104.785951	0.000525	5.254099	1.780137	-0.041944
1491	7.4500e-01	-19.5652	-104.785951	-0.000000	-0.000000	-0.000000	0.000000
1492	7.4550e-01	-19.5909	-105.048103	0.000657	6.567624	2.225171	-0.052430
1493	7.4600e-01	-19.6406	-105.342519	0.000738	7.375946	2.499038	-0.058883
1494	7.4650e-01	-19.6855	-105.362684	0.000051	0.505202	0.171167	-0.004033
1495	7.4700e-01	-19.7176	-105.608703	0.000616	6.163462	2.088237	-0.049204
1496	7.4750e-01	-19.7593	-105.757928	0.000374	3.738493	1.266636	-0.029845
1497	7.4800e-01	-19.7962	-106.040245	0.000707	7.072825	2.396338	-0.056463
1498	7.4850e-01	-19.8379	-106.137039	0.000242	2.424969	0.821602	-0.019359
1499	7.4900e-01	-19.8748	-106.532283	0.000990	9.901955	3.354873	-0.079049
1500	7.4950e-01	-19.9214	-106.504051	-0.000071	-0.707283	-0.239634	0.005646
1501	7.5000e-01	-19.9534	-106.786368	0.000707	7.072825	2.396338	-0.056463
1502	7.5050e-01	-19.9567	-106.649243	-0.000344	-3.435372	-1.163936	0.027425
1503	7.5100e-01	-19.9278	-106.717806	-0.000172	-1.717686	-0.581968	-0.013713
1504	7.5150e-01	-19.9021	-106.479853	0.000596	5.961381	2.019771	0.047591
1505	7.5200e-01	-19.8556	-106.241900	0.000596	5.961381	2.019771	0.047591
1506	7.5250e-01	-19.8235	-106.338694	-0.000242	-2.424969	-0.821602	-0.019359
1507	7.5300e-01	-19.7850	-106.463720	-0.000313	-3.132251	-1.061235	-0.025005
1508	7.5350e-01	-19.7401	-106.346760	0.000293	2.930170	0.992769	0.023392
1509	7.5400e-01	-19.6920	-106.020080	0.000818	8.184269	2.772906	0.065336
1510	7.5450e-01	-19.6567	-106.044278	-0.000061	-0.606242	-0.205400	-0.004840
1511	7.5500e-01	-19.6150	-105.903120	0.000354	3.536413	1.198169	0.028232
1512	7.5550e-01	-19.5861	-105.842623	0.000152	1.515605	0.513501	0.012099
1513	7.5600e-01	-19.5508	-105.705498	0.000344	3.435372	1.163936	0.027425
1514	7.5650e-01	-19.4978	-105.592571	0.000283	2.829130	0.958535	0.022585
1515	7.5700e-01	-19.4609	-105.544174	0.000121	1.212484	0.410801	0.009679
1516	7.5750e-01	-19.4241	-105.407049	0.000344	3.435372	1.163936	0.027425
1517	7.5800e-01	-19.3872	-105.156996	0.000626	6.264502	2.122471	0.050010
1518	7.5850e-01	-19.3358	-104.842415	0.000788	7.881148	2.670205	0.062916
1519	7.5900e-01	-19.2957	-104.858547	-0.000040	-0.404161	-0.136934	-0.003226
1520	7.5950e-01	-19.2604	-105.044070	-0.000465	-4.647857	-1.574736	-0.037105
1521	7.6000e-01	-19.2235	-104.882746	0.000404	4.041614	1.369336	0.032265
1522	7.6050e-01	-19.1866	-104.535899	0.000869	8.689471	2.944073	0.069369
1523	7.6100e-01	-19.1417	-104.427006	0.000273	2.728090	0.924302	0.021779
1524	7.6150e-01	-19.1064	-104.281814	0.000364	3.637453	1.232402	0.029038
1525	7.6200e-01	-19.0727	-104.136622	0.000364	3.637453	1.232402	0.029038
1526	7.6250e-01	-19.0246	-104.088225	0.000121	1.212484	0.410801	0.009679
1527	7.6300e-01	-18.9797	-104.051927	0.000091	0.909363	0.308101	0.007260
1528	7.6350e-01	-18.9412	-103.934968	0.000293	2.930170	0.992769	0.023392
1529	7.6400e-01	-18.9075	-103.826074	0.000273	2.728090	0.924302	0.021779
1530	7.6450e-01	-18.8642	-103.809941	0.000040	0.404161	0.136934	0.003226
1531	7.6500e-01	-18.8289	-103.684915	0.000313	3.132251	1.061235	0.025005
1532	7.6550e-01	-18.7791	-103.463095	0.000556	5.557220	1.882837	0.044364
1533	7.6600e-01	-18.7455	-103.330003	0.000333	3.334332	1.129702	0.026618
1534	7.6650e-01	-18.7102	-103.055752	0.000687	6.870745	2.327871	0.054850
1535	7.6700e-01	-18.6749	-102.922660	0.000333	3.334332	1.129702	0.026618
1536	7.6750e-01	-18.6171	-102.979123	-0.000141	-1.414565	-0.479268	-0.011293
1537	7.6800e-01	-18.5882	-102.817799	0.000404	4.041614	1.369336	0.032265
1538	7.6850e-01	-18.5546	-102.676641	0.000354	3.536413	1.198169	0.028232
1539	7.6900e-01	-18.5032	-102.608078	0.000172	1.717686	0.581968	0.013713
1540	7.6950e-01	-18.4631	-102.479019	0.000323	3.233292	1.095469	0.025812
1541	7.7000e-01	-18.4230	-102.237033	0.000606	6.062422	2.054004	0.048397
1542	7.7050e-01	-18.3925	-102.063610	0.000434	4.344736	1.472036	0.034685
1543	7.7100e-01	-18.3476	-101.974882	0.000222	2.222888	0.753135	0.017746
1544	7.7150e-01	-18.2979	-101.773227	0.000505	5.052018	1.711670	0.040331
1545	7.7200e-01	-18.2642	-101.732896	0.000101	1.010404	0.342334	0.008066
1546	7.7250e-01	-18.2209	-101.785326	-0.000131	-1.313525	-0.445034	-0.010486
1547	7.7300e-01	-18.1920	-101.446546	0.000849	8.487390	2.875606	0.067756
1548	7.7350e-01	-18.1551	-101.220692	0.000566	5.658260	1.917070	0.045171
1549	7.7400e-01	-18.1054	-101.152129	0.000172	1.717686	0.581968	0.013713
1550	7.7450e-01	-18.0588	-101.063401	0.000222	2.222888	0.753135	0.017746
1551	7.7500e-01	-18.0171	-101.103732	-0.000101	-1.010404	-0.342334	-0.008066
1552	7.7550e-01	-17.9867	-100.724621	0.000950	9.497794	3.217940	0.075822
1553	7.7600e-01	-17.9417	-100.490701	0.000586	5.860341	1.985537	0.046784
1554	7.7650e-01	-17.9000	-100.297113	0.000485	4.849937	1.643203	0.038718
1555	7.7700e-01	-17.8631	-100.216451	0.000202	2.020807	0.684668	0.016132
1556	7.7750e-01	-17.8150	-100.196285	0.000051	0.505202	0.171167	0.004033
1557	7.7800e-01	-17.7813	-100.095458	0.000253	2.526009	0.855835	0.020165
1558	7.7850e-01	-17.7428	-99.990597	0.000263	2.627049	0.890068	0.020972
1559	7.7900e-01	-17.7043	-99.756677	0.000586	5.860341	1.985537	0.046784
1560	7.7950e-01	-17.6658	-99.676015	0.000202	2.020807	0.684668	0.016132
1561	7.8000e-01	-17.6225	-99.684082	-0.000020	-0.202081	-0.068467	-0.001613
1562	7.8050e-01	-17.5712	-99.555022	0.000323	3.233292	1.095469	0.025812
1563	7.8100e-01	-17.5391	-99.389665	0.000414	4.142655	1.403569	0.033071
1564	7.8150e-01	-17.4942	-99.075084	0.000788	7.881148	2.670205	0.062916
1565	7.8200e-01	-17.4621	-98.917793	0.000394	3.940574	1.335103	0.031458
1566	7.8250e-01	-17.4204	-98.695972	0.000556	5.557220	1.882837	0.044364
1567	7.8300e-01	-17.3803	-98.776634	-0.000202	-2.020807	-0.684668	-0.016132
1568	7.8350e-01	-17.3385	-98.470119	0.000768	7.679068	2.601738	0.061303
1569	7.8400e-01	-17.3000	-98.357192	0.000283	2.829130	0.958535	0.022585
1570	7.8450e-01	-17.2680	-98.296696	0.000152	1.515605	0.513501	0.012099
1571	7.8500e-01	-17.2246	-98.248299	0.000121	1.212484	0.410801	0.009679
1572	7.8550e-01	-17.1861	-97.832889	0.001041	10.407157	3.526040	0.083082
1573	7.8600e-01	-17.1492	-97.715929	0.000293	2.930170	0.992769	0.023392
1574	7.8650e-01	-17.1011	-97.510241	0.000515	5.153058	1.745903	0.041138
1575	7.8700e-01	-17.0658	-97.534440	-0.000061	-0.606242	-0.205400	-0.004840
1576	7.8750e-01	-17.0161	-97.369083	0.000414	4.142655	1.403569	0.033071
1577	7.8800e-01	-16.9808	-97.127097	0.000606	6.062422	2.054004	0.048397
1578	7.8850e-01	-16.9375	-97.026270	0.000253	2.526009	0.855835	0.020165
1579	7.8900e-01	-16.9054	-97.010137	0.000040	0.404161	0.136934	0.003226
1580	7.8950e-01	-16.8557	-96.695556	0.000788	7.881148	2.670205	0.062916
1581	7.9000e-01	-16.8300	-96.522132	0.000434	4.344736	1.472036	0.034685
1582	7.9050e-01	-16.7819	-96.546331	-0.000061	-0.606242	-0.205400	-0.004840
1583	7.9100e-01	-16.7418	-96.453570	0.000232	2.323928	0.787368	0.018552
1584	7.9150e-01	-16.6969	-96.300312	0.000384	3.839534	1.300869	0.030652
1585	7.9200e-01	-16.6632	-96.126889	0.000434	4.344736	1.472036	0.034685
1586	7.9250e-01	-16.6182	-95.969598	0.000394	3.940574	1.335103	0.031458
1587	7.9300e-01	-16.5814	-95.723579	0.000616	6.163462	2.088237	0.049204
1588	7.9350e-01	-16.5396	-95.840539	-0.000293	-2.930170	-0.992769	-0.023392
1589	7.9400e-01	-16.4915	-95.542089	0.000748	7.476987	2.533272	0.059690
1590	7.9450e-01	-16.4594	-95.320269	0.000556	5.557220	1.882837	0.044364
1591	7.9500e-01	-16.4177	-95.187177	0.000333	3.334332	1.129702	0.026618
1592	7.9550e-01	-16.3792	-94.985522	0.000505	5.052018	1.711670	0.040331
1593	7.9600e-01	-16.3407	-94.787900	0.000495	4.950978	1.677437	0.039524
1594	7.9650e-01	-16.2958	-94.445087	0.000859	8.588431	2.909839	0.068563
1595	7.9700e-01	-16.2589	-94.517682	-0.000182	-1.818727	-0.616201	-0.014519
1596	7.9750e-01	-16.2172	-94.352325	0.000414	4.142655	1.403569	0.033071
1597	7.9800e-01	-16.1787	-94.291829	0.000152	1.515605	0.513501	0.012099
1598	7.9850e-01	-16.1498	-93.908684	0.000960	9.598834	3.252173	0.076629
1599	7.9900e-01	-16.1081	-94.037744	-0.000323	-3.233292	-1.095469	-0.025812
1600	7.9950e-01	-16.0584	-93.832056	0.000515	5.153058	1.745903	0.041138
1601	8.0000e-01	-16.0151	-93.569904	0.000657	6.567624	2.225171	0.052430
1602	8.0050e-01	-15.9733	-93.590070	-0.000051	-0.505202	-0.171167	-0.004033
1603	8.0100e-01	-15.9541	-93.529573	0.000152	1.515605	0.513501	0.012099
1604	8.0150e-01	-15.8996	-93.202892	0.000818	8.184269	2.772906	0.065336
1605	8.0200e-01	-15.8562	-93.142396	0.000152	1.515605	0.513501	0.012099
1606	8.0250e-01	-15.8274	-93.041568	0.000253	2.526009	0.855835	0.020165
1607	8.0300e-01	-15.7792	-92.662457	0.000950	9.497794	3.217940	0.075822
1608	8.0350e-01	-15.7375	-92.573729	0.000222	2.222888	0.753135	0.017746
1609	8.0400e-01	-15.6974	-92.368041	0.000515	5.153058	1.745903	0.041138
1610	8.0450e-01	-15.6589	-92.271246	0.000242	2.424969	0.821602	0.019359
1611	8.0500e-01	-15.6268	-92.190584	0.000202	2.020807	0.684668	0.016132
1612	8.0550e-01	-15.5755	-92.029260	0.000404	4.041614	1.369336	0.032265
1613	8.0600e-01	-15.5450	-91.763076	0.000667	6.668664	2.259404	0.053237
1614	8.0650e-01	-15.5081	-91.646116	0.000293	2.930170	0.992769	0.023392
1615	8.0700e-01	-15.4600	-91.589653	0.000141	1.414565	0.479268	0.011293
1616	8.0750e-01	-15.4215	-91.428329	0.000404	4.041614	1.369336	0.032265
1617	8.0800e-01	-15.3830	-91.428329	0.000000	0.000000	0.000000	0.000000
1618	8.0850e-01	-15.3429	-90.944357	0.001212	12.124843	4.108008	0.096794
1619	8.0900e-01	-15.2932	-90.928225	0.000040	0.404161	0.136934	0.003226
1620	8.0950e-01	-15.2643	-90.714470	0.000536	5.355139	1.814370	0.042751
1621	8.1000e-01	-15.2290	-90.565246	0.000374	3.738493	1.266636	0.029845
1622	8.1050e-01	-15.1793	-90.339392	0.000566	5.658260	1.917070	0.045171
1623	8.1100e-01	-15.1359	-90.343425	-0.000010	-0.101040	-0.034233	-0.000807
1624	8.1150e-01	-15.1055	-90.032877	0.000778	7.780108	2.635972	0.062110
1625	8.1200e-01	-15.0541	-89.919950	0.000283	2.829130	0.958535	0.022585
1626	8.1250e-01	-15.0236	-89.738460	0.000455	4.546816	1.540503	0.036298
1627	8.1300e-01	-14.9819	-89.516640	0.000556	5.557220	1.882837	0.044364
1628	8.1350e-01	-14.9402	-89.435978	0.000202	2.020807	0.684668	0.016132
1629	8.1400e-01	-14.8969	-89.512607	-0.000192	-1.919767	-0.650435	-0.015326
1630	8.1450e-01	-14.8648	-89.177860	0.000839	8.386350	2.841372	0.066949
1631	8.1500e-01	-14.8199	-88.738252	0.001101	11.013399	3.731441	0.087922
1632	8.1550e-01	-14.7894	-88.742285	-0.000010	-0.101040	-0.034233	-0.000807
1633	8.1600e-01	-14.7445	-88.693888	0.000121	1.212484	0.410801	0.009679
1634	8.1650e-01	-14.6964	-88.681789	0.000030	0.303121	0.102700	0.002420
1635	8.1700e-01	-14.6579	-88.447869	0.000586	5.860341	1.985537	0.046784
1636	8.1750e-01	-14.6162	-88.246214	0.000505	5.052018	1.711670	0.040331
1637	8.1800e-01	-14.5793	-87.907434	0.000849	8.487390	2.875606	0.067756
1638	8.1850e-01	-14.5408	-87.911467	-0.000010	-0.101040	-0.034233	-0.000807
1639	8.1900e-01	-14.4991	-87.717878	0.000485	4.849937	1.643203	0.038718
1640	8.1950e-01	-14.4654	-87.310535	0.001021	10.205077	3.457574	0.081469
1641	8.2000e-01	-14.4204	-87.463793	-0.000384	-3.839534	-1.300869	-0.030652
1642	8.2050e-01	-14.3852	-87.302469	0.000404	4.041614	1.369336	0.032265
1643	8.2100e-01	-14.3418	-87.048384	0.000637	6.365543	2.156704	0.050817
1644	8.2150e-01	-14.3033	-86.838663	0.000525	5.254099	1.780137	0.041944
1645	8.2200e-01	-14.2552	-86.774133	0.000162	1.616646	0.547734	0.012906
1646	8.2250e-01	-14.2215	-86.491816	0.000707	7.072825	2.396338	0.056463
1647	8.2300e-01	-14.1798	-86.350658	0.000354	3.536413	1.198169	0.028232
1648	8.2350e-01	-14.1445	-86.503915	-0.000384	-3.839534	-1.300869	-0.030652
1649	8.2400e-01	-14.1044	-86.112705	0.000980	9.800915	3.320640	0.078242
1650	8.2450e-01	-14.0691	-86.023977	0.000222	2.222888	0.753135	0.017746
1651	8.2500e-01	-14.0226	-85.866686	0.000394	3.940574	1.335103	0.031458
1652	8.2550e-01	-13.9905	-85.677130	0.000475	4.748897	1.608970	0.037911
1653	8.2600e-01	-13.9328	-85.406913	0.000677	6.769704	2.293638	0.054044
1654	8.2650e-01	-13.9039	-85.213324	0.000485	4.849937	1.643203	0.038718
1655	8.2700e-01	-13.8654	-85.035867	0.000445	4.445776	1.506270	0.035491
1656	8.2750e-01	-13.8237	-84.781782	0.000637	6.365543	2.156704	0.050817
1657	8.2800e-01	-13.7820	-84.789848	-0.000020	-0.202081	-0.068467	-0.001613
1658	8.2850e-01	-13.7386	-84.656756	0.000333	3.334332	1.129702	0.026618
1659	8.2900e-01	-13.6905	-84.370406	0.000717	7.173866	2.430571	0.057270
1660	8.2950e-01	-13.6697	-84.164718	0.000515	5.153058	1.745903	0.041138
1661	8.3000e-01	-13.6199	-84.128420	0.000091	0.909363	0.308101	0.007260
1662	8.3050e-01	-13.5798	-83.991295	0.000344	3.435372	1.163936	0.027425
1663	8.3100e-01	-13.5397	-83.676713	0.000788	7.881148	2.670205	0.062916
1664	8.3150e-01	-13.5092	-83.684779	-0.000020	-0.202081	-0.068467	-0.001613
1665	8.3200e-01	-13.4579	-83.575886	0.000273	2.728090	0.924302	0.021779
1666	8.3250e-01	-13.4194	-83.204841	0.000930	9.295713	3.149473	0.074209
1667	8.3300e-01	-13.3857	-82.870094	0.000839	8.386350	2.841372	0.066949
1668	8.3350e-01	-13.3312	-82.934623	-0.000162	-1.616646	-0.547734	-0.012906
1669	8.3400e-01	-13.2975	-82.644240	0.000727	7.274906	2.464805	0.058077
1670	8.3450e-01	-13.2590	-82.507115	0.000344	3.435372	1.163936	0.027425
1671	8.3500e-01	-13.2173	-82.527280	-0.000051	-0.505202	-0.171167	-0.004033
1672	8.3550e-01	-13.1756	-82.107838	0.001051	10.508198	3.560274	0.083888
1673	8.3600e-01	-13.1387	-82.019110	0.000222	2.222888	0.753135	0.017746
1674	8.3650e-01	-13.0954	-82.031209	-0.000030	-0.303121	-0.102700	-0.002420
1675	8.3700e-01	-13.0633	-81.708561	0.000808	8.083229	2.738672	0.064530
1676	8.3750e-01	-13.0183	-81.700495	0.000020	0.202081	0.068467	0.001613
1677	8.3800e-01	-12.9831	-81.256854	0.001111	11.114440	3.765674	0.088728
1678	8.3850e-01	-12.9349	-81.224589	0.000081	0.808323	0.273867	0.006453
1679	8.3900e-01	-12.8996	-80.833379	0.000980	9.800915	3.320640	0.078242
1680	8.3950e-01	-12.8611	-80.825313	0.000020	0.202081	0.068467	0.001613
1681	8.4000e-01	-12.8178	-80.655922	0.000424	4.243695	1.437803	0.033878
1682	8.4050e-01	-12.7841	-80.571227	0.000212	2.121848	0.718901	0.016939
1683	8.4100e-01	-12.7424	-80.571227	0.000000	0.000000	0.000000	0.000000
1684	8.4150e-01	-12.7039	-80.038858	0.001334	13.337328	4.518809	0.106474
1685	8.4200e-01	-12.6670	-80.038858	0.000000	0.000000	0.000000	0.000000
1686	8.4250e-01	-12.6237	-79.825104	0.000536	5.355139	1.814370	0.042751
1687	8.4300e-01	-12.5916	-79.744442	0.000202	2.020807	0.684668	0.016132
1688	8.4350e-01	-12.5419	-79.647648	0.000242	2.424969	0.821602	0.019359
1689	8.4400e-01	-12.5002	-79.417761	0.000576	5.759301	1.951304	0.045977
1690	8.4450e-01	-12.4649	-79.070915	0.000869	8.689471	2.944073	0.069369
1691	8.4500e-01	-12.4264	-78.921690	0.000374	3.738493	1.266636	0.029845
1692	8.4550e-01	-12.3847	-78.691803	0.000576	5.759301	1.951304	0.045977
1693	8.4600e-01	-12.3382	-78.695836	-0.000010	-0.101040	-0.034233	-0.000807
1694	8.4650e-01	-12.3029	-78.478049	0.000546	5.456180	1.848604	0.043557
1695	8.4700e-01	-12.2612	-78.248163	0.000576	5.759301	1.951304	0.045977
1696	8.4750e-01	-12.2259	-77.929548	0.000798	7.982189	2.704439	0.063723
1697	8.4800e-01	-12.1858	-77.965846	-0.000091	-0.909363	-0.308101	-0.007260
1698	8.4850e-01	-12.1392	-77.877117	0.000222	2.222888	0.753135	0.017746
1699	8.4900e-01	-12.1007	-77.457675	0.001051	10.508198	3.560274	0.083888
1700	8.4950e-01	-12.0638	-77.493973	-0.000091	-0.909363	-0.308101	-0.007260
1701	8.5000e-01	-12.0173	-77.139060	0.000889	8.891552	3.012539	0.070983
1702	8.5050e-01	-11.9820	-77.026134	0.000283	2.829130	0.958535	0.022585
1703	8.5100e-01	-11.9499	-76.868843	0.000394	3.940574	1.335103	0.031458
1704	8.5150e-01	-11.9082	-76.836578	0.000081	0.808323	0.273867	0.006453
1705	8.5200e-01	-11.8617	-76.634923	0.000505	5.052018	1.711670	0.040331
1706	8.5250e-01	-11.8248	-76.485698	0.000374	3.738493	1.266636	0.029845
1707	8.5300e-01	-11.7799	-76.271944	0.000536	5.355139	1.814370	0.042751
1708	8.5350e-01	-11.7446	-76.114653	0.000394	3.940574	1.335103	0.031458
1709	8.5400e-01	-11.7077	-75.884767	0.000576	5.759301	1.951304	0.045977
1710	8.5450e-01	-11.6564	-75.715377	0.000424	4.243695	1.437803	0.033878
1711	8.5500e-01	-11.6275	-75.509689	0.000515	5.153058	1.745903	0.041138
1712	8.5550e-01	-11.5842	-75.441126	0.000172	1.717686	0.581968	0.013713
1713	8.5600e-01	-11.5344	-75.312067	0.000323	3.233292	1.095469	0.025812
1714	8.5650e-01	-11.4991	-74.908757	0.001010	10.104036	3.423340	0.080662
1715	8.5700e-01	-11.4590	-74.727267	0.000455	4.546816	1.540503	0.036298
1716	8.5750e-01	-11.4302	-74.481248	0.000616	6.163462	2.088237	0.049204
1717	8.5800e-01	-11.3868	-74.497381	-0.000040	-0.404161	-0.136934	-0.003226
1718	8.5850e-01	-11.3387	-74.336057	0.000404	4.041614	1.369336	0.032265
1719	8.5900e-01	-11.3050	-74.150534	0.000465	4.647857	1.574736	0.037105
1720	8.5950e-01	-11.2601	-73.997277	0.000384	3.839534	1.300869	0.030652
1721	8.6000e-01	-11.2312	-73.827886	0.000424	4.243695	1.437803	0.033878
1722	8.6050e-01	-11.1911	-73.723026	0.000263	2.627049	0.890068	0.020972
1723	8.6100e-01	-11.1398	-73.198723	0.001314	13.135247	4.450342	0.104861
1724	8.6150e-01	-11.1093	-73.037399	0.000404	4.041614	1.369336	0.032265
1725	8.6200e-01	-11.0580	-73.005134	0.000081	0.808323	0.273867	0.006453
1726	8.6250e-01	-11.0227	-72.738950	0.000667	6.668664	2.259404	0.053237
1727	8.6300e-01	-10.9842	-72.690553	0.000121	1.212484	0.410801	0.009679
1728	8.6350e-01	-10.9489	-72.299342	0.000980	9.800915	3.320640	0.078242
1729	8.6400e-01	-10.9040	-72.311441	-0.000030	-0.303121	-0.102700	-0.002420
1730	8.6450e-01	-10.8591	-72.263044	0.000121	1.212484	0.410801	0.009679
1731	8.6500e-01	-10.8157	-71.964595	0.000748	7.476987	2.533272	0.059690
1732	8.6550e-01	-10.7837	-71.742774	0.000556	5.557220	1.882837	0.044364
1733	8.6600e-01	-10.7355	-71.553219	0.000475	4.748897	1.608970	0.037911
1734	8.6650e-01	-10.7099	-71.387862	0.000414	4.142655	1.403569	0.033071
1735	8.6700e-01	-10.6617	-71.157975	0.000576	5.759301	1.951304	0.045977
1736	8.6750e-01	-10.6345	-70.730467	0.001071	10.710278	3.628741	0.085502
1737	8.6800e-01	-10.5815	-70.734500	-0.000010	-0.101040	-0.034233	-0.000807
1738	8.6850e-01	-10.5462	-70.609474	0.000313	3.132251	1.061235	0.025005
1739	8.6900e-01	-10.5109	-70.609474	0.000000	0.000000	0.000000	0.000000
1740	8.6950e-01	-10.4612	-70.185998	0.001061	10.609238	3.594507	0.084695
1741	8.7000e-01	-10.4179	-70.073072	0.000283	2.829130	0.958535	0.022585
1742	8.7050e-01	-10.3858	-69.823020	0.000626	6.264502	2.122471	0.050010
1743	8.7100e-01	-10.3425	-69.798821	0.000061	0.606242	0.205400	0.004840
1744	8.7150e-01	-10.2928	-69.524570	0.000687	6.870745	2.327871	0.054850
1745	8.7200e-01	-10.2543	-69.318882	0.000515	5.153058	1.745903	0.041138
1746	8.7250e-01	-10.2238	-69.209989	0.000273	2.728090	0.924302	0.021779
1747	8.7300e-01	-10.1708	-68.980102	0.000576	5.759301	1.951304	0.045977
1748	8.7350e-01	-10.1468	-68.746182	0.000586	5.860341	1.985537	0.046784
1749	8.7400e-01	-10.0986	-68.576792	0.000424	4.243695	1.437803	0.033878
1750	8.7450e-01	-10.0666	-68.471932	0.000263	2.627049	0.890068	0.020972
1751	8.7500e-01	-10.0216	-68.181548	0.000727	7.274906	2.464805	0.058077
1752	8.7550e-01	-9.9783	-67.802437	0.000950	9.497794	3.217940	0.075822
1753	8.7600e-01	-9.9382	-67.701610	0.000253	2.526009	0.855835	0.020165
1754	8.7650e-01	-9.9013	-67.649179	0.000131	1.313525	0.445034	0.010486
1755	8.7700e-01	-9.8628	-67.475756	0.000434	4.344736	1.472036	0.034685
1756	8.7750e-01	-9.8195	-67.282167	0.000485	4.849937	1.643203	0.038718
1757	8.7800e-01	-9.7826	-67.120843	0.000404	4.041614	1.369336	0.032265
1758	8.7850e-01	-9.7457	-66.931288	0.000475	4.748897	1.608970	0.037911
1759	8.7900e-01	-9.7056	-66.717534	0.000536	5.355139	1.814370	0.042751
1760	8.7950e-01	-9.6559	-66.350522	0.000919	9.194673	3.115240	0.073402
1761	8.8000e-01	-9.6254	-66.310191	0.000101	1.010404	0.342334	0.008066
1762	8.8050e-01	-9.5805	-66.269860	0.000101	1.010404	0.342334	0.008066
1763	8.8100e-01	-9.5420	-65.951245	0.000798	7.982189	2.704439	0.063723
1764	8.8150e-01	-9.5083	-65.588266	0.000909	9.093633	3.081006	0.072596
1765	8.8200e-01	-9.4666	-65.539869	0.000121	1.212484	0.410801	0.009679
1766	8.8250e-01	-9.4217	-65.430975	0.000273	2.728090	0.924302	0.021779
1767	8.8300e-01	-9.3767	-65.374512	0.000141	1.414565	0.479268	0.011293
1768	8.8350e-01	-9.3479	-64.979268	0.000990	9.901955	3.354873	0.079049
1769	8.8400e-01	-9.3094	-64.809878	0.000424	4.243695	1.437803	0.033878
1770	8.8450e-01	-9.2612	-64.563859	0.000616	6.163462	2.088237	0.049204
1771	8.8500e-01	-9.2179	-64.402535	0.000404	4.041614	1.369336	0.032265
1772	8.8550e-01	-9.1794	-64.338005	0.000162	1.616646	0.547734	0.012906
1773	8.8600e-01	-9.1489	-64.055689	0.000707	7.072825	2.396338	0.056463
1774	8.8650e-01	-9.1072	-63.817736	0.000596	5.961381	2.019771	0.047591
1775	8.8700e-01	-9.0639	-63.660445	0.000394	3.940574	1.335103	0.031458
1776	8.8750e-01	-9.0270	-63.499121	0.000404	4.041614	1.369336	0.032265
1777	8.8800e-01	-8.9853	-63.281334	0.000546	5.456180	1.848604	0.043557
1778	8.8850e-01	-8.9404	-63.011116	0.000677	6.769704	2.293638	0.054044
1779	8.8900e-01	-8.9035	-62.958686	0.000131	1.313525	0.445034	0.010486
1780	8.8950e-01	-8.8634	-62.627972	0.000829	8.285310	2.807139	0.066143
1781	8.9000e-01	-8.8233	-62.781229	-0.000384	-3.839534	-1.300869	-0.030652
1782	8.9050e-01	-8.7944	-62.422284	0.000899	8.992592	3.046773	0.071789
1783	8.9100e-01	-8.7447	-62.216596	0.000515	5.153058	1.745903	0.041138
1784	8.9150e-01	-8.6982	-61.785054	0.001081	10.811319	3.662974	0.086308
1785	8.9200e-01	-8.6548	-61.639862	0.000364	3.637453	1.232402	0.029038
1786	8.9250e-01	-8.6244	-61.583399	0.000141	1.414565	0.479268	0.011293
1787	8.9300e-01	-8.5842	-61.397877	0.000465	4.647857	1.574736	0.037105
1788	8.9350e-01	-8.5441	-61.228486	0.000424	4.243695	1.437803	0.033878
1789	8.9400e-01	-8.4992	-61.079262	0.000374	3.738493	1.266636	0.029845
1790	8.9450e-01	-8.4559	-60.821143	0.000647	6.466583	2.190938	0.051624
1791	8.9500e-01	-8.4222	-60.716283	0.000263	2.627049	0.890068	0.020972
1792	8.9550e-01	-8.3853	-60.482363	0.000586	5.860341	1.985537	0.046784
1793	8.9600e-01	-8.3436	-60.212146	0.000677	6.769704	2.293638	0.054044
1794	8.9650e-01	-8.3003	-60.010491	0.000505	5.052018	1.711670	0.040331
1795	8.9700e-01	-8.2602	-59.582982	0.001071	10.710278	3.628741	0.085502
1796	8.9750e-01	-8.2217	-59.546684	0.000091	0.909363	0.308101	0.007260
1797	8.9800e-01	-8.1864	-59.449890	0.000242	2.424969	0.821602	0.019359
1798	8.9850e-01	-8.1431	-59.038514	0.001031	10.306117	3.491807	0.082275
1799	8.9900e-01	-8.1062	-58.873157	0.000414	4.142655	1.403569	0.033071
1800	8.9950e-01	-8.0693	-58.792495	0.000202	2.020807	0.684668	0.016132
1801	9.0000e-01	-8.0308	-58.643270	0.000374	3.738493	1.266636	0.029845
1802	9.0050e-01	-7.9843	-58.538410	0.000263	2.627049	0.890068	0.020972
1803	9.0100e-01	-7.9458	-58.167365	0.000930	9.295713	3.149473	0.074209
1804	9.0150e-01	-7.9025	-57.897147	0.000677	6.769704	2.293638	0.054044
1805	9.0200e-01	-7.8688	-57.780187	0.000293	2.930170	0.992769	0.023392
1806	9.0250e-01	-7.8174	-57.497870	0.000707	7.072825	2.396338	0.056463
1807	9.0300e-01	-7.7982	-57.453506	0.000111	1.111444	0.376567	0.008873
1808	9.0350e-01	-7.7356	-57.259917	0.000485	4.849937	1.643203	0.038718
1809	9.0400e-01	-7.7035	-57.001799	0.000647	6.466583	2.190938	0.051624
1810	9.0450e-01	-7.6602	-56.909038	0.000232	2.323928	0.787368	0.018552
1811	9.0500e-01	-7.6185	-56.614622	0.000738	7.375946	2.499038	0.058883
1812	9.0550e-01	-7.5864	-56.412967	0.000505	5.052018	1.711670	0.040331
1813	9.0600e-01	-7.5447	-56.110484	0.000758	7.578027	2.567505	0.060496
1814	9.0650e-01	-7.4966	-55.892697	0.000546	5.456180	1.848604	0.043557
1815	9.0700e-01	-7.4597	-55.650711	0.000606	6.062422	2.054004	0.048397
1816	9.0750e-01	-7.4308	-55.420824	0.000576	5.759301	1.951304	0.045977
1817	9.0800e-01	-7.3731	-55.408725	0.000030	0.303121	0.102700	0.002420
1818	9.0850e-01	-7.3378	-55.287732	0.000303	3.031211	1.027002	0.024199
1819	9.0900e-01	-7.3089	-54.920720	0.000919	9.194673	3.115240	0.073402
1820	9.0950e-01	-7.2608	-54.896522	0.000061	0.606242	0.205400	0.004840
1821	9.1000e-01	-7.2207	-54.678734	0.000546	5.456180	1.848604	0.043557
1822	9.1050e-01	-7.1838	-54.279458	0.001000	10.002996	3.389107	0.079855
1823	9.1100e-01	-7.1469	-54.021339	0.000647	6.466583	2.190938	0.051624
1824	9.1150e-01	-7.1084	-53.763221	0.000647	6.466583	2.190938	0.051624
1825	9.1200e-01	-7.0522	-53.646261	0.000293	2.930170	0.992769	0.023392
1826	9.1250e-01	-7.0137	-53.557533	0.000222	2.222888	0.753135	0.017746
1827	9.1300e-01	-6.9832	-53.311514	0.000616	6.163462	2.088237	0.049204
1828	9.1350e-01	-6.9495	-53.073561	0.000596	5.961381	2.019771	0.047591
1829	9.1400e-01	-6.9014	-52.819476	0.000637	6.365543	2.156704	0.050817
1830	9.1450e-01	-6.8517	-52.646053	0.000434	4.344736	1.472036	0.034685
1831	9.1500e-01	-6.8100	-52.295173	0.000879	8.790511	2.978306	0.070176
1832	9.1550e-01	-6.7811	-52.254842	0.000101	1.010404	0.342334	0.008066
1833	9.1600e-01	-6.7458	-52.041088	0.000536	5.355139	1.814370	0.042751
1834	9.1650e-01	-6.7025	-52.020922	0.000051	0.505202	0.171167	0.004033
1835	9.1700e-01	-6.6576	-51.799102	0.000556	5.557220	1.882837	0.044364
1836	9.1750e-01	-6.6159	-51.661977	0.000344	3.435372	1.163936	0.027425
1837	9.1800e-01	-6.5870	-51.294965	0.000919	9.194673	3.115240	0.073402
1838	9.1850e-01	-6.5372	-51.061045	0.000586	5.860341	1.985537	0.046784
1839	9.1900e-01	-6.5068	-50.843258	0.000546	5.456180	1.848604	0.043557
1840	9.1950e-01	-6.4635	-50.512543	0.000829	8.285310	2.807139	0.066143
1841	9.2000e-01	-6.4298	-50.318955	0.000485	4.849937	1.643203	0.038718
1842	9.2050e-01	-6.3800	-50.113267	0.000515	5.153058	1.745903	0.041138
1843	9.2100e-01	-6.3463	-49.996307	0.000293	2.930170	0.992769	0.023392
1844	9.2150e-01	-6.3207	-49.814817	0.000455	4.546816	1.540503	0.036298
1845	9.2200e-01	-6.2501	-49.528467	0.000717	7.173866	2.430571	0.057270
1846	9.2250e-01	-6.2308	-49.367143	0.000404	4.041614	1.369336	0.032265
1847	9.2300e-01	-6.1827	-49.322779	0.000111	1.111444	0.376567	0.008873
1848	9.2350e-01	-6.1378	-49.064661	0.000647	6.466583	2.190938	0.051624
1849	9.2400e-01	-6.1073	-48.879139	0.000465	4.647857	1.574736	0.037105
1850	9.2450e-01	-6.0592	-48.479862	0.001000	10.002996	3.389107	0.079855
1851	9.2500e-01	-6.0175	-48.278207	0.000505	5.052018	1.711670	0.040331
1852	9.2550e-01	-5.9806	-48.076552	0.000505	5.052018	1.711670	0.040331
1853	9.2600e-01	-5.9517	-47.741805	0.000839	8.386350	2.841372	0.066949
1854	9.2650e-01	-5.9068	-47.552249	0.000475	4.748897	1.608970	0.037911
1855	9.2700e-01	-5.8715	-47.338495	0.000536	5.355139	1.814370	0.042751
1856	9.2750e-01	-5.8234	-47.205403	0.000333	3.334332	1.129702	0.026618
1857	9.2800e-01	-5.7913	-47.023913	0.000455	4.546816	1.540503	0.036298
1858	9.2850e-01	-5.7448	-46.987615	0.000091	0.909363	0.308101	0.007260
1859	9.2900e-01	-5.7095	-46.781927	0.000515	5.153058	1.745903	0.041138
1860	9.2950e-01	-5.6565	-46.689166	0.000232	2.323928	0.787368	0.018552
1861	9.3000e-01	-5.6164	-46.330220	0.000899	8.992592	3.046773	0.071789
1862	9.3050e-01	-5.5875	-45.951109	0.000950	9.497794	3.217940	0.075822
1863	9.3100e-01	-5.5394	-45.822050	0.000323	3.233292	1.095469	0.025812
1864	9.3150e-01	-5.5009	-45.535700	0.000717	7.173866	2.430571	0.057270
1865	9.3200e-01	-5.4640	-45.213052	0.000808	8.083229	2.738672	0.064530
1866	9.3250e-01	-5.4303	-45.285648	-0.000182	-1.818727	-0.616201	-0.014519
1867	9.3300e-01	-5.3822	-44.983165	0.000758	7.578027	2.567505	0.060496
1868	9.3350e-01	-5.3453	-44.616153	0.000919	9.194673	3.115240	0.073402
1869	9.3400e-01	-5.3052	-44.382234	0.000586	5.860341	1.985537	0.046784
1870	9.3450e-01	-5.2651	-44.233009	0.000374	3.738493	1.266636	0.029845
1871	9.3500e-01	-5.2314	-44.043453	0.000475	4.748897	1.608970	0.037911
1872	9.3550e-01	-5.1849	-43.857931	0.000465	4.647857	1.574736	0.037105
1873	9.3600e-01	-5.1400	-43.615945	0.000606	6.062422	2.054004	0.048397
1874	9.3650e-01	-5.1111	-43.289264	0.000818	8.184269	2.772906	0.065336
1875	9.3700e-01	-5.0581	-43.156172	0.000333	3.334332	1.129702	0.026618
1876	9.3750e-01	-5.0148	-43.103741	0.000131	1.313525	0.445034	0.010486
1877	9.3800e-01	-4.9827	-42.773027	0.000829	8.285310	2.807139	0.066143
1878	9.3850e-01	-4.9491	-42.527008	0.000616	6.163462	2.088237	0.049204
1879	9.3900e-01	-4.9106	-42.143864	0.000960	9.598834	3.252173	0.076629
1880	9.3950e-01	-4.8592	-41.897845	0.000616	6.163462	2.088237	0.049204
1881	9.4000e-01	-4.8239	-41.813150	0.000212	2.121848	0.718901	0.016939
1882	9.4050e-01	-4.7854	-41.623594	0.000475	4.748897	1.608970	0.037911
1883	9.4100e-01	-4.7485	-41.147688	0.001192	11.922763	4.039541	0.095181
1884	9.4150e-01	-4.7036	-41.159788	-0.000030	-0.303121	-0.102700	-0.002420
1885	9.4200e-01	-4.6731	-41.058960	0.000253	2.526009	0.855835	0.020165
1886	9.4250e-01	-4.6250	-40.792776	0.000667	6.668664	2.259404	0.053237
1887	9.4300e-01	-4.5865	-40.530624	0.000657	6.567624	2.225171	0.052430
1888	9.4350e-01	-4.5480	-40.107149	0.001061	10.609238	3.594507	0.084695
1889	9.4400e-01	-4.5079	-40.244274	-0.000344	-3.435372	-1.163936	-0.027425
1890	9.4450e-01	-4.4614	-40.280572	-0.000091	-0.909363	-0.308101	-0.007260
1891	9.4500e-01	-4.4197	-39.812733	0.001172	11.720682	3.971075	0.093568
1892	9.4550e-01	-4.3860	-39.373125	0.001101	11.013399	3.731441	0.087922
1893	9.4600e-01	-4.3443	-39.110974	0.000657	6.567624	2.225171	0.052430
1894	9.4650e-01	-4.3122	-38.731862	0.000950	9.497794	3.217940	0.075822
1895	9.4700e-01	-4.2624	-38.614903	0.000293	2.930170	0.992769	0.023392
1896	9.4750e-01	-4.2239	-38.493910	0.000303	3.031211	1.027002	0.024199
1897	9.4800e-01	-4.1822	-38.429380	0.000162	1.616646	0.547734	0.012906
1898	9.4850e-01	-4.1437	-38.627002	-0.000495	-4.950978	-1.677437	-0.039524
1899	9.4900e-01	-4.1004	-37.929276	0.001748	17.479983	5.922378	0.139545
1900	9.4950e-01	-4.0683	-37.642926	0.000717	7.173866	2.430571	0.057270
1901	9.5000e-01	-4.0218	-37.493701	0.000374	3.738493	1.266636	0.029845
1902	9.5050e-01	-3.9801	-37.396907	0.000242	2.424969	0.821602	0.019359
1903	9.5100e-01	-3.9480	-37.021829	0.000940	9.396754	3.183706	0.075016
1904	9.5150e-01	-3.8999	-36.739512	0.000707	7.072825	2.396338	0.056463
1905	9.5200e-01	-3.8614	-36.465261	0.000687	6.870745	2.327871	0.054850
1906	9.5250e-01	-3.8261	-36.195043	0.000677	6.769704	2.293638	0.054044
1907	9.5300e-01	-3.7812	-36.174878	0.000051	0.505202	0.171167	0.004033
1908	9.5350e-01	-3.7379	-35.940958	0.000586	5.860341	1.985537	0.046784
1909	9.5400e-01	-3.7090	-35.747369	0.000485	4.849937	1.643203	0.038718
1910	9.5450e-01	-3.6657	-35.396490	0.000879	8.790511	2.978306	0.070176
1911	9.5500e-01	-3.6304	-35.235166	0.000404	4.041614	1.369336	0.032265
1912	9.5550e-01	-3.5823	-34.977048	0.000647	6.466583	2.190938	0.051624
1913	9.5600e-01	-3.5421	-34.783459	0.000485	4.849937	1.643203	0.038718
1914	9.5650e-01	-3.4972	-34.618102	0.000414	4.142655	1.403569	0.033071
1915	9.5700e-01	-3.4716	-34.226891	0.000980	9.800915	3.320640	0.078242
1916	9.5750e-01	-3.4250	-34.097832	0.000323	3.233292	1.095469	0.025812
1917	9.5800e-01	-3.3865	-33.924409	0.000434	4.344736	1.472036	0.034685
1918	9.5850e-01	-3.3400	-33.513033	0.001031	10.306117	3.491807	0.082275
1919	9.5900e-01	-3.3015	-33.133922	0.000950	9.497794	3.217940	0.075822
1920	9.5950e-01	-3.2598	-32.980664	0.000384	3.839534	1.300869	0.030652
1921	9.6000e-01	-3.2213	-32.718512	0.000657	6.567624	2.225171	0.052430
1922	9.6050e-01	-3.1812	-32.617685	0.000253	2.526009	0.855835	0.020165
1923	9.6100e-01	-3.1395	-32.512824	0.000263	2.627049	0.890068	0.020972
1924	9.6150e-01	-3.1010	-32.295037	0.000546	5.456180	1.848604	0.043557
1925	9.6200e-01	-3.0577	-31.923992	0.000930	9.295713	3.149473	0.074209
1926	9.6250e-01	-3.0288	-31.875595	0.000121	1.212484	0.410801	0.009679
1927	9.6300e-01	-2.9887	-31.601344	0.000687	6.870745	2.327871	0.054850
1928	9.6350e-01	-2.9390	-31.149637	0.001132	11.316521	3.834141	0.090341
1929	9.6400e-01	-2.9005	-31.133505	0.000040	0.404161	0.136934	0.003226
1930	9.6450e-01	-2.8571	-30.988313	0.000364	3.637453	1.232402	0.029038
1931	9.6500e-01	-2.8331	-30.718096	0.000677	6.769704	2.293638	0.054044
1932	9.6550e-01	-2.7866	-30.447878	0.000677	6.769704	2.293638	0.054044
1933	9.6600e-01	-2.7481	-30.250256	0.000495	4.950978	1.677437	0.039524
1934	9.6650e-01	-2.7047	-29.935674	0.000788	7.881148	2.670205	0.062916
1935	9.6700e-01	-2.6630	-29.850979	0.000212	2.121848	0.718901	0.016939
1936	9.6750e-01	-2.6101	-29.504133	0.000869	8.689471	2.944073	0.069369
1937	9.6800e-01	-2.5812	-29.185518	0.000798	7.982189	2.704439	0.063723
1938	9.6850e-01	-2.5411	-29.125022	0.000152	1.515605	0.513501	0.012099
1939	9.6900e-01	-2.5026	-28.830605	0.000738	7.375946	2.499038	0.058883
1940	9.6950e-01	-2.4593	-28.536189	0.000738	7.375946	2.499038	0.058883
1941	9.7000e-01	-2.4256	-28.338567	0.000495	4.950978	1.677437	0.039524
1942	9.7050e-01	-2.3807	-27.971555	0.000919	9.194673	3.115240	0.073402
1943	9.7100e-01	-2.3358	-27.882827	0.000222	2.222888	0.753135	0.017746
1944	9.7150e-01	-2.3053	-27.560179	0.000808	8.083229	2.738672	0.064530
1945	9.7200e-01	-2.2700	-27.168969	0.000980	9.800915	3.320640	0.078242
1946	9.7250e-01	-2.2315	-27.112505	0.000141	1.414565	0.479268	0.011293
1947	9.7300e-01	-2.1785	-26.926983	0.000465	4.647857	1.574736	0.037105
1948	9.7350e-01	-2.1417	-26.652732	0.000687	6.870745	2.327871	0.054850
1949	9.7400e-01	-2.1064	-26.394614	0.000647	6.466583	2.190938	0.051624
1950	9.7450e-01	-2.0743	-26.096165	0.000748	7.476987	2.533272	0.059690
1951	9.7500e-01	-2.0261	-25.922741	0.000434	4.344736	1.472036	0.034685
1952	9.7550e-01	-1.9844	-25.636391	0.000717	7.173866	2.430571	0.057270
1953	9.7600e-01	-1.9379	-25.539597	0.000242	2.424969	0.821602	0.019359
1954	9.7650e-01	-1.9010	-25.305677	0.000586	5.860341	1.985537	0.046784
1955	9.7700e-01	-1.8641	-25.059658	0.000616	6.163462	2.088237	0.049204
1956	9.7750e-01	-1.8192	-24.813639	0.000616	6.163462	2.088237	0.049204
1957	9.7800e-01	-1.7791	-24.616017	0.000495	4.950978	1.677437	0.039524
1958	9.7850e-01	-1.7534	-24.285303	0.000829	8.285310	2.807139	0.066143
1959	9.7900e-01	-1.7053	-23.873927	0.001031	10.306117	3.491807	0.082275
1960	9.7950e-01	-1.6716	-23.809398	0.000162	1.616646	0.547734	0.012906
1961	9.8000e-01	-1.6283	-23.466584	0.000859	8.588431	2.909839	0.068563
1962	9.8050e-01	-1.5882	-23.244764	0.000556	5.557220	1.882837	0.044364
1963	9.8100e-01	-1.5385	-23.119738	0.000313	3.132251	1.061235	0.025005
1964	9.8150e-01	-1.5032	-22.797090	0.000808	8.083229	2.738672	0.064530
1965	9.8200e-01	-1.4582	-22.873719	-0.000192	-1.919767	-0.650435	-0.015326
1966	9.8250e-01	-1.4181	-22.462343	0.001031	10.306117	3.491807	0.082275
1967	9.8300e-01	-1.3828	-22.329250	0.000333	3.334332	1.129702	0.026618
1968	9.8350e-01	-1.3443	-22.006603	0.000808	8.083229	2.738672	0.064530
1969	9.8400e-01	-1.3026	-21.780749	0.000566	5.658260	1.917070	0.045171
1970	9.8450e-01	-1.2625	-21.446002	0.000839	8.386350	2.841372	0.066949
1971	9.8500e-01	-1.2192	-21.204016	0.000606	6.062422	2.054004	0.048397
1972	9.8550e-01	-1.1871	-21.030593	0.000434	4.344736	1.472036	0.034685
1973	9.8600e-01	-1.1374	-20.857169	0.000434	4.344736	1.472036	0.034685
1974	9.8650e-01	-1.1005	-20.667614	0.000475	4.748897	1.608970	0.037911
1975	9.8700e-01	-1.0684	-20.034417	0.001586	15.863337	5.374644	0.126639
1976	9.8750e-01	-1.0251	-19.784365	0.000626	6.264502	2.122471	0.050010
1977	9.8800e-01	-0.9802	-19.719836	0.000162	1.616646	0.547734	0.012906
1978	9.8850e-01	-0.9385	-19.352824	0.000919	9.194673	3.115240	0.073402
1979	9.8900e-01	-0.9096	-19.324592	0.000071	0.707283	0.239634	0.005646
1980	9.8950e-01	-0.8711	-18.985812	0.000849	8.487390	2.875606	0.067756
1981	9.9000e-01	-0.8214	-18.824488	0.000404	4.041614	1.369336	0.032265
1982	9.9050e-01	-0.7845	-18.586535	0.000596	5.961381	2.019771	0.047591
1983	9.9100e-01	-0.7396	-18.376814	0.000525	5.254099	1.780137	0.041944
1984	9.9150e-01	-0.7075	-18.211457	0.000414	4.142655	1.403569	0.033071
1985	9.9200e-01	-0.6609	-17.820246	0.000980	9.800915	3.320640	0.078242
1986	9.9250e-01	-0.6273	-17.618591	0.000505	5.052018	1.711670	0.040331
1987	9.9300e-01	-0.5823	-17.388705	0.000576	5.759301	1.951304	0.045977
1988	9.9350e-01	-0.5422	-17.211248	0.000445	4.445776	1.506270	0.035491
1989	9.9400e-01	-0.5021	-16.864402	0.000869	8.689471	2.944073	0.069369
1990	9.9450e-01	-0.4684	-16.485291	0.000950	9.497794	3.217940	0.075822
1991	9.9500e-01	-0.4187	-16.235238	0.000626	6.264502	2.122471	0.050010
1992	9.9550e-01	-0.3866	-16.150543	0.000212	2.121848	0.718901	0.016939
1993	9.9600e-01	-0.3353	-15.876293	0.000687	6.870745	2.327871	0.054850
1994	9.9650e-01	-0.3016	-15.537512	0.000849	8.487390	2.875606	0.067756
1995	9.9700e-01	-0.2759	-15.247129	0.000727	7.274906	2.464805	0.058077
1996	9.9750e-01	-0.2262	-15.081772	0.000414	4.142655	1.403569	0.033071
1997	9.9800e-01	-0.1877	-14.928514	0.000384	3.839534	1.300869	0.030652
1998	9.9850e-01	-0.1460	-14.553436	0.000940	9.396754	3.183706	0.075016
1999	9.9900e-01	-0.0979	-14.400179	0.000384	3.839534	1.300869	0.030652
2000	9.9950e-01	-0.0626	-14.271119	0.000323	3.233292	1.095469	0.025812
2001	1.0000e+00	-0.0209	-13.984769	0.000323	3.233292	1.095469	0.057270

PMax (uC/cm2):	1.16e+02
Pr (uC/cm2):	6.02e+00
-Pr (uC/cm2):	-4.37e+00
PLoss (uC/cm2):	-4.37e+00
-Vc:	-1.01e+00
C (Max-Eff) (nF):	5.82e-01
K (Eff):	1.97e+03
Vert. (+/-Pr) Shift (uC/cm2):	8.26e-01
Offset (uC/cm2):	9.61e+00

A (Loop Area - uC/cm2·Volts):	-1.76e-01



Hysteresis Version: 5.48.1 - Radiant Technologies, Inc., 1999 - 9/12/24

