»»»»»»»»»»»»»»»»»»»»»»»»»»»»»»»»»»»» Hysteresis ««««««««««««««««««««««««««««««««««««
»»»  Executed Version:	5.48.1
»»»  Vision Version:	5.48.4 (R)
»»»  Vision Compiled:	9/18/24
»»»  Driver Version:	5.47.0
»»»  Windows Version:	Windows 8 or 8.1
»»»  Processor Information:	x86 (AMD or Intel) - 32 Processors
»»»  Tester Name:	PMF21124-494 (100V)
»»»  Tester S/N:	PMF21124-494
»»»  Internal Amp Type:	100V RevK 270k
»»»  Internal Amp S/N:	iAB2-596/K     
»»»  Execution Count:	1
»»»»»»»»»»»»»»»»»»»»»»»»»»»»»»»»»»»»»»»»»»««««««««««««««««««««««««««««««««««««««««««

Stored:	6/18/2025 - 12:36:9
Configured:	06/18/25 09:47:30 AM
Executed:	06/18/25 12:35:40 PM

»»»»»»»»»»»»»»»»»»»»»»»»»»»»»»»»»»» Sample Info ««««««««««««««««««««««««««««««««««««
Sample Name:	
Lot Name:	
Wafer Name:	
Die Row/Column:	0/0
Capacitor Number:	0
Sample Area (cm2):	1.00e-04
Sample Thickness (microns):	3.00e-01

Amplifier:	Internal

»»»»»»»»»»»»»»»»»»»»»»»»»»»»»»»»»»» Tester Info «««««««««««««««««««««««««««««««««««
Tester Name:	PMF21124-494 (100V)
Tester Serial Number:	PMF21124-494
Return Signal Amp. Level:	0.19 [Index: 3]

»»»»»»»»»»»»»»»»»»»»»»»»»»»»»»»» Hysteresis Info ««««««««««««««««««««««««««««««««««
Task Name:	Hyst-554
Volts:	20.00
Field:	666.67 (kV/cm)
DCBias:	0.00
DCField:	0.00 (kV/cm)
Hysteresis Period (ms):	2.00e+02
Preset:	Enabled
Preset Delay (ms):	1.00e+03
Profile:	Standard Bipolar

»»»»»»»»»»»»»»»»»»»»»»»»»»»»»»»»»»»»»» Data «««««««««««««««««««««««««««««««««««««««
Points:	2009

Valid Data

Point	Time (ms)	Drive Voltage	Measured Polarization (uC/cm2)	Capacitance (uF)	Normalized Capacitance (uF/cm2)	Dielectric Constant	Instantaneous Current (mA)
   1	0.0000e+00	0.0032	-8.356871	0.000355	3.547127	1.201799	0.000142
   2	9.9500e-02	0.0257	-8.215571	0.000355	3.547127	1.201799	0.000142
   3	1.9900e-01	0.0786	-8.005640	0.000527	5.270017	1.785530	0.000211
   4	2.9850e-01	0.1187	-7.799746	0.000517	5.168671	1.751193	0.000207
   5	3.9800e-01	0.1588	-7.565592	0.000588	5.878096	1.991553	0.000235
   6	4.9750e-01	0.1925	-7.343550	0.000557	5.574057	1.888542	0.000223
   7	5.9700e-01	0.2310	-7.161879	0.000456	4.560592	1.545170	0.000183
   8	6.9650e-01	0.2791	-6.899465	0.000659	6.587521	2.231913	0.000264
   9	7.9600e-01	0.3128	-6.758165	0.000355	3.547127	1.201799	0.000142
  10	8.9550e-01	0.3626	-6.499789	0.000649	6.486175	2.197576	0.000260
  11	9.9500e-01	0.3962	-6.289857	0.000527	5.270017	1.785530	0.000211
  12	1.0945e+00	0.4219	-6.075889	0.000537	5.371364	1.819867	0.000215
  13	1.1940e+00	0.4749	-5.861921	0.000537	5.371364	1.819867	0.000215
  14	1.2935e+00	0.5150	-5.635841	0.000568	5.675403	1.922879	0.000227
  15	1.3930e+00	0.5503	-5.429948	0.000517	5.168671	1.751193	0.000207
  16	1.4925e+00	0.5920	-5.199831	0.000578	5.776750	1.957216	0.000231
  17	1.5920e+00	0.6369	-4.993937	0.000517	5.168671	1.751193	0.000207
  18	1.6915e+00	0.6722	-4.771894	0.000557	5.574057	1.888542	0.000223
  19	1.7910e+00	0.7123	-4.578112	0.000486	4.864631	1.648182	0.000195
  20	1.8905e+00	0.7508	-4.343958	0.000588	5.878096	1.991553	0.000235
  21	1.9900e+00	0.7925	-4.146138	0.000497	4.965978	1.682519	0.000199
  22	2.0895e+00	0.8374	-3.899873	0.000618	6.182136	2.094564	0.000248
  23	2.1890e+00	0.8631	-3.689942	0.000527	5.270017	1.785530	0.000211
  24	2.2885e+00	0.9096	-3.504234	0.000466	4.661938	1.579507	0.000187
  25	2.3880e+00	0.9593	-3.290266	0.000537	5.371364	1.819867	0.000215
  26	2.4875e+00	0.9930	-3.039963	0.000628	6.283482	2.128901	0.000252
  27	2.5870e+00	1.0347	-2.850218	0.000476	4.763285	1.613845	0.000191
  28	2.6865e+00	1.0636	-2.644324	0.000517	5.168671	1.751193	0.000207
  29	2.7860e+00	1.1053	-2.381910	0.000659	6.587521	2.231913	0.000264
  30	2.8855e+00	1.1470	-2.180053	0.000507	5.067324	1.716856	0.000203
  31	2.9850e+00	1.1919	-2.022605	0.000395	3.952513	1.339148	0.000158
  32	3.0845e+00	1.2224	-1.744043	0.000699	6.992907	2.369261	0.000280
  33	3.1840e+00	1.2722	-1.505852	0.000598	5.979443	2.025890	0.000239
  34	3.2835e+00	1.3107	-1.332255	0.000436	4.357899	1.476496	0.000174
  35	3.3830e+00	1.3460	-1.069841	0.000659	6.587521	2.231913	0.000264
  36	3.4825e+00	1.3909	-0.863947	0.000517	5.168671	1.751193	0.000207
  37	3.5820e+00	1.4214	-0.649979	0.000537	5.371364	1.819867	0.000215
  38	3.6815e+00	1.4727	-0.452159	0.000497	4.965978	1.682519	0.000199
  39	3.7810e+00	1.5016	-0.181671	0.000679	6.790214	2.300587	0.000272
  40	3.8805e+00	1.5529	0.028260	0.000527	5.270017	1.785530	0.000211
  41	3.9800e+00	1.5882	0.254340	0.000568	5.675403	1.922879	0.000227
  42	4.0795e+00	1.6235	0.460233	0.000517	5.168671	1.751193	0.000207
  43	4.1790e+00	1.6620	0.678239	0.000547	5.472710	1.854204	0.000219
  44	4.2785e+00	1.7133	0.859910	0.000456	4.560592	1.545170	0.000183
  45	4.3780e+00	1.7486	1.130398	0.000679	6.790214	2.300587	0.000272
  46	4.4775e+00	1.7887	1.336292	0.000517	5.168671	1.751193	0.000207
  47	4.5770e+00	1.8304	1.570446	0.000588	5.878096	1.991553	0.000235
  48	4.6765e+00	1.8673	1.772303	0.000507	5.067324	1.716856	0.000203
  49	4.7760e+00	1.9042	2.018568	0.000618	6.182136	2.094564	0.000248
  50	4.8755e+00	1.9475	2.244647	0.000568	5.675403	1.922879	0.000227
  51	4.9750e+00	1.9892	2.446504	0.000507	5.067324	1.716856	0.000203
  52	5.0745e+00	2.0358	2.676621	0.000578	5.776750	1.957216	0.000231
  53	5.1740e+00	2.0582	2.878478	0.000507	5.067324	1.716856	0.000203
  54	5.2735e+00	2.1031	3.104557	0.000568	5.675403	1.922879	0.000227
  55	5.3730e+00	2.1449	3.350823	0.000618	6.182136	2.094564	0.000248
  56	5.4725e+00	2.1834	3.584977	0.000588	5.878096	1.991553	0.000235
  57	5.5720e+00	2.2187	3.786833	0.000507	5.067324	1.716856	0.000203
  58	5.6715e+00	2.2700	4.065396	0.000699	6.992907	2.369261	0.000280
  59	5.7710e+00	2.3021	4.247067	0.000456	4.560592	1.545170	0.000183
  60	5.8705e+00	2.3310	4.444886	0.000497	4.965978	1.682519	0.000199
  61	5.9700e+00	2.3887	4.711337	0.000669	6.688868	2.266250	0.000268
  62	6.0695e+00	2.4352	4.901083	0.000476	4.763285	1.613845	0.000191
  63	6.1690e+00	2.4641	5.135237	0.000588	5.878096	1.991553	0.000235
  64	6.2685e+00	2.5042	5.401688	0.000669	6.688868	2.266250	0.000268
  65	6.3680e+00	2.5507	5.595470	0.000486	4.864631	1.648182	0.000195
  66	6.4675e+00	2.5828	5.825587	0.000578	5.776750	1.957216	0.000231
  67	6.5670e+00	2.6293	6.083964	0.000649	6.486175	2.197576	0.000260
  68	6.6665e+00	2.6743	6.281783	0.000497	4.965978	1.682519	0.000199
  69	6.7660e+00	2.7079	6.503826	0.000557	5.574057	1.888542	0.000223
  70	6.8655e+00	2.7384	6.754128	0.000628	6.283482	2.128901	0.000252
  71	6.9650e+00	2.7882	6.980208	0.000568	5.675403	1.922879	0.000227
  72	7.0645e+00	2.8283	7.161879	0.000456	4.560592	1.545170	0.000183
  73	7.1640e+00	2.8555	7.396033	0.000588	5.878096	1.991553	0.000235
  74	7.2635e+00	2.8940	7.638261	0.000608	6.080789	2.060227	0.000243
  75	7.3630e+00	2.9390	7.876452	0.000598	5.979443	2.025890	0.000239
  76	7.4625e+00	2.9791	8.102531	0.000568	5.675403	1.922879	0.000227
  77	7.5620e+00	3.0224	8.332648	0.000578	5.776750	1.957216	0.000231
  78	7.6615e+00	3.0641	8.514319	0.000456	4.560592	1.545170	0.000183
  79	7.7610e+00	3.1010	8.756547	0.000608	6.080789	2.060227	0.000243
  80	7.8605e+00	3.1363	9.039147	0.000709	7.094254	2.403598	0.000284
  81	7.9600e+00	3.1716	9.216781	0.000446	4.459245	1.510833	0.000179
  82	8.0595e+00	3.2261	9.442860	0.000568	5.675403	1.922879	0.000227
  83	8.1590e+00	3.2582	9.677014	0.000588	5.878096	1.991553	0.000235
  84	8.2585e+00	3.2999	9.923280	0.000618	6.182136	2.094564	0.000248
  85	8.3580e+00	3.3432	10.125136	0.000507	5.067324	1.716856	0.000203
  86	8.4575e+00	3.3801	10.375439	0.000628	6.283482	2.128901	0.000252
  87	8.5570e+00	3.4218	10.581333	0.000517	5.168671	1.751193	0.000207
  88	8.6565e+00	3.4619	10.807412	0.000568	5.675403	1.922879	0.000227
  89	8.7560e+00	3.5020	11.077900	0.000679	6.790214	2.300587	0.000272
  90	8.8555e+00	3.5357	11.279757	0.000507	5.067324	1.716856	0.000203
  91	8.9550e+00	3.5823	11.526023	0.000618	6.182136	2.094564	0.000248
  92	9.0545e+00	3.6224	11.735954	0.000527	5.270017	1.785530	0.000211
  93	9.1540e+00	3.6641	11.986256	0.000628	6.283482	2.128901	0.000252
  94	9.2535e+00	3.6978	12.200224	0.000537	5.371364	1.819867	0.000215
  95	9.3530e+00	3.7330	12.450527	0.000628	6.283482	2.128901	0.000252
  96	9.4525e+00	3.7828	12.676606	0.000568	5.675403	1.922879	0.000227
  97	9.5520e+00	3.8213	12.870389	0.000486	4.864631	1.648182	0.000195
  98	9.6515e+00	3.8518	13.076283	0.000517	5.168671	1.751193	0.000207
  99	9.7510e+00	3.8999	13.362919	0.000720	7.195600	2.437935	0.000288
 100	9.8505e+00	3.9304	13.520368	0.000395	3.952513	1.339148	0.000158
 101	9.9500e+00	3.9785	13.794893	0.000689	6.891561	2.334924	0.000276
 102	1.0050e+01	4.0154	14.065381	0.000679	6.790214	2.300587	0.000272
 103	1.0149e+01	4.0603	14.218792	0.000385	3.851166	1.304810	0.000154
 104	1.0248e+01	4.0924	14.485243	0.000669	6.688868	2.266250	0.000268
 105	1.0348e+01	4.1453	14.719397	0.000588	5.878096	1.991553	0.000235
 106	1.0447e+01	4.1694	14.961625	0.000608	6.080789	2.060227	0.000243
 107	1.0547e+01	4.2143	15.159445	0.000497	4.965978	1.682519	0.000199
 108	1.0646e+01	4.2576	15.397636	0.000598	5.979443	2.025890	0.000239
 109	1.0746e+01	4.3026	15.615641	0.000547	5.472710	1.854204	0.000219
 110	1.0845e+01	4.3427	15.861906	0.000618	6.182136	2.094564	0.000248
 111	1.0945e+01	4.3731	16.059726	0.000497	4.965978	1.682519	0.000199
 112	1.1044e+01	4.4245	16.310028	0.000628	6.283482	2.128901	0.000252
 113	1.1144e+01	4.4534	16.552257	0.000608	6.080789	2.060227	0.000243
 114	1.1243e+01	4.4935	16.790448	0.000598	5.979443	2.025890	0.000239
 115	1.1343e+01	4.5368	16.972119	0.000456	4.560592	1.545170	0.000183
 116	1.1443e+01	4.5705	17.206273	0.000588	5.878096	1.991553	0.000235
 117	1.1542e+01	4.6234	17.480798	0.000689	6.891561	2.334924	0.000276
 118	1.1642e+01	4.6555	17.662469	0.000456	4.560592	1.545170	0.000183
 119	1.1741e+01	4.6972	17.912771	0.000628	6.283482	2.128901	0.000252
 120	1.1841e+01	4.7373	18.159037	0.000618	6.182136	2.094564	0.000248
 121	1.1940e+01	4.7838	18.360893	0.000507	5.067324	1.716856	0.000203
 122	1.2040e+01	4.8143	18.619270	0.000649	6.486175	2.197576	0.000260
 123	1.2139e+01	4.8721	18.865535	0.000618	6.182136	2.094564	0.000248
 124	1.2239e+01	4.9009	19.099689	0.000588	5.878096	1.991553	0.000235
 125	1.2338e+01	4.9330	19.309620	0.000527	5.270017	1.785530	0.000211
 126	1.2438e+01	4.9860	19.539737	0.000578	5.776750	1.957216	0.000231
 127	1.2537e+01	5.0132	19.790039	0.000628	6.283482	2.128901	0.000252
 128	1.2636e+01	5.0598	20.012082	0.000557	5.574057	1.888542	0.000223
 129	1.2736e+01	5.1015	20.197790	0.000466	4.661938	1.579507	0.000187
 130	1.2835e+01	5.1335	20.435981	0.000598	5.979443	2.025890	0.000239
 131	1.2935e+01	5.1769	20.682246	0.000618	6.182136	2.094564	0.000248
 132	1.3034e+01	5.2105	20.912363	0.000578	5.776750	1.957216	0.000231
 133	1.3134e+01	5.2587	21.134406	0.000557	5.574057	1.888542	0.000223
 134	1.3233e+01	5.2940	21.356448	0.000557	5.574057	1.888542	0.000223
 135	1.3333e+01	5.3325	21.606750	0.000628	6.283482	2.128901	0.000252
 136	1.3432e+01	5.3726	21.824756	0.000547	5.472710	1.854204	0.000219
 137	1.3532e+01	5.4127	22.050835	0.000568	5.675403	1.922879	0.000227
 138	1.3632e+01	5.4480	22.268841	0.000547	5.472710	1.854204	0.000219
 139	1.3731e+01	5.4929	22.519143	0.000628	6.283482	2.128901	0.000252
 140	1.3831e+01	5.5282	22.737148	0.000547	5.472710	1.854204	0.000219
 141	1.3930e+01	5.5635	22.967265	0.000578	5.776750	1.957216	0.000231
 142	1.4030e+01	5.6132	23.217568	0.000628	6.283482	2.128901	0.000252
 143	1.4129e+01	5.6533	23.447684	0.000578	5.776750	1.957216	0.000231
 144	1.4229e+01	5.6966	23.641467	0.000486	4.864631	1.648182	0.000195
 145	1.4328e+01	5.7319	23.867546	0.000568	5.675403	1.922879	0.000227
 146	1.4428e+01	5.7784	24.109775	0.000608	6.080789	2.060227	0.000243
 147	1.4527e+01	5.8234	24.380263	0.000679	6.790214	2.300587	0.000272
 148	1.4627e+01	5.8522	24.598268	0.000547	5.472710	1.854204	0.000219
 149	1.4726e+01	5.8940	24.824348	0.000568	5.675403	1.922879	0.000227
 150	1.4825e+01	5.9292	25.042353	0.000547	5.472710	1.854204	0.000219
 151	1.4925e+01	5.9677	25.272470	0.000578	5.776750	1.957216	0.000231
 152	1.5024e+01	6.0095	25.470289	0.000497	4.965978	1.682519	0.000199
 153	1.5124e+01	6.0544	25.736740	0.000669	6.688868	2.266250	0.000268
 154	1.5223e+01	6.0977	25.954746	0.000547	5.472710	1.854204	0.000219
 155	1.5323e+01	6.1314	26.180825	0.000568	5.675403	1.922879	0.000227
 156	1.5422e+01	6.1715	26.394793	0.000537	5.371364	1.819867	0.000215
 157	1.5522e+01	6.2116	26.645096	0.000628	6.283482	2.128901	0.000252
 158	1.5621e+01	6.2453	26.863101	0.000547	5.472710	1.854204	0.000219
 159	1.5721e+01	6.2886	27.101292	0.000598	5.979443	2.025890	0.000239
 160	1.5820e+01	6.3351	27.315260	0.000537	5.371364	1.819867	0.000215
 161	1.5920e+01	6.3576	27.541340	0.000568	5.675403	1.922879	0.000227
 162	1.6020e+01	6.4201	27.803754	0.000659	6.587521	2.231913	0.000264
 163	1.6119e+01	6.4538	28.013685	0.000527	5.270017	1.785530	0.000211
 164	1.6218e+01	6.4907	28.243802	0.000578	5.776750	1.957216	0.000231
 165	1.6318e+01	6.5324	28.429510	0.000466	4.661938	1.579507	0.000187
 166	1.6418e+01	6.5758	28.683849	0.000638	6.384829	2.163238	0.000256
 167	1.6517e+01	6.6094	28.950300	0.000669	6.688868	2.266250	0.000268
 168	1.6616e+01	6.6399	29.148120	0.000497	4.965978	1.682519	0.000199
 169	1.6716e+01	6.6768	29.362088	0.000537	5.371364	1.819867	0.000215
 170	1.6816e+01	6.7265	29.608354	0.000618	6.182136	2.094564	0.000248
 171	1.6915e+01	6.7667	29.846545	0.000598	5.979443	2.025890	0.000239
 172	1.7015e+01	6.8100	30.024178	0.000446	4.459245	1.510833	0.000179
 173	1.7114e+01	6.8549	30.278518	0.000638	6.384829	2.163238	0.000256
 174	1.7213e+01	6.8950	30.512672	0.000588	5.878096	1.991553	0.000235
 175	1.7313e+01	6.9303	30.738752	0.000568	5.675403	1.922879	0.000227
 176	1.7413e+01	6.9672	30.964831	0.000568	5.675403	1.922879	0.000227
 177	1.7512e+01	7.0105	31.170725	0.000517	5.168671	1.751193	0.000207
 178	1.7611e+01	7.0442	31.416990	0.000618	6.182136	2.094564	0.000248
 179	1.7711e+01	7.0827	31.655181	0.000598	5.979443	2.025890	0.000239
 180	1.7811e+01	7.1212	31.853001	0.000497	4.965978	1.682519	0.000199
 181	1.7910e+01	7.1613	32.103303	0.000628	6.283482	2.128901	0.000252
 182	1.8009e+01	7.2078	32.321309	0.000547	5.472710	1.854204	0.000219
 183	1.8109e+01	7.2479	32.551425	0.000578	5.776750	1.957216	0.000231
 184	1.8209e+01	7.2768	32.821914	0.000679	6.790214	2.300587	0.000272
 185	1.8308e+01	7.3281	33.035882	0.000537	5.371364	1.819867	0.000215
 186	1.8407e+01	7.3666	33.193330	0.000395	3.952513	1.339148	0.000158
 187	1.8507e+01	7.4100	33.467855	0.000689	6.891561	2.334924	0.000276
 188	1.8607e+01	7.4485	33.710083	0.000608	6.080789	2.060227	0.000243
 189	1.8706e+01	7.4870	33.928089	0.000547	5.472710	1.854204	0.000219
 190	1.8805e+01	7.5255	34.158205	0.000578	5.776750	1.957216	0.000231
 191	1.8905e+01	7.5640	34.364099	0.000517	5.168671	1.751193	0.000207
 192	1.9005e+01	7.5993	34.590179	0.000568	5.675403	1.922879	0.000227
 193	1.9104e+01	7.6474	34.856630	0.000669	6.688868	2.266250	0.000268
 194	1.9203e+01	7.6875	35.042338	0.000466	4.661938	1.579507	0.000187
 195	1.9303e+01	7.7212	35.280529	0.000598	5.979443	2.025890	0.000239
 196	1.9402e+01	7.7581	35.502572	0.000557	5.574057	1.888542	0.000223
 197	1.9502e+01	7.8014	35.732688	0.000578	5.776750	1.957216	0.000231
 198	1.9602e+01	7.8431	35.974917	0.000608	6.080789	2.060227	0.000243
 199	1.9701e+01	7.8832	36.180810	0.000517	5.168671	1.751193	0.000207
 200	1.9800e+01	7.9153	36.439187	0.000649	6.486175	2.197576	0.000260
 201	1.9900e+01	7.9634	36.657193	0.000547	5.472710	1.854204	0.000219
 202	2.0000e+01	7.9987	36.891346	0.000588	5.878096	1.991553	0.000235
 203	2.0099e+01	8.0372	37.129537	0.000598	5.979443	2.025890	0.000239
 204	2.0198e+01	8.0789	37.331394	0.000507	5.067324	1.716856	0.000203
 205	2.0298e+01	8.1174	37.561511	0.000578	5.776750	1.957216	0.000231
 206	2.0398e+01	8.1655	37.803739	0.000608	6.080789	2.060227	0.000243
 207	2.0497e+01	8.2024	38.001559	0.000497	4.965978	1.682519	0.000199
 208	2.0596e+01	8.2458	38.227638	0.000568	5.675403	1.922879	0.000227
 209	2.0696e+01	8.2810	38.449681	0.000557	5.574057	1.888542	0.000223
 210	2.0796e+01	8.3244	38.679798	0.000578	5.776750	1.957216	0.000231
 211	2.0895e+01	8.3597	38.926063	0.000618	6.182136	2.094564	0.000248
 212	2.0994e+01	8.3982	39.131957	0.000517	5.168671	1.751193	0.000207
 213	2.1094e+01	8.4511	39.366111	0.000588	5.878096	1.991553	0.000235
 214	2.1194e+01	8.4912	39.572005	0.000517	5.168671	1.751193	0.000207
 215	2.1293e+01	8.5217	39.822307	0.000628	6.283482	2.128901	0.000252
 216	2.1392e+01	8.5602	40.028201	0.000517	5.168671	1.751193	0.000207
 217	2.1492e+01	8.6003	40.226020	0.000497	4.965978	1.682519	0.000199
 218	2.1591e+01	8.6468	40.468249	0.000608	6.080789	2.060227	0.000243
 219	2.1691e+01	8.6789	40.734700	0.000669	6.688868	2.266250	0.000268
 220	2.1791e+01	8.7334	40.920408	0.000466	4.661938	1.579507	0.000187
 221	2.1890e+01	8.7559	41.158599	0.000598	5.979443	2.025890	0.000239
 222	2.1989e+01	8.8056	41.368530	0.000527	5.270017	1.785530	0.000211
 223	2.2089e+01	8.8329	41.614795	0.000618	6.182136	2.094564	0.000248
 224	2.2189e+01	8.8842	41.824726	0.000527	5.270017	1.785530	0.000211
 225	2.2288e+01	8.9227	42.054843	0.000578	5.776750	1.957216	0.000231
 226	2.2387e+01	8.9532	42.276885	0.000557	5.574057	1.888542	0.000223
 227	2.2487e+01	8.9997	42.523151	0.000618	6.182136	2.094564	0.000248
 228	2.2587e+01	9.0479	42.704822	0.000456	4.560592	1.545170	0.000183
 229	2.2686e+01	9.0784	42.938976	0.000588	5.878096	1.991553	0.000235
 230	2.2785e+01	9.1120	43.173130	0.000588	5.878096	1.991553	0.000235
 231	2.2885e+01	9.1554	43.415358	0.000608	6.080789	2.060227	0.000243
 232	2.2985e+01	9.2019	43.605103	0.000476	4.763285	1.613845	0.000191
 233	2.3084e+01	9.2356	43.823108	0.000547	5.472710	1.854204	0.000219
 234	2.3183e+01	9.2773	44.109745	0.000720	7.195600	2.437935	0.000288
 235	2.3283e+01	9.3190	44.251045	0.000355	3.547127	1.201799	0.000142
 236	2.3383e+01	9.3543	44.517496	0.000669	6.688868	2.266250	0.000268
 237	2.3482e+01	9.3896	44.759724	0.000608	6.080789	2.060227	0.000243
 238	2.3581e+01	9.4313	44.945432	0.000466	4.661938	1.579507	0.000187
 239	2.3681e+01	9.4746	45.183623	0.000598	5.979443	2.025890	0.000239
 240	2.3780e+01	9.5083	45.389517	0.000517	5.168671	1.751193	0.000207
 241	2.3880e+01	9.5468	45.643857	0.000638	6.384829	2.163238	0.000256
 242	2.3980e+01	9.5933	45.833602	0.000476	4.763285	1.613845	0.000191
 243	2.4079e+01	9.6430	46.104090	0.000679	6.790214	2.300587	0.000272
 244	2.4178e+01	9.6751	46.265576	0.000405	4.053859	1.373485	0.000162
 245	2.4278e+01	9.7072	46.507804	0.000608	6.080789	2.060227	0.000243
 246	2.4378e+01	9.7618	46.709660	0.000507	5.067324	1.716856	0.000203
 247	2.4477e+01	9.8035	46.947851	0.000598	5.979443	2.025890	0.000239
 248	2.4576e+01	9.8404	47.157783	0.000527	5.270017	1.785530	0.000211
 249	2.4676e+01	9.8708	47.404048	0.000618	6.182136	2.094564	0.000248
 250	2.4776e+01	9.9174	47.622053	0.000547	5.472710	1.854204	0.000219
 251	2.4875e+01	9.9655	47.872356	0.000628	6.283482	2.128901	0.000252
 252	2.4974e+01	9.9880	48.054027	0.000456	4.560592	1.545170	0.000183
 253	2.5074e+01	10.0265	48.312403	0.000649	6.486175	2.197576	0.000260
 254	2.5174e+01	10.0778	48.494074	0.000456	4.560592	1.545170	0.000183
 255	2.5273e+01	10.1131	48.756488	0.000659	6.587521	2.231913	0.000264
 256	2.5372e+01	10.1596	48.934122	0.000446	4.459245	1.510833	0.000179
 257	2.5472e+01	10.1933	49.192499	0.000649	6.486175	2.197576	0.000260
 258	2.5572e+01	10.2382	49.374170	0.000456	4.560592	1.545170	0.000183
 259	2.5671e+01	10.2767	49.628510	0.000638	6.384829	2.163238	0.000256
 260	2.5770e+01	10.3120	49.838441	0.000527	5.270017	1.785530	0.000211
 261	2.5870e+01	10.3553	50.064520	0.000568	5.675403	1.922879	0.000227
 262	2.5970e+01	10.3986	50.310786	0.000618	6.182136	2.094564	0.000248
 263	2.6069e+01	10.4339	50.492457	0.000456	4.560592	1.545170	0.000183
 264	2.6169e+01	10.4756	50.746796	0.000638	6.384829	2.163238	0.000256
 265	2.6268e+01	10.5125	50.948653	0.000507	5.067324	1.716856	0.000203
 266	2.6367e+01	10.5510	51.146473	0.000497	4.965978	1.682519	0.000199
 267	2.6467e+01	10.5976	51.364478	0.000547	5.472710	1.854204	0.000219
 268	2.6567e+01	10.6264	51.586520	0.000557	5.574057	1.888542	0.000223
 269	2.6666e+01	10.6746	51.820674	0.000588	5.878096	1.991553	0.000235
 270	2.6765e+01	10.7195	52.022531	0.000507	5.067324	1.716856	0.000203
 271	2.6865e+01	10.7564	52.248611	0.000568	5.675403	1.922879	0.000227
 272	2.6965e+01	10.7933	52.470653	0.000557	5.574057	1.888542	0.000223
 273	2.7064e+01	10.8270	52.684621	0.000537	5.371364	1.819867	0.000215
 274	2.7163e+01	10.8639	52.922812	0.000598	5.979443	2.025890	0.000239
 275	2.7263e+01	10.9120	53.156966	0.000588	5.878096	1.991553	0.000235
 276	2.7363e+01	10.9521	53.346712	0.000476	4.763285	1.613845	0.000191
 277	2.7462e+01	10.9906	53.548568	0.000507	5.067324	1.716856	0.000203
 278	2.7561e+01	11.0339	53.778685	0.000578	5.776750	1.957216	0.000231
 279	2.7661e+01	11.0708	53.976505	0.000497	4.965978	1.682519	0.000199
 280	2.7761e+01	11.1077	54.214696	0.000598	5.979443	2.025890	0.000239
 281	2.7860e+01	11.1526	54.408478	0.000486	4.864631	1.648182	0.000195
 282	2.7959e+01	11.1927	54.658781	0.000628	6.283482	2.128901	0.000252
 283	2.8059e+01	11.2248	54.896972	0.000598	5.979443	2.025890	0.000239
 284	2.8159e+01	11.2778	55.102866	0.000517	5.168671	1.751193	0.000207
 285	2.8258e+01	11.3066	55.300685	0.000497	4.965978	1.682519	0.000199
 286	2.8358e+01	11.3564	55.526765	0.000568	5.675403	1.922879	0.000227
 287	2.8457e+01	11.3917	55.760919	0.000588	5.878096	1.991553	0.000235
 288	2.8556e+01	11.4334	55.942590	0.000456	4.560592	1.545170	0.000183
 289	2.8656e+01	11.4655	56.209041	0.000669	6.688868	2.266250	0.000268
 290	2.8756e+01	11.5040	56.406861	0.000497	4.965978	1.682519	0.000199
 291	2.8855e+01	11.5569	56.604680	0.000497	4.965978	1.682519	0.000199
 292	2.8954e+01	11.5938	56.859020	0.000638	6.384829	2.163238	0.000256
 293	2.9054e+01	11.6291	57.040691	0.000456	4.560592	1.545170	0.000183
 294	2.9154e+01	11.6660	57.262733	0.000557	5.574057	1.888542	0.000223
 295	2.9253e+01	11.7077	57.488813	0.000568	5.675403	1.922879	0.000227
 296	2.9352e+01	11.7462	57.722967	0.000588	5.878096	1.991553	0.000235
 297	2.9452e+01	11.7879	57.916749	0.000486	4.864631	1.648182	0.000195
 298	2.9552e+01	11.8200	58.142829	0.000568	5.675403	1.922879	0.000227
 299	2.9651e+01	11.8713	58.340649	0.000497	4.965978	1.682519	0.000199
 300	2.9750e+01	11.9098	58.586914	0.000618	6.182136	2.094564	0.000248
 301	2.9850e+01	11.9403	58.792808	0.000517	5.168671	1.751193	0.000207
 302	2.9950e+01	11.9916	58.990627	0.000497	4.965978	1.682519	0.000199
 303	3.0049e+01	12.0269	59.220744	0.000578	5.776750	1.957216	0.000231
 304	3.0148e+01	12.0735	59.386267	0.000416	4.155206	1.407822	0.000166
 305	3.0248e+01	12.1152	59.620421	0.000588	5.878096	1.991553	0.000235
 306	3.0348e+01	12.1553	59.838426	0.000547	5.472710	1.854204	0.000219
 307	3.0447e+01	12.1954	60.068543	0.000578	5.776750	1.957216	0.000231
 308	3.0547e+01	12.2243	60.282511	0.000537	5.371364	1.819867	0.000215
 309	3.0646e+01	12.2628	60.492442	0.000527	5.270017	1.785530	0.000211
 310	3.0745e+01	12.3029	60.706410	0.000537	5.371364	1.819867	0.000215
 311	3.0845e+01	12.3510	60.956713	0.000628	6.283482	2.128901	0.000252
 312	3.0945e+01	12.3831	61.182792	0.000568	5.675403	1.922879	0.000227
 313	3.1044e+01	12.4248	61.364463	0.000456	4.560592	1.545170	0.000183
 314	3.1143e+01	12.4697	61.582469	0.000547	5.472710	1.854204	0.000219
 315	3.1243e+01	12.5066	61.808548	0.000568	5.675403	1.922879	0.000227
 316	3.1343e+01	12.5467	62.022516	0.000537	5.371364	1.819867	0.000215
 317	3.1442e+01	12.5884	62.232447	0.000527	5.270017	1.785530	0.000211
 318	3.1541e+01	12.6253	62.422193	0.000476	4.763285	1.613845	0.000191
 319	3.1641e+01	12.6750	62.684607	0.000659	6.587521	2.231913	0.000264
 320	3.1741e+01	12.7055	62.846092	0.000405	4.053859	1.373485	0.000162
 321	3.1840e+01	12.7456	63.084283	0.000598	5.979443	2.025890	0.000239
 322	3.1939e+01	12.7841	63.265954	0.000456	4.560592	1.545170	0.000183
 323	3.2039e+01	12.8274	63.500108	0.000588	5.878096	1.991553	0.000235
 324	3.2139e+01	12.8676	63.726188	0.000568	5.675403	1.922879	0.000227
 325	3.2238e+01	12.9044	63.887673	0.000405	4.053859	1.373485	0.000162
 326	3.2337e+01	12.9269	64.125864	0.000598	5.979443	2.025890	0.000239
 327	3.2437e+01	12.9686	64.327721	0.000507	5.067324	1.716856	0.000203
 328	3.2536e+01	13.0135	64.565912	0.000598	5.979443	2.025890	0.000239
 329	3.2636e+01	13.0456	64.751620	0.000466	4.661938	1.579507	0.000187
 330	3.2736e+01	13.1002	64.989811	0.000598	5.979443	2.025890	0.000239
 331	3.2835e+01	13.1419	65.179556	0.000476	4.763285	1.613845	0.000191
 332	3.2934e+01	13.1772	65.421785	0.000608	6.080789	2.060227	0.000243
 333	3.3034e+01	13.2173	65.579233	0.000395	3.952513	1.339148	0.000158
 334	3.3133e+01	13.2606	65.841647	0.000659	6.587521	2.231913	0.000264
 335	3.3233e+01	13.2943	66.055615	0.000537	5.371364	1.819867	0.000215
 336	3.3333e+01	13.3376	66.245360	0.000476	4.763285	1.613845	0.000191
 337	3.3432e+01	13.3793	66.467403	0.000557	5.574057	1.888542	0.000223
 338	3.3532e+01	13.4098	66.713668	0.000618	6.182136	2.094564	0.000248
 339	3.3631e+01	13.4595	66.931673	0.000547	5.472710	1.854204	0.000219
 340	3.3730e+01	13.5012	67.109307	0.000446	4.459245	1.510833	0.000179
 341	3.3830e+01	13.5381	67.339424	0.000578	5.776750	1.957216	0.000231
 342	3.3929e+01	13.5782	67.585689	0.000618	6.182136	2.094564	0.000248
 343	3.4029e+01	13.6167	67.771398	0.000466	4.661938	1.579507	0.000187
 344	3.4129e+01	13.6584	68.001514	0.000578	5.776750	1.957216	0.000231
 345	3.4228e+01	13.6921	68.207408	0.000517	5.168671	1.751193	0.000207
 346	3.4328e+01	13.7499	68.409265	0.000507	5.067324	1.716856	0.000203
 347	3.4427e+01	13.7804	68.619196	0.000527	5.270017	1.785530	0.000211
 348	3.4526e+01	13.8237	68.861424	0.000608	6.080789	2.060227	0.000243
 349	3.4626e+01	13.8606	69.051170	0.000476	4.763285	1.613845	0.000191
 350	3.4725e+01	13.9087	69.253026	0.000507	5.067324	1.716856	0.000203
 351	3.4825e+01	13.9440	69.462958	0.000527	5.270017	1.785530	0.000211
 352	3.4925e+01	13.9761	69.652703	0.000476	4.763285	1.613845	0.000191
 353	3.5024e+01	14.0242	69.903005	0.000628	6.283482	2.128901	0.000252
 354	3.5123e+01	14.0595	70.072565	0.000426	4.256552	1.442159	0.000170
 355	3.5223e+01	14.0996	70.314793	0.000608	6.080789	2.060227	0.000243
 356	3.5322e+01	14.1397	70.544910	0.000578	5.776750	1.957216	0.000231
 357	3.5422e+01	14.1766	70.746767	0.000507	5.067324	1.716856	0.000203
 358	3.5522e+01	14.2183	70.952661	0.000517	5.168671	1.751193	0.000207
 359	3.5621e+01	14.2552	71.134332	0.000456	4.560592	1.545170	0.000183
 360	3.5721e+01	14.2985	71.384634	0.000628	6.283482	2.128901	0.000252
 361	3.5820e+01	14.3418	71.566305	0.000456	4.560592	1.545170	0.000183
 362	3.5919e+01	14.3739	71.796422	0.000578	5.776750	1.957216	0.000231
 363	3.6019e+01	14.4044	72.042687	0.000618	6.182136	2.094564	0.000248
 364	3.6118e+01	14.4590	72.236470	0.000486	4.864631	1.648182	0.000195
 365	3.6218e+01	14.4958	72.438327	0.000507	5.067324	1.716856	0.000203
 366	3.6318e+01	14.5376	72.664406	0.000568	5.675403	1.922879	0.000227
 367	3.6417e+01	14.5712	72.842040	0.000446	4.459245	1.510833	0.000179
 368	3.6517e+01	14.6194	73.068120	0.000568	5.675403	1.922879	0.000227
 369	3.6616e+01	14.6531	73.294199	0.000568	5.675403	1.922879	0.000227
 370	3.6715e+01	14.6884	73.471833	0.000446	4.459245	1.510833	0.000179
 371	3.6815e+01	14.7333	73.669653	0.000497	4.965978	1.682519	0.000199
 372	3.6914e+01	14.7846	73.915918	0.000618	6.182136	2.094564	0.000248
 373	3.7014e+01	14.8135	74.097589	0.000456	4.560592	1.545170	0.000183
 374	3.7114e+01	14.8472	74.315595	0.000547	5.472710	1.854204	0.000219
 375	3.7213e+01	14.8969	74.521489	0.000517	5.168671	1.751193	0.000207
 376	3.7313e+01	14.9322	74.731420	0.000527	5.270017	1.785530	0.000211
 377	3.7412e+01	14.9835	74.953462	0.000557	5.574057	1.888542	0.000223
 378	3.7511e+01	15.0188	75.167430	0.000537	5.371364	1.819867	0.000215
 379	3.7611e+01	15.0541	75.365250	0.000497	4.965978	1.682519	0.000199
 380	3.7711e+01	15.0894	75.571144	0.000517	5.168671	1.751193	0.000207
 381	3.7810e+01	15.1279	75.760889	0.000476	4.763285	1.613845	0.000191
 382	3.7910e+01	15.1776	76.003117	0.000608	6.080789	2.060227	0.000243
 383	3.8009e+01	15.2242	76.225160	0.000557	5.574057	1.888542	0.000223
 384	3.8108e+01	15.2514	76.394720	0.000426	4.256552	1.442159	0.000170
 385	3.8208e+01	15.2980	76.649059	0.000638	6.384829	2.163238	0.000256
 386	3.8307e+01	15.3300	76.806507	0.000395	3.952513	1.339148	0.000158
 387	3.8407e+01	15.3605	77.056810	0.000628	6.283482	2.128901	0.000252
 388	3.8507e+01	15.4167	77.262704	0.000517	5.168671	1.751193	0.000207
 389	3.8606e+01	15.4456	77.500895	0.000598	5.979443	2.025890	0.000239
 390	3.8706e+01	15.4921	77.670454	0.000426	4.256552	1.442159	0.000170
 391	3.8805e+01	15.5306	77.916720	0.000618	6.182136	2.094564	0.000248
 392	3.8904e+01	15.5803	78.094354	0.000446	4.459245	1.510833	0.000179
 393	3.9004e+01	15.6076	78.300248	0.000517	5.168671	1.751193	0.000207
 394	3.9103e+01	15.6477	78.498067	0.000497	4.965978	1.682519	0.000199
 395	3.9203e+01	15.6878	78.707998	0.000527	5.270017	1.785530	0.000211
 396	3.9303e+01	15.7311	78.950226	0.000608	6.080789	2.060227	0.000243
 397	3.9402e+01	15.7680	79.119786	0.000426	4.256552	1.442159	0.000170
 398	3.9502e+01	15.8033	79.333754	0.000537	5.371364	1.819867	0.000215
 399	3.9601e+01	15.8578	79.515425	0.000456	4.560592	1.545170	0.000183
 400	3.9700e+01	15.8915	79.761691	0.000618	6.182136	2.094564	0.000248
 401	3.9800e+01	15.9300	80.011993	0.000628	6.283482	2.128901	0.000252
 402	3.9900e+01	15.9669	80.169441	0.000395	3.952513	1.339148	0.000158
 403	3.9999e+01	16.0167	80.399558	0.000578	5.776750	1.957216	0.000231
 404	4.0099e+01	16.0503	80.597378	0.000497	4.965978	1.682519	0.000199
 405	4.0198e+01	16.0889	80.787123	0.000476	4.763285	1.613845	0.000191
 406	4.0297e+01	16.1306	81.005129	0.000547	5.472710	1.854204	0.000219
 407	4.0397e+01	16.1642	81.227171	0.000557	5.574057	1.888542	0.000223
 408	4.0496e+01	16.2140	81.433065	0.000517	5.168671	1.751193	0.000207
 409	4.0596e+01	16.2429	81.634922	0.000507	5.067324	1.716856	0.000203
 410	4.0696e+01	16.2878	81.848890	0.000537	5.371364	1.819867	0.000215
 411	4.0795e+01	16.3311	82.034598	0.000466	4.661938	1.579507	0.000187
 412	4.0895e+01	16.3632	82.240492	0.000517	5.168671	1.751193	0.000207
 413	4.0994e+01	16.4145	82.442349	0.000507	5.067324	1.716856	0.000203
 414	4.1093e+01	16.4562	82.656317	0.000537	5.371364	1.819867	0.000215
 415	4.1193e+01	16.4851	82.874322	0.000547	5.472710	1.854204	0.000219
 416	4.1292e+01	16.5220	83.068105	0.000486	4.864631	1.648182	0.000195
 417	4.1392e+01	16.5669	83.261887	0.000486	4.864631	1.648182	0.000195
 418	4.1492e+01	16.6086	83.500078	0.000598	5.979443	2.025890	0.000239
 419	4.1591e+01	16.6487	83.697898	0.000497	4.965978	1.682519	0.000199
 420	4.1691e+01	16.6904	83.928015	0.000578	5.776750	1.957216	0.000231
 421	4.1790e+01	16.7257	84.057203	0.000324	3.243087	1.098788	0.000130
 422	4.1889e+01	16.7674	84.299431	0.000608	6.080789	2.060227	0.000243
 423	4.1989e+01	16.8124	84.505325	0.000517	5.168671	1.751193	0.000207
 424	4.2089e+01	16.8477	84.711219	0.000517	5.168671	1.751193	0.000207
 425	4.2188e+01	16.8894	84.913076	0.000507	5.067324	1.716856	0.000203
 426	4.2288e+01	16.9279	85.114933	0.000507	5.067324	1.716856	0.000203
 427	4.2387e+01	16.9776	85.332938	0.000547	5.472710	1.854204	0.000219
 428	4.2486e+01	17.0065	85.563055	0.000578	5.776750	1.957216	0.000231
 429	4.2586e+01	17.0466	85.748763	0.000466	4.661938	1.579507	0.000187
 430	4.2685e+01	17.0835	85.930434	0.000456	4.560592	1.545170	0.000183
 431	4.2785e+01	17.1188	86.116142	0.000466	4.661938	1.579507	0.000187
 432	4.2885e+01	17.1605	86.354333	0.000598	5.979443	2.025890	0.000239
 433	4.2984e+01	17.2022	86.556190	0.000507	5.067324	1.716856	0.000203
 434	4.3084e+01	17.2423	86.762084	0.000517	5.168671	1.751193	0.000207
 435	4.3183e+01	17.2856	86.988164	0.000568	5.675403	1.922879	0.000227
 436	4.3282e+01	17.3241	87.149649	0.000405	4.053859	1.373485	0.000162
 437	4.3382e+01	17.3658	87.347469	0.000497	4.965978	1.682519	0.000199
 438	4.3481e+01	17.4027	87.565474	0.000547	5.472710	1.854204	0.000219
 439	4.3581e+01	17.4364	87.747145	0.000456	4.560592	1.545170	0.000183
 440	4.3681e+01	17.4958	87.961113	0.000537	5.371364	1.819867	0.000215
 441	4.3780e+01	17.5214	88.150859	0.000476	4.763285	1.613845	0.000191
 442	4.3880e+01	17.5696	88.389050	0.000598	5.979443	2.025890	0.000239
 443	4.3979e+01	17.6032	88.562647	0.000436	4.357899	1.476496	0.000174
 444	4.4078e+01	17.6434	88.796801	0.000588	5.878096	1.991553	0.000235
 445	4.4178e+01	17.6915	89.002694	0.000517	5.168671	1.751193	0.000207
 446	4.4278e+01	17.7236	89.204551	0.000507	5.067324	1.716856	0.000203
 447	4.4377e+01	17.7605	89.390260	0.000466	4.661938	1.579507	0.000187
 448	4.4477e+01	17.8006	89.551745	0.000405	4.053859	1.373485	0.000162
 449	4.4576e+01	17.8455	89.793973	0.000608	6.080789	2.060227	0.000243
 450	4.4675e+01	17.8792	90.011978	0.000547	5.472710	1.854204	0.000219
 451	4.4775e+01	17.9145	90.217872	0.000517	5.168671	1.751193	0.000207
 452	4.4874e+01	17.9610	90.351098	0.000334	3.344434	1.133125	0.000134
 453	4.4974e+01	18.0043	90.589289	0.000598	5.979443	2.025890	0.000239
 454	4.5074e+01	18.0332	90.787108	0.000497	4.965978	1.682519	0.000199
 455	4.5173e+01	18.0749	91.021262	0.000588	5.878096	1.991553	0.000235
 456	4.5273e+01	18.1246	91.219082	0.000497	4.965978	1.682519	0.000199
 457	4.5372e+01	18.1615	91.412865	0.000486	4.864631	1.648182	0.000195
 458	4.5471e+01	18.2048	91.606647	0.000486	4.864631	1.648182	0.000195
 459	4.5571e+01	18.2514	91.800430	0.000486	4.864631	1.648182	0.000195
 460	4.5670e+01	18.2818	91.982101	0.000456	4.560592	1.545170	0.000183
 461	4.5770e+01	18.3171	92.204143	0.000557	5.574057	1.888542	0.000223
 462	4.5870e+01	18.3685	92.397926	0.000486	4.864631	1.648182	0.000195
 463	4.5969e+01	18.4118	92.619968	0.000557	5.574057	1.888542	0.000223
 464	4.6069e+01	18.4439	92.781454	0.000405	4.053859	1.373485	0.000162
 465	4.6168e+01	18.4776	92.999459	0.000547	5.472710	1.854204	0.000219
 466	4.6267e+01	18.5193	93.185167	0.000466	4.661938	1.579507	0.000187
 467	4.6367e+01	18.5658	93.403172	0.000547	5.472710	1.854204	0.000219
 468	4.6467e+01	18.5963	93.609066	0.000517	5.168671	1.751193	0.000207
 469	4.6566e+01	18.6332	93.798812	0.000476	4.763285	1.613845	0.000191
 470	4.6666e+01	18.6797	94.004706	0.000517	5.168671	1.751193	0.000207
 471	4.6765e+01	18.7246	94.190414	0.000466	4.661938	1.579507	0.000187
 472	4.6864e+01	18.7631	94.392271	0.000507	5.067324	1.716856	0.000203
 473	4.6964e+01	18.8016	94.594127	0.000507	5.067324	1.716856	0.000203
 474	4.7063e+01	18.8401	94.779836	0.000466	4.661938	1.579507	0.000187
 475	4.7163e+01	18.8770	94.993804	0.000537	5.371364	1.819867	0.000215
 476	4.7263e+01	18.9251	95.195661	0.000507	5.067324	1.716856	0.000203
 477	4.7362e+01	18.9492	95.401555	0.000517	5.168671	1.751193	0.000207
 478	4.7462e+01	18.9989	95.571114	0.000426	4.256552	1.442159	0.000170
 479	4.7561e+01	19.0390	95.801231	0.000578	5.776750	1.957216	0.000231
 480	4.7660e+01	19.0888	95.974828	0.000436	4.357899	1.476496	0.000174
 481	4.7760e+01	19.1160	96.144388	0.000426	4.256552	1.442159	0.000170
 482	4.7859e+01	19.1529	96.374504	0.000578	5.776750	1.957216	0.000231
 483	4.7959e+01	19.1995	96.564250	0.000476	4.763285	1.613845	0.000191
 484	4.8059e+01	19.2364	96.770144	0.000517	5.168671	1.751193	0.000207
 485	4.8158e+01	19.2781	96.963926	0.000486	4.864631	1.648182	0.000195
 486	4.8258e+01	19.3069	97.149634	0.000466	4.661938	1.579507	0.000187
 487	4.8357e+01	19.3599	97.351491	0.000507	5.067324	1.716856	0.000203
 488	4.8456e+01	19.3968	97.549311	0.000497	4.965978	1.682519	0.000199
 489	4.8556e+01	19.4369	97.743093	0.000486	4.864631	1.648182	0.000195
 490	4.8656e+01	19.4770	97.924764	0.000456	4.560592	1.545170	0.000183
 491	4.8755e+01	19.5155	98.162955	0.000598	5.979443	2.025890	0.000239
 492	4.8855e+01	19.5556	98.304255	0.000355	3.547127	1.201799	0.000142
 493	4.8954e+01	19.5941	98.510149	0.000517	5.168671	1.751193	0.000207
 494	4.9053e+01	19.6374	98.707969	0.000497	4.965978	1.682519	0.000199
 495	4.9153e+01	19.6663	98.925974	0.000547	5.472710	1.854204	0.000219
 496	4.9252e+01	19.7160	99.123794	0.000497	4.965978	1.682519	0.000199
 497	4.9352e+01	19.7577	99.297391	0.000436	4.357899	1.476496	0.000174
 498	4.9452e+01	19.8091	99.515396	0.000547	5.472710	1.854204	0.000219
 499	4.9551e+01	19.8363	99.684956	0.000426	4.256552	1.442159	0.000170
 500	4.9651e+01	19.8797	99.866627	0.000456	4.560592	1.545170	0.000183
 501	4.9750e+01	19.9214	100.108855	0.000608	6.080789	2.060227	0.000243
 502	4.9849e+01	19.9502	100.290526	0.000456	4.560592	1.545170	0.000183
 503	4.9949e+01	19.9968	100.500457	0.000527	5.270017	1.785530	0.000211
 504	5.0048e+01	19.9518	100.355120	0.000365	3.648473	1.236136	-0.000146
 505	5.0148e+01	19.9069	100.193635	0.000405	4.053859	1.373485	-0.000162
 506	5.0248e+01	19.8732	100.032149	0.000405	4.053859	1.373485	-0.000162
 507	5.0347e+01	19.8395	99.894887	0.000345	3.445780	1.167462	-0.000138
 508	5.0447e+01	19.7962	99.733401	0.000405	4.053859	1.373485	-0.000162
 509	5.0546e+01	19.7545	99.571916	0.000405	4.053859	1.373485	-0.000162
 510	5.0645e+01	19.7240	99.426579	0.000365	3.648473	1.236136	-0.000146
 511	5.0745e+01	19.6727	99.285279	0.000355	3.547127	1.201799	-0.000142
 512	5.0844e+01	19.6326	99.143979	0.000355	3.547127	1.201799	-0.000142
 513	5.0944e+01	19.6021	98.950197	0.000486	4.864631	1.648182	-0.000195
 514	5.1044e+01	19.5524	98.812934	0.000345	3.445780	1.167462	-0.000138
 515	5.1143e+01	19.5091	98.655486	0.000395	3.952513	1.339148	-0.000158
 516	5.1242e+01	19.4738	98.477852	0.000446	4.459245	1.510833	-0.000179
 517	5.1342e+01	19.4369	98.320404	0.000395	3.952513	1.339148	-0.000158
 518	5.1441e+01	19.4016	98.142770	0.000446	4.459245	1.510833	-0.000179
 519	5.1541e+01	19.3535	97.973210	0.000426	4.256552	1.442159	-0.000170
 520	5.1641e+01	19.3150	97.811725	0.000405	4.053859	1.373485	-0.000162
 521	5.1740e+01	19.2781	97.626016	0.000466	4.661938	1.579507	-0.000187
 522	5.1840e+01	19.2444	97.500865	0.000314	3.141741	1.064451	-0.000126
 523	5.1939e+01	19.2059	97.311120	0.000476	4.763285	1.613845	-0.000191
 524	5.2038e+01	19.1577	97.185969	0.000314	3.141741	1.064451	-0.000126
 525	5.2138e+01	19.1144	97.004298	0.000456	4.560592	1.545170	-0.000183
 526	5.2237e+01	19.0759	96.858961	0.000365	3.648473	1.236136	-0.000146
 527	5.2337e+01	19.0455	96.632881	0.000568	5.675403	1.922879	-0.000227
 528	5.2437e+01	18.9973	96.515804	0.000294	2.939048	0.995776	-0.000118
 529	5.2536e+01	18.9508	96.297799	0.000547	5.472710	1.854204	-0.000219
 530	5.2636e+01	18.9155	96.152462	0.000365	3.648473	1.236136	-0.000146
 531	5.2735e+01	18.8802	95.974828	0.000446	4.459245	1.510833	-0.000179
 532	5.2834e+01	18.8417	95.841602	0.000334	3.344434	1.133125	-0.000134
 533	5.2934e+01	18.7968	95.611486	0.000578	5.776750	1.957216	-0.000231
 534	5.3033e+01	18.7711	95.466149	0.000365	3.648473	1.236136	-0.000146
 535	5.3133e+01	18.7326	95.324849	0.000355	3.547127	1.201799	-0.000142
 536	5.3233e+01	18.6845	95.139141	0.000466	4.661938	1.579507	-0.000187
 537	5.3332e+01	18.6412	94.961507	0.000446	4.459245	1.510833	-0.000179
 538	5.3431e+01	18.5979	94.844430	0.000294	2.939048	0.995776	-0.000118
 539	5.3531e+01	18.5658	94.630462	0.000537	5.371364	1.819867	-0.000215
 540	5.3630e+01	18.5225	94.468976	0.000405	4.053859	1.373485	-0.000162
 541	5.3730e+01	18.4759	94.295379	0.000436	4.357899	1.476496	-0.000174
 542	5.3830e+01	18.4391	94.101597	0.000486	4.864631	1.648182	-0.000195
 543	5.3929e+01	18.4022	93.948186	0.000385	3.851166	1.304810	-0.000154
 544	5.4029e+01	18.3604	93.746329	0.000507	5.067324	1.716856	-0.000203
 545	5.4128e+01	18.3235	93.613103	0.000334	3.344434	1.133125	-0.000134
 546	5.4227e+01	18.2818	93.439507	0.000436	4.357899	1.476496	-0.000174
 547	5.4327e+01	18.2401	93.273984	0.000416	4.155206	1.407822	-0.000166
 548	5.4426e+01	18.2016	93.060016	0.000537	5.371364	1.819867	-0.000215
 549	5.4526e+01	18.1647	92.886419	0.000436	4.357899	1.476496	-0.000174
 550	5.4626e+01	18.1182	92.737045	0.000375	3.749820	1.270473	-0.000150
 551	5.4725e+01	18.0797	92.571522	0.000416	4.155206	1.407822	-0.000166
 552	5.4825e+01	18.0508	92.385814	0.000466	4.661938	1.579507	-0.000187
 553	5.4924e+01	18.0107	92.260663	0.000314	3.141741	1.064451	-0.000126
 554	5.5023e+01	17.9610	92.026509	0.000588	5.878096	1.991553	-0.000235
 555	5.5123e+01	17.9289	91.885209	0.000355	3.547127	1.201799	-0.000142
 556	5.5222e+01	17.8776	91.735835	0.000375	3.749820	1.270473	-0.000150
 557	5.5322e+01	17.8439	91.566276	0.000426	4.256552	1.442159	-0.000170
 558	5.5422e+01	17.8054	91.356345	0.000527	5.270017	1.785530	-0.000211
 559	5.5521e+01	17.7589	91.178711	0.000446	4.459245	1.510833	-0.000179
 560	5.5620e+01	17.7155	91.021262	0.000395	3.952513	1.339148	-0.000158
 561	5.5720e+01	17.6851	90.815368	0.000517	5.168671	1.751193	-0.000207
 562	5.5819e+01	17.6450	90.645809	0.000426	4.256552	1.442159	-0.000170
 563	5.5919e+01	17.6145	90.464138	0.000456	4.560592	1.545170	-0.000183
 564	5.6019e+01	17.5599	90.326875	0.000345	3.445780	1.167462	-0.000138
 565	5.6118e+01	17.5198	90.108870	0.000547	5.472710	1.854204	-0.000219
 566	5.6218e+01	17.4765	89.939310	0.000426	4.256552	1.442159	-0.000170
 567	5.6317e+01	17.4460	89.789936	0.000375	3.749820	1.270473	-0.000150
 568	5.6416e+01	17.4027	89.571931	0.000547	5.472710	1.854204	-0.000219
 569	5.6516e+01	17.3674	89.414482	0.000395	3.952513	1.339148	-0.000158
 570	5.6615e+01	17.3177	89.248960	0.000416	4.155206	1.407822	-0.000166
 571	5.6715e+01	17.2856	89.043066	0.000517	5.168671	1.751193	-0.000207
 572	5.6815e+01	17.2519	88.881580	0.000405	4.053859	1.373485	-0.000162
 573	5.6914e+01	17.2086	88.699909	0.000456	4.560592	1.545170	-0.000183
 574	5.7014e+01	17.1653	88.534387	0.000416	4.155206	1.407822	-0.000166
 575	5.7113e+01	17.1236	88.352716	0.000456	4.560592	1.545170	-0.000183
 576	5.7212e+01	17.0883	88.162970	0.000476	4.763285	1.613845	-0.000191
 577	5.7312e+01	17.0466	87.969188	0.000486	4.864631	1.648182	-0.000195
 578	5.7411e+01	17.0145	87.807702	0.000405	4.053859	1.373485	-0.000162
 579	5.7511e+01	16.9648	87.605846	0.000507	5.067324	1.716856	-0.000203
 580	5.7611e+01	16.9375	87.452434	0.000385	3.851166	1.304810	-0.000154
 581	5.7710e+01	16.8894	87.266726	0.000466	4.661938	1.579507	-0.000187
 582	5.7809e+01	16.8396	87.052758	0.000537	5.371364	1.819867	-0.000215
 583	5.7909e+01	16.8156	86.915495	0.000345	3.445780	1.167462	-0.000138
 584	5.8008e+01	16.7674	86.737861	0.000446	4.459245	1.510833	-0.000179
 585	5.8108e+01	16.7241	86.568302	0.000426	4.256552	1.442159	-0.000170
 586	5.8208e+01	16.6936	86.378556	0.000476	4.763285	1.613845	-0.000191
 587	5.8307e+01	16.6471	86.152477	0.000568	5.675403	1.922879	-0.000227
 588	5.8407e+01	16.6070	86.047511	0.000264	2.635009	0.892765	-0.000105
 589	5.8506e+01	16.5685	85.849691	0.000497	4.965978	1.682519	-0.000199
 590	5.8605e+01	16.5220	85.663983	0.000466	4.661938	1.579507	-0.000187
 591	5.8705e+01	16.4803	85.401569	0.000659	6.587521	2.231913	-0.000264
 592	5.8804e+01	16.4482	85.300641	0.000253	2.533662	0.858428	-0.000101
 593	5.8904e+01	16.4033	85.082636	0.000547	5.472710	1.854204	-0.000219
 594	5.9004e+01	16.3664	84.917113	0.000416	4.155206	1.407822	-0.000166
 595	5.9103e+01	16.3295	84.711219	0.000517	5.168671	1.751193	-0.000207
 596	5.9203e+01	16.2798	84.561845	0.000375	3.749820	1.270473	-0.000150
 597	5.9302e+01	16.2445	84.400360	0.000405	4.053859	1.373485	-0.000162
 598	5.9401e+01	16.2140	84.182354	0.000547	5.472710	1.854204	-0.000219
 599	5.9501e+01	16.1755	84.004720	0.000446	4.459245	1.510833	-0.000179
 600	5.9600e+01	16.1290	83.827086	0.000446	4.459245	1.510833	-0.000179
 601	5.9700e+01	16.0872	83.641378	0.000466	4.661938	1.579507	-0.000187
 602	5.9800e+01	16.0455	83.447596	0.000486	4.864631	1.648182	-0.000195
 603	5.9899e+01	16.0135	83.269962	0.000446	4.459245	1.510833	-0.000179
 604	5.9998e+01	15.9669	83.100402	0.000426	4.256552	1.442159	-0.000170
 605	6.0098e+01	15.9284	82.910657	0.000476	4.763285	1.613845	-0.000191
 606	6.0197e+01	15.8963	82.757245	0.000385	3.851166	1.304810	-0.000154
 607	6.0297e+01	15.8546	82.535203	0.000557	5.574057	1.888542	-0.000223
 608	6.0397e+01	15.8049	82.345458	0.000476	4.763285	1.613845	-0.000191
 609	6.0496e+01	15.7712	82.196084	0.000375	3.749820	1.270473	-0.000150
 610	6.0596e+01	15.7295	81.994227	0.000507	5.067324	1.716856	-0.000203
 611	6.0695e+01	15.6942	81.836779	0.000395	3.952513	1.339148	-0.000158
 612	6.0794e+01	15.6477	81.586476	0.000628	6.283482	2.128901	-0.000252
 613	6.0894e+01	15.6092	81.461325	0.000314	3.141741	1.064451	-0.000126
 614	6.0993e+01	15.5707	81.198911	0.000659	6.587521	2.231913	-0.000264
 615	6.1093e+01	15.5306	81.089908	0.000274	2.736355	0.927102	-0.000110
 616	6.1193e+01	15.4985	80.892089	0.000497	4.965978	1.682519	-0.000199
 617	6.1292e+01	15.4520	80.714455	0.000446	4.459245	1.510833	-0.000179
 618	6.1392e+01	15.4103	80.520672	0.000486	4.864631	1.648182	-0.000195
 619	6.1491e+01	15.3814	80.375335	0.000365	3.648473	1.236136	-0.000146
 620	6.1590e+01	15.3220	80.116959	0.000649	6.486175	2.197576	-0.000260
 621	6.1690e+01	15.2867	79.919139	0.000497	4.965978	1.682519	-0.000199
 622	6.1789e+01	15.2579	79.765728	0.000385	3.851166	1.304810	-0.000154
 623	6.1889e+01	15.2145	79.604242	0.000405	4.053859	1.373485	-0.000162
 624	6.1989e+01	15.1728	79.410460	0.000486	4.864631	1.648182	-0.000195
 625	6.2088e+01	15.1295	79.216677	0.000486	4.864631	1.648182	-0.000195
 626	6.2188e+01	15.0942	79.043081	0.000436	4.357899	1.476496	-0.000174
 627	6.2287e+01	15.0525	78.841224	0.000507	5.067324	1.716856	-0.000203
 628	6.2386e+01	15.0172	78.647441	0.000486	4.864631	1.648182	-0.000195
 629	6.2486e+01	14.9771	78.441547	0.000517	5.168671	1.751193	-0.000207
 630	6.2586e+01	14.9402	78.259876	0.000456	4.560592	1.545170	-0.000183
 631	6.2685e+01	14.8969	78.114539	0.000365	3.648473	1.236136	-0.000146
 632	6.2785e+01	14.8488	77.876348	0.000598	5.979443	2.025890	-0.000239
 633	6.2884e+01	14.8151	77.726974	0.000375	3.749820	1.270473	-0.000150
 634	6.2983e+01	14.7782	77.517043	0.000527	5.270017	1.785530	-0.000211
 635	6.3083e+01	14.7381	77.327298	0.000476	4.763285	1.613845	-0.000191
 636	6.3182e+01	14.6932	77.153701	0.000436	4.357899	1.476496	-0.000174
 637	6.3282e+01	14.6627	76.959919	0.000486	4.864631	1.648182	-0.000195
 638	6.3382e+01	14.6178	76.774210	0.000466	4.661938	1.579507	-0.000187
 639	6.3481e+01	14.5777	76.576391	0.000497	4.965978	1.682519	-0.000199
 640	6.3581e+01	14.5456	76.398757	0.000446	4.459245	1.510833	-0.000179
 641	6.3680e+01	14.4958	76.196900	0.000507	5.067324	1.716856	-0.000203
 642	6.3779e+01	14.4573	76.031377	0.000416	4.155206	1.407822	-0.000166
 643	6.3879e+01	14.4140	75.829521	0.000507	5.067324	1.716856	-0.000203
 644	6.3978e+01	14.3707	75.631701	0.000497	4.965978	1.682519	-0.000199
 645	6.4078e+01	14.3418	75.421770	0.000527	5.270017	1.785530	-0.000211
 646	6.4177e+01	14.3001	75.227987	0.000486	4.864631	1.648182	-0.000195
 647	6.4277e+01	14.2664	75.074576	0.000385	3.851166	1.304810	-0.000154
 648	6.4376e+01	14.2183	74.844459	0.000578	5.776750	1.957216	-0.000231
 649	6.4476e+01	14.1782	74.678937	0.000416	4.155206	1.407822	-0.000166
 650	6.4576e+01	14.1429	74.481117	0.000497	4.965978	1.682519	-0.000199
 651	6.4675e+01	14.0900	74.311558	0.000426	4.256552	1.442159	-0.000170
 652	6.4775e+01	14.0611	74.057218	0.000638	6.384829	2.163238	-0.000256
 653	6.4874e+01	14.0146	73.915918	0.000355	3.547127	1.201799	-0.000142
 654	6.4974e+01	13.9777	73.742321	0.000436	4.357899	1.476496	-0.000174
 655	6.5073e+01	13.9392	73.512205	0.000578	5.776750	1.957216	-0.000231
 656	6.5172e+01	13.9039	73.346682	0.000416	4.155206	1.407822	-0.000166
 657	6.5272e+01	13.8590	73.144825	0.000507	5.067324	1.716856	-0.000203
 658	6.5371e+01	13.8189	72.959117	0.000466	4.661938	1.579507	-0.000187
 659	6.5471e+01	13.7804	72.737075	0.000557	5.574057	1.888542	-0.000223
 660	6.5570e+01	13.7419	72.547329	0.000476	4.763285	1.613845	-0.000191
 661	6.5670e+01	13.6969	72.385844	0.000405	4.053859	1.373485	-0.000162
 662	6.5769e+01	13.6552	72.179950	0.000517	5.168671	1.751193	-0.000207
 663	6.5869e+01	13.6231	72.018464	0.000405	4.053859	1.373485	-0.000162
 664	6.5969e+01	13.5814	71.776236	0.000608	6.080789	2.060227	-0.000243
 665	6.6068e+01	13.5397	71.614751	0.000405	4.053859	1.373485	-0.000162
 666	6.6168e+01	13.5044	71.437117	0.000446	4.459245	1.510833	-0.000179
 667	6.6267e+01	13.4595	71.219112	0.000547	5.472710	1.854204	-0.000219
 668	6.6367e+01	13.4178	71.041478	0.000446	4.459245	1.510833	-0.000179
 669	6.6466e+01	13.3777	70.803287	0.000598	5.979443	2.025890	-0.000239
 670	6.6566e+01	13.3440	70.653913	0.000375	3.749820	1.270473	-0.000150
 671	6.6665e+01	13.3007	70.456093	0.000497	4.965978	1.682519	-0.000199
 672	6.6764e+01	13.2542	70.274422	0.000456	4.560592	1.545170	-0.000183
 673	6.6864e+01	13.2253	70.064491	0.000527	5.270017	1.785530	-0.000211
 674	6.6963e+01	13.1740	69.874745	0.000476	4.763285	1.613845	-0.000191
 675	6.7063e+01	13.1355	69.672889	0.000507	5.067324	1.716856	-0.000203
 676	6.7162e+01	13.0954	69.462958	0.000527	5.270017	1.785530	-0.000211
 677	6.7262e+01	13.0649	69.265138	0.000497	4.965978	1.682519	-0.000199
 678	6.7362e+01	13.0248	69.111727	0.000385	3.851166	1.304810	-0.000154
 679	6.7461e+01	12.9686	68.893721	0.000547	5.472710	1.854204	-0.000219
 680	6.7561e+01	12.9381	68.708013	0.000466	4.661938	1.579507	-0.000187
 681	6.7660e+01	12.8980	68.510193	0.000497	4.965978	1.682519	-0.000199
 682	6.7760e+01	12.8579	68.332560	0.000446	4.459245	1.510833	-0.000179
 683	6.7859e+01	12.8242	68.134740	0.000497	4.965978	1.682519	-0.000199
 684	6.7959e+01	12.7841	67.957106	0.000446	4.459245	1.510833	-0.000179
 685	6.8058e+01	12.7472	67.759286	0.000497	4.965978	1.682519	-0.000199
 686	6.8157e+01	12.7055	67.553392	0.000517	5.168671	1.751193	-0.000207
 687	6.8257e+01	12.6542	67.303090	0.000628	6.283482	2.128901	-0.000252
 688	6.8356e+01	12.6157	67.169864	0.000334	3.344434	1.133125	-0.000134
 689	6.8456e+01	12.5772	66.955896	0.000537	5.371364	1.819867	-0.000215
 690	6.8555e+01	12.5579	66.762114	0.000486	4.864631	1.648182	-0.000195
 691	6.8655e+01	12.5066	66.572368	0.000476	4.763285	1.613845	-0.000191
 692	6.8754e+01	12.4681	66.366474	0.000517	5.168671	1.751193	-0.000207
 693	6.8854e+01	12.4296	66.176729	0.000476	4.763285	1.613845	-0.000191
 694	6.8954e+01	12.3895	65.958724	0.000547	5.472710	1.854204	-0.000219
 695	6.9053e+01	12.3478	65.785127	0.000436	4.357899	1.476496	-0.000174
 696	6.9153e+01	12.3045	65.575196	0.000527	5.270017	1.785530	-0.000211
 697	6.9252e+01	12.2644	65.377376	0.000497	4.965978	1.682519	-0.000199
 698	6.9352e+01	12.2226	65.199742	0.000446	4.459245	1.510833	-0.000179
 699	6.9451e+01	12.1874	64.969625	0.000578	5.776750	1.957216	-0.000231
 700	6.9550e+01	12.1505	64.791991	0.000446	4.459245	1.510833	-0.000179
 701	6.9650e+01	12.1152	64.610320	0.000456	4.560592	1.545170	-0.000183
 702	6.9749e+01	12.0686	64.408464	0.000507	5.067324	1.716856	-0.000203
 703	6.9849e+01	12.0317	64.194495	0.000537	5.371364	1.819867	-0.000215
 704	6.9948e+01	11.9884	63.984564	0.000527	5.270017	1.785530	-0.000211
 705	7.0048e+01	11.9515	63.794819	0.000476	4.763285	1.613845	-0.000191
 706	7.0147e+01	11.9114	63.580851	0.000537	5.371364	1.819867	-0.000215
 707	7.0247e+01	11.8713	63.403217	0.000446	4.459245	1.510833	-0.000179
 708	7.0347e+01	11.8280	63.205397	0.000497	4.965978	1.682519	-0.000199
 709	7.0446e+01	11.7895	63.007577	0.000497	4.965978	1.682519	-0.000199
 710	7.0546e+01	11.7526	62.813795	0.000486	4.864631	1.648182	-0.000195
 711	7.0645e+01	11.7125	62.587715	0.000568	5.675403	1.922879	-0.000227
 712	7.0745e+01	11.6740	62.389896	0.000497	4.965978	1.682519	-0.000199
 713	7.0844e+01	11.6339	62.208225	0.000456	4.560592	1.545170	-0.000183
 714	7.0944e+01	11.5954	62.002331	0.000517	5.168671	1.751193	-0.000207
 715	7.1043e+01	11.5441	61.788362	0.000537	5.371364	1.819867	-0.000215
 716	7.1142e+01	11.5296	61.598617	0.000476	4.763285	1.613845	-0.000191
 717	7.1242e+01	11.4655	61.400797	0.000497	4.965978	1.682519	-0.000199
 718	7.1341e+01	11.4253	61.190866	0.000527	5.270017	1.785530	-0.000211
 719	7.1441e+01	11.3884	60.997084	0.000486	4.864631	1.648182	-0.000195
 720	7.1540e+01	11.3516	60.807338	0.000476	4.763285	1.613845	-0.000191
 721	7.1640e+01	11.3050	60.609519	0.000497	4.965978	1.682519	-0.000199
 722	7.1740e+01	11.2681	60.399588	0.000527	5.270017	1.785530	-0.000211
 723	7.1839e+01	11.2184	60.173508	0.000568	5.675403	1.922879	-0.000227
 724	7.1939e+01	11.1943	60.028171	0.000365	3.648473	1.236136	-0.000146
 725	7.2038e+01	11.1526	59.802092	0.000568	5.675403	1.922879	-0.000227
 726	7.2138e+01	11.1061	59.604272	0.000497	4.965978	1.682519	-0.000199
 727	7.2237e+01	11.0660	59.398378	0.000517	5.168671	1.751193	-0.000207
 728	7.2337e+01	11.0307	59.228818	0.000426	4.256552	1.442159	-0.000170
 729	7.2436e+01	10.9890	58.970442	0.000649	6.486175	2.197576	-0.000260
 730	7.2535e+01	10.9569	58.804919	0.000416	4.155206	1.407822	-0.000166
 731	7.2635e+01	10.9104	58.599025	0.000517	5.168671	1.751193	-0.000207
 732	7.2734e+01	10.8655	58.405243	0.000486	4.864631	1.648182	-0.000195
 733	7.2834e+01	10.8350	58.171089	0.000588	5.878096	1.991553	-0.000235
 734	7.2933e+01	10.7901	57.981343	0.000476	4.763285	1.613845	-0.000191
 735	7.3033e+01	10.7596	57.787561	0.000486	4.864631	1.648182	-0.000195
 736	7.3132e+01	10.7131	57.545333	0.000608	6.080789	2.060227	-0.000243
 737	7.3232e+01	10.6778	57.363662	0.000456	4.560592	1.545170	-0.000183
 738	7.3332e+01	10.6280	57.165842	0.000497	4.965978	1.682519	-0.000199
 739	7.3431e+01	10.5863	56.972060	0.000486	4.864631	1.648182	-0.000195
 740	7.3531e+01	10.5607	56.778277	0.000486	4.864631	1.648182	-0.000195
 741	7.3630e+01	10.5174	56.596606	0.000456	4.560592	1.545170	-0.000183
 742	7.3730e+01	10.4708	56.342266	0.000638	6.384829	2.163238	-0.000256
 743	7.3829e+01	10.4339	56.160595	0.000456	4.560592	1.545170	-0.000183
 744	7.3928e+01	10.3954	55.950664	0.000527	5.270017	1.785530	-0.000211
 745	7.4028e+01	10.3473	55.756882	0.000486	4.864631	1.648182	-0.000195
 746	7.4127e+01	10.3136	55.534839	0.000557	5.574057	1.888542	-0.000223
 747	7.4227e+01	10.2703	55.320871	0.000537	5.371364	1.819867	-0.000215
 748	7.4326e+01	10.2318	55.159386	0.000405	4.053859	1.373485	-0.000162
 749	7.4426e+01	10.1917	54.945417	0.000537	5.371364	1.819867	-0.000215
 750	7.4525e+01	10.1468	54.743561	0.000507	5.067324	1.716856	-0.000203
 751	7.4625e+01	10.1227	54.505370	0.000598	5.979443	2.025890	-0.000239
 752	7.4725e+01	10.0858	54.291401	0.000537	5.371364	1.819867	-0.000215
 753	7.4824e+01	10.0377	54.113767	0.000446	4.459245	1.510833	-0.000179
 754	7.4924e+01	9.9912	53.883651	0.000578	5.776750	1.957216	-0.000231
 755	7.5023e+01	9.9495	53.693905	0.000476	4.763285	1.613845	-0.000191
 756	7.5123e+01	9.9158	53.504160	0.000476	4.763285	1.613845	-0.000191
 757	7.5222e+01	9.8789	53.298266	0.000517	5.168671	1.751193	-0.000207
 758	7.5322e+01	9.8388	53.060075	0.000598	5.979443	2.025890	-0.000239
 759	7.5421e+01	9.7954	52.914738	0.000365	3.648473	1.236136	-0.000146
 760	7.5520e+01	9.7473	52.680584	0.000588	5.878096	1.991553	-0.000235
 761	7.5620e+01	9.7136	52.474690	0.000517	5.168671	1.751193	-0.000207
 762	7.5719e+01	9.6719	52.252648	0.000557	5.574057	1.888542	-0.000223
 763	7.5819e+01	9.6366	52.042717	0.000527	5.270017	1.785530	-0.000211
 764	7.5918e+01	9.5997	51.861046	0.000456	4.560592	1.545170	-0.000183
 765	7.6018e+01	9.5596	51.622855	0.000598	5.979443	2.025890	-0.000239
 766	7.6118e+01	9.5227	51.429072	0.000486	4.864631	1.648182	-0.000195
 767	7.6217e+01	9.4810	51.239327	0.000476	4.763285	1.613845	-0.000191
 768	7.6317e+01	9.4345	51.041507	0.000497	4.965978	1.682519	-0.000199
 769	7.6416e+01	9.3960	50.827539	0.000537	5.371364	1.819867	-0.000215
 770	7.6516e+01	9.3591	50.589348	0.000598	5.979443	2.025890	-0.000239
 771	7.6615e+01	9.3222	50.379417	0.000527	5.270017	1.785530	-0.000211
 772	7.6715e+01	9.2773	50.181597	0.000497	4.965978	1.682519	-0.000199
 773	7.6814e+01	9.2436	49.979740	0.000507	5.067324	1.716856	-0.000203
 774	7.6913e+01	9.2019	49.757698	0.000557	5.574057	1.888542	-0.000223
 775	7.7013e+01	9.1586	49.584101	0.000436	4.357899	1.476496	-0.000174
 776	7.7112e+01	9.1136	49.341873	0.000608	6.080789	2.060227	-0.000243
 777	7.7212e+01	9.0864	49.131942	0.000527	5.270017	1.785530	-0.000211
 778	7.7311e+01	9.0334	48.954308	0.000446	4.459245	1.510833	-0.000179
 779	7.7411e+01	9.0030	48.691894	0.000659	6.587521	2.231913	-0.000264
 780	7.7510e+01	8.9596	48.514260	0.000446	4.459245	1.510833	-0.000179
 781	7.7610e+01	8.9227	48.280106	0.000588	5.878096	1.991553	-0.000235
 782	7.7710e+01	8.8778	48.106509	0.000436	4.357899	1.476496	-0.000174
 783	7.7809e+01	8.8506	47.876393	0.000578	5.776750	1.957216	-0.000231
 784	7.7909e+01	8.7928	47.678573	0.000497	4.965978	1.682519	-0.000199
 785	7.8008e+01	8.7623	47.472679	0.000517	5.168671	1.751193	-0.000207
 786	7.8108e+01	8.7190	47.250637	0.000557	5.574057	1.888542	-0.000223
 787	7.8207e+01	8.6869	47.064928	0.000466	4.661938	1.579507	-0.000187
 788	7.8306e+01	8.6308	46.834812	0.000578	5.776750	1.957216	-0.000231
 789	7.8406e+01	8.6019	46.628918	0.000517	5.168671	1.751193	-0.000207
 790	7.8505e+01	8.5586	46.439172	0.000476	4.763285	1.613845	-0.000191
 791	7.8605e+01	8.5217	46.225204	0.000537	5.371364	1.819867	-0.000215
 792	7.8704e+01	8.4768	46.023347	0.000507	5.067324	1.716856	-0.000203
 793	7.8804e+01	8.4479	45.773045	0.000628	6.283482	2.128901	-0.000252
 794	7.8903e+01	8.3966	45.611560	0.000405	4.053859	1.373485	-0.000162
 795	7.9003e+01	8.3629	45.377406	0.000588	5.878096	1.991553	-0.000235
 796	7.9103e+01	8.3292	45.159400	0.000547	5.472710	1.854204	-0.000219
 797	7.9202e+01	8.2762	44.937358	0.000557	5.574057	1.888542	-0.000223
 798	7.9302e+01	8.2425	44.711278	0.000568	5.675403	1.922879	-0.000227
 799	7.9401e+01	8.2024	44.525570	0.000466	4.661938	1.579507	-0.000187
 800	7.9501e+01	8.1575	44.299490	0.000568	5.675403	1.922879	-0.000227
 801	7.9600e+01	8.1174	44.085522	0.000537	5.371364	1.819867	-0.000215
 802	7.9700e+01	8.0725	43.879628	0.000517	5.168671	1.751193	-0.000207
 803	7.9799e+01	8.0308	43.661623	0.000547	5.472710	1.854204	-0.000219
 804	7.9898e+01	8.0083	43.475915	0.000466	4.661938	1.579507	-0.000187
 805	7.9998e+01	7.9602	43.257909	0.000547	5.472710	1.854204	-0.000219
 806	8.0097e+01	7.9201	43.056053	0.000507	5.067324	1.716856	-0.000203
 807	8.0197e+01	7.8800	42.801713	0.000638	6.384829	2.163238	-0.000256
 808	8.0296e+01	7.8447	42.595819	0.000517	5.168671	1.751193	-0.000207
 809	8.0396e+01	7.8062	42.430297	0.000416	4.155206	1.407822	-0.000166
 810	8.0496e+01	7.7629	42.151734	0.000699	6.992907	2.369261	-0.000280
 811	8.0595e+01	7.7260	41.949877	0.000507	5.067324	1.716856	-0.000203
 812	8.0695e+01	7.6827	41.764169	0.000466	4.661938	1.579507	-0.000187
 813	8.0794e+01	7.6490	41.566350	0.000497	4.965978	1.682519	-0.000199
 814	8.0894e+01	7.5896	41.324121	0.000608	6.080789	2.060227	-0.000243
 815	8.0993e+01	7.5624	41.085930	0.000598	5.979443	2.025890	-0.000239
 816	8.1093e+01	7.5255	40.916371	0.000426	4.256552	1.442159	-0.000170
 817	8.1192e+01	7.4870	40.662031	0.000638	6.384829	2.163238	-0.000256
 818	8.1291e+01	7.4485	40.476323	0.000466	4.661938	1.579507	-0.000187
 819	8.1391e+01	7.4083	40.254280	0.000557	5.574057	1.888542	-0.000223
 820	8.1490e+01	7.3634	39.999941	0.000638	6.384829	2.163238	-0.000256
 821	8.1590e+01	7.3201	39.846530	0.000385	3.851166	1.304810	-0.000154
 822	8.1689e+01	7.2800	39.612376	0.000588	5.878096	1.991553	-0.000235
 823	8.1789e+01	7.2415	39.382259	0.000578	5.776750	1.957216	-0.000231
 824	8.1888e+01	7.2014	39.168291	0.000537	5.371364	1.819867	-0.000215
 825	8.1988e+01	7.1677	38.982583	0.000466	4.661938	1.579507	-0.000187
 826	8.2088e+01	7.1260	38.704020	0.000699	6.992907	2.369261	-0.000280
 827	8.2187e+01	7.0795	38.538498	0.000416	4.155206	1.407822	-0.000166
 828	8.2287e+01	7.0474	38.344715	0.000486	4.864631	1.648182	-0.000195
 829	8.2386e+01	6.9896	38.086339	0.000649	6.486175	2.197576	-0.000260
 830	8.2486e+01	6.9672	37.884482	0.000507	5.067324	1.716856	-0.000203
 831	8.2585e+01	6.9287	37.670514	0.000537	5.371364	1.819867	-0.000215
 832	8.2684e+01	6.8790	37.456545	0.000537	5.371364	1.819867	-0.000215
 833	8.2784e+01	6.8453	37.222392	0.000588	5.878096	1.991553	-0.000235
 834	8.2883e+01	6.8068	37.024572	0.000497	4.965978	1.682519	-0.000199
 835	8.2983e+01	6.7683	36.798492	0.000568	5.675403	1.922879	-0.000227
 836	8.3082e+01	6.7298	36.592598	0.000517	5.168671	1.751193	-0.000207
 837	8.3182e+01	6.6880	36.378630	0.000537	5.371364	1.819867	-0.000215
 838	8.3281e+01	6.6431	36.188885	0.000476	4.763285	1.613845	-0.000191
 839	8.3381e+01	6.6094	35.926471	0.000659	6.587521	2.231913	-0.000264
 840	8.3481e+01	6.5677	35.700391	0.000568	5.675403	1.922879	-0.000227
 841	8.3580e+01	6.5228	35.486423	0.000537	5.371364	1.819867	-0.000215
 842	8.3680e+01	6.4875	35.288603	0.000497	4.965978	1.682519	-0.000199
 843	8.3779e+01	6.4426	35.062524	0.000568	5.675403	1.922879	-0.000227
 844	8.3879e+01	6.4073	34.868741	0.000486	4.864631	1.648182	-0.000195
 845	8.3978e+01	6.3720	34.642662	0.000568	5.675403	1.922879	-0.000227
 846	8.4078e+01	6.3335	34.452916	0.000476	4.763285	1.613845	-0.000191
 847	8.4177e+01	6.2918	34.226837	0.000568	5.675403	1.922879	-0.000227
 848	8.4276e+01	6.2517	34.016906	0.000527	5.270017	1.785530	-0.000211
 849	8.4376e+01	6.2164	33.738343	0.000699	6.992907	2.369261	-0.000280
 850	8.4475e+01	6.1603	33.532449	0.000517	5.168671	1.751193	-0.000207
 851	8.4575e+01	6.1314	33.310407	0.000557	5.574057	1.888542	-0.000223
 852	8.4674e+01	6.0897	33.100476	0.000527	5.270017	1.785530	-0.000211
 853	8.4774e+01	6.0560	32.926879	0.000436	4.357899	1.476496	-0.000174
 854	8.4874e+01	6.0095	32.684651	0.000608	6.080789	2.060227	-0.000243
 855	8.4973e+01	5.9710	32.494906	0.000476	4.763285	1.613845	-0.000191
 856	8.5073e+01	5.9244	32.244603	0.000628	6.283482	2.128901	-0.000252
 857	8.5172e+01	5.8907	31.986226	0.000649	6.486175	2.197576	-0.000260
 858	8.5272e+01	5.8538	31.800518	0.000466	4.661938	1.579507	-0.000187
 859	8.5371e+01	5.8089	31.618847	0.000456	4.560592	1.545170	-0.000183
 860	8.5471e+01	5.7688	31.340285	0.000699	6.992907	2.369261	-0.000280
 861	8.5570e+01	5.7351	31.114205	0.000568	5.675403	1.922879	-0.000227
 862	8.5669e+01	5.6854	30.904274	0.000527	5.270017	1.785530	-0.000211
 863	8.5769e+01	5.6501	30.690306	0.000537	5.371364	1.819867	-0.000215
 864	8.5868e+01	5.5972	30.456152	0.000588	5.878096	1.991553	-0.000235
 865	8.5968e+01	5.5747	30.270444	0.000466	4.661938	1.579507	-0.000187
 866	8.6067e+01	5.5346	30.036290	0.000588	5.878096	1.991553	-0.000235
 867	8.6167e+01	5.4913	29.826359	0.000527	5.270017	1.785530	-0.000211
 868	8.6266e+01	5.4576	29.584131	0.000608	6.080789	2.060227	-0.000243
 869	8.6366e+01	5.4111	29.398422	0.000466	4.661938	1.579507	-0.000187
 870	8.6466e+01	5.3742	29.196566	0.000507	5.067324	1.716856	-0.000203
 871	8.6565e+01	5.3244	28.958375	0.000598	5.979443	2.025890	-0.000239
 872	8.6665e+01	5.2940	28.732295	0.000568	5.675403	1.922879	-0.000227
 873	8.6764e+01	5.2555	28.510253	0.000557	5.574057	1.888542	-0.000223
 874	8.6864e+01	5.2122	28.296284	0.000537	5.371364	1.819867	-0.000215
 875	8.6963e+01	5.1753	28.062131	0.000588	5.878096	1.991553	-0.000235
 876	8.7063e+01	5.1287	27.836051	0.000568	5.675403	1.922879	-0.000227
 877	8.7162e+01	5.0886	27.585748	0.000628	6.283482	2.128901	-0.000252
 878	8.7261e+01	5.0533	27.412152	0.000436	4.357899	1.476496	-0.000174
 879	8.7361e+01	5.0180	27.182035	0.000578	5.776750	1.957216	-0.000231
 880	8.7460e+01	4.9747	26.968067	0.000537	5.371364	1.819867	-0.000215
 881	8.7560e+01	4.9314	26.729876	0.000598	5.979443	2.025890	-0.000239
 882	8.7659e+01	4.9057	26.507833	0.000557	5.574057	1.888542	-0.000223
 883	8.7759e+01	4.8576	26.326162	0.000456	4.560592	1.545170	-0.000183
 884	8.7859e+01	4.8223	26.051637	0.000689	6.891561	2.334924	-0.000276
 885	8.7958e+01	4.7758	25.849780	0.000507	5.067324	1.716856	-0.000203
 886	8.8058e+01	4.7325	25.643886	0.000517	5.168671	1.751193	-0.000207
 887	8.8157e+01	4.7020	25.393584	0.000628	6.283482	2.128901	-0.000252
 888	8.8257e+01	4.6619	25.211913	0.000456	4.560592	1.545170	-0.000183
 889	8.8356e+01	4.6154	24.997944	0.000537	5.371364	1.819867	-0.000215
 890	8.8456e+01	4.5801	24.743605	0.000638	6.384829	2.163238	-0.000256
 891	8.8555e+01	4.5480	24.517525	0.000568	5.675403	1.922879	-0.000227
 892	8.8654e+01	4.4935	24.315669	0.000507	5.067324	1.716856	-0.000203
 893	8.8754e+01	4.4534	24.061329	0.000638	6.384829	2.163238	-0.000256
 894	8.8853e+01	4.4213	23.839287	0.000557	5.574057	1.888542	-0.000223
 895	8.8953e+01	4.3763	23.645504	0.000486	4.864631	1.648182	-0.000195
 896	8.9052e+01	4.3443	23.439610	0.000517	5.168671	1.751193	-0.000207
 897	8.9152e+01	4.2993	23.165085	0.000689	6.891561	2.334924	-0.000276
 898	8.9251e+01	4.2496	22.987451	0.000446	4.459245	1.510833	-0.000179
 899	8.9351e+01	4.2255	22.729074	0.000649	6.486175	2.197576	-0.000260
 900	8.9451e+01	4.1806	22.511069	0.000547	5.472710	1.854204	-0.000219
 901	8.9550e+01	4.1357	22.276915	0.000588	5.878096	1.991553	-0.000235
 902	8.9650e+01	4.0924	22.095244	0.000456	4.560592	1.545170	-0.000183
 903	8.9749e+01	4.0571	21.857053	0.000598	5.979443	2.025890	-0.000239
 904	8.9849e+01	4.0266	21.614825	0.000608	6.080789	2.060227	-0.000243
 905	8.9948e+01	3.9705	21.404894	0.000527	5.270017	1.785530	-0.000211
 906	9.0047e+01	3.9448	21.158628	0.000618	6.182136	2.094564	-0.000248
 907	9.0147e+01	3.8999	20.956772	0.000507	5.067324	1.716856	-0.000203
 908	9.0246e+01	3.8534	20.730692	0.000568	5.675403	1.922879	-0.000227
 909	9.0346e+01	3.8197	20.512687	0.000547	5.472710	1.854204	-0.000219
 910	9.0445e+01	3.7796	20.234124	0.000699	6.992907	2.369261	-0.000280
 911	9.0545e+01	3.7379	20.064565	0.000426	4.256552	1.442159	-0.000170
 912	9.0644e+01	3.7026	19.850596	0.000537	5.371364	1.819867	-0.000215
 913	9.0744e+01	3.6593	19.616443	0.000588	5.878096	1.991553	-0.000235
 914	9.0844e+01	3.6304	19.406511	0.000527	5.270017	1.785530	-0.000211
 915	9.0943e+01	3.5806	19.152172	0.000638	6.384829	2.163238	-0.000256
 916	9.1043e+01	3.5405	18.918018	0.000588	5.878096	1.991553	-0.000235
 917	9.1142e+01	3.5101	18.732310	0.000466	4.661938	1.579507	-0.000187
 918	9.1242e+01	3.4571	18.490082	0.000608	6.080789	2.060227	-0.000243
 919	9.1341e+01	3.4186	18.272076	0.000547	5.472710	1.854204	-0.000219
 920	9.1441e+01	3.3801	18.050034	0.000557	5.574057	1.888542	-0.000223
 921	9.1540e+01	3.3336	17.779546	0.000679	6.790214	2.300587	-0.000272
 922	9.1639e+01	3.3111	17.601912	0.000446	4.459245	1.510833	-0.000179
 923	9.1739e+01	3.2646	17.343535	0.000649	6.486175	2.197576	-0.000260
 924	9.1838e+01	3.2277	17.133604	0.000527	5.270017	1.785530	-0.000211
 925	9.1938e+01	3.1908	16.939822	0.000486	4.864631	1.648182	-0.000195
 926	9.2037e+01	3.1379	16.693556	0.000618	6.182136	2.094564	-0.000248
 927	9.2137e+01	3.1026	16.427105	0.000669	6.688868	2.266250	-0.000268
 928	9.2237e+01	3.0593	16.237360	0.000476	4.763285	1.613845	-0.000191
 929	9.2336e+01	3.0208	16.011280	0.000568	5.675403	1.922879	-0.000227
 930	9.2436e+01	2.9823	15.805386	0.000517	5.168671	1.751193	-0.000207
 931	9.2535e+01	2.9422	15.555084	0.000628	6.283482	2.128901	-0.000252
 932	9.2635e+01	2.9069	15.337079	0.000547	5.472710	1.854204	-0.000219
 933	9.2734e+01	2.8587	15.106962	0.000578	5.776750	1.957216	-0.000231
 934	9.2834e+01	2.8251	14.848585	0.000649	6.486175	2.197576	-0.000260
 935	9.2933e+01	2.7833	14.670951	0.000446	4.459245	1.510833	-0.000179
 936	9.3032e+01	2.7352	14.392389	0.000699	6.992907	2.369261	-0.000280
 937	9.3132e+01	2.7031	14.218792	0.000436	4.357899	1.476496	-0.000174
 938	9.3231e+01	2.6662	13.992712	0.000568	5.675403	1.922879	-0.000227
 939	9.3331e+01	2.6261	13.778744	0.000537	5.371364	1.819867	-0.000215
 940	9.3430e+01	2.5812	13.536516	0.000608	6.080789	2.060227	-0.000243
 941	9.3530e+01	2.5427	13.278139	0.000649	6.486175	2.197576	-0.000260
 942	9.3629e+01	2.5058	13.100505	0.000446	4.459245	1.510833	-0.000179
 943	9.3729e+01	2.4673	12.890574	0.000527	5.270017	1.785530	-0.000211
 944	9.3829e+01	2.4288	12.599901	0.000730	7.296947	2.472273	-0.000292
 945	9.3928e+01	2.3855	12.426304	0.000436	4.357899	1.476496	-0.000174
 946	9.4028e+01	2.3486	12.180039	0.000618	6.182136	2.094564	-0.000248
 947	9.4127e+01	2.3101	11.941848	0.000598	5.979443	2.025890	-0.000239
 948	9.4227e+01	2.2588	11.719805	0.000557	5.574057	1.888542	-0.000223
 949	9.4326e+01	2.2235	11.489688	0.000578	5.776750	1.957216	-0.000231
 950	9.4425e+01	2.1834	11.271683	0.000547	5.472710	1.854204	-0.000219
 951	9.4525e+01	2.1497	11.081938	0.000476	4.763285	1.613845	-0.000191
 952	9.4624e+01	2.1048	10.775115	0.000770	7.702333	2.609621	-0.000308
 953	9.4724e+01	2.0711	10.581333	0.000486	4.864631	1.648182	-0.000195
 954	9.4823e+01	2.0197	10.355253	0.000568	5.675403	1.922879	-0.000227
 955	9.4923e+01	1.9909	10.100914	0.000638	6.384829	2.163238	-0.000256
 956	9.5022e+01	1.9507	9.899057	0.000507	5.067324	1.716856	-0.000203
 957	9.5122e+01	1.9042	9.705274	0.000486	4.864631	1.648182	-0.000195
 958	9.5222e+01	1.8609	9.442860	0.000659	6.587521	2.231913	-0.000264
 959	9.5321e+01	1.8304	9.220818	0.000557	5.574057	1.888542	-0.000223
 960	9.5421e+01	1.7839	8.990701	0.000578	5.776750	1.957216	-0.000231
 961	9.5520e+01	1.7454	8.792882	0.000497	4.965978	1.682519	-0.000199
 962	9.5620e+01	1.7053	8.562765	0.000578	5.776750	1.957216	-0.000231
 963	9.5719e+01	1.6636	8.348797	0.000537	5.371364	1.819867	-0.000215
 964	9.5819e+01	1.6315	8.090420	0.000649	6.486175	2.197576	-0.000260
 965	9.5918e+01	1.5882	7.876452	0.000537	5.371364	1.819867	-0.000215
 966	9.6017e+01	1.5497	7.650372	0.000568	5.675403	1.922879	-0.000227
 967	9.6117e+01	1.5048	7.440441	0.000527	5.270017	1.785530	-0.000211
 968	9.6216e+01	1.4695	7.210324	0.000578	5.776750	1.957216	-0.000231
 969	9.6316e+01	1.4262	6.968096	0.000608	6.080789	2.060227	-0.000243
 970	9.6415e+01	1.3893	6.697608	0.000679	6.790214	2.300587	-0.000272
 971	9.6515e+01	1.3427	6.515937	0.000456	4.560592	1.545170	-0.000183
 972	9.6615e+01	1.3058	6.261598	0.000638	6.384829	2.163238	-0.000256
 973	9.6714e+01	1.2802	6.035518	0.000568	5.675403	1.922879	-0.000227
 974	9.6814e+01	1.2304	5.817513	0.000547	5.472710	1.854204	-0.000219
 975	9.6913e+01	1.1935	5.579322	0.000598	5.979443	2.025890	-0.000239
 976	9.7013e+01	1.1454	5.357279	0.000557	5.574057	1.888542	-0.000223
 977	9.7112e+01	1.1117	5.119088	0.000598	5.979443	2.025890	-0.000239
 978	9.7212e+01	1.0748	4.868786	0.000628	6.283482	2.128901	-0.000252
 979	9.7311e+01	1.0267	4.662892	0.000517	5.168671	1.751193	-0.000207
 980	9.7410e+01	0.9818	4.444886	0.000547	5.472710	1.854204	-0.000219
 981	9.7510e+01	0.9545	4.186510	0.000649	6.486175	2.197576	-0.000260
 982	9.7609e+01	0.9080	3.960430	0.000568	5.675403	1.922879	-0.000227
 983	9.7709e+01	0.8663	3.762611	0.000497	4.965978	1.682519	-0.000199
 984	9.7808e+01	0.8310	3.572865	0.000476	4.763285	1.613845	-0.000191
 985	9.7908e+01	0.7861	3.326600	0.000618	6.182136	2.094564	-0.000248
 986	9.8007e+01	0.7444	3.076297	0.000628	6.283482	2.128901	-0.000252
 987	9.8107e+01	0.7059	2.817921	0.000649	6.486175	2.197576	-0.000260
 988	9.8207e+01	0.6642	2.628175	0.000476	4.763285	1.613845	-0.000191
 989	9.8306e+01	0.6337	2.430356	0.000497	4.965978	1.682519	-0.000199
 990	9.8406e+01	0.5904	2.171979	0.000649	6.486175	2.197576	-0.000260
 991	9.8505e+01	0.5470	1.905528	0.000669	6.688868	2.266250	-0.000268
 992	9.8605e+01	0.5069	1.731931	0.000436	4.357899	1.476496	-0.000174
 993	9.8704e+01	0.4749	1.481629	0.000628	6.283482	2.128901	-0.000252
 994	9.8803e+01	0.4396	1.247475	0.000588	5.878096	1.991553	-0.000235
 995	9.8903e+01	0.3978	1.009284	0.000598	5.979443	2.025890	-0.000239
 996	9.9002e+01	0.3513	0.791279	0.000547	5.472710	1.854204	-0.000219
 997	9.9102e+01	0.3032	0.569236	0.000557	5.574057	1.888542	-0.000223
 998	9.9201e+01	0.2759	0.322971	0.000618	6.182136	2.094564	-0.000248
 999	9.9301e+01	0.2294	0.092854	0.000578	5.776750	1.957216	-0.000231
1000	9.9400e+01	0.1893	-0.117077	0.000527	5.270017	1.785530	-0.000211
1001	9.9500e+01	0.1604	-0.359305	0.000608	6.080789	2.060227	-0.000243
1002	9.9600e+01	0.1107	-0.573273	0.000537	5.371364	1.819867	-0.000215
1003	9.9699e+01	0.0754	-0.803390	0.000578	5.776750	1.957216	-0.000231
1004	9.9799e+01	0.0353	-1.037544	0.000588	5.878096	1.991553	-0.000235
1005	9.9898e+01	0.0016	-1.227289	0.000476	4.763285	1.613845	-0.000191
1006	9.9998e+01	-0.0401	-1.461443	0.000588	5.878096	1.991553	-0.000235
1007	1.0010e+02	-0.0754	-1.655226	0.000486	4.864631	1.648182	-0.000195
1008	1.0020e+02	-0.1203	-1.917639	0.000659	6.587521	2.231913	-0.000264
1009	1.0030e+02	-0.1524	-2.155830	0.000598	5.979443	2.025890	-0.000239
1010	1.0040e+02	-0.1973	-2.369799	0.000537	5.371364	1.819867	-0.000215
1011	1.0050e+02	-0.2358	-2.583767	0.000537	5.371364	1.819867	-0.000215
1012	1.0059e+02	-0.2695	-2.830032	0.000618	6.182136	2.094564	-0.000248
1013	1.0069e+02	-0.3208	-3.027852	0.000497	4.965978	1.682519	-0.000199
1014	1.0079e+02	-0.3577	-3.262006	0.000588	5.878096	1.991553	-0.000235
1015	1.0089e+02	-0.4011	-3.467900	0.000517	5.168671	1.751193	-0.000207
1016	1.0099e+02	-0.4412	-3.734351	0.000669	6.688868	2.266250	-0.000268
1017	1.0109e+02	-0.4781	-3.964467	0.000578	5.776750	1.957216	-0.000231
1018	1.0119e+02	-0.5085	-4.174398	0.000527	5.270017	1.785530	-0.000211
1019	1.0129e+02	-0.5486	-4.400478	0.000568	5.675403	1.922879	-0.000227
1020	1.0139e+02	-0.5984	-4.658855	0.000649	6.486175	2.197576	-0.000260
1021	1.0149e+02	-0.6305	-4.848600	0.000476	4.763285	1.613845	-0.000191
1022	1.0159e+02	-0.6786	-5.090828	0.000608	6.080789	2.060227	-0.000243
1023	1.0169e+02	-0.7187	-5.337093	0.000618	6.182136	2.094564	-0.000248
1024	1.0179e+02	-0.7652	-5.583359	0.000618	6.182136	2.094564	-0.000248
1025	1.0189e+02	-0.7957	-5.785216	0.000507	5.067324	1.716856	-0.000203
1026	1.0199e+02	-0.8390	-6.003221	0.000547	5.472710	1.854204	-0.000219
1027	1.0209e+02	-0.8727	-6.237375	0.000588	5.878096	1.991553	-0.000235
1028	1.0219e+02	-0.9096	-6.483640	0.000618	6.182136	2.094564	-0.000248
1029	1.0229e+02	-0.9513	-6.665311	0.000456	4.560592	1.545170	-0.000183
1030	1.0239e+02	-0.9930	-6.899465	0.000588	5.878096	1.991553	-0.000235
1031	1.0248e+02	-1.0315	-7.169953	0.000679	6.790214	2.300587	-0.000272
1032	1.0258e+02	-1.0716	-7.371810	0.000507	5.067324	1.716856	-0.000203
1033	1.0268e+02	-1.1149	-7.593852	0.000557	5.574057	1.888542	-0.000223
1034	1.0278e+02	-1.1454	-7.807821	0.000537	5.371364	1.819867	-0.000215
1035	1.0288e+02	-1.1968	-8.050049	0.000608	6.080789	2.060227	-0.000243
1036	1.0298e+02	-1.2417	-8.312462	0.000659	6.587521	2.231913	-0.000264
1037	1.0308e+02	-1.2754	-8.502208	0.000476	4.763285	1.613845	-0.000191
1038	1.0318e+02	-1.3091	-8.748473	0.000618	6.182136	2.094564	-0.000248
1039	1.0328e+02	-1.3588	-8.954367	0.000517	5.168671	1.751193	-0.000207
1040	1.0338e+02	-1.3925	-9.212744	0.000649	6.486175	2.197576	-0.000260
1041	1.0348e+02	-1.4310	-9.450935	0.000598	5.979443	2.025890	-0.000239
1042	1.0358e+02	-1.4775	-9.660866	0.000527	5.270017	1.785530	-0.000211
1043	1.0368e+02	-1.5144	-9.850611	0.000476	4.763285	1.613845	-0.000191
1044	1.0378e+02	-1.5577	-10.068617	0.000547	5.472710	1.854204	-0.000219
1045	1.0388e+02	-1.5850	-10.310845	0.000608	6.080789	2.060227	-0.000243
1046	1.0398e+02	-1.6299	-10.569221	0.000649	6.486175	2.197576	-0.000260
1047	1.0408e+02	-1.6748	-10.791264	0.000557	5.574057	1.888542	-0.000223
1048	1.0418e+02	-1.7213	-10.985046	0.000486	4.864631	1.648182	-0.000195
1049	1.0428e+02	-1.7486	-11.211126	0.000568	5.675403	1.922879	-0.000227
1050	1.0438e+02	-1.7823	-11.461428	0.000628	6.283482	2.128901	-0.000252
1051	1.0447e+02	-1.8288	-11.687508	0.000568	5.675403	1.922879	-0.000227
1052	1.0457e+02	-1.8818	-11.897439	0.000527	5.270017	1.785530	-0.000211
1053	1.0467e+02	-1.9122	-12.127556	0.000578	5.776750	1.957216	-0.000231
1054	1.0477e+02	-1.9507	-12.365747	0.000598	5.979443	2.025890	-0.000239
1055	1.0487e+02	-1.9892	-12.599901	0.000588	5.878096	1.991553	-0.000235
1056	1.0497e+02	-2.0261	-12.777535	0.000446	4.459245	1.510833	-0.000179
1057	1.0507e+02	-2.0855	-13.039948	0.000659	6.587521	2.231913	-0.000264
1058	1.0517e+02	-2.1128	-13.278139	0.000598	5.979443	2.025890	-0.000239
1059	1.0527e+02	-2.1513	-13.484033	0.000517	5.168671	1.751193	-0.000207
1060	1.0537e+02	-2.1978	-13.734336	0.000628	6.283482	2.128901	-0.000252
1061	1.0547e+02	-2.2267	-13.968490	0.000588	5.878096	1.991553	-0.000235
1062	1.0557e+02	-2.2716	-14.150161	0.000456	4.560592	1.545170	-0.000183
1063	1.0567e+02	-2.3117	-14.335869	0.000466	4.661938	1.579507	-0.000187
1064	1.0577e+02	-2.3550	-14.582134	0.000618	6.182136	2.094564	-0.000248
1065	1.0587e+02	-2.3919	-14.816288	0.000588	5.878096	1.991553	-0.000235
1066	1.0597e+02	-2.4320	-15.046405	0.000578	5.776750	1.957216	-0.000231
1067	1.0607e+02	-2.4673	-15.256336	0.000527	5.270017	1.785530	-0.000211
1068	1.0617e+02	-2.5122	-15.494527	0.000598	5.979443	2.025890	-0.000239
1069	1.0627e+02	-2.5507	-15.728681	0.000588	5.878096	1.991553	-0.000235
1070	1.0637e+02	-2.5828	-15.950723	0.000557	5.574057	1.888542	-0.000223
1071	1.0647e+02	-2.6325	-16.164691	0.000537	5.371364	1.819867	-0.000215
1072	1.0656e+02	-2.6646	-16.402883	0.000598	5.979443	2.025890	-0.000239
1073	1.0666e+02	-2.6999	-16.568405	0.000416	4.155206	1.407822	-0.000166
1074	1.0676e+02	-2.7448	-16.851005	0.000709	7.094254	2.403598	-0.000284
1075	1.0686e+02	-2.7994	-17.085158	0.000588	5.878096	1.991553	-0.000235
1076	1.0696e+02	-2.8299	-17.295090	0.000527	5.270017	1.785530	-0.000211
1077	1.0706e+02	-2.8700	-17.476761	0.000456	4.560592	1.545170	-0.000183
1078	1.0716e+02	-2.9149	-17.714952	0.000598	5.979443	2.025890	-0.000239
1079	1.0726e+02	-2.9438	-17.977365	0.000659	6.587521	2.231913	-0.000264
1080	1.0736e+02	-2.9935	-18.171148	0.000486	4.864631	1.648182	-0.000195
1081	1.0746e+02	-3.0288	-18.409339	0.000598	5.979443	2.025890	-0.000239
1082	1.0756e+02	-3.0689	-18.627344	0.000547	5.472710	1.854204	-0.000219
1083	1.0766e+02	-3.1058	-18.829201	0.000507	5.067324	1.716856	-0.000203
1084	1.0776e+02	-3.1507	-19.091615	0.000659	6.587521	2.231913	-0.000264
1085	1.0786e+02	-3.1940	-19.281360	0.000476	4.763285	1.613845	-0.000191
1086	1.0796e+02	-3.2373	-19.547811	0.000669	6.688868	2.266250	-0.000268
1087	1.0806e+02	-3.2662	-19.757742	0.000527	5.270017	1.785530	-0.000211
1088	1.0816e+02	-3.3095	-19.947488	0.000476	4.763285	1.613845	-0.000191
1089	1.0826e+02	-3.3545	-20.177604	0.000578	5.776750	1.957216	-0.000231
1090	1.0836e+02	-3.3817	-20.427907	0.000628	6.283482	2.128901	-0.000252
1091	1.0845e+02	-3.4250	-20.641875	0.000537	5.371364	1.819867	-0.000215
1092	1.0855e+02	-3.4684	-20.839695	0.000497	4.965978	1.682519	-0.000199
1093	1.0865e+02	-3.5085	-21.089997	0.000628	6.283482	2.128901	-0.000252
1094	1.0875e+02	-3.5502	-21.283780	0.000486	4.864631	1.648182	-0.000195
1095	1.0885e+02	-3.5871	-21.485636	0.000507	5.067324	1.716856	-0.000203
1096	1.0895e+02	-3.6288	-21.744013	0.000649	6.486175	2.197576	-0.000260
1097	1.0905e+02	-3.6641	-21.953944	0.000527	5.270017	1.785530	-0.000211
1098	1.0915e+02	-3.7106	-22.212321	0.000649	6.486175	2.197576	-0.000260
1099	1.0925e+02	-3.7379	-22.422252	0.000527	5.270017	1.785530	-0.000211
1100	1.0935e+02	-3.7812	-22.620072	0.000497	4.965978	1.682519	-0.000199
1101	1.0945e+02	-3.8245	-22.817891	0.000497	4.965978	1.682519	-0.000199
1102	1.0955e+02	-3.8582	-23.031859	0.000537	5.371364	1.819867	-0.000215
1103	1.0965e+02	-3.8951	-23.274088	0.000608	6.080789	2.060227	-0.000243
1104	1.0975e+02	-3.9448	-23.500167	0.000568	5.675403	1.922879	-0.000227
1105	1.0985e+02	-3.9897	-23.746432	0.000618	6.182136	2.094564	-0.000248
1106	1.0995e+02	-4.0170	-23.932141	0.000466	4.661938	1.579507	-0.000187
1107	1.1005e+02	-4.0603	-24.158220	0.000568	5.675403	1.922879	-0.000227
1108	1.1015e+02	-4.1052	-24.376226	0.000547	5.472710	1.854204	-0.000219
1109	1.1025e+02	-4.1357	-24.586157	0.000527	5.270017	1.785530	-0.000211
1110	1.1035e+02	-4.1774	-24.812236	0.000568	5.675403	1.922879	-0.000227
1111	1.1044e+02	-4.2159	-25.010056	0.000497	4.965978	1.682519	-0.000199
1112	1.1054e+02	-4.2689	-25.240173	0.000578	5.776750	1.957216	-0.000231
1113	1.1064e+02	-4.3009	-25.470289	0.000578	5.776750	1.957216	-0.000231
1114	1.1074e+02	-4.3459	-25.696369	0.000568	5.675403	1.922879	-0.000227
1115	1.1084e+02	-4.3812	-25.914374	0.000547	5.472710	1.854204	-0.000219
1116	1.1094e+02	-4.4197	-26.116231	0.000507	5.067324	1.716856	-0.000203
1117	1.1104e+02	-4.4710	-26.366534	0.000628	6.283482	2.128901	-0.000252
1118	1.1114e+02	-4.5031	-26.588576	0.000557	5.574057	1.888542	-0.000223
1119	1.1124e+02	-4.5384	-26.790433	0.000507	5.067324	1.716856	-0.000203
1120	1.1134e+02	-4.5849	-26.972104	0.000456	4.560592	1.545170	-0.000183
1121	1.1144e+02	-4.6250	-27.214332	0.000608	6.080789	2.060227	-0.000243
1122	1.1154e+02	-4.6635	-27.432337	0.000547	5.472710	1.854204	-0.000219
1123	1.1164e+02	-4.6924	-27.662454	0.000578	5.776750	1.957216	-0.000231
1124	1.1174e+02	-4.7453	-27.844125	0.000456	4.560592	1.545170	-0.000183
1125	1.1184e+02	-4.7774	-28.070205	0.000568	5.675403	1.922879	-0.000227
1126	1.1194e+02	-4.8175	-28.280136	0.000527	5.270017	1.785530	-0.000211
1127	1.1204e+02	-4.8592	-28.494104	0.000537	5.371364	1.819867	-0.000215
1128	1.1214e+02	-4.8945	-28.728258	0.000588	5.878096	1.991553	-0.000235
1129	1.1224e+02	-4.9410	-28.930115	0.000507	5.067324	1.716856	-0.000203
1130	1.1234e+02	-4.9827	-29.188491	0.000649	6.486175	2.197576	-0.000260
1131	1.1244e+02	-5.0229	-29.394385	0.000517	5.168671	1.751193	-0.000207
1132	1.1253e+02	-5.0694	-29.612391	0.000547	5.472710	1.854204	-0.000219
1133	1.1263e+02	-5.1015	-29.810210	0.000497	4.965978	1.682519	-0.000199
1134	1.1273e+02	-5.1368	-30.012067	0.000507	5.067324	1.716856	-0.000203
1135	1.1283e+02	-5.1801	-30.242184	0.000578	5.776750	1.957216	-0.000231
1136	1.1293e+02	-5.2218	-30.468263	0.000568	5.675403	1.922879	-0.000227
1137	1.1303e+02	-5.2667	-30.690306	0.000557	5.574057	1.888542	-0.000223
1138	1.1313e+02	-5.2924	-30.924460	0.000588	5.878096	1.991553	-0.000235
1139	1.1323e+02	-5.3341	-31.126317	0.000507	5.067324	1.716856	-0.000203
1140	1.1333e+02	-5.3774	-31.340285	0.000537	5.371364	1.819867	-0.000215
1141	1.1343e+02	-5.4175	-31.554253	0.000537	5.371364	1.819867	-0.000215
1142	1.1353e+02	-5.4624	-31.760147	0.000517	5.168671	1.751193	-0.000207
1143	1.1363e+02	-5.4961	-31.937781	0.000446	4.459245	1.510833	-0.000179
1144	1.1373e+02	-5.5410	-32.204232	0.000669	6.688868	2.266250	-0.000268
1145	1.1383e+02	-5.5763	-32.410126	0.000517	5.168671	1.751193	-0.000207
1146	1.1393e+02	-5.6180	-32.656391	0.000618	6.182136	2.094564	-0.000248
1147	1.1403e+02	-5.6565	-32.817876	0.000405	4.053859	1.373485	-0.000162
1148	1.1413e+02	-5.6902	-33.072216	0.000638	6.384829	2.163238	-0.000256
1149	1.1423e+02	-5.7448	-33.249850	0.000446	4.459245	1.510833	-0.000179
1150	1.1433e+02	-5.7752	-33.484004	0.000588	5.878096	1.991553	-0.000235
1151	1.1442e+02	-5.8137	-33.734306	0.000628	6.283482	2.128901	-0.000252
1152	1.1452e+02	-5.8667	-33.903866	0.000426	4.256552	1.442159	-0.000170
1153	1.1462e+02	-5.9004	-34.121871	0.000547	5.472710	1.854204	-0.000219
1154	1.1472e+02	-5.9389	-34.343914	0.000557	5.574057	1.888542	-0.000223
1155	1.1482e+02	-5.9677	-34.521548	0.000446	4.459245	1.510833	-0.000179
1156	1.1492e+02	-6.0207	-34.727442	0.000517	5.168671	1.751193	-0.000207
1157	1.1502e+02	-6.0544	-34.973707	0.000618	6.182136	2.094564	-0.000248
1158	1.1512e+02	-6.0977	-35.183638	0.000527	5.270017	1.785530	-0.000211
1159	1.1522e+02	-6.1330	-35.409718	0.000568	5.675403	1.922879	-0.000227
1160	1.1532e+02	-6.1811	-35.615611	0.000517	5.168671	1.751193	-0.000207
1161	1.1542e+02	-6.2196	-35.825543	0.000527	5.270017	1.785530	-0.000211
1162	1.1552e+02	-6.2469	-36.035474	0.000527	5.270017	1.785530	-0.000211
1163	1.1562e+02	-6.2966	-36.273665	0.000598	5.979443	2.025890	-0.000239
1164	1.1572e+02	-6.3335	-36.451299	0.000446	4.459245	1.510833	-0.000179
1165	1.1582e+02	-6.3784	-36.669304	0.000547	5.472710	1.854204	-0.000219
1166	1.1592e+02	-6.4137	-36.891346	0.000557	5.574057	1.888542	-0.000223
1167	1.1602e+02	-6.4490	-37.113389	0.000557	5.574057	1.888542	-0.000223
1168	1.1612e+02	-6.4907	-37.295060	0.000456	4.560592	1.545170	-0.000183
1169	1.1622e+02	-6.5372	-37.468657	0.000436	4.357899	1.476496	-0.000174
1170	1.1632e+02	-6.5758	-37.702811	0.000588	5.878096	1.991553	-0.000235
1171	1.1642e+02	-6.6175	-37.884482	0.000456	4.560592	1.545170	-0.000183
1172	1.1651e+02	-6.6624	-38.138821	0.000638	6.384829	2.163238	-0.000256
1173	1.1661e+02	-6.6832	-38.332604	0.000486	4.864631	1.648182	-0.000195
1174	1.1671e+02	-6.7233	-38.534461	0.000507	5.067324	1.716856	-0.000203
1175	1.1681e+02	-6.7667	-38.756503	0.000557	5.574057	1.888542	-0.000223
1176	1.1691e+02	-6.8052	-38.982583	0.000568	5.675403	1.922879	-0.000227
1177	1.1701e+02	-6.8421	-39.156180	0.000436	4.357899	1.476496	-0.000174
1178	1.1711e+02	-6.8918	-39.382259	0.000568	5.675403	1.922879	-0.000227
1179	1.1721e+02	-6.9239	-39.588153	0.000517	5.168671	1.751193	-0.000207
1180	1.1731e+02	-6.9768	-39.798084	0.000527	5.270017	1.785530	-0.000211
1181	1.1741e+02	-7.0217	-40.040312	0.000608	6.080789	2.060227	-0.000243
1182	1.1751e+02	-7.0458	-40.230058	0.000476	4.763285	1.613845	-0.000191
1183	1.1761e+02	-7.0859	-40.415766	0.000466	4.661938	1.579507	-0.000187
1184	1.1771e+02	-7.1340	-40.633771	0.000547	5.472710	1.854204	-0.000219
1185	1.1781e+02	-7.1709	-40.859851	0.000568	5.675403	1.922879	-0.000227
1186	1.1791e+02	-7.2142	-41.045559	0.000466	4.661938	1.579507	-0.000187
1187	1.1801e+02	-7.2543	-41.194933	0.000375	3.749820	1.270473	-0.000150
1188	1.1811e+02	-7.2912	-41.449273	0.000638	6.384829	2.163238	-0.000256
1189	1.1821e+02	-7.3249	-41.683426	0.000588	5.878096	1.991553	-0.000235
1190	1.1831e+02	-7.3731	-41.893358	0.000527	5.270017	1.785530	-0.000211
1191	1.1841e+02	-7.4148	-42.087140	0.000486	4.864631	1.648182	-0.000195
1192	1.1850e+02	-7.4565	-42.293034	0.000517	5.168671	1.751193	-0.000207
1193	1.1860e+02	-7.4870	-42.466631	0.000436	4.357899	1.476496	-0.000174
1194	1.1870e+02	-7.5319	-42.696748	0.000578	5.776750	1.957216	-0.000231
1195	1.1880e+02	-7.5640	-42.926864	0.000578	5.776750	1.957216	-0.000231
1196	1.1890e+02	-7.6041	-43.108535	0.000456	4.560592	1.545170	-0.000183
1197	1.1900e+02	-7.6538	-43.318466	0.000527	5.270017	1.785530	-0.000211
1198	1.1910e+02	-7.6955	-43.532435	0.000537	5.371364	1.819867	-0.000215
1199	1.1920e+02	-7.7292	-43.730254	0.000497	4.965978	1.682519	-0.000199
1200	1.1930e+02	-7.7629	-43.936148	0.000517	5.168671	1.751193	-0.000207
1201	1.1940e+02	-7.8078	-44.158191	0.000557	5.574057	1.888542	-0.000223
1202	1.1950e+02	-7.8431	-44.343899	0.000466	4.661938	1.579507	-0.000187
1203	1.1960e+02	-7.8848	-44.529607	0.000466	4.661938	1.579507	-0.000187
1204	1.1970e+02	-7.9329	-44.731464	0.000507	5.067324	1.716856	-0.000203
1205	1.1980e+02	-7.9762	-44.957544	0.000568	5.675403	1.922879	-0.000227
1206	1.1990e+02	-8.0019	-45.151326	0.000486	4.864631	1.648182	-0.000195
1207	1.2000e+02	-8.0420	-45.377406	0.000568	5.675403	1.922879	-0.000227
1208	1.2010e+02	-8.0821	-45.551003	0.000436	4.357899	1.476496	-0.000174
1209	1.2020e+02	-8.1206	-45.793231	0.000608	6.080789	2.060227	-0.000243
1210	1.2030e+02	-8.1688	-45.966828	0.000436	4.357899	1.476496	-0.000174
1211	1.2039e+02	-8.2040	-46.192907	0.000568	5.675403	1.922879	-0.000227
1212	1.2049e+02	-8.2570	-46.398801	0.000517	5.168671	1.751193	-0.000207
1213	1.2059e+02	-8.2827	-46.580472	0.000456	4.560592	1.545170	-0.000183
1214	1.2069e+02	-8.3260	-46.798477	0.000547	5.472710	1.854204	-0.000219
1215	1.2079e+02	-8.3677	-46.980149	0.000456	4.560592	1.545170	-0.000183
1216	1.2089e+02	-8.4094	-47.190080	0.000527	5.270017	1.785530	-0.000211
1217	1.2099e+02	-8.4527	-47.367714	0.000446	4.459245	1.510833	-0.000179
1218	1.2109e+02	-8.4784	-47.605905	0.000598	5.979443	2.025890	-0.000239
1219	1.2119e+02	-8.5185	-47.763353	0.000395	3.952513	1.339148	-0.000158
1220	1.2129e+02	-8.5586	-47.993470	0.000578	5.776750	1.957216	-0.000231
1221	1.2139e+02	-8.5971	-48.203401	0.000527	5.270017	1.785530	-0.000211
1222	1.2149e+02	-8.6436	-48.393146	0.000476	4.763285	1.613845	-0.000191
1223	1.2159e+02	-8.6821	-48.599040	0.000517	5.168671	1.751193	-0.000207
1224	1.2169e+02	-8.7286	-48.808971	0.000527	5.270017	1.785530	-0.000211
1225	1.2179e+02	-8.7543	-49.010828	0.000507	5.067324	1.716856	-0.000203
1226	1.2189e+02	-8.8056	-49.184425	0.000436	4.357899	1.476496	-0.000174
1227	1.2199e+02	-8.8441	-49.374170	0.000476	4.763285	1.613845	-0.000191
1228	1.2209e+02	-8.8858	-49.571990	0.000497	4.965978	1.682519	-0.000199
1229	1.2219e+02	-8.9276	-49.769809	0.000497	4.965978	1.682519	-0.000199
1230	1.2229e+02	-8.9693	-49.999926	0.000578	5.776750	1.957216	-0.000231
1231	1.2239e+02	-8.9997	-50.173523	0.000436	4.357899	1.476496	-0.000174
1232	1.2248e+02	-9.0495	-50.375380	0.000507	5.067324	1.716856	-0.000203
1233	1.2258e+02	-9.0912	-50.613571	0.000598	5.979443	2.025890	-0.000239
1234	1.2268e+02	-9.1265	-50.783130	0.000426	4.256552	1.442159	-0.000170
1235	1.2278e+02	-9.1602	-50.989024	0.000517	5.168671	1.751193	-0.000207
1236	1.2288e+02	-9.1987	-51.194918	0.000517	5.168671	1.751193	-0.000207
1237	1.2298e+02	-9.2516	-51.396775	0.000507	5.067324	1.716856	-0.000203
1238	1.2308e+02	-9.2885	-51.586520	0.000476	4.763285	1.613845	-0.000191
1239	1.2318e+02	-9.3222	-51.764154	0.000446	4.459245	1.510833	-0.000179
1240	1.2328e+02	-9.3575	-51.961974	0.000497	4.965978	1.682519	-0.000199
1241	1.2338e+02	-9.4024	-52.127497	0.000416	4.155206	1.407822	-0.000166
1242	1.2348e+02	-9.4409	-52.357613	0.000578	5.776750	1.957216	-0.000231
1243	1.2358e+02	-9.4858	-52.527173	0.000426	4.256552	1.442159	-0.000170
1244	1.2368e+02	-9.5195	-52.765364	0.000598	5.979443	2.025890	-0.000239
1245	1.2378e+02	-9.5676	-52.918775	0.000385	3.851166	1.304810	-0.000154
1246	1.2388e+02	-9.5949	-53.156966	0.000598	5.979443	2.025890	-0.000239
1247	1.2398e+02	-9.6398	-53.346712	0.000476	4.763285	1.613845	-0.000191
1248	1.2408e+02	-9.6783	-53.524346	0.000446	4.459245	1.510833	-0.000179
1249	1.2418e+02	-9.7120	-53.738314	0.000537	5.371364	1.819867	-0.000215
1250	1.2428e+02	-9.7569	-53.911911	0.000436	4.357899	1.476496	-0.000174
1251	1.2438e+02	-9.8019	-54.125879	0.000537	5.371364	1.819867	-0.000215
1252	1.2447e+02	-9.8436	-54.307550	0.000456	4.560592	1.545170	-0.000183
1253	1.2457e+02	-9.8724	-54.525555	0.000547	5.472710	1.854204	-0.000219
1254	1.2467e+02	-9.9093	-54.723375	0.000497	4.965978	1.682519	-0.000199
1255	1.2477e+02	-9.9543	-54.909083	0.000466	4.661938	1.579507	-0.000187
1256	1.2487e+02	-9.9976	-55.082680	0.000436	4.357899	1.476496	-0.000174
1257	1.2497e+02	-10.0329	-55.280500	0.000497	4.965978	1.682519	-0.000199
1258	1.2507e+02	-10.0730	-55.478319	0.000497	4.965978	1.682519	-0.000199
1259	1.2517e+02	-10.1227	-55.680176	0.000507	5.067324	1.716856	-0.000203
1260	1.2527e+02	-10.1580	-55.882033	0.000507	5.067324	1.716856	-0.000203
1261	1.2537e+02	-10.1965	-56.067741	0.000466	4.661938	1.579507	-0.000187
1262	1.2547e+02	-10.2398	-56.269598	0.000507	5.067324	1.716856	-0.000203
1263	1.2557e+02	-10.2751	-56.455306	0.000466	4.661938	1.579507	-0.000187
1264	1.2567e+02	-10.3184	-56.645052	0.000476	4.763285	1.613845	-0.000191
1265	1.2577e+02	-10.3569	-56.850945	0.000517	5.168671	1.751193	-0.000207
1266	1.2587e+02	-10.3954	-57.060877	0.000527	5.270017	1.785530	-0.000211
1267	1.2597e+02	-10.4339	-57.214288	0.000385	3.851166	1.304810	-0.000154
1268	1.2607e+02	-10.4756	-57.428256	0.000537	5.371364	1.819867	-0.000215
1269	1.2617e+02	-10.5125	-57.593778	0.000416	4.155206	1.407822	-0.000166
1270	1.2627e+02	-10.5559	-57.819858	0.000568	5.675403	1.922879	-0.000227
1271	1.2636e+02	-10.6056	-58.013641	0.000486	4.864631	1.648182	-0.000195
1272	1.2646e+02	-10.6361	-58.195312	0.000456	4.560592	1.545170	-0.000183
1273	1.2656e+02	-10.6762	-58.393131	0.000497	4.965978	1.682519	-0.000199
1274	1.2666e+02	-10.7195	-58.594988	0.000507	5.067324	1.716856	-0.000203
1275	1.2676e+02	-10.7484	-58.788771	0.000486	4.864631	1.648182	-0.000195
1276	1.2686e+02	-10.7965	-58.970442	0.000456	4.560592	1.545170	-0.000183
1277	1.2696e+02	-10.8334	-59.156150	0.000466	4.661938	1.579507	-0.000187
1278	1.2706e+02	-10.8735	-59.362044	0.000517	5.168671	1.751193	-0.000207
1279	1.2716e+02	-10.9168	-59.507381	0.000365	3.648473	1.236136	-0.000146
1280	1.2726e+02	-10.9569	-59.725386	0.000547	5.472710	1.854204	-0.000219
1281	1.2736e+02	-10.9938	-59.947429	0.000557	5.574057	1.888542	-0.000223
1282	1.2746e+02	-11.0339	-60.108914	0.000405	4.053859	1.373485	-0.000162
1283	1.2756e+02	-11.0660	-60.286548	0.000446	4.459245	1.510833	-0.000179
1284	1.2766e+02	-11.1221	-60.508590	0.000557	5.574057	1.888542	-0.000223
1285	1.2776e+02	-11.1590	-60.653927	0.000365	3.648473	1.236136	-0.000146
1286	1.2786e+02	-11.1911	-60.884044	0.000578	5.776750	1.957216	-0.000231
1287	1.2796e+02	-11.2216	-61.065715	0.000456	4.560592	1.545170	-0.000183
1288	1.2806e+02	-11.2713	-61.251423	0.000466	4.661938	1.579507	-0.000187
1289	1.2816e+02	-11.3114	-61.465392	0.000537	5.371364	1.819867	-0.000215
1290	1.2826e+02	-11.3483	-61.622840	0.000395	3.952513	1.339148	-0.000158
1291	1.2835e+02	-11.3997	-61.788362	0.000416	4.155206	1.407822	-0.000166
1292	1.2845e+02	-11.4334	-62.006368	0.000547	5.472710	1.854204	-0.000219
1293	1.2855e+02	-11.4751	-62.179965	0.000436	4.357899	1.476496	-0.000174
1294	1.2865e+02	-11.5136	-62.377784	0.000497	4.965978	1.682519	-0.000199
1295	1.2875e+02	-11.5553	-62.555418	0.000446	4.459245	1.510833	-0.000179
1296	1.2885e+02	-11.5938	-62.789572	0.000588	5.878096	1.991553	-0.000235
1297	1.2895e+02	-11.6323	-62.942983	0.000385	3.851166	1.304810	-0.000154
1298	1.2905e+02	-11.6660	-63.088320	0.000365	3.648473	1.236136	-0.000146
1299	1.2915e+02	-11.7109	-63.265954	0.000446	4.459245	1.510833	-0.000179
1300	1.2925e+02	-11.7494	-63.528368	0.000659	6.587521	2.231913	-0.000264
1301	1.2935e+02	-11.7863	-63.677742	0.000375	3.749820	1.270473	-0.000150
1302	1.2945e+02	-11.8328	-63.855376	0.000446	4.459245	1.510833	-0.000179
1303	1.2955e+02	-11.8729	-64.061270	0.000517	5.168671	1.751193	-0.000207
1304	1.2965e+02	-11.9034	-64.242941	0.000456	4.560592	1.545170	-0.000183
1305	1.2975e+02	-11.9547	-64.408464	0.000416	4.155206	1.407822	-0.000166
1306	1.2985e+02	-11.9868	-64.610320	0.000507	5.067324	1.716856	-0.000203
1307	1.2995e+02	-12.0285	-64.804103	0.000486	4.864631	1.648182	-0.000195
1308	1.3005e+02	-12.0670	-65.014034	0.000527	5.270017	1.785530	-0.000211
1309	1.3015e+02	-12.1071	-65.127074	0.000284	2.837702	0.961439	-0.000114
1310	1.3025e+02	-12.1424	-65.401599	0.000689	6.891561	2.334924	-0.000276
1311	1.3034e+02	-12.1874	-65.583270	0.000456	4.560592	1.545170	-0.000183
1312	1.3044e+02	-12.2275	-65.785127	0.000507	5.067324	1.716856	-0.000203
1313	1.3054e+02	-12.2724	-65.926427	0.000355	3.547127	1.201799	-0.000142
1314	1.3064e+02	-12.3205	-66.132321	0.000517	5.168671	1.751193	-0.000207
1315	1.3074e+02	-12.3574	-66.285732	0.000385	3.851166	1.304810	-0.000154
1316	1.3084e+02	-12.3863	-66.487588	0.000507	5.067324	1.716856	-0.000203
1317	1.3094e+02	-12.4312	-66.685408	0.000497	4.965978	1.682519	-0.000199
1318	1.3104e+02	-12.4681	-66.854968	0.000426	4.256552	1.442159	-0.000170
1319	1.3114e+02	-12.5050	-67.004342	0.000375	3.749820	1.270473	-0.000150
1320	1.3124e+02	-12.5547	-67.242533	0.000598	5.979443	2.025890	-0.000239
1321	1.3134e+02	-12.5916	-67.428241	0.000466	4.661938	1.579507	-0.000187
1322	1.3144e+02	-12.6285	-67.634135	0.000517	5.168671	1.751193	-0.000207
1323	1.3154e+02	-12.6702	-67.783509	0.000375	3.749820	1.270473	-0.000150
1324	1.3164e+02	-12.7087	-67.944994	0.000405	4.053859	1.373485	-0.000162
1325	1.3174e+02	-12.7520	-68.154926	0.000527	5.270017	1.785530	-0.000211
1326	1.3184e+02	-12.7889	-68.360819	0.000517	5.168671	1.751193	-0.000207
1327	1.3194e+02	-12.8194	-68.485971	0.000314	3.141741	1.064451	-0.000126
1328	1.3204e+02	-12.8627	-68.695902	0.000527	5.270017	1.785530	-0.000211
1329	1.3214e+02	-12.9077	-68.869499	0.000436	4.357899	1.476496	-0.000174
1330	1.3224e+02	-12.9510	-69.103652	0.000588	5.878096	1.991553	-0.000235
1331	1.3234e+02	-12.9782	-69.200544	0.000243	2.432316	0.824091	-0.000097
1332	1.3243e+02	-13.0200	-69.422586	0.000557	5.574057	1.888542	-0.000223
1333	1.3253e+02	-13.0633	-69.596183	0.000436	4.357899	1.476496	-0.000174
1334	1.3263e+02	-13.1002	-69.761706	0.000416	4.155206	1.407822	-0.000166
1335	1.3273e+02	-13.1451	-69.983748	0.000557	5.574057	1.888542	-0.000223
1336	1.3283e+02	-13.1836	-70.137159	0.000385	3.851166	1.304810	-0.000154
1337	1.3293e+02	-13.2269	-70.363239	0.000568	5.675403	1.922879	-0.000227
1338	1.3303e+02	-13.2686	-70.540873	0.000446	4.459245	1.510833	-0.000179
1339	1.3313e+02	-13.3103	-70.706395	0.000416	4.155206	1.407822	-0.000166
1340	1.3323e+02	-13.3424	-70.851732	0.000365	3.648473	1.236136	-0.000146
1341	1.3333e+02	-13.3905	-71.041478	0.000476	4.763285	1.613845	-0.000191
1342	1.3343e+02	-13.4146	-71.259483	0.000547	5.472710	1.854204	-0.000219
1343	1.3353e+02	-13.4643	-71.437117	0.000446	4.459245	1.510833	-0.000179
1344	1.3363e+02	-13.5060	-71.590528	0.000385	3.851166	1.304810	-0.000154
1345	1.3373e+02	-13.5477	-71.788348	0.000497	4.965978	1.682519	-0.000199
1346	1.3383e+02	-13.5862	-71.933685	0.000365	3.648473	1.236136	-0.000146
1347	1.3393e+02	-13.6215	-72.119393	0.000466	4.661938	1.579507	-0.000187
1348	1.3403e+02	-13.6616	-72.337398	0.000547	5.472710	1.854204	-0.000219
1349	1.3413e+02	-13.7082	-72.486772	0.000375	3.749820	1.270473	-0.000150
1350	1.3423e+02	-13.7370	-72.676518	0.000476	4.763285	1.613845	-0.000191
1351	1.3432e+02	-13.7852	-72.858189	0.000456	4.560592	1.545170	-0.000183
1352	1.3442e+02	-13.8237	-73.051971	0.000486	4.864631	1.648182	-0.000195
1353	1.3452e+02	-13.8702	-73.241717	0.000476	4.763285	1.613845	-0.000191
1354	1.3462e+02	-13.9055	-73.399165	0.000395	3.952513	1.339148	-0.000158
1355	1.3472e+02	-13.9424	-73.601022	0.000507	5.067324	1.716856	-0.000203
1356	1.3482e+02	-13.9873	-73.758470	0.000395	3.952513	1.339148	-0.000158
1357	1.3492e+02	-14.0290	-73.948215	0.000476	4.763285	1.613845	-0.000191
1358	1.3502e+02	-14.0531	-74.097589	0.000375	3.749820	1.270473	-0.000150
1359	1.3512e+02	-14.1012	-74.303483	0.000517	5.168671	1.751193	-0.000207
1360	1.3522e+02	-14.1493	-74.485154	0.000456	4.560592	1.545170	-0.000183
1361	1.3532e+02	-14.1814	-74.646640	0.000405	4.053859	1.373485	-0.000162
1362	1.3542e+02	-14.2263	-74.832348	0.000466	4.661938	1.579507	-0.000187
1363	1.3552e+02	-14.2600	-74.973648	0.000355	3.547127	1.201799	-0.000142
1364	1.3562e+02	-14.2857	-75.163393	0.000476	4.763285	1.613845	-0.000191
1365	1.3572e+02	-14.3306	-75.361213	0.000497	4.965978	1.682519	-0.000199
1366	1.3582e+02	-14.3852	-75.530773	0.000426	4.256552	1.442159	-0.000170
1367	1.3592e+02	-14.4204	-75.732629	0.000507	5.067324	1.716856	-0.000203
1368	1.3602e+02	-14.4654	-75.950635	0.000547	5.472710	1.854204	-0.000219
1369	1.3612e+02	-14.4942	-76.047526	0.000243	2.432316	0.824091	-0.000097
1370	1.3622e+02	-14.5408	-76.257457	0.000527	5.270017	1.785530	-0.000211
1371	1.3631e+02	-14.5745	-76.439128	0.000456	4.560592	1.545170	-0.000183
1372	1.3641e+02	-14.6194	-76.596576	0.000395	3.952513	1.339148	-0.000158
1373	1.3651e+02	-14.6611	-76.790359	0.000486	4.864631	1.648182	-0.000195
1374	1.3661e+02	-14.7044	-76.988179	0.000497	4.965978	1.682519	-0.000199
1375	1.3671e+02	-14.7413	-77.149664	0.000405	4.053859	1.373485	-0.000162
1376	1.3681e+02	-14.7766	-77.319224	0.000426	4.256552	1.442159	-0.000170
1377	1.3691e+02	-14.8151	-77.472635	0.000385	3.851166	1.304810	-0.000154
1378	1.3701e+02	-14.8552	-77.690640	0.000547	5.472710	1.854204	-0.000219
1379	1.3711e+02	-14.8905	-77.844051	0.000385	3.851166	1.304810	-0.000154
1380	1.3721e+02	-14.9402	-78.005537	0.000405	4.053859	1.373485	-0.000162
1381	1.3731e+02	-14.9723	-78.187208	0.000456	4.560592	1.545170	-0.000183
1382	1.3741e+02	-15.0236	-78.376953	0.000476	4.763285	1.613845	-0.000191
1383	1.3751e+02	-15.0605	-78.554587	0.000446	4.459245	1.510833	-0.000179
1384	1.3761e+02	-15.0910	-78.724147	0.000426	4.256552	1.442159	-0.000170
1385	1.3771e+02	-15.1391	-78.909855	0.000466	4.661938	1.579507	-0.000187
1386	1.3781e+02	-15.1793	-79.091526	0.000456	4.560592	1.545170	-0.000183
1387	1.3791e+02	-15.2226	-79.257049	0.000416	4.155206	1.407822	-0.000166
1388	1.3801e+02	-15.2498	-79.438720	0.000456	4.560592	1.545170	-0.000183
1389	1.3811e+02	-15.2883	-79.604242	0.000416	4.155206	1.407822	-0.000166
1390	1.3821e+02	-15.3317	-79.802062	0.000497	4.965978	1.682519	-0.000199
1391	1.3831e+02	-15.3766	-79.963548	0.000405	4.053859	1.373485	-0.000162
1392	1.3840e+02	-15.4151	-80.116959	0.000385	3.851166	1.304810	-0.000154
1393	1.3850e+02	-15.4552	-80.290556	0.000436	4.357899	1.476496	-0.000174
1394	1.3860e+02	-15.4953	-80.452041	0.000405	4.053859	1.373485	-0.000162
1395	1.3870e+02	-15.5482	-80.666009	0.000537	5.371364	1.819867	-0.000215
1396	1.3880e+02	-15.5723	-80.807309	0.000355	3.547127	1.201799	-0.000142
1397	1.3890e+02	-15.6236	-81.005129	0.000497	4.965978	1.682519	-0.000199
1398	1.3900e+02	-15.6477	-81.174688	0.000426	4.256552	1.442159	-0.000170
1399	1.3910e+02	-15.6926	-81.332137	0.000395	3.952513	1.339148	-0.000158
1400	1.3920e+02	-15.7311	-81.509771	0.000446	4.459245	1.510833	-0.000179
1401	1.3930e+02	-15.7744	-81.695479	0.000466	4.661938	1.579507	-0.000187
1402	1.3940e+02	-15.8065	-81.865038	0.000426	4.256552	1.442159	-0.000170
1403	1.3950e+02	-15.8643	-82.022487	0.000395	3.952513	1.339148	-0.000158
1404	1.3960e+02	-15.8883	-82.200121	0.000446	4.459245	1.510833	-0.000179
1405	1.3970e+02	-15.9413	-82.393903	0.000486	4.864631	1.648182	-0.000195
1406	1.3980e+02	-15.9717	-82.531166	0.000345	3.445780	1.167462	-0.000138
1407	1.3990e+02	-16.0086	-82.720911	0.000476	4.763285	1.613845	-0.000191
1408	1.4000e+02	-16.0487	-82.866248	0.000365	3.648473	1.236136	-0.000146
1409	1.4010e+02	-16.1001	-83.060031	0.000486	4.864631	1.648182	-0.000195
1410	1.4020e+02	-16.1386	-83.273999	0.000537	5.371364	1.819867	-0.000215
1411	1.4029e+02	-16.1739	-83.427410	0.000385	3.851166	1.304810	-0.000154
1412	1.4039e+02	-16.2172	-83.601007	0.000436	4.357899	1.476496	-0.000174
1413	1.4049e+02	-16.2573	-83.705972	0.000264	2.635009	0.892765	-0.000105
1414	1.4059e+02	-16.2862	-83.911866	0.000517	5.168671	1.751193	-0.000207
1415	1.4069e+02	-16.3311	-84.133909	0.000557	5.574057	1.888542	-0.000223
1416	1.4079e+02	-16.3712	-84.283283	0.000375	3.749820	1.270473	-0.000150
1417	1.4089e+02	-16.4129	-84.432657	0.000375	3.749820	1.270473	-0.000150
1418	1.4099e+02	-16.4610	-84.602217	0.000426	4.256552	1.442159	-0.000170
1419	1.4109e+02	-16.4931	-84.795999	0.000486	4.864631	1.648182	-0.000195
1420	1.4119e+02	-16.5300	-84.961522	0.000416	4.155206	1.407822	-0.000166
1421	1.4129e+02	-16.5733	-85.151267	0.000476	4.763285	1.613845	-0.000191
1422	1.4139e+02	-16.6086	-85.304678	0.000385	3.851166	1.304810	-0.000154
1423	1.4149e+02	-16.6487	-85.470201	0.000416	4.155206	1.407822	-0.000166
1424	1.4159e+02	-16.6920	-85.643798	0.000436	4.357899	1.476496	-0.000174
1425	1.4169e+02	-16.7338	-85.813357	0.000426	4.256552	1.442159	-0.000170
1426	1.4179e+02	-16.7658	-85.974843	0.000405	4.053859	1.373485	-0.000162
1427	1.4189e+02	-16.8059	-86.144402	0.000426	4.256552	1.442159	-0.000170
1428	1.4199e+02	-16.8493	-86.362408	0.000547	5.472710	1.854204	-0.000219
1429	1.4209e+02	-16.8926	-86.495633	0.000334	3.344434	1.133125	-0.000134
1430	1.4219e+02	-16.9343	-86.697490	0.000507	5.067324	1.716856	-0.000203
1431	1.4228e+02	-16.9792	-86.863013	0.000416	4.155206	1.407822	-0.000166
1432	1.4238e+02	-17.0049	-87.040647	0.000446	4.459245	1.510833	-0.000179
1433	1.4248e+02	-17.0498	-87.194058	0.000385	3.851166	1.304810	-0.000154
1434	1.4258e+02	-17.0899	-87.379766	0.000466	4.661938	1.579507	-0.000187
1435	1.4268e+02	-17.1316	-87.533177	0.000385	3.851166	1.304810	-0.000154
1436	1.4278e+02	-17.1685	-87.722922	0.000476	4.763285	1.613845	-0.000191
1437	1.4288e+02	-17.2182	-87.876334	0.000385	3.851166	1.304810	-0.000154
1438	1.4298e+02	-17.2455	-88.058005	0.000456	4.560592	1.545170	-0.000183
1439	1.4308e+02	-17.2920	-88.251787	0.000486	4.864631	1.648182	-0.000195
1440	1.4318e+02	-17.3337	-88.389050	0.000345	3.445780	1.167462	-0.000138
1441	1.4328e+02	-17.3722	-88.582832	0.000486	4.864631	1.648182	-0.000195
1442	1.4338e+02	-17.4059	-88.724132	0.000355	3.547127	1.201799	-0.000142
1443	1.4348e+02	-17.4460	-88.921952	0.000497	4.965978	1.682519	-0.000199
1444	1.4358e+02	-17.4974	-89.111697	0.000476	4.763285	1.613845	-0.000191
1445	1.4368e+02	-17.5391	-89.285294	0.000436	4.357899	1.476496	-0.000174
1446	1.4378e+02	-17.5712	-89.414482	0.000324	3.243087	1.098788	-0.000130
1447	1.4388e+02	-17.6016	-89.584042	0.000426	4.256552	1.442159	-0.000170
1448	1.4398e+02	-17.6450	-89.737453	0.000385	3.851166	1.304810	-0.000154
1449	1.4408e+02	-17.6819	-89.943347	0.000517	5.168671	1.751193	-0.000207
1450	1.4418e+02	-17.7204	-90.125018	0.000456	4.560592	1.545170	-0.000183
1451	1.4428e+02	-17.7685	-90.274392	0.000375	3.749820	1.270473	-0.000150
1452	1.4437e+02	-17.8022	-90.468175	0.000486	4.864631	1.648182	-0.000195
1453	1.4447e+02	-17.8503	-90.645809	0.000446	4.459245	1.510833	-0.000179
1454	1.4457e+02	-17.8856	-90.823443	0.000446	4.459245	1.510833	-0.000179
1455	1.4467e+02	-17.9305	-90.956668	0.000334	3.344434	1.133125	-0.000134
1456	1.4477e+02	-17.9610	-91.158525	0.000507	5.067324	1.716856	-0.000203
1457	1.4487e+02	-18.0203	-91.340196	0.000456	4.560592	1.545170	-0.000183
1458	1.4497e+02	-18.0380	-91.485533	0.000365	3.648473	1.236136	-0.000146
1459	1.4507e+02	-18.0861	-91.638944	0.000385	3.851166	1.304810	-0.000154
1460	1.4517e+02	-18.1166	-91.852912	0.000537	5.371364	1.819867	-0.000215
1461	1.4527e+02	-18.1711	-92.022472	0.000426	4.256552	1.442159	-0.000170
1462	1.4537e+02	-18.2080	-92.208180	0.000466	4.661938	1.579507	-0.000187
1463	1.4547e+02	-18.2465	-92.357554	0.000375	3.749820	1.270473	-0.000150
1464	1.4557e+02	-18.2786	-92.563448	0.000517	5.168671	1.751193	-0.000207
1465	1.4567e+02	-18.3300	-92.737045	0.000436	4.357899	1.476496	-0.000174
1466	1.4577e+02	-18.3669	-92.902568	0.000416	4.155206	1.407822	-0.000166
1467	1.4587e+02	-18.4038	-93.076164	0.000436	4.357899	1.476496	-0.000174
1468	1.4597e+02	-18.4567	-93.233613	0.000395	3.952513	1.339148	-0.000158
1469	1.4607e+02	-18.4872	-93.427395	0.000486	4.864631	1.648182	-0.000195
1470	1.4617e+02	-18.5257	-93.596955	0.000426	4.256552	1.442159	-0.000170
1471	1.4626e+02	-18.5658	-93.802849	0.000517	5.168671	1.751193	-0.000207
1472	1.4636e+02	-18.5995	-93.944149	0.000355	3.547127	1.201799	-0.000142
1473	1.4646e+02	-18.6492	-94.178302	0.000588	5.878096	1.991553	-0.000235
1474	1.4656e+02	-18.6829	-94.311528	0.000334	3.344434	1.133125	-0.000134
1475	1.4666e+02	-18.7294	-94.513385	0.000507	5.067324	1.716856	-0.000203
1476	1.4676e+02	-18.7599	-94.654685	0.000355	3.547127	1.201799	-0.000142
1477	1.4686e+02	-18.8064	-94.852504	0.000497	4.965978	1.682519	-0.000199
1478	1.4696e+02	-18.8417	-95.042250	0.000476	4.763285	1.613845	-0.000191
1479	1.4706e+02	-18.8882	-95.215846	0.000436	4.357899	1.476496	-0.000174
1480	1.4716e+02	-18.9219	-95.417703	0.000507	5.067324	1.716856	-0.000203
1481	1.4726e+02	-18.9588	-95.563040	0.000365	3.648473	1.236136	-0.000146
1482	1.4736e+02	-19.0021	-95.740674	0.000446	4.459245	1.510833	-0.000179
1483	1.4746e+02	-19.0455	-95.946568	0.000517	5.168671	1.751193	-0.000207
1484	1.4756e+02	-19.0711	-96.148425	0.000507	5.067324	1.716856	-0.000203
1485	1.4766e+02	-19.1192	-96.342207	0.000486	4.864631	1.648182	-0.000195
1486	1.4776e+02	-19.1690	-96.495618	0.000385	3.851166	1.304810	-0.000154
1487	1.4786e+02	-19.2059	-96.681327	0.000466	4.661938	1.579507	-0.000187
1488	1.4796e+02	-19.2396	-96.871072	0.000476	4.763285	1.613845	-0.000191
1489	1.4806e+02	-19.2797	-97.040632	0.000426	4.256552	1.442159	-0.000170
1490	1.4816e+02	-19.3246	-97.250563	0.000527	5.270017	1.785530	-0.000211
1491	1.4825e+02	-19.3599	-97.432234	0.000456	4.560592	1.545170	-0.000183
1492	1.4835e+02	-19.3984	-97.621979	0.000476	4.763285	1.613845	-0.000191
1493	1.4845e+02	-19.4417	-97.811725	0.000476	4.763285	1.613845	-0.000191
1494	1.4855e+02	-19.4802	-97.993396	0.000456	4.560592	1.545170	-0.000183
1495	1.4865e+02	-19.5219	-98.166993	0.000436	4.357899	1.476496	-0.000174
1496	1.4875e+02	-19.5524	-98.380961	0.000537	5.371364	1.819867	-0.000215
1497	1.4885e+02	-19.5957	-98.538409	0.000395	3.952513	1.339148	-0.000158
1498	1.4895e+02	-19.6438	-98.732192	0.000486	4.864631	1.648182	-0.000195
1499	1.4905e+02	-19.6727	-98.889640	0.000395	3.952513	1.339148	-0.000158
1500	1.4915e+02	-19.7128	-99.111682	0.000557	5.574057	1.888542	-0.000223
1501	1.4925e+02	-19.7577	-99.341799	0.000578	5.776750	1.957216	-0.000231
1502	1.4935e+02	-19.7914	-99.499247	0.000395	3.952513	1.339148	-0.000158
1503	1.4945e+02	-19.8331	-99.701104	0.000507	5.067324	1.716856	-0.000203
1504	1.4955e+02	-19.8716	-99.911035	0.000527	5.270017	1.785530	-0.000211
1505	1.4965e+02	-19.9246	-100.080595	0.000426	4.256552	1.442159	-0.000170
1506	1.4975e+02	-19.9583	-100.258229	0.000446	4.459245	1.510833	-0.000179
1507	1.4985e+02	-19.9984	-100.500457	0.000608	6.080789	2.060227	-0.000243
1508	1.4995e+02	-19.9615	-100.367232	0.000334	3.344434	1.133125	0.000134
1509	1.5005e+02	-19.9198	-100.326860	0.000101	1.013465	0.343371	0.000041
1510	1.5015e+02	-19.8813	-100.246118	0.000203	2.026930	0.686742	0.000081
1511	1.5025e+02	-19.8347	-100.189598	0.000142	1.418851	0.480720	0.000057
1512	1.5034e+02	-19.7994	-100.100781	0.000223	2.229623	0.755417	0.000089
1513	1.5044e+02	-19.7674	-100.052335	0.000122	1.216158	0.412045	0.000049
1514	1.5054e+02	-19.7224	-99.894887	0.000395	3.952513	1.339148	0.000158
1515	1.5064e+02	-19.6823	-99.846441	0.000122	1.216158	0.412045	0.000049
1516	1.5074e+02	-19.6342	-99.713216	0.000334	3.344434	1.133125	0.000134
1517	1.5084e+02	-19.6005	-99.636510	0.000193	1.925583	0.652405	0.000077
1518	1.5094e+02	-19.5588	-99.567879	0.000172	1.722890	0.583731	0.000069
1519	1.5104e+02	-19.5203	-99.434653	0.000334	3.344434	1.133125	0.000134
1520	1.5114e+02	-19.4818	-99.341799	0.000233	2.330969	0.789754	0.000093
1521	1.5124e+02	-19.4401	-99.261056	0.000203	2.026930	0.686742	0.000081
1522	1.5134e+02	-19.3984	-99.099571	0.000405	4.053859	1.373485	0.000162
1523	1.5144e+02	-19.3711	-98.990568	0.000274	2.736355	0.927102	0.000110
1524	1.5154e+02	-19.3198	-98.946160	0.000111	1.114811	0.377708	0.000045
1525	1.5164e+02	-19.2877	-98.837157	0.000274	2.736355	0.927102	0.000110
1526	1.5174e+02	-19.2412	-98.703932	0.000334	3.344434	1.133125	0.000134
1527	1.5184e+02	-19.2123	-98.619152	0.000213	2.128276	0.721079	0.000085
1528	1.5194e+02	-19.1594	-98.485926	0.000334	3.344434	1.133125	0.000134
1529	1.5204e+02	-19.1225	-98.389035	0.000243	2.432316	0.824091	0.000097
1530	1.5214e+02	-19.0823	-98.275995	0.000284	2.837702	0.961439	0.000114
1531	1.5224e+02	-19.0374	-98.162955	0.000284	2.837702	0.961439	0.000114
1532	1.5233e+02	-18.9989	-98.082213	0.000203	2.026930	0.686742	0.000081
1533	1.5243e+02	-18.9701	-97.944950	0.000345	3.445780	1.167462	0.000138
1534	1.5253e+02	-18.9171	-97.823836	0.000304	3.040395	1.030114	0.000122
1535	1.5263e+02	-18.8866	-97.718871	0.000264	2.635009	0.892765	0.000105
1536	1.5273e+02	-18.8369	-97.626016	0.000233	2.330969	0.789754	0.000093
1537	1.5283e+02	-18.8032	-97.488754	0.000345	3.445780	1.167462	0.000138
1538	1.5293e+02	-18.7615	-97.339380	0.000375	3.749820	1.270473	0.000150
1539	1.5303e+02	-18.7230	-97.238451	0.000253	2.533662	0.858428	0.000101
1540	1.5313e+02	-18.6877	-97.133486	0.000264	2.635009	0.892765	0.000105
1541	1.5323e+02	-18.6460	-96.976038	0.000395	3.952513	1.339148	0.000158
1542	1.5333e+02	-18.6043	-96.862998	0.000284	2.837702	0.961439	0.000114
1543	1.5343e+02	-18.5722	-96.790329	0.000182	1.824237	0.618068	0.000073
1544	1.5353e+02	-18.5257	-96.636918	0.000385	3.851166	1.304810	0.000154
1545	1.5363e+02	-18.4872	-96.503693	0.000334	3.344434	1.133125	0.000134
1546	1.5373e+02	-18.4535	-96.390653	0.000284	2.837702	0.961439	0.000114
1547	1.5383e+02	-18.4086	-96.285687	0.000264	2.635009	0.892765	0.000105
1548	1.5393e+02	-18.3653	-96.124202	0.000405	4.053859	1.373485	0.000162
1549	1.5403e+02	-18.3203	-96.047496	0.000193	1.925583	0.652405	0.000077
1550	1.5413e+02	-18.2899	-95.910234	0.000345	3.445780	1.167462	0.000138
1551	1.5422e+02	-18.2449	-95.748748	0.000405	4.053859	1.373485	0.000162
1552	1.5432e+02	-18.2080	-95.627634	0.000304	3.040395	1.030114	0.000122
1553	1.5442e+02	-18.1727	-95.534780	0.000233	2.330969	0.789754	0.000093
1554	1.5452e+02	-18.1198	-95.377332	0.000395	3.952513	1.339148	0.000158
1555	1.5462e+02	-18.0797	-95.231995	0.000365	3.648473	1.236136	0.000146
1556	1.5472e+02	-18.0508	-95.122992	0.000274	2.736355	0.927102	0.000110
1557	1.5482e+02	-18.0203	-94.969581	0.000385	3.851166	1.304810	0.000154
1558	1.5492e+02	-17.9642	-94.860578	0.000274	2.736355	0.927102	0.000110
1559	1.5502e+02	-17.9289	-94.747539	0.000284	2.837702	0.961439	0.000114
1560	1.5512e+02	-17.8792	-94.582016	0.000416	4.155206	1.407822	0.000166
1561	1.5522e+02	-17.8455	-94.444753	0.000345	3.445780	1.167462	0.000138
1562	1.5532e+02	-17.8118	-94.327677	0.000294	2.939048	0.995776	0.000118
1563	1.5542e+02	-17.7621	-94.182340	0.000365	3.648473	1.236136	0.000146
1564	1.5552e+02	-17.7284	-94.037003	0.000365	3.648473	1.236136	0.000146
1565	1.5562e+02	-17.6851	-93.956260	0.000203	2.026930	0.686742	0.000081
1566	1.5572e+02	-17.6530	-93.818997	0.000345	3.445780	1.167462	0.000138
1567	1.5582e+02	-17.6032	-93.673661	0.000365	3.648473	1.236136	0.000146
1568	1.5592e+02	-17.5663	-93.536398	0.000345	3.445780	1.167462	0.000138
1569	1.5602e+02	-17.5278	-93.391061	0.000365	3.648473	1.236136	0.000146
1570	1.5612e+02	-17.4877	-93.273984	0.000294	2.939048	0.995776	0.000118
1571	1.5622e+02	-17.4524	-93.104424	0.000426	4.256552	1.442159	0.000170
1572	1.5631e+02	-17.3995	-92.975236	0.000324	3.243087	1.098788	0.000130
1573	1.5641e+02	-17.3706	-92.842011	0.000334	3.344434	1.133125	0.000134
1574	1.5651e+02	-17.3209	-92.708785	0.000334	3.344434	1.133125	0.000134
1575	1.5661e+02	-17.2920	-92.587671	0.000304	3.040395	1.030114	0.000122
1576	1.5671e+02	-17.2519	-92.426186	0.000405	4.053859	1.373485	0.000162
1577	1.5681e+02	-17.2086	-92.296997	0.000324	3.243087	1.098788	0.000130
1578	1.5691e+02	-17.1653	-92.179920	0.000294	2.939048	0.995776	0.000118
1579	1.5701e+02	-17.1364	-92.038621	0.000355	3.547127	1.201799	0.000142
1580	1.5711e+02	-17.0995	-91.889247	0.000375	3.749820	1.270473	0.000150
1581	1.5721e+02	-17.0498	-91.719687	0.000426	4.256552	1.442159	0.000170
1582	1.5731e+02	-17.0097	-91.614721	0.000264	2.635009	0.892765	0.000105
1583	1.5741e+02	-16.9632	-91.469384	0.000365	3.648473	1.236136	0.000146
1584	1.5751e+02	-16.9343	-91.311936	0.000395	3.952513	1.339148	0.000158
1585	1.5761e+02	-16.8846	-91.154488	0.000395	3.952513	1.339148	0.000158
1586	1.5771e+02	-16.8573	-91.037411	0.000294	2.939048	0.995776	0.000118
1587	1.5781e+02	-16.8172	-90.940520	0.000243	2.432316	0.824091	0.000097
1588	1.5791e+02	-16.7739	-90.754811	0.000466	4.661938	1.579507	0.000187
1589	1.5801e+02	-16.7321	-90.625623	0.000324	3.243087	1.098788	0.000130
1590	1.5811e+02	-16.6920	-90.516620	0.000274	2.736355	0.927102	0.000110
1591	1.5821e+02	-16.6551	-90.351098	0.000416	4.155206	1.407822	0.000166
1592	1.5830e+02	-16.6166	-90.209798	0.000355	3.547127	1.201799	0.000142
1593	1.5840e+02	-16.5685	-90.068498	0.000355	3.547127	1.201799	0.000142
1594	1.5850e+02	-16.5300	-89.955459	0.000284	2.837702	0.961439	0.000114
1595	1.5860e+02	-16.4851	-89.773787	0.000456	4.560592	1.545170	0.000183
1596	1.5870e+02	-16.4482	-89.628451	0.000365	3.648473	1.236136	0.000146
1597	1.5880e+02	-16.4193	-89.471002	0.000395	3.952513	1.339148	0.000158
1598	1.5890e+02	-16.3744	-89.333740	0.000345	3.445780	1.167462	0.000138
1599	1.5900e+02	-16.3327	-89.244923	0.000223	2.229623	0.755417	0.000089
1600	1.5910e+02	-16.3006	-89.059214	0.000466	4.661938	1.579507	0.000187
1601	1.5920e+02	-16.2605	-88.909840	0.000375	3.749820	1.270473	0.000150
1602	1.5930e+02	-16.2172	-88.768541	0.000355	3.547127	1.201799	0.000142
1603	1.5940e+02	-16.1755	-88.603018	0.000416	4.155206	1.407822	0.000166
1604	1.5950e+02	-16.1290	-88.465755	0.000345	3.445780	1.167462	0.000138
1605	1.5960e+02	-16.0889	-88.336567	0.000324	3.243087	1.098788	0.000130
1606	1.5970e+02	-16.0568	-88.227564	0.000274	2.736355	0.927102	0.000110
1607	1.5980e+02	-16.0118	-88.074153	0.000385	3.851166	1.304810	0.000154
1608	1.5990e+02	-15.9750	-87.892482	0.000456	4.560592	1.545170	0.000183
1609	1.6000e+02	-15.9381	-87.755220	0.000345	3.445780	1.167462	0.000138
1610	1.6010e+02	-15.8915	-87.605846	0.000375	3.749820	1.270473	0.000150
1611	1.6019e+02	-15.8482	-87.500880	0.000264	2.635009	0.892765	0.000105
1612	1.6029e+02	-15.8081	-87.339395	0.000405	4.053859	1.373485	0.000162
1613	1.6039e+02	-15.7808	-87.157723	0.000456	4.560592	1.545170	0.000183
1614	1.6049e+02	-15.7407	-87.036609	0.000304	3.040395	1.030114	0.000122
1615	1.6059e+02	-15.6942	-86.903384	0.000334	3.344434	1.133125	0.000134
1616	1.6069e+02	-15.6525	-86.701527	0.000507	5.067324	1.716856	0.000203
1617	1.6079e+02	-15.6204	-86.560227	0.000355	3.547127	1.201799	0.000142
1618	1.6089e+02	-15.5851	-86.439113	0.000304	3.040395	1.030114	0.000122
1619	1.6099e+02	-15.5402	-86.309925	0.000324	3.243087	1.098788	0.000130
1620	1.6109e+02	-15.4953	-86.168625	0.000355	3.547127	1.201799	0.000142
1621	1.6119e+02	-15.4488	-85.986954	0.000456	4.560592	1.545170	0.000183
1622	1.6129e+02	-15.4231	-85.841617	0.000365	3.648473	1.236136	0.000146
1623	1.6139e+02	-15.3766	-85.676095	0.000416	4.155206	1.407822	0.000166
1624	1.6149e+02	-15.3381	-85.538832	0.000345	3.445780	1.167462	0.000138
1625	1.6159e+02	-15.2899	-85.357161	0.000456	4.560592	1.545170	0.000183
1626	1.6169e+02	-15.2530	-85.232010	0.000314	3.141741	1.064451	0.000126
1627	1.6179e+02	-15.2194	-85.110896	0.000304	3.040395	1.030114	0.000122
1628	1.6189e+02	-15.1680	-84.937299	0.000436	4.357899	1.476496	0.000174
1629	1.6199e+02	-15.1375	-84.775813	0.000405	4.053859	1.373485	0.000162
1630	1.6209e+02	-15.0974	-84.606254	0.000426	4.256552	1.442159	0.000170
1631	1.6219e+02	-15.0605	-84.473028	0.000334	3.344434	1.133125	0.000134
1632	1.6228e+02	-15.0172	-84.351914	0.000304	3.040395	1.030114	0.000122
1633	1.6238e+02	-14.9723	-84.226763	0.000314	3.141741	1.064451	0.000126
1634	1.6248e+02	-14.9354	-84.045092	0.000456	4.560592	1.545170	0.000183
1635	1.6258e+02	-14.8921	-83.851309	0.000486	4.864631	1.648182	0.000195
1636	1.6268e+02	-14.8568	-83.770567	0.000203	2.026930	0.686742	0.000081
1637	1.6278e+02	-14.8247	-83.588895	0.000456	4.560592	1.545170	0.000183
1638	1.6288e+02	-14.7750	-83.423373	0.000416	4.155206	1.407822	0.000166
1639	1.6298e+02	-14.7429	-83.261887	0.000405	4.053859	1.373485	0.000162
1640	1.6308e+02	-14.7060	-83.128662	0.000334	3.344434	1.133125	0.000134
1641	1.6318e+02	-14.6547	-82.951028	0.000446	4.459245	1.510833	0.000179
1642	1.6328e+02	-14.6210	-82.817803	0.000334	3.344434	1.133125	0.000134
1643	1.6338e+02	-14.5873	-82.672466	0.000365	3.648473	1.236136	0.000146
1644	1.6348e+02	-14.5456	-82.510980	0.000405	4.053859	1.373485	0.000162
1645	1.6358e+02	-14.4991	-82.345458	0.000416	4.155206	1.407822	0.000166
1646	1.6368e+02	-14.4638	-82.224344	0.000304	3.040395	1.030114	0.000122
1647	1.6378e+02	-14.4188	-82.095155	0.000324	3.243087	1.098788	0.000130
1648	1.6388e+02	-14.3771	-81.885224	0.000527	5.270017	1.785530	0.000211
1649	1.6398e+02	-14.3434	-81.735850	0.000375	3.749820	1.270473	0.000150
1650	1.6408e+02	-14.3065	-81.578402	0.000395	3.952513	1.339148	0.000158
1651	1.6418e+02	-14.2600	-81.449214	0.000324	3.243087	1.098788	0.000130
1652	1.6427e+02	-14.2135	-81.275617	0.000436	4.357899	1.476496	0.000174
1653	1.6437e+02	-14.1766	-81.130280	0.000365	3.648473	1.236136	0.000146
1654	1.6447e+02	-14.1445	-80.944572	0.000466	4.661938	1.579507	0.000187
1655	1.6457e+02	-14.1044	-80.843643	0.000253	2.533662	0.858428	0.000101
1656	1.6467e+02	-14.0531	-80.657935	0.000466	4.661938	1.579507	0.000187
1657	1.6477e+02	-14.0194	-80.508561	0.000375	3.749820	1.270473	0.000150
1658	1.6487e+02	-13.9857	-80.367261	0.000355	3.547127	1.201799	0.000142
1659	1.6497e+02	-13.9392	-80.185590	0.000456	4.560592	1.545170	0.000183
1660	1.6507e+02	-13.9023	-80.044290	0.000355	3.547127	1.201799	0.000142
1661	1.6517e+02	-13.8718	-79.858582	0.000466	4.661938	1.579507	0.000187
1662	1.6527e+02	-13.8189	-79.733431	0.000314	3.141741	1.064451	0.000126
1663	1.6537e+02	-13.7836	-79.531574	0.000507	5.067324	1.716856	0.000203
1664	1.6547e+02	-13.7419	-79.418534	0.000284	2.837702	0.961439	0.000114
1665	1.6557e+02	-13.6969	-79.253012	0.000416	4.155206	1.407822	0.000166
1666	1.6567e+02	-13.6649	-79.075378	0.000446	4.459245	1.510833	0.000179
1667	1.6577e+02	-13.6215	-78.934078	0.000355	3.547127	1.201799	0.000142
1668	1.6587e+02	-13.5782	-78.744333	0.000476	4.763285	1.613845	0.000191
1669	1.6597e+02	-13.5349	-78.607070	0.000345	3.445780	1.167462	0.000138
1670	1.6607e+02	-13.5028	-78.477882	0.000324	3.243087	1.098788	0.000130
1671	1.6616e+02	-13.4707	-78.300248	0.000446	4.459245	1.510833	0.000179
1672	1.6626e+02	-13.4338	-78.126651	0.000436	4.357899	1.476496	0.000174
1673	1.6636e+02	-13.3825	-77.989388	0.000345	3.445780	1.167462	0.000138
1674	1.6646e+02	-13.3424	-77.840014	0.000375	3.749820	1.270473	0.000150
1675	1.6656e+02	-13.3167	-77.638157	0.000507	5.067324	1.716856	0.000203
1676	1.6666e+02	-13.2638	-77.460523	0.000446	4.459245	1.510833	0.000179
1677	1.6676e+02	-13.2189	-77.315187	0.000365	3.648473	1.236136	0.000146
1678	1.6686e+02	-13.1884	-77.198110	0.000294	2.939048	0.995776	0.000118
1679	1.6696e+02	-13.1499	-77.036624	0.000405	4.053859	1.373485	0.000162
1680	1.6706e+02	-13.1082	-76.818619	0.000547	5.472710	1.854204	0.000219
1681	1.6716e+02	-13.0585	-76.661171	0.000395	3.952513	1.339148	0.000158
1682	1.6726e+02	-13.0232	-76.544094	0.000294	2.939048	0.995776	0.000118
1683	1.6736e+02	-12.9943	-76.366460	0.000446	4.459245	1.510833	0.000179
1684	1.6746e+02	-12.9478	-76.229197	0.000345	3.445780	1.167462	0.000138
1685	1.6756e+02	-12.9093	-76.047526	0.000456	4.560592	1.545170	0.000183
1686	1.6766e+02	-12.8724	-75.902189	0.000365	3.648473	1.236136	0.000146
1687	1.6776e+02	-12.8258	-75.728592	0.000436	4.357899	1.476496	0.000174
1688	1.6786e+02	-12.7922	-75.546921	0.000456	4.560592	1.545170	0.000183
1689	1.6796e+02	-12.7504	-75.401584	0.000365	3.648473	1.236136	0.000146
1690	1.6806e+02	-12.7071	-75.227987	0.000436	4.357899	1.476496	0.000174
1691	1.6816e+02	-12.6670	-75.102836	0.000314	3.141741	1.064451	0.000126
1692	1.6825e+02	-12.6253	-74.909054	0.000486	4.864631	1.648182	0.000195
1693	1.6835e+02	-12.5900	-74.731420	0.000446	4.459245	1.510833	0.000179
1694	1.6845e+02	-12.5451	-74.549749	0.000456	4.560592	1.545170	0.000183
1695	1.6855e+02	-12.5098	-74.404412	0.000365	3.648473	1.236136	0.000146
1696	1.6865e+02	-12.4713	-74.267149	0.000345	3.445780	1.167462	0.000138
1697	1.6875e+02	-12.4392	-74.113738	0.000385	3.851166	1.304810	0.000154
1698	1.6885e+02	-12.3943	-73.919955	0.000486	4.864631	1.648182	0.000195
1699	1.6895e+02	-12.3542	-73.758470	0.000405	4.053859	1.373485	0.000162
1700	1.6905e+02	-12.3205	-73.617170	0.000355	3.547127	1.201799	0.000142
1701	1.6915e+02	-12.2692	-73.370905	0.000618	6.182136	2.094564	0.000248
1702	1.6925e+02	-12.2226	-73.265939	0.000264	2.635009	0.892765	0.000105
1703	1.6935e+02	-12.1890	-73.072157	0.000486	4.864631	1.648182	0.000195
1704	1.6945e+02	-12.1440	-72.918746	0.000385	3.851166	1.304810	0.000154
1705	1.6955e+02	-12.1248	-72.737075	0.000456	4.560592	1.545170	0.000183
1706	1.6965e+02	-12.0767	-72.615961	0.000304	3.040395	1.030114	0.000122
1707	1.6975e+02	-12.0334	-72.373732	0.000608	6.080789	2.060227	0.000243
1708	1.6985e+02	-11.9836	-72.260693	0.000284	2.837702	0.961439	0.000114
1709	1.6995e+02	-11.9499	-72.115356	0.000365	3.648473	1.236136	0.000146
1710	1.7005e+02	-11.9050	-71.937722	0.000446	4.459245	1.510833	0.000179
1711	1.7015e+02	-11.8761	-71.768162	0.000426	4.256552	1.442159	0.000170
1712	1.7024e+02	-11.8296	-71.594565	0.000436	4.357899	1.476496	0.000174
1713	1.7034e+02	-11.7799	-71.429043	0.000416	4.155206	1.407822	0.000166
1714	1.7044e+02	-11.7478	-71.271594	0.000395	3.952513	1.339148	0.000158
1715	1.7054e+02	-11.7093	-71.102035	0.000426	4.256552	1.442159	0.000170
1716	1.7064e+02	-11.6708	-70.904215	0.000497	4.965978	1.682519	0.000199
1717	1.7074e+02	-11.6323	-70.758878	0.000365	3.648473	1.236136	0.000146
1718	1.7084e+02	-11.5954	-70.581244	0.000446	4.459245	1.510833	0.000179
1719	1.7094e+02	-11.5553	-70.419759	0.000405	4.053859	1.373485	0.000162
1720	1.7104e+02	-11.5168	-70.221939	0.000497	4.965978	1.682519	0.000199
1721	1.7114e+02	-11.4735	-70.084676	0.000345	3.445780	1.167462	0.000138
1722	1.7124e+02	-11.4350	-69.886857	0.000497	4.965978	1.682519	0.000199
1723	1.7134e+02	-11.3965	-69.729408	0.000395	3.952513	1.339148	0.000158
1724	1.7144e+02	-11.3516	-69.567923	0.000405	4.053859	1.373485	0.000162
1725	1.7154e+02	-11.3114	-69.366066	0.000507	5.067324	1.716856	0.000203
1726	1.7164e+02	-11.2665	-69.216692	0.000375	3.749820	1.270473	0.000150
1727	1.7174e+02	-11.2296	-69.022910	0.000486	4.864631	1.648182	0.000195
1728	1.7184e+02	-11.2024	-68.861424	0.000405	4.053859	1.373485	0.000162
1729	1.7194e+02	-11.1574	-68.724162	0.000345	3.445780	1.167462	0.000138
1730	1.7204e+02	-11.1045	-68.550565	0.000436	4.357899	1.476496	0.000174
1731	1.7213e+02	-11.0724	-68.381005	0.000426	4.256552	1.442159	0.000170
1732	1.7223e+02	-11.0355	-68.211445	0.000426	4.256552	1.442159	0.000170
1733	1.7233e+02	-10.9874	-67.997477	0.000537	5.371364	1.819867	0.000215
1734	1.7243e+02	-10.9569	-67.815806	0.000456	4.560592	1.545170	0.000183
1735	1.7253e+02	-10.9232	-67.698729	0.000294	2.939048	0.995776	0.000118
1736	1.7263e+02	-10.8847	-67.472650	0.000568	5.675403	1.922879	0.000227
1737	1.7273e+02	-10.8398	-67.331350	0.000355	3.547127	1.201799	0.000142
1738	1.7283e+02	-10.7997	-67.129493	0.000507	5.067324	1.716856	0.000203
1739	1.7293e+02	-10.7564	-67.012416	0.000294	2.939048	0.995776	0.000118
1740	1.7303e+02	-10.7147	-66.814596	0.000497	4.965978	1.682519	0.000199
1741	1.7313e+02	-10.6810	-66.600628	0.000537	5.371364	1.819867	0.000215
1742	1.7323e+02	-10.6393	-66.475477	0.000314	3.141741	1.064451	0.000126
1743	1.7333e+02	-10.5895	-66.281695	0.000486	4.864631	1.648182	0.000195
1744	1.7343e+02	-10.5559	-66.079838	0.000507	5.067324	1.716856	0.000203
1745	1.7353e+02	-10.5190	-65.950649	0.000324	3.243087	1.098788	0.000130
1746	1.7363e+02	-10.4740	-65.756867	0.000486	4.864631	1.648182	0.000195
1747	1.7373e+02	-10.4420	-65.587307	0.000426	4.256552	1.442159	0.000170
1748	1.7383e+02	-10.4034	-65.373339	0.000537	5.371364	1.819867	0.000215
1749	1.7393e+02	-10.3489	-65.236076	0.000345	3.445780	1.167462	0.000138
1750	1.7403e+02	-10.3152	-65.062480	0.000436	4.357899	1.476496	0.000174
1751	1.7413e+02	-10.2751	-64.868697	0.000486	4.864631	1.648182	0.000195
1752	1.7422e+02	-10.2382	-64.699137	0.000426	4.256552	1.442159	0.000170
1753	1.7432e+02	-10.1981	-64.485169	0.000537	5.371364	1.819867	0.000215
1754	1.7442e+02	-10.1676	-64.368092	0.000294	2.939048	0.995776	0.000118
1755	1.7452e+02	-10.1131	-64.170273	0.000497	4.965978	1.682519	0.000199
1756	1.7462e+02	-10.0810	-63.984564	0.000466	4.661938	1.579507	0.000187
1757	1.7472e+02	-10.0329	-63.782708	0.000507	5.067324	1.716856	0.000203
1758	1.7482e+02	-9.9976	-63.617185	0.000416	4.155206	1.407822	0.000166
1759	1.7492e+02	-9.9655	-63.431477	0.000466	4.661938	1.579507	0.000187
1760	1.7502e+02	-9.9190	-63.265954	0.000416	4.155206	1.407822	0.000166
1761	1.7512e+02	-9.8773	-63.092357	0.000436	4.357899	1.476496	0.000174
1762	1.7522e+02	-9.8307	-62.898575	0.000486	4.864631	1.648182	0.000195
1763	1.7532e+02	-9.8051	-62.737089	0.000405	4.053859	1.373485	0.000162
1764	1.7542e+02	-9.7585	-62.543307	0.000486	4.864631	1.648182	0.000195
1765	1.7552e+02	-9.7168	-62.418156	0.000314	3.141741	1.064451	0.000126
1766	1.7562e+02	-9.6783	-62.200150	0.000547	5.472710	1.854204	0.000219
1767	1.7572e+02	-9.6334	-62.006368	0.000486	4.864631	1.648182	0.000195
1768	1.7582e+02	-9.5885	-61.832771	0.000436	4.357899	1.476496	0.000174
1769	1.7592e+02	-9.5612	-61.687434	0.000365	3.648473	1.236136	0.000146
1770	1.7602e+02	-9.5227	-61.481540	0.000517	5.168671	1.751193	0.000207
1771	1.7612e+02	-9.4810	-61.295832	0.000466	4.661938	1.579507	0.000187
1772	1.7621e+02	-9.4409	-61.146458	0.000375	3.749820	1.270473	0.000150
1773	1.7631e+02	-9.4024	-60.989010	0.000395	3.952513	1.339148	0.000158
1774	1.7641e+02	-9.3687	-60.771004	0.000547	5.472710	1.854204	0.000219
1775	1.7651e+02	-9.3238	-60.617593	0.000385	3.851166	1.304810	0.000154
1776	1.7661e+02	-9.2773	-60.419773	0.000497	4.965978	1.682519	0.000199
1777	1.7671e+02	-9.2404	-60.177545	0.000608	6.080789	2.060227	0.000243
1778	1.7681e+02	-9.1955	-60.080654	0.000243	2.432316	0.824091	0.000097
1779	1.7691e+02	-9.1650	-59.850537	0.000578	5.776750	1.957216	0.000231
1780	1.7701e+02	-9.1201	-59.660792	0.000476	4.763285	1.613845	0.000191
1781	1.7711e+02	-9.0816	-59.515455	0.000365	3.648473	1.236136	0.000146
1782	1.7721e+02	-9.0366	-59.305524	0.000527	5.270017	1.785530	0.000211
1783	1.7731e+02	-8.9981	-59.119816	0.000466	4.661938	1.579507	0.000187
1784	1.7741e+02	-8.9661	-58.954293	0.000416	4.155206	1.407822	0.000166
1785	1.7751e+02	-8.9308	-58.740325	0.000537	5.371364	1.819867	0.000215
1786	1.7761e+02	-8.8842	-58.578840	0.000405	4.053859	1.373485	0.000162
1787	1.7771e+02	-8.8473	-58.393131	0.000466	4.661938	1.579507	0.000187
1788	1.7781e+02	-8.8121	-58.207423	0.000466	4.661938	1.579507	0.000187
1789	1.7791e+02	-8.7639	-58.013641	0.000486	4.864631	1.648182	0.000195
1790	1.7801e+02	-8.7142	-57.856192	0.000395	3.952513	1.339148	0.000158
1791	1.7810e+02	-8.6821	-57.694707	0.000405	4.053859	1.373485	0.000162
1792	1.7820e+02	-8.6468	-57.456516	0.000598	5.979443	2.025890	0.000239
1793	1.7830e+02	-8.6051	-57.262733	0.000486	4.864631	1.648182	0.000195
1794	1.7840e+02	-8.5634	-57.133545	0.000324	3.243087	1.098788	0.000130
1795	1.7850e+02	-8.5265	-56.911502	0.000557	5.574057	1.888542	0.000223
1796	1.7860e+02	-8.4784	-56.741943	0.000426	4.256552	1.442159	0.000170
1797	1.7870e+02	-8.4431	-56.499715	0.000608	6.080789	2.060227	0.000243
1798	1.7880e+02	-8.3998	-56.362452	0.000345	3.445780	1.167462	0.000138
1799	1.7890e+02	-8.3629	-56.132335	0.000578	5.776750	1.957216	0.000231
1800	1.7900e+02	-8.3196	-55.974887	0.000395	3.952513	1.339148	0.000158
1801	1.7910e+02	-8.2891	-55.789179	0.000466	4.661938	1.579507	0.000187
1802	1.7920e+02	-8.2474	-55.615582	0.000436	4.357899	1.476496	0.000174
1803	1.7930e+02	-8.2153	-55.450059	0.000416	4.155206	1.407822	0.000166
1804	1.7940e+02	-8.1575	-55.228017	0.000557	5.574057	1.888542	0.000223
1805	1.7950e+02	-8.1270	-55.030197	0.000497	4.965978	1.682519	0.000199
1806	1.7960e+02	-8.0918	-54.808155	0.000557	5.574057	1.888542	0.000223
1807	1.7970e+02	-8.0420	-54.654744	0.000385	3.851166	1.304810	0.000154
1808	1.7980e+02	-8.0051	-54.464998	0.000476	4.763285	1.613845	0.000191
1809	1.7990e+02	-7.9634	-54.287364	0.000446	4.459245	1.510833	0.000179
1810	1.8000e+02	-7.9249	-54.113767	0.000436	4.357899	1.476496	0.000174
1811	1.8009e+02	-7.8816	-53.928059	0.000466	4.661938	1.579507	0.000187
1812	1.8019e+02	-7.8463	-53.718128	0.000527	5.270017	1.785530	0.000211
1813	1.8029e+02	-7.8046	-53.544531	0.000436	4.357899	1.476496	0.000174
1814	1.8039e+02	-7.7629	-53.346712	0.000497	4.965978	1.682519	0.000199
1815	1.8049e+02	-7.7340	-53.148892	0.000497	4.965978	1.682519	0.000199
1816	1.8059e+02	-7.6875	-52.975295	0.000436	4.357899	1.476496	0.000174
1817	1.8069e+02	-7.6506	-52.781513	0.000486	4.864631	1.648182	0.000195
1818	1.8079e+02	-7.6073	-52.644250	0.000345	3.445780	1.167462	0.000138
1819	1.8089e+02	-7.5624	-52.414133	0.000578	5.776750	1.957216	0.000231
1820	1.8099e+02	-7.5303	-52.224388	0.000476	4.763285	1.613845	0.000191
1821	1.8109e+02	-7.4870	-52.014457	0.000527	5.270017	1.785530	0.000211
1822	1.8119e+02	-7.4501	-51.844897	0.000426	4.256552	1.442159	0.000170
1823	1.8129e+02	-7.4051	-51.634966	0.000527	5.270017	1.785530	0.000211
1824	1.8139e+02	-7.3682	-51.433109	0.000507	5.067324	1.716856	0.000203
1825	1.8149e+02	-7.3217	-51.267587	0.000416	4.155206	1.407822	0.000166
1826	1.8159e+02	-7.2928	-51.053619	0.000537	5.371364	1.819867	0.000215
1827	1.8169e+02	-7.2463	-50.888096	0.000416	4.155206	1.407822	0.000166
1828	1.8179e+02	-7.2142	-50.670091	0.000547	5.472710	1.854204	0.000219
1829	1.8189e+02	-7.1725	-50.508605	0.000405	4.053859	1.373485	0.000162
1830	1.8199e+02	-7.1308	-50.282526	0.000568	5.675403	1.922879	0.000227
1831	1.8209e+02	-7.0859	-50.076632	0.000517	5.168671	1.751193	0.000207
1832	1.8218e+02	-7.0474	-49.907072	0.000426	4.256552	1.442159	0.000170
1833	1.8228e+02	-7.0025	-49.725401	0.000456	4.560592	1.545170	0.000183
1834	1.8238e+02	-6.9704	-49.547767	0.000446	4.459245	1.510833	0.000179
1835	1.8248e+02	-6.9367	-49.317650	0.000578	5.776750	1.957216	0.000231
1836	1.8258e+02	-6.8854	-49.123868	0.000486	4.864631	1.648182	0.000195
1837	1.8268e+02	-6.8469	-48.905862	0.000547	5.472710	1.854204	0.000219
1838	1.8278e+02	-6.8052	-48.720154	0.000466	4.661938	1.579507	0.000187
1839	1.8288e+02	-6.7683	-48.514260	0.000517	5.168671	1.751193	0.000207
1840	1.8298e+02	-6.7265	-48.372960	0.000355	3.547127	1.201799	0.000142
1841	1.8308e+02	-6.6880	-48.146881	0.000568	5.675403	1.922879	0.000227
1842	1.8318e+02	-6.6544	-47.945024	0.000507	5.067324	1.716856	0.000203
1843	1.8328e+02	-6.6110	-47.747204	0.000497	4.965978	1.682519	0.000199
1844	1.8338e+02	-6.5774	-47.541310	0.000517	5.168671	1.751193	0.000207
1845	1.8348e+02	-6.5324	-47.363676	0.000446	4.459245	1.510833	0.000179
1846	1.8358e+02	-6.4875	-47.145671	0.000547	5.472710	1.854204	0.000219
1847	1.8368e+02	-6.4635	-46.951889	0.000486	4.864631	1.648182	0.000195
1848	1.8378e+02	-6.4121	-46.790403	0.000405	4.053859	1.373485	0.000162
1849	1.8388e+02	-6.3768	-46.604695	0.000466	4.661938	1.579507	0.000187
1850	1.8398e+02	-6.3319	-46.386690	0.000547	5.472710	1.854204	0.000219
1851	1.8407e+02	-6.2982	-46.200981	0.000466	4.661938	1.579507	0.000187
1852	1.8417e+02	-6.2517	-46.007199	0.000486	4.864631	1.648182	0.000195
1853	1.8427e+02	-6.2148	-45.793231	0.000537	5.371364	1.819867	0.000215
1854	1.8437e+02	-6.1715	-45.567151	0.000568	5.675403	1.922879	0.000227
1855	1.8447e+02	-6.1298	-45.405666	0.000405	4.053859	1.373485	0.000162
1856	1.8457e+02	-6.1121	-45.191697	0.000537	5.371364	1.819867	0.000215
1857	1.8467e+02	-6.0576	-45.066546	0.000314	3.141741	1.064451	0.000126
1858	1.8477e+02	-6.0239	-44.816244	0.000628	6.283482	2.128901	0.000252
1859	1.8487e+02	-5.9742	-44.582090	0.000588	5.878096	1.991553	0.000235
1860	1.8497e+02	-5.9389	-44.404456	0.000446	4.459245	1.510833	0.000179
1861	1.8507e+02	-5.8972	-44.174339	0.000578	5.776750	1.957216	0.000231
1862	1.8517e+02	-5.8522	-44.020928	0.000385	3.851166	1.304810	0.000154
1863	1.8527e+02	-5.8250	-43.810997	0.000527	5.270017	1.785530	0.000211
1864	1.8537e+02	-5.7833	-43.649512	0.000405	4.053859	1.373485	0.000162
1865	1.8547e+02	-5.7367	-43.439581	0.000527	5.270017	1.785530	0.000211
1866	1.8557e+02	-5.6854	-43.193315	0.000618	6.182136	2.094564	0.000248
1867	1.8567e+02	-5.6501	-43.031830	0.000405	4.053859	1.373485	0.000162
1868	1.8577e+02	-5.6164	-42.801713	0.000578	5.776750	1.957216	0.000231
1869	1.8587e+02	-5.5747	-42.587745	0.000537	5.371364	1.819867	0.000215
1870	1.8597e+02	-5.5378	-42.393962	0.000486	4.864631	1.648182	0.000195
1871	1.8606e+02	-5.5057	-42.196143	0.000497	4.965978	1.682519	0.000199
1872	1.8616e+02	-5.4544	-42.014472	0.000456	4.560592	1.545170	0.000183
1873	1.8626e+02	-5.4127	-41.808578	0.000517	5.168671	1.751193	0.000207
1874	1.8636e+02	-5.3774	-41.586535	0.000557	5.574057	1.888542	0.000223
1875	1.8646e+02	-5.3309	-41.416976	0.000426	4.256552	1.442159	0.000170
1876	1.8656e+02	-5.2940	-41.166673	0.000628	6.283482	2.128901	0.000252
1877	1.8666e+02	-5.2651	-40.976928	0.000476	4.763285	1.613845	0.000191
1878	1.8676e+02	-5.2186	-40.791219	0.000466	4.661938	1.579507	0.000187
1879	1.8686e+02	-5.1849	-40.605511	0.000466	4.661938	1.579507	0.000187
1880	1.8696e+02	-5.1384	-40.375395	0.000578	5.776750	1.957216	0.000231
1881	1.8706e+02	-5.0999	-40.193723	0.000456	4.560592	1.545170	0.000183
1882	1.8716e+02	-5.0630	-39.939384	0.000638	6.384829	2.163238	0.000256
1883	1.8726e+02	-5.0309	-39.749638	0.000476	4.763285	1.613845	0.000191
1884	1.8736e+02	-4.9827	-39.555856	0.000486	4.864631	1.648182	0.000195
1885	1.8746e+02	-4.9442	-39.345925	0.000527	5.270017	1.785530	0.000211
1886	1.8756e+02	-4.8993	-39.168291	0.000446	4.459245	1.510833	0.000179
1887	1.8766e+02	-4.8672	-38.942211	0.000568	5.675403	1.922879	0.000227
1888	1.8776e+02	-4.8223	-38.744392	0.000497	4.965978	1.682519	0.000199
1889	1.8786e+02	-4.7726	-38.498126	0.000618	6.182136	2.094564	0.000248
1890	1.8796e+02	-4.7421	-38.328567	0.000426	4.256552	1.442159	0.000170
1891	1.8806e+02	-4.6972	-38.102487	0.000568	5.675403	1.922879	0.000227
1892	1.8815e+02	-4.6571	-37.900630	0.000507	5.067324	1.716856	0.000203
1893	1.8825e+02	-4.6170	-37.682625	0.000547	5.472710	1.854204	0.000219
1894	1.8835e+02	-4.5865	-37.476731	0.000517	5.168671	1.751193	0.000207
1895	1.8845e+02	-4.5400	-37.274874	0.000507	5.067324	1.716856	0.000203
1896	1.8855e+02	-4.5015	-37.085129	0.000476	4.763285	1.613845	0.000191
1897	1.8865e+02	-4.4550	-36.875198	0.000527	5.270017	1.785530	0.000211
1898	1.8875e+02	-4.4213	-36.632970	0.000608	6.080789	2.060227	0.000243
1899	1.8885e+02	-4.3763	-36.447261	0.000466	4.661938	1.579507	0.000187
1900	1.8895e+02	-4.3427	-36.241368	0.000517	5.168671	1.751193	0.000207
1901	1.8905e+02	-4.3026	-36.027399	0.000537	5.371364	1.819867	0.000215
1902	1.8915e+02	-4.2624	-35.833617	0.000486	4.864631	1.648182	0.000195
1903	1.8925e+02	-4.2223	-35.567166	0.000669	6.688868	2.266250	0.000268
1904	1.8935e+02	-4.1822	-35.413755	0.000385	3.851166	1.304810	0.000154
1905	1.8945e+02	-4.1389	-35.131155	0.000709	7.094254	2.403598	0.000284
1906	1.8955e+02	-4.1084	-34.965633	0.000416	4.155206	1.407822	0.000166
1907	1.8965e+02	-4.0587	-34.727442	0.000598	5.979443	2.025890	0.000239
1908	1.8975e+02	-4.0314	-34.545771	0.000456	4.560592	1.545170	0.000183
1909	1.8985e+02	-3.9865	-34.356025	0.000476	4.763285	1.613845	0.000191
1910	1.8995e+02	-3.9496	-34.113797	0.000608	6.080789	2.060227	0.000243
1911	1.9004e+02	-3.8999	-33.899829	0.000537	5.371364	1.819867	0.000215
1912	1.9014e+02	-3.8678	-33.730269	0.000426	4.256552	1.442159	0.000170
1913	1.9024e+02	-3.8229	-33.488041	0.000608	6.080789	2.060227	0.000243
1914	1.9034e+02	-3.7764	-33.274073	0.000537	5.371364	1.819867	0.000215
1915	1.9044e+02	-3.7459	-33.092402	0.000456	4.560592	1.545170	0.000183
1916	1.9054e+02	-3.6929	-32.894582	0.000497	4.965978	1.682519	0.000199
1917	1.9064e+02	-3.6689	-32.648317	0.000618	6.182136	2.094564	0.000248
1918	1.9074e+02	-3.6208	-32.422237	0.000568	5.675403	1.922879	0.000227
1919	1.9084e+02	-3.5839	-32.244603	0.000446	4.459245	1.510833	0.000179
1920	1.9094e+02	-3.5389	-32.030635	0.000537	5.371364	1.819867	0.000215
1921	1.9104e+02	-3.5052	-31.792444	0.000598	5.979443	2.025890	0.000239
1922	1.9114e+02	-3.4619	-31.586550	0.000517	5.168671	1.751193	0.000207
1923	1.9124e+02	-3.4234	-31.348359	0.000598	5.979443	2.025890	0.000239
1924	1.9134e+02	-3.3930	-31.178799	0.000426	4.256552	1.442159	0.000170
1925	1.9144e+02	-3.3496	-30.932534	0.000618	6.182136	2.094564	0.000248
1926	1.9154e+02	-3.3111	-30.698380	0.000588	5.878096	1.991553	0.000235
1927	1.9164e+02	-3.2630	-30.516709	0.000456	4.560592	1.545170	0.000183
1928	1.9174e+02	-3.2261	-30.298704	0.000547	5.472710	1.854204	0.000219
1929	1.9184e+02	-3.1924	-30.060513	0.000598	5.979443	2.025890	0.000239
1930	1.9194e+02	-3.1475	-29.874804	0.000466	4.661938	1.579507	0.000187
1931	1.9203e+02	-3.1106	-29.664873	0.000527	5.270017	1.785530	0.000211
1932	1.9213e+02	-3.0753	-29.422645	0.000608	6.080789	2.060227	0.000243
1933	1.9223e+02	-3.0240	-29.208677	0.000537	5.371364	1.819867	0.000215
1934	1.9233e+02	-2.9887	-28.970486	0.000598	5.979443	2.025890	0.000239
1935	1.9243e+02	-2.9534	-28.788815	0.000456	4.560592	1.545170	0.000183
1936	1.9253e+02	-2.9037	-28.574847	0.000537	5.371364	1.819867	0.000215
1937	1.9263e+02	-2.8732	-28.348767	0.000568	5.675403	1.922879	0.000227
1938	1.9273e+02	-2.8347	-28.114613	0.000588	5.878096	1.991553	0.000235
1939	1.9283e+02	-2.7962	-27.932942	0.000456	4.560592	1.545170	0.000183
1940	1.9293e+02	-2.7481	-27.714937	0.000547	5.472710	1.854204	0.000219
1941	1.9303e+02	-2.7095	-27.484820	0.000578	5.776750	1.957216	0.000231
1942	1.9313e+02	-2.6807	-27.266815	0.000547	5.472710	1.854204	0.000219
1943	1.9323e+02	-2.6277	-27.008438	0.000649	6.486175	2.197576	0.000260
1944	1.9333e+02	-2.5796	-26.871175	0.000345	3.445780	1.167462	0.000138
1945	1.9343e+02	-2.5411	-26.624910	0.000618	6.182136	2.094564	0.000248
1946	1.9353e+02	-2.5106	-26.423053	0.000507	5.067324	1.716856	0.000203
1947	1.9363e+02	-2.4689	-26.176788	0.000618	6.182136	2.094564	0.000248
1948	1.9373e+02	-2.4192	-25.958783	0.000547	5.472710	1.854204	0.000219
1949	1.9383e+02	-2.3839	-25.728666	0.000578	5.776750	1.957216	0.000231
1950	1.9393e+02	-2.3518	-25.546995	0.000456	4.560592	1.545170	0.000183
1951	1.9403e+02	-2.3133	-25.308804	0.000598	5.979443	2.025890	0.000239
1952	1.9412e+02	-2.2652	-25.119059	0.000476	4.763285	1.613845	0.000191
1953	1.9422e+02	-2.2267	-24.872793	0.000618	6.182136	2.094564	0.000248
1954	1.9432e+02	-2.1962	-24.634602	0.000598	5.979443	2.025890	0.000239
1955	1.9442e+02	-2.1481	-24.428708	0.000517	5.168671	1.751193	0.000207
1956	1.9452e+02	-2.1192	-24.190517	0.000598	5.979443	2.025890	0.000239
1957	1.9462e+02	-2.0663	-23.980586	0.000527	5.270017	1.785530	0.000211
1958	1.9472e+02	-2.0358	-23.770655	0.000527	5.270017	1.785530	0.000211
1959	1.9482e+02	-1.9925	-23.540538	0.000578	5.776750	1.957216	0.000231
1960	1.9492e+02	-1.9556	-23.330607	0.000527	5.270017	1.785530	0.000211
1961	1.9502e+02	-1.9155	-23.124714	0.000517	5.168671	1.751193	0.000207
1962	1.9512e+02	-1.8673	-22.878448	0.000618	6.182136	2.094564	0.000248
1963	1.9522e+02	-1.8368	-22.676591	0.000507	5.067324	1.716856	0.000203
1964	1.9532e+02	-1.7919	-22.426289	0.000628	6.283482	2.128901	0.000252
1965	1.9542e+02	-1.7502	-22.244618	0.000456	4.560592	1.545170	0.000183
1966	1.9552e+02	-1.7101	-21.986241	0.000649	6.486175	2.197576	0.000260
1967	1.9562e+02	-1.6796	-21.772273	0.000537	5.371364	1.819867	0.000215
1968	1.9572e+02	-1.6315	-21.554268	0.000547	5.472710	1.854204	0.000219
1969	1.9582e+02	-1.5914	-21.328188	0.000568	5.675403	1.922879	0.000227
1970	1.9592e+02	-1.5481	-21.138443	0.000476	4.763285	1.613845	0.000191
1971	1.9601e+02	-1.5160	-20.859880	0.000699	6.992907	2.369261	0.000280
1972	1.9611e+02	-1.4679	-20.670135	0.000476	4.763285	1.613845	0.000191
1973	1.9621e+02	-1.4358	-20.460204	0.000527	5.270017	1.785530	0.000211
1974	1.9631e+02	-1.3941	-20.234124	0.000568	5.675403	1.922879	0.000227
1975	1.9641e+02	-1.3572	-19.991896	0.000608	6.080789	2.060227	0.000243
1976	1.9651e+02	-1.3107	-19.769854	0.000557	5.574057	1.888542	0.000223
1977	1.9661e+02	-1.2786	-19.584145	0.000466	4.661938	1.579507	0.000187
1978	1.9671e+02	-1.2288	-19.341917	0.000608	6.080789	2.060227	0.000243
1979	1.9681e+02	-1.1935	-19.136023	0.000517	5.168671	1.751193	0.000207
1980	1.9691e+02	-1.1550	-18.873610	0.000659	6.587521	2.231913	0.000264
1981	1.9701e+02	-1.1117	-18.679827	0.000486	4.864631	1.648182	0.000195
1982	1.9711e+02	-1.0748	-18.453747	0.000568	5.675403	1.922879	0.000227
1983	1.9721e+02	-1.0379	-18.203445	0.000628	6.283482	2.128901	0.000252
1984	1.9731e+02	-0.9994	-18.033885	0.000426	4.256552	1.442159	0.000170
1985	1.9741e+02	-0.9609	-17.755323	0.000699	6.992907	2.369261	0.000280
1986	1.9751e+02	-0.9112	-17.573652	0.000456	4.560592	1.545170	0.000183
1987	1.9761e+02	-0.8727	-17.303164	0.000679	6.790214	2.300587	0.000272
1988	1.9771e+02	-0.8278	-17.117456	0.000466	4.661938	1.579507	0.000187
1989	1.9781e+02	-0.7957	-16.851005	0.000669	6.688868	2.266250	0.000268
1990	1.9791e+02	-0.7636	-16.645111	0.000517	5.168671	1.751193	0.000207
1991	1.9800e+02	-0.7187	-16.443254	0.000507	5.067324	1.716856	0.000203
1992	1.9810e+02	-0.6818	-16.168729	0.000689	6.891561	2.334924	0.000276
1993	1.9820e+02	-0.6257	-15.950723	0.000547	5.472710	1.854204	0.000219
1994	1.9830e+02	-0.5871	-15.724644	0.000568	5.675403	1.922879	0.000227
1995	1.9840e+02	-0.5599	-15.494527	0.000578	5.776750	1.957216	0.000231
1996	1.9850e+02	-0.5198	-15.312856	0.000456	4.560592	1.545170	0.000183
1997	1.9860e+02	-0.4700	-15.070628	0.000608	6.080789	2.060227	0.000243
1998	1.9870e+02	-0.4364	-14.836474	0.000588	5.878096	1.991553	0.000235
1999	1.9880e+02	-0.3995	-14.594246	0.000608	6.080789	2.060227	0.000243
2000	1.9890e+02	-0.3529	-14.368166	0.000568	5.675403	1.922879	0.000227
2001	1.9900e+02	-0.3225	-14.190532	0.000446	4.459245	1.510833	0.000179
2002	1.9910e+02	-0.2791	-13.932155	0.000649	6.486175	2.197576	0.000260
2003	1.9920e+02	-0.2310	-13.726262	0.000517	5.168671	1.751193	0.000207
2004	1.9930e+02	-0.1957	-13.500182	0.000568	5.675403	1.922879	0.000227
2005	1.9940e+02	-0.1604	-13.241805	0.000649	6.486175	2.197576	0.000260
2006	1.9950e+02	-0.1203	-13.035911	0.000517	5.168671	1.751193	0.000207
2007	1.9960e+02	-0.0770	-12.737163	0.000750	7.499640	2.540947	0.000300
2008	1.9970e+02	-0.0353	-12.575678	0.000405	4.053859	1.373485	0.000162
2009	1.9980e+02	0.0016	-12.341524	0.000405	4.053859	1.373485	0.000235

PMax (uC/cm2):	1.09e+02
Pr (uC/cm2):	7.11e+00
-Pr (uC/cm2):	-4.00e+00
PLoss (uC/cm2):	-3.98e+00
-Vc:	-1.25e+00
C (Max-Eff) (nF):	5.44e-01
K (Eff):	1.84e+03
Vert. (+/-Pr) Shift (uC/cm2):	1.56e+00
Offset (uC/cm2):	8.34e+00

A (Loop Area - uC/cm2·Volts):	7.12e-02



Hysteresis Version: 5.48.1 - Radiant Technologies, Inc., 1999 - 9/12/24

