»»»»»»»»»»»»»»»»»»»»»»»»»»»»»»»»»»»» Hysteresis ««««««««««««««««««««««««««««««««««««
»»»  Executed Version:	5.48.1
»»»  Vision Version:	5.48.4 (R)
»»»  Vision Compiled:	9/18/24
»»»  Driver Version:	5.47.0
»»»  Windows Version:	Windows 8 or 8.1
»»»  Processor Information:	x86 (AMD or Intel) - 32 Processors
»»»  Tester Name:	PMF21124-494 (100V)
»»»  Tester S/N:	PMF21124-494
»»»  Internal Amp Type:	100V RevK 270k
»»»  Internal Amp S/N:	iAB2-596/K     
»»»  Execution Count:	1
»»»»»»»»»»»»»»»»»»»»»»»»»»»»»»»»»»»»»»»»»»««««««««««««««««««««««««««««««««««««««««««

Stored:	6/18/2025 - 12:40:15
Configured:	06/18/25 09:47:30 AM
Executed:	06/18/25 12:39:43 PM

»»»»»»»»»»»»»»»»»»»»»»»»»»»»»»»»»»» Sample Info ««««««««««««««««««««««««««««««««««««
Sample Name:	
Lot Name:	
Wafer Name:	
Die Row/Column:	0/0
Capacitor Number:	0
Sample Area (cm2):	1.00e-04
Sample Thickness (microns):	3.00e-01

Amplifier:	Internal

»»»»»»»»»»»»»»»»»»»»»»»»»»»»»»»»»»» Tester Info «««««««««««««««««««««««««««««««««««
Tester Name:	PMF21124-494 (100V)
Tester Serial Number:	PMF21124-494
Return Signal Amp. Level:	0.19 [Index: 3]

»»»»»»»»»»»»»»»»»»»»»»»»»»»»»»»» Hysteresis Info ««««««««««««««««««««««««««««««««««
Task Name:	Hyst-554
Volts:	20.00
Field:	666.67 (kV/cm)
DCBias:	0.00
DCField:	0.00 (kV/cm)
Hysteresis Period (ms):	2.00e+02
Preset:	Enabled
Preset Delay (ms):	1.00e+03
Profile:	Standard Bipolar

»»»»»»»»»»»»»»»»»»»»»»»»»»»»»»»»»»»»»» Data «««««««««««««««««««««««««««««««««««««««
Points:	2009

Valid Data

Point	Time (ms)	Drive Voltage	Measured Polarization (uC/cm2)	Capacitance (uF)	Normalized Capacitance (uF/cm2)	Dielectric Constant	Instantaneous Current (mA)
   1	0.0000e+00	0.0000	1.445295	0.000304	3.041126	1.030362	0.000122
   2	9.9500e-02	0.0353	1.566409	0.000304	3.041126	1.030362	0.000122
   3	1.9900e-01	0.0786	1.731931	0.000416	4.156206	1.408161	0.000166
   4	2.9850e-01	0.1107	1.893417	0.000405	4.054835	1.373815	0.000162
   5	3.9800e-01	0.1588	2.079125	0.000466	4.663061	1.579888	0.000187
   6	4.9750e-01	0.1925	2.228499	0.000375	3.750723	1.270779	0.000150
   7	5.9700e-01	0.2326	2.389984	0.000405	4.054835	1.373815	0.000162
   8	6.9650e-01	0.2775	2.575693	0.000466	4.663061	1.579888	0.000187
   9	7.9600e-01	0.3112	2.716992	0.000355	3.547981	1.202088	0.000142
  10	8.9550e-01	0.3481	2.906738	0.000476	4.764431	1.614233	0.000191
  11	9.9500e-01	0.3898	3.084372	0.000446	4.460319	1.511197	0.000179
  12	1.0945e+00	0.4299	3.217597	0.000335	3.345239	1.133398	0.000134
  13	1.1940e+00	0.4700	3.391194	0.000436	4.358948	1.476852	0.000174
  14	1.2935e+00	0.5118	3.617274	0.000568	5.676769	1.923342	0.000227
  15	1.3930e+00	0.5422	3.734351	0.000294	2.939756	0.996016	0.000118
  16	1.4925e+00	0.5904	3.936207	0.000507	5.068544	1.717269	0.000203
  17	1.5920e+00	0.6305	4.105767	0.000426	4.257577	1.442506	0.000170
  18	1.6915e+00	0.6642	4.251104	0.000365	3.649352	1.236434	0.000146
  19	1.7910e+00	0.7091	4.444886	0.000487	4.865802	1.648578	0.000195
  20	1.8905e+00	0.7492	4.586186	0.000355	3.547981	1.202088	0.000142
  21	1.9900e+00	0.7877	4.800154	0.000537	5.372657	1.820305	0.000215
  22	2.0895e+00	0.8278	4.957603	0.000395	3.953464	1.339470	0.000158
  23	2.1890e+00	0.8663	5.119088	0.000405	4.054835	1.373815	0.000162
  24	2.2885e+00	0.9064	5.284611	0.000416	4.156206	1.408161	0.000166
  25	2.3880e+00	0.9401	5.458208	0.000436	4.358948	1.476852	0.000174
  26	2.4875e+00	0.9946	5.668139	0.000527	5.271286	1.785960	0.000211
  27	2.5870e+00	1.0331	5.821550	0.000385	3.852093	1.305125	0.000154
  28	2.6865e+00	1.0604	5.991109	0.000426	4.257577	1.442506	0.000170
  29	2.7860e+00	1.1021	6.148558	0.000395	3.953464	1.339470	0.000158
  30	2.8855e+00	1.1454	6.354452	0.000517	5.169915	1.751615	0.000207
  31	2.9850e+00	1.1919	6.519974	0.000416	4.156206	1.408161	0.000166
  32	3.0845e+00	1.2353	6.685497	0.000416	4.156206	1.408161	0.000166
  33	3.1840e+00	1.2850	6.855056	0.000426	4.257577	1.442506	0.000170
  34	3.2835e+00	1.2946	7.073062	0.000547	5.474028	1.854651	0.000219
  35	3.3830e+00	1.3476	7.250696	0.000446	4.460319	1.511197	0.000179
  36	3.4825e+00	1.3877	7.436404	0.000466	4.663061	1.579888	0.000187
  37	3.5820e+00	1.4310	7.605964	0.000426	4.257577	1.442506	0.000170
  38	3.6815e+00	1.4679	7.787635	0.000456	4.561690	1.545542	0.000183
  39	3.7810e+00	1.5080	7.981417	0.000487	4.865802	1.648578	0.000195
  40	3.8805e+00	1.5385	8.179237	0.000497	4.967173	1.682924	0.000199
  41	3.9800e+00	1.5898	8.368982	0.000476	4.764431	1.614233	0.000191
  42	4.0795e+00	1.6347	8.506245	0.000345	3.446610	1.167743	0.000138
  43	4.1790e+00	1.6604	8.712139	0.000517	5.169915	1.751615	0.000207
  44	4.2785e+00	1.7069	8.881699	0.000426	4.257577	1.442506	0.000170
  45	4.3780e+00	1.7534	9.087593	0.000517	5.169915	1.751615	0.000207
  46	4.4775e+00	1.7839	9.249078	0.000405	4.054835	1.373815	0.000162
  47	4.5770e+00	1.8288	9.394415	0.000365	3.649352	1.236434	0.000146
  48	4.6765e+00	1.8657	9.612420	0.000547	5.474028	1.854651	0.000219
  49	4.7760e+00	1.9090	9.838500	0.000568	5.676769	1.923342	0.000227
  50	4.8755e+00	1.9540	9.991911	0.000385	3.852093	1.305125	0.000154
  51	4.9750e+00	1.9909	10.181656	0.000476	4.764431	1.614233	0.000191
  52	5.0745e+00	2.0278	10.318919	0.000345	3.446610	1.167743	0.000138
  53	5.1740e+00	2.0695	10.593444	0.000689	6.893220	2.335486	0.000276
  54	5.2735e+00	2.1112	10.734744	0.000355	3.547981	1.202088	0.000142
  55	5.3730e+00	2.1417	10.908341	0.000436	4.358948	1.476852	0.000174
  56	5.4725e+00	2.1866	11.118272	0.000527	5.271286	1.785960	0.000211
  57	5.5720e+00	2.2283	11.303980	0.000466	4.663061	1.579888	0.000187
  58	5.6715e+00	2.2636	11.513911	0.000527	5.271286	1.785960	0.000211
  59	5.7710e+00	2.3085	11.679434	0.000416	4.156206	1.408161	0.000166
  60	5.8705e+00	2.3486	11.885328	0.000517	5.169915	1.751615	0.000207
  61	5.9700e+00	2.3919	12.075073	0.000476	4.764431	1.614233	0.000191
  62	6.0695e+00	2.4176	12.244633	0.000426	4.257577	1.442506	0.000170
  63	6.1690e+00	2.4673	12.434378	0.000476	4.764431	1.614233	0.000191
  64	6.2685e+00	2.5090	12.648346	0.000537	5.372657	1.820305	0.000215
  65	6.3680e+00	2.5395	12.801757	0.000385	3.852093	1.305125	0.000154
  66	6.4675e+00	2.5876	13.052060	0.000628	6.284995	2.129414	0.000252
  67	6.5670e+00	2.6277	13.205471	0.000385	3.852093	1.305125	0.000154
  68	6.6665e+00	2.6710	13.415402	0.000527	5.271286	1.785960	0.000211
  69	6.7660e+00	2.7047	13.609185	0.000487	4.865802	1.648578	0.000195
  70	6.8655e+00	2.7448	13.790856	0.000456	4.561690	1.545542	0.000183
  71	6.9650e+00	2.7898	14.000787	0.000527	5.271286	1.785960	0.000211
  72	7.0645e+00	2.8186	14.182458	0.000456	4.561690	1.545542	0.000183
  73	7.1640e+00	2.8587	14.360092	0.000446	4.460319	1.511197	0.000179
  74	7.2635e+00	2.9053	14.533689	0.000436	4.358948	1.476852	0.000174
  75	7.3630e+00	2.9406	14.767843	0.000588	5.879511	1.992032	0.000235
  76	7.4625e+00	2.9903	14.965662	0.000497	4.967173	1.682924	0.000199
  77	7.5620e+00	3.0160	15.106962	0.000355	3.547981	1.202088	0.000142
  78	7.6615e+00	3.0673	15.329004	0.000558	5.575398	1.888996	0.000223
  79	7.7610e+00	3.1058	15.490490	0.000405	4.054835	1.373815	0.000162
  80	7.8605e+00	3.1523	15.704458	0.000537	5.372657	1.820305	0.000215
  81	7.9600e+00	3.1812	15.926500	0.000558	5.575398	1.888996	0.000223
  82	8.0595e+00	3.2213	16.120283	0.000487	4.865802	1.648578	0.000195
  83	8.1590e+00	3.2582	16.265620	0.000365	3.649352	1.236434	0.000146
  84	8.2585e+00	3.3079	16.459402	0.000487	4.865802	1.648578	0.000195
  85	8.3580e+00	3.3496	16.701631	0.000608	6.082253	2.060723	0.000243
  86	8.4575e+00	3.3817	16.859079	0.000395	3.953464	1.339470	0.000158
  87	8.5570e+00	3.4138	17.097270	0.000598	5.980882	2.026378	0.000239
  88	8.6565e+00	3.4539	17.266830	0.000426	4.257577	1.442506	0.000170
  89	8.7560e+00	3.5036	17.460612	0.000487	4.865802	1.648578	0.000195
  90	8.8555e+00	3.5454	17.622097	0.000405	4.054835	1.373815	0.000162
  91	8.9550e+00	3.5839	17.852214	0.000578	5.778140	1.957687	0.000231
  92	9.0545e+00	3.6191	18.005625	0.000385	3.852093	1.305125	0.000154
  93	9.1540e+00	3.6641	18.259965	0.000639	6.386366	2.163759	0.000256
  94	9.2535e+00	3.6978	18.449710	0.000476	4.764431	1.614233	0.000191
  95	9.3530e+00	3.7379	18.611196	0.000405	4.054835	1.373815	0.000162
  96	9.4525e+00	3.7796	18.813053	0.000507	5.068544	1.717269	0.000203
  97	9.5520e+00	3.8261	19.051244	0.000598	5.980882	2.026378	0.000239
  98	9.6515e+00	3.8662	19.204655	0.000385	3.852093	1.305125	0.000154
  99	9.7510e+00	3.8935	19.414586	0.000527	5.271286	1.785960	0.000211
 100	9.8505e+00	3.9256	19.584145	0.000426	4.257577	1.442506	0.000170
 101	9.9500e+00	3.9721	19.814262	0.000578	5.778140	1.957687	0.000231
 102	1.0050e+01	4.0186	20.020156	0.000517	5.169915	1.751615	0.000207
 103	1.0149e+01	4.0635	20.189716	0.000426	4.257577	1.442506	0.000170
 104	1.0248e+01	4.0972	20.423870	0.000588	5.879511	1.992032	0.000235
 105	1.0348e+01	4.1421	20.609578	0.000466	4.663061	1.579888	0.000187
 106	1.0447e+01	4.1806	20.791249	0.000456	4.561690	1.545542	0.000183
 107	1.0547e+01	4.2159	20.972920	0.000456	4.561690	1.545542	0.000183
 108	1.0646e+01	4.2544	21.235334	0.000659	6.589107	2.232450	0.000264
 109	1.0746e+01	4.3042	21.404894	0.000426	4.257577	1.442506	0.000170
 110	1.0845e+01	4.3330	21.586565	0.000456	4.561690	1.545542	0.000183
 111	1.0945e+01	4.3812	21.784384	0.000497	4.967173	1.682924	0.000199
 112	1.1044e+01	4.4116	21.978167	0.000487	4.865802	1.648578	0.000195
 113	1.1144e+01	4.4582	22.208284	0.000578	5.778140	1.957687	0.000231
 114	1.1243e+01	4.4902	22.389955	0.000456	4.561690	1.545542	0.000183
 115	1.1343e+01	4.5336	22.599886	0.000527	5.271286	1.785960	0.000211
 116	1.1443e+01	4.5769	22.789631	0.000476	4.764431	1.614233	0.000191
 117	1.1542e+01	4.6138	22.975339	0.000466	4.663061	1.579888	0.000187
 118	1.1642e+01	4.6507	23.173159	0.000497	4.967173	1.682924	0.000199
 119	1.1741e+01	4.6940	23.362905	0.000476	4.764431	1.614233	0.000191
 120	1.1841e+01	4.7421	23.528427	0.000416	4.156206	1.408161	0.000166
 121	1.1940e+01	4.7774	23.778729	0.000628	6.284995	2.129414	0.000252
 122	1.2040e+01	4.8111	23.964438	0.000466	4.663061	1.579888	0.000187
 123	1.2139e+01	4.8560	24.146109	0.000456	4.561690	1.545542	0.000183
 124	1.2239e+01	4.8977	24.364114	0.000547	5.474028	1.854651	0.000219
 125	1.2338e+01	4.9298	24.549822	0.000466	4.663061	1.579888	0.000187
 126	1.2438e+01	4.9795	24.763791	0.000537	5.372657	1.820305	0.000215
 127	1.2537e+01	5.0100	24.973722	0.000527	5.271286	1.785960	0.000211
 128	1.2636e+01	5.0517	25.155393	0.000456	4.561690	1.545542	0.000183
 129	1.2736e+01	5.0999	25.357250	0.000507	5.068544	1.717269	0.000203
 130	1.2835e+01	5.1351	25.555069	0.000497	4.967173	1.682924	0.000199
 131	1.2935e+01	5.1704	25.760963	0.000517	5.169915	1.751615	0.000207
 132	1.3034e+01	5.2154	25.962820	0.000507	5.068544	1.717269	0.000203
 133	1.3134e+01	5.2571	26.176788	0.000537	5.372657	1.820305	0.000215
 134	1.3233e+01	5.2956	26.350385	0.000436	4.358948	1.476852	0.000174
 135	1.3333e+01	5.3212	26.564353	0.000537	5.372657	1.820305	0.000215
 136	1.3432e+01	5.3613	26.713727	0.000375	3.750723	1.270779	0.000150
 137	1.3532e+01	5.4191	26.927695	0.000537	5.372657	1.820305	0.000215
 138	1.3632e+01	5.4560	27.129552	0.000507	5.068544	1.717269	0.000203
 139	1.3731e+01	5.4961	27.315260	0.000466	4.663061	1.579888	0.000187
 140	1.3831e+01	5.5330	27.492894	0.000446	4.460319	1.511197	0.000179
 141	1.3930e+01	5.5763	27.731085	0.000598	5.980882	2.026378	0.000239
 142	1.4030e+01	5.6116	27.896608	0.000416	4.156206	1.408161	0.000166
 143	1.4129e+01	5.6517	28.102502	0.000517	5.169915	1.751615	0.000207
 144	1.4229e+01	5.6918	28.316470	0.000537	5.372657	1.820305	0.000215
 145	1.4328e+01	5.7432	28.498141	0.000456	4.561690	1.545542	0.000183
 146	1.4428e+01	5.7688	28.683849	0.000466	4.663061	1.579888	0.000187
 147	1.4527e+01	5.8137	28.918003	0.000588	5.879511	1.992032	0.000235
 148	1.4627e+01	5.8426	29.115823	0.000497	4.967173	1.682924	0.000199
 149	1.4726e+01	5.8891	29.253086	0.000345	3.446610	1.167743	0.000138
 150	1.4825e+01	5.9292	29.479165	0.000568	5.676769	1.923342	0.000227
 151	1.4925e+01	5.9726	29.701208	0.000558	5.575398	1.888996	0.000223
 152	1.5024e+01	6.0143	29.866730	0.000416	4.156206	1.408161	0.000166
 153	1.5124e+01	6.0624	30.052438	0.000466	4.663061	1.579888	0.000187
 154	1.5223e+01	6.0961	30.234110	0.000456	4.561690	1.545542	0.000183
 155	1.5323e+01	6.1410	30.484412	0.000628	6.284995	2.129414	0.000252
 156	1.5422e+01	6.1699	30.649935	0.000416	4.156206	1.408161	0.000166
 157	1.5522e+01	6.2148	30.851791	0.000507	5.068544	1.717269	0.000203
 158	1.5621e+01	6.2549	31.085945	0.000588	5.879511	1.992032	0.000235
 159	1.5721e+01	6.2934	31.259542	0.000436	4.358948	1.476852	0.000174
 160	1.5820e+01	6.3271	31.461399	0.000507	5.068544	1.717269	0.000203
 161	1.5920e+01	6.3704	31.683441	0.000558	5.575398	1.888996	0.000223
 162	1.6020e+01	6.4025	31.873187	0.000476	4.764431	1.614233	0.000191
 163	1.6119e+01	6.4474	32.075043	0.000507	5.068544	1.717269	0.000203
 164	1.6218e+01	6.4875	32.276900	0.000507	5.068544	1.717269	0.000203
 165	1.6318e+01	6.5260	32.438386	0.000405	4.054835	1.373815	0.000162
 166	1.6418e+01	6.5725	32.640242	0.000507	5.068544	1.717269	0.000203
 167	1.6517e+01	6.6046	32.850174	0.000527	5.271286	1.785960	0.000211
 168	1.6616e+01	6.6447	33.052030	0.000507	5.068544	1.717269	0.000203
 169	1.6716e+01	6.6848	33.229664	0.000446	4.460319	1.511197	0.000179
 170	1.6816e+01	6.7265	33.439595	0.000527	5.271286	1.785960	0.000211
 171	1.6915e+01	6.7586	33.621266	0.000456	4.561690	1.545542	0.000183
 172	1.7015e+01	6.8100	33.843309	0.000558	5.575398	1.888996	0.000223
 173	1.7114e+01	6.8533	34.029017	0.000466	4.663061	1.579888	0.000187
 174	1.7213e+01	6.8854	34.230874	0.000507	5.068544	1.717269	0.000203
 175	1.7313e+01	6.9303	34.460991	0.000578	5.778140	1.957687	0.000231
 176	1.7413e+01	6.9688	34.658810	0.000497	4.967173	1.682924	0.000199
 177	1.7512e+01	7.0009	34.840481	0.000456	4.561690	1.545542	0.000183
 178	1.7611e+01	7.0458	35.038301	0.000497	4.967173	1.682924	0.000199
 179	1.7711e+01	7.0875	35.244195	0.000517	5.169915	1.751615	0.000207
 180	1.7811e+01	7.1292	35.442015	0.000497	4.967173	1.682924	0.000199
 181	1.7910e+01	7.1693	35.664057	0.000558	5.575398	1.888996	0.000223
 182	1.8009e+01	7.2046	35.825543	0.000405	4.054835	1.373815	0.000162
 183	1.8109e+01	7.2479	36.027399	0.000507	5.068544	1.717269	0.000203
 184	1.8209e+01	7.2832	36.261553	0.000588	5.879511	1.992032	0.000235
 185	1.8308e+01	7.3201	36.443224	0.000456	4.561690	1.545542	0.000183
 186	1.8407e+01	7.3634	36.641044	0.000497	4.967173	1.682924	0.000199
 187	1.8507e+01	7.4100	36.826752	0.000466	4.663061	1.579888	0.000187
 188	1.8607e+01	7.4468	37.012460	0.000466	4.663061	1.579888	0.000187
 189	1.8706e+01	7.4870	37.214317	0.000507	5.068544	1.717269	0.000203
 190	1.8805e+01	7.5222	37.412137	0.000497	4.967173	1.682924	0.000199
 191	1.8905e+01	7.5575	37.622068	0.000527	5.271286	1.785960	0.000211
 192	1.9005e+01	7.5993	37.803739	0.000456	4.561690	1.545542	0.000183
 193	1.9104e+01	7.6522	38.025782	0.000558	5.575398	1.888996	0.000223
 194	1.9203e+01	7.6859	38.203415	0.000446	4.460319	1.511197	0.000179
 195	1.9303e+01	7.7292	38.393161	0.000476	4.764431	1.614233	0.000191
 196	1.9402e+01	7.7613	38.623278	0.000578	5.778140	1.957687	0.000231
 197	1.9502e+01	7.8014	38.821097	0.000497	4.967173	1.682924	0.000199
 198	1.9602e+01	7.8399	39.002768	0.000456	4.561690	1.545542	0.000183
 199	1.9701e+01	7.8864	39.208662	0.000517	5.169915	1.751615	0.000207
 200	1.9800e+01	7.9217	39.386296	0.000446	4.460319	1.511197	0.000179
 201	1.9900e+01	7.9602	39.632562	0.000618	6.183624	2.095068	0.000248
 202	2.0000e+01	8.0003	39.802121	0.000426	4.257577	1.442506	0.000170
 203	2.0099e+01	8.0484	40.008015	0.000517	5.169915	1.751615	0.000207
 204	2.0198e+01	8.0709	40.213909	0.000517	5.169915	1.751615	0.000207
 205	2.0298e+01	8.1206	40.407692	0.000487	4.865802	1.648578	0.000195
 206	2.0398e+01	8.1623	40.601474	0.000487	4.865802	1.648578	0.000195
 207	2.0497e+01	8.1992	40.819479	0.000547	5.474028	1.854651	0.000219
 208	2.0596e+01	8.2377	40.997113	0.000446	4.460319	1.511197	0.000179
 209	2.0696e+01	8.2891	41.227230	0.000578	5.778140	1.957687	0.000231
 210	2.0796e+01	8.3228	41.392753	0.000416	4.156206	1.408161	0.000166
 211	2.0895e+01	8.3484	41.614795	0.000558	5.575398	1.888996	0.000223
 212	2.0994e+01	8.4078	41.800503	0.000466	4.663061	1.579888	0.000187
 213	2.1094e+01	8.4431	41.998323	0.000497	4.967173	1.682924	0.000199
 214	2.1194e+01	8.4784	42.248625	0.000628	6.284995	2.129414	0.000252
 215	2.1293e+01	8.5233	42.406074	0.000395	3.953464	1.339470	0.000158
 216	2.1392e+01	8.5586	42.575633	0.000426	4.257577	1.442506	0.000170
 217	2.1492e+01	8.5987	42.813825	0.000598	5.980882	2.026378	0.000239
 218	2.1591e+01	8.6484	43.015681	0.000507	5.068544	1.717269	0.000203
 219	2.1691e+01	8.6789	43.229649	0.000537	5.372657	1.820305	0.000215
 220	2.1791e+01	8.7238	43.435543	0.000517	5.169915	1.751615	0.000207
 221	2.1890e+01	8.7623	43.649512	0.000537	5.372657	1.820305	0.000215
 222	2.1989e+01	8.8072	43.823108	0.000436	4.358948	1.476852	0.000174
 223	2.2089e+01	8.8409	44.016891	0.000487	4.865802	1.648578	0.000195
 224	2.2189e+01	8.8826	44.210673	0.000487	4.865802	1.648578	0.000195
 225	2.2288e+01	8.9276	44.440790	0.000578	5.778140	1.957687	0.000231
 226	2.2387e+01	8.9580	44.590164	0.000375	3.750723	1.270779	0.000150
 227	2.2487e+01	8.9997	44.808170	0.000547	5.474028	1.854651	0.000219
 228	2.2587e+01	9.0415	45.014063	0.000517	5.169915	1.751615	0.000207
 229	2.2686e+01	9.0751	45.207846	0.000487	4.865802	1.648578	0.000195
 230	2.2785e+01	9.1136	45.450074	0.000608	6.082253	2.060723	0.000243
 231	2.2885e+01	9.1602	45.599448	0.000375	3.750723	1.270779	0.000150
 232	2.2985e+01	9.2083	45.841676	0.000608	6.082253	2.060723	0.000243
 233	2.3084e+01	9.2372	46.007199	0.000416	4.156206	1.408161	0.000166
 234	2.3183e+01	9.2741	46.233278	0.000568	5.676769	1.923342	0.000227
 235	2.3283e+01	9.3158	46.439172	0.000517	5.169915	1.751615	0.000207
 236	2.3383e+01	9.3527	46.628918	0.000476	4.764431	1.614233	0.000191
 237	2.3482e+01	9.3992	46.834812	0.000517	5.169915	1.751615	0.000207
 238	2.3581e+01	9.4457	47.052817	0.000547	5.474028	1.854651	0.000219
 239	2.3681e+01	9.4730	47.254674	0.000507	5.068544	1.717269	0.000203
 240	2.3780e+01	9.5147	47.432308	0.000446	4.460319	1.511197	0.000179
 241	2.3880e+01	9.5628	47.626090	0.000487	4.865802	1.648578	0.000195
 242	2.3980e+01	9.6061	47.856207	0.000578	5.778140	1.957687	0.000231
 243	2.4079e+01	9.6318	48.025767	0.000426	4.257577	1.442506	0.000170
 244	2.4178e+01	9.6751	48.227624	0.000507	5.068544	1.717269	0.000203
 245	2.4278e+01	9.7184	48.461777	0.000588	5.879511	1.992032	0.000235
 246	2.4378e+01	9.7569	48.635374	0.000436	4.358948	1.476852	0.000174
 247	2.4477e+01	9.7906	48.833194	0.000497	4.967173	1.682924	0.000199
 248	2.4576e+01	9.8356	49.035051	0.000507	5.068544	1.717269	0.000203
 249	2.4676e+01	9.8660	49.236907	0.000507	5.068544	1.717269	0.000203
 250	2.4776e+01	9.9158	49.410504	0.000436	4.358948	1.476852	0.000174
 251	2.4875e+01	9.9575	49.600250	0.000476	4.764431	1.614233	0.000191
 252	2.4974e+01	9.9960	49.810181	0.000527	5.271286	1.785960	0.000211
 253	2.5074e+01	10.0265	49.999926	0.000476	4.764431	1.614233	0.000191
 254	2.5174e+01	10.0794	50.201783	0.000507	5.068544	1.717269	0.000203
 255	2.5273e+01	10.1163	50.439974	0.000598	5.980882	2.026378	0.000239
 256	2.5372e+01	10.1628	50.625682	0.000466	4.663061	1.579888	0.000187
 257	2.5472e+01	10.1981	50.791205	0.000416	4.156206	1.408161	0.000166
 258	2.5572e+01	10.2302	51.009210	0.000547	5.474028	1.854651	0.000219
 259	2.5671e+01	10.2687	51.243364	0.000588	5.879511	1.992032	0.000235
 260	2.5770e+01	10.3232	51.408886	0.000416	4.156206	1.408161	0.000166
 261	2.5870e+01	10.3585	51.614780	0.000517	5.169915	1.751615	0.000207
 262	2.5970e+01	10.3986	51.844897	0.000578	5.778140	1.957687	0.000231
 263	2.6069e+01	10.4307	52.002345	0.000395	3.953464	1.339470	0.000158
 264	2.6169e+01	10.4676	52.216314	0.000537	5.372657	1.820305	0.000215
 265	2.6268e+01	10.5093	52.414133	0.000497	4.967173	1.682924	0.000199
 266	2.6367e+01	10.5510	52.603879	0.000476	4.764431	1.614233	0.000191
 267	2.6467e+01	10.5976	52.809773	0.000517	5.169915	1.751615	0.000207
 268	2.6567e+01	10.6296	53.003555	0.000487	4.865802	1.648578	0.000195
 269	2.6666e+01	10.6762	53.217523	0.000537	5.372657	1.820305	0.000215
 270	2.6765e+01	10.7179	53.407269	0.000476	4.764431	1.614233	0.000191
 271	2.6865e+01	10.7468	53.588940	0.000456	4.561690	1.545542	0.000183
 272	2.6965e+01	10.7997	53.782722	0.000487	4.865802	1.648578	0.000195
 273	2.7064e+01	10.8254	53.968431	0.000466	4.663061	1.579888	0.000187
 274	2.7163e+01	10.8767	54.174324	0.000517	5.169915	1.751615	0.000207
 275	2.7263e+01	10.9088	54.388293	0.000537	5.372657	1.820305	0.000215
 276	2.7363e+01	10.9489	54.574001	0.000466	4.663061	1.579888	0.000187
 277	2.7462e+01	10.9890	54.743561	0.000426	4.257577	1.442506	0.000170
 278	2.7561e+01	11.0355	54.961566	0.000547	5.474028	1.854651	0.000219
 279	2.7661e+01	11.0692	55.171497	0.000527	5.271286	1.785960	0.000211
 280	2.7761e+01	11.1125	55.373354	0.000507	5.068544	1.717269	0.000203
 281	2.7860e+01	11.1510	55.563099	0.000476	4.764431	1.614233	0.000191
 282	2.7959e+01	11.1911	55.732659	0.000426	4.257577	1.442506	0.000170
 283	2.8059e+01	11.2280	55.958738	0.000568	5.676769	1.923342	0.000227
 284	2.8159e+01	11.2713	56.100038	0.000355	3.547981	1.202088	0.000142
 285	2.8258e+01	11.3130	56.338229	0.000598	5.980882	2.026378	0.000239
 286	2.8358e+01	11.3499	56.523937	0.000466	4.663061	1.579888	0.000187
 287	2.8457e+01	11.3820	56.701571	0.000446	4.460319	1.511197	0.000179
 288	2.8556e+01	11.4334	56.899391	0.000497	4.967173	1.682924	0.000199
 289	2.8656e+01	11.4671	57.145656	0.000618	6.183624	2.095068	0.000248
 290	2.8756e+01	11.5152	57.335402	0.000476	4.764431	1.614233	0.000191
 291	2.8855e+01	11.5441	57.500924	0.000416	4.156206	1.408161	0.000166
 292	2.8954e+01	11.5890	57.690670	0.000476	4.764431	1.614233	0.000191
 293	2.9054e+01	11.6243	57.892526	0.000507	5.068544	1.717269	0.000203
 294	2.9154e+01	11.6708	58.102458	0.000527	5.271286	1.785960	0.000211
 295	2.9253e+01	11.7173	58.280092	0.000446	4.460319	1.511197	0.000179
 296	2.9352e+01	11.7446	58.485985	0.000517	5.169915	1.751615	0.000207
 297	2.9452e+01	11.7879	58.683805	0.000497	4.967173	1.682924	0.000199
 298	2.9552e+01	11.8296	58.845291	0.000405	4.054835	1.373815	0.000162
 299	2.9651e+01	11.8681	59.055222	0.000527	5.271286	1.785960	0.000211
 300	2.9750e+01	11.9130	59.240930	0.000466	4.663061	1.579888	0.000187
 301	2.9850e+01	11.9483	59.462972	0.000558	5.575398	1.888996	0.000223
 302	2.9950e+01	11.9932	59.592161	0.000324	3.243868	1.099052	0.000130
 303	3.0049e+01	12.0269	59.814203	0.000558	5.575398	1.888996	0.000223
 304	3.0148e+01	12.0622	60.007986	0.000487	4.865802	1.648578	0.000195
 305	3.0248e+01	12.1055	60.189657	0.000456	4.561690	1.545542	0.000183
 306	3.0348e+01	12.1440	60.383439	0.000487	4.865802	1.648578	0.000195
 307	3.0447e+01	12.1825	60.589333	0.000517	5.169915	1.751615	0.000207
 308	3.0547e+01	12.2323	60.795227	0.000517	5.169915	1.751615	0.000207
 309	3.0646e+01	12.2676	60.944601	0.000375	3.750723	1.270779	0.000150
 310	3.0745e+01	12.2980	61.150495	0.000517	5.169915	1.751615	0.000207
 311	3.0845e+01	12.3526	61.360426	0.000527	5.271286	1.785960	0.000211
 312	3.0945e+01	12.3831	61.521912	0.000405	4.054835	1.373815	0.000162
 313	3.1044e+01	12.4200	61.764140	0.000608	6.082253	2.060723	0.000243
 314	3.1143e+01	12.4633	61.933699	0.000426	4.257577	1.442506	0.000170
 315	3.1243e+01	12.5098	62.115370	0.000456	4.561690	1.545542	0.000183
 316	3.1343e+01	12.5611	62.297042	0.000456	4.561690	1.545542	0.000183
 317	3.1442e+01	12.5916	62.527158	0.000578	5.778140	1.957687	0.000231
 318	3.1541e+01	12.6189	62.656347	0.000324	3.243868	1.099052	0.000130
 319	3.1641e+01	12.6670	62.874352	0.000547	5.474028	1.854651	0.000219
 320	3.1741e+01	12.7055	63.056023	0.000456	4.561690	1.545542	0.000183
 321	3.1840e+01	12.7456	63.237694	0.000456	4.561690	1.545542	0.000183
 322	3.1939e+01	12.7873	63.451662	0.000537	5.372657	1.820305	0.000215
 323	3.2039e+01	12.8226	63.665631	0.000537	5.372657	1.820305	0.000215
 324	3.2139e+01	12.8579	63.851339	0.000466	4.663061	1.579888	0.000187
 325	3.2238e+01	12.9093	64.028973	0.000446	4.460319	1.511197	0.000179
 326	3.2337e+01	12.9430	64.198533	0.000426	4.257577	1.442506	0.000170
 327	3.2437e+01	12.9863	64.388278	0.000476	4.764431	1.614233	0.000191
 328	3.2536e+01	13.0135	64.598209	0.000527	5.271286	1.785960	0.000211
 329	3.2636e+01	13.0536	64.775843	0.000446	4.460319	1.511197	0.000179
 330	3.2736e+01	13.0986	64.957514	0.000456	4.561690	1.545542	0.000183
 331	3.2835e+01	13.1483	65.118999	0.000405	4.054835	1.373815	0.000162
 332	3.2934e+01	13.1772	65.341042	0.000558	5.575398	1.888996	0.000223
 333	3.3034e+01	13.2173	65.514639	0.000436	4.358948	1.476852	0.000174
 334	3.3133e+01	13.2590	65.712458	0.000497	4.967173	1.682924	0.000199
 335	3.3233e+01	13.3023	65.914315	0.000507	5.068544	1.717269	0.000203
 336	3.3333e+01	13.3344	66.095986	0.000456	4.561690	1.545542	0.000183
 337	3.3432e+01	13.3825	66.281695	0.000466	4.663061	1.579888	0.000187
 338	3.3532e+01	13.4098	66.507774	0.000568	5.676769	1.923342	0.000227
 339	3.3631e+01	13.4611	66.697520	0.000476	4.764431	1.614233	0.000191
 340	3.3730e+01	13.4980	66.891302	0.000487	4.865802	1.648578	0.000195
 341	3.3830e+01	13.5365	67.044713	0.000385	3.852093	1.305125	0.000154
 342	3.3929e+01	13.5718	67.262719	0.000547	5.474028	1.854651	0.000219
 343	3.4029e+01	13.6264	67.432278	0.000426	4.257577	1.442506	0.000170
 344	3.4129e+01	13.6665	67.646246	0.000537	5.372657	1.820305	0.000215
 345	3.4228e+01	13.6953	67.811769	0.000416	4.156206	1.408161	0.000166
 346	3.4328e+01	13.7419	68.001514	0.000476	4.764431	1.614233	0.000191
 347	3.4427e+01	13.7723	68.211445	0.000527	5.271286	1.785960	0.000211
 348	3.4526e+01	13.8189	68.360819	0.000375	3.750723	1.270779	0.000150
 349	3.4626e+01	13.8590	68.574788	0.000537	5.372657	1.820305	0.000215
 350	3.4725e+01	13.8943	68.744347	0.000426	4.257577	1.442506	0.000170
 351	3.4825e+01	13.9376	68.946204	0.000507	5.068544	1.717269	0.000203
 352	3.4925e+01	13.9793	69.123838	0.000446	4.460319	1.511197	0.000179
 353	3.5024e+01	14.0194	69.313583	0.000476	4.764431	1.614233	0.000191
 354	3.5123e+01	14.0547	69.531589	0.000547	5.474028	1.854651	0.000219
 355	3.5223e+01	14.0916	69.717297	0.000466	4.663061	1.579888	0.000187
 356	3.5322e+01	14.1349	69.898968	0.000456	4.561690	1.545542	0.000183
 357	3.5422e+01	14.1846	70.088714	0.000476	4.764431	1.614233	0.000191
 358	3.5522e+01	14.2071	70.250199	0.000405	4.054835	1.373815	0.000162
 359	3.5621e+01	14.2568	70.472241	0.000558	5.575398	1.888996	0.000223
 360	3.5721e+01	14.2969	70.674098	0.000507	5.068544	1.717269	0.000203
 361	3.5820e+01	14.3418	70.815398	0.000355	3.547981	1.202088	0.000142
 362	3.5919e+01	14.3852	71.005143	0.000476	4.764431	1.614233	0.000191
 363	3.6019e+01	14.4140	71.211037	0.000517	5.169915	1.751615	0.000207
 364	3.6118e+01	14.4557	71.412894	0.000507	5.068544	1.717269	0.000203
 365	3.6218e+01	14.5087	71.594565	0.000456	4.561690	1.545542	0.000183
 366	3.6318e+01	14.5424	71.792385	0.000497	4.967173	1.682924	0.000199
 367	3.6417e+01	14.5729	71.986167	0.000487	4.865802	1.648578	0.000195
 368	3.6517e+01	14.6162	72.159764	0.000436	4.358948	1.476852	0.000174
 369	3.6616e+01	14.6595	72.357584	0.000497	4.967173	1.682924	0.000199
 370	3.6715e+01	14.6884	72.535218	0.000446	4.460319	1.511197	0.000179
 371	3.6815e+01	14.7349	72.704778	0.000426	4.257577	1.442506	0.000170
 372	3.6914e+01	14.7830	72.930857	0.000568	5.676769	1.923342	0.000227
 373	3.7014e+01	14.8151	73.084268	0.000385	3.852093	1.305125	0.000154
 374	3.7114e+01	14.8488	73.306311	0.000558	5.575398	1.888996	0.000223
 375	3.7213e+01	14.8937	73.492019	0.000466	4.663061	1.579888	0.000187
 376	3.7313e+01	14.9242	73.685801	0.000487	4.865802	1.648578	0.000195
 377	3.7412e+01	14.9707	73.871510	0.000466	4.663061	1.579888	0.000187
 378	3.7511e+01	15.0172	74.053181	0.000456	4.561690	1.545542	0.000183
 379	3.7611e+01	15.0573	74.267149	0.000537	5.372657	1.820305	0.000215
 380	3.7711e+01	15.0958	74.436709	0.000426	4.257577	1.442506	0.000170
 381	3.7810e+01	15.1343	74.606268	0.000426	4.257577	1.442506	0.000170
 382	3.7910e+01	15.1825	74.808125	0.000507	5.068544	1.717269	0.000203
 383	3.8009e+01	15.2113	74.965574	0.000395	3.953464	1.339470	0.000158
 384	3.8108e+01	15.2530	75.207802	0.000608	6.082253	2.060723	0.000243
 385	3.8208e+01	15.2915	75.373324	0.000416	4.156206	1.408161	0.000166
 386	3.8307e+01	15.3317	75.571144	0.000497	4.967173	1.682924	0.000199
 387	3.8407e+01	15.3734	75.760889	0.000476	4.764431	1.614233	0.000191
 388	3.8507e+01	15.4103	75.958709	0.000497	4.967173	1.682924	0.000199
 389	3.8606e+01	15.4472	76.136343	0.000446	4.460319	1.511197	0.000179
 390	3.8706e+01	15.4953	76.358385	0.000558	5.575398	1.888996	0.000223
 391	3.8805e+01	15.5386	76.544094	0.000466	4.663061	1.579888	0.000187
 392	3.8904e+01	15.5771	76.725765	0.000456	4.561690	1.545542	0.000183
 393	3.9004e+01	15.6076	76.919547	0.000487	4.865802	1.648578	0.000195
 394	3.9103e+01	15.6493	77.085070	0.000416	4.156206	1.408161	0.000166
 395	3.9203e+01	15.6958	77.290964	0.000517	5.169915	1.751615	0.000207
 396	3.9303e+01	15.7343	77.472635	0.000456	4.561690	1.545542	0.000183
 397	3.9402e+01	15.7648	77.674492	0.000507	5.068544	1.717269	0.000203
 398	3.9502e+01	15.8113	77.904608	0.000578	5.778140	1.957687	0.000231
 399	3.9601e+01	15.8562	78.058019	0.000385	3.852093	1.305125	0.000154
 400	3.9700e+01	15.8963	78.239691	0.000456	4.561690	1.545542	0.000183
 401	3.9800e+01	15.9220	78.449622	0.000527	5.271286	1.785960	0.000211
 402	3.9900e+01	15.9653	78.619181	0.000426	4.257577	1.442506	0.000170
 403	3.9999e+01	16.0086	78.768555	0.000375	3.750723	1.270779	0.000150
 404	4.0099e+01	16.0407	78.982524	0.000537	5.372657	1.820305	0.000215
 405	4.0198e+01	16.0905	79.176306	0.000487	4.865802	1.648578	0.000195
 406	4.0297e+01	16.1338	79.357977	0.000456	4.561690	1.545542	0.000183
 407	4.0397e+01	16.1691	79.555797	0.000497	4.967173	1.682924	0.000199
 408	4.0496e+01	16.2124	79.753617	0.000497	4.967173	1.682924	0.000199
 409	4.0596e+01	16.2477	79.943362	0.000476	4.764431	1.614233	0.000191
 410	4.0696e+01	16.2942	80.104847	0.000405	4.054835	1.373815	0.000162
 411	4.0795e+01	16.3263	80.310741	0.000517	5.169915	1.751615	0.000207
 412	4.0895e+01	16.3680	80.496449	0.000466	4.663061	1.579888	0.000187
 413	4.0994e+01	16.4113	80.657935	0.000405	4.054835	1.373815	0.000162
 414	4.1093e+01	16.4626	80.875940	0.000547	5.474028	1.854651	0.000219
 415	4.1193e+01	16.4915	81.061648	0.000466	4.663061	1.579888	0.000187
 416	4.1292e+01	16.5252	81.271580	0.000527	5.271286	1.785960	0.000211
 417	4.1392e+01	16.5781	81.420954	0.000375	3.750723	1.270779	0.000150
 418	4.1492e+01	16.6102	81.614736	0.000487	4.865802	1.648578	0.000195
 419	4.1591e+01	16.6439	81.796407	0.000456	4.561690	1.545542	0.000183
 420	4.1691e+01	16.6824	82.010375	0.000537	5.372657	1.820305	0.000215
 421	4.1790e+01	16.7257	82.159749	0.000375	3.750723	1.270779	0.000150
 422	4.1889e+01	16.7626	82.365643	0.000517	5.169915	1.751615	0.000207
 423	4.1989e+01	16.7979	82.559426	0.000487	4.865802	1.648578	0.000195
 424	4.2089e+01	16.8557	82.724948	0.000416	4.156206	1.408161	0.000166
 425	4.2188e+01	16.8862	82.930842	0.000517	5.169915	1.751615	0.000207
 426	4.2288e+01	16.9247	83.092328	0.000405	4.054835	1.373815	0.000162
 427	4.2387e+01	16.9616	83.294185	0.000507	5.068544	1.717269	0.000203
 428	4.2486e+01	17.0017	83.504116	0.000527	5.271286	1.785960	0.000211
 429	4.2586e+01	17.0418	83.665601	0.000405	4.054835	1.373815	0.000162
 430	4.2685e+01	17.0931	83.851309	0.000466	4.663061	1.579888	0.000187
 431	4.2785e+01	17.1236	84.069315	0.000547	5.474028	1.854651	0.000219
 432	4.2885e+01	17.1685	84.206577	0.000345	3.446610	1.167743	0.000138
 433	4.2984e+01	17.2086	84.416508	0.000527	5.271286	1.785960	0.000211
 434	4.3084e+01	17.2423	84.594142	0.000446	4.460319	1.511197	0.000179
 435	4.3183e+01	17.2840	84.828296	0.000588	5.879511	1.992032	0.000235
 436	4.3282e+01	17.3161	84.989782	0.000405	4.054835	1.373815	0.000162
 437	4.3382e+01	17.3674	85.167416	0.000446	4.460319	1.511197	0.000179
 438	4.3481e+01	17.3979	85.345050	0.000446	4.460319	1.511197	0.000179
 439	4.3581e+01	17.4508	85.534795	0.000476	4.764431	1.614233	0.000191
 440	4.3681e+01	17.4877	85.708392	0.000436	4.358948	1.476852	0.000174
 441	4.3780e+01	17.5230	85.946583	0.000598	5.980882	2.026378	0.000239
 442	4.3880e+01	17.5551	86.055585	0.000274	2.737014	0.927325	0.000110
 443	4.3979e+01	17.6097	86.313962	0.000649	6.487736	2.198105	0.000260
 444	4.4078e+01	17.6417	86.471410	0.000395	3.953464	1.339470	0.000158
 445	4.4178e+01	17.6915	86.657119	0.000466	4.663061	1.579888	0.000187
 446	4.4278e+01	17.7220	86.830715	0.000436	4.358948	1.476852	0.000174
 447	4.4377e+01	17.7605	87.036609	0.000517	5.169915	1.751615	0.000207
 448	4.4477e+01	17.7925	87.214243	0.000446	4.460319	1.511197	0.000179
 449	4.4576e+01	17.8455	87.383803	0.000426	4.257577	1.442506	0.000170
 450	4.4675e+01	17.8792	87.549326	0.000416	4.156206	1.408161	0.000166
 451	4.4775e+01	17.9257	87.739071	0.000476	4.764431	1.614233	0.000191
 452	4.4874e+01	17.9658	87.928816	0.000476	4.764431	1.614233	0.000191
 453	4.4974e+01	18.0075	88.118562	0.000476	4.764431	1.614233	0.000191
 454	4.5074e+01	18.0412	88.332530	0.000537	5.372657	1.820305	0.000215
 455	4.5173e+01	18.0749	88.481904	0.000375	3.750723	1.270779	0.000150
 456	4.5273e+01	18.1182	88.675686	0.000487	4.865802	1.648578	0.000195
 457	4.5372e+01	18.1599	88.885618	0.000527	5.271286	1.785960	0.000211
 458	4.5471e+01	18.2016	89.039029	0.000385	3.852093	1.305125	0.000154
 459	4.5571e+01	18.2465	89.244923	0.000517	5.169915	1.751615	0.000207
 460	4.5670e+01	18.2899	89.430631	0.000466	4.663061	1.579888	0.000187
 461	4.5770e+01	18.3155	89.580005	0.000375	3.750723	1.270779	0.000150
 462	4.5870e+01	18.3620	89.781862	0.000507	5.068544	1.717269	0.000203
 463	4.5969e+01	18.3989	89.959496	0.000446	4.460319	1.511197	0.000179
 464	4.6069e+01	18.4455	90.149241	0.000476	4.764431	1.614233	0.000191
 465	4.6168e+01	18.4808	90.347061	0.000497	4.967173	1.682924	0.000199
 466	4.6267e+01	18.5241	90.500472	0.000385	3.852093	1.305125	0.000154
 467	4.6367e+01	18.5610	90.714440	0.000537	5.372657	1.820305	0.000215
 468	4.6467e+01	18.5963	90.875925	0.000405	4.054835	1.373815	0.000162
 469	4.6566e+01	18.6380	91.057597	0.000456	4.561690	1.545542	0.000183
 470	4.6666e+01	18.6765	91.194859	0.000345	3.446610	1.167743	0.000138
 471	4.6765e+01	18.7150	91.356345	0.000405	4.054835	1.373815	0.000162
 472	4.6864e+01	18.7727	91.582424	0.000568	5.676769	1.923342	0.000227
 473	4.6964e+01	18.8000	91.780244	0.000497	4.967173	1.682924	0.000199
 474	4.7063e+01	18.8369	91.917506	0.000345	3.446610	1.167743	0.000138
 475	4.7163e+01	18.8802	92.103215	0.000466	4.663061	1.579888	0.000187
 476	4.7263e+01	18.9283	92.276812	0.000436	4.358948	1.476852	0.000174
 477	4.7362e+01	18.9540	92.482705	0.000517	5.169915	1.751615	0.000207
 478	4.7462e+01	19.0021	92.644191	0.000405	4.054835	1.373815	0.000162
 479	4.7561e+01	19.0390	92.846048	0.000507	5.068544	1.717269	0.000203
 480	4.7660e+01	19.0791	92.991385	0.000365	3.649352	1.236434	0.000146
 481	4.7760e+01	19.1241	93.209390	0.000547	5.474028	1.854651	0.000219
 482	4.7859e+01	19.1497	93.387024	0.000446	4.460319	1.511197	0.000179
 483	4.7959e+01	19.1914	93.544472	0.000395	3.953464	1.339470	0.000158
 484	4.8059e+01	19.2396	93.705958	0.000405	4.054835	1.373815	0.000162
 485	4.8158e+01	19.2797	93.875517	0.000426	4.257577	1.442506	0.000170
 486	4.8258e+01	19.3118	94.045077	0.000426	4.257577	1.442506	0.000170
 487	4.8357e+01	19.3599	94.242897	0.000497	4.967173	1.682924	0.000199
 488	4.8456e+01	19.4048	94.452828	0.000527	5.271286	1.785960	0.000211
 489	4.8556e+01	19.4305	94.582016	0.000324	3.243868	1.099052	0.000130
 490	4.8656e+01	19.4690	94.763687	0.000456	4.561690	1.545542	0.000183
 491	4.8755e+01	19.5011	94.917098	0.000385	3.852093	1.305125	0.000154
 492	4.8855e+01	19.5604	95.135104	0.000547	5.474028	1.854651	0.000219
 493	4.8954e+01	19.5877	95.336960	0.000507	5.068544	1.717269	0.000203
 494	4.9053e+01	19.6406	95.458075	0.000304	3.041126	1.030362	0.000122
 495	4.9153e+01	19.6743	95.668006	0.000527	5.271286	1.785960	0.000211
 496	4.9252e+01	19.7128	95.837565	0.000426	4.257577	1.442506	0.000170
 497	4.9352e+01	19.7561	96.015199	0.000446	4.460319	1.511197	0.000179
 498	4.9452e+01	19.7994	96.225130	0.000527	5.271286	1.785960	0.000211
 499	4.9551e+01	19.8347	96.374504	0.000375	3.750723	1.270779	0.000150
 500	4.9651e+01	19.8732	96.535990	0.000405	4.054835	1.373815	0.000162
 501	4.9750e+01	19.9246	96.758032	0.000558	5.575398	1.888996	0.000223
 502	4.9849e+01	19.9551	96.919518	0.000405	4.054835	1.373815	0.000162
 503	4.9949e+01	19.9936	97.109263	0.000476	4.764431	1.614233	0.000191
 504	5.0048e+01	19.9502	96.992186	0.000294	2.939756	0.996016	-0.000118
 505	5.0148e+01	19.9182	96.867035	0.000314	3.142497	1.064707	-0.000126
 506	5.0248e+01	19.8748	96.753995	0.000284	2.838385	0.961671	-0.000114
 507	5.0347e+01	19.8363	96.657104	0.000243	2.432901	0.824289	-0.000097
 508	5.0447e+01	19.8043	96.540027	0.000294	2.939756	0.996016	-0.000118
 509	5.0546e+01	19.7529	96.382579	0.000395	3.953464	1.339470	-0.000158
 510	5.0645e+01	19.7176	96.221093	0.000405	4.054835	1.373815	-0.000162
 511	5.0745e+01	19.6647	96.091905	0.000324	3.243868	1.099052	-0.000130
 512	5.0844e+01	19.6390	95.982902	0.000274	2.737014	0.927325	-0.000110
 513	5.0944e+01	19.5989	95.845640	0.000345	3.446610	1.167743	-0.000138
 514	5.1044e+01	19.5540	95.696266	0.000375	3.750723	1.270779	-0.000150
 515	5.1143e+01	19.5203	95.567077	0.000324	3.243868	1.099052	-0.000130
 516	5.1242e+01	19.4770	95.413666	0.000385	3.852093	1.305125	-0.000154
 517	5.1342e+01	19.4369	95.296589	0.000294	2.939756	0.996016	-0.000118
 518	5.1441e+01	19.3904	95.179512	0.000294	2.939756	0.996016	-0.000118
 519	5.1541e+01	19.3647	95.030138	0.000375	3.750723	1.270779	-0.000150
 520	5.1641e+01	19.3198	94.913061	0.000294	2.939756	0.996016	-0.000118
 521	5.1740e+01	19.2765	94.711204	0.000507	5.068544	1.717269	-0.000203
 522	5.1840e+01	19.2412	94.582016	0.000324	3.243868	1.099052	-0.000130
 523	5.1939e+01	19.1914	94.444753	0.000345	3.446610	1.167743	-0.000138
 524	5.2038e+01	19.1529	94.315565	0.000324	3.243868	1.099052	-0.000130
 525	5.2138e+01	19.1176	94.174265	0.000355	3.547981	1.202088	-0.000142
 526	5.2237e+01	19.0823	94.037003	0.000345	3.446610	1.167743	-0.000138
 527	5.2337e+01	19.0390	93.887629	0.000375	3.750723	1.270779	-0.000150
 528	5.2437e+01	18.9925	93.722106	0.000416	4.156206	1.408161	-0.000166
 529	5.2536e+01	18.9620	93.564658	0.000395	3.953464	1.339470	-0.000158
 530	5.2636e+01	18.9187	93.423358	0.000355	3.547981	1.202088	-0.000142
 531	5.2735e+01	18.8818	93.269947	0.000385	3.852093	1.305125	-0.000154
 532	5.2834e+01	18.8417	93.112499	0.000395	3.953464	1.339470	-0.000158
 533	5.2934e+01	18.8016	92.959088	0.000385	3.852093	1.305125	-0.000154
 534	5.3033e+01	18.7535	92.837973	0.000304	3.041126	1.030362	-0.000122
 535	5.3133e+01	18.7198	92.668414	0.000426	4.257577	1.442506	-0.000170
 536	5.3233e+01	18.6829	92.555374	0.000284	2.838385	0.961671	-0.000114
 537	5.3332e+01	18.6412	92.414074	0.000355	3.547981	1.202088	-0.000142
 538	5.3431e+01	18.5915	92.240477	0.000436	4.358948	1.476852	-0.000174
 539	5.3531e+01	18.5706	92.119363	0.000304	3.041126	1.030362	-0.000122
 540	5.3630e+01	18.5273	91.945766	0.000436	4.358948	1.476852	-0.000174
 541	5.3730e+01	18.4840	91.812541	0.000335	3.345239	1.133398	-0.000134
 542	5.3830e+01	18.4391	91.651056	0.000405	4.054835	1.373815	-0.000162
 543	5.3929e+01	18.4086	91.469384	0.000456	4.561690	1.545542	-0.000183
 544	5.4029e+01	18.3653	91.356345	0.000284	2.838385	0.961671	-0.000114
 545	5.4128e+01	18.3268	91.251379	0.000264	2.635643	0.892980	-0.000105
 546	5.4227e+01	18.2802	91.049522	0.000507	5.068544	1.717269	-0.000203
 547	5.4327e+01	18.2369	90.900148	0.000375	3.750723	1.270779	-0.000150
 548	5.4426e+01	18.1936	90.766923	0.000335	3.345239	1.133398	-0.000134
 549	5.4526e+01	18.1615	90.621586	0.000365	3.649352	1.236434	-0.000146
 550	5.4626e+01	18.1166	90.452026	0.000426	4.257577	1.442506	-0.000170
 551	5.4725e+01	18.0765	90.310726	0.000355	3.547981	1.202088	-0.000142
 552	5.4825e+01	18.0412	90.169427	0.000355	3.547981	1.202088	-0.000142
 553	5.4924e+01	17.9931	90.011978	0.000395	3.953464	1.339470	-0.000158
 554	5.5023e+01	17.9626	89.846456	0.000416	4.156206	1.408161	-0.000166
 555	5.5123e+01	17.9257	89.676896	0.000426	4.257577	1.442506	-0.000170
 556	5.5222e+01	17.8792	89.531559	0.000365	3.649352	1.236434	-0.000146
 557	5.5322e+01	17.8375	89.406408	0.000314	3.142497	1.064707	-0.000126
 558	5.5422e+01	17.8086	89.236848	0.000426	4.257577	1.442506	-0.000170
 559	5.5521e+01	17.7605	89.119771	0.000294	2.939756	0.996016	-0.000118
 560	5.5620e+01	17.7300	88.930026	0.000476	4.764431	1.614233	-0.000191
 561	5.5720e+01	17.6835	88.796801	0.000335	3.345239	1.133398	-0.000134
 562	5.5819e+01	17.6466	88.655501	0.000355	3.547981	1.202088	-0.000142
 563	5.5919e+01	17.6000	88.465755	0.000476	4.764431	1.614233	-0.000191
 564	5.6019e+01	17.5696	88.308307	0.000395	3.953464	1.339470	-0.000158
 565	5.6118e+01	17.5278	88.175082	0.000335	3.345239	1.133398	-0.000134
 566	5.6218e+01	17.4926	88.025708	0.000375	3.750723	1.270779	-0.000150
 567	5.6317e+01	17.4508	87.876334	0.000375	3.750723	1.270779	-0.000150
 568	5.6416e+01	17.4091	87.714848	0.000405	4.054835	1.373815	-0.000162
 569	5.6516e+01	17.3722	87.573548	0.000355	3.547981	1.202088	-0.000142
 570	5.6615e+01	17.3225	87.399952	0.000436	4.358948	1.476852	-0.000174
 571	5.6715e+01	17.2824	87.274800	0.000314	3.142497	1.064707	-0.000126
 572	5.6815e+01	17.2471	87.137538	0.000345	3.446610	1.167743	-0.000138
 573	5.6914e+01	17.2070	86.959904	0.000446	4.460319	1.511197	-0.000179
 574	5.7014e+01	17.1669	86.826678	0.000335	3.345239	1.133398	-0.000134
 575	5.7113e+01	17.1348	86.649044	0.000446	4.460319	1.511197	-0.000179
 576	5.7212e+01	17.0963	86.475448	0.000436	4.358948	1.476852	-0.000174
 577	5.7312e+01	17.0386	86.334148	0.000355	3.547981	1.202088	-0.000142
 578	5.7411e+01	17.0145	86.128254	0.000517	5.169915	1.751615	-0.000207
 579	5.7511e+01	16.9583	85.995028	0.000335	3.345239	1.133398	-0.000134
 580	5.7611e+01	16.9279	85.849691	0.000365	3.649352	1.236434	-0.000146
 581	5.7710e+01	16.8894	85.692243	0.000395	3.953464	1.339470	-0.000158
 582	5.7809e+01	16.8460	85.510572	0.000456	4.561690	1.545542	-0.000183
 583	5.7909e+01	16.8059	85.381384	0.000324	3.243868	1.099052	-0.000130
 584	5.8008e+01	16.7642	85.227973	0.000385	3.852093	1.305125	-0.000154
 585	5.8108e+01	16.7257	85.062450	0.000416	4.156206	1.408161	-0.000166
 586	5.8208e+01	16.6936	84.921150	0.000355	3.547981	1.202088	-0.000142
 587	5.8307e+01	16.6503	84.727368	0.000487	4.865802	1.648578	-0.000195
 588	5.8407e+01	16.6054	84.573957	0.000385	3.852093	1.305125	-0.000154
 589	5.8506e+01	16.5701	84.440731	0.000335	3.345239	1.133398	-0.000134
 590	5.8605e+01	16.5364	84.287320	0.000385	3.852093	1.305125	-0.000154
 591	5.8705e+01	16.4835	84.105649	0.000456	4.561690	1.545542	-0.000183
 592	5.8804e+01	16.4514	83.948201	0.000395	3.953464	1.339470	-0.000158
 593	5.8904e+01	16.4065	83.762492	0.000466	4.663061	1.579888	-0.000187
 594	5.9004e+01	16.3712	83.588895	0.000436	4.358948	1.476852	-0.000174
 595	5.9103e+01	16.3183	83.435484	0.000385	3.852093	1.305125	-0.000154
 596	5.9203e+01	16.2926	83.253813	0.000456	4.561690	1.545542	-0.000183
 597	5.9302e+01	16.2445	83.124625	0.000324	3.243868	1.099052	-0.000130
 598	5.9401e+01	16.2108	82.971214	0.000385	3.852093	1.305125	-0.000154
 599	5.9501e+01	16.1707	82.813765	0.000395	3.953464	1.339470	-0.000158
 600	5.9600e+01	16.1274	82.684577	0.000324	3.243868	1.099052	-0.000130
 601	5.9700e+01	16.0937	82.490795	0.000487	4.865802	1.648578	-0.000195
 602	5.9800e+01	16.0487	82.345458	0.000365	3.649352	1.236434	-0.000146
 603	5.9899e+01	16.0167	82.135527	0.000527	5.271286	1.785960	-0.000211
 604	5.9998e+01	15.9653	82.038635	0.000243	2.432901	0.824289	-0.000097
 605	6.0098e+01	15.9364	81.861001	0.000446	4.460319	1.511197	-0.000179
 606	6.0197e+01	15.8915	81.687405	0.000436	4.358948	1.476852	-0.000174
 607	6.0297e+01	15.8450	81.493622	0.000487	4.865802	1.648578	-0.000195
 608	6.0397e+01	15.8081	81.344248	0.000375	3.750723	1.270779	-0.000150
 609	6.0496e+01	15.7776	81.198911	0.000365	3.649352	1.236434	-0.000146
 610	6.0596e+01	15.7279	81.025314	0.000436	4.358948	1.476852	-0.000174
 611	6.0695e+01	15.6958	80.867866	0.000395	3.953464	1.339470	-0.000158
 612	6.0794e+01	15.6557	80.722529	0.000365	3.649352	1.236434	-0.000146
 613	6.0894e+01	15.6156	80.532784	0.000476	4.764431	1.614233	-0.000191
 614	6.0993e+01	15.5675	80.395521	0.000345	3.446610	1.167743	-0.000138
 615	6.1093e+01	15.5370	80.225961	0.000426	4.257577	1.442506	-0.000170
 616	6.1193e+01	15.5001	80.080624	0.000365	3.649352	1.236434	-0.000146
 617	6.1292e+01	15.4520	79.878768	0.000507	5.068544	1.717269	-0.000203
 618	6.1392e+01	15.4135	79.721319	0.000395	3.953464	1.339470	-0.000158
 619	6.1491e+01	15.3718	79.575983	0.000365	3.649352	1.236434	-0.000146
 620	6.1590e+01	15.3333	79.422571	0.000385	3.852093	1.305125	-0.000154
 621	6.1690e+01	15.2883	79.244937	0.000446	4.460319	1.511197	-0.000179
 622	6.1789e+01	15.2498	79.026932	0.000547	5.474028	1.854651	-0.000219
 623	6.1889e+01	15.2145	78.913892	0.000284	2.838385	0.961671	-0.000114
 624	6.1989e+01	15.1696	78.732221	0.000456	4.561690	1.545542	-0.000183
 625	6.2088e+01	15.1375	78.546513	0.000466	4.663061	1.579888	-0.000187
 626	6.2188e+01	15.0910	78.376953	0.000426	4.257577	1.442506	-0.000170
 627	6.2287e+01	15.0541	78.235653	0.000355	3.547981	1.202088	-0.000142
 628	6.2386e+01	15.0172	78.062057	0.000436	4.358948	1.476852	-0.000174
 629	6.2486e+01	14.9691	77.876348	0.000466	4.663061	1.579888	-0.000187
 630	6.2586e+01	14.9402	77.702752	0.000436	4.358948	1.476852	-0.000174
 631	6.2685e+01	14.8921	77.573563	0.000324	3.243868	1.099052	-0.000130
 632	6.2785e+01	14.8488	77.420152	0.000385	3.852093	1.305125	-0.000154
 633	6.2884e+01	14.8119	77.250592	0.000426	4.257577	1.442506	-0.000170
 634	6.2983e+01	14.7622	77.052773	0.000497	4.967173	1.682924	-0.000199
 635	6.3083e+01	14.7301	76.850916	0.000507	5.068544	1.717269	-0.000203
 636	6.3182e+01	14.7028	76.729802	0.000304	3.041126	1.030362	-0.000122
 637	6.3282e+01	14.6579	76.576391	0.000385	3.852093	1.305125	-0.000154
 638	6.3382e+01	14.6178	76.366460	0.000527	5.271286	1.785960	-0.000211
 639	6.3481e+01	14.5777	76.233234	0.000335	3.345239	1.133398	-0.000134
 640	6.3581e+01	14.5360	76.051563	0.000456	4.561690	1.545542	-0.000183
 641	6.3680e+01	14.4958	75.882003	0.000426	4.257577	1.442506	-0.000170
 642	6.3779e+01	14.4541	75.672072	0.000527	5.271286	1.785960	-0.000211
 643	6.3879e+01	14.4076	75.546921	0.000314	3.142497	1.064707	-0.000126
 644	6.3978e+01	14.3771	75.341027	0.000517	5.169915	1.751615	-0.000207
 645	6.4078e+01	14.3483	75.199727	0.000355	3.547981	1.202088	-0.000142
 646	6.4177e+01	14.3001	74.993833	0.000517	5.169915	1.751615	-0.000207
 647	6.4277e+01	14.2504	74.824274	0.000426	4.257577	1.442506	-0.000170
 648	6.4376e+01	14.2151	74.666825	0.000395	3.953464	1.339470	-0.000158
 649	6.4476e+01	14.1782	74.497266	0.000426	4.257577	1.442506	-0.000170
 650	6.4576e+01	14.1381	74.319632	0.000446	4.460319	1.511197	-0.000179
 651	6.4675e+01	14.0996	74.141998	0.000446	4.460319	1.511197	-0.000179
 652	6.4775e+01	14.0547	73.936104	0.000517	5.169915	1.751615	-0.000207
 653	6.4874e+01	14.0194	73.831138	0.000264	2.635643	0.892980	-0.000105
 654	6.4974e+01	13.9761	73.673690	0.000395	3.953464	1.339470	-0.000158
 655	6.5073e+01	13.9376	73.479908	0.000487	4.865802	1.648578	-0.000195
 656	6.5172e+01	13.8991	73.318422	0.000405	4.054835	1.373815	-0.000162
 657	6.5272e+01	13.8622	73.124640	0.000487	4.865802	1.648578	-0.000195
 658	6.5371e+01	13.8205	72.959117	0.000416	4.156206	1.408161	-0.000166
 659	6.5471e+01	13.7755	72.785520	0.000436	4.358948	1.476852	-0.000174
 660	6.5570e+01	13.7290	72.575589	0.000527	5.271286	1.785960	-0.000211
 661	6.5670e+01	13.7018	72.397955	0.000446	4.460319	1.511197	-0.000179
 662	6.5769e+01	13.6568	72.248581	0.000375	3.750723	1.270779	-0.000150
 663	6.5869e+01	13.6215	72.079021	0.000426	4.257577	1.442506	-0.000170
 664	6.5969e+01	13.5782	71.856979	0.000558	5.575398	1.888996	-0.000223
 665	6.6068e+01	13.5365	71.727791	0.000324	3.243868	1.099052	-0.000130
 666	6.6168e+01	13.5028	71.554194	0.000436	4.358948	1.476852	-0.000174
 667	6.6267e+01	13.4643	71.376560	0.000446	4.460319	1.511197	-0.000179
 668	6.6367e+01	13.4178	71.211037	0.000416	4.156206	1.408161	-0.000166
 669	6.6466e+01	13.3793	71.025329	0.000466	4.663061	1.579888	-0.000187
 670	6.6566e+01	13.3440	70.839621	0.000466	4.663061	1.579888	-0.000187
 671	6.6665e+01	13.3007	70.710432	0.000324	3.243868	1.099052	-0.000130
 672	6.6764e+01	13.2670	70.565096	0.000365	3.649352	1.236434	-0.000146
 673	6.6864e+01	13.2221	70.347090	0.000547	5.474028	1.854651	-0.000219
 674	6.6963e+01	13.1724	70.169456	0.000446	4.460319	1.511197	-0.000179
 675	6.7063e+01	13.1322	69.987785	0.000456	4.561690	1.545542	-0.000183
 676	6.7162e+01	13.0986	69.834374	0.000385	3.852093	1.305125	-0.000154
 677	6.7262e+01	13.0665	69.672889	0.000405	4.054835	1.373815	-0.000162
 678	6.7362e+01	13.0200	69.475069	0.000497	4.967173	1.682924	-0.000199
 679	6.7461e+01	12.9750	69.309546	0.000416	4.156206	1.408161	-0.000166
 680	6.7561e+01	12.9413	69.111727	0.000497	4.967173	1.682924	-0.000199
 681	6.7660e+01	12.9028	68.982538	0.000324	3.243868	1.099052	-0.000130
 682	6.7760e+01	12.8659	68.780682	0.000507	5.068544	1.717269	-0.000203
 683	6.7859e+01	12.8178	68.599010	0.000456	4.561690	1.545542	-0.000183
 684	6.7959e+01	12.7873	68.441562	0.000395	3.953464	1.339470	-0.000158
 685	6.8058e+01	12.7520	68.247780	0.000487	4.865802	1.648578	-0.000195
 686	6.8157e+01	12.7055	68.090331	0.000395	3.953464	1.339470	-0.000158
 687	6.8257e+01	12.6670	67.904623	0.000466	4.663061	1.579888	-0.000187
 688	6.8356e+01	12.6269	67.726989	0.000446	4.460319	1.511197	-0.000179
 689	6.8456e+01	12.5852	67.549355	0.000446	4.460319	1.511197	-0.000179
 690	6.8555e+01	12.5467	67.363647	0.000466	4.663061	1.579888	-0.000187
 691	6.8655e+01	12.5050	67.218310	0.000365	3.649352	1.236434	-0.000146
 692	6.8754e+01	12.4681	67.044713	0.000436	4.358948	1.476852	-0.000174
 693	6.8854e+01	12.4328	66.854968	0.000476	4.764431	1.614233	-0.000191
 694	6.8954e+01	12.3799	66.681371	0.000436	4.358948	1.476852	-0.000174
 695	6.9053e+01	12.3446	66.475477	0.000517	5.169915	1.751615	-0.000207
 696	6.9153e+01	12.3061	66.309954	0.000416	4.156206	1.408161	-0.000166
 697	6.9252e+01	12.2708	66.100023	0.000527	5.271286	1.785960	-0.000211
 698	6.9352e+01	12.2291	65.954687	0.000365	3.649352	1.236434	-0.000146
 699	6.9451e+01	12.1890	65.768978	0.000466	4.663061	1.579888	-0.000187
 700	6.9550e+01	12.1489	65.575196	0.000487	4.865802	1.648578	-0.000195
 701	6.9650e+01	12.1039	65.458119	0.000294	2.939756	0.996016	-0.000118
 702	6.9749e+01	12.0606	65.207816	0.000628	6.284995	2.129414	-0.000252
 703	6.9849e+01	12.0253	65.078628	0.000324	3.243868	1.099052	-0.000130
 704	6.9948e+01	11.9868	64.892920	0.000466	4.663061	1.579888	-0.000187
 705	7.0048e+01	11.9419	64.727397	0.000416	4.156206	1.408161	-0.000166
 706	7.0147e+01	11.8954	64.529578	0.000497	4.967173	1.682924	-0.000199
 707	7.0247e+01	11.8617	64.347907	0.000456	4.561690	1.545542	-0.000183
 708	7.0347e+01	11.8296	64.178347	0.000426	4.257577	1.442506	-0.000170
 709	7.0446e+01	11.7911	64.020899	0.000395	3.953464	1.339470	-0.000158
 710	7.0546e+01	11.7430	63.835190	0.000466	4.663061	1.579888	-0.000187
 711	7.0645e+01	11.7013	63.649482	0.000466	4.663061	1.579888	-0.000187
 712	7.0745e+01	11.6692	63.479922	0.000426	4.257577	1.442506	-0.000170
 713	7.0844e+01	11.6243	63.298251	0.000456	4.561690	1.545542	-0.000183
 714	7.0944e+01	11.6050	63.124654	0.000436	4.358948	1.476852	-0.000174
 715	7.1043e+01	11.5537	62.963169	0.000405	4.054835	1.373815	-0.000162
 716	7.1142e+01	11.5056	62.729015	0.000588	5.879511	1.992032	-0.000235
 717	7.1242e+01	11.4687	62.607901	0.000304	3.041126	1.030362	-0.000122
 718	7.1341e+01	11.4334	62.426230	0.000456	4.561690	1.545542	-0.000183
 719	7.1441e+01	11.3868	62.256670	0.000426	4.257577	1.442506	-0.000170
 720	7.1540e+01	11.3499	62.034628	0.000558	5.575398	1.888996	-0.000223
 721	7.1640e+01	11.3163	61.844882	0.000476	4.764431	1.614233	-0.000191
 722	7.1740e+01	11.2713	61.703583	0.000355	3.547981	1.202088	-0.000142
 723	7.1839e+01	11.2296	61.525949	0.000446	4.460319	1.511197	-0.000179
 724	7.1939e+01	11.1895	61.348315	0.000446	4.460319	1.511197	-0.000179
 725	7.2038e+01	11.1558	61.170681	0.000446	4.460319	1.511197	-0.000179
 726	7.2138e+01	11.1109	60.993047	0.000446	4.460319	1.511197	-0.000179
 727	7.2237e+01	11.0660	60.799264	0.000487	4.865802	1.648578	-0.000195
 728	7.2337e+01	11.0275	60.649890	0.000375	3.750723	1.270779	-0.000150
 729	7.2436e+01	10.9938	60.464182	0.000466	4.663061	1.579888	-0.000187
 730	7.2535e+01	10.9521	60.266362	0.000497	4.967173	1.682924	-0.000199
 731	7.2635e+01	10.9088	60.096803	0.000426	4.257577	1.442506	-0.000170
 732	7.2734e+01	10.8687	59.931280	0.000416	4.156206	1.408161	-0.000166
 733	7.2834e+01	10.8334	59.753646	0.000446	4.460319	1.511197	-0.000179
 734	7.2933e+01	10.7933	59.576012	0.000446	4.460319	1.511197	-0.000179
 735	7.3033e+01	10.7548	59.378192	0.000497	4.967173	1.682924	-0.000199
 736	7.3132e+01	10.7131	59.184410	0.000487	4.865802	1.648578	-0.000195
 737	7.3232e+01	10.6617	59.022924	0.000405	4.054835	1.373815	-0.000162
 738	7.3332e+01	10.6361	58.853365	0.000426	4.257577	1.442506	-0.000170
 739	7.3431e+01	10.5944	58.671694	0.000456	4.561690	1.545542	-0.000183
 740	7.3531e+01	10.5494	58.514245	0.000395	3.953464	1.339470	-0.000158
 741	7.3630e+01	10.5222	58.324500	0.000476	4.764431	1.614233	-0.000191
 742	7.3730e+01	10.4821	58.134755	0.000476	4.764431	1.614233	-0.000191
 743	7.3829e+01	10.4275	57.961158	0.000436	4.358948	1.476852	-0.000174
 744	7.3928e+01	10.3938	57.755264	0.000517	5.169915	1.751615	-0.000207
 745	7.4028e+01	10.3601	57.597816	0.000395	3.953464	1.339470	-0.000158
 746	7.4127e+01	10.3152	57.444404	0.000385	3.852093	1.305125	-0.000154
 747	7.4227e+01	10.2799	57.250622	0.000487	4.865802	1.648578	-0.000195
 748	7.4326e+01	10.2302	57.008394	0.000608	6.082253	2.060723	-0.000243
 749	7.4426e+01	10.1917	56.850945	0.000395	3.953464	1.339470	-0.000158
 750	7.4525e+01	10.1580	56.673311	0.000446	4.460319	1.511197	-0.000179
 751	7.4625e+01	10.1163	56.471455	0.000507	5.068544	1.717269	-0.000203
 752	7.4725e+01	10.0794	56.305932	0.000416	4.156206	1.408161	-0.000166
 753	7.4824e+01	10.0425	56.132335	0.000436	4.358948	1.476852	-0.000174
 754	7.4924e+01	9.9960	55.926441	0.000517	5.169915	1.751615	-0.000207
 755	7.5023e+01	9.9478	55.777067	0.000375	3.750723	1.270779	-0.000150
 756	7.5123e+01	9.9093	55.587322	0.000476	4.764431	1.614233	-0.000191
 757	7.5222e+01	9.8757	55.417762	0.000426	4.257577	1.442506	-0.000170
 758	7.5322e+01	9.8404	55.232054	0.000466	4.663061	1.579888	-0.000187
 759	7.5421e+01	9.7987	55.014049	0.000547	5.474028	1.854651	-0.000219
 760	7.5520e+01	9.7505	54.828340	0.000466	4.663061	1.579888	-0.000187
 761	7.5620e+01	9.7152	54.670892	0.000395	3.953464	1.339470	-0.000158
 762	7.5719e+01	9.6703	54.464998	0.000517	5.169915	1.751615	-0.000207
 763	7.5819e+01	9.6350	54.307550	0.000395	3.953464	1.339470	-0.000158
 764	7.5918e+01	9.5965	54.121842	0.000466	4.663061	1.579888	-0.000187
 765	7.6018e+01	9.5580	53.936133	0.000466	4.663061	1.579888	-0.000187
 766	7.6118e+01	9.5115	53.750425	0.000466	4.663061	1.579888	-0.000187
 767	7.6217e+01	9.4810	53.564717	0.000466	4.663061	1.579888	-0.000187
 768	7.6317e+01	9.4473	53.407269	0.000395	3.953464	1.339470	-0.000158
 769	7.6416e+01	9.3944	53.221560	0.000466	4.663061	1.579888	-0.000187
 770	7.6516e+01	9.3559	53.007592	0.000537	5.372657	1.820305	-0.000215
 771	7.6615e+01	9.3238	52.866292	0.000355	3.547981	1.202088	-0.000142
 772	7.6715e+01	9.2789	52.595804	0.000679	6.791849	2.301141	-0.000272
 773	7.6814e+01	9.2324	52.438356	0.000395	3.953464	1.339470	-0.000158
 774	7.6913e+01	9.2019	52.276871	0.000405	4.054835	1.373815	-0.000162
 775	7.7013e+01	9.1570	52.083088	0.000487	4.865802	1.648578	-0.000195
 776	7.7112e+01	9.1136	51.913528	0.000426	4.257577	1.442506	-0.000170
 777	7.7212e+01	9.0816	51.739932	0.000436	4.358948	1.476852	-0.000174
 778	7.7311e+01	9.0447	51.538075	0.000507	5.068544	1.717269	-0.000203
 779	7.7411e+01	9.0046	51.360441	0.000446	4.460319	1.511197	-0.000179
 780	7.7510e+01	8.9532	51.182807	0.000446	4.460319	1.511197	-0.000179
 781	7.7610e+01	8.9195	51.009210	0.000436	4.358948	1.476852	-0.000174
 782	7.7710e+01	8.8778	50.839650	0.000426	4.257577	1.442506	-0.000170
 783	7.7809e+01	8.8329	50.617608	0.000558	5.575398	1.888996	-0.000223
 784	7.7909e+01	8.8008	50.379417	0.000598	5.980882	2.026378	-0.000239
 785	7.8008e+01	8.7639	50.242154	0.000345	3.446610	1.167743	-0.000138
 786	7.8108e+01	8.7318	50.036260	0.000517	5.169915	1.751615	-0.000207
 787	7.8207e+01	8.6789	49.862664	0.000436	4.358948	1.476852	-0.000174
 788	7.8306e+01	8.6372	49.689067	0.000436	4.358948	1.476852	-0.000174
 789	7.8406e+01	8.5971	49.487210	0.000507	5.068544	1.717269	-0.000203
 790	7.8505e+01	8.5570	49.309576	0.000446	4.460319	1.511197	-0.000179
 791	7.8605e+01	8.5217	49.131942	0.000446	4.460319	1.511197	-0.000179
 792	7.8704e+01	8.4784	48.938159	0.000487	4.865802	1.648578	-0.000195
 793	7.8804e+01	8.4399	48.748414	0.000476	4.764431	1.614233	-0.000191
 794	7.8903e+01	8.3982	48.518297	0.000578	5.778140	1.957687	-0.000231
 795	7.9003e+01	8.3516	48.376998	0.000355	3.547981	1.202088	-0.000142
 796	7.9103e+01	8.3212	48.158992	0.000547	5.474028	1.854651	-0.000219
 797	7.9202e+01	8.2875	47.989433	0.000426	4.257577	1.442506	-0.000170
 798	7.9302e+01	8.2458	47.799687	0.000476	4.764431	1.614233	-0.000191
 799	7.9401e+01	8.1944	47.626090	0.000436	4.358948	1.476852	-0.000174
 800	7.9501e+01	8.1607	47.440382	0.000466	4.663061	1.579888	-0.000187
 801	7.9600e+01	8.1158	47.214302	0.000568	5.676769	1.923342	-0.000227
 802	7.9700e+01	8.0757	47.036668	0.000446	4.460319	1.511197	-0.000179
 803	7.9799e+01	8.0372	46.871146	0.000416	4.156206	1.408161	-0.000166
 804	7.9898e+01	8.0019	46.645066	0.000568	5.676769	1.923342	-0.000227
 805	7.9998e+01	7.9618	46.459358	0.000466	4.663061	1.579888	-0.000187
 806	8.0097e+01	7.9281	46.257501	0.000507	5.068544	1.717269	-0.000203
 807	8.0197e+01	7.8800	46.067756	0.000476	4.764431	1.614233	-0.000191
 808	8.0296e+01	7.8463	45.894159	0.000436	4.358948	1.476852	-0.000174
 809	8.0396e+01	7.8014	45.708451	0.000466	4.663061	1.579888	-0.000187
 810	8.0496e+01	7.7629	45.555040	0.000385	3.852093	1.305125	-0.000154
 811	8.0595e+01	7.7244	45.324923	0.000578	5.778140	1.957687	-0.000231
 812	8.0695e+01	7.6859	45.098843	0.000568	5.676769	1.923342	-0.000227
 813	8.0794e+01	7.6410	44.941395	0.000395	3.953464	1.339470	-0.000158
 814	8.0894e+01	7.6089	44.743575	0.000497	4.967173	1.682924	-0.000199
 815	8.0993e+01	7.5688	44.537681	0.000517	5.169915	1.751615	-0.000207
 816	8.1093e+01	7.5271	44.319676	0.000547	5.474028	1.854651	-0.000219
 817	8.1192e+01	7.4821	44.129931	0.000476	4.764431	1.614233	-0.000191
 818	8.1291e+01	7.4533	43.984594	0.000365	3.649352	1.236434	-0.000146
 819	8.1391e+01	7.4035	43.794848	0.000476	4.764431	1.614233	-0.000191
 820	8.1490e+01	7.3650	43.588955	0.000517	5.169915	1.751615	-0.000207
 821	8.1590e+01	7.3233	43.374986	0.000537	5.372657	1.820305	-0.000215
 822	8.1689e+01	7.2864	43.205427	0.000426	4.257577	1.442506	-0.000170
 823	8.1789e+01	7.2511	42.999533	0.000517	5.169915	1.751615	-0.000207
 824	8.1888e+01	7.2126	42.801713	0.000497	4.967173	1.682924	-0.000199
 825	8.1988e+01	7.1581	42.607931	0.000487	4.865802	1.648578	-0.000195
 826	8.2088e+01	7.1324	42.430297	0.000446	4.460319	1.511197	-0.000179
 827	8.2187e+01	7.0827	42.232477	0.000497	4.967173	1.682924	-0.000199
 828	8.2287e+01	7.0410	42.058880	0.000436	4.358948	1.476852	-0.000174
 829	8.2386e+01	7.0089	41.861060	0.000497	4.967173	1.682924	-0.000199
 830	8.2486e+01	6.9608	41.639018	0.000558	5.575398	1.888996	-0.000223
 831	8.2585e+01	6.9271	41.461384	0.000446	4.460319	1.511197	-0.000179
 832	8.2684e+01	6.8886	41.219156	0.000608	6.082253	2.060723	-0.000243
 833	8.2784e+01	6.8517	41.033448	0.000466	4.663061	1.579888	-0.000187
 834	8.2883e+01	6.8068	40.863888	0.000426	4.257577	1.442506	-0.000170
 835	8.2983e+01	6.7731	40.657994	0.000517	5.169915	1.751615	-0.000207
 836	8.3082e+01	6.7298	40.484397	0.000436	4.358948	1.476852	-0.000174
 837	8.3182e+01	6.6864	40.298689	0.000466	4.663061	1.579888	-0.000187
 838	8.3281e+01	6.6495	40.084721	0.000537	5.372657	1.820305	-0.000215
 839	8.3381e+01	6.6126	39.899012	0.000466	4.663061	1.579888	-0.000187
 840	8.3481e+01	6.5774	39.729453	0.000426	4.257577	1.442506	-0.000170
 841	8.3580e+01	6.5308	39.507410	0.000558	5.575398	1.888996	-0.000223
 842	8.3680e+01	6.4955	39.337851	0.000426	4.257577	1.442506	-0.000170
 843	8.3779e+01	6.4538	39.172328	0.000416	4.156206	1.408161	-0.000166
 844	8.3879e+01	6.4105	38.970471	0.000507	5.068544	1.717269	-0.000203
 845	8.3978e+01	6.3752	38.756503	0.000537	5.372657	1.820305	-0.000215
 846	8.4078e+01	6.3335	38.542535	0.000537	5.372657	1.820305	-0.000215
 847	8.4177e+01	6.2902	38.364901	0.000446	4.460319	1.511197	-0.000179
 848	8.4276e+01	6.2453	38.163044	0.000507	5.068544	1.717269	-0.000203
 849	8.4376e+01	6.2052	38.005596	0.000395	3.953464	1.339470	-0.000158
 850	8.4475e+01	6.1795	37.755293	0.000628	6.284995	2.129414	-0.000252
 851	8.4575e+01	6.1346	37.589771	0.000416	4.156206	1.408161	-0.000166
 852	8.4674e+01	6.0881	37.379840	0.000527	5.271286	1.785960	-0.000211
 853	8.4774e+01	6.0544	37.190094	0.000476	4.764431	1.614233	-0.000191
 854	8.4874e+01	6.0111	37.004386	0.000466	4.663061	1.579888	-0.000187
 855	8.4973e+01	5.9742	36.826752	0.000446	4.460319	1.511197	-0.000179
 856	8.5073e+01	5.9389	36.608747	0.000547	5.474028	1.854651	-0.000219
 857	8.5172e+01	5.8972	36.410927	0.000497	4.967173	1.682924	-0.000199
 858	8.5272e+01	5.8554	36.205033	0.000517	5.169915	1.751615	-0.000207
 859	8.5371e+01	5.8057	36.035474	0.000426	4.257577	1.442506	-0.000170
 860	8.5471e+01	5.7704	35.829580	0.000517	5.169915	1.751615	-0.000207
 861	8.5570e+01	5.7367	35.660020	0.000426	4.257577	1.442506	-0.000170
 862	8.5669e+01	5.6790	35.417792	0.000608	6.082253	2.060723	-0.000243
 863	8.5769e+01	5.6581	35.207861	0.000527	5.271286	1.785960	-0.000211
 864	8.5868e+01	5.6148	35.050412	0.000395	3.953464	1.339470	-0.000158
 865	8.5968e+01	5.5699	34.836444	0.000537	5.372657	1.820305	-0.000215
 866	8.6067e+01	5.5442	34.650736	0.000466	4.663061	1.579888	-0.000187
 867	8.6167e+01	5.4977	34.460991	0.000476	4.764431	1.614233	-0.000191
 868	8.6266e+01	5.4448	34.218763	0.000608	6.082253	2.060723	-0.000243
 869	8.6366e+01	5.4095	34.093611	0.000314	3.142497	1.064707	-0.000126
 870	8.6466e+01	5.3790	33.847346	0.000618	6.183624	2.095068	-0.000248
 871	8.6565e+01	5.3389	33.649526	0.000497	4.967173	1.682924	-0.000199
 872	8.6665e+01	5.2892	33.467855	0.000456	4.561690	1.545542	-0.000183
 873	8.6764e+01	5.2587	33.290221	0.000446	4.460319	1.511197	-0.000179
 874	8.6864e+01	5.2218	33.080290	0.000527	5.271286	1.785960	-0.000211
 875	8.6963e+01	5.1865	32.886508	0.000487	4.865802	1.648578	-0.000195
 876	8.7063e+01	5.1448	32.688688	0.000497	4.967173	1.682924	-0.000199
 877	8.7162e+01	5.0918	32.474720	0.000537	5.372657	1.820305	-0.000215
 878	8.7261e+01	5.0598	32.301123	0.000436	4.358948	1.476852	-0.000174
 879	8.7361e+01	5.0148	32.107341	0.000487	4.865802	1.648578	-0.000195
 880	8.7460e+01	4.9763	31.897409	0.000527	5.271286	1.785960	-0.000211
 881	8.7560e+01	4.9346	31.711701	0.000466	4.663061	1.579888	-0.000187
 882	8.7659e+01	4.8881	31.505807	0.000517	5.169915	1.751615	-0.000207
 883	8.7759e+01	4.8480	31.299913	0.000517	5.169915	1.751615	-0.000207
 884	8.7859e+01	4.8159	31.106131	0.000487	4.865802	1.648578	-0.000195
 885	8.7958e+01	4.7742	30.928497	0.000446	4.460319	1.511197	-0.000179
 886	8.8058e+01	4.7325	30.742789	0.000466	4.663061	1.579888	-0.000187
 887	8.8157e+01	4.7020	30.536895	0.000517	5.169915	1.751615	-0.000207
 888	8.8257e+01	4.6523	30.371372	0.000416	4.156206	1.408161	-0.000166
 889	8.8356e+01	4.6122	30.149330	0.000558	5.575398	1.888996	-0.000223
 890	8.8456e+01	4.5721	29.943436	0.000517	5.169915	1.751615	-0.000207
 891	8.8555e+01	4.5384	29.753690	0.000476	4.764431	1.614233	-0.000191
 892	8.8654e+01	4.4951	29.584131	0.000426	4.257577	1.442506	-0.000170
 893	8.8754e+01	4.4534	29.358051	0.000568	5.676769	1.923342	-0.000227
 894	8.8853e+01	4.4245	29.176380	0.000456	4.561690	1.545542	-0.000183
 895	8.8953e+01	4.3763	28.962412	0.000537	5.372657	1.820305	-0.000215
 896	8.9052e+01	4.3443	28.772666	0.000476	4.764431	1.614233	-0.000191
 897	8.9152e+01	4.2993	28.574847	0.000497	4.967173	1.682924	-0.000199
 898	8.9251e+01	4.2657	28.364916	0.000527	5.271286	1.785960	-0.000211
 899	8.9351e+01	4.2191	28.187282	0.000446	4.460319	1.511197	-0.000179
 900	8.9451e+01	4.1742	28.001573	0.000466	4.663061	1.579888	-0.000187
 901	8.9550e+01	4.1373	27.840088	0.000405	4.054835	1.373815	-0.000162
 902	8.9650e+01	4.1004	27.626120	0.000537	5.372657	1.820305	-0.000215
 903	8.9749e+01	4.0619	27.440412	0.000466	4.663061	1.579888	-0.000187
 904	8.9849e+01	4.0122	27.210295	0.000578	5.778140	1.957687	-0.000231
 905	8.9948e+01	3.9801	27.012475	0.000497	4.967173	1.682924	-0.000199
 906	9.0047e+01	3.9304	26.790433	0.000558	5.575398	1.888996	-0.000223
 907	9.0147e+01	3.8951	26.612799	0.000446	4.460319	1.511197	-0.000179
 908	9.0246e+01	3.8566	26.410942	0.000507	5.068544	1.717269	-0.000203
 909	9.0346e+01	3.8229	26.261568	0.000375	3.750723	1.270779	-0.000150
 910	9.0445e+01	3.7780	26.023377	0.000598	5.980882	2.026378	-0.000239
 911	9.0545e+01	3.7443	25.857854	0.000416	4.156206	1.408161	-0.000166
 912	9.0644e+01	3.7026	25.627738	0.000578	5.778140	1.957687	-0.000231
 913	9.0744e+01	3.6609	25.458178	0.000426	4.257577	1.442506	-0.000170
 914	9.0844e+01	3.6224	25.236135	0.000558	5.575398	1.888996	-0.000223
 915	9.0943e+01	3.5871	25.066576	0.000426	4.257577	1.442506	-0.000170
 916	9.1043e+01	3.5438	24.864719	0.000507	5.068544	1.717269	-0.000203
 917	9.1142e+01	3.4956	24.666899	0.000497	4.967173	1.682924	-0.000199
 918	9.1242e+01	3.4571	24.428708	0.000598	5.980882	2.026378	-0.000239
 919	9.1341e+01	3.4266	24.247037	0.000456	4.561690	1.545542	-0.000183
 920	9.1441e+01	3.3865	24.077478	0.000426	4.257577	1.442506	-0.000170
 921	9.1540e+01	3.3368	23.859472	0.000547	5.474028	1.854651	-0.000219
 922	9.1639e+01	3.3047	23.633393	0.000568	5.676769	1.923342	-0.000227
 923	9.1739e+01	3.2630	23.516316	0.000294	2.939756	0.996016	-0.000118
 924	9.1838e+01	3.2213	23.261976	0.000639	6.386366	2.163759	-0.000256
 925	9.1938e+01	3.1812	23.096454	0.000416	4.156206	1.408161	-0.000166
 926	9.2037e+01	3.1395	22.898634	0.000497	4.967173	1.682924	-0.000199
 927	9.2137e+01	3.1058	22.680629	0.000547	5.474028	1.854651	-0.000219
 928	9.2237e+01	3.0593	22.490883	0.000476	4.764431	1.614233	-0.000191
 929	9.2336e+01	3.0240	22.248655	0.000608	6.082253	2.060723	-0.000243
 930	9.2436e+01	2.9775	22.054873	0.000487	4.865802	1.648578	-0.000195
 931	9.2535e+01	2.9422	21.881276	0.000436	4.358948	1.476852	-0.000174
 932	9.2635e+01	2.9117	21.691530	0.000476	4.764431	1.614233	-0.000191
 933	9.2734e+01	2.8652	21.501785	0.000476	4.764431	1.614233	-0.000191
 934	9.2834e+01	2.8299	21.303965	0.000497	4.967173	1.682924	-0.000199
 935	9.2933e+01	2.7866	21.089997	0.000537	5.372657	1.820305	-0.000215
 936	9.3032e+01	2.7384	20.892177	0.000497	4.967173	1.682924	-0.000199
 937	9.3132e+01	2.7015	20.698395	0.000487	4.865802	1.648578	-0.000195
 938	9.3231e+01	2.6694	20.496538	0.000507	5.068544	1.717269	-0.000203
 939	9.3331e+01	2.6165	20.302756	0.000487	4.865802	1.648578	-0.000195
 940	9.3430e+01	2.5812	20.088787	0.000537	5.372657	1.820305	-0.000215
 941	9.3530e+01	2.5475	19.866745	0.000558	5.575398	1.888996	-0.000223
 942	9.3629e+01	2.5090	19.729482	0.000345	3.446610	1.167743	-0.000138
 943	9.3729e+01	2.4625	19.523588	0.000517	5.169915	1.751615	-0.000207
 944	9.3829e+01	2.4240	19.281360	0.000608	6.082253	2.060723	-0.000243
 945	9.3928e+01	2.3887	19.107763	0.000436	4.358948	1.476852	-0.000174
 946	9.4028e+01	2.3486	18.889758	0.000547	5.474028	1.854651	-0.000219
 947	9.4127e+01	2.3085	18.716161	0.000436	4.358948	1.476852	-0.000174
 948	9.4227e+01	2.2684	18.550639	0.000416	4.156206	1.408161	-0.000166
 949	9.4326e+01	2.2235	18.300336	0.000628	6.284995	2.129414	-0.000252
 950	9.4425e+01	2.1946	18.106554	0.000487	4.865802	1.648578	-0.000195
 951	9.4525e+01	2.1513	17.912771	0.000487	4.865802	1.648578	-0.000195
 952	9.4624e+01	2.1048	17.723026	0.000476	4.764431	1.614233	-0.000191
 953	9.4724e+01	2.0663	17.517132	0.000517	5.169915	1.751615	-0.000207
 954	9.4823e+01	2.0261	17.335461	0.000456	4.561690	1.545542	-0.000183
 955	9.4923e+01	1.9925	17.121493	0.000537	5.372657	1.820305	-0.000215
 956	9.5022e+01	1.9491	16.895413	0.000568	5.676769	1.923342	-0.000227
 957	9.5122e+01	1.9187	16.705668	0.000476	4.764431	1.614233	-0.000191
 958	9.5222e+01	1.8705	16.495737	0.000527	5.271286	1.785960	-0.000211
 959	9.5321e+01	1.8288	16.314066	0.000456	4.561690	1.545542	-0.000183
 960	9.5421e+01	1.7903	16.083949	0.000578	5.778140	1.957687	-0.000231
 961	9.5520e+01	1.7486	15.882092	0.000507	5.068544	1.717269	-0.000203
 962	9.5620e+01	1.7037	15.696384	0.000466	4.663061	1.579888	-0.000187
 963	9.5719e+01	1.6732	15.510676	0.000466	4.663061	1.579888	-0.000187
 964	9.5819e+01	1.6299	15.300744	0.000527	5.271286	1.785960	-0.000211
 965	9.5918e+01	1.5834	15.090813	0.000527	5.271286	1.785960	-0.000211
 966	9.6017e+01	1.5497	14.876845	0.000537	5.372657	1.820305	-0.000215
 967	9.6117e+01	1.5144	14.695174	0.000456	4.561690	1.545542	-0.000183
 968	9.6216e+01	1.4566	14.521577	0.000436	4.358948	1.476852	-0.000174
 969	9.6316e+01	1.4197	14.319720	0.000507	5.068544	1.717269	-0.000203
 970	9.6415e+01	1.3957	14.069418	0.000628	6.284995	2.129414	-0.000252
 971	9.6515e+01	1.3508	13.899858	0.000426	4.257577	1.442506	-0.000170
 972	9.6615e+01	1.3139	13.673779	0.000568	5.676769	1.923342	-0.000227
 973	9.6714e+01	1.2689	13.496145	0.000446	4.460319	1.511197	-0.000179
 974	9.6814e+01	1.2353	13.310437	0.000466	4.663061	1.579888	-0.000187
 975	9.6913e+01	1.1952	13.096468	0.000537	5.372657	1.820305	-0.000215
 976	9.7013e+01	1.1502	12.821943	0.000689	6.893220	2.335486	-0.000276
 977	9.7112e+01	1.1053	12.676606	0.000365	3.649352	1.236434	-0.000146
 978	9.7212e+01	1.0684	12.478787	0.000497	4.967173	1.682924	-0.000199
 979	9.7311e+01	1.0251	12.256744	0.000558	5.575398	1.888996	-0.000223
 980	9.7410e+01	0.9866	12.071036	0.000466	4.663061	1.579888	-0.000187
 981	9.7510e+01	0.9497	11.877253	0.000487	4.865802	1.648578	-0.000195
 982	9.7609e+01	0.9144	11.639062	0.000598	5.980882	2.026378	-0.000239
 983	9.7709e+01	0.8679	11.441243	0.000497	4.967173	1.682924	-0.000199
 984	9.7808e+01	0.8326	11.255534	0.000466	4.663061	1.579888	-0.000187
 985	9.7908e+01	0.7957	11.021381	0.000588	5.879511	1.992032	-0.000235
 986	9.8007e+01	0.7508	10.872007	0.000375	3.750723	1.270779	-0.000150
 987	9.8107e+01	0.7219	10.609593	0.000659	6.589107	2.232450	-0.000264
 988	9.8207e+01	0.6658	10.452144	0.000395	3.953464	1.339470	-0.000158
 989	9.8306e+01	0.6353	10.213953	0.000598	5.980882	2.026378	-0.000239
 990	9.8406e+01	0.5936	10.036319	0.000446	4.460319	1.511197	-0.000179
 991	9.8505e+01	0.5567	9.826388	0.000527	5.271286	1.785960	-0.000211
 992	9.8605e+01	0.5085	9.660866	0.000416	4.156206	1.408161	-0.000166
 993	9.8704e+01	0.4652	9.438823	0.000558	5.575398	1.888996	-0.000223
 994	9.8803e+01	0.4347	9.228892	0.000527	5.271286	1.785960	-0.000211
 995	9.8903e+01	0.3898	8.998776	0.000578	5.778140	1.957687	-0.000231
 996	9.9002e+01	0.3545	8.817104	0.000456	4.561690	1.545542	-0.000183
 997	9.9102e+01	0.3160	8.619285	0.000497	4.967173	1.682924	-0.000199
 998	9.9201e+01	0.2727	8.421465	0.000497	4.967173	1.682924	-0.000199
 999	9.9301e+01	0.2358	8.179237	0.000608	6.082253	2.060723	-0.000243
1000	9.9400e+01	0.1925	7.997566	0.000456	4.561690	1.545542	-0.000183
1001	9.9500e+01	0.1492	7.775523	0.000558	5.575398	1.888996	-0.000223
1002	9.9600e+01	0.1203	7.622112	0.000385	3.852093	1.305125	-0.000154
1003	9.9699e+01	0.0754	7.391996	0.000578	5.778140	1.957687	-0.000231
1004	9.9799e+01	0.0273	7.169953	0.000558	5.575398	1.888996	-0.000223
1005	9.9898e+01	0.0096	7.073062	0.000243	2.432901	0.824289	-0.000097
1006	9.9998e+01	-0.0401	6.838908	0.000588	5.879511	1.992032	-0.000235
1007	1.0010e+02	-0.0802	6.689534	0.000375	3.750723	1.270779	-0.000150
1008	1.0020e+02	-0.1235	6.419046	0.000679	6.791849	2.301141	-0.000272
1009	1.0030e+02	-0.1540	6.221226	0.000497	4.967173	1.682924	-0.000199
1010	1.0040e+02	-0.1973	6.051666	0.000426	4.257577	1.442506	-0.000170
1011	1.0050e+02	-0.2374	5.817513	0.000588	5.879511	1.992032	-0.000235
1012	1.0059e+02	-0.2711	5.635841	0.000456	4.561690	1.545542	-0.000183
1013	1.0069e+02	-0.3192	5.474356	0.000405	4.054835	1.373815	-0.000162
1014	1.0079e+02	-0.3610	5.207905	0.000669	6.690478	2.266795	-0.000268
1015	1.0089e+02	-0.3914	5.050457	0.000395	3.953464	1.339470	-0.000158
1016	1.0099e+02	-0.4380	4.872823	0.000446	4.460319	1.511197	-0.000179
1017	1.0109e+02	-0.4732	4.626558	0.000618	6.183624	2.095068	-0.000248
1018	1.0119e+02	-0.5214	4.404515	0.000558	5.575398	1.888996	-0.000223
1019	1.0129e+02	-0.5535	4.243030	0.000405	4.054835	1.373815	-0.000162
1020	1.0139e+02	-0.5936	4.004839	0.000598	5.980882	2.026378	-0.000239
1021	1.0149e+02	-0.6321	3.859502	0.000365	3.649352	1.236434	-0.000146
1022	1.0159e+02	-0.6802	3.633422	0.000568	5.676769	1.923342	-0.000227
1023	1.0169e+02	-0.7107	3.423491	0.000527	5.271286	1.785960	-0.000211
1024	1.0179e+02	-0.7492	3.205486	0.000547	5.474028	1.854651	-0.000219
1025	1.0189e+02	-0.7941	3.044000	0.000405	4.054835	1.373815	-0.000162
1026	1.0199e+02	-0.8374	2.830032	0.000537	5.372657	1.820305	-0.000215
1027	1.0209e+02	-0.8727	2.620101	0.000527	5.271286	1.785960	-0.000211
1028	1.0219e+02	-0.9128	2.398059	0.000558	5.575398	1.888996	-0.000223
1029	1.0229e+02	-0.9545	2.155830	0.000608	6.082253	2.060723	-0.000243
1030	1.0239e+02	-0.9978	1.978197	0.000446	4.460319	1.511197	-0.000179
1031	1.0248e+02	-1.0444	1.816711	0.000405	4.054835	1.373815	-0.000162
1032	1.0258e+02	-1.0700	1.598706	0.000547	5.474028	1.854651	-0.000219
1033	1.0268e+02	-1.1165	1.404923	0.000487	4.865802	1.648578	-0.000195
1034	1.0278e+02	-1.1550	1.203066	0.000507	5.068544	1.717269	-0.000203
1035	1.0288e+02	-1.1952	0.993135	0.000527	5.271286	1.785960	-0.000211
1036	1.0298e+02	-1.2321	0.799353	0.000487	4.865802	1.648578	-0.000195
1037	1.0308e+02	-1.2818	0.617682	0.000456	4.561690	1.545542	-0.000183
1038	1.0318e+02	-1.3171	0.436011	0.000456	4.561690	1.545542	-0.000183
1039	1.0328e+02	-1.3540	0.222042	0.000537	5.372657	1.820305	-0.000215
1040	1.0338e+02	-1.4005	0.044408	0.000446	4.460319	1.511197	-0.000179
1041	1.0348e+02	-1.4374	-0.177634	0.000558	5.575398	1.888996	-0.000223
1042	1.0358e+02	-1.4759	-0.371416	0.000487	4.865802	1.648578	-0.000195
1043	1.0368e+02	-1.5128	-0.605570	0.000588	5.879511	1.992032	-0.000235
1044	1.0378e+02	-1.5577	-0.775130	0.000426	4.257577	1.442506	-0.000170
1045	1.0388e+02	-1.5882	-0.960838	0.000466	4.663061	1.579888	-0.000187
1046	1.0398e+02	-1.6299	-1.150584	0.000476	4.764431	1.614233	-0.000191
1047	1.0408e+02	-1.6668	-1.376663	0.000568	5.676769	1.923342	-0.000227
1048	1.0418e+02	-1.7085	-1.582557	0.000517	5.169915	1.751615	-0.000207
1049	1.0428e+02	-1.7534	-1.748080	0.000416	4.156206	1.408161	-0.000166
1050	1.0438e+02	-1.7855	-1.978197	0.000578	5.778140	1.957687	-0.000231
1051	1.0447e+02	-1.8304	-2.135645	0.000395	3.953464	1.339470	-0.000158
1052	1.0457e+02	-1.8721	-2.365762	0.000578	5.778140	1.957687	-0.000231
1053	1.0467e+02	-1.9122	-2.571655	0.000517	5.169915	1.751615	-0.000207
1054	1.0477e+02	-1.9588	-2.725067	0.000385	3.852093	1.305125	-0.000154
1055	1.0487e+02	-2.0005	-2.955183	0.000578	5.778140	1.957687	-0.000231
1056	1.0497e+02	-2.0358	-3.132817	0.000446	4.460319	1.511197	-0.000179
1057	1.0507e+02	-2.0743	-3.362934	0.000578	5.778140	1.957687	-0.000231
1058	1.0517e+02	-2.1096	-3.516345	0.000385	3.852093	1.305125	-0.000154
1059	1.0527e+02	-2.1497	-3.738388	0.000558	5.575398	1.888996	-0.000223
1060	1.0537e+02	-2.1962	-3.911985	0.000436	4.358948	1.476852	-0.000174
1061	1.0547e+02	-2.2267	-4.121916	0.000527	5.271286	1.785960	-0.000211
1062	1.0557e+02	-2.2684	-4.323772	0.000507	5.068544	1.717269	-0.000203
1063	1.0567e+02	-2.3181	-4.489295	0.000416	4.156206	1.408161	-0.000166
1064	1.0577e+02	-2.3518	-4.735560	0.000618	6.183624	2.095068	-0.000248
1065	1.0587e+02	-2.3919	-4.868786	0.000335	3.345239	1.133398	-0.000134
1066	1.0597e+02	-2.4336	-5.094865	0.000568	5.676769	1.923342	-0.000227
1067	1.0607e+02	-2.4705	-5.341131	0.000618	6.183624	2.095068	-0.000248
1068	1.0617e+02	-2.5074	-5.466282	0.000314	3.142497	1.064707	-0.000126
1069	1.0627e+02	-2.5443	-5.688324	0.000558	5.575398	1.888996	-0.000223
1070	1.0637e+02	-2.5973	-5.857884	0.000426	4.257577	1.442506	-0.000170
1071	1.0647e+02	-2.6309	-6.055704	0.000497	4.967173	1.682924	-0.000199
1072	1.0656e+02	-2.6694	-6.297932	0.000608	6.082253	2.060723	-0.000243
1073	1.0666e+02	-2.7095	-6.467491	0.000426	4.257577	1.442506	-0.000170
1074	1.0676e+02	-2.7400	-6.665311	0.000497	4.967173	1.682924	-0.000199
1075	1.0686e+02	-2.7801	-6.846982	0.000456	4.561690	1.545542	-0.000183
1076	1.0696e+02	-2.8202	-7.008468	0.000405	4.054835	1.373815	-0.000162
1077	1.0706e+02	-2.8716	-7.246659	0.000598	5.980882	2.026378	-0.000239
1078	1.0716e+02	-2.9053	-7.428330	0.000456	4.561690	1.545542	-0.000183
1079	1.0726e+02	-2.9486	-7.642298	0.000537	5.372657	1.820305	-0.000215
1080	1.0736e+02	-2.9823	-7.795709	0.000385	3.852093	1.305125	-0.000154
1081	1.0746e+02	-3.0352	-8.017752	0.000558	5.575398	1.888996	-0.000223
1082	1.0756e+02	-3.0625	-8.199423	0.000456	4.561690	1.545542	-0.000183
1083	1.0766e+02	-3.1090	-8.421465	0.000558	5.575398	1.888996	-0.000223
1084	1.0776e+02	-3.1555	-8.595062	0.000436	4.358948	1.476852	-0.000174
1085	1.0786e+02	-3.1844	-8.821142	0.000568	5.676769	1.923342	-0.000227
1086	1.0796e+02	-3.2309	-8.970516	0.000375	3.750723	1.270779	-0.000150
1087	1.0806e+02	-3.2614	-9.188521	0.000547	5.474028	1.854651	-0.000219
1088	1.0816e+02	-3.3127	-9.398452	0.000527	5.271286	1.785960	-0.000211
1089	1.0826e+02	-3.3464	-9.543789	0.000365	3.649352	1.236434	-0.000146
1090	1.0836e+02	-3.3817	-9.773906	0.000578	5.778140	1.957687	-0.000231
1091	1.0845e+02	-3.4250	-9.955577	0.000456	4.561690	1.545542	-0.000183
1092	1.0855e+02	-3.4635	-10.137248	0.000456	4.561690	1.545542	-0.000183
1093	1.0865e+02	-3.4972	-10.359290	0.000558	5.575398	1.888996	-0.000223
1094	1.0875e+02	-3.5502	-10.557110	0.000497	4.967173	1.682924	-0.000199
1095	1.0885e+02	-3.5855	-10.754930	0.000497	4.967173	1.682924	-0.000199
1096	1.0895e+02	-3.6272	-10.948712	0.000487	4.865802	1.648578	-0.000195
1097	1.0905e+02	-3.6560	-11.102123	0.000385	3.852093	1.305125	-0.000154
1098	1.0915e+02	-3.7058	-11.299943	0.000497	4.967173	1.682924	-0.000199
1099	1.0925e+02	-3.7427	-11.526023	0.000568	5.676769	1.923342	-0.000227
1100	1.0935e+02	-3.7796	-11.707694	0.000456	4.561690	1.545542	-0.000183
1101	1.0945e+02	-3.8325	-11.925699	0.000547	5.474028	1.854651	-0.000219
1102	1.0955e+02	-3.8582	-12.083147	0.000395	3.953464	1.339470	-0.000158
1103	1.0965e+02	-3.8983	-12.301153	0.000547	5.474028	1.854651	-0.000219
1104	1.0975e+02	-3.9448	-12.470712	0.000426	4.257577	1.442506	-0.000170
1105	1.0985e+02	-3.9817	-12.688718	0.000547	5.474028	1.854651	-0.000219
1106	1.0995e+02	-4.0250	-12.886537	0.000497	4.967173	1.682924	-0.000199
1107	1.1005e+02	-4.0651	-13.068208	0.000456	4.561690	1.545542	-0.000183
1108	1.1015e+02	-4.1084	-13.253917	0.000466	4.663061	1.579888	-0.000187
1109	1.1025e+02	-4.1485	-13.455773	0.000507	5.068544	1.717269	-0.000203
1110	1.1035e+02	-4.1951	-13.633407	0.000446	4.460319	1.511197	-0.000179
1111	1.1044e+02	-4.2272	-13.802967	0.000426	4.257577	1.442506	-0.000170
1112	1.1054e+02	-4.2608	-13.996750	0.000487	4.865802	1.648578	-0.000195
1113	1.1064e+02	-4.3042	-14.206681	0.000527	5.271286	1.785960	-0.000211
1114	1.1074e+02	-4.3443	-14.396426	0.000476	4.764431	1.614233	-0.000191
1115	1.1084e+02	-4.3860	-14.553874	0.000395	3.953464	1.339470	-0.000158
1116	1.1094e+02	-4.4293	-14.800140	0.000618	6.183624	2.095068	-0.000248
1117	1.1104e+02	-4.4614	-14.969699	0.000426	4.257577	1.442506	-0.000170
1118	1.1114e+02	-4.5047	-15.163482	0.000487	4.865802	1.648578	-0.000195
1119	1.1124e+02	-4.5352	-15.316893	0.000385	3.852093	1.305125	-0.000154
1120	1.1134e+02	-4.5897	-15.555084	0.000598	5.980882	2.026378	-0.000239
1121	1.1144e+02	-4.6218	-15.744829	0.000476	4.764431	1.614233	-0.000191
1122	1.1154e+02	-4.6619	-15.962835	0.000547	5.474028	1.854651	-0.000219
1123	1.1164e+02	-4.7004	-16.132394	0.000426	4.257577	1.442506	-0.000170
1124	1.1174e+02	-4.7357	-16.334251	0.000507	5.068544	1.717269	-0.000203
1125	1.1184e+02	-4.7854	-16.523997	0.000476	4.764431	1.614233	-0.000191
1126	1.1194e+02	-4.8255	-16.713742	0.000476	4.764431	1.614233	-0.000191
1127	1.1204e+02	-4.8560	-16.903487	0.000476	4.764431	1.614233	-0.000191
1128	1.1214e+02	-4.8993	-17.109381	0.000517	5.169915	1.751615	-0.000207
1129	1.1224e+02	-4.9410	-17.250681	0.000355	3.547981	1.202088	-0.000142
1130	1.1234e+02	-4.9779	-17.480798	0.000578	5.778140	1.957687	-0.000231
1131	1.1244e+02	-5.0261	-17.666506	0.000466	4.663061	1.579888	-0.000187
1132	1.1253e+02	-5.0662	-17.844140	0.000446	4.460319	1.511197	-0.000179
1133	1.1263e+02	-5.0966	-18.058108	0.000537	5.372657	1.820305	-0.000215
1134	1.1273e+02	-5.1400	-18.239779	0.000456	4.561690	1.545542	-0.000183
1135	1.1283e+02	-5.1753	-18.453747	0.000537	5.372657	1.820305	-0.000215
1136	1.1293e+02	-5.2234	-18.603121	0.000375	3.750723	1.270779	-0.000150
1137	1.1303e+02	-5.2635	-18.829201	0.000568	5.676769	1.923342	-0.000227
1138	1.1313e+02	-5.2940	-19.035095	0.000517	5.169915	1.751615	-0.000207
1139	1.1323e+02	-5.3405	-19.188506	0.000385	3.852093	1.305125	-0.000154
1140	1.1333e+02	-5.3742	-19.414586	0.000568	5.676769	1.923342	-0.000227
1141	1.1343e+02	-5.4207	-19.612405	0.000497	4.967173	1.682924	-0.000199
1142	1.1353e+02	-5.4560	-19.745631	0.000335	3.345239	1.133398	-0.000134
1143	1.1363e+02	-5.4993	-19.955562	0.000527	5.271286	1.785960	-0.000211
1144	1.1373e+02	-5.5298	-20.209902	0.000639	6.386366	2.163759	-0.000256
1145	1.1383e+02	-5.5859	-20.367350	0.000395	3.953464	1.339470	-0.000158
1146	1.1393e+02	-5.6196	-20.532872	0.000416	4.156206	1.408161	-0.000166
1147	1.1403e+02	-5.6645	-20.714543	0.000456	4.561690	1.545542	-0.000183
1148	1.1413e+02	-5.6950	-20.940623	0.000568	5.676769	1.923342	-0.000227
1149	1.1423e+02	-5.7351	-21.158628	0.000547	5.474028	1.854651	-0.000219
1150	1.1433e+02	-5.7833	-21.320114	0.000405	4.054835	1.373815	-0.000162
1151	1.1442e+02	-5.8153	-21.530045	0.000527	5.271286	1.785960	-0.000211
1152	1.1452e+02	-5.8571	-21.727865	0.000497	4.967173	1.682924	-0.000199
1153	1.1462e+02	-5.9036	-21.929721	0.000507	5.068544	1.717269	-0.000203
1154	1.1472e+02	-5.9341	-22.058910	0.000324	3.243868	1.099052	-0.000130
1155	1.1482e+02	-5.9822	-22.264804	0.000517	5.169915	1.751615	-0.000207
1156	1.1492e+02	-6.0159	-22.470698	0.000517	5.169915	1.751615	-0.000207
1157	1.1502e+02	-6.0576	-22.704851	0.000588	5.879511	1.992032	-0.000235
1158	1.1512e+02	-6.0897	-22.902671	0.000497	4.967173	1.682924	-0.000199
1159	1.1522e+02	-6.1426	-23.039934	0.000345	3.446610	1.167743	-0.000138
1160	1.1532e+02	-6.1763	-23.229679	0.000476	4.764431	1.614233	-0.000191
1161	1.1542e+02	-6.2196	-23.403276	0.000436	4.358948	1.476852	-0.000174
1162	1.1552e+02	-6.2645	-23.609170	0.000517	5.169915	1.751615	-0.000207
1163	1.1562e+02	-6.2918	-23.835249	0.000568	5.676769	1.923342	-0.000227
1164	1.1572e+02	-6.3383	-23.996735	0.000405	4.054835	1.373815	-0.000162
1165	1.1582e+02	-6.3848	-24.178406	0.000456	4.561690	1.545542	-0.000183
1166	1.1592e+02	-6.4169	-24.356040	0.000446	4.460319	1.511197	-0.000179
1167	1.1602e+02	-6.4570	-24.549822	0.000487	4.865802	1.648578	-0.000195
1168	1.1612e+02	-6.4923	-24.727456	0.000446	4.460319	1.511197	-0.000179
1169	1.1622e+02	-6.5324	-24.913165	0.000466	4.663061	1.579888	-0.000187
1170	1.1632e+02	-6.5693	-25.102910	0.000476	4.764431	1.614233	-0.000191
1171	1.1642e+02	-6.5998	-25.300730	0.000497	4.967173	1.682924	-0.000199
1172	1.1651e+02	-6.6511	-25.466252	0.000416	4.156206	1.408161	-0.000166
1173	1.1661e+02	-6.6945	-25.684258	0.000547	5.474028	1.854651	-0.000219
1174	1.1671e+02	-6.7314	-25.833632	0.000375	3.750723	1.270779	-0.000150
1175	1.1681e+02	-6.7715	-26.027414	0.000487	4.865802	1.648578	-0.000195
1176	1.1691e+02	-6.8100	-26.217159	0.000476	4.764431	1.614233	-0.000191
1177	1.1701e+02	-6.8517	-26.410942	0.000487	4.865802	1.648578	-0.000195
1178	1.1711e+02	-6.8902	-26.632984	0.000558	5.575398	1.888996	-0.000223
1179	1.1721e+02	-6.9255	-26.766210	0.000335	3.345239	1.133398	-0.000134
1180	1.1731e+02	-6.9656	-26.964030	0.000497	4.967173	1.682924	-0.000199
1181	1.1741e+02	-7.0121	-27.153775	0.000476	4.764431	1.614233	-0.000191
1182	1.1751e+02	-7.0538	-27.319298	0.000416	4.156206	1.408161	-0.000166
1183	1.1761e+02	-7.0763	-27.549414	0.000578	5.778140	1.957687	-0.000231
1184	1.1771e+02	-7.1308	-27.698788	0.000375	3.750723	1.270779	-0.000150
1185	1.1781e+02	-7.1661	-27.880459	0.000456	4.561690	1.545542	-0.000183
1186	1.1791e+02	-7.2030	-28.114613	0.000588	5.879511	1.992032	-0.000235
1187	1.1801e+02	-7.2511	-28.272062	0.000395	3.953464	1.339470	-0.000158
1188	1.1811e+02	-7.2848	-28.445658	0.000436	4.358948	1.476852	-0.000174
1189	1.1821e+02	-7.3297	-28.663664	0.000547	5.474028	1.854651	-0.000219
1190	1.1831e+02	-7.3747	-28.796889	0.000335	3.345239	1.133398	-0.000134
1191	1.1841e+02	-7.4100	-29.035080	0.000598	5.980882	2.026378	-0.000239
1192	1.1850e+02	-7.4485	-29.172343	0.000345	3.446610	1.167743	-0.000138
1193	1.1860e+02	-7.4918	-29.394385	0.000558	5.575398	1.888996	-0.000223
1194	1.1870e+02	-7.5303	-29.555871	0.000405	4.054835	1.373815	-0.000162
1195	1.1880e+02	-7.5704	-29.721393	0.000416	4.156206	1.408161	-0.000166
1196	1.1890e+02	-7.6057	-29.939399	0.000547	5.474028	1.854651	-0.000219
1197	1.1900e+02	-7.6538	-30.076661	0.000345	3.446610	1.167743	-0.000138
1198	1.1910e+02	-7.6891	-30.274481	0.000497	4.967173	1.682924	-0.000199
1199	1.1920e+02	-7.7308	-30.472301	0.000497	4.967173	1.682924	-0.000199
1200	1.1930e+02	-7.7661	-30.670120	0.000497	4.967173	1.682924	-0.000199
1201	1.1940e+02	-7.8046	-30.851791	0.000456	4.561690	1.545542	-0.000183
1202	1.1950e+02	-7.8399	-31.041537	0.000476	4.764431	1.614233	-0.000191
1203	1.1960e+02	-7.8816	-31.227245	0.000466	4.663061	1.579888	-0.000187
1204	1.1970e+02	-7.9329	-31.416990	0.000476	4.764431	1.614233	-0.000191
1205	1.1980e+02	-7.9682	-31.594624	0.000446	4.460319	1.511197	-0.000179
1206	1.1990e+02	-8.0051	-31.764184	0.000426	4.257577	1.442506	-0.000170
1207	1.2000e+02	-8.0372	-31.945855	0.000456	4.561690	1.545542	-0.000183
1208	1.2010e+02	-8.0869	-32.083118	0.000345	3.446610	1.167743	-0.000138
1209	1.2020e+02	-8.1190	-32.317272	0.000588	5.879511	1.992032	-0.000235
1210	1.2030e+02	-8.1704	-32.446460	0.000324	3.243868	1.099052	-0.000130
1211	1.2039e+02	-8.2073	-32.664465	0.000547	5.474028	1.854651	-0.000219
1212	1.2049e+02	-8.2409	-32.862285	0.000497	4.967173	1.682924	-0.000199
1213	1.2059e+02	-8.2843	-32.987436	0.000314	3.142497	1.064707	-0.000126
1214	1.2069e+02	-8.3260	-33.197367	0.000527	5.271286	1.785960	-0.000211
1215	1.2079e+02	-8.3677	-33.395187	0.000497	4.967173	1.682924	-0.000199
1216	1.2089e+02	-8.4030	-33.564747	0.000426	4.257577	1.442506	-0.000170
1217	1.2099e+02	-8.4415	-33.746418	0.000456	4.561690	1.545542	-0.000183
1218	1.2109e+02	-8.4800	-33.928089	0.000456	4.561690	1.545542	-0.000183
1219	1.2119e+02	-8.5249	-34.093611	0.000416	4.156206	1.408161	-0.000166
1220	1.2129e+02	-8.5618	-34.279320	0.000466	4.663061	1.579888	-0.000187
1221	1.2139e+02	-8.5971	-34.489251	0.000527	5.271286	1.785960	-0.000211
1222	1.2149e+02	-8.6532	-34.626513	0.000345	3.446610	1.167743	-0.000138
1223	1.2159e+02	-8.6901	-34.808184	0.000456	4.561690	1.545542	-0.000183
1224	1.2169e+02	-8.7302	-34.973707	0.000416	4.156206	1.408161	-0.000166
1225	1.2179e+02	-8.7639	-35.175564	0.000507	5.068544	1.717269	-0.000203
1226	1.2189e+02	-8.8008	-35.385495	0.000527	5.271286	1.785960	-0.000211
1227	1.2199e+02	-8.8265	-35.514683	0.000324	3.243868	1.099052	-0.000130
1228	1.2209e+02	-8.8858	-35.720577	0.000517	5.169915	1.751615	-0.000207
1229	1.2219e+02	-8.9292	-35.865914	0.000365	3.649352	1.236434	-0.000146
1230	1.2229e+02	-8.9661	-36.043548	0.000446	4.460319	1.511197	-0.000179
1231	1.2239e+02	-9.0062	-36.188885	0.000365	3.649352	1.236434	-0.000146
1232	1.2248e+02	-9.0399	-36.406890	0.000547	5.474028	1.854651	-0.000219
1233	1.2258e+02	-9.0767	-36.584524	0.000446	4.460319	1.511197	-0.000179
1234	1.2268e+02	-9.1169	-36.758121	0.000436	4.358948	1.476852	-0.000174
1235	1.2278e+02	-9.1586	-36.943829	0.000466	4.663061	1.579888	-0.000187
1236	1.2288e+02	-9.1939	-37.105315	0.000405	4.054835	1.373815	-0.000162
1237	1.2298e+02	-9.2388	-37.262763	0.000395	3.953464	1.339470	-0.000158
1238	1.2308e+02	-9.2741	-37.379840	0.000294	2.939756	0.996016	-0.000118
1239	1.2318e+02	-9.3190	-37.618031	0.000598	5.980882	2.026378	-0.000239
1240	1.2328e+02	-9.3591	-37.799702	0.000456	4.561690	1.545542	-0.000183
1241	1.2338e+02	-9.4040	-37.957150	0.000395	3.953464	1.339470	-0.000158
1242	1.2348e+02	-9.4393	-38.118636	0.000405	4.054835	1.373815	-0.000162
1243	1.2358e+02	-9.4810	-38.340678	0.000558	5.575398	1.888996	-0.000223
1244	1.2368e+02	-9.5307	-38.506201	0.000416	4.156206	1.408161	-0.000166
1245	1.2378e+02	-9.5660	-38.643463	0.000345	3.446610	1.167743	-0.000138
1246	1.2388e+02	-9.6013	-38.845320	0.000507	5.068544	1.717269	-0.000203
1247	1.2398e+02	-9.6382	-39.002768	0.000395	3.953464	1.339470	-0.000158
1248	1.2408e+02	-9.6815	-39.224811	0.000558	5.575398	1.888996	-0.000223
1249	1.2418e+02	-9.7233	-39.390333	0.000416	4.156206	1.408161	-0.000166
1250	1.2428e+02	-9.7650	-39.535670	0.000365	3.649352	1.236434	-0.000146
1251	1.2438e+02	-9.8003	-39.705230	0.000426	4.257577	1.442506	-0.000170
1252	1.2447e+02	-9.8339	-39.878827	0.000436	4.358948	1.476852	-0.000174
1253	1.2457e+02	-9.8773	-40.076646	0.000497	4.967173	1.682924	-0.000199
1254	1.2467e+02	-9.9190	-40.258318	0.000456	4.561690	1.545542	-0.000183
1255	1.2477e+02	-9.9623	-40.423840	0.000416	4.156206	1.408161	-0.000166
1256	1.2487e+02	-9.9976	-40.605511	0.000456	4.561690	1.545542	-0.000183
1257	1.2497e+02	-10.0393	-40.758922	0.000385	3.852093	1.305125	-0.000154
1258	1.2507e+02	-10.0778	-40.928482	0.000426	4.257577	1.442506	-0.000170
1259	1.2517e+02	-10.1147	-41.138413	0.000527	5.271286	1.785960	-0.000211
1260	1.2527e+02	-10.1548	-41.291824	0.000385	3.852093	1.305125	-0.000154
1261	1.2537e+02	-10.1949	-41.425050	0.000335	3.345239	1.133398	-0.000134
1262	1.2547e+02	-10.2350	-41.606721	0.000456	4.561690	1.545542	-0.000183
1263	1.2557e+02	-10.2751	-41.808578	0.000507	5.068544	1.717269	-0.000203
1264	1.2567e+02	-10.3216	-41.994286	0.000466	4.663061	1.579888	-0.000187
1265	1.2577e+02	-10.3489	-42.155771	0.000405	4.054835	1.373815	-0.000162
1266	1.2587e+02	-10.3922	-42.321294	0.000416	4.156206	1.408161	-0.000166
1267	1.2597e+02	-10.4420	-42.482779	0.000405	4.054835	1.373815	-0.000162
1268	1.2607e+02	-10.4821	-42.648302	0.000416	4.156206	1.408161	-0.000166
1269	1.2617e+02	-10.5157	-42.838047	0.000476	4.764431	1.614233	-0.000191
1270	1.2627e+02	-10.5591	-42.991458	0.000385	3.852093	1.305125	-0.000154
1271	1.2636e+02	-10.6040	-43.169092	0.000446	4.460319	1.511197	-0.000179
1272	1.2646e+02	-10.6409	-43.334615	0.000416	4.156206	1.408161	-0.000166
1273	1.2656e+02	-10.6698	-43.508212	0.000436	4.358948	1.476852	-0.000174
1274	1.2666e+02	-10.7163	-43.685846	0.000446	4.460319	1.511197	-0.000179
1275	1.2676e+02	-10.7596	-43.867517	0.000456	4.561690	1.545542	-0.000183
1276	1.2686e+02	-10.7933	-44.077448	0.000527	5.271286	1.785960	-0.000211
1277	1.2696e+02	-10.8350	-44.162228	0.000213	2.128789	0.721253	-0.000085
1278	1.2706e+02	-10.8687	-44.368122	0.000517	5.169915	1.751615	-0.000207
1279	1.2716e+02	-10.9072	-44.505384	0.000345	3.446610	1.167743	-0.000138
1280	1.2726e+02	-10.9569	-44.666870	0.000405	4.054835	1.373815	-0.000162
1281	1.2736e+02	-11.0018	-44.840467	0.000436	4.358948	1.476852	-0.000174
1282	1.2746e+02	-11.0371	-45.038286	0.000497	4.967173	1.682924	-0.000199
1283	1.2756e+02	-11.0724	-45.264366	0.000568	5.676769	1.923342	-0.000227
1284	1.2766e+02	-11.1093	-45.353183	0.000223	2.230159	0.755598	-0.000089
1285	1.2776e+02	-11.1494	-45.555040	0.000507	5.068544	1.717269	-0.000203
1286	1.2786e+02	-11.1991	-45.764971	0.000527	5.271286	1.785960	-0.000211
1287	1.2796e+02	-11.2360	-45.890122	0.000314	3.142497	1.064707	-0.000126
1288	1.2806e+02	-11.2633	-46.023347	0.000335	3.345239	1.133398	-0.000134
1289	1.2816e+02	-11.3130	-46.213093	0.000476	4.764431	1.614233	-0.000191
1290	1.2826e+02	-11.3548	-46.394764	0.000456	4.561690	1.545542	-0.000183
1291	1.2835e+02	-11.3949	-46.592584	0.000497	4.967173	1.682924	-0.000199
1292	1.2845e+02	-11.4350	-46.717735	0.000314	3.142497	1.064707	-0.000126
1293	1.2855e+02	-11.4735	-46.911517	0.000487	4.865802	1.648578	-0.000195
1294	1.2865e+02	-11.5152	-47.068966	0.000395	3.953464	1.339470	-0.000158
1295	1.2875e+02	-11.5617	-47.266785	0.000497	4.967173	1.682924	-0.000199
1296	1.2885e+02	-11.5874	-47.416159	0.000375	3.750723	1.270779	-0.000150
1297	1.2895e+02	-11.6435	-47.577645	0.000405	4.054835	1.373815	-0.000162
1298	1.2905e+02	-11.6772	-47.771427	0.000487	4.865802	1.648578	-0.000195
1299	1.2915e+02	-11.7157	-48.005581	0.000588	5.879511	1.992032	-0.000235
1300	1.2925e+02	-11.7462	-48.130732	0.000314	3.142497	1.064707	-0.000126
1301	1.2935e+02	-11.7943	-48.300292	0.000426	4.257577	1.442506	-0.000170
1302	1.2945e+02	-11.8344	-48.449666	0.000375	3.750723	1.270779	-0.000150
1303	1.2955e+02	-11.8601	-48.582891	0.000335	3.345239	1.133398	-0.000134
1304	1.2965e+02	-11.9130	-48.760525	0.000446	4.460319	1.511197	-0.000179
1305	1.2975e+02	-11.9419	-48.946234	0.000466	4.663061	1.579888	-0.000187
1306	1.2985e+02	-11.9868	-49.107719	0.000405	4.054835	1.373815	-0.000162
1307	1.2995e+02	-12.0301	-49.289390	0.000456	4.561690	1.545542	-0.000183
1308	1.3005e+02	-12.0670	-49.458950	0.000426	4.257577	1.442506	-0.000170
1309	1.3015e+02	-12.1087	-49.640621	0.000456	4.561690	1.545542	-0.000183
1310	1.3025e+02	-12.1521	-49.814218	0.000436	4.358948	1.476852	-0.000174
1311	1.3034e+02	-12.1922	-49.975703	0.000405	4.054835	1.373815	-0.000162
1312	1.3044e+02	-12.2307	-50.141226	0.000416	4.156206	1.408161	-0.000166
1313	1.3054e+02	-12.2724	-50.294637	0.000385	3.852093	1.305125	-0.000154
1314	1.3064e+02	-12.3093	-50.468234	0.000436	4.358948	1.476852	-0.000174
1315	1.3074e+02	-12.3542	-50.682202	0.000537	5.372657	1.820305	-0.000215
1316	1.3084e+02	-12.3863	-50.847725	0.000416	4.156206	1.408161	-0.000166
1317	1.3094e+02	-12.4296	-51.005173	0.000395	3.953464	1.339470	-0.000158
1318	1.3104e+02	-12.4681	-51.174733	0.000426	4.257577	1.442506	-0.000170
1319	1.3114e+02	-12.5082	-51.320070	0.000365	3.649352	1.236434	-0.000146
1320	1.3124e+02	-12.5499	-51.517889	0.000497	4.967173	1.682924	-0.000199
1321	1.3134e+02	-12.5884	-51.675337	0.000395	3.953464	1.339470	-0.000158
1322	1.3144e+02	-12.6221	-51.861046	0.000466	4.663061	1.579888	-0.000187
1323	1.3154e+02	-12.6606	-51.986197	0.000314	3.142497	1.064707	-0.000126
1324	1.3164e+02	-12.7071	-52.184017	0.000497	4.967173	1.682924	-0.000199
1325	1.3174e+02	-12.7440	-52.349539	0.000416	4.156206	1.408161	-0.000166
1326	1.3184e+02	-12.7922	-52.547359	0.000497	4.967173	1.682924	-0.000199
1327	1.3194e+02	-12.8242	-52.676547	0.000324	3.243868	1.099052	-0.000130
1328	1.3204e+02	-12.8676	-52.846107	0.000426	4.257577	1.442506	-0.000170
1329	1.3214e+02	-12.9028	-53.031815	0.000466	4.663061	1.579888	-0.000187
1330	1.3224e+02	-12.9381	-53.189263	0.000395	3.953464	1.339470	-0.000158
1331	1.3234e+02	-12.9798	-53.330563	0.000355	3.547981	1.202088	-0.000142
1332	1.3243e+02	-13.0216	-53.524346	0.000487	4.865802	1.648578	-0.000195
1333	1.3253e+02	-13.0552	-53.673720	0.000375	3.750723	1.270779	-0.000150
1334	1.3263e+02	-13.0986	-53.859428	0.000466	4.663061	1.579888	-0.000187
1335	1.3273e+02	-13.1403	-53.984579	0.000314	3.142497	1.064707	-0.000126
1336	1.3283e+02	-13.1804	-54.174324	0.000476	4.764431	1.614233	-0.000191
1337	1.3293e+02	-13.2317	-54.368107	0.000487	4.865802	1.648578	-0.000195
1338	1.3303e+02	-13.2718	-54.489221	0.000304	3.041126	1.030362	-0.000122
1339	1.3313e+02	-13.3007	-54.691078	0.000507	5.068544	1.717269	-0.000203
1340	1.3323e+02	-13.3376	-54.816229	0.000314	3.142497	1.064707	-0.000126
1341	1.3333e+02	-13.3825	-55.014049	0.000497	4.967173	1.682924	-0.000199
1342	1.3343e+02	-13.4226	-55.151311	0.000345	3.446610	1.167743	-0.000138
1343	1.3353e+02	-13.4643	-55.324908	0.000436	4.358948	1.476852	-0.000174
1344	1.3363e+02	-13.5012	-55.466208	0.000355	3.547981	1.202088	-0.000142
1345	1.3373e+02	-13.5365	-55.643842	0.000446	4.460319	1.511197	-0.000179
1346	1.3383e+02	-13.5782	-55.773030	0.000324	3.243868	1.099052	-0.000130
1347	1.3393e+02	-13.6231	-56.027370	0.000639	6.386366	2.163759	-0.000256
1348	1.3403e+02	-13.6761	-56.148484	0.000304	3.041126	1.030362	-0.000122
1349	1.3413e+02	-13.7050	-56.330155	0.000456	4.561690	1.545542	-0.000183
1350	1.3423e+02	-13.7354	-56.487603	0.000395	3.953464	1.339470	-0.000158
1351	1.3432e+02	-13.7788	-56.645052	0.000395	3.953464	1.339470	-0.000158
1352	1.3442e+02	-13.8221	-56.838834	0.000487	4.865802	1.648578	-0.000195
1353	1.3452e+02	-13.8622	-56.980134	0.000355	3.547981	1.202088	-0.000142
1354	1.3462e+02	-13.9055	-57.165842	0.000466	4.663061	1.579888	-0.000187
1355	1.3472e+02	-13.9408	-57.282919	0.000294	2.939756	0.996016	-0.000118
1356	1.3482e+02	-13.9793	-57.488813	0.000517	5.169915	1.751615	-0.000207
1357	1.3492e+02	-14.0098	-57.638187	0.000375	3.750723	1.270779	-0.000150
1358	1.3502e+02	-14.0595	-57.791598	0.000385	3.852093	1.305125	-0.000154
1359	1.3512e+02	-14.0996	-57.916749	0.000314	3.142497	1.064707	-0.000126
1360	1.3522e+02	-14.1413	-58.146866	0.000578	5.778140	1.957687	-0.000231
1361	1.3532e+02	-14.1894	-58.263943	0.000294	2.939756	0.996016	-0.000118
1362	1.3542e+02	-14.2183	-58.457725	0.000487	4.865802	1.648578	-0.000195
1363	1.3552e+02	-14.2600	-58.607100	0.000375	3.750723	1.270779	-0.000150
1364	1.3562e+02	-14.3049	-58.756474	0.000375	3.750723	1.270779	-0.000150
1365	1.3572e+02	-14.3338	-58.930070	0.000436	4.358948	1.476852	-0.000174
1366	1.3582e+02	-14.3803	-59.091556	0.000405	4.054835	1.373815	-0.000162
1367	1.3592e+02	-14.4172	-59.289375	0.000497	4.967173	1.682924	-0.000199
1368	1.3602e+02	-14.4573	-59.475084	0.000466	4.663061	1.579888	-0.000187
1369	1.3612e+02	-14.4958	-59.632532	0.000395	3.953464	1.339470	-0.000158
1370	1.3622e+02	-14.5376	-59.753646	0.000304	3.041126	1.030362	-0.000122
1371	1.3631e+02	-14.5825	-59.927243	0.000436	4.358948	1.476852	-0.000174
1372	1.3641e+02	-14.6162	-60.108914	0.000456	4.561690	1.545542	-0.000183
1373	1.3651e+02	-14.6675	-60.230028	0.000304	3.041126	1.030362	-0.000122
1374	1.3661e+02	-14.7076	-60.395551	0.000416	4.156206	1.408161	-0.000166
1375	1.3671e+02	-14.7349	-60.565110	0.000426	4.257577	1.442506	-0.000170
1376	1.3681e+02	-14.7750	-60.734670	0.000426	4.257577	1.442506	-0.000170
1377	1.3691e+02	-14.8247	-60.916341	0.000456	4.561690	1.545542	-0.000183
1378	1.3701e+02	-14.8584	-61.069752	0.000385	3.852093	1.305125	-0.000154
1379	1.3711e+02	-14.9017	-61.215089	0.000365	3.649352	1.236434	-0.000146
1380	1.3721e+02	-14.9418	-61.384649	0.000426	4.257577	1.442506	-0.000170
1381	1.3731e+02	-14.9723	-61.554209	0.000426	4.257577	1.442506	-0.000170
1382	1.3741e+02	-15.0252	-61.731843	0.000446	4.460319	1.511197	-0.000179
1383	1.3751e+02	-15.0557	-61.905439	0.000436	4.358948	1.476852	-0.000174
1384	1.3761e+02	-15.0942	-61.994256	0.000223	2.230159	0.755598	-0.000089
1385	1.3771e+02	-15.1375	-62.171890	0.000446	4.460319	1.511197	-0.000179
1386	1.3781e+02	-15.1841	-62.353561	0.000456	4.561690	1.545542	-0.000183
1387	1.3791e+02	-15.2113	-62.535233	0.000456	4.561690	1.545542	-0.000183
1388	1.3801e+02	-15.2466	-62.664421	0.000324	3.243868	1.099052	-0.000130
1389	1.3811e+02	-15.3044	-62.850129	0.000466	4.663061	1.579888	-0.000187
1390	1.3821e+02	-15.3317	-63.015652	0.000416	4.156206	1.408161	-0.000166
1391	1.3831e+02	-15.3702	-63.189249	0.000436	4.358948	1.476852	-0.000174
1392	1.3840e+02	-15.4151	-63.314400	0.000314	3.142497	1.064707	-0.000126
1393	1.3850e+02	-15.4632	-63.483959	0.000426	4.257577	1.442506	-0.000170
1394	1.3860e+02	-15.4873	-63.633334	0.000375	3.750723	1.270779	-0.000150
1395	1.3870e+02	-15.5466	-63.819042	0.000466	4.663061	1.579888	-0.000187
1396	1.3880e+02	-15.5787	-63.911896	0.000233	2.331530	0.789944	-0.000093
1397	1.3890e+02	-15.6124	-64.113753	0.000507	5.068544	1.717269	-0.000203
1398	1.3900e+02	-15.6621	-64.242941	0.000324	3.243868	1.099052	-0.000130
1399	1.3910e+02	-15.6878	-64.464983	0.000558	5.575398	1.888996	-0.000223
1400	1.3920e+02	-15.7375	-64.586098	0.000304	3.041126	1.030362	-0.000122
1401	1.3930e+02	-15.7808	-64.800066	0.000537	5.372657	1.820305	-0.000215
1402	1.3940e+02	-15.8113	-64.945403	0.000365	3.649352	1.236434	-0.000146
1403	1.3950e+02	-15.8627	-65.135148	0.000476	4.764431	1.614233	-0.000191
1404	1.3960e+02	-15.8947	-65.280485	0.000365	3.649352	1.236434	-0.000146
1405	1.3970e+02	-15.9381	-65.425822	0.000365	3.649352	1.236434	-0.000146
1406	1.3980e+02	-15.9733	-65.575196	0.000375	3.750723	1.270779	-0.000150
1407	1.3990e+02	-16.0247	-65.732644	0.000395	3.953464	1.339470	-0.000158
1408	1.4000e+02	-16.0520	-65.906241	0.000436	4.358948	1.476852	-0.000174
1409	1.4010e+02	-16.0985	-66.067726	0.000405	4.054835	1.373815	-0.000162
1410	1.4020e+02	-16.1290	-66.229212	0.000405	4.054835	1.373815	-0.000162
1411	1.4029e+02	-16.1707	-66.402809	0.000436	4.358948	1.476852	-0.000174
1412	1.4039e+02	-16.2204	-66.568331	0.000416	4.156206	1.408161	-0.000166
1413	1.4049e+02	-16.2541	-66.754039	0.000466	4.663061	1.579888	-0.000187
1414	1.4059e+02	-16.2958	-66.915525	0.000405	4.054835	1.373815	-0.000162
1415	1.4069e+02	-16.3311	-67.125456	0.000527	5.271286	1.785960	-0.000211
1416	1.4079e+02	-16.3616	-67.307127	0.000456	4.561690	1.545542	-0.000183
1417	1.4089e+02	-16.4129	-67.468612	0.000405	4.054835	1.373815	-0.000162
1418	1.4099e+02	-16.4466	-67.654321	0.000466	4.663061	1.579888	-0.000187
1419	1.4109e+02	-16.4963	-67.848103	0.000487	4.865802	1.648578	-0.000195
1420	1.4119e+02	-16.5284	-67.977292	0.000324	3.243868	1.099052	-0.000130
1421	1.4129e+02	-16.5749	-68.175111	0.000497	4.967173	1.682924	-0.000199
1422	1.4139e+02	-16.6166	-68.336597	0.000405	4.054835	1.373815	-0.000162
1423	1.4149e+02	-16.6487	-68.534416	0.000497	4.967173	1.682924	-0.000199
1424	1.4159e+02	-16.6969	-68.760496	0.000568	5.676769	1.923342	-0.000227
1425	1.4169e+02	-16.7289	-68.897759	0.000345	3.446610	1.167743	-0.000138
1426	1.4179e+02	-16.7771	-69.059244	0.000405	4.054835	1.373815	-0.000162
1427	1.4189e+02	-16.8172	-69.289361	0.000578	5.778140	1.957687	-0.000231
1428	1.4199e+02	-16.8541	-69.434698	0.000365	3.649352	1.236434	-0.000146
1429	1.4209e+02	-16.8797	-69.648666	0.000537	5.372657	1.820305	-0.000215
1430	1.4219e+02	-16.9295	-69.890894	0.000608	6.082253	2.060723	-0.000243
1431	1.4228e+02	-16.9712	-70.092751	0.000507	5.068544	1.717269	-0.000203
1432	1.4238e+02	-17.0033	-70.217902	0.000314	3.142497	1.064707	-0.000126
1433	1.4248e+02	-17.0450	-70.456093	0.000598	5.980882	2.026378	-0.000239
1434	1.4258e+02	-17.0851	-70.641801	0.000466	4.663061	1.579888	-0.000187
1435	1.4268e+02	-17.1252	-70.831547	0.000476	4.764431	1.614233	-0.000191
1436	1.4278e+02	-17.1749	-71.025329	0.000487	4.865802	1.648578	-0.000195
1437	1.4288e+02	-17.2166	-71.316003	0.000730	7.298703	2.472868	-0.000292
1438	1.4298e+02	-17.2503	-71.445191	0.000324	3.243868	1.099052	-0.000130
1439	1.4308e+02	-17.2952	-71.675308	0.000578	5.778140	1.957687	-0.000231
1440	1.4318e+02	-17.3289	-71.909462	0.000588	5.879511	1.992032	-0.000235
1441	1.4328e+02	-17.3642	-72.066910	0.000395	3.953464	1.339470	-0.000158
1442	1.4338e+02	-17.4075	-72.325287	0.000649	6.487736	2.198105	-0.000260
1443	1.4348e+02	-17.4492	-72.539255	0.000537	5.372657	1.820305	-0.000215
1444	1.4358e+02	-17.4765	-72.729000	0.000476	4.764431	1.614233	-0.000191
1445	1.4368e+02	-17.5230	-72.967191	0.000598	5.980882	2.026378	-0.000239
1446	1.4378e+02	-17.5696	-73.189234	0.000558	5.575398	1.888996	-0.000223
1447	1.4388e+02	-17.6097	-73.411276	0.000558	5.575398	1.888996	-0.000223
1448	1.4398e+02	-17.6498	-73.661579	0.000628	6.284995	2.129414	-0.000252
1449	1.4408e+02	-17.6883	-73.899770	0.000598	5.980882	2.026378	-0.000239
1450	1.4418e+02	-17.7300	-74.089515	0.000476	4.764431	1.614233	-0.000191
1451	1.4428e+02	-17.7749	-74.347892	0.000649	6.487736	2.198105	-0.000260
1452	1.4437e+02	-17.8118	-74.557823	0.000527	5.271286	1.785960	-0.000211
1453	1.4447e+02	-17.8551	-74.820237	0.000659	6.589107	2.232450	-0.000264
1454	1.4457e+02	-17.8840	-75.070539	0.000628	6.284995	2.129414	-0.000252
1455	1.4467e+02	-17.9289	-75.324879	0.000639	6.386366	2.163759	-0.000256
1456	1.4477e+02	-17.9722	-75.559032	0.000588	5.879511	1.992032	-0.000235
1457	1.4487e+02	-18.0075	-75.809335	0.000628	6.284995	2.129414	-0.000252
1458	1.4497e+02	-18.0348	-76.083860	0.000689	6.893220	2.335486	-0.000276
1459	1.4507e+02	-18.0909	-76.334163	0.000628	6.284995	2.129414	-0.000252
1460	1.4517e+02	-18.1310	-76.616762	0.000710	7.095962	2.404177	-0.000284
1461	1.4527e+02	-18.1583	-76.887250	0.000679	6.791849	2.301141	-0.000272
1462	1.4537e+02	-18.2016	-77.145627	0.000649	6.487736	2.198105	-0.000260
1463	1.4547e+02	-18.2449	-77.416115	0.000679	6.791849	2.301141	-0.000272
1464	1.4557e+02	-18.2866	-77.706789	0.000730	7.298703	2.472868	-0.000292
1465	1.4567e+02	-18.3187	-77.993425	0.000720	7.197333	2.438522	-0.000288
1466	1.4577e+02	-18.3653	-78.259876	0.000669	6.690478	2.266795	-0.000268
1467	1.4587e+02	-18.4038	-78.562661	0.000760	7.602816	2.575904	-0.000304
1468	1.4597e+02	-18.4439	-78.873521	0.000781	7.805558	2.644595	-0.000312
1469	1.4607e+02	-18.4936	-79.119786	0.000618	6.183624	2.095068	-0.000248
1470	1.4617e+02	-18.5305	-79.426609	0.000770	7.704187	2.610249	-0.000308
1471	1.4626e+02	-18.5642	-79.753617	0.000821	8.211041	2.781976	-0.000329
1472	1.4636e+02	-18.6043	-80.064476	0.000781	7.805558	2.644595	-0.000312
1473	1.4646e+02	-18.6412	-80.407632	0.000862	8.616525	2.919358	-0.000345
1474	1.4656e+02	-18.6877	-80.682158	0.000689	6.893220	2.335486	-0.000276
1475	1.4666e+02	-18.7230	-81.017240	0.000841	8.413783	2.850667	-0.000337
1476	1.4676e+02	-18.7583	-81.340211	0.000811	8.109670	2.747631	-0.000325
1477	1.4686e+02	-18.8016	-81.663182	0.000811	8.109670	2.747631	-0.000325
1478	1.4696e+02	-18.8449	-82.022487	0.000902	9.022008	3.056739	-0.000361
1479	1.4706e+02	-18.8818	-82.341421	0.000801	8.008300	2.713285	-0.000321
1480	1.4716e+02	-18.9316	-82.733023	0.000983	9.832975	3.331502	-0.000394
1481	1.4726e+02	-18.9620	-83.019659	0.000720	7.197333	2.438522	-0.000288
1482	1.4736e+02	-19.0021	-83.391076	0.000933	9.326121	3.159775	-0.000373
1483	1.4746e+02	-19.0438	-83.766529	0.000943	9.427492	3.194121	-0.000377
1484	1.4756e+02	-19.0904	-84.117760	0.000882	8.819267	2.988048	-0.000353
1485	1.4766e+02	-19.1289	-84.489177	0.000933	9.326121	3.159775	-0.000373
1486	1.4776e+02	-19.1594	-84.852519	0.000912	9.123379	3.091085	-0.000365
1487	1.4786e+02	-19.1979	-85.264307	0.001034	10.339830	3.503229	-0.000414
1488	1.4796e+02	-19.2428	-85.635723	0.000933	9.326121	3.159775	-0.000373
1489	1.4806e+02	-19.2829	-86.063660	0.001075	10.745313	3.640611	-0.000430
1490	1.4816e+02	-19.3102	-86.439113	0.000943	9.427492	3.194121	-0.000377
1491	1.4825e+02	-19.3615	-86.863013	0.001064	10.643943	3.606265	-0.000426
1492	1.4835e+02	-19.3984	-87.294986	0.001085	10.846684	3.674956	-0.000434
1493	1.4845e+02	-19.4385	-87.674477	0.000953	9.528863	3.228466	-0.000381
1494	1.4855e+02	-19.4786	-88.130673	0.001145	11.454910	3.881028	-0.000458
1495	1.4865e+02	-19.5123	-88.554572	0.001064	10.643943	3.606265	-0.000426
1496	1.4875e+02	-19.5620	-88.998657	0.001115	11.150797	3.777992	-0.000446
1497	1.4885e+02	-19.6037	-89.422557	0.001064	10.643943	3.606265	-0.000426
1498	1.4895e+02	-19.6310	-89.878753	0.001145	11.454910	3.881028	-0.000458
1499	1.4905e+02	-19.6823	-90.326875	0.001125	11.252168	3.812338	-0.000450
1500	1.4915e+02	-19.7144	-90.783071	0.001145	11.454910	3.881028	-0.000458
1501	1.4925e+02	-19.7593	-91.267528	0.001216	12.164506	4.121446	-0.000487
1502	1.4935e+02	-19.7914	-91.731798	0.001166	11.657651	3.949719	-0.000467
1503	1.4945e+02	-19.8428	-92.220292	0.001227	12.265877	4.155791	-0.000491
1504	1.4955e+02	-19.8732	-92.781454	0.001409	14.090552	4.774008	-0.000564
1505	1.4965e+02	-19.9166	-93.273984	0.001237	12.367247	4.190137	-0.000495
1506	1.4975e+02	-19.9647	-93.754403	0.001206	12.063135	4.087101	-0.000483
1507	1.4985e+02	-19.9887	-94.287305	0.001338	13.380956	4.533591	-0.000536
1508	1.4995e+02	-19.9647	-94.545682	-0.000649	-6.487736	-2.198105	-0.000260
1509	1.5005e+02	-19.9085	-94.791947	-0.000618	-6.183624	-2.095068	-0.000248
1510	1.5015e+02	-19.8764	-94.997841	-0.000517	-5.169915	-1.751615	-0.000207
1511	1.5025e+02	-19.8363	-95.252181	-0.000639	-6.386366	-2.163759	-0.000256
1512	1.5034e+02	-19.7962	-95.441926	-0.000476	-4.764431	-1.614233	-0.000191
1513	1.5044e+02	-19.7561	-95.603411	-0.000405	-4.054835	-1.373815	-0.000162
1514	1.5054e+02	-19.7273	-95.797194	-0.000487	-4.865802	-1.648578	-0.000195
1515	1.5064e+02	-19.6807	-95.930419	-0.000335	-3.345239	-1.133398	-0.000134
1516	1.5074e+02	-19.6342	-96.055571	-0.000314	-3.142497	-1.064707	-0.000126
1517	1.5084e+02	-19.6085	-96.241279	-0.000466	-4.663061	-1.579888	-0.000187
1518	1.5094e+02	-19.5588	-96.338170	-0.000243	-2.432901	-0.824289	-0.000097
1519	1.5104e+02	-19.5187	-96.418913	-0.000203	-2.027418	-0.686908	-0.000081
1520	1.5114e+02	-19.4898	-96.535990	-0.000294	-2.939756	-0.996016	-0.000118
1521	1.5124e+02	-19.4449	-96.636918	-0.000253	-2.534272	-0.858635	-0.000101
1522	1.5134e+02	-19.3968	-96.644992	-0.000020	-0.202742	-0.068691	-0.000008
1523	1.5144e+02	-19.3711	-96.786292	-0.000355	-3.547981	-1.202088	-0.000142
1524	1.5154e+02	-19.3214	-96.838775	-0.000132	-1.317821	-0.446490	-0.000053
1525	1.5164e+02	-19.2749	-96.862998	-0.000061	-0.608225	-0.206072	-0.000024
1526	1.5174e+02	-19.2444	-96.935666	-0.000182	-1.824676	-0.618217	-0.000073
1527	1.5184e+02	-19.2011	-96.939703	-0.000010	-0.101371	-0.034345	-0.000004
1528	1.5194e+02	-19.1674	-96.980075	-0.000101	-1.013709	-0.343454	-0.000041
1529	1.5204e+02	-19.1257	-97.016409	-0.000091	-0.912338	-0.309108	-0.000037
1530	1.5214e+02	-19.0791	-97.040632	-0.000061	-0.608225	-0.206072	-0.000024
1531	1.5224e+02	-19.0455	-97.044669	-0.000010	-0.101371	-0.034345	-0.000004
1532	1.5233e+02	-19.0037	-97.068892	-0.000061	-0.608225	-0.206072	-0.000024
1533	1.5243e+02	-18.9652	-97.081003	-0.000030	-0.304113	-0.103036	-0.000012
1534	1.5253e+02	-18.9283	-97.089077	-0.000020	-0.202742	-0.068691	-0.000008
1535	1.5263e+02	-18.8850	-97.109263	-0.000051	-0.506854	-0.171727	-0.000020
1536	1.5273e+02	-18.8465	-97.052743	0.000142	1.419192	0.480835	0.000057
1537	1.5283e+02	-18.8128	-97.044669	0.000020	0.202742	0.068691	0.000008
1538	1.5293e+02	-18.7583	-97.000260	0.000112	1.115080	0.377799	0.000045
1539	1.5303e+02	-18.7326	-97.028520	-0.000071	-0.709596	-0.240418	-0.000028
1540	1.5313e+02	-18.6829	-96.911443	0.000294	2.939756	0.996016	0.000118
1541	1.5323e+02	-18.6412	-96.911443	0.000000	0.000000	0.000000	0.000000
1542	1.5333e+02	-18.6091	-96.867035	0.000112	1.115080	0.377799	0.000045
1543	1.5343e+02	-18.5610	-96.842812	0.000061	0.608225	0.206072	0.000024
1544	1.5353e+02	-18.5145	-96.737847	0.000264	2.635643	0.892980	0.000105
1545	1.5363e+02	-18.4759	-96.733809	0.000010	0.101371	0.034345	0.000004
1546	1.5373e+02	-18.4487	-96.661141	0.000182	1.824676	0.618217	0.000073
1547	1.5383e+02	-18.4038	-96.596547	0.000162	1.621934	0.549526	0.000065
1548	1.5393e+02	-18.3669	-96.556175	0.000101	1.013709	0.343454	0.000041
1549	1.5403e+02	-18.3252	-96.499656	0.000142	1.419192	0.480835	0.000057
1550	1.5413e+02	-18.2866	-96.418913	0.000203	2.027418	0.686908	0.000081
1551	1.5422e+02	-18.2481	-96.370467	0.000122	1.216451	0.412145	0.000049
1552	1.5432e+02	-18.2064	-96.285687	0.000213	2.128789	0.721253	0.000085
1553	1.5442e+02	-18.1663	-96.217056	0.000172	1.723305	0.583872	0.000069
1554	1.5452e+02	-18.1246	-96.128239	0.000223	2.230159	0.755598	0.000089
1555	1.5462e+02	-18.0877	-96.051533	0.000193	1.926047	0.652562	0.000077
1556	1.5472e+02	-18.0492	-95.962716	0.000223	2.230159	0.755598	0.000089
1557	1.5482e+02	-18.0059	-95.890048	0.000182	1.824676	0.618217	0.000073
1558	1.5492e+02	-17.9658	-95.813342	0.000193	1.926047	0.652562	0.000077
1559	1.5502e+02	-17.9321	-95.708377	0.000264	2.635643	0.892980	0.000105
1560	1.5512e+02	-17.8792	-95.635708	0.000182	1.824676	0.618217	0.000073
1561	1.5522e+02	-17.8359	-95.510557	0.000314	3.142497	1.064707	0.000126
1562	1.5532e+02	-17.8070	-95.454037	0.000142	1.419192	0.480835	0.000057
1563	1.5542e+02	-17.7605	-95.336960	0.000294	2.939756	0.996016	0.000118
1564	1.5552e+02	-17.7236	-95.199698	0.000345	3.446610	1.167743	0.000138
1565	1.5562e+02	-17.6883	-95.147215	0.000132	1.317821	0.446490	0.000053
1566	1.5572e+02	-17.6482	-95.030138	0.000294	2.939756	0.996016	0.000118
1567	1.5582e+02	-17.6161	-94.941321	0.000223	2.230159	0.755598	0.000089
1568	1.5592e+02	-17.5696	-94.828281	0.000284	2.838385	0.961671	0.000114
1569	1.5602e+02	-17.5311	-94.747539	0.000203	2.027418	0.686908	0.000081
1570	1.5612e+02	-17.4942	-94.638536	0.000274	2.737014	0.927325	0.000110
1571	1.5622e+02	-17.4460	-94.553756	0.000213	2.128789	0.721253	0.000085
1572	1.5631e+02	-17.4107	-94.408419	0.000365	3.649352	1.236434	0.000146
1573	1.5641e+02	-17.3642	-94.311528	0.000243	2.432901	0.824289	0.000097
1574	1.5651e+02	-17.3337	-94.194451	0.000294	2.939756	0.996016	0.000118
1575	1.5661e+02	-17.2888	-94.085448	0.000274	2.737014	0.927325	0.000110
1576	1.5671e+02	-17.2567	-93.960297	0.000314	3.142497	1.064707	0.000126
1577	1.5681e+02	-17.2102	-93.855332	0.000264	2.635643	0.892980	0.000105
1578	1.5691e+02	-17.1701	-93.726143	0.000324	3.243868	1.099052	0.000130
1579	1.5701e+02	-17.1476	-93.641363	0.000213	2.128789	0.721253	0.000085
1580	1.5711e+02	-17.0931	-93.500064	0.000355	3.547981	1.202088	0.000142
1581	1.5721e+02	-17.0498	-93.395098	0.000264	2.635643	0.892980	0.000105
1582	1.5731e+02	-17.0129	-93.265910	0.000324	3.243868	1.099052	0.000130
1583	1.5741e+02	-16.9696	-93.148833	0.000294	2.939756	0.996016	0.000118
1584	1.5751e+02	-16.9327	-93.051942	0.000243	2.432901	0.824289	0.000097
1585	1.5761e+02	-16.8846	-92.942939	0.000274	2.737014	0.927325	0.000110
1586	1.5771e+02	-16.8557	-92.833936	0.000274	2.737014	0.927325	0.000110
1587	1.5781e+02	-16.8027	-92.672451	0.000405	4.054835	1.373815	0.000162
1588	1.5791e+02	-16.7706	-92.587671	0.000213	2.128789	0.721253	0.000085
1589	1.5801e+02	-16.7225	-92.430223	0.000395	3.953464	1.339470	0.000158
1590	1.5811e+02	-16.6856	-92.337369	0.000233	2.331530	0.789944	0.000093
1591	1.5821e+02	-16.6503	-92.200106	0.000345	3.446610	1.167743	0.000138
1592	1.5830e+02	-16.6086	-92.107252	0.000233	2.331530	0.789944	0.000093
1593	1.5840e+02	-16.5653	-91.945766	0.000405	4.054835	1.373815	0.000162
1594	1.5850e+02	-16.5348	-91.820615	0.000314	3.142497	1.064707	0.000126
1595	1.5860e+02	-16.4883	-91.723724	0.000243	2.432901	0.824289	0.000097
1596	1.5870e+02	-16.4514	-91.610684	0.000284	2.838385	0.961671	0.000114
1597	1.5880e+02	-16.4177	-91.437087	0.000436	4.358948	1.476852	0.000174
1598	1.5890e+02	-16.3760	-91.364419	0.000182	1.824676	0.618217	0.000073
1599	1.5900e+02	-16.3343	-91.243305	0.000304	3.041126	1.030362	0.000122
1600	1.5910e+02	-16.2878	-91.114116	0.000324	3.243868	1.099052	0.000130
1601	1.5920e+02	-16.2557	-90.948594	0.000416	4.156206	1.408161	0.000166
1602	1.5930e+02	-16.2220	-90.843628	0.000264	2.635643	0.892980	0.000105
1603	1.5940e+02	-16.1723	-90.678106	0.000416	4.156206	1.408161	0.000166
1604	1.5950e+02	-16.1322	-90.573140	0.000264	2.635643	0.892980	0.000105
1605	1.5960e+02	-16.1033	-90.496435	0.000193	1.926047	0.652562	0.000077
1606	1.5970e+02	-16.0552	-90.298615	0.000497	4.967173	1.682924	0.000199
1607	1.5980e+02	-16.0183	-90.213835	0.000213	2.128789	0.721253	0.000085
1608	1.5990e+02	-15.9814	-90.080610	0.000335	3.345239	1.133398	0.000134
1609	1.6000e+02	-15.9445	-89.951421	0.000324	3.243868	1.099052	0.000130
1610	1.6010e+02	-15.8915	-89.814159	0.000345	3.446610	1.167743	0.000138
1611	1.6019e+02	-15.8610	-89.660748	0.000385	3.852093	1.305125	0.000154
1612	1.6029e+02	-15.8193	-89.551745	0.000274	2.737014	0.927325	0.000110
1613	1.6039e+02	-15.7744	-89.458891	0.000233	2.331530	0.789944	0.000093
1614	1.6049e+02	-15.7343	-89.297405	0.000405	4.054835	1.373815	0.000162
1615	1.6059e+02	-15.6990	-89.200514	0.000243	2.432901	0.824289	0.000097
1616	1.6069e+02	-15.6541	-89.039029	0.000405	4.054835	1.373815	0.000162
1617	1.6079e+02	-15.6076	-88.885618	0.000385	3.852093	1.305125	0.000154
1618	1.6089e+02	-15.5803	-88.784689	0.000253	2.534272	0.858635	0.000101
1619	1.6099e+02	-15.5370	-88.691835	0.000233	2.331530	0.789944	0.000093
1620	1.6109e+02	-15.4985	-88.514201	0.000446	4.460319	1.511197	0.000179
1621	1.6119e+02	-15.4600	-88.344641	0.000426	4.257577	1.442506	0.000170
1622	1.6129e+02	-15.4135	-88.271973	0.000182	1.824676	0.618217	0.000073
1623	1.6139e+02	-15.3766	-88.138747	0.000335	3.345239	1.133398	0.000134
1624	1.6149e+02	-15.3397	-88.045893	0.000233	2.331530	0.789944	0.000093
1625	1.6159e+02	-15.2948	-87.839999	0.000517	5.169915	1.751615	0.000207
1626	1.6169e+02	-15.2530	-87.678514	0.000405	4.054835	1.373815	0.000162
1627	1.6179e+02	-15.2226	-87.605846	0.000182	1.824676	0.618217	0.000073
1628	1.6189e+02	-15.1809	-87.460509	0.000365	3.649352	1.236434	0.000146
1629	1.6199e+02	-15.1375	-87.299023	0.000405	4.054835	1.373815	0.000162
1630	1.6209e+02	-15.0942	-87.141575	0.000395	3.953464	1.339470	0.000158
1631	1.6219e+02	-15.0541	-87.089092	0.000132	1.317821	0.446490	0.000053
1632	1.6228e+02	-15.0188	-86.879161	0.000527	5.271286	1.785960	0.000211
1633	1.6238e+02	-14.9755	-86.770158	0.000274	2.737014	0.927325	0.000110
1634	1.6248e+02	-14.9418	-86.632896	0.000345	3.446610	1.167743	0.000138
1635	1.6258e+02	-14.8969	-86.536005	0.000243	2.432901	0.824289	0.000097
1636	1.6268e+02	-14.8616	-86.390668	0.000365	3.649352	1.236434	0.000146
1637	1.6278e+02	-14.8135	-86.257442	0.000335	3.345239	1.133398	0.000134
1638	1.6288e+02	-14.7766	-86.120180	0.000345	3.446610	1.167743	0.000138
1639	1.6298e+02	-14.7269	-85.990991	0.000324	3.243868	1.099052	0.000130
1640	1.6308e+02	-14.7028	-85.873914	0.000294	2.939756	0.996016	0.000118
1641	1.6318e+02	-14.6595	-85.748763	0.000314	3.142497	1.064707	0.000126
1642	1.6328e+02	-14.6146	-85.571129	0.000446	4.460319	1.511197	0.000179
1643	1.6338e+02	-14.5761	-85.429829	0.000355	3.547981	1.202088	0.000142
1644	1.6348e+02	-14.5392	-85.292567	0.000345	3.446610	1.167743	0.000138
1645	1.6358e+02	-14.4975	-85.167416	0.000314	3.142497	1.064707	0.000126
1646	1.6368e+02	-14.4525	-85.050339	0.000294	2.939756	0.996016	0.000118
1647	1.6378e+02	-14.4237	-84.896927	0.000385	3.852093	1.305125	0.000154
1648	1.6388e+02	-14.3755	-84.763702	0.000335	3.345239	1.133398	0.000134
1649	1.6398e+02	-14.3322	-84.646625	0.000294	2.939756	0.996016	0.000118
1650	1.6408e+02	-14.3033	-84.513400	0.000335	3.345239	1.133398	0.000134
1651	1.6418e+02	-14.2616	-84.343840	0.000426	4.257577	1.442506	0.000170
1652	1.6427e+02	-14.2311	-84.190429	0.000385	3.852093	1.305125	0.000154
1653	1.6437e+02	-14.1830	-84.093537	0.000243	2.432901	0.824289	0.000097
1654	1.6447e+02	-14.1461	-83.932052	0.000405	4.054835	1.373815	0.000162
1655	1.6457e+02	-14.1092	-83.782678	0.000375	3.750723	1.270779	0.000150
1656	1.6467e+02	-14.0563	-83.677712	0.000264	2.635643	0.892980	0.000105
1657	1.6477e+02	-14.0242	-83.536413	0.000355	3.547981	1.202088	0.000142
1658	1.6487e+02	-13.9793	-83.411261	0.000314	3.142497	1.064707	0.000126
1659	1.6497e+02	-13.9376	-83.278036	0.000335	3.345239	1.133398	0.000134
1660	1.6507e+02	-13.8927	-83.108476	0.000426	4.257577	1.442506	0.000170
1661	1.6517e+02	-13.8702	-82.991399	0.000294	2.939756	0.996016	0.000118
1662	1.6527e+02	-13.8253	-82.813765	0.000446	4.460319	1.511197	0.000179
1663	1.6537e+02	-13.7755	-82.716874	0.000243	2.432901	0.824289	0.000097
1664	1.6547e+02	-13.7483	-82.591723	0.000314	3.142497	1.064707	0.000126
1665	1.6557e+02	-13.7066	-82.418126	0.000436	4.358948	1.476852	0.000174
1666	1.6567e+02	-13.6681	-82.305086	0.000284	2.838385	0.961671	0.000114
1667	1.6577e+02	-13.6312	-82.135527	0.000426	4.257577	1.442506	0.000170
1668	1.6587e+02	-13.5846	-82.022487	0.000284	2.838385	0.961671	0.000114
1669	1.6597e+02	-13.5477	-81.873113	0.000375	3.750723	1.270779	0.000150
1670	1.6607e+02	-13.4980	-81.703553	0.000426	4.257577	1.442506	0.000170
1671	1.6616e+02	-13.4675	-81.582439	0.000304	3.041126	1.030362	0.000122
1672	1.6626e+02	-13.4258	-81.437102	0.000365	3.649352	1.236434	0.000146
1673	1.6636e+02	-13.3857	-81.303877	0.000335	3.345239	1.133398	0.000134
1674	1.6646e+02	-13.3472	-81.138354	0.000416	4.156206	1.408161	0.000166
1675	1.6656e+02	-13.3103	-81.037426	0.000253	2.534272	0.858635	0.000101
1676	1.6666e+02	-13.2574	-80.871903	0.000416	4.156206	1.408161	0.000166
1677	1.6676e+02	-13.2301	-80.754826	0.000294	2.939756	0.996016	0.000118
1678	1.6686e+02	-13.1820	-80.601415	0.000385	3.852093	1.305125	0.000154
1679	1.6696e+02	-13.1387	-80.423781	0.000446	4.460319	1.511197	0.000179
1680	1.6706e+02	-13.1146	-80.306704	0.000294	2.939756	0.996016	0.000118
1681	1.6716e+02	-13.0601	-80.173479	0.000335	3.345239	1.133398	0.000134
1682	1.6726e+02	-13.0232	-80.028142	0.000365	3.649352	1.236434	0.000146
1683	1.6736e+02	-12.9879	-79.866656	0.000405	4.054835	1.373815	0.000162
1684	1.6746e+02	-12.9430	-79.725357	0.000355	3.547981	1.202088	0.000142
1685	1.6756e+02	-12.9061	-79.592131	0.000335	3.345239	1.133398	0.000134
1686	1.6766e+02	-12.8643	-79.430646	0.000405	4.054835	1.373815	0.000162
1687	1.6776e+02	-12.8162	-79.293383	0.000345	3.446610	1.167743	0.000138
1688	1.6786e+02	-12.7954	-79.139972	0.000385	3.852093	1.305125	0.000154
1689	1.6796e+02	-12.7440	-79.010784	0.000324	3.243868	1.099052	0.000130
1690	1.6806e+02	-12.6991	-78.885632	0.000314	3.142497	1.064707	0.000126
1691	1.6816e+02	-12.6670	-78.744333	0.000355	3.547981	1.202088	0.000142
1692	1.6825e+02	-12.6221	-78.550550	0.000487	4.865802	1.648578	0.000195
1693	1.6835e+02	-12.5948	-78.425399	0.000314	3.142497	1.064707	0.000126
1694	1.6845e+02	-12.5467	-78.280062	0.000365	3.649352	1.236434	0.000146
1695	1.6855e+02	-12.5098	-78.118577	0.000405	4.054835	1.373815	0.000162
1696	1.6865e+02	-12.4745	-78.001500	0.000294	2.939756	0.996016	0.000118
1697	1.6875e+02	-12.4280	-77.852126	0.000375	3.750723	1.270779	0.000150
1698	1.6885e+02	-12.3831	-77.698714	0.000385	3.852093	1.305125	0.000154
1699	1.6895e+02	-12.3510	-77.573563	0.000314	3.142497	1.064707	0.000126
1700	1.6905e+02	-12.3093	-77.432263	0.000355	3.547981	1.202088	0.000142
1701	1.6915e+02	-12.2660	-77.286927	0.000365	3.649352	1.236434	0.000146
1702	1.6925e+02	-12.2194	-77.117367	0.000426	4.257577	1.442506	0.000170
1703	1.6935e+02	-12.1858	-76.988179	0.000324	3.243868	1.099052	0.000130
1704	1.6945e+02	-12.1505	-76.834767	0.000385	3.852093	1.305125	0.000154
1705	1.6955e+02	-12.1071	-76.673282	0.000405	4.054835	1.373815	0.000162
1706	1.6965e+02	-12.0638	-76.527945	0.000365	3.649352	1.236434	0.000146
1707	1.6975e+02	-12.0317	-76.386645	0.000355	3.547981	1.202088	0.000142
1708	1.6985e+02	-11.9900	-76.241308	0.000365	3.649352	1.236434	0.000146
1709	1.6995e+02	-11.9499	-76.116157	0.000314	3.142497	1.064707	0.000126
1710	1.7005e+02	-11.9114	-75.995043	0.000304	3.041126	1.030362	0.000122
1711	1.7015e+02	-11.8713	-75.813372	0.000456	4.561690	1.545542	0.000183
1712	1.7024e+02	-11.8424	-75.643812	0.000426	4.257577	1.442506	0.000170
1713	1.7034e+02	-11.7863	-75.454067	0.000476	4.764431	1.614233	0.000191
1714	1.7044e+02	-11.7558	-75.332953	0.000304	3.041126	1.030362	0.000122
1715	1.7054e+02	-11.7173	-75.203765	0.000324	3.243868	1.099052	0.000130
1716	1.7064e+02	-11.6660	-75.034205	0.000426	4.257577	1.442506	0.000170
1717	1.7074e+02	-11.6227	-74.888868	0.000365	3.649352	1.236434	0.000146
1718	1.7084e+02	-11.5858	-74.739494	0.000375	3.750723	1.270779	0.000150
1719	1.7094e+02	-11.5489	-74.606268	0.000335	3.345239	1.133398	0.000134
1720	1.7104e+02	-11.5136	-74.432672	0.000436	4.358948	1.476852	0.000174
1721	1.7114e+02	-11.4687	-74.255038	0.000446	4.460319	1.511197	0.000179
1722	1.7124e+02	-11.4350	-74.105664	0.000375	3.750723	1.270779	0.000150
1723	1.7134e+02	-11.3868	-73.992624	0.000284	2.838385	0.961671	0.000114
1724	1.7144e+02	-11.3596	-73.819027	0.000436	4.358948	1.476852	0.000174
1725	1.7154e+02	-11.3098	-73.685801	0.000335	3.345239	1.133398	0.000134
1726	1.7164e+02	-11.2681	-73.508168	0.000446	4.460319	1.511197	0.000179
1727	1.7174e+02	-11.2328	-73.362831	0.000365	3.649352	1.236434	0.000146
1728	1.7184e+02	-11.1895	-73.221531	0.000355	3.547981	1.202088	0.000142
1729	1.7194e+02	-11.1542	-73.051971	0.000426	4.257577	1.442506	0.000170
1730	1.7204e+02	-11.1157	-72.886449	0.000416	4.156206	1.408161	0.000166
1731	1.7213e+02	-11.0756	-72.724963	0.000405	4.054835	1.373815	0.000162
1732	1.7223e+02	-11.0339	-72.587701	0.000345	3.446610	1.167743	0.000138
1733	1.7233e+02	-10.9906	-72.426215	0.000405	4.054835	1.373815	0.000162
1734	1.7243e+02	-10.9537	-72.276841	0.000375	3.750723	1.270779	0.000150
1735	1.7253e+02	-10.9088	-72.087096	0.000476	4.764431	1.614233	0.000191
1736	1.7263e+02	-10.8751	-71.953870	0.000335	3.345239	1.133398	0.000134
1737	1.7273e+02	-10.8206	-71.808533	0.000365	3.649352	1.236434	0.000146
1738	1.7283e+02	-10.7917	-71.679345	0.000324	3.243868	1.099052	0.000130
1739	1.7293e+02	-10.7419	-71.525934	0.000385	3.852093	1.305125	0.000154
1740	1.7303e+02	-10.7195	-71.320040	0.000517	5.169915	1.751615	0.000207
1741	1.7313e+02	-10.6778	-71.126257	0.000487	4.865802	1.648578	0.000195
1742	1.7323e+02	-10.6280	-71.021292	0.000264	2.635643	0.892980	0.000105
1743	1.7333e+02	-10.5976	-70.811361	0.000527	5.271286	1.785960	0.000211
1744	1.7343e+02	-10.5462	-70.682173	0.000324	3.243868	1.099052	0.000130
1745	1.7353e+02	-10.5093	-70.500501	0.000456	4.561690	1.545542	0.000183
1746	1.7363e+02	-10.4676	-70.427833	0.000182	1.824676	0.618217	0.000073
1747	1.7373e+02	-10.4355	-70.221939	0.000517	5.169915	1.751615	0.000207
1748	1.7383e+02	-10.3954	-70.060454	0.000405	4.054835	1.373815	0.000162
1749	1.7393e+02	-10.3473	-69.898968	0.000405	4.054835	1.373815	0.000162
1750	1.7403e+02	-10.3184	-69.798040	0.000253	2.534272	0.858635	0.000101
1751	1.7413e+02	-10.2815	-69.580034	0.000547	5.474028	1.854651	0.000219
1752	1.7422e+02	-10.2350	-69.462958	0.000294	2.939756	0.996016	0.000118
1753	1.7432e+02	-10.1965	-69.285324	0.000446	4.460319	1.511197	0.000179
1754	1.7442e+02	-10.1644	-69.103652	0.000456	4.561690	1.545542	0.000183
1755	1.7452e+02	-10.1211	-68.954278	0.000375	3.750723	1.270779	0.000150
1756	1.7462e+02	-10.0794	-68.849313	0.000264	2.635643	0.892980	0.000105
1757	1.7472e+02	-10.0313	-68.647456	0.000507	5.068544	1.717269	0.000203
1758	1.7482e+02	-9.9992	-68.481934	0.000416	4.156206	1.408161	0.000166
1759	1.7492e+02	-9.9543	-68.300262	0.000456	4.561690	1.545542	0.000183
1760	1.7502e+02	-9.9190	-68.118591	0.000456	4.561690	1.545542	0.000183
1761	1.7512e+02	-9.8837	-67.981329	0.000345	3.446610	1.167743	0.000138
1762	1.7522e+02	-9.8388	-67.835992	0.000365	3.649352	1.236434	0.000146
1763	1.7532e+02	-9.8035	-67.718915	0.000294	2.939756	0.996016	0.000118
1764	1.7542e+02	-9.7537	-67.513021	0.000517	5.169915	1.751615	0.000207
1765	1.7552e+02	-9.7136	-67.367684	0.000365	3.649352	1.236434	0.000146
1766	1.7562e+02	-9.6655	-67.181976	0.000466	4.663061	1.579888	0.000187
1767	1.7572e+02	-9.6366	-67.044713	0.000345	3.446610	1.167743	0.000138
1768	1.7582e+02	-9.6126	-66.899376	0.000365	3.649352	1.236434	0.000146
1769	1.7592e+02	-9.5516	-66.717705	0.000456	4.561690	1.545542	0.000183
1770	1.7602e+02	-9.5163	-66.580443	0.000345	3.446610	1.167743	0.000138
1771	1.7612e+02	-9.4746	-66.410883	0.000426	4.257577	1.442506	0.000170
1772	1.7621e+02	-9.4345	-66.225175	0.000466	4.663061	1.579888	0.000187
1773	1.7631e+02	-9.4024	-66.083875	0.000355	3.547981	1.202088	0.000142
1774	1.7641e+02	-9.3607	-65.902204	0.000456	4.561690	1.545542	0.000183
1775	1.7651e+02	-9.3286	-65.736681	0.000416	4.156206	1.408161	0.000166
1776	1.7661e+02	-9.2773	-65.563084	0.000436	4.358948	1.476852	0.000174
1777	1.7671e+02	-9.2500	-65.417747	0.000365	3.649352	1.236434	0.000146
1778	1.7681e+02	-9.1987	-65.272411	0.000365	3.649352	1.236434	0.000146
1779	1.7691e+02	-9.1602	-65.114962	0.000395	3.953464	1.339470	0.000158
1780	1.7701e+02	-9.1104	-64.941365	0.000436	4.358948	1.476852	0.000174
1781	1.7711e+02	-9.0832	-64.779880	0.000405	4.054835	1.373815	0.000162
1782	1.7721e+02	-9.0399	-64.598209	0.000456	4.561690	1.545542	0.000183
1783	1.7731e+02	-8.9997	-64.420575	0.000446	4.460319	1.511197	0.000179
1784	1.7741e+02	-8.9677	-64.315609	0.000264	2.635643	0.892980	0.000105
1785	1.7751e+02	-8.9163	-64.097604	0.000547	5.474028	1.854651	0.000219
1786	1.7761e+02	-8.8874	-63.992639	0.000264	2.635643	0.892980	0.000105
1787	1.7771e+02	-8.8345	-63.750410	0.000608	6.082253	2.060723	0.000243
1788	1.7781e+02	-8.8024	-63.645445	0.000264	2.635643	0.892980	0.000105
1789	1.7791e+02	-8.7655	-63.431477	0.000537	5.372657	1.820305	0.000215
1790	1.7801e+02	-8.7142	-63.278066	0.000385	3.852093	1.305125	0.000154
1791	1.7810e+02	-8.6837	-63.136766	0.000355	3.547981	1.202088	0.000142
1792	1.7820e+02	-8.6372	-62.930872	0.000517	5.169915	1.751615	0.000207
1793	1.7830e+02	-8.6099	-62.789572	0.000355	3.547981	1.202088	0.000142
1794	1.7840e+02	-8.5602	-62.620012	0.000426	4.257577	1.442506	0.000170
1795	1.7850e+02	-8.5217	-62.474676	0.000365	3.649352	1.236434	0.000146
1796	1.7860e+02	-8.4848	-62.293004	0.000456	4.561690	1.545542	0.000183
1797	1.7870e+02	-8.4447	-62.143630	0.000375	3.750723	1.270779	0.000150
1798	1.7880e+02	-8.4014	-61.953885	0.000476	4.764431	1.614233	0.000191
1799	1.7890e+02	-8.3597	-61.820660	0.000335	3.345239	1.133398	0.000134
1800	1.7900e+02	-8.3372	-61.671286	0.000375	3.750723	1.270779	0.000150
1801	1.7910e+02	-8.2810	-61.513837	0.000395	3.953464	1.339470	0.000158
1802	1.7920e+02	-8.2474	-61.328129	0.000466	4.663061	1.579888	0.000187
1803	1.7930e+02	-8.1976	-61.162606	0.000416	4.156206	1.408161	0.000166
1804	1.7940e+02	-8.1639	-61.021307	0.000355	3.547981	1.202088	0.000142
1805	1.7950e+02	-8.1206	-60.795227	0.000568	5.676769	1.923342	0.000227
1806	1.7960e+02	-8.0918	-60.653927	0.000355	3.547981	1.202088	0.000142
1807	1.7970e+02	-8.0420	-60.536850	0.000294	2.939756	0.996016	0.000118
1808	1.7980e+02	-8.0228	-60.339031	0.000497	4.967173	1.682924	0.000199
1809	1.7990e+02	-7.9634	-60.145248	0.000487	4.865802	1.648578	0.000195
1810	1.8000e+02	-7.9217	-59.991837	0.000385	3.852093	1.305125	0.000154
1811	1.8009e+02	-7.8816	-59.830352	0.000405	4.054835	1.373815	0.000162
1812	1.8019e+02	-7.8527	-59.656755	0.000436	4.358948	1.476852	0.000174
1813	1.8029e+02	-7.8142	-59.507381	0.000375	3.750723	1.270779	0.000150
1814	1.8039e+02	-7.7693	-59.329747	0.000446	4.460319	1.511197	0.000179
1815	1.8049e+02	-7.7244	-59.164224	0.000416	4.156206	1.408161	0.000166
1816	1.8059e+02	-7.6891	-59.002739	0.000405	4.054835	1.373815	0.000162
1817	1.8069e+02	-7.6426	-58.825105	0.000446	4.460319	1.511197	0.000179
1818	1.8079e+02	-7.6137	-58.667657	0.000395	3.953464	1.339470	0.000158
1819	1.8089e+02	-7.5736	-58.494060	0.000436	4.358948	1.476852	0.000174
1820	1.8099e+02	-7.5335	-58.340649	0.000385	3.852093	1.305125	0.000154
1821	1.8109e+02	-7.4902	-58.183200	0.000395	3.953464	1.339470	0.000158
1822	1.8119e+02	-7.4533	-58.025752	0.000395	3.953464	1.339470	0.000158
1823	1.8129e+02	-7.4132	-57.860229	0.000416	4.156206	1.408161	0.000166
1824	1.8139e+02	-7.3714	-57.682595	0.000446	4.460319	1.511197	0.000179
1825	1.8149e+02	-7.3346	-57.533221	0.000375	3.750723	1.270779	0.000150
1826	1.8159e+02	-7.2912	-57.367699	0.000416	4.156206	1.408161	0.000166
1827	1.8169e+02	-7.2495	-57.198139	0.000426	4.257577	1.442506	0.000170
1828	1.8179e+02	-7.2078	-56.980134	0.000547	5.474028	1.854651	0.000219
1829	1.8189e+02	-7.1725	-56.838834	0.000355	3.547981	1.202088	0.000142
1830	1.8199e+02	-7.1100	-56.685423	0.000385	3.852093	1.305125	0.000154
1831	1.8209e+02	-7.0843	-56.491640	0.000487	4.865802	1.648578	0.000195
1832	1.8218e+02	-7.0490	-56.314006	0.000446	4.460319	1.511197	0.000179
1833	1.8228e+02	-7.0105	-56.168670	0.000365	3.649352	1.236434	0.000146
1834	1.8238e+02	-6.9720	-55.978924	0.000476	4.764431	1.614233	0.000191
1835	1.8248e+02	-6.9271	-55.837624	0.000355	3.547981	1.202088	0.000142
1836	1.8258e+02	-6.8966	-55.639805	0.000497	4.967173	1.682924	0.000199
1837	1.8268e+02	-6.8549	-55.490431	0.000375	3.750723	1.270779	0.000150
1838	1.8278e+02	-6.8196	-55.320871	0.000426	4.257577	1.442506	0.000170
1839	1.8288e+02	-6.7634	-55.123051	0.000497	4.967173	1.682924	0.000199
1840	1.8298e+02	-6.7282	-54.933306	0.000476	4.764431	1.614233	0.000191
1841	1.8308e+02	-6.6913	-54.796043	0.000345	3.446610	1.167743	0.000138
1842	1.8318e+02	-6.6576	-54.614372	0.000456	4.561690	1.545542	0.000183
1843	1.8328e+02	-6.6078	-54.469035	0.000365	3.649352	1.236434	0.000146
1844	1.8338e+02	-6.5758	-54.287364	0.000456	4.561690	1.545542	0.000183
1845	1.8348e+02	-6.5260	-54.089545	0.000497	4.967173	1.682924	0.000199
1846	1.8358e+02	-6.4843	-53.919985	0.000426	4.257577	1.442506	0.000170
1847	1.8368e+02	-6.4506	-53.738314	0.000456	4.561690	1.545542	0.000183
1848	1.8378e+02	-6.4137	-53.609125	0.000324	3.243868	1.099052	0.000130
1849	1.8388e+02	-6.3688	-53.423417	0.000466	4.663061	1.579888	0.000187
1850	1.8398e+02	-6.3303	-53.270006	0.000385	3.852093	1.305125	0.000154
1851	1.8407e+02	-6.2854	-53.064112	0.000517	5.169915	1.751615	0.000207
1852	1.8417e+02	-6.2565	-52.882441	0.000456	4.561690	1.545542	0.000183
1853	1.8427e+02	-6.2164	-52.720956	0.000405	4.054835	1.373815	0.000162
1854	1.8437e+02	-6.1747	-52.559470	0.000405	4.054835	1.373815	0.000162
1855	1.8447e+02	-6.1314	-52.365688	0.000487	4.865802	1.648578	0.000195
1856	1.8457e+02	-6.1025	-52.196128	0.000426	4.257577	1.442506	0.000170
1857	1.8467e+02	-6.0624	-52.006383	0.000476	4.764431	1.614233	0.000191
1858	1.8477e+02	-6.0223	-51.836823	0.000426	4.257577	1.442506	0.000170
1859	1.8487e+02	-5.9710	-51.667263	0.000426	4.257577	1.442506	0.000170
1860	1.8497e+02	-5.9389	-51.538075	0.000324	3.243868	1.099052	0.000130
1861	1.8507e+02	-5.8940	-51.364478	0.000436	4.358948	1.476852	0.000174
1862	1.8517e+02	-5.8538	-51.170695	0.000487	4.865802	1.648578	0.000195
1863	1.8527e+02	-5.8137	-51.001136	0.000426	4.257577	1.442506	0.000170
1864	1.8537e+02	-5.7817	-50.815428	0.000466	4.663061	1.579888	0.000187
1865	1.8547e+02	-5.7415	-50.649905	0.000416	4.156206	1.408161	0.000166
1866	1.8557e+02	-5.6934	-50.452085	0.000497	4.967173	1.682924	0.000199
1867	1.8567e+02	-5.6533	-50.290600	0.000405	4.054835	1.373815	0.000162
1868	1.8577e+02	-5.6084	-50.056446	0.000588	5.879511	1.992032	0.000235
1869	1.8587e+02	-5.5843	-49.951480	0.000264	2.635643	0.892980	0.000105
1870	1.8597e+02	-5.5314	-49.781921	0.000426	4.257577	1.442506	0.000170
1871	1.8606e+02	-5.4881	-49.616398	0.000416	4.156206	1.408161	0.000166
1872	1.8616e+02	-5.4576	-49.414541	0.000507	5.068544	1.717269	0.000203
1873	1.8626e+02	-5.4191	-49.269205	0.000365	3.649352	1.236434	0.000146
1874	1.8636e+02	-5.3742	-49.047162	0.000558	5.575398	1.888996	0.000223
1875	1.8646e+02	-5.3357	-48.865491	0.000456	4.561690	1.545542	0.000183
1876	1.8656e+02	-5.2988	-48.716117	0.000375	3.750723	1.270779	0.000150
1877	1.8666e+02	-5.2555	-48.514260	0.000507	5.068544	1.717269	0.000203
1878	1.8676e+02	-5.2105	-48.372960	0.000355	3.547981	1.202088	0.000142
1879	1.8686e+02	-5.1769	-48.167066	0.000517	5.169915	1.751615	0.000207
1880	1.8696e+02	-5.1384	-47.993470	0.000436	4.358948	1.476852	0.000174
1881	1.8706e+02	-5.0934	-47.787576	0.000517	5.169915	1.751615	0.000207
1882	1.8716e+02	-5.0614	-47.666462	0.000304	3.041126	1.030362	0.000122
1883	1.8726e+02	-5.0148	-47.436345	0.000578	5.778140	1.957687	0.000231
1884	1.8736e+02	-4.9827	-47.242562	0.000487	4.865802	1.648578	0.000195
1885	1.8746e+02	-4.9394	-47.060891	0.000456	4.561690	1.545542	0.000183
1886	1.8756e+02	-4.9009	-46.939777	0.000304	3.041126	1.030362	0.000122
1887	1.8766e+02	-4.8608	-46.701586	0.000598	5.980882	2.026378	0.000239
1888	1.8776e+02	-4.8207	-46.536064	0.000416	4.156206	1.408161	0.000166
1889	1.8786e+02	-4.7806	-46.330170	0.000517	5.169915	1.751615	0.000207
1890	1.8796e+02	-4.7373	-46.140424	0.000476	4.764431	1.614233	0.000191
1891	1.8806e+02	-4.7004	-45.991050	0.000375	3.750723	1.270779	0.000150
1892	1.8815e+02	-4.6619	-45.829565	0.000405	4.054835	1.373815	0.000162
1893	1.8825e+02	-4.6250	-45.627708	0.000507	5.068544	1.717269	0.000203
1894	1.8835e+02	-4.5849	-45.433926	0.000487	4.865802	1.648578	0.000195
1895	1.8845e+02	-4.5416	-45.256292	0.000446	4.460319	1.511197	0.000179
1896	1.8855e+02	-4.4999	-45.066546	0.000476	4.764431	1.614233	0.000191
1897	1.8865e+02	-4.4582	-44.905061	0.000405	4.054835	1.373815	0.000162
1898	1.8875e+02	-4.4261	-44.723390	0.000456	4.561690	1.545542	0.000183
1899	1.8885e+02	-4.3780	-44.521533	0.000507	5.068544	1.717269	0.000203
1900	1.8895e+02	-4.3394	-44.335825	0.000466	4.663061	1.579888	0.000187
1901	1.8905e+02	-4.3138	-44.150116	0.000466	4.663061	1.579888	0.000187
1902	1.8915e+02	-4.2657	-43.964408	0.000466	4.663061	1.579888	0.000187
1903	1.8925e+02	-4.2288	-43.790811	0.000436	4.358948	1.476852	0.000174
1904	1.8935e+02	-4.1919	-43.584917	0.000517	5.169915	1.751615	0.000207
1905	1.8945e+02	-4.1421	-43.374986	0.000527	5.271286	1.785960	0.000211
1906	1.8955e+02	-4.1068	-43.249835	0.000314	3.142497	1.064707	0.000126
1907	1.8965e+02	-4.0715	-42.999533	0.000628	6.284995	2.129414	0.000252
1908	1.8975e+02	-4.0234	-42.862270	0.000345	3.446610	1.167743	0.000138
1909	1.8985e+02	-3.9897	-42.632153	0.000578	5.778140	1.957687	0.000231
1910	1.8995e+02	-3.9480	-42.446445	0.000466	4.663061	1.579888	0.000187
1911	1.9004e+02	-3.9063	-42.293034	0.000385	3.852093	1.305125	0.000154
1912	1.9014e+02	-3.8470	-42.087140	0.000517	5.169915	1.751615	0.000207
1913	1.9024e+02	-3.8293	-41.929692	0.000395	3.953464	1.339470	0.000158
1914	1.9034e+02	-3.7860	-41.739946	0.000476	4.764431	1.614233	0.000191
1915	1.9044e+02	-3.7459	-41.554238	0.000466	4.663061	1.579888	0.000187
1916	1.9054e+02	-3.6962	-41.328159	0.000568	5.676769	1.923342	0.000227
1917	1.9064e+02	-3.6641	-41.154562	0.000436	4.358948	1.476852	0.000174
1918	1.9074e+02	-3.6191	-40.989039	0.000416	4.156206	1.408161	0.000166
1919	1.9084e+02	-3.5839	-40.771034	0.000547	5.474028	1.854651	0.000219
1920	1.9094e+02	-3.5421	-40.581288	0.000476	4.764431	1.614233	0.000191
1921	1.9104e+02	-3.5052	-40.460174	0.000304	3.041126	1.030362	0.000122
1922	1.9114e+02	-3.4667	-40.226020	0.000588	5.879511	1.992032	0.000235
1923	1.9124e+02	-3.4282	-40.060498	0.000416	4.156206	1.408161	0.000166
1924	1.9134e+02	-3.3849	-39.850567	0.000527	5.271286	1.785960	0.000211
1925	1.9144e+02	-3.3512	-39.648710	0.000507	5.068544	1.717269	0.000203
1926	1.9154e+02	-3.3111	-39.442816	0.000517	5.169915	1.751615	0.000207
1927	1.9164e+02	-3.2678	-39.305554	0.000345	3.446610	1.167743	0.000138
1928	1.9174e+02	-3.2197	-39.103697	0.000507	5.068544	1.717269	0.000203
1929	1.9184e+02	-3.1908	-38.930100	0.000436	4.358948	1.476852	0.000174
1930	1.9194e+02	-3.1587	-38.732280	0.000497	4.967173	1.682924	0.000199
1931	1.9203e+02	-3.1090	-38.550609	0.000456	4.561690	1.545542	0.000183
1932	1.9213e+02	-3.0657	-38.356827	0.000487	4.865802	1.648578	0.000195
1933	1.9223e+02	-3.0288	-38.150933	0.000517	5.169915	1.751615	0.000207
1934	1.9233e+02	-2.9871	-37.969262	0.000456	4.561690	1.545542	0.000183
1935	1.9243e+02	-2.9550	-37.763368	0.000517	5.169915	1.751615	0.000207
1936	1.9253e+02	-2.9085	-37.618031	0.000365	3.649352	1.236434	0.000146
1937	1.9263e+02	-2.8620	-37.432323	0.000466	4.663061	1.579888	0.000187
1938	1.9273e+02	-2.8218	-37.218354	0.000537	5.372657	1.820305	0.000215
1939	1.9283e+02	-2.7946	-37.028609	0.000476	4.764431	1.614233	0.000191
1940	1.9293e+02	-2.7481	-36.798492	0.000578	5.778140	1.957687	0.000231
1941	1.9303e+02	-2.7079	-36.673341	0.000314	3.142497	1.064707	0.000126
1942	1.9313e+02	-2.6727	-36.455336	0.000547	5.474028	1.854651	0.000219
1943	1.9323e+02	-2.6229	-36.277702	0.000446	4.460319	1.511197	0.000179
1944	1.9333e+02	-2.5908	-36.104105	0.000436	4.358948	1.476852	0.000174
1945	1.9343e+02	-2.5555	-35.878025	0.000568	5.676769	1.923342	0.000227
1946	1.9353e+02	-2.5026	-35.668094	0.000527	5.271286	1.785960	0.000211
1947	1.9363e+02	-2.4641	-35.530832	0.000345	3.446610	1.167743	0.000138
1948	1.9373e+02	-2.4320	-35.288603	0.000608	6.082253	2.060723	0.000243
1949	1.9383e+02	-2.3919	-35.139229	0.000375	3.750723	1.270779	0.000150
1950	1.9393e+02	-2.3518	-34.925261	0.000537	5.372657	1.820305	0.000215
1951	1.9403e+02	-2.3053	-34.747627	0.000446	4.460319	1.511197	0.000179
1952	1.9412e+02	-2.2684	-34.529622	0.000547	5.474028	1.854651	0.000219
1953	1.9422e+02	-2.2251	-34.356025	0.000436	4.358948	1.476852	0.000174
1954	1.9432e+02	-2.1946	-34.154168	0.000507	5.068544	1.717269	0.000203
1955	1.9442e+02	-2.1529	-33.964423	0.000476	4.764431	1.614233	0.000191
1956	1.9452e+02	-2.1128	-33.790826	0.000436	4.358948	1.476852	0.000174
1957	1.9462e+02	-2.0775	-33.564747	0.000568	5.676769	1.923342	0.000227
1958	1.9472e+02	-2.0358	-33.391150	0.000436	4.358948	1.476852	0.000174
1959	1.9482e+02	-1.9909	-33.185256	0.000517	5.169915	1.751615	0.000207
1960	1.9492e+02	-1.9524	-33.052030	0.000335	3.345239	1.133398	0.000134
1961	1.9502e+02	-1.9042	-32.838062	0.000537	5.372657	1.820305	0.000215
1962	1.9512e+02	-1.8753	-32.656391	0.000456	4.561690	1.545542	0.000183
1963	1.9522e+02	-1.8272	-32.458571	0.000497	4.967173	1.682924	0.000199
1964	1.9532e+02	-1.7919	-32.264789	0.000487	4.865802	1.648578	0.000195
1965	1.9542e+02	-1.7454	-32.066969	0.000497	4.967173	1.682924	0.000199
1966	1.9552e+02	-1.7021	-31.877224	0.000476	4.764431	1.614233	0.000191
1967	1.9562e+02	-1.6588	-31.667293	0.000527	5.271286	1.785960	0.000211
1968	1.9572e+02	-1.6299	-31.485622	0.000456	4.561690	1.545542	0.000183
1969	1.9582e+02	-1.5914	-31.299913	0.000466	4.663061	1.579888	0.000187
1970	1.9592e+02	-1.5465	-31.118242	0.000456	4.561690	1.545542	0.000183
1971	1.9601e+02	-1.5080	-30.859866	0.000649	6.487736	2.198105	0.000260
1972	1.9611e+02	-1.4823	-30.690306	0.000426	4.257577	1.442506	0.000170
1973	1.9621e+02	-1.4326	-30.532858	0.000395	3.953464	1.339470	0.000158
1974	1.9631e+02	-1.3893	-30.355224	0.000446	4.460319	1.511197	0.000179
1975	1.9641e+02	-1.3460	-30.129144	0.000568	5.676769	1.923342	0.000227
1976	1.9651e+02	-1.3155	-29.931324	0.000497	4.967173	1.682924	0.000199
1977	1.9661e+02	-1.2657	-29.785987	0.000365	3.649352	1.236434	0.000146
1978	1.9671e+02	-1.2337	-29.555871	0.000578	5.778140	1.957687	0.000231
1979	1.9681e+02	-1.1903	-29.358051	0.000497	4.967173	1.682924	0.000199
1980	1.9691e+02	-1.1518	-29.172343	0.000466	4.663061	1.579888	0.000187
1981	1.9701e+02	-1.1182	-28.978560	0.000487	4.865802	1.648578	0.000195
1982	1.9711e+02	-1.0684	-28.804963	0.000436	4.358948	1.476852	0.000174
1983	1.9721e+02	-1.0331	-28.619255	0.000466	4.663061	1.579888	0.000187
1984	1.9731e+02	-1.0026	-28.441621	0.000446	4.460319	1.511197	0.000179
1985	1.9741e+02	-0.9593	-28.223616	0.000547	5.474028	1.854651	0.000219
1986	1.9751e+02	-0.9144	-28.013685	0.000527	5.271286	1.785960	0.000211
1987	1.9761e+02	-0.8759	-27.832014	0.000456	4.561690	1.545542	0.000183
1988	1.9771e+02	-0.8294	-27.654380	0.000446	4.460319	1.511197	0.000179
1989	1.9781e+02	-0.7941	-27.517117	0.000345	3.446610	1.167743	0.000138
1990	1.9791e+02	-0.7604	-27.299112	0.000547	5.474028	1.854651	0.000219
1991	1.9800e+02	-0.7155	-27.085144	0.000537	5.372657	1.820305	0.000215
1992	1.9810e+02	-0.6866	-26.903473	0.000456	4.561690	1.545542	0.000183
1993	1.9820e+02	-0.6385	-26.669319	0.000588	5.879511	1.992032	0.000235
1994	1.9830e+02	-0.5920	-26.491685	0.000446	4.460319	1.511197	0.000179
1995	1.9840e+02	-0.5599	-26.269642	0.000558	5.575398	1.888996	0.000223
1996	1.9850e+02	-0.5134	-26.140454	0.000324	3.243868	1.099052	0.000130
1997	1.9860e+02	-0.4797	-25.902263	0.000598	5.980882	2.026378	0.000239
1998	1.9870e+02	-0.4380	-25.720592	0.000456	4.561690	1.545542	0.000183
1999	1.9880e+02	-0.3898	-25.546995	0.000436	4.358948	1.476852	0.000174
2000	1.9890e+02	-0.3545	-25.304767	0.000608	6.082253	2.060723	0.000243
2001	1.9900e+02	-0.3257	-25.151356	0.000385	3.852093	1.305125	0.000154
2002	1.9910e+02	-0.2775	-24.949499	0.000507	5.068544	1.717269	0.000203
2003	1.9920e+02	-0.2374	-24.723419	0.000568	5.676769	1.923342	0.000227
2004	1.9930e+02	-0.1989	-24.570008	0.000385	3.852093	1.305125	0.000154
2005	1.9940e+02	-0.1556	-24.376226	0.000487	4.865802	1.648578	0.000195
2006	1.9950e+02	-0.1155	-24.142072	0.000588	5.879511	1.992032	0.000235
2007	1.9960e+02	-0.0722	-23.960401	0.000456	4.561690	1.545542	0.000183
2008	1.9970e+02	-0.0433	-23.794878	0.000416	4.156206	1.408161	0.000166
2009	1.9980e+02	0.0048	-23.580910	0.000416	4.156206	1.408161	0.000215

PMax (uC/cm2):	9.57e+01
Pr (uC/cm2):	5.58e+00
-Pr (uC/cm2):	-2.50e+01
PLoss (uC/cm2):	-2.50e+01
-Vc:	-1.11e+00
C (Max-Eff) (nF):	4.78e-01
K (Eff):	1.62e+03
Vert. (+/-Pr) Shift (uC/cm2):	-9.72e+00
Offset (uC/cm2):	-1.45e+00

A (Loop Area - uC/cm2·Volts):	-1.24e-02



Hysteresis Version: 5.48.1 - Radiant Technologies, Inc., 1999 - 9/12/24

