»»»»»»»»»»»»»»»»»»»»»»»»»»»»»»»»»»»» Hysteresis ««««««««««««««««««««««««««««««««««««
»»»  Executed Version:	5.48.1
»»»  Vision Version:	5.48.4 (R)
»»»  Vision Compiled:	9/18/24
»»»  Driver Version:	5.47.0
»»»  Windows Version:	Windows 8 or 8.1
»»»  Processor Information:	x86 (AMD or Intel) - 32 Processors
»»»  Tester Name:	PMF21124-494 (100V)
»»»  Tester S/N:	PMF21124-494
»»»  Internal Amp Type:	100V RevK 270k
»»»  Internal Amp S/N:	iAB2-596/K     
»»»  Execution Count:	1
»»»»»»»»»»»»»»»»»»»»»»»»»»»»»»»»»»»»»»»»»»««««««««««««««««««««««««««««««««««««««««««

Stored:	6/18/2025 - 17:46:28
Configured:	06/18/25 09:47:30 AM
Executed:	06/18/25 05:45:58 PM

»»»»»»»»»»»»»»»»»»»»»»»»»»»»»»»»»»» Sample Info ««««««««««««««««««««««««««««««««««««
Sample Name:	
Lot Name:	
Wafer Name:	
Die Row/Column:	0/0
Capacitor Number:	0
Sample Area (cm2):	1.00e-04
Sample Thickness (microns):	3.00e-01

Amplifier:	Internal

»»»»»»»»»»»»»»»»»»»»»»»»»»»»»»»»»»» Tester Info «««««««««««««««««««««««««««««««««««
Tester Name:	PMF21124-494 (100V)
Tester Serial Number:	PMF21124-494
Return Signal Amp. Level:	0.19 [Index: 3]

»»»»»»»»»»»»»»»»»»»»»»»»»»»»»»»» Hysteresis Info ««««««««««««««««««««««««««««««««««
Task Name:	Hyst-554
Volts:	20.00
Field:	666.67 (kV/cm)
DCBias:	0.00
DCField:	0.00 (kV/cm)
Hysteresis Period (ms):	2.00e+02
Preset:	Enabled
Preset Delay (ms):	1.00e+03
Profile:	Standard Bipolar

»»»»»»»»»»»»»»»»»»»»»»»»»»»»»»»»»»»»»» Data «««««««««««««««««««««««««««««««««««««««
Points:	2009

Valid Data

Point	Time (ms)	Drive Voltage	Measured Polarization (uC/cm2)	Capacitance (uF)	Normalized Capacitance (uF/cm2)	Dielectric Constant	Instantaneous Current (mA)
   1	0.0000e+00	0.0000	-0.072668	0.000334	3.343629	1.132852	0.000134
   2	9.9500e-02	0.0369	0.060557	0.000334	3.343629	1.132852	0.000134
   3	1.9900e-01	0.0786	0.226080	0.000415	4.154206	1.407483	0.000166
   4	2.9850e-01	0.1203	0.431974	0.000517	5.167427	1.750772	0.000207
   5	3.9800e-01	0.1572	0.609607	0.000446	4.458172	1.510470	0.000179
   6	4.9750e-01	0.1957	0.763019	0.000385	3.850240	1.304497	0.000154
   7	5.9700e-01	0.2358	0.993135	0.000578	5.775360	1.956745	0.000231
   8	6.9650e-01	0.2775	1.239401	0.000618	6.180648	2.094060	0.000248
   9	7.9600e-01	0.3112	1.396849	0.000395	3.951562	1.338825	0.000158
  10	8.9550e-01	0.3561	1.570446	0.000436	4.356850	1.476141	0.000174
  11	9.9500e-01	0.3898	1.784414	0.000537	5.370071	1.819429	0.000215
  12	1.0945e+00	0.4347	1.974159	0.000476	4.762139	1.613456	0.000191
  13	1.1940e+00	0.4749	2.163905	0.000476	4.762139	1.613456	0.000191
  14	1.2935e+00	0.5230	2.341539	0.000446	4.458172	1.510470	0.000179
  15	1.3930e+00	0.5551	2.531284	0.000476	4.762139	1.613456	0.000191
  16	1.4925e+00	0.5920	2.692770	0.000405	4.052884	1.373154	0.000162
  17	1.5920e+00	0.6273	2.890589	0.000496	4.964783	1.682114	0.000199
  18	1.6915e+00	0.6722	3.153003	0.000659	6.585936	2.231376	0.000264
  19	1.7910e+00	0.7155	3.270080	0.000294	2.938341	0.995537	0.000118
  20	1.8905e+00	0.7508	3.443677	0.000436	4.356850	1.476141	0.000174
  21	1.9900e+00	0.7893	3.645534	0.000507	5.066105	1.716443	0.000203
  22	2.0895e+00	0.8278	3.843353	0.000496	4.964783	1.682114	0.000199
  23	2.1890e+00	0.8759	4.025024	0.000456	4.559494	1.544799	0.000183
  24	2.2885e+00	0.9144	4.182473	0.000395	3.951562	1.338825	0.000158
  25	2.3880e+00	0.9545	4.436812	0.000638	6.383292	2.162718	0.000256
  26	2.4875e+00	0.9930	4.679040	0.000608	6.079326	2.059731	0.000243
  27	2.5870e+00	1.0315	4.852637	0.000436	4.356850	1.476141	0.000174
  28	2.6865e+00	1.0716	5.046420	0.000486	4.863461	1.647785	0.000195
  29	2.7860e+00	1.1069	5.248276	0.000507	5.066105	1.716443	0.000203
  30	2.8855e+00	1.1502	5.413799	0.000415	4.154206	1.407483	0.000166
  31	2.9850e+00	1.1984	5.619693	0.000517	5.167427	1.750772	0.000207
  32	3.0845e+00	1.2272	5.825587	0.000517	5.167427	1.750772	0.000207
  33	3.1840e+00	1.2818	6.027444	0.000507	5.066105	1.716443	0.000203
  34	3.2835e+00	1.3091	6.225263	0.000496	4.964783	1.682114	0.000199
  35	3.3830e+00	1.3460	6.423083	0.000496	4.964783	1.682114	0.000199
  36	3.4825e+00	1.3957	6.628977	0.000517	5.167427	1.750772	0.000207
  37	3.5820e+00	1.4342	6.758165	0.000324	3.242307	1.098523	0.000130
  38	3.6815e+00	1.4759	6.968096	0.000527	5.268749	1.785101	0.000211
  39	3.7810e+00	1.5160	7.133619	0.000415	4.154206	1.407483	0.000166
  40	3.8805e+00	1.5497	7.335476	0.000507	5.066105	1.716443	0.000203
  41	3.9800e+00	1.5898	7.569630	0.000588	5.876682	1.991074	0.000235
  42	4.0795e+00	1.6283	7.799746	0.000578	5.775360	1.956745	0.000231
  43	4.1790e+00	1.6700	8.037937	0.000598	5.978004	2.025403	0.000239
  44	4.2785e+00	1.7149	8.191348	0.000385	3.850240	1.304497	0.000154
  45	4.3780e+00	1.7614	8.413391	0.000557	5.572715	1.888087	0.000223
  46	4.4775e+00	1.7919	8.627359	0.000537	5.370071	1.819429	0.000215
  47	4.5770e+00	1.8272	8.861513	0.000588	5.876682	1.991074	0.000235
  48	4.6765e+00	1.8689	9.039147	0.000446	4.458172	1.510470	0.000179
  49	4.7760e+00	1.9122	9.249078	0.000527	5.268749	1.785101	0.000211
  50	4.8755e+00	1.9491	9.422675	0.000436	4.356850	1.476141	0.000174
  51	4.9750e+00	1.9860	9.660866	0.000598	5.978004	2.025403	0.000239
  52	5.0745e+00	2.0261	9.858685	0.000496	4.964783	1.682114	0.000199
  53	5.1740e+00	2.0711	10.068617	0.000527	5.268749	1.785101	0.000211
  54	5.2735e+00	2.1015	10.242213	0.000436	4.356850	1.476141	0.000174
  55	5.3730e+00	2.1513	10.427922	0.000466	4.660817	1.579127	0.000187
  56	5.4725e+00	2.1962	10.625741	0.000496	4.964783	1.682114	0.000199
  57	5.5720e+00	2.2283	10.876044	0.000628	6.281970	2.128389	0.000252
  58	5.6715e+00	2.2780	11.021381	0.000365	3.647596	1.235839	0.000146
  59	5.7710e+00	2.3021	11.251497	0.000578	5.775360	1.956745	0.000231
  60	5.8705e+00	2.3566	11.445280	0.000486	4.863461	1.647785	0.000195
  61	5.9700e+00	2.3855	11.703657	0.000648	6.484614	2.197047	0.000260
  62	6.0695e+00	2.4320	11.937810	0.000588	5.876682	1.991074	0.000235
  63	6.1690e+00	2.4673	12.099296	0.000405	4.052884	1.373154	0.000162
  64	6.2685e+00	2.5026	12.333450	0.000588	5.876682	1.991074	0.000235
  65	6.3680e+00	2.5523	12.535306	0.000507	5.066105	1.716443	0.000203
  66	6.4675e+00	2.5844	12.745238	0.000527	5.268749	1.785101	0.000211
  67	6.5670e+00	2.6165	12.934983	0.000476	4.762139	1.613456	0.000191
  68	6.6665e+00	2.6678	13.132803	0.000496	4.964783	1.682114	0.000199
  69	6.7660e+00	2.7063	13.362919	0.000578	5.775360	1.956745	0.000231
  70	6.8655e+00	2.7481	13.532479	0.000426	4.255528	1.441812	0.000170
  71	6.9650e+00	2.7801	13.742410	0.000527	5.268749	1.785101	0.000211
  72	7.0645e+00	2.8315	13.964453	0.000557	5.572715	1.888087	0.000223
  73	7.1640e+00	2.8668	14.125938	0.000405	4.052884	1.373154	0.000162
  74	7.2635e+00	2.9149	14.311646	0.000466	4.660817	1.579127	0.000187
  75	7.3630e+00	2.9438	14.549837	0.000598	5.978004	2.025403	0.000239
  76	7.4625e+00	2.9887	14.711323	0.000405	4.052884	1.373154	0.000162
  77	7.5620e+00	3.0352	14.929328	0.000547	5.471393	1.853758	0.000219
  78	7.6615e+00	3.0561	15.199816	0.000679	6.788581	2.300033	0.000272
  79	7.7610e+00	3.1042	15.393599	0.000486	4.863461	1.647785	0.000195
  80	7.8605e+00	3.1459	15.631790	0.000598	5.978004	2.025403	0.000239
  81	7.9600e+00	3.1844	15.833646	0.000507	5.066105	1.716443	0.000203
  82	8.0595e+00	3.2293	16.031466	0.000496	4.964783	1.682114	0.000199
  83	8.1590e+00	3.2662	16.277731	0.000618	6.180648	2.094060	0.000248
  84	8.2585e+00	3.2983	16.451328	0.000436	4.356850	1.476141	0.000174
  85	8.3580e+00	3.3464	16.608776	0.000395	3.951562	1.338825	0.000158
  86	8.4575e+00	3.3801	16.851005	0.000608	6.079326	2.059731	0.000243
  87	8.5570e+00	3.4331	17.024601	0.000436	4.356850	1.476141	0.000174
  88	8.6565e+00	3.4635	17.282978	0.000648	6.484614	2.197047	0.000260
  89	8.7560e+00	3.5052	17.484835	0.000507	5.066105	1.716443	0.000203
  90	8.8555e+00	3.5405	17.706877	0.000557	5.572715	1.888087	0.000223
  91	8.9550e+00	3.5839	17.868363	0.000405	4.052884	1.373154	0.000162
  92	9.0545e+00	3.6336	18.078294	0.000527	5.268749	1.785101	0.000211
  93	9.1540e+00	3.6657	18.247854	0.000426	4.255528	1.441812	0.000170
  94	9.2535e+00	3.6945	18.486045	0.000598	5.978004	2.025403	0.000239
  95	9.3530e+00	3.7459	18.740384	0.000638	6.383292	2.162718	0.000256
  96	9.4525e+00	3.7876	18.918018	0.000446	4.458172	1.510470	0.000179
  97	9.5520e+00	3.8101	19.156209	0.000598	5.978004	2.025403	0.000239
  98	9.6515e+00	3.8630	19.382289	0.000567	5.674038	1.922416	0.000227
  99	9.7510e+00	3.9063	19.580108	0.000496	4.964783	1.682114	0.000199
 100	9.8505e+00	3.9368	19.753705	0.000436	4.356850	1.476141	0.000174
 101	9.9500e+00	3.9929	19.951525	0.000496	4.964783	1.682114	0.000199
 102	1.0050e+01	4.0234	20.193753	0.000608	6.079326	2.059731	0.000243
 103	1.0149e+01	4.0587	20.419833	0.000567	5.674038	1.922416	0.000227
 104	1.0248e+01	4.0940	20.609578	0.000476	4.762139	1.613456	0.000191
 105	1.0348e+01	4.1405	20.819509	0.000527	5.268749	1.785101	0.000211
 106	1.0447e+01	4.1790	21.049626	0.000578	5.775360	1.956745	0.000231
 107	1.0547e+01	4.2191	21.259557	0.000527	5.268749	1.785101	0.000211
 108	1.0646e+01	4.2592	21.465451	0.000517	5.167427	1.750772	0.000207
 109	1.0746e+01	4.2929	21.626936	0.000405	4.052884	1.373154	0.000162
 110	1.0845e+01	4.3427	21.848979	0.000557	5.572715	1.888087	0.000223
 111	1.0945e+01	4.3812	22.054873	0.000517	5.167427	1.750772	0.000207
 112	1.1044e+01	4.4229	22.276915	0.000557	5.572715	1.888087	0.000223
 113	1.1144e+01	4.4566	22.515106	0.000598	5.978004	2.025403	0.000239
 114	1.1243e+01	4.4999	22.704851	0.000476	4.762139	1.613456	0.000191
 115	1.1343e+01	4.5512	22.930931	0.000567	5.674038	1.922416	0.000227
 116	1.1443e+01	4.5769	23.128751	0.000496	4.964783	1.682114	0.000199
 117	1.1542e+01	4.6250	23.358867	0.000578	5.775360	1.956745	0.000231
 118	1.1642e+01	4.6587	23.556687	0.000496	4.964783	1.682114	0.000199
 119	1.1741e+01	4.7052	23.750470	0.000486	4.863461	1.647785	0.000195
 120	1.1841e+01	4.7325	23.972512	0.000557	5.572715	1.888087	0.000223
 121	1.1940e+01	4.7758	24.178406	0.000517	5.167427	1.750772	0.000207
 122	1.2040e+01	4.8191	24.376226	0.000496	4.964783	1.682114	0.000199
 123	1.2139e+01	4.8560	24.606342	0.000578	5.775360	1.956745	0.000231
 124	1.2239e+01	4.8961	24.792051	0.000466	4.660817	1.579127	0.000187
 125	1.2338e+01	4.9394	25.022167	0.000578	5.775360	1.956745	0.000231
 126	1.2438e+01	4.9844	25.240173	0.000547	5.471393	1.853758	0.000219
 127	1.2537e+01	5.0245	25.466252	0.000567	5.674038	1.922416	0.000227
 128	1.2636e+01	5.0549	25.639849	0.000436	4.356850	1.476141	0.000174
 129	1.2736e+01	5.0918	25.817483	0.000446	4.458172	1.510470	0.000179
 130	1.2835e+01	5.1303	26.071823	0.000638	6.383292	2.162718	0.000256
 131	1.2935e+01	5.1769	26.253494	0.000456	4.559494	1.544799	0.000183
 132	1.3034e+01	5.2186	26.503796	0.000628	6.281970	2.128389	0.000252
 133	1.3134e+01	5.2571	26.677393	0.000436	4.356850	1.476141	0.000174
 134	1.3233e+01	5.3036	26.931733	0.000638	6.383292	2.162718	0.000256
 135	1.3333e+01	5.3325	27.073032	0.000355	3.546273	1.201510	0.000142
 136	1.3432e+01	5.3774	27.331409	0.000648	6.484614	2.197047	0.000260
 137	1.3532e+01	5.4175	27.541340	0.000527	5.268749	1.785101	0.000211
 138	1.3632e+01	5.4560	27.714937	0.000436	4.356850	1.476141	0.000174
 139	1.3731e+01	5.4913	27.961202	0.000618	6.180648	2.094060	0.000248
 140	1.3831e+01	5.5346	28.167096	0.000517	5.167427	1.750772	0.000207
 141	1.3930e+01	5.5859	28.368953	0.000507	5.066105	1.716443	0.000203
 142	1.4030e+01	5.6116	28.570810	0.000507	5.066105	1.716443	0.000203
 143	1.4129e+01	5.6629	28.804963	0.000588	5.876682	1.991074	0.000235
 144	1.4229e+01	5.6950	29.043154	0.000598	5.978004	2.025403	0.000239
 145	1.4328e+01	5.7367	29.245011	0.000507	5.066105	1.716443	0.000203
 146	1.4428e+01	5.7736	29.422645	0.000446	4.458172	1.510470	0.000179
 147	1.4527e+01	5.8105	29.676985	0.000638	6.383292	2.162718	0.000256
 148	1.4627e+01	5.8474	29.850582	0.000436	4.356850	1.476141	0.000174
 149	1.4726e+01	5.8988	30.056476	0.000517	5.167427	1.750772	0.000207
 150	1.4825e+01	5.9292	30.286592	0.000578	5.775360	1.956745	0.000231
 151	1.4925e+01	5.9742	30.504598	0.000547	5.471393	1.853758	0.000219
 152	1.5024e+01	6.0159	30.694343	0.000476	4.762139	1.613456	0.000191
 153	1.5124e+01	6.0528	30.940608	0.000618	6.180648	2.094060	0.000248
 154	1.5223e+01	6.1025	31.122279	0.000456	4.559494	1.544799	0.000183
 155	1.5323e+01	6.1330	31.372582	0.000628	6.281970	2.128389	0.000252
 156	1.5422e+01	6.1811	31.574439	0.000507	5.066105	1.716443	0.000203
 157	1.5522e+01	6.2100	31.840890	0.000669	6.687259	2.265705	0.000268
 158	1.5621e+01	6.2533	32.018524	0.000446	4.458172	1.510470	0.000179
 159	1.5721e+01	6.2870	32.228455	0.000527	5.268749	1.785101	0.000211
 160	1.5820e+01	6.3271	32.438386	0.000527	5.268749	1.785101	0.000211
 161	1.5920e+01	6.3688	32.632168	0.000486	4.863461	1.647785	0.000195
 162	1.6020e+01	6.4041	32.862285	0.000578	5.775360	1.956745	0.000231
 163	1.6119e+01	6.4474	33.068179	0.000517	5.167427	1.750772	0.000207
 164	1.6218e+01	6.4907	33.330593	0.000659	6.585936	2.231376	0.000264
 165	1.6318e+01	6.5324	33.528412	0.000496	4.964783	1.682114	0.000199
 166	1.6418e+01	6.5613	33.754492	0.000567	5.674038	1.922416	0.000227
 167	1.6517e+01	6.6207	33.972497	0.000547	5.471393	1.853758	0.000219
 168	1.6616e+01	6.6463	34.162243	0.000476	4.762139	1.613456	0.000191
 169	1.6716e+01	6.6864	34.343914	0.000456	4.559494	1.544799	0.000183
 170	1.6816e+01	6.7298	34.590179	0.000618	6.180648	2.094060	0.000248
 171	1.6915e+01	6.7634	34.743590	0.000385	3.850240	1.304497	0.000154
 172	1.7015e+01	6.8132	34.997930	0.000638	6.383292	2.162718	0.000256
 173	1.7114e+01	6.8421	35.211898	0.000537	5.370071	1.819429	0.000215
 174	1.7213e+01	6.8966	35.450089	0.000598	5.978004	2.025403	0.000239
 175	1.7313e+01	6.9351	35.643871	0.000486	4.863461	1.647785	0.000195
 176	1.7413e+01	6.9640	35.886100	0.000608	6.079326	2.059731	0.000243
 177	1.7512e+01	7.0041	36.083919	0.000496	4.964783	1.682114	0.000199
 178	1.7611e+01	7.0522	36.265590	0.000456	4.559494	1.544799	0.000183
 179	1.7711e+01	7.0875	36.532041	0.000669	6.687259	2.265705	0.000268
 180	1.7811e+01	7.1388	36.717750	0.000466	4.660817	1.579127	0.000187
 181	1.7910e+01	7.1549	36.959978	0.000608	6.079326	2.059731	0.000243
 182	1.8009e+01	7.2030	37.165872	0.000517	5.167427	1.750772	0.000207
 183	1.8109e+01	7.2447	37.424248	0.000648	6.484614	2.197047	0.000260
 184	1.8209e+01	7.2896	37.650328	0.000567	5.674038	1.922416	0.000227
 185	1.8308e+01	7.3346	37.868333	0.000547	5.471393	1.853758	0.000219
 186	1.8407e+01	7.3698	38.041930	0.000436	4.356850	1.476141	0.000174
 187	1.8507e+01	7.4051	38.251861	0.000527	5.268749	1.785101	0.000211
 188	1.8607e+01	7.4501	38.486015	0.000588	5.876682	1.991074	0.000235
 189	1.8706e+01	7.4854	38.671723	0.000466	4.660817	1.579127	0.000187
 190	1.8805e+01	7.5287	38.913951	0.000608	6.079326	2.059731	0.000243
 191	1.8905e+01	7.5704	39.103697	0.000476	4.762139	1.613456	0.000191
 192	1.9005e+01	7.5993	39.358036	0.000638	6.383292	2.162718	0.000256
 193	1.9104e+01	7.6426	39.547782	0.000476	4.762139	1.613456	0.000191
 194	1.9203e+01	7.6827	39.790010	0.000608	6.079326	2.059731	0.000243
 195	1.9303e+01	7.7180	39.955532	0.000415	4.154206	1.407483	0.000166
 196	1.9402e+01	7.7677	40.226020	0.000679	6.788581	2.300033	0.000272
 197	1.9502e+01	7.8078	40.423840	0.000496	4.964783	1.682114	0.000199
 198	1.9602e+01	7.8319	40.617623	0.000486	4.863461	1.647785	0.000195
 199	1.9701e+01	7.8944	40.863888	0.000618	6.180648	2.094060	0.000248
 200	1.9800e+01	7.9233	41.057670	0.000486	4.863461	1.647785	0.000195
 201	1.9900e+01	7.9698	41.328159	0.000679	6.788581	2.300033	0.000272
 202	2.0000e+01	8.0115	41.538090	0.000527	5.268749	1.785101	0.000211
 203	2.0099e+01	8.0484	41.719761	0.000456	4.559494	1.544799	0.000183
 204	2.0198e+01	8.0869	41.929692	0.000527	5.268749	1.785101	0.000211
 205	2.0298e+01	8.1319	42.167883	0.000598	5.978004	2.025403	0.000239
 206	2.0398e+01	8.1655	42.385888	0.000547	5.471393	1.853758	0.000219
 207	2.0497e+01	8.2073	42.575633	0.000476	4.762139	1.613456	0.000191
 208	2.0596e+01	8.2490	42.809787	0.000588	5.876682	1.991074	0.000235
 209	2.0696e+01	8.2730	43.023756	0.000537	5.370071	1.819429	0.000215
 210	2.0796e+01	8.3260	43.237724	0.000537	5.370071	1.819429	0.000215
 211	2.0895e+01	8.3613	43.467840	0.000578	5.775360	1.956745	0.000231
 212	2.0994e+01	8.4046	43.677772	0.000527	5.268749	1.785101	0.000211
 213	2.1094e+01	8.4415	43.911925	0.000588	5.876682	1.991074	0.000235
 214	2.1194e+01	8.4816	44.105708	0.000486	4.863461	1.647785	0.000195
 215	2.1293e+01	8.5153	44.343899	0.000598	5.978004	2.025403	0.000239
 216	2.1392e+01	8.5634	44.553830	0.000527	5.268749	1.785101	0.000211
 217	2.1492e+01	8.5987	44.771835	0.000547	5.471393	1.853758	0.000219
 218	2.1591e+01	8.6468	45.018101	0.000618	6.180648	2.094060	0.000248
 219	2.1691e+01	8.6949	45.232069	0.000537	5.370071	1.819429	0.000215
 220	2.1791e+01	8.7190	45.450074	0.000547	5.471393	1.853758	0.000219
 221	2.1890e+01	8.7479	45.655968	0.000517	5.167427	1.750772	0.000207
 222	2.1989e+01	8.8008	45.906270	0.000628	6.281970	2.128389	0.000252
 223	2.2089e+01	8.8377	46.104090	0.000496	4.964783	1.682114	0.000199
 224	2.2189e+01	8.8858	46.293836	0.000476	4.762139	1.613456	0.000191
 225	2.2288e+01	8.9227	46.519915	0.000567	5.674038	1.922416	0.000227
 226	2.2387e+01	8.9661	46.745995	0.000567	5.674038	1.922416	0.000227
 227	2.2487e+01	8.9997	46.883257	0.000344	3.444951	1.167181	0.000138
 228	2.2587e+01	9.0431	47.145671	0.000659	6.585936	2.231376	0.000264
 229	2.2686e+01	9.0848	47.387899	0.000608	6.079326	2.059731	0.000243
 230	2.2785e+01	9.1136	47.565533	0.000446	4.458172	1.510470	0.000179
 231	2.2885e+01	9.1634	47.811799	0.000618	6.180648	2.094060	0.000248
 232	2.2985e+01	9.2035	48.005581	0.000486	4.863461	1.647785	0.000195
 233	2.3084e+01	9.2388	48.243772	0.000598	5.978004	2.025403	0.000239
 234	2.3183e+01	9.2725	48.453703	0.000527	5.268749	1.785101	0.000211
 235	2.3283e+01	9.3222	48.683820	0.000578	5.775360	1.956745	0.000231
 236	2.3383e+01	9.3671	48.893751	0.000527	5.268749	1.785101	0.000211
 237	2.3482e+01	9.4072	49.144053	0.000628	6.281970	2.128389	0.000252
 238	2.3581e+01	9.4409	49.293427	0.000375	3.748918	1.270168	0.000150
 239	2.3681e+01	9.4778	49.507396	0.000537	5.370071	1.819429	0.000215
 240	2.3780e+01	9.5163	49.717327	0.000527	5.268749	1.785101	0.000211
 241	2.3880e+01	9.5709	49.951480	0.000588	5.876682	1.991074	0.000235
 242	2.3980e+01	9.6094	50.157374	0.000517	5.167427	1.750772	0.000207
 243	2.4079e+01	9.6430	50.383454	0.000567	5.674038	1.922416	0.000227
 244	2.4178e+01	9.6783	50.553014	0.000426	4.255528	1.441812	0.000170
 245	2.4278e+01	9.7361	50.807353	0.000638	6.383292	2.162718	0.000256
 246	2.4378e+01	9.7602	51.021321	0.000537	5.370071	1.819429	0.000215
 247	2.4477e+01	9.7906	51.207030	0.000466	4.660817	1.579127	0.000187
 248	2.4576e+01	9.8388	51.420998	0.000537	5.370071	1.819429	0.000215
 249	2.4676e+01	9.8757	51.643040	0.000557	5.572715	1.888087	0.000223
 250	2.4776e+01	9.9158	51.836823	0.000486	4.863461	1.647785	0.000195
 251	2.4875e+01	9.9446	52.075014	0.000598	5.978004	2.025403	0.000239
 252	2.4974e+01	9.9976	52.276871	0.000507	5.066105	1.716443	0.000203
 253	2.5074e+01	10.0377	52.511025	0.000588	5.876682	1.991074	0.000235
 254	2.5174e+01	10.0762	52.724993	0.000537	5.370071	1.819429	0.000215
 255	2.5273e+01	10.1163	52.971258	0.000618	6.180648	2.094060	0.000248
 256	2.5372e+01	10.1596	53.144855	0.000436	4.356850	1.476141	0.000174
 257	2.5472e+01	10.2093	53.358823	0.000537	5.370071	1.819429	0.000215
 258	2.5572e+01	10.2382	53.552606	0.000486	4.863461	1.647785	0.000195
 259	2.5671e+01	10.2815	53.778685	0.000567	5.674038	1.922416	0.000227
 260	2.5770e+01	10.3152	53.972468	0.000486	4.863461	1.647785	0.000195
 261	2.5870e+01	10.3537	54.166250	0.000486	4.863461	1.647785	0.000195
 262	2.5970e+01	10.3986	54.372144	0.000517	5.167427	1.750772	0.000207
 263	2.6069e+01	10.4387	54.590149	0.000547	5.471393	1.853758	0.000219
 264	2.6169e+01	10.4805	54.800081	0.000527	5.268749	1.785101	0.000211
 265	2.6268e+01	10.5190	54.993863	0.000486	4.863461	1.647785	0.000195
 266	2.6367e+01	10.5446	55.223980	0.000578	5.775360	1.956745	0.000231
 267	2.6467e+01	10.5960	55.405651	0.000456	4.559494	1.544799	0.000183
 268	2.6567e+01	10.6361	55.643842	0.000598	5.978004	2.025403	0.000239
 269	2.6666e+01	10.6585	55.894144	0.000628	6.281970	2.128389	0.000252
 270	2.6765e+01	10.7195	56.071778	0.000446	4.458172	1.510470	0.000179
 271	2.6865e+01	10.7516	56.318044	0.000618	6.180648	2.094060	0.000248
 272	2.6965e+01	10.7965	56.540086	0.000557	5.572715	1.888087	0.000223
 273	2.7064e+01	10.8334	56.750017	0.000527	5.268749	1.785101	0.000211
 274	2.7163e+01	10.8751	56.927651	0.000446	4.458172	1.510470	0.000179
 275	2.7263e+01	10.9216	57.173916	0.000618	6.180648	2.094060	0.000248
 276	2.7363e+01	10.9633	57.307142	0.000334	3.343629	1.132852	0.000134
 277	2.7462e+01	10.9874	57.541296	0.000588	5.876682	1.991074	0.000235
 278	2.7561e+01	11.0339	57.751227	0.000527	5.268749	1.785101	0.000211
 279	2.7661e+01	11.0644	57.957121	0.000517	5.167427	1.750772	0.000207
 280	2.7761e+01	11.1173	58.150903	0.000486	4.863461	1.647785	0.000195
 281	2.7860e+01	11.1430	58.340649	0.000476	4.762139	1.613456	0.000191
 282	2.7959e+01	11.1927	58.607100	0.000669	6.687259	2.265705	0.000268
 283	2.8059e+01	11.2296	58.736288	0.000324	3.242307	1.098523	0.000130
 284	2.8159e+01	11.2697	58.974479	0.000598	5.978004	2.025403	0.000239
 285	2.8258e+01	11.3163	59.208633	0.000588	5.876682	1.991074	0.000235
 286	2.8358e+01	11.3499	59.454898	0.000618	6.180648	2.094060	0.000248
 287	2.8457e+01	11.3965	59.632532	0.000446	4.458172	1.510470	0.000179
 288	2.8556e+01	11.4302	59.858612	0.000567	5.674038	1.922416	0.000227
 289	2.8656e+01	11.4783	60.056431	0.000496	4.964783	1.682114	0.000199
 290	2.8756e+01	11.5104	60.314808	0.000648	6.484614	2.197047	0.000260
 291	2.8855e+01	11.5569	60.500516	0.000466	4.660817	1.579127	0.000187
 292	2.8954e+01	11.5922	60.742744	0.000608	6.079326	2.059731	0.000243
 293	2.9054e+01	11.6291	60.875970	0.000334	3.343629	1.132852	0.000134
 294	2.9154e+01	11.6660	61.041492	0.000415	4.154206	1.407483	0.000166
 295	2.9253e+01	11.7125	61.263535	0.000557	5.572715	1.888087	0.000223
 296	2.9352e+01	11.7494	61.457317	0.000486	4.863461	1.647785	0.000195
 297	2.9452e+01	11.7911	61.659174	0.000507	5.066105	1.716443	0.000203
 298	2.9552e+01	11.8296	61.901402	0.000608	6.079326	2.059731	0.000243
 299	2.9651e+01	11.8745	62.083073	0.000456	4.559494	1.544799	0.000183
 300	2.9750e+01	11.9162	62.280893	0.000496	4.964783	1.682114	0.000199
 301	2.9850e+01	11.9419	62.482750	0.000507	5.066105	1.716443	0.000203
 302	2.9950e+01	11.9916	62.700755	0.000547	5.471393	1.853758	0.000219
 303	3.0049e+01	12.0285	62.918760	0.000547	5.471393	1.853758	0.000219
 304	3.0148e+01	12.0719	63.120617	0.000507	5.066105	1.716443	0.000203
 305	3.0248e+01	12.1071	63.342660	0.000557	5.572715	1.888087	0.000223
 306	3.0348e+01	12.1505	63.548554	0.000517	5.167427	1.750772	0.000207
 307	3.0447e+01	12.1922	63.786745	0.000598	5.978004	2.025403	0.000239
 308	3.0547e+01	12.2307	63.996676	0.000527	5.268749	1.785101	0.000211
 309	3.0646e+01	12.2660	64.202570	0.000517	5.167427	1.750772	0.000207
 310	3.0745e+01	12.3013	64.355981	0.000385	3.850240	1.304497	0.000154
 311	3.0845e+01	12.3366	64.569949	0.000537	5.370071	1.819429	0.000215
 312	3.0945e+01	12.3895	64.759694	0.000476	4.762139	1.613456	0.000191
 313	3.1044e+01	12.4296	64.949440	0.000476	4.762139	1.613456	0.000191
 314	3.1143e+01	12.4777	65.151297	0.000507	5.066105	1.716443	0.000203
 315	3.1243e+01	12.5146	65.328931	0.000446	4.458172	1.510470	0.000179
 316	3.1343e+01	12.5547	65.587307	0.000648	6.484614	2.197047	0.000260
 317	3.1442e+01	12.5884	65.732644	0.000365	3.647596	1.235839	0.000146
 318	3.1541e+01	12.6349	66.019281	0.000719	7.193869	2.437349	0.000288
 319	3.1641e+01	12.6638	66.172692	0.000385	3.850240	1.304497	0.000154
 320	3.1741e+01	12.7087	66.427031	0.000638	6.383292	2.162718	0.000256
 321	3.1840e+01	12.7360	66.580443	0.000385	3.850240	1.304497	0.000154
 322	3.1939e+01	12.7873	66.818634	0.000598	5.978004	2.025403	0.000239
 323	3.2039e+01	12.8226	67.064899	0.000618	6.180648	2.094060	0.000248
 324	3.2139e+01	12.8643	67.290978	0.000567	5.674038	1.922416	0.000227
 325	3.2238e+01	12.9109	67.488798	0.000496	4.964783	1.682114	0.000199
 326	3.2337e+01	12.9446	67.702766	0.000537	5.370071	1.819429	0.000215
 327	3.2437e+01	12.9815	67.880400	0.000446	4.458172	1.510470	0.000179
 328	3.2536e+01	13.0216	68.078220	0.000496	4.964783	1.682114	0.000199
 329	3.2636e+01	13.0569	68.280077	0.000507	5.066105	1.716443	0.000203
 330	3.2736e+01	13.1066	68.490008	0.000527	5.268749	1.785101	0.000211
 331	3.2835e+01	13.1531	68.675716	0.000466	4.660817	1.579127	0.000187
 332	3.2934e+01	13.1868	68.865461	0.000476	4.762139	1.613456	0.000191
 333	3.3034e+01	13.2157	69.083467	0.000547	5.471393	1.853758	0.000219
 334	3.3133e+01	13.2638	69.313583	0.000578	5.775360	1.956745	0.000231
 335	3.3233e+01	13.3087	69.515440	0.000507	5.066105	1.716443	0.000203
 336	3.3333e+01	13.3392	69.693074	0.000446	4.458172	1.510470	0.000179
 337	3.3432e+01	13.3793	69.911080	0.000547	5.471393	1.853758	0.000219
 338	3.3532e+01	13.4258	70.116973	0.000517	5.167427	1.750772	0.000207
 339	3.3631e+01	13.4611	70.351127	0.000588	5.876682	1.991074	0.000235
 340	3.3730e+01	13.5012	70.557021	0.000517	5.167427	1.750772	0.000207
 341	3.3830e+01	13.5397	70.766952	0.000527	5.268749	1.785101	0.000211
 342	3.3929e+01	13.5879	70.988995	0.000557	5.572715	1.888087	0.000223
 343	3.4029e+01	13.6183	71.219112	0.000578	5.775360	1.956745	0.000231
 344	3.4129e+01	13.6633	71.404820	0.000466	4.660817	1.579127	0.000187
 345	3.4228e+01	13.7050	71.586491	0.000456	4.559494	1.544799	0.000183
 346	3.4328e+01	13.7403	71.780273	0.000486	4.863461	1.647785	0.000195
 347	3.4427e+01	13.7836	71.974056	0.000486	4.863461	1.647785	0.000195
 348	3.4526e+01	13.8237	72.179950	0.000517	5.167427	1.750772	0.000207
 349	3.4626e+01	13.8654	72.430252	0.000628	6.281970	2.128389	0.000252
 350	3.4725e+01	13.8959	72.595775	0.000415	4.154206	1.407483	0.000166
 351	3.4825e+01	13.9440	72.793594	0.000496	4.964783	1.682114	0.000199
 352	3.4925e+01	13.9825	73.019674	0.000567	5.674038	1.922416	0.000227
 353	3.5024e+01	14.0178	73.225568	0.000517	5.167427	1.750772	0.000207
 354	3.5123e+01	14.0563	73.411276	0.000466	4.660817	1.579127	0.000187
 355	3.5223e+01	14.1012	73.673690	0.000659	6.585936	2.231376	0.000264
 356	3.5322e+01	14.1429	73.855361	0.000456	4.559494	1.544799	0.000183
 357	3.5422e+01	14.1782	74.057218	0.000507	5.066105	1.716443	0.000203
 358	3.5522e+01	14.2231	74.279260	0.000557	5.572715	1.888087	0.000223
 359	3.5621e+01	14.2600	74.452857	0.000436	4.356850	1.476141	0.000174
 360	3.5721e+01	14.2921	74.715271	0.000659	6.585936	2.231376	0.000264
 361	3.5820e+01	14.3402	74.941351	0.000567	5.674038	1.922416	0.000227
 362	3.5919e+01	14.3787	75.143207	0.000507	5.066105	1.716443	0.000203
 363	3.6019e+01	14.4140	75.320841	0.000446	4.458172	1.510470	0.000179
 364	3.6118e+01	14.4525	75.510587	0.000476	4.762139	1.613456	0.000191
 365	3.6218e+01	14.4942	75.712444	0.000507	5.066105	1.716443	0.000203
 366	3.6318e+01	14.5424	75.906226	0.000486	4.863461	1.647785	0.000195
 367	3.6417e+01	14.5777	76.091934	0.000466	4.660817	1.579127	0.000187
 368	3.6517e+01	14.6226	76.338200	0.000618	6.180648	2.094060	0.000248
 369	3.6616e+01	14.6627	76.556205	0.000547	5.471393	1.853758	0.000219
 370	3.6715e+01	14.7108	76.713653	0.000395	3.951562	1.338825	0.000158
 371	3.6815e+01	14.7413	76.959919	0.000618	6.180648	2.094060	0.000248
 372	3.6914e+01	14.7782	77.149664	0.000476	4.762139	1.613456	0.000191
 373	3.7014e+01	14.8183	77.375744	0.000567	5.674038	1.922416	0.000227
 374	3.7114e+01	14.8568	77.597786	0.000557	5.572715	1.888087	0.000223
 375	3.7213e+01	14.8889	77.791569	0.000486	4.863461	1.647785	0.000195
 376	3.7313e+01	14.9370	78.005537	0.000537	5.370071	1.819429	0.000215
 377	3.7412e+01	14.9739	78.235653	0.000578	5.775360	1.956745	0.000231
 378	3.7511e+01	15.0204	78.469807	0.000588	5.876682	1.991074	0.000235
 379	3.7611e+01	15.0637	78.663590	0.000486	4.863461	1.647785	0.000195
 380	3.7711e+01	15.0958	78.845261	0.000456	4.559494	1.544799	0.000183
 381	3.7810e+01	15.1343	79.030969	0.000466	4.660817	1.579127	0.000187
 382	3.7910e+01	15.1825	79.212640	0.000456	4.559494	1.544799	0.000183
 383	3.8009e+01	15.2113	79.418534	0.000517	5.167427	1.750772	0.000207
 384	3.8108e+01	15.2563	79.640577	0.000557	5.572715	1.888087	0.000223
 385	3.8208e+01	15.2835	79.858582	0.000547	5.471393	1.853758	0.000219
 386	3.8307e+01	15.3365	80.100810	0.000608	6.079326	2.059731	0.000243
 387	3.8407e+01	15.3766	80.274407	0.000436	4.356850	1.476141	0.000174
 388	3.8507e+01	15.4135	80.500487	0.000567	5.674038	1.922416	0.000227
 389	3.8606e+01	15.4520	80.698306	0.000496	4.964783	1.682114	0.000199
 390	3.8706e+01	15.4841	80.928423	0.000578	5.775360	1.956745	0.000231
 391	3.8805e+01	15.5354	81.118168	0.000476	4.762139	1.613456	0.000191
 392	3.8904e+01	15.5755	81.332137	0.000537	5.370071	1.819429	0.000215
 393	3.9004e+01	15.6124	81.533993	0.000507	5.066105	1.716443	0.000203
 394	3.9103e+01	15.6557	81.743924	0.000527	5.268749	1.785101	0.000211
 395	3.9203e+01	15.6974	81.998264	0.000638	6.383292	2.162718	0.000256
 396	3.9303e+01	15.7375	82.220306	0.000557	5.572715	1.888087	0.000223
 397	3.9402e+01	15.7792	82.401978	0.000456	4.559494	1.544799	0.000183
 398	3.9502e+01	15.8097	82.531166	0.000324	3.242307	1.098523	0.000130
 399	3.9601e+01	15.8498	82.789543	0.000648	6.484614	2.197047	0.000260
 400	3.9700e+01	15.8899	82.951028	0.000405	4.052884	1.373154	0.000162
 401	3.9800e+01	15.9284	83.144811	0.000486	4.863461	1.647785	0.000195
 402	3.9900e+01	15.9717	83.383002	0.000598	5.978004	2.025403	0.000239
 403	3.9999e+01	16.0118	83.613118	0.000578	5.775360	1.956745	0.000231
 404	4.0099e+01	16.0568	83.766529	0.000385	3.850240	1.304497	0.000154
 405	4.0198e+01	16.0872	83.988572	0.000557	5.572715	1.888087	0.000223
 406	4.0297e+01	16.1322	84.170243	0.000456	4.559494	1.544799	0.000183
 407	4.0397e+01	16.1803	84.396323	0.000567	5.674038	1.922416	0.000227
 408	4.0496e+01	16.2076	84.594142	0.000496	4.964783	1.682114	0.000199
 409	4.0596e+01	16.2541	84.787925	0.000486	4.863461	1.647785	0.000195
 410	4.0696e+01	16.2878	85.018042	0.000578	5.775360	1.956745	0.000231
 411	4.0795e+01	16.3359	85.199713	0.000456	4.559494	1.544799	0.000183
 412	4.0895e+01	16.3696	85.393495	0.000486	4.863461	1.647785	0.000195
 413	4.0994e+01	16.4161	85.603426	0.000527	5.268749	1.785101	0.000211
 414	4.1093e+01	16.4578	85.865840	0.000659	6.585936	2.231376	0.000264
 415	4.1193e+01	16.4867	86.003103	0.000344	3.444951	1.167181	0.000138
 416	4.1292e+01	16.5284	86.200922	0.000496	4.964783	1.682114	0.000199
 417	4.1392e+01	16.5749	86.422965	0.000557	5.572715	1.888087	0.000223
 418	4.1492e+01	16.6166	86.600599	0.000446	4.458172	1.510470	0.000179
 419	4.1591e+01	16.6503	86.802456	0.000507	5.066105	1.716443	0.000203
 420	4.1691e+01	16.6840	86.984127	0.000456	4.559494	1.544799	0.000183
 421	4.1790e+01	16.7402	87.214243	0.000578	5.775360	1.956745	0.000231
 422	4.1889e+01	16.7706	87.432249	0.000547	5.471393	1.853758	0.000219
 423	4.1989e+01	16.8124	87.650254	0.000547	5.471393	1.853758	0.000219
 424	4.2089e+01	16.8477	87.807702	0.000395	3.951562	1.338825	0.000158
 425	4.2188e+01	16.8894	88.021670	0.000537	5.370071	1.819429	0.000215
 426	4.2288e+01	16.9279	88.243713	0.000557	5.572715	1.888087	0.000223
 427	4.2387e+01	16.9616	88.425384	0.000456	4.559494	1.544799	0.000183
 428	4.2486e+01	16.9968	88.619167	0.000486	4.863461	1.647785	0.000195
 429	4.2586e+01	17.0498	88.821023	0.000507	5.066105	1.716443	0.000203
 430	4.2685e+01	17.0883	89.030954	0.000527	5.268749	1.785101	0.000211
 431	4.2785e+01	17.1268	89.261071	0.000578	5.775360	1.956745	0.000231
 432	4.2885e+01	17.1861	89.446779	0.000466	4.660817	1.579127	0.000187
 433	4.2984e+01	17.2134	89.624413	0.000446	4.458172	1.510470	0.000179
 434	4.3084e+01	17.2551	89.858567	0.000588	5.876682	1.991074	0.000235
 435	4.3183e+01	17.2872	90.040238	0.000456	4.559494	1.544799	0.000183
 436	4.3282e+01	17.3353	90.225947	0.000466	4.660817	1.579127	0.000187
 437	4.3382e+01	17.3706	90.379358	0.000385	3.850240	1.304497	0.000154
 438	4.3481e+01	17.4075	90.605437	0.000567	5.674038	1.922416	0.000227
 439	4.3581e+01	17.4524	90.823443	0.000547	5.471393	1.853758	0.000219
 440	4.3681e+01	17.4893	90.997040	0.000436	4.356850	1.476141	0.000174
 441	4.3780e+01	17.5295	91.198896	0.000507	5.066105	1.716443	0.000203
 442	4.3880e+01	17.5599	91.408827	0.000527	5.268749	1.785101	0.000211
 443	4.3979e+01	17.6113	91.606647	0.000496	4.964783	1.682114	0.000199
 444	4.4078e+01	17.6514	91.800430	0.000486	4.863461	1.647785	0.000195
 445	4.4178e+01	17.6883	92.010361	0.000527	5.268749	1.785101	0.000211
 446	4.4278e+01	17.7348	92.159735	0.000375	3.748918	1.270168	0.000150
 447	4.4377e+01	17.7669	92.385814	0.000567	5.674038	1.922416	0.000227
 448	4.4477e+01	17.8134	92.619968	0.000588	5.876682	1.991074	0.000235
 449	4.4576e+01	17.8423	92.817788	0.000496	4.964783	1.682114	0.000199
 450	4.4675e+01	17.8824	93.051942	0.000588	5.876682	1.991074	0.000235
 451	4.4775e+01	17.9289	93.205353	0.000385	3.850240	1.304497	0.000154
 452	4.4874e+01	17.9674	93.382987	0.000446	4.458172	1.510470	0.000179
 453	4.4974e+01	18.0027	93.605029	0.000557	5.572715	1.888087	0.000223
 454	4.5074e+01	18.0508	93.798812	0.000486	4.863461	1.647785	0.000195
 455	4.5173e+01	18.0861	93.976446	0.000446	4.458172	1.510470	0.000179
 456	4.5273e+01	18.1262	94.170228	0.000486	4.863461	1.647785	0.000195
 457	4.5372e+01	18.1631	94.396308	0.000567	5.674038	1.922416	0.000227
 458	4.5471e+01	18.2080	94.582016	0.000466	4.660817	1.579127	0.000187
 459	4.5571e+01	18.2433	94.771761	0.000476	4.762139	1.613456	0.000191
 460	4.5670e+01	18.2802	94.961507	0.000476	4.762139	1.613456	0.000191
 461	4.5770e+01	18.3171	95.147215	0.000466	4.660817	1.579127	0.000187
 462	4.5870e+01	18.3669	95.328886	0.000456	4.559494	1.544799	0.000183
 463	4.5969e+01	18.4038	95.571114	0.000608	6.079326	2.059731	0.000243
 464	4.6069e+01	18.4374	95.756823	0.000466	4.660817	1.579127	0.000187
 465	4.6168e+01	18.4888	95.918308	0.000405	4.052884	1.373154	0.000162
 466	4.6267e+01	18.5241	96.108053	0.000476	4.762139	1.613456	0.000191
 467	4.6367e+01	18.5674	96.374504	0.000669	6.687259	2.265705	0.000268
 468	4.6467e+01	18.6027	96.540027	0.000415	4.154206	1.407483	0.000166
 469	4.6566e+01	18.6444	96.685364	0.000365	3.647596	1.235839	0.000146
 470	4.6666e+01	18.6797	96.887221	0.000507	5.066105	1.716443	0.000203
 471	4.6765e+01	18.7150	97.072929	0.000466	4.660817	1.579127	0.000187
 472	4.6864e+01	18.7647	97.262674	0.000476	4.762139	1.613456	0.000191
 473	4.6964e+01	18.7984	97.464531	0.000507	5.066105	1.716443	0.000203
 474	4.7063e+01	18.8433	97.630054	0.000415	4.154206	1.407483	0.000166
 475	4.7163e+01	18.8850	97.827873	0.000496	4.964783	1.682114	0.000199
 476	4.7263e+01	18.9235	98.045879	0.000547	5.471393	1.853758	0.000219
 477	4.7362e+01	18.9540	98.215438	0.000426	4.255528	1.441812	0.000170
 478	4.7462e+01	19.0086	98.393072	0.000446	4.458172	1.510470	0.000179
 479	4.7561e+01	19.0358	98.615115	0.000557	5.572715	1.888087	0.000223
 480	4.7660e+01	19.0872	98.849269	0.000588	5.876682	1.991074	0.000235
 481	4.7760e+01	19.1160	99.039014	0.000476	4.762139	1.613456	0.000191
 482	4.7859e+01	19.1626	99.216648	0.000446	4.458172	1.510470	0.000179
 483	4.7959e+01	19.2011	99.414468	0.000496	4.964783	1.682114	0.000199
 484	4.8059e+01	19.2364	99.668807	0.000638	6.383292	2.162718	0.000256
 485	4.8158e+01	19.2829	99.842404	0.000436	4.356850	1.476141	0.000174
 486	4.8258e+01	19.3246	100.028112	0.000466	4.660817	1.579127	0.000187
 487	4.8357e+01	19.3647	100.225932	0.000496	4.964783	1.682114	0.000199
 488	4.8456e+01	19.3920	100.334934	0.000274	2.735697	0.926879	0.000110
 489	4.8556e+01	19.4369	100.532754	0.000496	4.964783	1.682114	0.000199
 490	4.8656e+01	19.4754	100.730574	0.000496	4.964783	1.682114	0.000199
 491	4.8755e+01	19.5235	100.952616	0.000557	5.572715	1.888087	0.000223
 492	4.8855e+01	19.5572	101.134287	0.000456	4.559494	1.544799	0.000183
 493	4.8954e+01	19.6021	101.328070	0.000486	4.863461	1.647785	0.000195
 494	4.9053e+01	19.6326	101.525890	0.000496	4.964783	1.682114	0.000199
 495	4.9153e+01	19.6887	101.735821	0.000527	5.268749	1.785101	0.000211
 496	4.9252e+01	19.7208	101.929603	0.000486	4.863461	1.647785	0.000195
 497	4.9352e+01	19.7561	102.143571	0.000537	5.370071	1.819429	0.000215
 498	4.9452e+01	19.7930	102.321205	0.000446	4.458172	1.510470	0.000179
 499	4.9551e+01	19.8347	102.506914	0.000466	4.660817	1.579127	0.000187
 500	4.9651e+01	19.8748	102.716845	0.000527	5.268749	1.785101	0.000211
 501	4.9750e+01	19.9101	102.942924	0.000567	5.674038	1.922416	0.000227
 502	4.9849e+01	19.9551	103.132670	0.000476	4.762139	1.613456	0.000191
 503	4.9949e+01	20.0016	103.362786	0.000578	5.775360	1.956745	0.000231
 504	5.0048e+01	19.9679	103.217449	0.000365	3.647596	1.235839	-0.000146
 505	5.0148e+01	19.9182	103.084224	0.000334	3.343629	1.132852	-0.000134
 506	5.0248e+01	19.8861	102.914664	0.000426	4.255528	1.441812	-0.000170
 507	5.0347e+01	19.8363	102.761253	0.000385	3.850240	1.304497	-0.000154
 508	5.0447e+01	19.8026	102.575545	0.000466	4.660817	1.579127	-0.000187
 509	5.0546e+01	19.7545	102.466542	0.000274	2.735697	0.926879	-0.000110
 510	5.0645e+01	19.7208	102.309094	0.000395	3.951562	1.338825	-0.000158
 511	5.0745e+01	19.6791	102.187980	0.000304	3.039663	1.029866	-0.000122
 512	5.0844e+01	19.6342	102.050717	0.000344	3.444951	1.167181	-0.000138
 513	5.0944e+01	19.5989	101.897306	0.000385	3.850240	1.304497	-0.000154
 514	5.1044e+01	19.5572	101.760043	0.000344	3.444951	1.167181	-0.000138
 515	5.1143e+01	19.5171	101.570298	0.000476	4.762139	1.613456	-0.000191
 516	5.1242e+01	19.4690	101.457258	0.000284	2.837019	0.961208	-0.000114
 517	5.1342e+01	19.4433	101.356330	0.000253	2.533052	0.858221	-0.000101
 518	5.1441e+01	19.3984	101.223104	0.000334	3.343629	1.132852	-0.000134
 519	5.1541e+01	19.3599	101.053545	0.000426	4.255528	1.441812	-0.000170
 520	5.1641e+01	19.3150	100.912245	0.000355	3.546273	1.201510	-0.000142
 521	5.1740e+01	19.2797	100.714425	0.000496	4.964783	1.682114	-0.000199
 522	5.1840e+01	19.2251	100.593311	0.000304	3.039663	1.029866	-0.000122
 523	5.1939e+01	19.1946	100.456049	0.000344	3.444951	1.167181	-0.000138
 524	5.2038e+01	19.1674	100.266303	0.000476	4.762139	1.613456	-0.000191
 525	5.2138e+01	19.1176	100.084632	0.000456	4.559494	1.544799	-0.000183
 526	5.2237e+01	19.0807	99.927184	0.000395	3.951562	1.338825	-0.000158
 527	5.2337e+01	19.0406	99.737438	0.000476	4.762139	1.613456	-0.000191
 528	5.2437e+01	19.0037	99.620361	0.000294	2.938341	0.995537	-0.000118
 529	5.2536e+01	18.9717	99.454839	0.000415	4.154206	1.407483	-0.000166
 530	5.2636e+01	18.9267	99.281242	0.000436	4.356850	1.476141	-0.000174
 531	5.2735e+01	18.8786	99.087460	0.000486	4.863461	1.647785	-0.000195
 532	5.2834e+01	18.8401	98.962308	0.000314	3.140985	1.064195	-0.000126
 533	5.2934e+01	18.8064	98.825046	0.000344	3.444951	1.167181	-0.000138
 534	5.3033e+01	18.7631	98.635300	0.000476	4.762139	1.613456	-0.000191
 535	5.3133e+01	18.7246	98.489963	0.000365	3.647596	1.235839	-0.000146
 536	5.3233e+01	18.6717	98.389035	0.000253	2.533052	0.858221	-0.000101
 537	5.3332e+01	18.6444	98.203327	0.000466	4.660817	1.579127	-0.000187
 538	5.3431e+01	18.5947	98.033767	0.000426	4.255528	1.441812	-0.000170
 539	5.3531e+01	18.5610	97.896505	0.000344	3.444951	1.167181	-0.000138
 540	5.3630e+01	18.5193	97.714833	0.000456	4.559494	1.544799	-0.000183
 541	5.3730e+01	18.4840	97.585645	0.000324	3.242307	1.098523	-0.000130
 542	5.3830e+01	18.4487	97.424160	0.000405	4.052884	1.373154	-0.000162
 543	5.3929e+01	18.3989	97.185969	0.000598	5.978004	2.025403	-0.000239
 544	5.4029e+01	18.3637	97.052743	0.000334	3.343629	1.132852	-0.000134
 545	5.4128e+01	18.3268	96.871072	0.000456	4.559494	1.544799	-0.000183
 546	5.4227e+01	18.2834	96.701512	0.000426	4.255528	1.441812	-0.000170
 547	5.4327e+01	18.2417	96.535990	0.000415	4.154206	1.407483	-0.000166
 548	5.4426e+01	18.2032	96.390653	0.000365	3.647596	1.235839	-0.000146
 549	5.4526e+01	18.1599	96.269539	0.000304	3.039663	1.029866	-0.000122
 550	5.4626e+01	18.1182	96.067682	0.000507	5.066105	1.716443	-0.000203
 551	5.4725e+01	18.0797	95.922345	0.000365	3.647596	1.235839	-0.000146
 552	5.4825e+01	18.0492	95.744711	0.000446	4.458172	1.510470	-0.000179
 553	5.4924e+01	18.0091	95.635708	0.000274	2.735697	0.926879	-0.000110
 554	5.5023e+01	17.9594	95.506520	0.000324	3.242307	1.098523	-0.000130
 555	5.5123e+01	17.9305	95.336960	0.000426	4.255528	1.441812	-0.000170
 556	5.5222e+01	17.8712	95.171438	0.000415	4.154206	1.407483	-0.000166
 557	5.5322e+01	17.8471	95.001878	0.000426	4.255528	1.441812	-0.000170
 558	5.5422e+01	17.8102	94.816170	0.000466	4.660817	1.579127	-0.000187
 559	5.5521e+01	17.7749	94.666796	0.000375	3.748918	1.270168	-0.000150
 560	5.5620e+01	17.7236	94.481088	0.000466	4.660817	1.579127	-0.000187
 561	5.5720e+01	17.6899	94.287305	0.000486	4.863461	1.647785	-0.000195
 562	5.5819e+01	17.6466	94.125820	0.000405	4.052884	1.373154	-0.000162
 563	5.5919e+01	17.6113	93.936074	0.000476	4.762139	1.613456	-0.000191
 564	5.6019e+01	17.5696	93.746329	0.000476	4.762139	1.613456	-0.000191
 565	5.6118e+01	17.5295	93.605029	0.000355	3.546273	1.201510	-0.000142
 566	5.6218e+01	17.4797	93.443544	0.000405	4.052884	1.373154	-0.000162
 567	5.6317e+01	17.4524	93.217464	0.000567	5.674038	1.922416	-0.000227
 568	5.6416e+01	17.4123	93.076164	0.000355	3.546273	1.201510	-0.000142
 569	5.6516e+01	17.3674	92.942939	0.000334	3.343629	1.132852	-0.000134
 570	5.6615e+01	17.3257	92.773379	0.000426	4.255528	1.441812	-0.000170
 571	5.6715e+01	17.2872	92.628042	0.000365	3.647596	1.235839	-0.000146
 572	5.6815e+01	17.2487	92.450408	0.000446	4.458172	1.510470	-0.000179
 573	5.6914e+01	17.2038	92.313146	0.000344	3.444951	1.167181	-0.000138
 574	5.7014e+01	17.1669	92.139549	0.000436	4.356850	1.476141	-0.000174
 575	5.7113e+01	17.1236	91.957878	0.000456	4.559494	1.544799	-0.000183
 576	5.7212e+01	17.0899	91.780244	0.000446	4.458172	1.510470	-0.000179
 577	5.7312e+01	17.0498	91.626833	0.000385	3.850240	1.304497	-0.000154
 578	5.7411e+01	17.0017	91.445162	0.000456	4.559494	1.544799	-0.000183
 579	5.7511e+01	16.9728	91.194859	0.000628	6.281970	2.128389	-0.000252
 580	5.7611e+01	16.9343	91.029337	0.000415	4.154206	1.407483	-0.000166
 581	5.7710e+01	16.8813	90.823443	0.000517	5.167427	1.750772	-0.000207
 582	5.7809e+01	16.8477	90.694254	0.000324	3.242307	1.098523	-0.000130
 583	5.7909e+01	16.8124	90.500472	0.000486	4.863461	1.647785	-0.000195
 584	5.8008e+01	16.7739	90.310726	0.000476	4.762139	1.613456	-0.000191
 585	5.8108e+01	16.7289	90.189612	0.000304	3.039663	1.029866	-0.000122
 586	5.8208e+01	16.6920	90.007941	0.000456	4.559494	1.544799	-0.000183
 587	5.8307e+01	16.6487	89.878753	0.000324	3.242307	1.098523	-0.000130
 588	5.8407e+01	16.5990	89.701119	0.000446	4.458172	1.510470	-0.000179
 589	5.8506e+01	16.5669	89.491188	0.000527	5.268749	1.785101	-0.000211
 590	5.8605e+01	16.5252	89.321628	0.000426	4.255528	1.441812	-0.000170
 591	5.8705e+01	16.4899	89.160143	0.000405	4.052884	1.373154	-0.000162
 592	5.8804e+01	16.4498	88.966360	0.000486	4.863461	1.647785	-0.000195
 593	5.8904e+01	16.4081	88.821023	0.000365	3.647596	1.235839	-0.000146
 594	5.9004e+01	16.3632	88.631278	0.000476	4.762139	1.613456	-0.000191
 595	5.9103e+01	16.3327	88.473830	0.000395	3.951562	1.338825	-0.000158
 596	5.9203e+01	16.2862	88.320419	0.000385	3.850240	1.304497	-0.000154
 597	5.9302e+01	16.2477	88.102413	0.000547	5.471393	1.853758	-0.000219
 598	5.9401e+01	16.2028	87.920742	0.000456	4.559494	1.544799	-0.000183
 599	5.9501e+01	16.1739	87.710811	0.000527	5.268749	1.785101	-0.000211
 600	5.9600e+01	16.1322	87.504917	0.000517	5.167427	1.750772	-0.000207
 601	5.9700e+01	16.1001	87.307097	0.000496	4.964783	1.682114	-0.000199
 602	5.9800e+01	16.0552	87.177909	0.000324	3.242307	1.098523	-0.000130
 603	5.9899e+01	16.0102	86.980089	0.000496	4.964783	1.682114	-0.000199
 604	5.9998e+01	15.9685	86.818604	0.000405	4.052884	1.373154	-0.000162
 605	6.0098e+01	15.9332	86.640970	0.000446	4.458172	1.510470	-0.000179
 606	6.0197e+01	15.8979	86.483522	0.000395	3.951562	1.338825	-0.000158
 607	6.0297e+01	15.8546	86.334148	0.000375	3.748918	1.270168	-0.000150
 608	6.0397e+01	15.8113	86.136328	0.000496	4.964783	1.682114	-0.000199
 609	6.0496e+01	15.7776	85.999065	0.000344	3.444951	1.167181	-0.000138
 610	6.0596e+01	15.7311	85.805283	0.000486	4.863461	1.647785	-0.000195
 611	6.0695e+01	15.6974	85.623612	0.000456	4.559494	1.544799	-0.000183
 612	6.0794e+01	15.6541	85.413681	0.000527	5.268749	1.785101	-0.000211
 613	6.0894e+01	15.6124	85.252195	0.000405	4.052884	1.373154	-0.000162
 614	6.0993e+01	15.5771	85.050339	0.000507	5.066105	1.716443	-0.000203
 615	6.1093e+01	15.5290	84.872705	0.000446	4.458172	1.510470	-0.000179
 616	6.1193e+01	15.4937	84.686996	0.000466	4.660817	1.579127	-0.000187
 617	6.1292e+01	15.4536	84.493214	0.000486	4.863461	1.647785	-0.000195
 618	6.1392e+01	15.4183	84.283283	0.000527	5.268749	1.785101	-0.000211
 619	6.1491e+01	15.3798	84.117760	0.000415	4.154206	1.407483	-0.000166
 620	6.1590e+01	15.3349	83.960312	0.000395	3.951562	1.338825	-0.000158
 621	6.1690e+01	15.3012	83.758455	0.000507	5.066105	1.716443	-0.000203
 622	6.1789e+01	15.2450	83.601007	0.000395	3.951562	1.338825	-0.000158
 623	6.1889e+01	15.2274	83.431447	0.000426	4.255528	1.441812	-0.000170
 624	6.1989e+01	15.1809	83.229590	0.000507	5.066105	1.716443	-0.000203
 625	6.2088e+01	15.1295	83.068105	0.000405	4.052884	1.373154	-0.000162
 626	6.2188e+01	15.0958	82.894508	0.000436	4.356850	1.476141	-0.000174
 627	6.2287e+01	15.0621	82.712837	0.000456	4.559494	1.544799	-0.000183
 628	6.2386e+01	15.0236	82.494832	0.000547	5.471393	1.853758	-0.000219
 629	6.2486e+01	14.9739	82.357569	0.000344	3.444951	1.167181	-0.000138
 630	6.2586e+01	14.9338	82.139564	0.000547	5.471393	1.853758	-0.000219
 631	6.2685e+01	14.8921	81.974041	0.000415	4.154206	1.407483	-0.000166
 632	6.2785e+01	14.8472	81.764110	0.000527	5.268749	1.785101	-0.000211
 633	6.2884e+01	14.8119	81.594550	0.000426	4.255528	1.441812	-0.000170
 634	6.2983e+01	14.7814	81.416916	0.000446	4.458172	1.510470	-0.000179
 635	6.3083e+01	14.7397	81.154503	0.000659	6.585936	2.231376	-0.000264
 636	6.3182e+01	14.7012	80.997054	0.000395	3.951562	1.338825	-0.000158
 637	6.3282e+01	14.6595	80.811346	0.000466	4.660817	1.579127	-0.000187
 638	6.3382e+01	14.6194	80.609489	0.000507	5.066105	1.716443	-0.000203
 639	6.3481e+01	14.5793	80.431855	0.000446	4.458172	1.510470	-0.000179
 640	6.3581e+01	14.5392	80.286518	0.000365	3.647596	1.235839	-0.000146
 641	6.3680e+01	14.4991	80.052365	0.000588	5.876682	1.991074	-0.000235
 642	6.3779e+01	14.4573	79.898953	0.000385	3.850240	1.304497	-0.000154
 643	6.3879e+01	14.4237	79.709208	0.000476	4.762139	1.613456	-0.000191
 644	6.3978e+01	14.3755	79.527537	0.000456	4.559494	1.544799	-0.000183
 645	6.4078e+01	14.3402	79.386237	0.000355	3.546273	1.201510	-0.000142
 646	6.4177e+01	14.2969	79.164195	0.000557	5.572715	1.888087	-0.000223
 647	6.4277e+01	14.2520	78.978486	0.000466	4.660817	1.579127	-0.000187
 648	6.4376e+01	14.2087	78.776630	0.000507	5.066105	1.716443	-0.000203
 649	6.4476e+01	14.1702	78.639367	0.000344	3.444951	1.167181	-0.000138
 650	6.4576e+01	14.1365	78.417325	0.000557	5.572715	1.888087	-0.000223
 651	6.4675e+01	14.0948	78.231616	0.000466	4.660817	1.579127	-0.000187
 652	6.4775e+01	14.0643	78.029760	0.000507	5.066105	1.716443	-0.000203
 653	6.4874e+01	14.0162	77.860200	0.000426	4.255528	1.441812	-0.000170
 654	6.4974e+01	13.9825	77.605860	0.000638	6.383292	2.162718	-0.000256
 655	6.5073e+01	13.9424	77.440338	0.000415	4.154206	1.407483	-0.000166
 656	6.5172e+01	13.9007	77.250592	0.000476	4.762139	1.613456	-0.000191
 657	6.5272e+01	13.8526	77.145627	0.000263	2.634375	0.892550	-0.000105
 658	6.5371e+01	13.8173	76.967993	0.000446	4.458172	1.510470	-0.000179
 659	6.5471e+01	13.7868	76.770173	0.000496	4.964783	1.682114	-0.000199
 660	6.5570e+01	13.7467	76.588502	0.000456	4.559494	1.544799	-0.000183
 661	6.5670e+01	13.7034	76.410868	0.000446	4.458172	1.510470	-0.000179
 662	6.5769e+01	13.6568	76.217086	0.000486	4.863461	1.647785	-0.000195
 663	6.5869e+01	13.6215	75.999080	0.000547	5.471393	1.853758	-0.000219
 664	6.5969e+01	13.5750	75.845669	0.000385	3.850240	1.304497	-0.000154
 665	6.6068e+01	13.5461	75.672072	0.000436	4.356850	1.476141	-0.000174
 666	6.6168e+01	13.5108	75.458104	0.000537	5.370071	1.819429	-0.000215
 667	6.6267e+01	13.4579	75.280470	0.000446	4.458172	1.510470	-0.000179
 668	6.6367e+01	13.4242	75.094762	0.000466	4.660817	1.579127	-0.000187
 669	6.6466e+01	13.3777	74.909054	0.000466	4.660817	1.579127	-0.000187
 670	6.6566e+01	13.3392	74.723345	0.000466	4.660817	1.579127	-0.000187
 671	6.6665e+01	13.3055	74.545711	0.000446	4.458172	1.510470	-0.000179
 672	6.6764e+01	13.2638	74.323669	0.000557	5.572715	1.888087	-0.000223
 673	6.6864e+01	13.2189	74.141998	0.000456	4.559494	1.544799	-0.000183
 674	6.6963e+01	13.1820	73.928030	0.000537	5.370071	1.819429	-0.000215
 675	6.7063e+01	13.1467	73.738284	0.000476	4.762139	1.613456	-0.000191
 676	6.7162e+01	13.1066	73.609096	0.000324	3.242307	1.098523	-0.000130
 677	6.7262e+01	13.0552	73.415313	0.000486	4.863461	1.647785	-0.000195
 678	6.7362e+01	13.0280	73.197308	0.000547	5.471393	1.853758	-0.000219
 679	6.7461e+01	12.9815	73.015637	0.000456	4.559494	1.544799	-0.000183
 680	6.7561e+01	12.9478	72.813780	0.000507	5.066105	1.716443	-0.000203
 681	6.7660e+01	12.9028	72.640183	0.000436	4.356850	1.476141	-0.000174
 682	6.7760e+01	12.8676	72.494846	0.000365	3.647596	1.235839	-0.000146
 683	6.7859e+01	12.8274	72.329324	0.000415	4.154206	1.407483	-0.000166
 684	6.7959e+01	12.7922	72.143616	0.000466	4.660817	1.579127	-0.000187
 685	6.8058e+01	12.7488	71.929647	0.000537	5.370071	1.819429	-0.000215
 686	6.8157e+01	12.7103	71.752013	0.000446	4.458172	1.510470	-0.000179
 687	6.8257e+01	12.6622	71.534008	0.000547	5.471393	1.853758	-0.000219
 688	6.8356e+01	12.6285	71.376560	0.000395	3.951562	1.338825	-0.000158
 689	6.8456e+01	12.5868	71.158555	0.000547	5.471393	1.853758	-0.000219
 690	6.8555e+01	12.5451	70.984958	0.000436	4.356850	1.476141	-0.000174
 691	6.8655e+01	12.5082	70.750804	0.000588	5.876682	1.991074	-0.000235
 692	6.8754e+01	12.4633	70.601430	0.000375	3.748918	1.270168	-0.000150
 693	6.8854e+01	12.4312	70.399573	0.000507	5.066105	1.716443	-0.000203
 694	6.8954e+01	12.3831	70.258273	0.000355	3.546273	1.201510	-0.000142
 695	6.9053e+01	12.3510	70.028157	0.000578	5.775360	1.956745	-0.000231
 696	6.9153e+01	12.3029	69.822263	0.000517	5.167427	1.750772	-0.000207
 697	6.9252e+01	12.2660	69.680963	0.000355	3.546273	1.201510	-0.000142
 698	6.9352e+01	12.2291	69.458920	0.000557	5.572715	1.888087	-0.000223
 699	6.9451e+01	12.1970	69.309546	0.000375	3.748918	1.270168	-0.000150
 700	6.9550e+01	12.1505	69.051170	0.000648	6.484614	2.197047	-0.000260
 701	6.9650e+01	12.1104	68.897759	0.000385	3.850240	1.304497	-0.000154
 702	6.9749e+01	12.0670	68.708013	0.000476	4.762139	1.613456	-0.000191
 703	6.9849e+01	12.0334	68.526342	0.000456	4.559494	1.544799	-0.000183
 704	6.9948e+01	11.9852	68.316411	0.000527	5.268749	1.785101	-0.000211
 705	7.0048e+01	11.9531	68.142814	0.000436	4.356850	1.476141	-0.000174
 706	7.0147e+01	11.9114	67.944994	0.000496	4.964783	1.682114	-0.000199
 707	7.0247e+01	11.8681	67.759286	0.000466	4.660817	1.579127	-0.000187
 708	7.0347e+01	11.8296	67.609912	0.000375	3.748918	1.270168	-0.000150
 709	7.0446e+01	11.8007	67.404018	0.000517	5.167427	1.750772	-0.000207
 710	7.0546e+01	11.7510	67.181976	0.000557	5.572715	1.888087	-0.000223
 711	7.0645e+01	11.7061	67.032602	0.000375	3.748918	1.270168	-0.000150
 712	7.0745e+01	11.6708	66.818634	0.000537	5.370071	1.819429	-0.000215
 713	7.0844e+01	11.6323	66.645037	0.000436	4.356850	1.476141	-0.000174
 714	7.0944e+01	11.5906	66.435106	0.000527	5.268749	1.785101	-0.000211
 715	7.1043e+01	11.5505	66.257472	0.000446	4.458172	1.510470	-0.000179
 716	7.1142e+01	11.5120	66.071763	0.000466	4.660817	1.579127	-0.000187
 717	7.1242e+01	11.4687	65.865870	0.000517	5.167427	1.750772	-0.000207
 718	7.1341e+01	11.4237	65.688236	0.000446	4.458172	1.510470	-0.000179
 719	7.1441e+01	11.3933	65.526750	0.000405	4.052884	1.373154	-0.000162
 720	7.1540e+01	11.3580	65.316819	0.000527	5.268749	1.785101	-0.000211
 721	7.1640e+01	11.3114	65.118999	0.000496	4.964783	1.682114	-0.000199
 722	7.1740e+01	11.2713	64.957514	0.000405	4.052884	1.373154	-0.000162
 723	7.1839e+01	11.2344	64.731434	0.000567	5.674038	1.922416	-0.000227
 724	7.1939e+01	11.1911	64.582060	0.000375	3.748918	1.270168	-0.000150
 725	7.2038e+01	11.1446	64.376166	0.000517	5.167427	1.750772	-0.000207
 726	7.2138e+01	11.1173	64.174310	0.000507	5.066105	1.716443	-0.000203
 727	7.2237e+01	11.0756	63.984564	0.000476	4.762139	1.613456	-0.000191
 728	7.2337e+01	11.0259	63.802893	0.000456	4.559494	1.544799	-0.000183
 729	7.2436e+01	10.9954	63.621222	0.000456	4.559494	1.544799	-0.000183
 730	7.2535e+01	10.9521	63.427440	0.000486	4.863461	1.647785	-0.000195
 731	7.2635e+01	10.9168	63.217509	0.000527	5.268749	1.785101	-0.000211
 732	7.2734e+01	10.8751	63.039875	0.000446	4.458172	1.510470	-0.000179
 733	7.2834e+01	10.8398	62.785535	0.000638	6.383292	2.162718	-0.000256
 734	7.2933e+01	10.7901	62.640198	0.000365	3.647596	1.235839	-0.000146
 735	7.3033e+01	10.7612	62.446416	0.000486	4.863461	1.647785	-0.000195
 736	7.3132e+01	10.7179	62.260707	0.000466	4.660817	1.579127	-0.000187
 737	7.3232e+01	10.6665	62.083073	0.000446	4.458172	1.510470	-0.000179
 738	7.3332e+01	10.6361	61.869105	0.000537	5.370071	1.819429	-0.000215
 739	7.3431e+01	10.5895	61.667248	0.000507	5.066105	1.716443	-0.000203
 740	7.3531e+01	10.5478	61.469429	0.000496	4.964783	1.682114	-0.000199
 741	7.3630e+01	10.5222	61.263535	0.000517	5.167427	1.750772	-0.000207
 742	7.3730e+01	10.4805	61.053604	0.000527	5.268749	1.785101	-0.000211
 743	7.3829e+01	10.4403	60.871933	0.000456	4.559494	1.544799	-0.000183
 744	7.3928e+01	10.3938	60.653927	0.000547	5.471393	1.853758	-0.000219
 745	7.4028e+01	10.3537	60.500516	0.000385	3.850240	1.304497	-0.000154
 746	7.4127e+01	10.3184	60.306734	0.000486	4.863461	1.647785	-0.000195
 747	7.4227e+01	10.2719	60.084691	0.000557	5.572715	1.888087	-0.000223
 748	7.4326e+01	10.2334	59.866686	0.000547	5.471393	1.853758	-0.000219
 749	7.4426e+01	10.1997	59.709238	0.000395	3.951562	1.338825	-0.000158
 750	7.4525e+01	10.1500	59.495269	0.000537	5.370071	1.819429	-0.000215
 751	7.4625e+01	10.1163	59.269190	0.000567	5.674038	1.922416	-0.000227
 752	7.4725e+01	10.0730	59.123853	0.000365	3.647596	1.235839	-0.000146
 753	7.4824e+01	10.0313	58.913922	0.000527	5.268749	1.785101	-0.000211
 754	7.4924e+01	9.9976	58.703991	0.000527	5.268749	1.785101	-0.000211
 755	7.5023e+01	9.9591	58.522320	0.000456	4.559494	1.544799	-0.000183
 756	7.5123e+01	9.9061	58.296240	0.000567	5.674038	1.922416	-0.000227
 757	7.5222e+01	9.8757	58.110532	0.000466	4.660817	1.579127	-0.000187
 758	7.5322e+01	9.8291	57.904638	0.000517	5.167427	1.750772	-0.000207
 759	7.5421e+01	9.8035	57.694707	0.000527	5.268749	1.785101	-0.000211
 760	7.5520e+01	9.7602	57.496887	0.000496	4.964783	1.682114	-0.000199
 761	7.5620e+01	9.7265	57.311179	0.000466	4.660817	1.579127	-0.000187
 762	7.5719e+01	9.6799	57.089136	0.000557	5.572715	1.888087	-0.000223
 763	7.5819e+01	9.6430	56.947837	0.000355	3.546273	1.201510	-0.000142
 764	7.5918e+01	9.5981	56.729831	0.000547	5.471393	1.853758	-0.000219
 765	7.6018e+01	9.5628	56.495678	0.000588	5.876682	1.991074	-0.000235
 766	7.6118e+01	9.5179	56.326118	0.000426	4.255528	1.441812	-0.000170
 767	7.6217e+01	9.4794	56.120224	0.000517	5.167427	1.750772	-0.000207
 768	7.6317e+01	9.4441	55.942590	0.000446	4.458172	1.510470	-0.000179
 769	7.6416e+01	9.3976	55.740733	0.000507	5.066105	1.716443	-0.000203
 770	7.6516e+01	9.3607	55.530802	0.000527	5.268749	1.785101	-0.000211
 771	7.6615e+01	9.3190	55.308760	0.000557	5.572715	1.888087	-0.000223
 772	7.6715e+01	9.2949	55.123051	0.000466	4.660817	1.579127	-0.000187
 773	7.6814e+01	9.2420	54.884860	0.000598	5.978004	2.025403	-0.000239
 774	7.6913e+01	9.1971	54.723375	0.000405	4.052884	1.373154	-0.000162
 775	7.7013e+01	9.1650	54.452887	0.000679	6.788581	2.300033	-0.000272
 776	7.7112e+01	9.1201	54.279290	0.000436	4.356850	1.476141	-0.000174
 777	7.7212e+01	9.0767	54.081470	0.000496	4.964783	1.682114	-0.000199
 778	7.7311e+01	9.0447	53.903836	0.000446	4.458172	1.510470	-0.000179
 779	7.7411e+01	9.0062	53.633348	0.000679	6.788581	2.300033	-0.000272
 780	7.7510e+01	8.9645	53.471863	0.000405	4.052884	1.373154	-0.000162
 781	7.7610e+01	8.9147	53.270006	0.000507	5.066105	1.716443	-0.000203
 782	7.7710e+01	8.8794	53.112558	0.000395	3.951562	1.338825	-0.000158
 783	7.7809e+01	8.8425	52.890515	0.000557	5.572715	1.888087	-0.000223
 784	7.7909e+01	8.7992	52.724993	0.000415	4.154206	1.407483	-0.000166
 785	7.8008e+01	8.7671	52.454505	0.000679	6.788581	2.300033	-0.000272
 786	7.8108e+01	8.7158	52.293019	0.000405	4.052884	1.373154	-0.000162
 787	7.8207e+01	8.6885	52.111348	0.000456	4.559494	1.544799	-0.000183
 788	7.8306e+01	8.6468	51.869120	0.000608	6.079326	2.059731	-0.000243
 789	7.8406e+01	8.6035	51.691486	0.000446	4.458172	1.510470	-0.000179
 790	7.8505e+01	8.5602	51.461369	0.000578	5.775360	1.956745	-0.000231
 791	7.8605e+01	8.5217	51.303921	0.000395	3.951562	1.338825	-0.000158
 792	7.8704e+01	8.4832	51.037470	0.000669	6.687259	2.265705	-0.000268
 793	7.8804e+01	8.4415	50.843687	0.000486	4.863461	1.647785	-0.000195
 794	7.8903e+01	8.4030	50.662016	0.000456	4.559494	1.544799	-0.000183
 795	7.9003e+01	8.3677	50.444011	0.000547	5.471393	1.853758	-0.000219
 796	7.9103e+01	8.3292	50.205820	0.000598	5.978004	2.025403	-0.000239
 797	7.9202e+01	8.2810	49.967629	0.000598	5.978004	2.025403	-0.000239
 798	7.9302e+01	8.2409	49.785958	0.000456	4.559494	1.544799	-0.000183
 799	7.9401e+01	8.2089	49.628510	0.000395	3.951562	1.338825	-0.000158
 800	7.9501e+01	8.1639	49.398393	0.000578	5.775360	1.956745	-0.000231
 801	7.9600e+01	8.1238	49.200573	0.000496	4.964783	1.682114	-0.000199
 802	7.9700e+01	8.0853	48.986605	0.000537	5.370071	1.819429	-0.000215
 803	7.9799e+01	8.0388	48.780711	0.000517	5.167427	1.750772	-0.000207
 804	7.9898e+01	7.9955	48.578854	0.000507	5.066105	1.716443	-0.000203
 805	7.9998e+01	7.9618	48.368923	0.000527	5.268749	1.785101	-0.000211
 806	8.0097e+01	7.9313	48.187252	0.000456	4.559494	1.544799	-0.000183
 807	8.0197e+01	7.8800	47.961173	0.000567	5.674038	1.922416	-0.000227
 808	8.0296e+01	7.8479	47.731056	0.000578	5.775360	1.956745	-0.000231
 809	8.0396e+01	7.8046	47.549385	0.000456	4.559494	1.544799	-0.000183
 810	8.0496e+01	7.7661	47.315231	0.000588	5.876682	1.991074	-0.000235
 811	8.0595e+01	7.7324	47.105300	0.000527	5.268749	1.785101	-0.000211
 812	8.0695e+01	7.6795	46.879220	0.000567	5.674038	1.922416	-0.000227
 813	8.0794e+01	7.6490	46.693512	0.000466	4.660817	1.579127	-0.000187
 814	8.0894e+01	7.6057	46.459358	0.000588	5.876682	1.991074	-0.000235
 815	8.0993e+01	7.5688	46.257501	0.000507	5.066105	1.716443	-0.000203
 816	8.1093e+01	7.5206	46.075830	0.000456	4.559494	1.544799	-0.000183
 817	8.1192e+01	7.4886	45.861862	0.000537	5.370071	1.819429	-0.000215
 818	8.1291e+01	7.4501	45.668079	0.000486	4.863461	1.647785	-0.000195
 819	8.1391e+01	7.4003	45.490445	0.000446	4.458172	1.510470	-0.000179
 820	8.1490e+01	7.3682	45.248217	0.000608	6.079326	2.059731	-0.000243
 821	8.1590e+01	7.3346	45.054435	0.000486	4.863461	1.647785	-0.000195
 822	8.1689e+01	7.2832	44.836430	0.000547	5.471393	1.853758	-0.000219
 823	8.1789e+01	7.2479	44.658796	0.000446	4.458172	1.510470	-0.000179
 824	8.1888e+01	7.2142	44.416567	0.000608	6.079326	2.059731	-0.000243
 825	8.1988e+01	7.1645	44.234896	0.000456	4.559494	1.544799	-0.000183
 826	8.2088e+01	7.1292	44.029002	0.000517	5.167427	1.750772	-0.000207
 827	8.2187e+01	7.0843	43.847331	0.000456	4.559494	1.544799	-0.000183
 828	8.2287e+01	7.0426	43.661623	0.000466	4.660817	1.579127	-0.000187
 829	8.2386e+01	7.0057	43.451692	0.000527	5.268749	1.785101	-0.000211
 830	8.2486e+01	6.9720	43.197352	0.000638	6.383292	2.162718	-0.000256
 831	8.2585e+01	6.9287	42.967236	0.000578	5.775360	1.956745	-0.000231
 832	8.2684e+01	6.8918	42.761342	0.000517	5.167427	1.750772	-0.000207
 833	8.2784e+01	6.8517	42.547374	0.000537	5.370071	1.819429	-0.000215
 834	8.2883e+01	6.8148	42.369740	0.000446	4.458172	1.510470	-0.000179
 835	8.2983e+01	6.7763	42.163846	0.000517	5.167427	1.750772	-0.000207
 836	8.3082e+01	6.7362	41.957952	0.000517	5.167427	1.750772	-0.000207
 837	8.3182e+01	6.6929	41.760132	0.000496	4.964783	1.682114	-0.000199
 838	8.3281e+01	6.6495	41.558275	0.000507	5.066105	1.716443	-0.000203
 839	8.3381e+01	6.6175	41.332196	0.000567	5.674038	1.922416	-0.000227
 840	8.3481e+01	6.5741	41.134376	0.000496	4.964783	1.682114	-0.000199
 841	8.3580e+01	6.5308	40.912334	0.000557	5.572715	1.888087	-0.000223
 842	8.3680e+01	6.4955	40.698365	0.000537	5.370071	1.819429	-0.000215
 843	8.3779e+01	6.4474	40.528806	0.000426	4.255528	1.441812	-0.000170
 844	8.3879e+01	6.4121	40.343097	0.000466	4.660817	1.579127	-0.000187
 845	8.3978e+01	6.3720	40.092795	0.000628	6.281970	2.128389	-0.000252
 846	8.4078e+01	6.3287	39.899012	0.000486	4.863461	1.647785	-0.000195
 847	8.4177e+01	6.3014	39.705230	0.000486	4.863461	1.647785	-0.000195
 848	8.4276e+01	6.2517	39.491262	0.000537	5.370071	1.819429	-0.000215
 849	8.4376e+01	6.2180	39.289405	0.000507	5.066105	1.716443	-0.000203
 850	8.4475e+01	6.1715	39.055251	0.000588	5.876682	1.991074	-0.000235
 851	8.4575e+01	6.1362	38.845320	0.000527	5.268749	1.785101	-0.000211
 852	8.4674e+01	6.1009	38.663649	0.000456	4.559494	1.544799	-0.000183
 853	8.4774e+01	6.0480	38.461792	0.000507	5.066105	1.716443	-0.000203
 854	8.4874e+01	6.0095	38.243787	0.000547	5.471393	1.853758	-0.000219
 855	8.4973e+01	5.9694	38.058079	0.000466	4.660817	1.579127	-0.000187
 856	8.5073e+01	5.9357	37.872370	0.000466	4.660817	1.579127	-0.000187
 857	8.5172e+01	5.8940	37.622068	0.000628	6.281970	2.128389	-0.000252
 858	8.5272e+01	5.8490	37.428285	0.000486	4.863461	1.647785	-0.000195
 859	8.5371e+01	5.8137	37.214317	0.000537	5.370071	1.819429	-0.000215
 860	8.5471e+01	5.7720	37.016498	0.000496	4.964783	1.682114	-0.000199
 861	8.5570e+01	5.7432	36.802529	0.000537	5.370071	1.819429	-0.000215
 862	8.5669e+01	5.6886	36.612784	0.000476	4.762139	1.613456	-0.000191
 863	8.5769e+01	5.6469	36.390742	0.000557	5.572715	1.888087	-0.000223
 864	8.5868e+01	5.6180	36.140439	0.000628	6.281970	2.128389	-0.000252
 865	8.5968e+01	5.5747	35.946657	0.000486	4.863461	1.647785	-0.000195
 866	8.6067e+01	5.5378	35.769023	0.000446	4.458172	1.510470	-0.000179
 867	8.6167e+01	5.5041	35.538906	0.000578	5.775360	1.956745	-0.000231
 868	8.6266e+01	5.4624	35.320901	0.000547	5.471393	1.853758	-0.000219
 869	8.6366e+01	5.4191	35.066561	0.000638	6.383292	2.162718	-0.000256
 870	8.6466e+01	5.3774	34.901038	0.000415	4.154206	1.407483	-0.000166
 871	8.6565e+01	5.3357	34.699182	0.000507	5.066105	1.716443	-0.000203
 872	8.6665e+01	5.2940	34.505399	0.000486	4.863461	1.647785	-0.000195
 873	8.6764e+01	5.2619	34.299505	0.000517	5.167427	1.750772	-0.000207
 874	8.6864e+01	5.2105	34.089574	0.000527	5.268749	1.785101	-0.000211
 875	8.6963e+01	5.1720	33.891755	0.000496	4.964783	1.682114	-0.000199
 876	8.7063e+01	5.1400	33.661638	0.000578	5.775360	1.956745	-0.000231
 877	8.7162e+01	5.0966	33.504189	0.000395	3.951562	1.338825	-0.000158
 878	8.7261e+01	5.0549	33.245813	0.000648	6.484614	2.197047	-0.000260
 879	8.7361e+01	5.0116	33.035882	0.000527	5.268749	1.785101	-0.000211
 880	8.7460e+01	4.9779	32.842099	0.000486	4.863461	1.647785	-0.000195
 881	8.7560e+01	4.9346	32.652354	0.000476	4.762139	1.613456	-0.000191
 882	8.7659e+01	4.8977	32.426274	0.000567	5.674038	1.922416	-0.000227
 883	8.7759e+01	4.8528	32.212306	0.000537	5.370071	1.819429	-0.000215
 884	8.7859e+01	4.8255	32.002375	0.000527	5.268749	1.785101	-0.000211
 885	8.7958e+01	4.7726	31.828778	0.000436	4.356850	1.476141	-0.000174
 886	8.8058e+01	4.7357	31.630959	0.000496	4.964783	1.682114	-0.000199
 887	8.8157e+01	4.7068	31.360470	0.000679	6.788581	2.300033	-0.000272
 888	8.8257e+01	4.6619	31.190911	0.000426	4.255528	1.441812	-0.000170
 889	8.8356e+01	4.6138	30.985017	0.000517	5.167427	1.750772	-0.000207
 890	8.8456e+01	4.5833	30.799309	0.000466	4.660817	1.579127	-0.000187
 891	8.8555e+01	4.5384	30.561118	0.000598	5.978004	2.025403	-0.000239
 892	8.8654e+01	4.5127	30.379446	0.000456	4.559494	1.544799	-0.000183
 893	8.8754e+01	4.4550	30.149330	0.000578	5.775360	1.956745	-0.000231
 894	8.8853e+01	4.4213	29.947473	0.000507	5.066105	1.716443	-0.000203
 895	8.8953e+01	4.3812	29.737542	0.000527	5.268749	1.785101	-0.000211
 896	8.9052e+01	4.3427	29.531648	0.000517	5.167427	1.750772	-0.000207
 897	8.9152e+01	4.3009	29.358051	0.000436	4.356850	1.476141	-0.000174
 898	8.9251e+01	4.2673	29.091600	0.000669	6.687259	2.265705	-0.000268
 899	8.9351e+01	4.2127	28.930115	0.000405	4.052884	1.373154	-0.000162
 900	8.9451e+01	4.1870	28.704035	0.000567	5.674038	1.922416	-0.000227
 901	8.9550e+01	4.1405	28.481993	0.000557	5.572715	1.888087	-0.000223
 902	8.9650e+01	4.0924	28.272062	0.000527	5.268749	1.785101	-0.000211
 903	8.9749e+01	4.0571	28.045982	0.000567	5.674038	1.922416	-0.000227
 904	8.9849e+01	4.0234	27.803754	0.000608	6.079326	2.059731	-0.000243
 905	8.9948e+01	3.9865	27.597860	0.000517	5.167427	1.750772	-0.000207
 906	9.0047e+01	3.9368	27.408115	0.000476	4.762139	1.613456	-0.000191
 907	9.0147e+01	3.9015	27.198183	0.000527	5.268749	1.785101	-0.000211
 908	9.0246e+01	3.8598	26.972104	0.000567	5.674038	1.922416	-0.000227
 909	9.0346e+01	3.8245	26.758136	0.000537	5.370071	1.819429	-0.000215
 910	9.0445e+01	3.7812	26.548205	0.000527	5.268749	1.785101	-0.000211
 911	9.0545e+01	3.7443	26.334236	0.000537	5.370071	1.819429	-0.000215
 912	9.0644e+01	3.7074	26.116231	0.000547	5.471393	1.853758	-0.000219
 913	9.0744e+01	3.6721	25.922449	0.000486	4.863461	1.647785	-0.000195
 914	9.0844e+01	3.6272	25.704443	0.000547	5.471393	1.853758	-0.000219
 915	9.0943e+01	3.5871	25.494512	0.000527	5.268749	1.785101	-0.000211
 916	9.1043e+01	3.5486	25.276507	0.000547	5.471393	1.853758	-0.000219
 917	9.1142e+01	3.5004	25.066576	0.000527	5.268749	1.785101	-0.000211
 918	9.1242e+01	3.4700	24.905090	0.000405	4.052884	1.373154	-0.000162
 919	9.1341e+01	3.4250	24.658825	0.000618	6.180648	2.094060	-0.000248
 920	9.1441e+01	3.3673	24.424671	0.000588	5.876682	1.991074	-0.000235
 921	9.1540e+01	3.3528	24.194554	0.000578	5.775360	1.956745	-0.000231
 922	9.1639e+01	3.3095	24.016921	0.000446	4.458172	1.510470	-0.000179
 923	9.1739e+01	3.2630	23.811027	0.000517	5.167427	1.750772	-0.000207
 924	9.1838e+01	3.2309	23.584947	0.000567	5.674038	1.922416	-0.000227
 925	9.1938e+01	3.1892	23.383090	0.000507	5.066105	1.716443	-0.000203
 926	9.2037e+01	3.1411	23.169122	0.000537	5.370071	1.819429	-0.000215
 927	9.2137e+01	3.1026	22.910745	0.000648	6.484614	2.197047	-0.000260
 928	9.2237e+01	3.0657	22.725037	0.000466	4.660817	1.579127	-0.000187
 929	9.2336e+01	3.0288	22.531255	0.000486	4.863461	1.647785	-0.000195
 930	9.2436e+01	2.9791	22.256729	0.000689	6.889903	2.334362	-0.000276
 931	9.2535e+01	2.9518	22.062947	0.000486	4.863461	1.647785	-0.000195
 932	9.2635e+01	2.9117	21.885313	0.000446	4.458172	1.510470	-0.000179
 933	9.2734e+01	2.8620	21.630973	0.000638	6.383292	2.162718	-0.000256
 934	9.2834e+01	2.8251	21.425079	0.000517	5.167427	1.750772	-0.000207
 935	9.2933e+01	2.7769	21.182851	0.000608	6.079326	2.059731	-0.000243
 936	9.3032e+01	2.7432	20.980994	0.000507	5.066105	1.716443	-0.000203
 937	9.3132e+01	2.7031	20.783175	0.000496	4.964783	1.682114	-0.000199
 938	9.3231e+01	2.6694	20.528835	0.000638	6.383292	2.162718	-0.000256
 939	9.3331e+01	2.6277	20.335053	0.000486	4.863461	1.647785	-0.000195
 940	9.3430e+01	2.5908	20.117047	0.000547	5.471393	1.853758	-0.000219
 941	9.3530e+01	2.5571	19.886931	0.000578	5.775360	1.956745	-0.000231
 942	9.3629e+01	2.5090	19.681037	0.000517	5.167427	1.750772	-0.000207
 943	9.3729e+01	2.4705	19.483217	0.000496	4.964783	1.682114	-0.000199
 944	9.3829e+01	2.4224	19.269249	0.000537	5.370071	1.819429	-0.000215
 945	9.3928e+01	2.3871	19.031058	0.000598	5.978004	2.025403	-0.000239
 946	9.4028e+01	2.3470	18.845350	0.000466	4.660817	1.579127	-0.000187
 947	9.4127e+01	2.3117	18.591010	0.000638	6.383292	2.162718	-0.000256
 948	9.4227e+01	2.2700	18.373005	0.000547	5.471393	1.853758	-0.000219
 949	9.4326e+01	2.2219	18.150962	0.000557	5.572715	1.888087	-0.000223
 950	9.4425e+01	2.1850	17.973328	0.000446	4.458172	1.510470	-0.000179
 951	9.4525e+01	2.1513	17.787620	0.000466	4.660817	1.579127	-0.000187
 952	9.4624e+01	2.1096	17.537318	0.000628	6.281970	2.128389	-0.000252
 953	9.4724e+01	2.0582	17.339498	0.000496	4.964783	1.682114	-0.000199
 954	9.4823e+01	2.0213	17.101307	0.000598	5.978004	2.025403	-0.000239
 955	9.4923e+01	1.9860	16.879265	0.000557	5.572715	1.888087	-0.000223
 956	9.5022e+01	1.9379	16.657222	0.000557	5.572715	1.888087	-0.000223
 957	9.5122e+01	1.9042	16.451328	0.000517	5.167427	1.750772	-0.000207
 958	9.5222e+01	1.8721	16.237360	0.000537	5.370071	1.819429	-0.000215
 959	9.5321e+01	1.8320	15.995132	0.000608	6.079326	2.059731	-0.000243
 960	9.5421e+01	1.7999	15.773089	0.000557	5.572715	1.888087	-0.000223
 961	9.5520e+01	1.7550	15.603530	0.000426	4.255528	1.441812	-0.000170
 962	9.5620e+01	1.7101	15.341116	0.000659	6.585936	2.231376	-0.000264
 963	9.5719e+01	1.6780	15.139259	0.000507	5.066105	1.716443	-0.000203
 964	9.5819e+01	1.6347	14.917217	0.000557	5.572715	1.888087	-0.000223
 965	9.5918e+01	1.5914	14.687100	0.000578	5.775360	1.956745	-0.000231
 966	9.6017e+01	1.5465	14.465057	0.000557	5.572715	1.888087	-0.000223
 967	9.6117e+01	1.5096	14.243015	0.000557	5.572715	1.888087	-0.000223
 968	9.6216e+01	1.4759	14.025010	0.000547	5.471393	1.853758	-0.000219
 969	9.6316e+01	1.4342	13.835264	0.000476	4.762139	1.613456	-0.000191
 970	9.6415e+01	1.3877	13.613222	0.000557	5.572715	1.888087	-0.000223
 971	9.6515e+01	1.3508	13.346771	0.000669	6.687259	2.265705	-0.000268
 972	9.6615e+01	1.3171	13.148951	0.000496	4.964783	1.682114	-0.000199
 973	9.6714e+01	1.2754	12.943057	0.000517	5.167427	1.750772	-0.000207
 974	9.6814e+01	1.2353	12.733126	0.000527	5.268749	1.785101	-0.000211
 975	9.6913e+01	1.1919	12.450527	0.000709	7.092547	2.403020	-0.000284
 976	9.7013e+01	1.1583	12.252707	0.000496	4.964783	1.682114	-0.000199
 977	9.7112e+01	1.1214	11.986256	0.000669	6.687259	2.265705	-0.000268
 978	9.7212e+01	1.0732	11.836882	0.000375	3.748918	1.270168	-0.000150
 979	9.7311e+01	1.0299	11.626951	0.000527	5.268749	1.785101	-0.000211
 980	9.7410e+01	0.9978	11.388760	0.000598	5.978004	2.025403	-0.000239
 981	9.7510e+01	0.9481	11.174792	0.000537	5.370071	1.819429	-0.000215
 982	9.7609e+01	0.9128	10.952749	0.000557	5.572715	1.888087	-0.000223
 983	9.7709e+01	0.8727	10.750892	0.000507	5.066105	1.716443	-0.000203
 984	9.7808e+01	0.8374	10.508664	0.000608	6.079326	2.059731	-0.000243
 985	9.7908e+01	0.7941	10.339105	0.000426	4.255528	1.441812	-0.000170
 986	9.8007e+01	0.7540	10.104951	0.000588	5.876682	1.991074	-0.000235
 987	9.8107e+01	0.7123	9.886945	0.000547	5.471393	1.853758	-0.000219
 988	9.8207e+01	0.6786	9.681051	0.000517	5.167427	1.750772	-0.000207
 989	9.8306e+01	0.6289	9.418638	0.000659	6.585936	2.231376	-0.000264
 990	9.8406e+01	0.5968	9.241004	0.000446	4.458172	1.510470	-0.000179
 991	9.8505e+01	0.5519	9.014924	0.000567	5.674038	1.922416	-0.000227
 992	9.8605e+01	0.5166	8.821142	0.000486	4.863461	1.647785	-0.000195
 993	9.8704e+01	0.4797	8.578913	0.000608	6.079326	2.059731	-0.000243
 994	9.8803e+01	0.4331	8.340722	0.000598	5.978004	2.025403	-0.000239
 995	9.8903e+01	0.3946	8.114643	0.000567	5.674038	1.922416	-0.000227
 996	9.9002e+01	0.3529	7.904712	0.000527	5.268749	1.785101	-0.000211
 997	9.9102e+01	0.3144	7.751301	0.000385	3.850240	1.304497	-0.000154
 998	9.9201e+01	0.2775	7.513110	0.000598	5.978004	2.025403	-0.000239
 999	9.9301e+01	0.2246	7.303179	0.000527	5.268749	1.785101	-0.000211
1000	9.9400e+01	0.2021	7.048839	0.000638	6.383292	2.162718	-0.000256
1001	9.9500e+01	0.1588	6.875242	0.000436	4.356850	1.476141	-0.000174
1002	9.9600e+01	0.1139	6.673385	0.000507	5.066105	1.716443	-0.000203
1003	9.9699e+01	0.0738	6.439232	0.000588	5.876682	1.991074	-0.000235
1004	9.9799e+01	0.0337	6.192966	0.000618	6.180648	2.094060	-0.000248
1005	9.9898e+01	0.0032	6.035518	0.000395	3.951562	1.338825	-0.000158
1006	9.9998e+01	-0.0337	5.865958	0.000426	4.255528	1.441812	-0.000170
1007	1.0010e+02	-0.0658	5.611619	0.000638	6.383292	2.162718	-0.000256
1008	1.0020e+02	-0.1299	5.401688	0.000527	5.268749	1.785101	-0.000211
1009	1.0030e+02	-0.1588	5.171571	0.000578	5.775360	1.956745	-0.000231
1010	1.0040e+02	-0.2021	4.957603	0.000537	5.370071	1.819429	-0.000215
1011	1.0050e+02	-0.2342	4.759783	0.000496	4.964783	1.682114	-0.000199
1012	1.0059e+02	-0.2679	4.533703	0.000567	5.674038	1.922416	-0.000227
1013	1.0069e+02	-0.3112	4.259178	0.000689	6.889903	2.334362	-0.000276
1014	1.0079e+02	-0.3545	4.093656	0.000415	4.154206	1.407483	-0.000166
1015	1.0089e+02	-0.3914	3.920059	0.000436	4.356850	1.476141	-0.000174
1016	1.0099e+02	-0.4380	3.665719	0.000638	6.383292	2.162718	-0.000256
1017	1.0109e+02	-0.4684	3.471937	0.000486	4.863461	1.647785	-0.000195
1018	1.0119e+02	-0.5230	3.262006	0.000527	5.268749	1.785101	-0.000211
1019	1.0129e+02	-0.5567	3.076297	0.000466	4.660817	1.579127	-0.000187
1020	1.0139e+02	-0.5888	2.825995	0.000628	6.281970	2.128389	-0.000252
1021	1.0149e+02	-0.6305	2.620101	0.000517	5.167427	1.750772	-0.000207
1022	1.0159e+02	-0.6706	2.414207	0.000517	5.167427	1.750772	-0.000207
1023	1.0169e+02	-0.7107	2.236573	0.000446	4.458172	1.510470	-0.000179
1024	1.0179e+02	-0.7556	2.006456	0.000578	5.775360	1.956745	-0.000231
1025	1.0189e+02	-0.8005	1.764228	0.000608	6.079326	2.059731	-0.000243
1026	1.0199e+02	-0.8278	1.554297	0.000527	5.268749	1.785101	-0.000211
1027	1.0209e+02	-0.8775	1.295921	0.000648	6.484614	2.197047	-0.000260
1028	1.0219e+02	-0.9112	1.106175	0.000476	4.762139	1.613456	-0.000191
1029	1.0229e+02	-0.9577	0.855873	0.000628	6.281970	2.128389	-0.000252
1030	1.0239e+02	-0.9850	0.710536	0.000365	3.647596	1.235839	-0.000146
1031	1.0248e+02	-1.0347	0.504642	0.000517	5.167427	1.750772	-0.000207
1032	1.0258e+02	-1.0748	0.274525	0.000578	5.775360	1.956745	-0.000231
1033	1.0268e+02	-1.1198	0.060557	0.000537	5.370071	1.819429	-0.000215
1034	1.0278e+02	-1.1534	-0.117077	0.000446	4.458172	1.510470	-0.000179
1035	1.0288e+02	-1.1855	-0.359305	0.000608	6.079326	2.059731	-0.000243
1036	1.0298e+02	-1.2321	-0.589422	0.000578	5.775360	1.956745	-0.000231
1037	1.0308e+02	-1.2722	-0.758982	0.000426	4.255528	1.441812	-0.000170
1038	1.0318e+02	-1.3171	-0.976987	0.000547	5.471393	1.853758	-0.000219
1039	1.0328e+02	-1.3540	-1.211141	0.000588	5.876682	1.991074	-0.000235
1040	1.0338e+02	-1.3812	-1.396849	0.000466	4.660817	1.579127	-0.000187
1041	1.0348e+02	-1.4342	-1.651189	0.000638	6.383292	2.162718	-0.000256
1042	1.0358e+02	-1.4711	-1.885342	0.000588	5.876682	1.991074	-0.000235
1043	1.0368e+02	-1.5032	-2.050865	0.000415	4.154206	1.407483	-0.000166
1044	1.0378e+02	-1.5481	-2.280982	0.000578	5.775360	1.956745	-0.000231
1045	1.0388e+02	-1.5818	-2.507061	0.000567	5.674038	1.922416	-0.000227
1046	1.0398e+02	-1.6283	-2.696807	0.000476	4.762139	1.613456	-0.000191
1047	1.0408e+02	-1.6652	-2.910775	0.000537	5.370071	1.819429	-0.000215
1048	1.0418e+02	-1.7069	-3.076297	0.000415	4.154206	1.407483	-0.000166
1049	1.0428e+02	-1.7518	-3.310451	0.000588	5.876682	1.991074	-0.000235
1050	1.0438e+02	-1.7887	-3.496160	0.000466	4.660817	1.579127	-0.000187
1051	1.0447e+02	-1.8240	-3.758573	0.000659	6.585936	2.231376	-0.000264
1052	1.0457e+02	-1.8689	-3.920059	0.000405	4.052884	1.373154	-0.000162
1053	1.0467e+02	-1.9074	-4.142101	0.000557	5.572715	1.888087	-0.000223
1054	1.0477e+02	-1.9572	-4.327810	0.000466	4.660817	1.579127	-0.000187
1055	1.0487e+02	-1.9892	-4.557926	0.000578	5.775360	1.956745	-0.000231
1056	1.0497e+02	-2.0342	-4.759783	0.000507	5.066105	1.716443	-0.000203
1057	1.0507e+02	-2.0727	-5.002011	0.000608	6.079326	2.059731	-0.000243
1058	1.0517e+02	-2.1096	-5.203868	0.000507	5.066105	1.716443	-0.000203
1059	1.0527e+02	-2.1449	-5.401688	0.000496	4.964783	1.682114	-0.000199
1060	1.0537e+02	-2.1898	-5.579322	0.000446	4.458172	1.510470	-0.000179
1061	1.0547e+02	-2.2315	-5.805401	0.000567	5.674038	1.922416	-0.000227
1062	1.0557e+02	-2.2652	-6.063778	0.000648	6.484614	2.197047	-0.000260
1063	1.0567e+02	-2.3117	-6.253523	0.000476	4.762139	1.613456	-0.000191
1064	1.0577e+02	-2.3470	-6.483640	0.000578	5.775360	1.956745	-0.000231
1065	1.0587e+02	-2.3919	-6.633014	0.000375	3.748918	1.270168	-0.000150
1066	1.0597e+02	-2.4304	-6.863131	0.000578	5.775360	1.956745	-0.000231
1067	1.0607e+02	-2.4641	-7.073062	0.000527	5.268749	1.785101	-0.000211
1068	1.0617e+02	-2.5074	-7.278956	0.000517	5.167427	1.750772	-0.000207
1069	1.0627e+02	-2.5491	-7.500998	0.000557	5.572715	1.888087	-0.000223
1070	1.0637e+02	-2.5844	-7.690744	0.000476	4.762139	1.613456	-0.000191
1071	1.0647e+02	-2.6277	-7.896638	0.000517	5.167427	1.750772	-0.000207
1072	1.0656e+02	-2.6694	-8.114643	0.000547	5.471393	1.853758	-0.000219
1073	1.0666e+02	-2.7079	-8.308425	0.000486	4.863461	1.647785	-0.000195
1074	1.0676e+02	-2.7481	-8.550653	0.000608	6.079326	2.059731	-0.000243
1075	1.0686e+02	-2.7849	-8.772696	0.000557	5.572715	1.888087	-0.000223
1076	1.0696e+02	-2.8267	-8.986664	0.000537	5.370071	1.819429	-0.000215
1077	1.0706e+02	-2.8684	-9.172372	0.000466	4.660817	1.579127	-0.000187
1078	1.0716e+02	-2.9037	-9.386341	0.000537	5.370071	1.819429	-0.000215
1079	1.0726e+02	-2.9438	-9.636643	0.000628	6.281970	2.128389	-0.000252
1080	1.0736e+02	-2.9823	-9.818314	0.000456	4.559494	1.544799	-0.000183
1081	1.0746e+02	-3.0272	-10.072654	0.000638	6.383292	2.162718	-0.000256
1082	1.0756e+02	-3.0721	-10.278548	0.000517	5.167427	1.750772	-0.000207
1083	1.0766e+02	-3.1010	-10.476367	0.000496	4.964783	1.682114	-0.000199
1084	1.0776e+02	-3.1427	-10.637853	0.000405	4.052884	1.373154	-0.000162
1085	1.0786e+02	-3.1844	-10.884118	0.000618	6.180648	2.094060	-0.000248
1086	1.0796e+02	-3.2133	-11.073863	0.000476	4.762139	1.613456	-0.000191
1087	1.0806e+02	-3.2694	-11.251497	0.000446	4.458172	1.510470	-0.000179
1088	1.0816e+02	-3.3015	-11.489688	0.000598	5.978004	2.025403	-0.000239
1089	1.0826e+02	-3.3432	-11.703657	0.000537	5.370071	1.819429	-0.000215
1090	1.0836e+02	-3.3801	-11.921662	0.000547	5.471393	1.853758	-0.000219
1091	1.0845e+02	-3.4282	-12.131593	0.000527	5.268749	1.785101	-0.000211
1092	1.0855e+02	-3.4716	-12.321338	0.000476	4.762139	1.613456	-0.000191
1093	1.0865e+02	-3.5004	-12.563566	0.000608	6.079326	2.059731	-0.000243
1094	1.0875e+02	-3.5518	-12.753312	0.000476	4.762139	1.613456	-0.000191
1095	1.0885e+02	-3.5790	-12.959206	0.000517	5.167427	1.750772	-0.000207
1096	1.0895e+02	-3.6224	-13.193360	0.000588	5.876682	1.991074	-0.000235
1097	1.0905e+02	-3.6593	-13.427513	0.000588	5.876682	1.991074	-0.000235
1098	1.0915e+02	-3.6945	-13.661667	0.000588	5.876682	1.991074	-0.000235
1099	1.0925e+02	-3.7491	-13.835264	0.000436	4.356850	1.476141	-0.000174
1100	1.0935e+02	-3.7780	-14.025010	0.000476	4.762139	1.613456	-0.000191
1101	1.0945e+02	-3.8133	-14.226866	0.000507	5.066105	1.716443	-0.000203
1102	1.0955e+02	-3.8614	-14.461020	0.000588	5.876682	1.991074	-0.000235
1103	1.0965e+02	-3.9063	-14.683063	0.000557	5.572715	1.888087	-0.000223
1104	1.0975e+02	-3.9352	-14.884919	0.000507	5.066105	1.716443	-0.000203
1105	1.0985e+02	-3.9897	-15.098888	0.000537	5.370071	1.819429	-0.000215
1106	1.0995e+02	-4.0266	-15.337079	0.000598	5.978004	2.025403	-0.000239
1107	1.1005e+02	-4.0539	-15.547010	0.000527	5.268749	1.785101	-0.000211
1108	1.1015e+02	-4.1084	-15.732718	0.000466	4.660817	1.579127	-0.000187
1109	1.1025e+02	-4.1421	-15.962835	0.000578	5.775360	1.956745	-0.000231
1110	1.1035e+02	-4.1838	-16.156617	0.000486	4.863461	1.647785	-0.000195
1111	1.1044e+02	-4.2175	-16.346363	0.000476	4.762139	1.613456	-0.000191
1112	1.1054e+02	-4.2657	-16.568405	0.000557	5.572715	1.888087	-0.000223
1113	1.1064e+02	-4.2993	-16.782373	0.000537	5.370071	1.819429	-0.000215
1114	1.1074e+02	-4.3346	-16.988267	0.000517	5.167427	1.750772	-0.000207
1115	1.1084e+02	-4.3731	-17.242607	0.000638	6.383292	2.162718	-0.000256
1116	1.1094e+02	-4.4213	-17.387944	0.000365	3.647596	1.235839	-0.000146
1117	1.1104e+02	-4.4501	-17.569615	0.000456	4.559494	1.544799	-0.000183
1118	1.1114e+02	-4.4967	-17.819917	0.000628	6.281970	2.128389	-0.000252
1119	1.1124e+02	-4.5352	-18.041960	0.000557	5.572715	1.888087	-0.000223
1120	1.1134e+02	-4.5705	-18.211519	0.000426	4.255528	1.441812	-0.000170
1121	1.1144e+02	-4.6009	-18.425488	0.000537	5.370071	1.819429	-0.000215
1122	1.1154e+02	-4.6539	-18.651567	0.000567	5.674038	1.922416	-0.000227
1123	1.1164e+02	-4.6972	-18.877647	0.000567	5.674038	1.922416	-0.000227
1124	1.1174e+02	-4.7293	-19.043169	0.000415	4.154206	1.407483	-0.000166
1125	1.1184e+02	-4.7774	-19.269249	0.000567	5.674038	1.922416	-0.000227
1126	1.1194e+02	-4.8271	-19.463031	0.000486	4.863461	1.647785	-0.000195
1127	1.1204e+02	-4.8544	-19.705260	0.000608	6.079326	2.059731	-0.000243
1128	1.1214e+02	-4.9073	-19.903079	0.000496	4.964783	1.682114	-0.000199
1129	1.1224e+02	-4.9282	-20.100899	0.000496	4.964783	1.682114	-0.000199
1130	1.1234e+02	-4.9699	-20.351201	0.000628	6.281970	2.128389	-0.000252
1131	1.1244e+02	-5.0212	-20.561132	0.000527	5.268749	1.785101	-0.000211
1132	1.1253e+02	-5.0501	-20.775101	0.000537	5.370071	1.819429	-0.000215
1133	1.1263e+02	-5.0902	-20.985032	0.000527	5.268749	1.785101	-0.000211
1134	1.1273e+02	-5.1239	-21.170740	0.000466	4.660817	1.579127	-0.000187
1135	1.1283e+02	-5.1753	-21.328188	0.000395	3.951562	1.338825	-0.000158
1136	1.1293e+02	-5.2234	-21.566379	0.000598	5.978004	2.025403	-0.000239
1137	1.1303e+02	-5.2571	-21.800533	0.000588	5.876682	1.991074	-0.000235
1138	1.1313e+02	-5.2956	-21.998353	0.000496	4.964783	1.682114	-0.000199
1139	1.1323e+02	-5.3389	-22.200209	0.000507	5.066105	1.716443	-0.000203
1140	1.1333e+02	-5.3726	-22.414178	0.000537	5.370071	1.819429	-0.000215
1141	1.1343e+02	-5.4223	-22.632183	0.000547	5.471393	1.853758	-0.000219
1142	1.1353e+02	-5.4528	-22.785594	0.000385	3.850240	1.304497	-0.000154
1143	1.1363e+02	-5.5041	-23.023785	0.000598	5.978004	2.025403	-0.000239
1144	1.1373e+02	-5.5346	-23.225642	0.000507	5.066105	1.716443	-0.000203
1145	1.1383e+02	-5.5731	-23.496130	0.000679	6.788581	2.300033	-0.000272
1146	1.1393e+02	-5.6132	-23.649541	0.000385	3.850240	1.304497	-0.000154
1147	1.1403e+02	-5.6549	-23.859472	0.000527	5.268749	1.785101	-0.000211
1148	1.1413e+02	-5.6854	-24.093626	0.000588	5.876682	1.991074	-0.000235
1149	1.1423e+02	-5.7303	-24.307594	0.000537	5.370071	1.819429	-0.000215
1150	1.1433e+02	-5.7768	-24.525600	0.000547	5.471393	1.853758	-0.000219
1151	1.1442e+02	-5.8105	-24.759753	0.000588	5.876682	1.991074	-0.000235
1152	1.1452e+02	-5.8554	-24.929313	0.000426	4.255528	1.441812	-0.000170
1153	1.1462e+02	-5.9020	-25.086761	0.000395	3.951562	1.338825	-0.000158
1154	1.1472e+02	-5.9341	-25.324952	0.000598	5.978004	2.025403	-0.000239
1155	1.1482e+02	-5.9790	-25.490475	0.000415	4.154206	1.407483	-0.000166
1156	1.1492e+02	-6.0127	-25.704443	0.000537	5.370071	1.819429	-0.000215
1157	1.1502e+02	-6.0528	-25.914374	0.000527	5.268749	1.785101	-0.000211
1158	1.1512e+02	-6.0977	-26.112194	0.000496	4.964783	1.682114	-0.000199
1159	1.1522e+02	-6.1410	-26.322125	0.000527	5.268749	1.785101	-0.000211
1160	1.1532e+02	-6.1763	-26.511870	0.000476	4.762139	1.613456	-0.000191
1161	1.1542e+02	-6.2084	-26.733913	0.000557	5.572715	1.888087	-0.000223
1162	1.1552e+02	-6.2581	-26.935770	0.000507	5.066105	1.716443	-0.000203
1163	1.1562e+02	-6.3014	-27.161849	0.000567	5.674038	1.922416	-0.000227
1164	1.1572e+02	-6.3319	-27.371780	0.000527	5.268749	1.785101	-0.000211
1165	1.1582e+02	-6.3576	-27.541340	0.000426	4.255528	1.441812	-0.000170
1166	1.1592e+02	-6.4041	-27.767420	0.000567	5.674038	1.922416	-0.000227
1167	1.1602e+02	-6.4410	-27.969276	0.000507	5.066105	1.716443	-0.000203
1168	1.1612e+02	-6.4843	-28.187282	0.000547	5.471393	1.853758	-0.000219
1169	1.1622e+02	-6.5292	-28.332619	0.000365	3.647596	1.235839	-0.000146
1170	1.1632e+02	-6.5806	-28.558698	0.000567	5.674038	1.922416	-0.000227
1171	1.1642e+02	-6.6046	-28.704035	0.000365	3.647596	1.235839	-0.000146
1172	1.1651e+02	-6.6544	-28.950300	0.000618	6.180648	2.094060	-0.000248
1173	1.1661e+02	-6.6832	-29.136009	0.000466	4.660817	1.579127	-0.000187
1174	1.1671e+02	-6.7330	-29.325754	0.000476	4.762139	1.613456	-0.000191
1175	1.1681e+02	-6.7667	-29.559908	0.000588	5.876682	1.991074	-0.000235
1176	1.1691e+02	-6.8068	-29.761765	0.000507	5.066105	1.716443	-0.000203
1177	1.1701e+02	-6.8485	-29.955547	0.000486	4.863461	1.647785	-0.000195
1178	1.1711e+02	-6.8966	-30.149330	0.000486	4.863461	1.647785	-0.000195
1179	1.1721e+02	-6.9271	-30.335038	0.000466	4.660817	1.579127	-0.000187
1180	1.1731e+02	-6.9592	-30.540932	0.000517	5.167427	1.750772	-0.000207
1181	1.1741e+02	-7.0121	-30.734714	0.000486	4.863461	1.647785	-0.000195
1182	1.1751e+02	-7.0458	-30.924460	0.000476	4.762139	1.613456	-0.000191
1183	1.1761e+02	-7.0875	-31.142465	0.000547	5.471393	1.853758	-0.000219
1184	1.1771e+02	-7.1276	-31.376619	0.000588	5.876682	1.991074	-0.000235
1185	1.1781e+02	-7.1645	-31.582513	0.000517	5.167427	1.750772	-0.000207
1186	1.1791e+02	-7.2014	-31.703627	0.000304	3.039663	1.029866	-0.000122
1187	1.1801e+02	-7.2479	-31.913558	0.000527	5.268749	1.785101	-0.000211
1188	1.1811e+02	-7.2896	-32.135600	0.000557	5.572715	1.888087	-0.000223
1189	1.1821e+02	-7.3281	-32.321309	0.000466	4.660817	1.579127	-0.000187
1190	1.1831e+02	-7.3586	-32.502980	0.000456	4.559494	1.544799	-0.000183
1191	1.1841e+02	-7.4148	-32.704837	0.000507	5.066105	1.716443	-0.000203
1192	1.1850e+02	-7.4517	-32.882471	0.000446	4.458172	1.510470	-0.000179
1193	1.1860e+02	-7.4902	-33.104513	0.000557	5.572715	1.888087	-0.000223
1194	1.1870e+02	-7.5255	-33.286184	0.000456	4.559494	1.544799	-0.000183
1195	1.1880e+02	-7.5624	-33.512264	0.000567	5.674038	1.922416	-0.000227
1196	1.1890e+02	-7.6057	-33.681823	0.000426	4.255528	1.441812	-0.000170
1197	1.1900e+02	-7.6506	-33.891755	0.000527	5.268749	1.785101	-0.000211
1198	1.1910e+02	-7.6843	-34.033054	0.000355	3.546273	1.201510	-0.000142
1199	1.1920e+02	-7.7340	-34.259134	0.000567	5.674038	1.922416	-0.000227
1200	1.1930e+02	-7.7661	-34.493288	0.000588	5.876682	1.991074	-0.000235
1201	1.1940e+02	-7.8142	-34.703219	0.000527	5.268749	1.785101	-0.000211
1202	1.1950e+02	-7.8399	-34.909113	0.000517	5.167427	1.750772	-0.000207
1203	1.1960e+02	-7.8816	-35.070598	0.000405	4.052884	1.373154	-0.000162
1204	1.1970e+02	-7.9185	-35.256306	0.000466	4.660817	1.579127	-0.000187
1205	1.1980e+02	-7.9602	-35.462200	0.000517	5.167427	1.750772	-0.000207
1206	1.1990e+02	-8.0035	-35.651946	0.000476	4.762139	1.613456	-0.000191
1207	1.2000e+02	-8.0420	-35.845728	0.000486	4.863461	1.647785	-0.000195
1208	1.2010e+02	-8.0901	-36.023362	0.000446	4.458172	1.510470	-0.000179
1209	1.2020e+02	-8.1254	-36.200996	0.000446	4.458172	1.510470	-0.000179
1210	1.2030e+02	-8.1591	-36.423039	0.000557	5.572715	1.888087	-0.000223
1211	1.2039e+02	-8.2073	-36.608747	0.000466	4.660817	1.579127	-0.000187
1212	1.2049e+02	-8.2409	-36.802529	0.000486	4.863461	1.647785	-0.000195
1213	1.2059e+02	-8.2859	-37.000349	0.000496	4.964783	1.682114	-0.000199
1214	1.2069e+02	-8.3228	-37.186057	0.000466	4.660817	1.579127	-0.000187
1215	1.2079e+02	-8.3613	-37.375803	0.000476	4.762139	1.613456	-0.000191
1216	1.2089e+02	-8.4014	-37.561511	0.000466	4.660817	1.579127	-0.000187
1217	1.2099e+02	-8.4351	-37.787591	0.000567	5.674038	1.922416	-0.000227
1218	1.2109e+02	-8.4736	-37.973299	0.000466	4.660817	1.579127	-0.000187
1219	1.2119e+02	-8.5281	-38.211490	0.000598	5.978004	2.025403	-0.000239
1220	1.2129e+02	-8.5586	-38.389124	0.000446	4.458172	1.510470	-0.000179
1221	1.2139e+02	-8.6051	-38.542535	0.000385	3.850240	1.304497	-0.000154
1222	1.2149e+02	-8.6356	-38.691909	0.000375	3.748918	1.270168	-0.000150
1223	1.2159e+02	-8.6869	-38.869543	0.000446	4.458172	1.510470	-0.000179
1224	1.2169e+02	-8.7206	-39.091585	0.000557	5.572715	1.888087	-0.000223
1225	1.2179e+02	-8.7607	-39.240959	0.000375	3.748918	1.270168	-0.000150
1226	1.2189e+02	-8.7944	-39.450890	0.000527	5.268749	1.785101	-0.000211
1227	1.2199e+02	-8.8361	-39.600264	0.000375	3.748918	1.270168	-0.000150
1228	1.2209e+02	-8.8746	-39.838455	0.000598	5.978004	2.025403	-0.000239
1229	1.2219e+02	-8.9195	-40.003978	0.000415	4.154206	1.407483	-0.000166
1230	1.2229e+02	-8.9612	-40.185649	0.000456	4.559494	1.544799	-0.000183
1231	1.2239e+02	-8.9981	-40.423840	0.000598	5.978004	2.025403	-0.000239
1232	1.2248e+02	-9.0302	-40.577251	0.000385	3.850240	1.304497	-0.000154
1233	1.2258e+02	-9.0784	-40.799294	0.000557	5.572715	1.888087	-0.000223
1234	1.2268e+02	-9.1281	-40.948668	0.000375	3.748918	1.270168	-0.000150
1235	1.2278e+02	-9.1586	-41.203007	0.000638	6.383292	2.162718	-0.000256
1236	1.2288e+02	-9.1890	-41.372567	0.000426	4.255528	1.441812	-0.000170
1237	1.2298e+02	-9.2372	-41.614795	0.000608	6.079326	2.059731	-0.000243
1238	1.2308e+02	-9.2837	-41.804541	0.000476	4.762139	1.613456	-0.000191
1239	1.2318e+02	-9.3190	-41.957952	0.000385	3.850240	1.304497	-0.000154
1240	1.2328e+02	-9.3559	-42.151734	0.000486	4.863461	1.647785	-0.000195
1241	1.2338e+02	-9.3928	-42.321294	0.000426	4.255528	1.441812	-0.000170
1242	1.2348e+02	-9.4393	-42.511039	0.000476	4.762139	1.613456	-0.000191
1243	1.2358e+02	-9.4730	-42.704822	0.000486	4.863461	1.647785	-0.000195
1244	1.2368e+02	-9.5211	-42.854196	0.000375	3.748918	1.270168	-0.000150
1245	1.2378e+02	-9.5548	-43.064127	0.000527	5.268749	1.785101	-0.000211
1246	1.2388e+02	-9.6029	-43.298281	0.000588	5.876682	1.991074	-0.000235
1247	1.2398e+02	-9.6382	-43.471878	0.000436	4.356850	1.476141	-0.000174
1248	1.2408e+02	-9.6783	-43.617215	0.000365	3.647596	1.235839	-0.000146
1249	1.2418e+02	-9.7168	-43.810997	0.000486	4.863461	1.647785	-0.000195
1250	1.2428e+02	-9.7521	-43.996705	0.000466	4.660817	1.579127	-0.000187
1251	1.2438e+02	-9.7954	-44.190488	0.000486	4.863461	1.647785	-0.000195
1252	1.2447e+02	-9.8275	-44.384270	0.000486	4.863461	1.647785	-0.000195
1253	1.2457e+02	-9.8741	-44.634573	0.000628	6.281970	2.128389	-0.000252
1254	1.2467e+02	-9.9238	-44.848541	0.000537	5.370071	1.819429	-0.000215
1255	1.2477e+02	-9.9559	-44.965618	0.000294	2.938341	0.995537	-0.000118
1256	1.2487e+02	-9.9960	-45.167475	0.000507	5.066105	1.716443	-0.000203
1257	1.2497e+02	-10.0313	-45.349146	0.000456	4.559494	1.544799	-0.000183
1258	1.2507e+02	-10.0746	-45.555040	0.000517	5.167427	1.750772	-0.000207
1259	1.2517e+02	-10.1147	-45.708451	0.000385	3.850240	1.304497	-0.000154
1260	1.2527e+02	-10.1628	-45.934530	0.000567	5.674038	1.922416	-0.000227
1261	1.2537e+02	-10.1901	-46.083904	0.000375	3.748918	1.270168	-0.000150
1262	1.2547e+02	-10.2350	-46.265576	0.000456	4.559494	1.544799	-0.000183
1263	1.2557e+02	-10.2735	-46.503767	0.000598	5.978004	2.025403	-0.000239
1264	1.2567e+02	-10.3120	-46.689475	0.000466	4.660817	1.579127	-0.000187
1265	1.2577e+02	-10.3521	-46.834812	0.000365	3.647596	1.235839	-0.000146
1266	1.2587e+02	-10.4002	-47.032631	0.000496	4.964783	1.682114	-0.000199
1267	1.2597e+02	-10.4307	-47.262748	0.000578	5.775360	1.956745	-0.000231
1268	1.2607e+02	-10.4788	-47.408085	0.000365	3.647596	1.235839	-0.000146
1269	1.2617e+02	-10.5174	-47.634165	0.000567	5.674038	1.922416	-0.000227
1270	1.2627e+02	-10.5494	-47.815836	0.000456	4.559494	1.544799	-0.000183
1271	1.2636e+02	-10.5895	-48.041915	0.000567	5.674038	1.922416	-0.000227
1272	1.2646e+02	-10.6264	-48.199364	0.000395	3.951562	1.338825	-0.000158
1273	1.2656e+02	-10.6730	-48.397183	0.000496	4.964783	1.682114	-0.000199
1274	1.2666e+02	-10.7099	-48.586929	0.000476	4.762139	1.613456	-0.000191
1275	1.2676e+02	-10.7596	-48.756488	0.000426	4.255528	1.441812	-0.000170
1276	1.2686e+02	-10.7981	-48.954308	0.000496	4.964783	1.682114	-0.000199
1277	1.2696e+02	-10.8302	-49.111756	0.000395	3.951562	1.338825	-0.000158
1278	1.2706e+02	-10.8767	-49.285353	0.000436	4.356850	1.476141	-0.000174
1279	1.2716e+02	-10.9104	-49.503358	0.000547	5.471393	1.853758	-0.000219
1280	1.2726e+02	-10.9537	-49.685030	0.000456	4.559494	1.544799	-0.000183
1281	1.2736e+02	-10.9954	-49.882849	0.000496	4.964783	1.682114	-0.000199
1282	1.2746e+02	-11.0355	-50.096817	0.000537	5.370071	1.819429	-0.000215
1283	1.2756e+02	-11.0676	-50.230043	0.000334	3.343629	1.132852	-0.000134
1284	1.2766e+02	-11.1109	-50.411714	0.000456	4.559494	1.544799	-0.000183
1285	1.2776e+02	-11.1574	-50.605496	0.000486	4.863461	1.647785	-0.000195
1286	1.2786e+02	-11.1911	-50.787168	0.000456	4.559494	1.544799	-0.000183
1287	1.2796e+02	-11.2377	-50.993062	0.000517	5.167427	1.750772	-0.000207
1288	1.2806e+02	-11.2713	-51.190881	0.000496	4.964783	1.682114	-0.000199
1289	1.2816e+02	-11.3130	-51.429072	0.000598	5.978004	2.025403	-0.000239
1290	1.2826e+02	-11.3548	-51.594595	0.000415	4.154206	1.407483	-0.000166
1291	1.2835e+02	-11.3917	-51.739932	0.000365	3.647596	1.235839	-0.000146
1292	1.2845e+02	-11.4253	-51.945826	0.000517	5.167427	1.750772	-0.000207
1293	1.2855e+02	-11.4767	-52.119422	0.000436	4.356850	1.476141	-0.000174
1294	1.2865e+02	-11.5216	-52.301093	0.000456	4.559494	1.544799	-0.000183
1295	1.2875e+02	-11.5457	-52.478727	0.000446	4.458172	1.510470	-0.000179
1296	1.2885e+02	-11.5842	-52.704807	0.000567	5.674038	1.922416	-0.000227
1297	1.2895e+02	-11.6211	-52.813810	0.000274	2.735697	0.926879	-0.000110
1298	1.2905e+02	-11.6676	-53.035852	0.000557	5.572715	1.888087	-0.000223
1299	1.2915e+02	-11.7173	-53.209449	0.000436	4.356850	1.476141	-0.000174
1300	1.2925e+02	-11.7414	-53.391120	0.000456	4.559494	1.544799	-0.000183
1301	1.2935e+02	-11.7895	-53.621237	0.000578	5.775360	1.956745	-0.000231
1302	1.2945e+02	-11.8232	-53.782722	0.000405	4.052884	1.373154	-0.000162
1303	1.2955e+02	-11.8617	-54.000728	0.000547	5.471393	1.853758	-0.000219
1304	1.2965e+02	-11.9066	-54.125879	0.000314	3.140985	1.064195	-0.000126
1305	1.2975e+02	-11.9307	-54.408478	0.000709	7.092547	2.403020	-0.000284
1306	1.2985e+02	-11.9756	-54.533630	0.000314	3.140985	1.064195	-0.000126
1307	1.2995e+02	-12.0301	-54.763746	0.000578	5.775360	1.956745	-0.000231
1308	1.3005e+02	-12.0606	-54.953492	0.000476	4.762139	1.613456	-0.000191
1309	1.3015e+02	-12.1104	-55.131126	0.000446	4.458172	1.510470	-0.000179
1310	1.3025e+02	-12.1489	-55.308760	0.000446	4.458172	1.510470	-0.000179
1311	1.3034e+02	-12.1841	-55.482356	0.000436	4.356850	1.476141	-0.000174
1312	1.3044e+02	-12.2275	-55.639805	0.000395	3.951562	1.338825	-0.000158
1313	1.3054e+02	-12.2660	-55.829550	0.000476	4.762139	1.613456	-0.000191
1314	1.3064e+02	-12.3029	-56.007184	0.000446	4.458172	1.510470	-0.000179
1315	1.3074e+02	-12.3446	-56.233264	0.000567	5.674038	1.922416	-0.000227
1316	1.3084e+02	-12.3863	-56.386675	0.000385	3.850240	1.304497	-0.000154
1317	1.3094e+02	-12.4312	-56.548160	0.000405	4.052884	1.373154	-0.000162
1318	1.3104e+02	-12.4665	-56.774240	0.000567	5.674038	1.922416	-0.000227
1319	1.3114e+02	-12.5146	-56.931688	0.000395	3.951562	1.338825	-0.000158
1320	1.3124e+02	-12.5515	-57.129508	0.000496	4.964783	1.682114	-0.000199
1321	1.3134e+02	-12.5804	-57.266770	0.000344	3.444951	1.167181	-0.000138
1322	1.3144e+02	-12.6285	-57.488813	0.000557	5.572715	1.888087	-0.000223
1323	1.3154e+02	-12.6638	-57.698744	0.000527	5.268749	1.785101	-0.000211
1324	1.3164e+02	-12.6927	-57.880415	0.000456	4.559494	1.544799	-0.000183
1325	1.3174e+02	-12.7392	-58.074198	0.000486	4.863461	1.647785	-0.000195
1326	1.3184e+02	-12.7841	-58.239720	0.000415	4.154206	1.407483	-0.000166
1327	1.3194e+02	-12.8194	-58.389094	0.000375	3.748918	1.270168	-0.000150
1328	1.3204e+02	-12.8659	-58.546542	0.000395	3.951562	1.338825	-0.000158
1329	1.3214e+02	-12.8996	-58.740325	0.000486	4.863461	1.647785	-0.000195
1330	1.3224e+02	-12.9430	-58.901810	0.000405	4.052884	1.373154	-0.000162
1331	1.3234e+02	-12.9831	-59.099630	0.000496	4.964783	1.682114	-0.000199
1332	1.3243e+02	-13.0183	-59.265153	0.000415	4.154206	1.407483	-0.000166
1333	1.3253e+02	-13.0552	-59.418564	0.000385	3.850240	1.304497	-0.000154
1334	1.3263e+02	-13.1050	-59.632532	0.000537	5.370071	1.819429	-0.000215
1335	1.3273e+02	-13.1531	-59.749609	0.000294	2.938341	0.995537	-0.000118
1336	1.3283e+02	-13.1868	-59.999911	0.000628	6.281970	2.128389	-0.000252
1337	1.3293e+02	-13.2205	-60.169471	0.000426	4.255528	1.441812	-0.000170
1338	1.3303e+02	-13.2606	-60.355179	0.000466	4.660817	1.579127	-0.000187
1339	1.3313e+02	-13.2991	-60.488405	0.000334	3.343629	1.132852	-0.000134
1340	1.3323e+02	-13.3344	-60.734670	0.000618	6.180648	2.094060	-0.000248
1341	1.3333e+02	-13.3745	-60.956713	0.000557	5.572715	1.888087	-0.000223
1342	1.3343e+02	-13.4178	-61.126272	0.000426	4.255528	1.441812	-0.000170
1343	1.3353e+02	-13.4675	-61.316018	0.000476	4.762139	1.613456	-0.000191
1344	1.3363e+02	-13.4964	-61.441169	0.000314	3.140985	1.064195	-0.000126
1345	1.3373e+02	-13.5477	-61.586506	0.000365	3.647596	1.235839	-0.000146
1346	1.3383e+02	-13.5670	-61.760103	0.000436	4.356850	1.476141	-0.000174
1347	1.3393e+02	-13.6183	-61.921588	0.000405	4.052884	1.373154	-0.000162
1348	1.3403e+02	-13.6584	-62.087111	0.000415	4.154206	1.407483	-0.000166
1349	1.3413e+02	-13.7001	-62.264744	0.000446	4.458172	1.510470	-0.000179
1350	1.3423e+02	-13.7386	-62.446416	0.000456	4.559494	1.544799	-0.000183
1351	1.3432e+02	-13.7788	-62.644235	0.000496	4.964783	1.682114	-0.000199
1352	1.3442e+02	-13.8301	-62.797646	0.000385	3.850240	1.304497	-0.000154
1353	1.3452e+02	-13.8654	-62.967206	0.000426	4.255528	1.441812	-0.000170
1354	1.3462e+02	-13.9071	-63.156951	0.000476	4.762139	1.613456	-0.000191
1355	1.3472e+02	-13.9376	-63.350734	0.000486	4.863461	1.647785	-0.000195
1356	1.3482e+02	-13.9745	-63.504145	0.000385	3.850240	1.304497	-0.000154
1357	1.3492e+02	-14.0146	-63.697928	0.000486	4.863461	1.647785	-0.000195
1358	1.3502e+02	-14.0531	-63.887673	0.000476	4.762139	1.613456	-0.000191
1359	1.3512e+02	-14.0948	-64.069344	0.000456	4.559494	1.544799	-0.000183
1360	1.3522e+02	-14.1333	-64.246978	0.000446	4.458172	1.510470	-0.000179
1361	1.3532e+02	-14.1798	-64.444798	0.000496	4.964783	1.682114	-0.000199
1362	1.3542e+02	-14.2183	-64.573986	0.000324	3.242307	1.098523	-0.000130
1363	1.3552e+02	-14.2504	-64.747583	0.000436	4.356850	1.476141	-0.000174
1364	1.3562e+02	-14.2953	-64.937328	0.000476	4.762139	1.613456	-0.000191
1365	1.3572e+02	-14.3338	-65.078628	0.000355	3.546273	1.201510	-0.000142
1366	1.3582e+02	-14.3739	-65.264336	0.000466	4.660817	1.579127	-0.000187
1367	1.3592e+02	-14.4108	-65.441970	0.000446	4.458172	1.510470	-0.000179
1368	1.3602e+02	-14.4573	-65.615567	0.000436	4.356850	1.476141	-0.000174
1369	1.3612e+02	-14.5023	-65.785127	0.000426	4.255528	1.441812	-0.000170
1370	1.3622e+02	-14.5343	-65.966798	0.000456	4.559494	1.544799	-0.000183
1371	1.3631e+02	-14.5712	-66.140395	0.000436	4.356850	1.476141	-0.000174
1372	1.3641e+02	-14.6242	-66.293806	0.000385	3.850240	1.304497	-0.000154
1373	1.3651e+02	-14.6547	-66.451254	0.000395	3.951562	1.338825	-0.000158
1374	1.3661e+02	-14.7028	-66.657148	0.000517	5.167427	1.750772	-0.000207
1375	1.3671e+02	-14.7253	-66.830745	0.000436	4.356850	1.476141	-0.000174
1376	1.3681e+02	-14.7718	-67.036639	0.000517	5.167427	1.750772	-0.000207
1377	1.3691e+02	-14.8167	-67.210236	0.000436	4.356850	1.476141	-0.000174
1378	1.3701e+02	-14.8568	-67.383833	0.000436	4.356850	1.476141	-0.000174
1379	1.3711e+02	-14.8953	-67.577615	0.000486	4.863461	1.647785	-0.000195
1380	1.3721e+02	-14.9370	-67.686618	0.000274	2.735697	0.926879	-0.000110
1381	1.3731e+02	-14.9739	-67.888475	0.000507	5.066105	1.716443	-0.000203
1382	1.3741e+02	-15.0156	-68.062071	0.000436	4.356850	1.476141	-0.000174
1383	1.3751e+02	-15.0461	-68.203371	0.000355	3.546273	1.201510	-0.000142
1384	1.3761e+02	-15.0958	-68.360819	0.000395	3.951562	1.338825	-0.000158
1385	1.3771e+02	-15.1327	-68.542491	0.000456	4.559494	1.544799	-0.000183
1386	1.3781e+02	-15.1744	-68.760496	0.000547	5.471393	1.853758	-0.000219
1387	1.3791e+02	-15.2161	-68.889684	0.000324	3.242307	1.098523	-0.000130
1388	1.3801e+02	-15.2514	-69.071355	0.000456	4.559494	1.544799	-0.000183
1389	1.3811e+02	-15.2964	-69.265138	0.000486	4.863461	1.647785	-0.000195
1390	1.3821e+02	-15.3349	-69.422586	0.000395	3.951562	1.338825	-0.000158
1391	1.3831e+02	-15.3734	-69.628480	0.000517	5.167427	1.750772	-0.000207
1392	1.3840e+02	-15.4151	-69.781891	0.000385	3.850240	1.304497	-0.000154
1393	1.3850e+02	-15.4439	-69.947414	0.000415	4.154206	1.407483	-0.000166
1394	1.3860e+02	-15.4873	-70.141196	0.000486	4.863461	1.647785	-0.000195
1395	1.3870e+02	-15.5322	-70.282496	0.000355	3.546273	1.201510	-0.000142
1396	1.3880e+02	-15.5739	-70.448019	0.000415	4.154206	1.407483	-0.000166
1397	1.3890e+02	-15.6140	-70.605467	0.000395	3.951562	1.338825	-0.000158
1398	1.3900e+02	-15.6525	-70.815398	0.000527	5.268749	1.785101	-0.000211
1399	1.3910e+02	-15.6958	-70.968809	0.000385	3.850240	1.304497	-0.000154
1400	1.3920e+02	-15.7359	-71.130295	0.000405	4.052884	1.373154	-0.000162
1401	1.3930e+02	-15.7760	-71.283706	0.000385	3.850240	1.304497	-0.000154
1402	1.3940e+02	-15.8161	-71.485563	0.000507	5.066105	1.716443	-0.000203
1403	1.3950e+02	-15.8546	-71.683382	0.000496	4.964783	1.682114	-0.000199
1404	1.3960e+02	-15.8867	-71.812571	0.000324	3.242307	1.098523	-0.000130
1405	1.3970e+02	-15.9381	-72.038650	0.000567	5.674038	1.922416	-0.000227
1406	1.3980e+02	-15.9701	-72.183987	0.000365	3.647596	1.235839	-0.000146
1407	1.3990e+02	-16.0118	-72.377770	0.000486	4.863461	1.647785	-0.000195
1408	1.4000e+02	-16.0568	-72.555403	0.000446	4.458172	1.510470	-0.000179
1409	1.4010e+02	-16.0953	-72.729000	0.000436	4.356850	1.476141	-0.000174
1410	1.4020e+02	-16.1322	-72.914709	0.000466	4.660817	1.579127	-0.000187
1411	1.4029e+02	-16.1610	-73.136751	0.000557	5.572715	1.888087	-0.000223
1412	1.4039e+02	-16.2124	-73.318422	0.000456	4.559494	1.544799	-0.000183
1413	1.4049e+02	-16.2509	-73.508168	0.000476	4.762139	1.613456	-0.000191
1414	1.4059e+02	-16.2894	-73.665616	0.000395	3.951562	1.338825	-0.000158
1415	1.4069e+02	-16.3215	-73.814990	0.000375	3.748918	1.270168	-0.000150
1416	1.4079e+02	-16.3744	-74.028958	0.000537	5.370071	1.819429	-0.000215
1417	1.4089e+02	-16.4065	-74.230815	0.000507	5.066105	1.716443	-0.000203
1418	1.4099e+02	-16.4450	-74.364040	0.000334	3.343629	1.132852	-0.000134
1419	1.4109e+02	-16.4851	-74.549749	0.000466	4.660817	1.579127	-0.000187
1420	1.4119e+02	-16.5284	-74.751605	0.000507	5.066105	1.716443	-0.000203
1421	1.4129e+02	-16.5749	-74.953462	0.000507	5.066105	1.716443	-0.000203
1422	1.4139e+02	-16.6134	-75.151282	0.000496	4.964783	1.682114	-0.000199
1423	1.4149e+02	-16.6423	-75.365250	0.000537	5.370071	1.819429	-0.000215
1424	1.4159e+02	-16.6936	-75.550958	0.000466	4.660817	1.579127	-0.000187
1425	1.4169e+02	-16.7289	-75.720518	0.000426	4.255528	1.441812	-0.000170
1426	1.4179e+02	-16.7674	-75.922375	0.000507	5.066105	1.716443	-0.000203
1427	1.4189e+02	-16.8156	-76.140380	0.000547	5.471393	1.853758	-0.000219
1428	1.4199e+02	-16.8460	-76.326088	0.000466	4.660817	1.579127	-0.000187
1429	1.4209e+02	-16.8942	-76.556205	0.000578	5.775360	1.956745	-0.000231
1430	1.4219e+02	-16.9327	-76.762099	0.000517	5.167427	1.750772	-0.000207
1431	1.4228e+02	-16.9664	-76.996253	0.000588	5.876682	1.991074	-0.000235
1432	1.4238e+02	-16.9968	-77.181961	0.000466	4.660817	1.579127	-0.000187
1433	1.4248e+02	-17.0434	-77.359595	0.000446	4.458172	1.510470	-0.000179
1434	1.4258e+02	-17.0803	-77.569526	0.000527	5.268749	1.785101	-0.000211
1435	1.4268e+02	-17.1252	-77.775420	0.000517	5.167427	1.750772	-0.000207
1436	1.4278e+02	-17.1685	-77.989388	0.000537	5.370071	1.819429	-0.000215
1437	1.4288e+02	-17.2118	-78.175096	0.000466	4.660817	1.579127	-0.000187
1438	1.4298e+02	-17.2551	-78.429436	0.000638	6.383292	2.162718	-0.000256
1439	1.4308e+02	-17.2824	-78.659553	0.000578	5.775360	1.956745	-0.000231
1440	1.4318e+02	-17.3273	-78.897744	0.000598	5.978004	2.025403	-0.000239
1441	1.4328e+02	-17.3642	-79.103638	0.000517	5.167427	1.750772	-0.000207
1442	1.4338e+02	-17.4123	-79.313569	0.000527	5.268749	1.785101	-0.000211
1443	1.4348e+02	-17.4589	-79.551760	0.000598	5.978004	2.025403	-0.000239
1444	1.4358e+02	-17.4829	-79.773802	0.000557	5.572715	1.888087	-0.000223
1445	1.4368e+02	-17.5166	-80.036216	0.000659	6.585936	2.231376	-0.000264
1446	1.4378e+02	-17.5680	-80.282481	0.000618	6.180648	2.094060	-0.000248
1447	1.4388e+02	-17.6032	-80.565081	0.000709	7.092547	2.403020	-0.000284
1448	1.4398e+02	-17.6353	-80.770975	0.000517	5.167427	1.750772	-0.000207
1449	1.4408e+02	-17.6770	-81.017240	0.000618	6.180648	2.094060	-0.000248
1450	1.4418e+02	-17.7268	-81.259468	0.000608	6.079326	2.059731	-0.000243
1451	1.4428e+02	-17.7573	-81.469399	0.000527	5.268749	1.785101	-0.000211
1452	1.4437e+02	-17.7974	-81.727776	0.000648	6.484614	2.197047	-0.000260
1453	1.4447e+02	-17.8487	-81.905410	0.000446	4.458172	1.510470	-0.000179
1454	1.4457e+02	-17.8920	-82.183972	0.000699	6.991225	2.368691	-0.000280
1455	1.4467e+02	-17.9209	-82.462535	0.000699	6.991225	2.368691	-0.000280
1456	1.4477e+02	-17.9610	-82.720911	0.000648	6.484614	2.197047	-0.000260
1457	1.4487e+02	-18.0027	-82.934879	0.000537	5.370071	1.819429	-0.000215
1458	1.4497e+02	-18.0348	-83.241702	0.000770	7.700480	2.608993	-0.000308
1459	1.4507e+02	-18.0797	-83.455670	0.000537	5.370071	1.819429	-0.000215
1460	1.4517e+02	-18.1134	-83.766529	0.000780	7.801802	2.643322	-0.000312
1461	1.4527e+02	-18.1599	-84.089500	0.000811	8.105768	2.746309	-0.000325
1462	1.4537e+02	-18.2032	-84.372100	0.000709	7.092547	2.403020	-0.000284
1463	1.4547e+02	-18.2481	-84.638551	0.000669	6.687259	2.265705	-0.000268
1464	1.4557e+02	-18.2802	-84.949410	0.000780	7.801802	2.643322	-0.000312
1465	1.4567e+02	-18.3252	-85.244121	0.000740	7.396513	2.506007	-0.000296
1466	1.4577e+02	-18.3572	-85.538832	0.000740	7.396513	2.506007	-0.000296
1467	1.4587e+02	-18.4022	-85.845654	0.000770	7.700480	2.608993	-0.000308
1468	1.4597e+02	-18.4423	-86.116142	0.000679	6.788581	2.300033	-0.000272
1469	1.4607e+02	-18.4776	-86.418928	0.000760	7.599157	2.574664	-0.000304
1470	1.4617e+02	-18.5177	-86.697490	0.000699	6.991225	2.368691	-0.000280
1471	1.4626e+02	-18.5610	-87.000275	0.000760	7.599157	2.574664	-0.000304
1472	1.4636e+02	-18.5979	-87.339395	0.000851	8.511056	2.883624	-0.000341
1473	1.4646e+02	-18.6524	-87.654291	0.000790	7.903124	2.677651	-0.000316
1474	1.4656e+02	-18.6925	-87.940928	0.000719	7.193869	2.437349	-0.000288
1475	1.4666e+02	-18.7294	-88.263899	0.000811	8.105768	2.746309	-0.000325
1476	1.4676e+02	-18.7535	-88.627241	0.000912	9.118989	3.089597	-0.000365
1477	1.4686e+02	-18.7984	-88.954249	0.000821	8.207090	2.780637	-0.000329
1478	1.4696e+02	-18.8257	-89.325665	0.000932	9.321633	3.158255	-0.000373
1479	1.4706e+02	-18.8786	-89.684970	0.000902	9.017667	3.055268	-0.000361
1480	1.4716e+02	-18.9107	-90.020053	0.000841	8.409734	2.849295	-0.000337
1481	1.4726e+02	-18.9588	-90.363209	0.000861	8.612378	2.917953	-0.000345
1482	1.4736e+02	-18.9957	-90.734626	0.000932	9.321633	3.158255	-0.000373
1483	1.4746e+02	-19.0406	-91.110079	0.000942	9.422955	3.192584	-0.000377
1484	1.4756e+02	-19.0727	-91.449199	0.000851	8.511056	2.883624	-0.000341
1485	1.4766e+02	-19.1192	-91.844838	0.000993	9.929566	3.364228	-0.000398
1486	1.4776e+02	-19.1658	-92.179920	0.000841	8.409734	2.849295	-0.000337
1487	1.4786e+02	-19.2043	-92.523077	0.000861	8.612378	2.917953	-0.000345
1488	1.4796e+02	-19.2444	-92.934865	0.001033	10.334854	3.501543	-0.000414
1489	1.4806e+02	-19.2781	-93.294170	0.000902	9.017667	3.055268	-0.000361
1490	1.4816e+02	-19.3102	-93.665586	0.000932	9.321633	3.158255	-0.000373
1491	1.4825e+02	-19.3615	-94.101597	0.001094	10.942787	3.707517	-0.000438
1492	1.4835e+02	-19.3952	-94.513385	0.001033	10.334854	3.501543	-0.000414
1493	1.4845e+02	-19.4305	-94.917098	0.001013	10.132210	3.432886	-0.000406
1494	1.4855e+02	-19.4658	-95.324849	0.001023	10.233532	3.467215	-0.000410
1495	1.4865e+02	-19.5171	-95.825454	0.001256	12.563940	4.256778	-0.000503
1496	1.4875e+02	-19.5556	-96.241279	0.001044	10.436176	3.535872	-0.000418
1497	1.4885e+02	-19.5893	-96.649030	0.001023	10.233532	3.467215	-0.000410
1498	1.4895e+02	-19.6310	-97.093114	0.001115	11.145431	3.776174	-0.000446
1499	1.4905e+02	-19.6631	-97.565459	0.001185	11.854686	4.016476	-0.000475
1500	1.4915e+02	-19.7112	-98.037804	0.001185	11.854686	4.016476	-0.000475
1501	1.4925e+02	-19.7593	-98.494001	0.001145	11.449397	3.879161	-0.000458
1502	1.4935e+02	-19.7978	-98.934048	0.001104	11.044109	3.741845	-0.000442
1503	1.4945e+02	-19.8331	-99.402356	0.001175	11.753363	3.982147	-0.000471
1504	1.4955e+02	-19.8748	-99.890850	0.001226	12.259974	4.153792	-0.000491
1505	1.4965e+02	-19.9133	-100.371269	0.001206	12.057330	4.085134	-0.000483
1506	1.4975e+02	-19.9599	-100.863799	0.001236	12.361296	4.188120	-0.000495
1507	1.4985e+02	-20.0032	-101.348256	0.001216	12.158652	4.119463	-0.000487
1508	1.4995e+02	-19.9567	-101.570298	-0.000557	-5.572715	-1.888087	-0.000223
1509	1.5005e+02	-19.9149	-101.796378	-0.000567	-5.674038	-1.922416	-0.000227
1510	1.5015e+02	-19.8732	-101.982086	-0.000466	-4.660817	-1.579127	-0.000187
1511	1.5025e+02	-19.8331	-102.151646	-0.000426	-4.255528	-1.441812	-0.000170
1512	1.5034e+02	-19.7898	-102.325242	-0.000436	-4.356850	-1.476141	-0.000174
1513	1.5044e+02	-19.7513	-102.466542	-0.000355	-3.546273	-1.201510	-0.000142
1514	1.5054e+02	-19.7048	-102.628028	-0.000405	-4.052884	-1.373154	-0.000162
1515	1.5064e+02	-19.6711	-102.749142	-0.000304	-3.039663	-1.029866	-0.000122
1516	1.5074e+02	-19.6358	-102.837959	-0.000223	-2.229086	-0.755235	-0.000089
1517	1.5084e+02	-19.5909	-102.938887	-0.000253	-2.533052	-0.858221	-0.000101
1518	1.5094e+02	-19.5492	-103.019630	-0.000203	-2.026442	-0.686577	-0.000081
1519	1.5104e+02	-19.5091	-103.112484	-0.000233	-2.330408	-0.789564	-0.000093
1520	1.5114e+02	-19.4770	-103.169004	-0.000142	-1.418509	-0.480604	-0.000057
1521	1.5124e+02	-19.4353	-103.185152	-0.000041	-0.405288	-0.137315	-0.000016
1522	1.5134e+02	-19.3936	-103.156892	0.000071	0.709255	0.240302	0.000028
1523	1.5144e+02	-19.3615	-103.241672	-0.000213	-2.127764	-0.720906	-0.000085
1524	1.5154e+02	-19.3118	-103.278006	-0.000091	-0.911899	-0.308960	-0.000037
1525	1.5164e+02	-19.2781	-103.286081	-0.000020	-0.202644	-0.068658	-0.000008
1526	1.5174e+02	-19.2348	-103.302229	-0.000041	-0.405288	-0.137315	-0.000016
1527	1.5184e+02	-19.1946	-103.282044	0.000051	0.506610	0.171644	0.000020
1528	1.5194e+02	-19.1529	-103.298192	-0.000041	-0.405288	-0.137315	-0.000016
1529	1.5204e+02	-19.1160	-103.362786	-0.000162	-1.621154	-0.549262	-0.000065
1530	1.5214e+02	-19.0711	-103.314341	0.000122	1.215865	0.411946	0.000049
1531	1.5224e+02	-19.0278	-103.334526	-0.000051	-0.506610	-0.171644	-0.000020
1532	1.5233e+02	-18.9957	-103.302229	0.000081	0.810577	0.274631	0.000032
1533	1.5243e+02	-18.9556	-103.265895	0.000091	0.911899	0.308960	0.000037
1534	1.5253e+02	-18.9267	-103.245709	0.000051	0.506610	0.171644	0.000020
1535	1.5263e+02	-18.8898	-103.193227	0.000132	1.317187	0.446275	0.000053
1536	1.5273e+02	-18.8369	-103.185152	0.000020	0.202644	0.068658	0.000008
1537	1.5283e+02	-18.8080	-103.096335	0.000223	2.229086	0.755235	0.000089
1538	1.5293e+02	-18.7583	-103.015593	0.000203	2.026442	0.686577	0.000081
1539	1.5303e+02	-18.7278	-102.950998	0.000162	1.621154	0.549262	0.000065
1540	1.5313e+02	-18.6829	-102.918701	0.000081	0.810577	0.274631	0.000032
1541	1.5323e+02	-18.6428	-102.805662	0.000284	2.837019	0.961208	0.000114
1542	1.5333e+02	-18.6027	-102.793550	0.000030	0.303966	0.102987	0.000012
1543	1.5343e+02	-18.5642	-102.716845	0.000193	1.925120	0.652248	0.000077
1544	1.5353e+02	-18.5177	-102.688585	0.000071	0.709255	0.240302	0.000028
1545	1.5363e+02	-18.4824	-102.591693	0.000243	2.431730	0.823893	0.000097
1546	1.5373e+02	-18.4391	-102.514988	0.000193	1.925120	0.652248	0.000077
1547	1.5383e+02	-18.4022	-102.434245	0.000203	2.026442	0.686577	0.000081
1548	1.5393e+02	-18.3588	-102.414059	0.000051	0.506610	0.171644	0.000020
1549	1.5403e+02	-18.3171	-102.313131	0.000253	2.533052	0.858221	0.000101
1550	1.5413e+02	-18.2834	-102.216240	0.000243	2.431730	0.823893	0.000097
1551	1.5422e+02	-18.2417	-102.131460	0.000213	2.127764	0.720906	0.000085
1552	1.5432e+02	-18.2064	-102.042643	0.000223	2.229086	0.755235	0.000089
1553	1.5442e+02	-18.1631	-101.925566	0.000294	2.938341	0.995537	0.000118
1554	1.5452e+02	-18.1214	-101.812526	0.000284	2.837019	0.961208	0.000114
1555	1.5462e+02	-18.0845	-101.723709	0.000223	2.229086	0.755235	0.000089
1556	1.5472e+02	-18.0396	-101.594521	0.000324	3.242307	1.098523	0.000130
1557	1.5482e+02	-18.0091	-101.505704	0.000223	2.229086	0.755235	0.000089
1558	1.5492e+02	-17.9738	-101.380553	0.000314	3.140985	1.064195	0.000126
1559	1.5502e+02	-17.9209	-101.287699	0.000233	2.330408	0.789564	0.000093
1560	1.5512e+02	-17.8856	-101.110065	0.000446	4.458172	1.510470	0.000179
1561	1.5522e+02	-17.8423	-101.053545	0.000142	1.418509	0.480604	0.000057
1562	1.5532e+02	-17.7958	-100.952616	0.000253	2.533052	0.858221	0.000101
1563	1.5542e+02	-17.7653	-100.851688	0.000253	2.533052	0.858221	0.000101
1564	1.5552e+02	-17.7220	-100.750759	0.000253	2.533052	0.858221	0.000101
1565	1.5562e+02	-17.6899	-100.633683	0.000294	2.938341	0.995537	0.000118
1566	1.5572e+02	-17.6321	-100.544866	0.000223	2.229086	0.755235	0.000089
1567	1.5582e+02	-17.6000	-100.403566	0.000355	3.546273	1.201510	0.000142
1568	1.5592e+02	-17.5663	-100.290526	0.000284	2.837019	0.961208	0.000114
1569	1.5602e+02	-17.5327	-100.157301	0.000334	3.343629	1.132852	0.000134
1570	1.5612e+02	-17.4829	-100.068484	0.000223	2.229086	0.755235	0.000089
1571	1.5622e+02	-17.4412	-99.915072	0.000385	3.850240	1.304497	0.000154
1572	1.5631e+02	-17.4123	-99.789921	0.000314	3.140985	1.064195	0.000126
1573	1.5641e+02	-17.3690	-99.648621	0.000355	3.546273	1.201510	0.000142
1574	1.5651e+02	-17.3273	-99.535582	0.000284	2.837019	0.961208	0.000114
1575	1.5661e+02	-17.2824	-99.406393	0.000324	3.242307	1.098523	0.000130
1576	1.5671e+02	-17.2487	-99.236834	0.000426	4.255528	1.441812	0.000170
1577	1.5681e+02	-17.2150	-99.168202	0.000172	1.722476	0.583591	0.000069
1578	1.5691e+02	-17.1621	-99.051125	0.000294	2.938341	0.995537	0.000118
1579	1.5701e+02	-17.1284	-98.921937	0.000324	3.242307	1.098523	0.000130
1580	1.5711e+02	-17.0771	-98.829083	0.000233	2.330408	0.789564	0.000093
1581	1.5721e+02	-17.0386	-98.703932	0.000314	3.140985	1.064195	0.000126
1582	1.5731e+02	-17.0049	-98.590892	0.000284	2.837019	0.961208	0.000114
1583	1.5741e+02	-16.9616	-98.461704	0.000324	3.242307	1.098523	0.000130
1584	1.5751e+02	-16.9343	-98.320404	0.000355	3.546273	1.201510	0.000142
1585	1.5761e+02	-16.8797	-98.179104	0.000355	3.546273	1.201510	0.000142
1586	1.5771e+02	-16.8493	-98.053953	0.000314	3.140985	1.064195	0.000126
1587	1.5781e+02	-16.8140	-97.932839	0.000304	3.039663	1.029866	0.000122
1588	1.5791e+02	-16.7755	-97.779428	0.000385	3.850240	1.304497	0.000154
1589	1.5801e+02	-16.7402	-97.698685	0.000203	2.026442	0.686577	0.000081
1590	1.5811e+02	-16.6904	-97.525088	0.000436	4.356850	1.476141	0.000174
1591	1.5821e+02	-16.6439	-97.367640	0.000395	3.951562	1.338825	0.000158
1592	1.5830e+02	-16.6038	-97.202117	0.000415	4.154206	1.407483	0.000166
1593	1.5840e+02	-16.5669	-97.101189	0.000253	2.533052	0.858221	0.000101
1594	1.5850e+02	-16.5300	-96.988149	0.000284	2.837019	0.961208	0.000114
1595	1.5860e+02	-16.4899	-96.850886	0.000344	3.444951	1.167181	0.000138
1596	1.5870e+02	-16.4434	-96.741884	0.000274	2.735697	0.926879	0.000110
1597	1.5880e+02	-16.4145	-96.624807	0.000294	2.938341	0.995537	0.000118
1598	1.5890e+02	-16.3712	-96.483507	0.000355	3.546273	1.201510	0.000142
1599	1.5900e+02	-16.3183	-96.366430	0.000294	2.938341	0.995537	0.000118
1600	1.5910e+02	-16.2878	-96.229167	0.000344	3.444951	1.167181	0.000138
1601	1.5920e+02	-16.2461	-96.087868	0.000355	3.546273	1.201510	0.000142
1602	1.5930e+02	-16.2124	-95.966754	0.000304	3.039663	1.029866	0.000122
1603	1.5940e+02	-16.1835	-95.777008	0.000476	4.762139	1.613456	0.000191
1604	1.5950e+02	-16.1338	-95.635708	0.000355	3.546273	1.201510	0.000142
1605	1.5960e+02	-16.0872	-95.506520	0.000324	3.242307	1.098523	0.000130
1606	1.5970e+02	-16.0487	-95.393480	0.000284	2.837019	0.961208	0.000114
1607	1.5980e+02	-16.0183	-95.227958	0.000415	4.154206	1.407483	0.000166
1608	1.5990e+02	-15.9701	-95.098769	0.000324	3.242307	1.098523	0.000130
1609	1.6000e+02	-15.9300	-94.941321	0.000395	3.951562	1.338825	0.000158
1610	1.6010e+02	-15.8899	-94.812133	0.000324	3.242307	1.098523	0.000130
1611	1.6019e+02	-15.8562	-94.666796	0.000365	3.647596	1.235839	0.000146
1612	1.6029e+02	-15.8049	-94.533570	0.000334	3.343629	1.132852	0.000134
1613	1.6039e+02	-15.7744	-94.424568	0.000274	2.735697	0.926879	0.000110
1614	1.6049e+02	-15.7407	-94.283268	0.000355	3.546273	1.201510	0.000142
1615	1.6059e+02	-15.6878	-94.178302	0.000263	2.634375	0.892550	0.000105
1616	1.6069e+02	-15.6461	-94.020854	0.000395	3.951562	1.338825	0.000158
1617	1.6079e+02	-15.6108	-93.839183	0.000456	4.559494	1.544799	0.000183
1618	1.6089e+02	-15.5739	-93.742292	0.000243	2.431730	0.823893	0.000097
1619	1.6099e+02	-15.5450	-93.576769	0.000415	4.154206	1.407483	0.000166
1620	1.6109e+02	-15.4969	-93.455655	0.000304	3.039663	1.029866	0.000122
1621	1.6119e+02	-15.4536	-93.338578	0.000294	2.938341	0.995537	0.000118
1622	1.6129e+02	-15.4135	-93.160944	0.000446	4.458172	1.510470	0.000179
1623	1.6139e+02	-15.3766	-93.023682	0.000344	3.444951	1.167181	0.000138
1624	1.6149e+02	-15.3365	-92.870271	0.000385	3.850240	1.304497	0.000154
1625	1.6159e+02	-15.2980	-92.773379	0.000243	2.431730	0.823893	0.000097
1626	1.6169e+02	-15.2450	-92.559411	0.000537	5.370071	1.819429	0.000215
1627	1.6179e+02	-15.2113	-92.454446	0.000263	2.634375	0.892550	0.000105
1628	1.6189e+02	-15.1632	-92.276812	0.000446	4.458172	1.510470	0.000179
1629	1.6199e+02	-15.1295	-92.151660	0.000314	3.140985	1.064195	0.000126
1630	1.6209e+02	-15.0926	-92.034583	0.000294	2.938341	0.995537	0.000118
1631	1.6219e+02	-15.0525	-91.848875	0.000466	4.660817	1.579127	0.000187
1632	1.6228e+02	-15.0220	-91.743910	0.000263	2.634375	0.892550	0.000105
1633	1.6238e+02	-14.9707	-91.594536	0.000375	3.748918	1.270168	0.000150
1634	1.6248e+02	-14.9306	-91.437087	0.000395	3.951562	1.338825	0.000158
1635	1.6258e+02	-14.8937	-91.303862	0.000334	3.343629	1.132852	0.000134
1636	1.6268e+02	-14.8552	-91.166599	0.000344	3.444951	1.167181	0.000138
1637	1.6278e+02	-14.8055	-91.033374	0.000334	3.343629	1.132852	0.000134
1638	1.6288e+02	-14.7766	-90.859777	0.000436	4.356850	1.476141	0.000174
1639	1.6298e+02	-14.7285	-90.754811	0.000263	2.634375	0.892550	0.000105
1640	1.6308e+02	-14.6964	-90.609475	0.000365	3.647596	1.235839	0.000146
1641	1.6318e+02	-14.6627	-90.443952	0.000415	4.154206	1.407483	0.000166
1642	1.6328e+02	-14.6081	-90.282467	0.000405	4.052884	1.373154	0.000162
1643	1.6338e+02	-14.5745	-90.157315	0.000314	3.140985	1.064195	0.000126
1644	1.6348e+02	-14.5392	-90.007941	0.000375	3.748918	1.270168	0.000150
1645	1.6358e+02	-14.4878	-89.842419	0.000415	4.154206	1.407483	0.000166
1646	1.6368e+02	-14.4590	-89.745527	0.000243	2.431730	0.823893	0.000097
1647	1.6378e+02	-14.4188	-89.563856	0.000456	4.559494	1.544799	0.000183
1648	1.6388e+02	-14.3787	-89.438705	0.000314	3.140985	1.064195	0.000126
1649	1.6398e+02	-14.3290	-89.309517	0.000324	3.242307	1.098523	0.000130
1650	1.6408e+02	-14.3033	-89.160143	0.000375	3.748918	1.270168	0.000150
1651	1.6418e+02	-14.2584	-88.998657	0.000405	4.052884	1.373154	0.000162
1652	1.6427e+02	-14.2183	-88.881580	0.000294	2.938341	0.995537	0.000118
1653	1.6437e+02	-14.1862	-88.679724	0.000507	5.066105	1.716443	0.000203
1654	1.6447e+02	-14.1397	-88.570721	0.000274	2.735697	0.926879	0.000110
1655	1.6457e+02	-14.1124	-88.425384	0.000365	3.647596	1.235839	0.000146
1656	1.6467e+02	-14.0563	-88.231602	0.000486	4.863461	1.647785	0.000195
1657	1.6477e+02	-14.0226	-88.086265	0.000365	3.647596	1.235839	0.000146
1658	1.6487e+02	-13.9793	-87.932854	0.000385	3.850240	1.304497	0.000154
1659	1.6497e+02	-13.9440	-87.831925	0.000253	2.533052	0.858221	0.000101
1660	1.6507e+02	-13.8862	-87.666403	0.000415	4.154206	1.407483	0.000166
1661	1.6517e+02	-13.8526	-87.476657	0.000476	4.762139	1.613456	0.000191
1662	1.6527e+02	-13.8157	-87.335357	0.000355	3.546273	1.201510	0.000142
1663	1.6537e+02	-13.7788	-87.190021	0.000365	3.647596	1.235839	0.000146
1664	1.6547e+02	-13.7451	-87.056795	0.000334	3.343629	1.132852	0.000134
1665	1.6557e+02	-13.7018	-86.899347	0.000395	3.951562	1.338825	0.000158
1666	1.6567e+02	-13.6665	-86.717676	0.000456	4.559494	1.544799	0.000183
1667	1.6577e+02	-13.6231	-86.580413	0.000344	3.444951	1.167181	0.000138
1668	1.6587e+02	-13.5879	-86.431039	0.000375	3.748918	1.270168	0.000150
1669	1.6597e+02	-13.5429	-86.273591	0.000395	3.951562	1.338825	0.000158
1670	1.6607e+02	-13.4964	-86.116142	0.000395	3.951562	1.338825	0.000158
1671	1.6616e+02	-13.4579	-85.995028	0.000304	3.039663	1.029866	0.000122
1672	1.6626e+02	-13.4226	-85.797209	0.000496	4.964783	1.682114	0.000199
1673	1.6636e+02	-13.3857	-85.655909	0.000355	3.546273	1.201510	0.000142
1674	1.6646e+02	-13.3376	-85.506535	0.000375	3.748918	1.270168	0.000150
1675	1.6656e+02	-13.3055	-85.320827	0.000466	4.660817	1.579127	0.000187
1676	1.6666e+02	-13.2574	-85.203750	0.000294	2.938341	0.995537	0.000118
1677	1.6676e+02	-13.2221	-85.066487	0.000344	3.444951	1.167181	0.000138
1678	1.6686e+02	-13.1772	-84.876742	0.000476	4.762139	1.613456	0.000191
1679	1.6696e+02	-13.1387	-84.707182	0.000426	4.255528	1.441812	0.000170
1680	1.6706e+02	-13.1034	-84.610291	0.000243	2.431730	0.823893	0.000097
1681	1.6716e+02	-13.0569	-84.372100	0.000598	5.978004	2.025403	0.000239
1682	1.6726e+02	-13.0264	-84.218689	0.000385	3.850240	1.304497	0.000154
1683	1.6736e+02	-12.9927	-84.093537	0.000314	3.140985	1.064195	0.000126
1684	1.6746e+02	-12.9430	-83.932052	0.000405	4.052884	1.373154	0.000162
1685	1.6756e+02	-12.9028	-83.782678	0.000375	3.748918	1.270168	0.000150
1686	1.6766e+02	-12.8563	-83.637341	0.000365	3.647596	1.235839	0.000146
1687	1.6776e+02	-12.8274	-83.471819	0.000415	4.154206	1.407483	0.000166
1688	1.6786e+02	-12.7873	-83.326482	0.000365	3.647596	1.235839	0.000146
1689	1.6796e+02	-12.7488	-83.173070	0.000385	3.850240	1.304497	0.000154
1690	1.6806e+02	-12.7103	-82.995437	0.000446	4.458172	1.510470	0.000179
1691	1.6816e+02	-12.6622	-82.833951	0.000405	4.052884	1.373154	0.000162
1692	1.6825e+02	-12.6237	-82.696688	0.000344	3.444951	1.167181	0.000138
1693	1.6835e+02	-12.5788	-82.535203	0.000405	4.052884	1.373154	0.000162
1694	1.6845e+02	-12.5371	-82.385829	0.000375	3.748918	1.270168	0.000150
1695	1.6855e+02	-12.4938	-82.175898	0.000527	5.268749	1.785101	0.000211
1696	1.6865e+02	-12.4569	-82.034598	0.000355	3.546273	1.201510	0.000142
1697	1.6875e+02	-12.4312	-81.856964	0.000446	4.458172	1.510470	0.000179
1698	1.6885e+02	-12.3863	-81.659145	0.000496	4.964783	1.682114	0.000199
1699	1.6895e+02	-12.3430	-81.525919	0.000334	3.343629	1.132852	0.000134
1700	1.6905e+02	-12.3045	-81.400768	0.000314	3.140985	1.064195	0.000126
1701	1.6915e+02	-12.2692	-81.194874	0.000517	5.167427	1.750772	0.000207
1702	1.6925e+02	-12.2259	-81.053574	0.000355	3.546273	1.201510	0.000142
1703	1.6935e+02	-12.1938	-80.896126	0.000395	3.951562	1.338825	0.000158
1704	1.6945e+02	-12.1489	-80.722529	0.000436	4.356850	1.476141	0.000174
1705	1.6955e+02	-12.1071	-80.557007	0.000415	4.154206	1.407483	0.000166
1706	1.6965e+02	-12.0767	-80.387447	0.000426	4.255528	1.441812	0.000170
1707	1.6975e+02	-12.0301	-80.246147	0.000355	3.546273	1.201510	0.000142
1708	1.6985e+02	-11.9852	-80.092736	0.000385	3.850240	1.304497	0.000154
1709	1.6995e+02	-11.9467	-79.919139	0.000436	4.356850	1.476141	0.000174
1710	1.7005e+02	-11.8970	-79.713245	0.000517	5.167427	1.750772	0.000207
1711	1.7015e+02	-11.8729	-79.612317	0.000253	2.533052	0.858221	0.000101
1712	1.7024e+02	-11.8264	-79.434683	0.000446	4.458172	1.510470	0.000179
1713	1.7034e+02	-11.7847	-79.248975	0.000466	4.660817	1.579127	0.000187
1714	1.7044e+02	-11.7350	-79.111712	0.000344	3.444951	1.167181	0.000138
1715	1.7054e+02	-11.7029	-78.954264	0.000395	3.951562	1.338825	0.000158
1716	1.7064e+02	-11.6740	-78.732221	0.000557	5.572715	1.888087	0.000223
1717	1.7074e+02	-11.6307	-78.598996	0.000334	3.343629	1.132852	0.000134
1718	1.7084e+02	-11.5745	-78.425399	0.000436	4.356850	1.476141	0.000174
1719	1.7094e+02	-11.5553	-78.255839	0.000426	4.255528	1.441812	0.000170
1720	1.7104e+02	-11.5072	-78.070131	0.000466	4.660817	1.579127	0.000187
1721	1.7114e+02	-11.4655	-77.940943	0.000324	3.242307	1.098523	0.000130
1722	1.7124e+02	-11.4318	-77.743123	0.000496	4.964783	1.682114	0.000199
1723	1.7134e+02	-11.3836	-77.613935	0.000324	3.242307	1.098523	0.000130
1724	1.7144e+02	-11.3564	-77.436301	0.000446	4.458172	1.510470	0.000179
1725	1.7154e+02	-11.3098	-77.254629	0.000456	4.559494	1.544799	0.000183
1726	1.7164e+02	-11.2713	-77.097181	0.000395	3.951562	1.338825	0.000158
1727	1.7174e+02	-11.2344	-76.919547	0.000446	4.458172	1.510470	0.000179
1728	1.7184e+02	-11.1959	-76.717690	0.000507	5.066105	1.716443	0.000203
1729	1.7194e+02	-11.1558	-76.560242	0.000395	3.951562	1.338825	0.000158
1730	1.7204e+02	-11.1061	-76.406831	0.000385	3.850240	1.304497	0.000154
1731	1.7213e+02	-11.0740	-76.229197	0.000446	4.458172	1.510470	0.000179
1732	1.7223e+02	-11.0243	-76.079823	0.000375	3.748918	1.270168	0.000150
1733	1.7233e+02	-10.9938	-75.938523	0.000355	3.546273	1.201510	0.000142
1734	1.7243e+02	-10.9441	-75.728592	0.000527	5.268749	1.785101	0.000211
1735	1.7253e+02	-10.9088	-75.554995	0.000436	4.356850	1.476141	0.000174
1736	1.7263e+02	-10.8719	-75.381399	0.000436	4.356850	1.476141	0.000174
1737	1.7273e+02	-10.8302	-75.203765	0.000446	4.458172	1.510470	0.000179
1738	1.7283e+02	-10.7949	-75.054391	0.000375	3.748918	1.270168	0.000150
1739	1.7293e+02	-10.7628	-74.860608	0.000486	4.863461	1.647785	0.000195
1740	1.7303e+02	-10.7099	-74.715271	0.000365	3.647596	1.235839	0.000146
1741	1.7313e+02	-10.6746	-74.553786	0.000405	4.052884	1.373154	0.000162
1742	1.7323e+02	-10.6200	-74.368077	0.000466	4.660817	1.579127	0.000187
1743	1.7333e+02	-10.5911	-74.210629	0.000395	3.951562	1.338825	0.000158
1744	1.7343e+02	-10.5542	-74.057218	0.000385	3.850240	1.304497	0.000154
1745	1.7353e+02	-10.5157	-73.883621	0.000436	4.356850	1.476141	0.000174
1746	1.7363e+02	-10.4788	-73.693876	0.000476	4.762139	1.613456	0.000191
1747	1.7373e+02	-10.4291	-73.540465	0.000385	3.850240	1.304497	0.000154
1748	1.7383e+02	-10.3922	-73.346682	0.000486	4.863461	1.647785	0.000195
1749	1.7393e+02	-10.3521	-73.156937	0.000476	4.762139	1.613456	0.000191
1750	1.7403e+02	-10.3088	-73.039860	0.000294	2.938341	0.995537	0.000118
1751	1.7413e+02	-10.2751	-72.846077	0.000486	4.863461	1.647785	0.000195
1752	1.7422e+02	-10.2318	-72.700740	0.000365	3.647596	1.235839	0.000146
1753	1.7432e+02	-10.1885	-72.506958	0.000486	4.863461	1.647785	0.000195
1754	1.7442e+02	-10.1516	-72.349510	0.000395	3.951562	1.338825	0.000158
1755	1.7452e+02	-10.1131	-72.159764	0.000476	4.762139	1.613456	0.000191
1756	1.7462e+02	-10.0746	-72.014427	0.000365	3.647596	1.235839	0.000146
1757	1.7472e+02	-10.0345	-71.812571	0.000507	5.066105	1.716443	0.000203
1758	1.7482e+02	-9.9880	-71.671271	0.000355	3.546273	1.201510	0.000142
1759	1.7492e+02	-9.9575	-71.481525	0.000476	4.762139	1.613456	0.000191
1760	1.7502e+02	-9.9158	-71.320040	0.000405	4.052884	1.373154	0.000162
1761	1.7512e+02	-9.8724	-71.146443	0.000436	4.356850	1.476141	0.000174
1762	1.7522e+02	-9.8275	-70.952661	0.000486	4.863461	1.647785	0.000195
1763	1.7532e+02	-9.8051	-70.831547	0.000304	3.039663	1.029866	0.000122
1764	1.7542e+02	-9.7602	-70.674098	0.000395	3.951562	1.338825	0.000158
1765	1.7552e+02	-9.7152	-70.464167	0.000527	5.268749	1.785101	0.000211
1766	1.7562e+02	-9.6703	-70.282496	0.000456	4.559494	1.544799	0.000183
1767	1.7572e+02	-9.6350	-70.149271	0.000334	3.343629	1.132852	0.000134
1768	1.7582e+02	-9.5949	-69.983748	0.000415	4.154206	1.407483	0.000166
1769	1.7592e+02	-9.5612	-69.806114	0.000446	4.458172	1.510470	0.000179
1770	1.7602e+02	-9.5099	-69.604257	0.000507	5.066105	1.716443	0.000203
1771	1.7612e+02	-9.4714	-69.454883	0.000375	3.748918	1.270168	0.000150
1772	1.7621e+02	-9.4281	-69.293398	0.000405	4.052884	1.373154	0.000162
1773	1.7631e+02	-9.3976	-69.083467	0.000527	5.268749	1.785101	0.000211
1774	1.7641e+02	-9.3639	-68.934093	0.000375	3.748918	1.270168	0.000150
1775	1.7651e+02	-9.3190	-68.760496	0.000436	4.356850	1.476141	0.000174
1776	1.7661e+02	-9.2837	-68.586899	0.000436	4.356850	1.476141	0.000174
1777	1.7671e+02	-9.2420	-68.417339	0.000426	4.255528	1.441812	0.000170
1778	1.7681e+02	-9.1971	-68.223557	0.000486	4.863461	1.647785	0.000195
1779	1.7691e+02	-9.1602	-68.058034	0.000415	4.154206	1.407483	0.000166
1780	1.7701e+02	-9.1120	-67.892512	0.000415	4.154206	1.407483	0.000166
1781	1.7711e+02	-9.0735	-67.710841	0.000456	4.559494	1.544799	0.000183
1782	1.7721e+02	-9.0431	-67.573578	0.000344	3.444951	1.167181	0.000138
1783	1.7731e+02	-8.9949	-67.371721	0.000507	5.066105	1.716443	0.000203
1784	1.7741e+02	-8.9500	-67.173902	0.000496	4.964783	1.682114	0.000199
1785	1.7751e+02	-8.9083	-67.028565	0.000365	3.647596	1.235839	0.000146
1786	1.7761e+02	-8.8714	-66.806522	0.000557	5.572715	1.888087	0.000223
1787	1.7771e+02	-8.8377	-66.661185	0.000365	3.647596	1.235839	0.000146
1788	1.7781e+02	-8.8008	-66.495663	0.000415	4.154206	1.407483	0.000166
1789	1.7791e+02	-8.7543	-66.301880	0.000486	4.863461	1.647785	0.000195
1790	1.7801e+02	-8.7158	-66.128283	0.000436	4.356850	1.476141	0.000174
1791	1.7810e+02	-8.6805	-65.942575	0.000466	4.660817	1.579127	0.000187
1792	1.7820e+02	-8.6340	-65.825498	0.000294	2.938341	0.995537	0.000118
1793	1.7830e+02	-8.6035	-65.619604	0.000517	5.167427	1.750772	0.000207
1794	1.7840e+02	-8.5554	-65.425822	0.000486	4.863461	1.647785	0.000195
1795	1.7850e+02	-8.5201	-65.232039	0.000486	4.863461	1.647785	0.000195
1796	1.7860e+02	-8.4816	-65.050368	0.000456	4.559494	1.544799	0.000183
1797	1.7870e+02	-8.4415	-64.888883	0.000405	4.052884	1.373154	0.000162
1798	1.7880e+02	-8.4014	-64.719323	0.000426	4.255528	1.441812	0.000170
1799	1.7890e+02	-8.3661	-64.578023	0.000355	3.546273	1.201510	0.000142
1800	1.7900e+02	-8.3276	-64.384241	0.000486	4.863461	1.647785	0.000195
1801	1.7910e+02	-8.2810	-64.186421	0.000496	4.964783	1.682114	0.000199
1802	1.7920e+02	-8.2425	-64.041084	0.000365	3.647596	1.235839	0.000146
1803	1.7930e+02	-8.1944	-63.875562	0.000415	4.154206	1.407483	0.000166
1804	1.7940e+02	-8.1559	-63.714076	0.000405	4.052884	1.373154	0.000162
1805	1.7950e+02	-8.1254	-63.508182	0.000517	5.167427	1.750772	0.000207
1806	1.7960e+02	-8.0757	-63.326511	0.000456	4.559494	1.544799	0.000183
1807	1.7970e+02	-8.0420	-63.209434	0.000294	2.938341	0.995537	0.000118
1808	1.7980e+02	-8.0019	-62.999503	0.000527	5.268749	1.785101	0.000211
1809	1.7990e+02	-7.9650	-62.761312	0.000598	5.978004	2.025403	0.000239
1810	1.8000e+02	-7.9201	-62.656347	0.000263	2.634375	0.892550	0.000105
1811	1.8009e+02	-7.8864	-62.430267	0.000567	5.674038	1.922416	0.000227
1812	1.8019e+02	-7.8399	-62.305116	0.000314	3.140985	1.064195	0.000126
1813	1.8029e+02	-7.8014	-62.079036	0.000567	5.674038	1.922416	0.000227
1814	1.8039e+02	-7.7629	-61.909477	0.000426	4.255528	1.441812	0.000170
1815	1.8049e+02	-7.7308	-61.707620	0.000507	5.066105	1.716443	0.000203
1816	1.8059e+02	-7.6923	-61.550171	0.000395	3.951562	1.338825	0.000158
1817	1.8069e+02	-7.6506	-61.372537	0.000446	4.458172	1.510470	0.000179
1818	1.8079e+02	-7.6025	-61.207015	0.000415	4.154206	1.407483	0.000166
1819	1.8089e+02	-7.5624	-61.037455	0.000426	4.255528	1.441812	0.000170
1820	1.8099e+02	-7.5222	-60.880007	0.000395	3.951562	1.338825	0.000158
1821	1.8109e+02	-7.4821	-60.649890	0.000578	5.775360	1.956745	0.000231
1822	1.8119e+02	-7.4485	-60.488405	0.000405	4.052884	1.373154	0.000162
1823	1.8129e+02	-7.4003	-60.270399	0.000547	5.471393	1.853758	0.000219
1824	1.8139e+02	-7.3602	-60.125063	0.000365	3.647596	1.235839	0.000146
1825	1.8149e+02	-7.3265	-59.943391	0.000456	4.559494	1.544799	0.000183
1826	1.8159e+02	-7.2832	-59.741535	0.000507	5.066105	1.716443	0.000203
1827	1.8169e+02	-7.2431	-59.584086	0.000395	3.951562	1.338825	0.000158
1828	1.8179e+02	-7.2078	-59.398378	0.000466	4.660817	1.579127	0.000187
1829	1.8189e+02	-7.1725	-59.200558	0.000496	4.964783	1.682114	0.000199
1830	1.8199e+02	-7.1244	-58.998702	0.000507	5.066105	1.716443	0.000203
1831	1.8209e+02	-7.0843	-58.825105	0.000436	4.356850	1.476141	0.000174
1832	1.8218e+02	-7.0538	-58.635359	0.000476	4.762139	1.613456	0.000191
1833	1.8228e+02	-7.0089	-58.445614	0.000476	4.762139	1.613456	0.000191
1834	1.8238e+02	-6.9656	-58.304314	0.000355	3.546273	1.201510	0.000142
1835	1.8248e+02	-6.9287	-58.070160	0.000588	5.876682	1.991074	0.000235
1836	1.8258e+02	-6.8870	-57.872341	0.000496	4.964783	1.682114	0.000199
1837	1.8268e+02	-6.8469	-57.702781	0.000426	4.255528	1.441812	0.000170
1838	1.8278e+02	-6.8003	-57.517073	0.000466	4.660817	1.579127	0.000187
1839	1.8288e+02	-6.7683	-57.327327	0.000476	4.762139	1.613456	0.000191
1840	1.8298e+02	-6.7265	-57.141619	0.000466	4.660817	1.579127	0.000187
1841	1.8308e+02	-6.6880	-56.963985	0.000446	4.458172	1.510470	0.000179
1842	1.8318e+02	-6.6560	-56.814611	0.000375	3.748918	1.270168	0.000150
1843	1.8328e+02	-6.6094	-56.556235	0.000648	6.484614	2.197047	0.000260
1844	1.8338e+02	-6.5661	-56.410898	0.000365	3.647596	1.235839	0.000146
1845	1.8348e+02	-6.5340	-56.213078	0.000496	4.964783	1.682114	0.000199
1846	1.8358e+02	-6.4859	-56.035444	0.000446	4.458172	1.510470	0.000179
1847	1.8368e+02	-6.4538	-55.809364	0.000567	5.674038	1.922416	0.000227
1848	1.8378e+02	-6.4089	-55.639805	0.000426	4.255528	1.441812	0.000170
1849	1.8388e+02	-6.3704	-55.486394	0.000385	3.850240	1.304497	0.000154
1850	1.8398e+02	-6.3303	-55.288574	0.000496	4.964783	1.682114	0.000199
1851	1.8407e+02	-6.2998	-55.086717	0.000507	5.066105	1.716443	0.000203
1852	1.8417e+02	-6.2565	-54.929269	0.000395	3.951562	1.338825	0.000158
1853	1.8427e+02	-6.2196	-54.735486	0.000486	4.863461	1.647785	0.000195
1854	1.8437e+02	-6.1683	-54.517481	0.000547	5.471393	1.853758	0.000219
1855	1.8447e+02	-6.1218	-54.360033	0.000395	3.951562	1.338825	0.000158
1856	1.8457e+02	-6.0897	-54.154139	0.000517	5.167427	1.750772	0.000207
1857	1.8467e+02	-6.0512	-53.988616	0.000415	4.154206	1.407483	0.000166
1858	1.8477e+02	-6.0079	-53.754462	0.000588	5.876682	1.991074	0.000235
1859	1.8487e+02	-5.9790	-53.568754	0.000466	4.660817	1.579127	0.000187
1860	1.8497e+02	-5.9292	-53.379009	0.000476	4.762139	1.613456	0.000191
1861	1.8507e+02	-5.8907	-53.221560	0.000395	3.951562	1.338825	0.000158
1862	1.8517e+02	-5.8538	-53.035852	0.000466	4.660817	1.579127	0.000187
1863	1.8527e+02	-5.8105	-52.829958	0.000517	5.167427	1.750772	0.000207
1864	1.8537e+02	-5.7736	-52.599842	0.000578	5.775360	1.956745	0.000231
1865	1.8547e+02	-5.7367	-52.430282	0.000426	4.255528	1.441812	0.000170
1866	1.8557e+02	-5.6998	-52.288982	0.000355	3.546273	1.201510	0.000142
1867	1.8567e+02	-5.6629	-52.014457	0.000689	6.889903	2.334362	0.000276
1868	1.8577e+02	-5.6132	-51.869120	0.000365	3.647596	1.235839	0.000146
1869	1.8587e+02	-5.5827	-51.707635	0.000405	4.052884	1.373154	0.000162
1870	1.8597e+02	-5.5314	-51.441184	0.000669	6.687259	2.265705	0.000268
1871	1.8606e+02	-5.4945	-51.239327	0.000507	5.066105	1.716443	0.000203
1872	1.8616e+02	-5.4496	-51.049581	0.000476	4.762139	1.613456	0.000191
1873	1.8626e+02	-5.4175	-50.855799	0.000486	4.863461	1.647785	0.000195
1874	1.8636e+02	-5.3710	-50.702388	0.000385	3.850240	1.304497	0.000154
1875	1.8646e+02	-5.3373	-50.500531	0.000507	5.066105	1.716443	0.000203
1876	1.8656e+02	-5.2908	-50.298674	0.000507	5.066105	1.716443	0.000203
1877	1.8666e+02	-5.2458	-50.084706	0.000537	5.370071	1.819429	0.000215
1878	1.8676e+02	-5.2170	-49.923221	0.000405	4.052884	1.373154	0.000162
1879	1.8686e+02	-5.1769	-49.709252	0.000537	5.370071	1.819429	0.000215
1880	1.8696e+02	-5.1335	-49.531618	0.000446	4.458172	1.510470	0.000179
1881	1.8706e+02	-5.0983	-49.309576	0.000557	5.572715	1.888087	0.000223
1882	1.8716e+02	-5.0517	-49.119831	0.000476	4.762139	1.613456	0.000191
1883	1.8726e+02	-5.0245	-48.913937	0.000517	5.167427	1.750772	0.000207
1884	1.8736e+02	-4.9827	-48.748414	0.000415	4.154206	1.407483	0.000166
1885	1.8746e+02	-4.9426	-48.510223	0.000598	5.978004	2.025403	0.000239
1886	1.8756e+02	-4.8993	-48.344700	0.000415	4.154206	1.407483	0.000166
1887	1.8766e+02	-4.8608	-48.154955	0.000476	4.762139	1.613456	0.000191
1888	1.8776e+02	-4.8207	-47.916764	0.000598	5.978004	2.025403	0.000239
1889	1.8786e+02	-4.7758	-47.698759	0.000547	5.471393	1.853758	0.000219
1890	1.8796e+02	-4.7421	-47.517088	0.000456	4.559494	1.544799	0.000183
1891	1.8806e+02	-4.7052	-47.319268	0.000496	4.964783	1.682114	0.000199
1892	1.8815e+02	-4.6651	-47.121448	0.000496	4.964783	1.682114	0.000199
1893	1.8825e+02	-4.6202	-46.943814	0.000446	4.458172	1.510470	0.000179
1894	1.8835e+02	-4.5833	-46.729846	0.000537	5.370071	1.819429	0.000215
1895	1.8845e+02	-4.5320	-46.580472	0.000375	3.748918	1.270168	0.000150
1896	1.8855e+02	-4.5047	-46.322095	0.000648	6.484614	2.197047	0.000260
1897	1.8865e+02	-4.4614	-46.132350	0.000476	4.762139	1.613456	0.000191
1898	1.8875e+02	-4.4148	-45.902233	0.000578	5.775360	1.956745	0.000231
1899	1.8885e+02	-4.3844	-45.732674	0.000426	4.255528	1.441812	0.000170
1900	1.8895e+02	-4.3459	-45.542928	0.000476	4.762139	1.613456	0.000191
1901	1.8905e+02	-4.2977	-45.353183	0.000476	4.762139	1.613456	0.000191
1902	1.8915e+02	-4.2544	-45.171512	0.000456	4.559494	1.544799	0.000183
1903	1.8925e+02	-4.2095	-44.953506	0.000547	5.471393	1.853758	0.000219
1904	1.8935e+02	-4.1854	-44.719353	0.000588	5.876682	1.991074	0.000235
1905	1.8945e+02	-4.1405	-44.517496	0.000507	5.066105	1.716443	0.000203
1906	1.8955e+02	-4.1068	-44.360047	0.000395	3.951562	1.338825	0.000158
1907	1.8965e+02	-4.0507	-44.174339	0.000466	4.660817	1.579127	0.000187
1908	1.8975e+02	-4.0218	-43.948260	0.000567	5.674038	1.922416	0.000227
1909	1.8985e+02	-3.9785	-43.738329	0.000527	5.268749	1.785101	0.000211
1910	1.8995e+02	-3.9448	-43.556657	0.000456	4.559494	1.544799	0.000183
1911	1.9004e+02	-3.8951	-43.314429	0.000608	6.079326	2.059731	0.000243
1912	1.9014e+02	-3.8614	-43.136795	0.000446	4.458172	1.510470	0.000179
1913	1.9024e+02	-3.8309	-42.938976	0.000496	4.964783	1.682114	0.000199
1914	1.9034e+02	-3.7860	-42.753267	0.000466	4.660817	1.579127	0.000187
1915	1.9044e+02	-3.7459	-42.531225	0.000557	5.572715	1.888087	0.000223
1916	1.9054e+02	-3.7058	-42.353591	0.000446	4.458172	1.510470	0.000179
1917	1.9064e+02	-3.6689	-42.147697	0.000517	5.167427	1.750772	0.000207
1918	1.9074e+02	-3.6224	-41.929692	0.000547	5.471393	1.853758	0.000219
1919	1.9084e+02	-3.5839	-41.743984	0.000466	4.660817	1.579127	0.000187
1920	1.9094e+02	-3.5518	-41.554238	0.000476	4.762139	1.613456	0.000191
1921	1.9104e+02	-3.5117	-41.336233	0.000547	5.471393	1.853758	0.000219
1922	1.9114e+02	-3.4619	-41.118227	0.000547	5.471393	1.853758	0.000219
1923	1.9124e+02	-3.4331	-40.932519	0.000466	4.660817	1.579127	0.000187
1924	1.9134e+02	-3.3785	-40.678180	0.000638	6.383292	2.162718	0.000256
1925	1.9144e+02	-3.3432	-40.484397	0.000486	4.863461	1.647785	0.000195
1926	1.9154e+02	-3.3015	-40.363283	0.000304	3.039663	1.029866	0.000122
1927	1.9164e+02	-3.2678	-40.157389	0.000517	5.167427	1.750772	0.000207
1928	1.9174e+02	-3.2245	-39.927272	0.000578	5.775360	1.956745	0.000231
1929	1.9184e+02	-3.1860	-39.737527	0.000476	4.762139	1.613456	0.000191
1930	1.9194e+02	-3.1459	-39.563930	0.000436	4.356850	1.476141	0.000174
1931	1.9203e+02	-3.0978	-39.329776	0.000588	5.876682	1.991074	0.000235
1932	1.9213e+02	-3.0721	-39.127920	0.000507	5.066105	1.716443	0.000203
1933	1.9223e+02	-3.0240	-38.954323	0.000436	4.356850	1.476141	0.000174
1934	1.9233e+02	-2.9855	-38.732280	0.000557	5.572715	1.888087	0.000223
1935	1.9243e+02	-2.9534	-38.550609	0.000456	4.559494	1.544799	0.000183
1936	1.9253e+02	-2.8956	-38.324530	0.000567	5.674038	1.922416	0.000227
1937	1.9263e+02	-2.8587	-38.167081	0.000395	3.951562	1.338825	0.000158
1938	1.9273e+02	-2.8283	-37.953113	0.000537	5.370071	1.819429	0.000215
1939	1.9283e+02	-2.7817	-37.747219	0.000517	5.167427	1.750772	0.000207
1940	1.9293e+02	-2.7368	-37.488842	0.000648	6.484614	2.197047	0.000260
1941	1.9303e+02	-2.7095	-37.258726	0.000578	5.775360	1.956745	0.000231
1942	1.9313e+02	-2.6550	-37.101277	0.000395	3.951562	1.338825	0.000158
1943	1.9323e+02	-2.6293	-36.891346	0.000527	5.268749	1.785101	0.000211
1944	1.9333e+02	-2.5844	-36.713712	0.000446	4.458172	1.510470	0.000179
1945	1.9343e+02	-2.5555	-36.523967	0.000476	4.762139	1.613456	0.000191
1946	1.9353e+02	-2.5106	-36.301925	0.000557	5.572715	1.888087	0.000223
1947	1.9363e+02	-2.4657	-36.087956	0.000537	5.370071	1.819429	0.000215
1948	1.9373e+02	-2.4336	-35.886100	0.000507	5.066105	1.716443	0.000203
1949	1.9383e+02	-2.3919	-35.684243	0.000507	5.066105	1.716443	0.000203
1950	1.9393e+02	-2.3438	-35.510646	0.000436	4.356850	1.476141	0.000174
1951	1.9403e+02	-2.3085	-35.264381	0.000618	6.180648	2.094060	0.000248
1952	1.9412e+02	-2.2588	-35.086747	0.000446	4.458172	1.510470	0.000179
1953	1.9422e+02	-2.2299	-34.884890	0.000507	5.066105	1.716443	0.000203
1954	1.9432e+02	-2.1914	-34.691107	0.000486	4.863461	1.647785	0.000195
1955	1.9442e+02	-2.1561	-34.448879	0.000608	6.079326	2.059731	0.000243
1956	1.9452e+02	-2.1048	-34.279320	0.000426	4.255528	1.441812	0.000170
1957	1.9462e+02	-2.0759	-34.089574	0.000476	4.762139	1.613456	0.000191
1958	1.9472e+02	-2.0245	-33.859457	0.000578	5.775360	1.956745	0.000231
1959	1.9482e+02	-1.9812	-33.617229	0.000608	6.079326	2.059731	0.000243
1960	1.9492e+02	-1.9491	-33.500152	0.000294	2.938341	0.995537	0.000118
1961	1.9502e+02	-1.9138	-33.261961	0.000598	5.978004	2.025403	0.000239
1962	1.9512e+02	-1.8673	-33.031845	0.000578	5.775360	1.956745	0.000231
1963	1.9522e+02	-1.8224	-32.842099	0.000476	4.762139	1.613456	0.000191
1964	1.9532e+02	-1.7807	-32.624094	0.000547	5.471393	1.853758	0.000219
1965	1.9542e+02	-1.7598	-32.446460	0.000446	4.458172	1.510470	0.000179
1966	1.9552e+02	-1.7101	-32.220380	0.000567	5.674038	1.922416	0.000227
1967	1.9562e+02	-1.6732	-32.046783	0.000436	4.356850	1.476141	0.000174
1968	1.9572e+02	-1.6315	-31.873187	0.000436	4.356850	1.476141	0.000174
1969	1.9582e+02	-1.5930	-31.622884	0.000628	6.281970	2.128389	0.000252
1970	1.9592e+02	-1.5513	-31.412953	0.000527	5.268749	1.785101	0.000211
1971	1.9601e+02	-1.5128	-31.194948	0.000547	5.471393	1.853758	0.000219
1972	1.9611e+02	-1.4599	-31.009240	0.000466	4.660817	1.579127	0.000187
1973	1.9621e+02	-1.4342	-30.783160	0.000567	5.674038	1.922416	0.000227
1974	1.9631e+02	-1.3957	-30.605526	0.000446	4.458172	1.510470	0.000179
1975	1.9641e+02	-1.3427	-30.415781	0.000476	4.762139	1.613456	0.000191
1976	1.9651e+02	-1.3042	-30.169515	0.000618	6.180648	2.094060	0.000248
1977	1.9661e+02	-1.2641	-29.955547	0.000537	5.370071	1.819429	0.000215
1978	1.9671e+02	-1.2369	-29.785987	0.000426	4.255528	1.441812	0.000170
1979	1.9681e+02	-1.1903	-29.572019	0.000537	5.370071	1.819429	0.000215
1980	1.9691e+02	-1.1550	-29.390348	0.000456	4.559494	1.544799	0.000183
1981	1.9701e+02	-1.1133	-29.212714	0.000446	4.458172	1.510470	0.000179
1982	1.9711e+02	-1.0700	-28.958375	0.000638	6.383292	2.162718	0.000256
1983	1.9721e+02	-1.0283	-28.772666	0.000466	4.660817	1.579127	0.000187
1984	1.9731e+02	-0.9914	-28.558698	0.000537	5.370071	1.819429	0.000215
1985	1.9741e+02	-0.9513	-28.352804	0.000517	5.167427	1.750772	0.000207
1986	1.9751e+02	-0.9144	-28.130762	0.000557	5.572715	1.888087	0.000223
1987	1.9761e+02	-0.8711	-27.949091	0.000456	4.559494	1.544799	0.000183
1988	1.9771e+02	-0.8326	-27.759345	0.000476	4.762139	1.613456	0.000191
1989	1.9781e+02	-0.7925	-27.521154	0.000598	5.978004	2.025403	0.000239
1990	1.9791e+02	-0.7556	-27.323335	0.000496	4.964783	1.682114	0.000199
1991	1.9800e+02	-0.7123	-27.093218	0.000578	5.775360	1.956745	0.000231
1992	1.9810e+02	-0.6722	-26.826767	0.000669	6.687259	2.265705	0.000268
1993	1.9820e+02	-0.6385	-26.657207	0.000426	4.255528	1.441812	0.000170
1994	1.9830e+02	-0.5888	-26.447276	0.000527	5.268749	1.785101	0.000211
1995	1.9840e+02	-0.5551	-26.249457	0.000496	4.964783	1.682114	0.000199
1996	1.9850e+02	-0.5150	-26.071823	0.000446	4.458172	1.510470	0.000179
1997	1.9860e+02	-0.4732	-25.837669	0.000588	5.876682	1.991074	0.000235
1998	1.9870e+02	-0.4315	-25.651960	0.000466	4.660817	1.579127	0.000187
1999	1.9880e+02	-0.3882	-25.433955	0.000547	5.471393	1.853758	0.000219
2000	1.9890e+02	-0.3545	-25.155393	0.000699	6.991225	2.368691	0.000280
2001	1.9900e+02	-0.3128	-25.001982	0.000385	3.850240	1.304497	0.000154
2002	1.9910e+02	-0.2759	-24.788013	0.000537	5.370071	1.819429	0.000215
2003	1.9920e+02	-0.2278	-24.586157	0.000507	5.066105	1.716443	0.000203
2004	1.9930e+02	-0.1973	-24.347966	0.000598	5.978004	2.025403	0.000239
2005	1.9940e+02	-0.1556	-24.150146	0.000496	4.964783	1.682114	0.000199
2006	1.9950e+02	-0.1171	-23.952326	0.000496	4.964783	1.682114	0.000199
2007	1.9960e+02	-0.0882	-23.706061	0.000618	6.180648	2.094060	0.000248
2008	1.9970e+02	-0.0433	-23.492093	0.000537	5.370071	1.819429	0.000215
2009	1.9980e+02	-0.0016	-23.286199	0.000537	5.370071	1.819429	0.000207

PMax (uC/cm2):	1.03e+02
Pr (uC/cm2):	6.06e+00
-Pr (uC/cm2):	-2.32e+01
PLoss (uC/cm2):	-2.32e+01
-Vc:	-1.14e+00
C (Max-Eff) (nF):	5.17e-01
K (Eff):	1.75e+03
Vert. (+/-Pr) Shift (uC/cm2):	-8.60e+00
Offset (uC/cm2):	3.63e-02

A (Loop Area - uC/cm2·Volts):	-1.41e-01



Hysteresis Version: 5.48.1 - Radiant Technologies, Inc., 1999 - 9/12/24

