»»»»»»»»»»»»»»»»»»»»»»»»»»»»»»»»»»»» Hysteresis ««««««««««««««««««««««««««««««««««««
»»»  Executed Version:	5.48.1
»»»  Vision Version:	5.48.4 (R)
»»»  Vision Compiled:	9/18/24
»»»  Driver Version:	5.47.0
»»»  Windows Version:	Windows 8 or 8.1
»»»  Processor Information:	x86 (AMD or Intel) - 32 Processors
»»»  Tester Name:	PMF21124-494 (100V)
»»»  Tester S/N:	PMF21124-494
»»»  Internal Amp Type:	100V RevK 270k
»»»  Internal Amp S/N:	iAB2-596/K     
»»»  Execution Count:	1
»»»»»»»»»»»»»»»»»»»»»»»»»»»»»»»»»»»»»»»»»»««««««««««««««««««««««««««««««««««««««««««

Stored:	6/18/2025 - 17:45:48
Configured:	06/18/25 09:47:30 AM
Executed:	06/18/25 05:45:24 PM

»»»»»»»»»»»»»»»»»»»»»»»»»»»»»»»»»»» Sample Info ««««««««««««««««««««««««««««««««««««
Sample Name:	
Lot Name:	
Wafer Name:	
Die Row/Column:	0/0
Capacitor Number:	0
Sample Area (cm2):	1.00e-04
Sample Thickness (microns):	3.00e-01

Amplifier:	Internal

»»»»»»»»»»»»»»»»»»»»»»»»»»»»»»»»»»» Tester Info «««««««««««««««««««««««««««««««««««
Tester Name:	PMF21124-494 (100V)
Tester Serial Number:	PMF21124-494
Return Signal Amp. Level:	0.19 [Index: 3]

»»»»»»»»»»»»»»»»»»»»»»»»»»»»»»»» Hysteresis Info ««««««««««««««««««««««««««««««««««
Task Name:	Hyst-554
Volts:	20.00
Field:	666.67 (kV/cm)
DCBias:	0.00
DCField:	0.00 (kV/cm)
Hysteresis Period (ms):	1.00e+00
Preset:	Enabled
Preset Delay (ms):	1.00e+03
Profile:	Standard Bipolar

»»»»»»»»»»»»»»»»»»»»»»»»»»»»»»»»»»»»»» Data «««««««««««««««««««««««««««««««««««««««
Points:	2001

Valid Data

Point	Time (ms)	Drive Voltage	Measured Polarization (uC/cm2)	Capacitance (uF)	Normalized Capacitance (uF/cm2)	Dielectric Constant	Instantaneous Current (mA)
   1	0.0000e+00	0.0160	-5.817745	0.001192	11.922763	4.039541	0.095181
   2	5.0000e-04	0.0321	-5.341839	0.001192	11.922763	4.039541	0.095181
   3	1.0000e-03	0.0610	-5.523329	-0.000455	-4.546816	-1.540503	-0.036298
   4	1.5000e-03	0.0995	-5.450733	0.000182	1.818727	0.616201	0.014519
   5	2.0000e-03	0.1428	-5.325707	0.000313	3.132251	1.061235	0.025005
   6	2.5000e-03	0.1781	-5.176482	0.000374	3.738493	1.266636	0.029845
   7	3.0000e-03	0.2086	-4.886099	0.000727	7.274906	2.464805	0.058077
   8	3.5000e-03	0.2487	-4.761073	0.000313	3.132251	1.061235	0.025005
   9	4.0000e-03	0.2856	-4.652179	0.000273	2.728090	0.924302	0.021779
  10	4.5000e-03	0.3321	-4.418260	0.000586	5.860341	1.985537	0.046784
  11	5.0000e-03	0.3722	-4.337598	0.000202	2.020807	0.684668	0.016132
  12	5.5000e-03	0.4091	-3.934288	0.001010	10.104036	3.423340	0.080662
  13	6.0000e-03	0.4556	-3.696335	0.000596	5.961381	2.019771	0.047591
  14	6.5000e-03	0.4893	-3.587441	0.000273	2.728090	0.924302	0.021779
  15	7.0000e-03	0.5198	-3.313191	0.000687	6.870745	2.327871	0.054850
  16	7.5000e-03	0.5695	-3.276893	0.000091	0.909363	0.308101	0.007260
  17	8.0000e-03	0.6176	-3.373687	-0.000242	-2.424969	-0.821602	-0.019359
  18	8.5000e-03	0.6481	-3.034907	0.000849	8.487390	2.875606	0.067756
  19	9.0000e-03	0.6850	-2.627564	0.001021	10.205077	3.457574	0.081469
  20	9.5000e-03	0.7347	-2.679994	-0.000131	-1.313525	-0.445034	-0.010486
  21	1.0000e-02	0.7716	-2.478339	0.000505	5.052018	1.711670	0.040331
  22	1.0500e-02	0.8182	-2.296850	0.000455	4.546816	1.540503	0.036298
  23	1.1000e-02	0.8486	-2.127460	0.000424	4.243695	1.437803	0.033878
  24	1.1500e-02	0.8984	-1.978235	0.000374	3.738493	1.266636	0.029845
  25	1.2000e-02	0.9369	-1.703984	0.000687	6.870745	2.327871	0.054850
  26	1.2500e-02	0.9786	-1.611223	0.000232	2.323928	0.787368	0.018552
  27	1.3000e-02	1.0155	-1.385369	0.000566	5.658260	1.917070	0.045171
  28	1.3500e-02	1.0572	-1.220012	0.000414	4.142655	1.403569	0.033071
  29	1.4000e-02	1.0909	-0.893331	0.000818	8.184269	2.772906	0.065336
  30	1.4500e-02	1.1278	-0.760239	0.000333	3.334332	1.129702	0.026618
  31	1.5000e-02	1.1743	-0.550518	0.000525	5.254099	1.780137	0.041944
  32	1.5500e-02	1.2192	-0.381128	0.000424	4.243695	1.437803	0.033878
  33	1.6000e-02	1.2465	-0.090745	0.000727	7.274906	2.464805	0.058077
  34	1.6500e-02	1.2850	0.062513	0.000384	3.839534	1.300869	0.030652
  35	1.7000e-02	1.3315	0.050414	-0.000030	-0.303121	-0.102700	-0.002420
  36	1.7500e-02	1.3796	0.110910	0.000152	1.515605	0.513501	0.012099
  37	1.8000e-02	1.4165	0.288367	0.000445	4.445776	1.506270	0.035491
  38	1.8500e-02	1.4486	0.723941	0.001091	10.912359	3.697207	0.087115
  39	1.9000e-02	1.4951	0.905431	0.000455	4.546816	1.540503	0.036298
  40	1.9500e-02	1.5304	1.151450	0.000616	6.163462	2.088237	0.049204
  41	2.0000e-02	1.5786	1.131284	-0.000051	-0.505202	-0.171167	-0.004033
  42	2.0500e-02	1.6074	1.393436	0.000657	6.567624	2.225171	0.052430
  43	2.1000e-02	1.6540	1.603157	0.000525	5.254099	1.780137	0.041944
  44	2.1500e-02	1.6893	1.687852	0.000212	2.121848	0.718901	0.016939
  45	2.2000e-02	1.7326	2.046798	0.000899	8.992592	3.046773	0.071789
  46	2.2500e-02	1.7759	2.127460	0.000202	2.020807	0.684668	0.016132
  47	2.3000e-02	1.8080	2.381545	0.000637	6.365543	2.156704	0.050817
  48	2.3500e-02	1.8465	2.498505	0.000293	2.930170	0.992769	0.023392
  49	2.4000e-02	1.8882	2.752590	0.000637	6.365543	2.156704	0.050817
  50	2.4500e-02	1.9379	2.724358	-0.000071	-0.707283	-0.239634	-0.005646
  51	2.5000e-02	1.9668	3.026841	0.000758	7.578027	2.567505	0.060496
  52	2.5500e-02	2.0085	3.159933	0.000333	3.334332	1.129702	0.026618
  53	2.6000e-02	2.0502	3.397886	0.000596	5.961381	2.019771	0.047591
  54	2.6500e-02	2.0935	3.623739	0.000566	5.658260	1.917070	0.045171
  55	2.7000e-02	2.1288	3.885891	0.000657	6.567624	2.225171	0.052430
  56	2.7500e-02	2.1753	3.885891	0.000000	0.000000	0.000000	0.000000
  57	2.8000e-02	2.1978	4.127876	0.000606	6.062422	2.054004	0.048397
  58	2.8500e-02	2.2523	4.398094	0.000677	6.769704	2.293638	0.054044
  59	2.9000e-02	2.2860	4.543286	0.000364	3.637453	1.232402	0.029038
  60	2.9500e-02	2.3342	4.644113	0.000253	2.526009	0.855835	0.020165
  61	3.0000e-02	2.3743	4.942562	0.000748	7.476987	2.533272	0.059690
  62	3.0500e-02	2.4080	5.241012	0.000748	7.476987	2.533272	0.059690
  63	3.1000e-02	2.4529	5.309574	0.000172	1.717686	0.581968	0.013713
  64	3.1500e-02	2.4866	5.474931	0.000414	4.142655	1.403569	0.033071
  65	3.2000e-02	2.5411	5.599957	0.000313	3.132251	1.061235	0.025005
  66	3.2500e-02	2.5684	5.769348	0.000424	4.243695	1.437803	0.033878
  67	3.3000e-02	2.6165	6.019400	0.000626	6.264502	2.122471	0.050010
  68	3.3500e-02	2.6502	6.237187	0.000546	5.456180	1.848604	0.043557
  69	3.4000e-02	2.6903	6.467074	0.000576	5.759301	1.951304	0.045977
  70	3.4500e-02	2.7368	6.515471	0.000121	1.212484	0.410801	0.009679
  71	3.5000e-02	2.7657	6.797788	0.000707	7.072825	2.396338	0.056463
  72	3.5500e-02	2.8170	7.124469	0.000818	8.184269	2.772906	0.065336
  73	3.6000e-02	2.8555	7.277726	0.000384	3.839534	1.300869	0.030652
  74	3.6500e-02	2.8956	7.382587	0.000263	2.627049	0.890068	0.020972
  75	3.7000e-02	2.9325	7.628606	0.000616	6.163462	2.088237	0.049204
  76	3.7500e-02	2.9759	7.785897	0.000394	3.940574	1.335103	0.031458
  77	3.8000e-02	3.0208	8.088379	0.000758	7.578027	2.567505	0.060496
  78	3.8500e-02	3.0464	8.156942	0.000172	1.717686	0.581968	0.013713
  79	3.9000e-02	3.0914	8.330365	0.000434	4.344736	1.472036	0.034685
  80	3.9500e-02	3.1299	8.374729	0.000111	1.111444	0.376567	0.008873
  81	4.0000e-02	3.1700	8.890966	0.001293	12.933166	4.381875	0.103247
  82	4.0500e-02	3.2149	8.979694	0.000222	2.222888	0.753135	0.017746
  83	4.1000e-02	3.2518	9.314441	0.000839	8.386350	2.841372	0.066949
  84	4.1500e-02	3.2887	9.274110	-0.000101	-1.010404	-0.342334	-0.008066
  85	4.2000e-02	3.3400	9.370905	0.000242	2.424969	0.821602	0.019359
  86	4.2500e-02	3.3689	9.701619	0.000829	8.285310	2.807139	0.066143
  87	4.3000e-02	3.4058	9.786314	0.000212	2.121848	0.718901	0.016939
  88	4.3500e-02	3.4571	10.121061	0.000839	8.386350	2.841372	0.066949
  89	4.4000e-02	3.4940	10.262219	0.000354	3.536413	1.198169	0.028232
  90	4.4500e-02	3.5293	10.383212	0.000303	3.031211	1.027002	0.024199
  91	4.5000e-02	3.5726	10.592933	0.000525	5.254099	1.780137	0.041944
  92	4.5500e-02	3.6159	10.963979	0.000930	9.295713	3.149473	0.074209
  93	4.6000e-02	3.6496	11.137402	0.000434	4.344736	1.472036	0.034685
  94	4.6500e-02	3.6978	11.411652	0.000687	6.870745	2.327871	0.054850
  95	4.7000e-02	3.7363	11.351156	-0.000152	-1.515605	-0.513501	-0.012099
  96	4.7500e-02	3.7651	11.677837	0.000818	8.184269	2.772906	0.065336
  97	4.8000e-02	3.8101	11.774631	0.000242	2.424969	0.821602	0.019359
  98	4.8500e-02	3.8502	11.863360	0.000222	2.222888	0.753135	0.017746
  99	4.9000e-02	3.8951	12.133577	0.000677	6.769704	2.293638	0.054044
 100	4.9500e-02	3.9304	12.351364	0.000546	5.456180	1.848604	0.043557
 101	5.0000e-02	3.9753	12.613516	0.000657	6.567624	2.225171	0.052430
 102	5.0500e-02	4.0010	12.633681	0.000051	0.505202	0.171167	0.004033
 103	5.1000e-02	4.0539	12.907932	0.000687	6.870745	2.327871	0.054850
 104	5.1500e-02	4.0908	13.214448	0.000768	7.679068	2.601738	0.061303
 105	5.2000e-02	4.1341	13.436268	0.000556	5.557220	1.882837	0.044364
 106	5.2500e-02	4.1742	13.569360	0.000333	3.334332	1.129702	0.026618
 107	5.3000e-02	4.2143	13.835545	0.000667	6.668664	2.259404	0.053237
 108	5.3500e-02	4.2496	13.916207	0.000202	2.020807	0.684668	0.016132
 109	5.4000e-02	4.2865	14.214656	0.000748	7.476987	2.533272	0.059690
 110	5.4500e-02	4.3362	14.371947	0.000394	3.940574	1.335103	0.031458
 111	5.5000e-02	4.3780	14.541337	0.000424	4.243695	1.437803	0.033878
 112	5.5500e-02	4.4132	14.827687	0.000717	7.173866	2.430571	0.057270
 113	5.6000e-02	4.4534	15.114037	0.000717	7.173866	2.430571	0.057270
 114	5.6500e-02	4.4838	15.073706	-0.000101	-1.010404	-0.342334	-0.008066
 115	5.7000e-02	4.5352	15.356023	0.000707	7.072825	2.396338	0.056463
 116	5.7500e-02	4.5689	15.626241	0.000677	6.769704	2.293638	0.054044
 117	5.8000e-02	4.6058	15.727068	0.000253	2.526009	0.855835	0.020165
 118	5.8500e-02	4.6571	16.073914	0.000869	8.689471	2.944073	0.069369
 119	5.9000e-02	4.6940	16.162643	0.000222	2.222888	0.753135	0.017746
 120	5.9500e-02	4.7341	16.364298	0.000505	5.052018	1.711670	0.040331
 121	6.0000e-02	4.7630	16.654681	0.000727	7.274906	2.464805	0.058077
 122	6.0500e-02	4.8127	16.928931	0.000687	6.870745	2.327871	0.054850
 123	6.1000e-02	4.8496	17.090255	0.000404	4.041614	1.369336	0.032265
 124	6.1500e-02	4.9041	17.138653	0.000121	1.212484	0.410801	0.009679
 125	6.2000e-02	4.9266	17.308043	0.000424	4.243695	1.437803	0.033878
 126	6.2500e-02	4.9747	17.550029	0.000606	6.062422	2.054004	0.048397
 127	6.3000e-02	5.0036	17.977537	0.001071	10.710278	3.628741	0.085502
 128	6.3500e-02	5.0501	18.102563	0.000313	3.132251	1.061235	0.025005
 129	6.4000e-02	5.0886	18.171126	0.000172	1.717686	0.581968	0.013713
 130	6.4500e-02	5.1368	18.267920	0.000242	2.424969	0.821602	0.019359
 131	6.5000e-02	5.1769	18.780124	0.001283	12.832126	4.347642	0.102441
 132	6.5500e-02	5.2057	18.961613	0.000455	4.546816	1.540503	0.036298
 133	6.6000e-02	5.2587	19.030176	0.000172	1.717686	0.581968	0.013713
 134	6.6500e-02	5.2876	19.223764	0.000485	4.849937	1.643203	0.038718
 135	6.7000e-02	5.3309	19.425419	0.000505	5.052018	1.711670	0.040331
 136	6.7500e-02	5.3710	19.667405	0.000606	6.062422	2.054004	0.048397
 137	6.8000e-02	5.4143	19.905358	0.000596	5.961381	2.019771	0.047591
 138	6.8500e-02	5.4464	20.046517	0.000354	3.536413	1.198169	0.028232
 139	6.9000e-02	5.4945	20.312701	0.000667	6.668664	2.259404	0.053237
 140	6.9500e-02	5.5250	20.514356	0.000505	5.052018	1.711670	0.040331
 141	7.0000e-02	5.5763	20.695845	0.000455	4.546816	1.540503	0.036298
 142	7.0500e-02	5.6116	20.889434	0.000485	4.849937	1.643203	0.038718
 143	7.1000e-02	5.6469	21.103188	0.000536	5.355139	1.814370	0.042751
 144	7.1500e-02	5.6934	21.111255	0.000020	0.202081	0.068467	0.001613
 145	7.2000e-02	5.7351	21.333075	0.000556	5.557220	1.882837	0.044364
 146	7.2500e-02	5.7672	21.627491	0.000738	7.375946	2.499038	0.058883
 147	7.3000e-02	5.8121	21.921907	0.000738	7.375946	2.499038	0.058883
 148	7.3500e-02	5.8522	22.188092	0.000667	6.668664	2.259404	0.053237
 149	7.4000e-02	5.8923	22.155827	-0.000081	-0.808323	-0.273867	-0.006453
 150	7.4500e-02	5.9325	22.486541	0.000829	8.285310	2.807139	0.066143
 151	7.5000e-02	5.9726	22.619634	0.000333	3.334332	1.129702	0.026618
 152	7.5500e-02	6.0127	22.918083	0.000748	7.476987	2.533272	0.059690
 153	7.6000e-02	6.0528	22.950348	0.000081	0.808323	0.273867	0.006453
 154	7.6500e-02	6.0913	23.252830	0.000758	7.578027	2.567505	0.060496
 155	7.7000e-02	6.1346	23.579511	0.000818	8.184269	2.772906	0.065336
 156	7.7500e-02	6.1731	23.446419	-0.000333	-3.334332	-1.129702	-0.026618
 157	7.8000e-02	6.2180	23.797298	0.000879	8.790511	2.978306	0.070176
 158	7.8500e-02	6.2597	23.990887	0.000485	4.849937	1.643203	0.038718
 159	7.9000e-02	6.2902	24.184476	0.000485	4.849937	1.643203	0.038718
 160	7.9500e-02	6.3271	24.414362	0.000576	5.759301	1.951304	0.045977
 161	8.0000e-02	6.3704	24.692646	0.000697	6.971785	2.362105	0.055657
 162	8.0500e-02	6.4185	24.741043	0.000121	1.212484	0.410801	0.009679
 163	8.1000e-02	6.4490	25.168552	0.001071	10.710278	3.628741	0.085502
 164	8.1500e-02	6.4875	25.438769	0.000677	6.769704	2.293638	0.054044
 165	8.2000e-02	6.5292	25.793682	0.000889	8.891552	3.012539	0.070983
 166	8.2500e-02	6.5661	25.704954	-0.000222	-2.222888	-0.753135	-0.017746
 167	8.3000e-02	6.6078	25.902576	0.000495	4.950978	1.677437	0.039524
 168	8.3500e-02	6.6479	26.164727	0.000657	6.567624	2.225171	0.052430
 169	8.4000e-02	6.6864	26.168760	0.000010	0.101040	0.034233	0.000807
 170	8.4500e-02	6.7378	26.568037	0.001000	10.002996	3.389107	0.079855
 171	8.5000e-02	6.7747	26.870519	0.000758	7.578027	2.567505	0.060496
 172	8.5500e-02	6.8148	26.866486	-0.000010	-0.101040	-0.034233	-0.000807
 173	8.6000e-02	6.8437	27.229465	0.000909	9.093633	3.081006	0.072596
 174	8.6500e-02	6.8854	27.471451	0.000606	6.062422	2.054004	0.048397
 175	8.7000e-02	6.9335	27.560179	0.000222	2.222888	0.753135	0.017746
 176	8.7500e-02	6.9736	27.790066	0.000576	5.759301	1.951304	0.045977
 177	8.8000e-02	7.0153	27.898960	0.000273	2.728090	0.924302	0.021779
 178	8.8500e-02	7.0490	28.124813	0.000566	5.658260	1.917070	0.045171
 179	8.9000e-02	7.0827	28.431329	0.000768	7.679068	2.601738	0.061303
 180	8.9500e-02	7.1388	28.653149	0.000556	5.557220	1.882837	0.044364
 181	9.0000e-02	7.1693	28.826572	0.000434	4.344736	1.472036	0.034685
 182	9.0500e-02	7.2239	28.931433	0.000263	2.627049	0.890068	0.020972
 183	9.1000e-02	7.2511	29.209717	0.000697	6.971785	2.362105	0.055657
 184	9.1500e-02	7.2880	29.463802	0.000637	6.365543	2.156704	0.050817
 185	9.2000e-02	7.3378	29.778384	0.000788	7.881148	2.670205	0.062916
 186	9.2500e-02	7.3714	29.802582	0.000061	0.606242	0.205400	0.004840
 187	9.3000e-02	7.4083	29.967939	0.000414	4.142655	1.403569	0.033071
 188	9.3500e-02	7.4468	30.092965	0.000313	3.132251	1.061235	0.025005
 189	9.4000e-02	7.4821	30.427712	0.000839	8.386350	2.841372	0.066949
 190	9.4500e-02	7.5367	30.661632	0.000586	5.860341	1.985537	0.046784
 191	9.5000e-02	7.5656	30.879419	0.000546	5.456180	1.848604	0.043557
 192	9.5500e-02	7.6041	31.113339	0.000586	5.860341	1.985537	0.046784
 193	9.6000e-02	7.6490	31.327093	0.000536	5.355139	1.814370	0.042751
 194	9.6500e-02	7.6795	31.327093	0.000000	0.000000	0.000000	0.000000
 195	9.7000e-02	7.7308	31.641675	0.000788	7.881148	2.670205	0.062916
 196	9.7500e-02	7.7709	31.782834	0.000354	3.536413	1.198169	0.028232
 197	9.8000e-02	7.8046	32.190176	0.001021	10.205077	3.457574	0.081469
 198	9.8500e-02	7.8543	32.468460	0.000697	6.971785	2.362105	0.055657
 199	9.9000e-02	7.8784	32.641884	0.000434	4.344736	1.472036	0.034685
 200	9.9500e-02	7.9265	32.811274	0.000424	4.243695	1.437803	0.033878
 201	1.0000e-01	7.9650	32.843538	0.000081	0.808323	0.273867	0.006453
 202	1.0050e-01	8.0164	33.214584	0.000930	9.295713	3.149473	0.074209
 203	1.0100e-01	8.0516	33.416238	0.000505	5.052018	1.711670	0.040331
 204	1.0150e-01	8.0918	33.553364	0.000344	3.435372	1.163936	0.027425
 205	1.0200e-01	8.1286	33.908276	0.000889	8.891552	3.012539	0.070983
 206	1.0250e-01	8.1736	34.041369	0.000333	3.334332	1.129702	0.026618
 207	1.0300e-01	8.2137	34.339818	0.000748	7.476987	2.533272	0.059690
 208	1.0350e-01	8.2570	34.456778	0.000293	2.930170	0.992769	0.023392
 209	1.0400e-01	8.2810	34.448712	-0.000020	-0.202081	-0.068467	-0.001613
 210	1.0450e-01	8.3404	34.771360	0.000808	8.083229	2.738672	0.064530
 211	1.0500e-01	8.3725	34.944783	0.000434	4.344736	1.472036	0.034685
 212	1.0550e-01	8.4046	35.170636	0.000566	5.658260	1.917070	0.045171
 213	1.0600e-01	8.4559	35.428755	0.000647	6.466583	2.190938	0.051624
 214	1.0650e-01	8.4896	35.561847	0.000333	3.334332	1.129702	0.026618
 215	1.0700e-01	8.5265	35.912727	0.000879	8.790511	2.978306	0.070176
 216	1.0750e-01	8.5714	36.098249	0.000465	4.647857	1.574736	0.037105
 217	1.0800e-01	8.6131	36.174878	0.000192	1.919767	0.650435	0.015326
 218	1.0850e-01	8.6564	36.344268	0.000424	4.243695	1.437803	0.033878
 219	1.0900e-01	8.6917	36.658850	0.000788	7.881148	2.670205	0.062916
 220	1.0950e-01	8.7286	36.848405	0.000475	4.748897	1.608970	0.037911
 221	1.1000e-01	8.7752	37.114590	0.000667	6.668664	2.259404	0.053237
 222	1.1050e-01	8.8040	37.275914	0.000404	4.041614	1.369336	0.032265
 223	1.1100e-01	8.8618	37.554198	0.000697	6.971785	2.362105	0.055657
 224	1.1150e-01	8.8891	37.953474	0.001000	10.002996	3.389107	0.079855
 225	1.1200e-01	8.9324	38.090600	0.000344	3.435372	1.163936	0.027425
 226	1.1250e-01	8.9725	38.312420	0.000556	5.557220	1.882837	0.044364
 227	1.1300e-01	9.0142	38.429380	0.000293	2.930170	0.992769	0.023392
 228	1.1350e-01	9.0463	38.719763	0.000727	7.274906	2.464805	0.058077
 229	1.1400e-01	9.0928	38.788326	0.000172	1.717686	0.581968	0.013713
 230	1.1450e-01	9.1249	38.953683	0.000414	4.142655	1.403569	0.033071
 231	1.1500e-01	9.1730	39.102907	0.000374	3.738493	1.266636	0.029845
 232	1.1550e-01	9.2099	39.369092	0.000667	6.668664	2.259404	0.053237
 233	1.1600e-01	9.2548	39.715938	0.000869	8.689471	2.944073	0.069369
 234	1.1650e-01	9.2933	39.953891	0.000596	5.961381	2.019771	0.047591
 235	1.1700e-01	9.3286	40.042619	0.000222	2.222888	0.753135	0.017746
 236	1.1750e-01	9.3703	40.216043	0.000434	4.344736	1.472036	0.034685
 237	1.1800e-01	9.4104	40.522558	0.000768	7.679068	2.601738	0.061303
 238	1.1850e-01	9.4473	40.712114	0.000475	4.748897	1.608970	0.037911
 239	1.1900e-01	9.4890	41.071060	0.000899	8.992592	3.046773	0.071789
 240	1.1950e-01	9.5307	41.034762	-0.000091	-0.909363	-0.308101	-0.007260
 241	1.2000e-01	9.5725	41.179953	0.000364	3.637453	1.232402	0.029038
 242	1.2050e-01	9.6222	41.486469	0.000768	7.679068	2.601738	0.061303
 243	1.2100e-01	9.6543	41.571164	0.000212	2.121848	0.718901	0.016939
 244	1.2150e-01	9.6864	41.897845	0.000818	8.184269	2.772906	0.065336
 245	1.2200e-01	9.7329	42.188228	0.000727	7.274906	2.464805	0.058077
 246	1.2250e-01	9.7746	42.430214	0.000606	6.062422	2.054004	0.048397
 247	1.2300e-01	9.8179	42.373750	-0.000141	-1.414565	-0.479268	-0.011293
 248	1.2350e-01	9.8580	42.510876	0.000344	3.435372	1.163936	0.027425
 249	1.2400e-01	9.8885	42.841590	0.000829	8.285310	2.807139	0.066143
 250	1.2450e-01	9.9270	43.043245	0.000505	5.052018	1.711670	0.040331
 251	1.2500e-01	9.9655	43.277165	0.000586	5.860341	1.985537	0.046784
 252	1.2550e-01	10.0088	43.599812	0.000808	8.083229	2.738672	0.064530
 253	1.2600e-01	10.0569	43.712739	0.000283	2.829130	0.958535	0.022585
 254	1.2650e-01	10.1035	43.978924	0.000667	6.668664	2.259404	0.053237
 255	1.2700e-01	10.1323	44.039420	0.000152	1.515605	0.513501	0.012099
 256	1.2750e-01	10.1724	44.358035	0.000798	7.982189	2.704439	0.063723
 257	1.2800e-01	10.2093	44.390300	0.000081	0.808323	0.273867	0.006453
 258	1.2850e-01	10.2478	44.708915	0.000798	7.982189	2.704439	0.063723
 259	1.2900e-01	10.3008	45.067860	0.000899	8.992592	3.046773	0.071789
 260	1.2950e-01	10.3345	45.112224	0.000111	1.111444	0.376567	0.008873
 261	1.3000e-01	10.3778	45.362277	0.000626	6.264502	2.122471	0.050010
 262	1.3050e-01	10.4179	45.414707	0.000131	1.313525	0.445034	0.010486
 263	1.3100e-01	10.4580	45.713156	0.000748	7.476987	2.533272	0.059690
 264	1.3150e-01	10.4965	46.043870	0.000829	8.285310	2.807139	0.066143
 265	1.3200e-01	10.5350	46.180996	0.000344	3.435372	1.163936	0.027425
 266	1.3250e-01	10.5751	46.584305	0.001010	10.104036	3.423340	0.080662
 267	1.3300e-01	10.6152	46.495577	-0.000222	-2.222888	-0.753135	-0.017746
 268	1.3350e-01	10.6585	46.681100	0.000465	4.647857	1.574736	0.037105
 269	1.3400e-01	10.7018	47.100542	0.001051	10.508198	3.560274	0.083888
 270	1.3450e-01	10.7307	47.350594	0.000626	6.264502	2.122471	0.050010
 271	1.3500e-01	10.7724	47.544183	0.000485	4.849937	1.643203	0.038718
 272	1.3550e-01	10.8061	47.677275	0.000333	3.334332	1.129702	0.026618
 273	1.3600e-01	10.8430	47.963625	0.000717	7.173866	2.430571	0.057270
 274	1.3650e-01	10.8863	48.233843	0.000677	6.769704	2.293638	0.054044
 275	1.3700e-01	10.9248	48.451630	0.000546	5.456180	1.848604	0.043557
 276	1.3750e-01	10.9730	48.504060	0.000131	1.313525	0.445034	0.010486
 277	1.3800e-01	11.0082	48.556491	0.000131	1.313525	0.445034	0.010486
 278	1.3850e-01	11.0564	48.959800	0.001010	10.104036	3.423340	0.080662
 279	1.3900e-01	11.0917	49.217919	0.000647	6.466583	2.190938	0.051624
 280	1.3950e-01	11.1334	49.326812	0.000273	2.728090	0.924302	0.021779
 281	1.4000e-01	11.1799	49.536534	0.000525	5.254099	1.780137	0.041944
 282	1.4050e-01	11.2088	49.851115	0.000788	7.881148	2.670205	0.062916
 283	1.4100e-01	11.2569	49.863215	0.000030	0.303121	0.102700	0.002420
 284	1.4150e-01	11.2954	50.028572	0.000414	4.142655	1.403569	0.033071
 285	1.4200e-01	11.3323	50.270558	0.000606	6.062422	2.054004	0.048397
 286	1.4250e-01	11.3676	50.536742	0.000667	6.668664	2.259404	0.053237
 287	1.4300e-01	11.4125	50.669834	0.000333	3.334332	1.129702	0.026618
 288	1.4350e-01	11.4542	50.936019	0.000667	6.668664	2.259404	0.053237
 289	1.4400e-01	11.4927	51.178005	0.000606	6.062422	2.054004	0.048397
 290	1.4450e-01	11.5312	51.496620	0.000798	7.982189	2.704439	0.063723
 291	1.4500e-01	11.5713	51.734572	0.000596	5.961381	2.019771	0.047591
 292	1.4550e-01	11.6146	51.742639	0.000020	0.202081	0.068467	0.001613
 293	1.4600e-01	11.6483	51.996724	0.000637	6.365543	2.156704	0.050817
 294	1.4650e-01	11.6981	52.129816	0.000333	3.334332	1.129702	0.026618
 295	1.4700e-01	11.7302	52.315339	0.000465	4.647857	1.574736	0.037105
 296	1.4750e-01	11.7735	52.383901	0.000172	1.717686	0.581968	0.013713
 297	1.4800e-01	11.8136	52.775112	0.000980	9.800915	3.320640	0.078242
 298	1.4850e-01	11.8569	52.944502	0.000424	4.243695	1.437803	0.033878
 299	1.4900e-01	11.8922	53.109859	0.000414	4.142655	1.403569	0.033071
 300	1.4950e-01	11.9339	53.311514	0.000505	5.052018	1.711670	0.040331
 301	1.5000e-01	11.9772	53.622062	0.000778	7.780108	2.635972	0.062110
 302	1.5050e-01	12.0125	53.839850	0.000546	5.456180	1.848604	0.043557
 303	1.5100e-01	12.0542	54.021339	0.000455	4.546816	1.540503	0.036298
 304	1.5150e-01	12.0943	54.097968	0.000192	1.919767	0.650435	0.015326
 305	1.5200e-01	12.1360	54.380285	0.000707	7.072825	2.396338	0.056463
 306	1.5250e-01	12.1713	54.638403	0.000647	6.466583	2.190938	0.051624
 307	1.5300e-01	12.2146	54.977184	0.000849	8.487390	2.875606	0.067756
 308	1.5350e-01	12.2467	55.045746	0.000172	1.717686	0.581968	0.013713
 309	1.5400e-01	12.2932	55.303865	0.000647	6.466583	2.190938	0.051624
 310	1.5450e-01	12.3301	55.553917	0.000626	6.264502	2.122471	0.050010
 311	1.5500e-01	12.3879	55.553917	0.000000	0.000000	0.000000	0.000000
 312	1.5550e-01	12.4152	55.791870	0.000596	5.961381	2.019771	0.047591
 313	1.5600e-01	12.4505	56.082253	0.000727	7.274906	2.464805	0.058077
 314	1.5650e-01	12.4922	56.356503	0.000687	6.870745	2.327871	0.054850
 315	1.5700e-01	12.5258	56.433132	0.000192	1.919767	0.650435	0.015326
 316	1.5750e-01	12.5740	56.658986	0.000566	5.658260	1.917070	0.045171
 317	1.5800e-01	12.6077	56.824343	0.000414	4.142655	1.403569	0.033071
 318	1.5850e-01	12.6462	56.969534	0.000364	3.637453	1.232402	0.029038
 319	1.5900e-01	12.6991	57.352679	0.000960	9.598834	3.252173	0.076629
 320	1.5950e-01	12.7296	57.546267	0.000485	4.849937	1.643203	0.038718
 321	1.6000e-01	12.7745	57.546267	0.000000	0.000000	0.000000	0.000000
 322	1.6050e-01	12.8130	57.820518	0.000687	6.870745	2.327871	0.054850
 323	1.6100e-01	12.8595	58.034272	0.000536	5.355139	1.814370	0.042751
 324	1.6150e-01	12.8948	58.417417	0.000960	9.598834	3.252173	0.076629
 325	1.6200e-01	12.9333	58.360953	-0.000141	-1.414565	-0.479268	-0.011293
 326	1.6250e-01	12.9718	58.627138	0.000667	6.668664	2.259404	0.053237
 327	1.6300e-01	12.9991	58.893322	0.000667	6.668664	2.259404	0.053237
 328	1.6350e-01	13.0440	58.933653	0.000101	1.010404	0.342334	0.008066
 329	1.6400e-01	13.0970	59.127242	0.000485	4.849937	1.643203	0.038718
 330	1.6450e-01	13.1290	59.409559	0.000707	7.072825	2.396338	0.056463
 331	1.6500e-01	13.1611	59.792703	0.000960	9.598834	3.252173	0.076629
 332	1.6550e-01	13.2044	59.816902	0.000061	0.606242	0.205400	0.004840
 333	1.6600e-01	13.2510	59.954027	0.000344	3.435372	1.163936	0.027425
 334	1.6650e-01	13.2847	60.353304	0.001000	10.002996	3.389107	0.079855
 335	1.6700e-01	13.3232	60.381536	0.000071	0.707283	0.239634	0.005646
 336	1.6750e-01	13.3761	60.708217	0.000818	8.184269	2.772906	0.065336
 337	1.6800e-01	13.4098	60.897772	0.000475	4.748897	1.608970	0.037911
 338	1.6850e-01	13.4419	61.200255	0.000758	7.578027	2.567505	0.060496
 339	1.6900e-01	13.4948	61.293016	0.000232	2.323928	0.787368	0.018552
 340	1.6950e-01	13.5317	61.551134	0.000647	6.466583	2.190938	0.051624
 341	1.7000e-01	13.5718	61.547101	-0.000010	-0.101040	-0.034233	-0.000807
 342	1.7050e-01	13.6087	61.918146	0.000930	9.295713	3.149473	0.074209
 343	1.7100e-01	13.6504	62.063338	0.000364	3.637453	1.232402	0.029038
 344	1.7150e-01	13.6857	62.232728	0.000424	4.243695	1.437803	0.033878
 345	1.7200e-01	13.7242	62.563442	0.000829	8.285310	2.807139	0.066143
 346	1.7250e-01	13.7739	62.531177	-0.000081	-0.808323	-0.273867	-0.006453
 347	1.7300e-01	13.8140	62.886090	0.000889	8.891552	3.012539	0.070983
 348	1.7350e-01	13.8509	63.180506	0.000738	7.375946	2.499038	0.058883
 349	1.7400e-01	13.8846	63.309565	0.000323	3.233292	1.095469	0.025812
 350	1.7450e-01	13.9376	63.551551	0.000606	6.062422	2.054004	0.048397
 351	1.7500e-01	13.9648	63.712875	0.000404	4.041614	1.369336	0.032265
 352	1.7550e-01	14.0146	63.850001	0.000344	3.435372	1.163936	0.027425
 353	1.7600e-01	14.0563	63.910497	0.000152	1.515605	0.513501	0.012099
 354	1.7650e-01	14.0884	64.390436	0.001202	12.023803	4.073775	0.095988
 355	1.7700e-01	14.1237	64.531594	0.000354	3.536413	1.198169	0.028232
 356	1.7750e-01	14.1734	64.632422	0.000253	2.526009	0.855835	0.020165
 357	1.7800e-01	14.2119	64.850209	0.000546	5.456180	1.848604	0.043557
 358	1.7850e-01	14.2568	64.963136	0.000283	2.829130	0.958535	0.022585
 359	1.7900e-01	14.2905	65.249486	0.000717	7.173866	2.430571	0.057270
 360	1.7950e-01	14.3258	65.600365	0.000879	8.790511	2.978306	0.070176
 361	1.8000e-01	14.3803	65.672961	0.000182	1.818727	0.616201	0.014519
 362	1.8050e-01	14.4140	65.890748	0.000546	5.456180	1.848604	0.043557
 363	1.8100e-01	14.4397	66.116602	0.000566	5.658260	1.917070	0.045171
 364	1.8150e-01	14.4991	66.181132	0.000162	1.616646	0.547734	0.012906
 365	1.8200e-01	14.5263	66.423117	0.000606	6.062422	2.054004	0.048397
 366	1.8250e-01	14.5809	66.548143	0.000313	3.132251	1.061235	0.025005
 367	1.8300e-01	14.6146	66.903056	0.000889	8.891552	3.012539	0.070983
 368	1.8350e-01	14.6482	67.007917	0.000263	2.627049	0.890068	0.020972
 369	1.8400e-01	14.6884	67.221671	0.000536	5.355139	1.814370	0.042751
 370	1.8450e-01	14.7365	67.403160	0.000455	4.546816	1.540503	0.036298
 371	1.8500e-01	14.7718	67.588683	0.000465	4.647857	1.574736	0.037105
 372	1.8550e-01	14.8135	67.996026	0.001021	10.205077	3.457574	0.081469
 373	1.8600e-01	14.8568	68.040390	0.000111	1.111444	0.376567	0.008873
 374	1.8650e-01	14.8953	68.145251	0.000263	2.627049	0.890068	0.020972
 375	1.8700e-01	14.9242	68.479998	0.000839	8.386350	2.841372	0.066949
 376	1.8750e-01	14.9675	68.742149	0.000657	6.567624	2.225171	0.052430
 377	1.8800e-01	15.0060	68.855076	0.000283	2.829130	0.958535	0.022585
 378	1.8850e-01	15.0477	69.181757	0.000818	8.184269	2.772906	0.065336
 379	1.8900e-01	15.0814	69.330982	0.000374	3.738493	1.266636	0.029845
 380	1.8950e-01	15.1327	69.456008	0.000313	3.132251	1.061235	0.025005
 381	1.9000e-01	15.1648	69.681861	0.000566	5.658260	1.917070	0.045171
 382	1.9050e-01	15.2161	69.948046	0.000667	6.668664	2.259404	0.053237
 383	1.9100e-01	15.2402	70.161800	0.000536	5.355139	1.814370	0.042751
 384	1.9150e-01	15.2883	70.165833	0.000010	0.101040	0.034233	0.000807
 385	1.9200e-01	15.3349	70.403786	0.000596	5.961381	2.019771	0.047591
 386	1.9250e-01	15.3718	70.593341	0.000475	4.748897	1.608970	0.037911
 387	1.9300e-01	15.4151	70.726434	0.000333	3.334332	1.129702	0.026618
 388	1.9350e-01	15.4439	71.170074	0.001111	11.114440	3.765674	0.088728
 389	1.9400e-01	15.4825	71.371729	0.000505	5.052018	1.711670	0.040331
 390	1.9450e-01	15.5354	71.537086	0.000414	4.142655	1.403569	0.033071
 391	1.9500e-01	15.5643	71.480623	-0.000141	-1.414565	-0.479268	-0.011293
 392	1.9550e-01	15.6012	71.851668	0.000930	9.295713	3.149473	0.074209
 393	1.9600e-01	15.6557	71.948463	0.000242	2.424969	0.821602	0.019359
 394	1.9650e-01	15.6910	72.242879	0.000738	7.375946	2.499038	0.058883
 395	1.9700e-01	15.7391	72.468732	0.000566	5.658260	1.917070	0.045171
 396	1.9750e-01	15.7712	72.678453	0.000525	5.254099	1.780137	0.041944
 397	1.9800e-01	15.8033	72.791380	0.000283	2.829130	0.958535	0.022585
 398	1.9850e-01	15.8450	72.892208	0.000253	2.526009	0.855835	0.020165
 399	1.9900e-01	15.8931	73.033366	0.000354	3.536413	1.198169	0.028232
 400	1.9950e-01	15.9332	73.489106	0.001142	11.417561	3.868374	0.091148
 401	2.0000e-01	15.9701	73.485073	-0.000010	-0.101040	-0.034233	-0.000807
 402	2.0050e-01	16.0086	73.755291	0.000677	6.769704	2.293638	0.054044
 403	2.0100e-01	16.0552	74.126336	0.000930	9.295713	3.149473	0.074209
 404	2.0150e-01	16.0937	74.239263	0.000283	2.829130	0.958535	0.022585
 405	2.0200e-01	16.1322	74.594175	0.000889	8.891552	3.012539	0.070983
 406	2.0250e-01	16.1707	74.582076	-0.000030	-0.303121	-0.102700	-0.002420
 407	2.0300e-01	16.2076	74.815996	0.000586	5.860341	1.985537	0.046784
 408	2.0350e-01	16.2557	74.727267	-0.000222	-2.222888	-0.753135	-0.017746
 409	2.0400e-01	16.3038	75.009584	0.000707	7.072825	2.396338	0.056463
 410	2.0450e-01	16.3359	75.404828	0.000990	9.901955	3.354873	0.079049
 411	2.0500e-01	16.3728	75.574218	0.000424	4.243695	1.437803	0.033878
 412	2.0550e-01	16.4129	75.715377	0.000354	3.536413	1.198169	0.028232
 413	2.0600e-01	16.4434	75.719410	0.000010	0.101040	0.034233	0.000807
 414	2.0650e-01	16.4899	76.122720	0.001010	10.104036	3.423340	0.080662
 415	2.0700e-01	16.5284	76.183216	0.000152	1.515605	0.513501	0.012099
 416	2.0750e-01	16.5717	76.489732	0.000768	7.679068	2.601738	0.061303
 417	2.0800e-01	16.6022	76.840611	0.000879	8.790511	2.978306	0.070176
 418	2.0850e-01	16.6519	76.731717	-0.000273	-2.728090	-0.924302	-0.021779
 419	2.0900e-01	16.6920	77.046299	0.000788	7.881148	2.670205	0.062916
 420	2.0950e-01	16.7273	77.187458	0.000354	3.536413	1.198169	0.028232
 421	2.1000e-01	16.7690	77.409278	0.000556	5.557220	1.882837	0.044364
 422	2.1050e-01	16.8124	77.602867	0.000485	4.849937	1.643203	0.038718
 423	2.1100e-01	16.8509	77.691595	0.000222	2.222888	0.753135	0.017746
 424	2.1150e-01	16.8878	78.066673	0.000940	9.396754	3.183706	0.075016
 425	2.1200e-01	16.9295	78.308659	0.000606	6.062422	2.054004	0.048397
 426	2.1250e-01	16.9664	78.445784	0.000344	3.435372	1.163936	0.027425
 427	2.1300e-01	17.0065	78.643406	0.000495	4.950978	1.677437	0.039524
 428	2.1350e-01	17.0514	78.820863	0.000445	4.445776	1.506270	0.035491
 429	2.1400e-01	17.0947	79.034617	0.000536	5.355139	1.814370	0.042751
 430	2.1450e-01	17.1284	79.353232	0.000798	7.982189	2.704439	0.063723
 431	2.1500e-01	17.1717	79.280636	-0.000182	-1.818727	-0.616201	-0.014519
 432	2.1550e-01	17.2086	79.736376	0.001142	11.417561	3.868374	0.091148
 433	2.1600e-01	17.2615	79.950130	0.000536	5.355139	1.814370	0.042751
 434	2.1650e-01	17.2904	79.861402	-0.000222	-2.222888	-0.753135	-0.017746
 435	2.1700e-01	17.3321	80.236480	0.000940	9.396754	3.183706	0.075016
 436	2.1750e-01	17.3690	80.385705	0.000374	3.738493	1.266636	0.029845
 437	2.1800e-01	17.4139	80.381672	-0.000010	-0.101040	-0.034233	-0.000807
 438	2.1850e-01	17.4541	80.668022	0.000717	7.173866	2.430571	0.057270
 439	2.1900e-01	17.4926	80.966471	0.000748	7.476987	2.533272	0.059690
 440	2.1950e-01	17.5278	81.063265	0.000242	2.424969	0.821602	0.019359
 441	2.2000e-01	17.5696	81.285086	0.000556	5.557220	1.882837	0.044364
 442	2.2050e-01	17.6097	81.635965	0.000879	8.790511	2.978306	0.070176
 443	2.2100e-01	17.6546	81.845686	0.000525	5.254099	1.780137	0.041944
 444	2.2150e-01	17.6915	81.906183	0.000152	1.515605	0.513501	0.012099
 445	2.2200e-01	17.7300	82.055408	0.000374	3.738493	1.266636	0.029845
 446	2.2250e-01	17.7733	82.216732	0.000404	4.041614	1.369336	0.032265
 447	2.2300e-01	17.8166	82.656339	0.001101	11.013399	3.731441	0.087922
 448	2.2350e-01	17.8599	82.579710	-0.000192	-1.919767	-0.650435	-0.015326
 449	2.2400e-01	17.8888	82.853961	0.000687	6.870745	2.327871	0.054850
 450	2.2450e-01	17.9337	82.882193	0.000071	0.707283	0.239634	0.005646
 451	2.2500e-01	17.9722	83.099980	0.000546	5.456180	1.848604	0.043557
 452	2.2550e-01	18.0075	83.454893	0.000889	8.891552	3.012539	0.070983
 453	2.2600e-01	18.0556	83.547654	0.000232	2.323928	0.787368	0.018552
 454	2.2650e-01	18.0957	83.942898	0.000990	9.901955	3.354873	0.079049
 455	2.2700e-01	18.1278	83.858203	-0.000212	-2.121848	-0.718901	-0.016939
 456	2.2750e-01	18.1760	84.265546	0.001021	10.205077	3.457574	0.081469
 457	2.2800e-01	18.2161	84.563995	0.000748	7.476987	2.533272	0.059690
 458	2.2850e-01	18.2498	84.479300	-0.000212	-2.121848	-0.718901	-0.016939
 459	2.2900e-01	18.2979	84.531730	0.000131	1.313525	0.445034	0.010486
 460	2.2950e-01	18.3332	84.741451	0.000525	5.254099	1.780137	0.041944
 461	2.3000e-01	18.3733	85.027801	0.000717	7.173866	2.430571	0.057270
 462	2.3050e-01	18.4070	85.229456	0.000505	5.052018	1.711670	0.040331
 463	2.3100e-01	18.4567	85.773925	0.001364	13.640449	4.621509	0.108894
 464	2.3150e-01	18.4936	85.911050	0.000344	3.435372	1.163936	0.027425
 465	2.3200e-01	18.5337	85.959447	0.000121	1.212484	0.410801	0.009679
 466	2.3250e-01	18.5722	85.987679	0.000071	0.707283	0.239634	0.005646
 467	2.3300e-01	18.6155	86.314360	0.000818	8.184269	2.772906	0.065336
 468	2.3350e-01	18.6508	86.491816	0.000445	4.445776	1.506270	0.035491
 469	2.3400e-01	18.6909	86.443419	-0.000121	-1.212484	-0.410801	-0.009679
 470	2.3450e-01	18.7342	86.786232	0.000859	8.588431	2.909839	0.068563
 471	2.3500e-01	18.7711	87.024185	0.000596	5.961381	2.019771	0.047591
 472	2.3550e-01	18.8128	87.229873	0.000515	5.153058	1.745903	0.041138
 473	2.3600e-01	18.8562	87.552521	0.000808	8.083229	2.738672	0.064530
 474	2.3650e-01	18.8930	87.661415	0.000273	2.728090	0.924302	0.021779
 475	2.3700e-01	18.9267	87.846937	0.000465	4.647857	1.574736	0.037105
 476	2.3750e-01	18.9652	87.959864	0.000283	2.829130	0.958535	0.022585
 477	2.3800e-01	19.0166	88.161519	0.000505	5.052018	1.711670	0.040331
 478	2.3850e-01	19.0503	88.270413	0.000273	2.728090	0.924302	0.021779
 479	2.3900e-01	19.0936	88.621292	0.000879	8.790511	2.978306	0.070176
 480	2.3950e-01	19.1417	88.798748	0.000445	4.445776	1.506270	0.035491
 481	2.4000e-01	19.1594	88.738252	-0.000152	-1.515605	-0.513501	-0.012099
 482	2.4050e-01	19.2187	89.093165	0.000889	8.891552	3.012539	0.070983
 483	2.4100e-01	19.2460	89.068966	-0.000061	-0.606242	-0.205400	-0.004840
 484	2.4150e-01	19.2925	89.375482	0.000768	7.679068	2.601738	0.061303
 485	2.4200e-01	19.3246	89.673931	0.000748	7.476987	2.533272	0.059690
 486	2.4250e-01	19.3791	90.165969	0.001233	12.326924	4.176475	0.098408
 487	2.4300e-01	19.4112	90.129671	-0.000091	-0.909363	-0.308101	-0.007260
 488	2.4350e-01	19.4465	90.133704	0.000010	0.101040	0.034233	0.000807
 489	2.4400e-01	19.4946	90.424087	0.000727	7.274906	2.464805	0.058077
 490	2.4450e-01	19.5347	90.645908	0.000556	5.557220	1.882837	0.044364
 491	2.4500e-01	19.5652	90.762867	0.000293	2.930170	0.992769	0.023392
 492	2.4550e-01	19.6069	91.053251	0.000727	7.274906	2.464805	0.058077
 493	2.4600e-01	19.6535	91.077449	0.000061	0.606242	0.205400	0.004840
 494	2.4650e-01	19.6952	91.299270	0.000556	5.557220	1.882837	0.044364
 495	2.4700e-01	19.7273	91.581587	0.000707	7.072825	2.396338	0.056463
 496	2.4750e-01	19.7690	91.831639	0.000626	6.264502	2.122471	0.050010
 497	2.4800e-01	19.8155	91.896168	0.000162	1.616646	0.547734	0.012906
 498	2.4850e-01	19.8476	92.126055	0.000576	5.759301	1.951304	0.045977
 499	2.4900e-01	19.8893	92.243015	0.000293	2.930170	0.992769	0.023392
 500	2.4950e-01	19.9294	92.485001	0.000606	6.062422	2.054004	0.048397
 501	2.5000e-01	19.9711	92.589861	0.000263	2.627049	0.890068	0.020972
 502	2.5050e-01	19.9727	92.674556	0.000212	2.121848	0.718901	0.016939
 503	2.5100e-01	19.9454	92.642291	0.000081	0.808323	0.273867	-0.006453
 504	2.5150e-01	19.9214	92.460802	0.000455	4.546816	1.540503	-0.036298
 505	2.5200e-01	19.8764	92.218816	0.000606	6.062422	2.054004	-0.048397
 506	2.5250e-01	19.8395	92.186551	0.000081	0.808323	0.273867	-0.006453
 507	2.5300e-01	19.8139	92.029260	0.000394	3.940574	1.335103	-0.031458
 508	2.5350e-01	19.7641	91.908267	0.000303	3.031211	1.027002	-0.024199
 509	2.5400e-01	19.7192	91.746944	0.000404	4.041614	1.369336	-0.032265
 510	2.5450e-01	19.6791	91.460594	0.000717	7.173866	2.430571	-0.057270
 511	2.5500e-01	19.6438	91.504958	-0.000111	-1.111444	-0.376567	0.008873
 512	2.5550e-01	19.5909	91.392031	0.000283	2.829130	0.958535	-0.022585
 513	2.5600e-01	19.5540	91.262972	0.000323	3.233292	1.095469	-0.025812
 514	2.5650e-01	19.5251	90.940324	0.000808	8.083229	2.738672	-0.064530
 515	2.5700e-01	19.4802	90.746735	0.000485	4.849937	1.643203	-0.038718
 516	2.5750e-01	19.4385	90.847563	-0.000253	-2.526009	-0.855835	0.020165
 517	2.5800e-01	19.4000	90.420054	0.001071	10.710278	3.628741	-0.085502
 518	2.5850e-01	19.3631	90.500716	-0.000202	-2.020807	-0.684668	0.016132
 519	2.5900e-01	19.3150	90.464418	0.000091	0.909363	0.308101	-0.007260
 520	2.5950e-01	19.2797	90.157903	0.000768	7.679068	2.601738	-0.061303
 521	2.6000e-01	19.2412	89.928016	0.000576	5.759301	1.951304	-0.045977
 522	2.6050e-01	19.1962	89.786858	0.000354	3.536413	1.198169	-0.028232
 523	2.6100e-01	19.1577	89.911884	-0.000313	-3.132251	-1.061235	0.025005
 524	2.6150e-01	19.1144	89.548905	0.000909	9.093633	3.081006	-0.072596
 525	2.6200e-01	19.0807	89.407746	0.000354	3.536413	1.198169	-0.028232
 526	2.6250e-01	19.0406	89.294820	0.000283	2.829130	0.958535	-0.022585
 527	2.6300e-01	19.0037	88.883444	0.001031	10.306117	3.491807	-0.082275
 528	2.6350e-01	18.9620	88.887477	-0.000010	-0.101040	-0.034233	0.000807
 529	2.6400e-01	18.9155	88.810848	0.000192	1.919767	0.650435	-0.015326
 530	2.6450e-01	18.8770	88.637425	0.000434	4.344736	1.472036	-0.034685
 531	2.6500e-01	18.8353	88.431737	0.000515	5.153058	1.745903	-0.041138
 532	2.6550e-01	18.8096	88.165552	0.000667	6.668664	2.259404	-0.053237
 533	2.6600e-01	18.7551	87.971963	0.000485	4.849937	1.643203	-0.038718
 534	2.6650e-01	18.7246	87.931632	0.000101	1.010404	0.342334	-0.008066
 535	2.6700e-01	18.6829	87.774341	0.000394	3.940574	1.335103	-0.031458
 536	2.6750e-01	18.6412	87.568653	0.000515	5.153058	1.745903	-0.041138
 537	2.6800e-01	18.5931	87.532356	0.000091	0.909363	0.308101	-0.007260
 538	2.6850e-01	18.5594	87.326667	0.000515	5.153058	1.745903	-0.041138
 539	2.6900e-01	18.5241	87.068549	0.000647	6.466583	2.190938	-0.051624
 540	2.6950e-01	18.4808	87.016119	0.000131	1.313525	0.445034	-0.010486
 541	2.7000e-01	18.4471	86.717670	0.000748	7.476987	2.533272	-0.059690
 542	2.7050e-01	18.4070	86.604743	0.000283	2.829130	0.958535	-0.022585
 543	2.7100e-01	18.3588	86.528114	0.000192	1.919767	0.650435	-0.015326
 544	2.7150e-01	18.3235	86.181267	0.000869	8.689471	2.944073	-0.069369
 545	2.7200e-01	18.2706	86.007844	0.000434	4.344736	1.472036	-0.034685
 546	2.7250e-01	18.2433	86.019944	-0.000030	-0.303121	-0.102700	0.002420
 547	2.7300e-01	18.1968	85.761825	0.000647	6.466583	2.190938	-0.051624
 548	2.7350e-01	18.1647	85.709395	0.000131	1.313525	0.445034	-0.010486
 549	2.7400e-01	18.1150	85.588402	0.000303	3.031211	1.027002	-0.024199
 550	2.7450e-01	18.0877	85.217357	0.000930	9.295713	3.149473	-0.074209
 551	2.7500e-01	18.0428	84.999570	0.000546	5.456180	1.848604	-0.043557
 552	2.7550e-01	17.9931	85.060066	-0.000152	-1.515605	-0.513501	0.012099
 553	2.7600e-01	17.9594	84.910841	0.000374	3.738493	1.266636	-0.029845
 554	2.7650e-01	17.9225	84.830179	0.000202	2.020807	0.684668	-0.016132
 555	2.7700e-01	17.8776	84.644657	0.000465	4.647857	1.574736	-0.037105
 556	2.7750e-01	17.8423	84.402671	0.000606	6.062422	2.054004	-0.048397
 557	2.7800e-01	17.7974	84.249413	0.000384	3.839534	1.300869	-0.030652
 558	2.7850e-01	17.7589	83.934832	0.000788	7.881148	2.670205	-0.062916
 559	2.7900e-01	17.7155	83.834004	0.000253	2.526009	0.855835	-0.020165
 560	2.7950e-01	17.6802	83.511356	0.000808	8.083229	2.738672	-0.064530
 561	2.8000e-01	17.6369	83.479091	0.000081	0.808323	0.273867	-0.006453
 562	2.8050e-01	17.5952	83.648482	-0.000424	-4.243695	-1.437803	0.033878
 563	2.8100e-01	17.5567	83.309701	0.000849	8.487390	2.875606	-0.067756
 564	2.8150e-01	17.5198	83.039484	0.000677	6.769704	2.293638	-0.054044
 565	2.8200e-01	17.4845	82.906391	0.000333	3.334332	1.129702	-0.026618
 566	2.8250e-01	17.4412	82.785398	0.000303	3.031211	1.027002	-0.024199
 567	2.8300e-01	17.3915	82.361923	0.001061	10.609238	3.594507	-0.084695
 568	2.8350e-01	17.3546	82.341758	0.000051	0.505202	0.171167	-0.004033
 569	2.8400e-01	17.3209	82.297394	0.000111	1.111444	0.376567	-0.008873
 570	2.8450e-01	17.2808	82.172367	0.000313	3.132251	1.061235	-0.025005
 571	2.8500e-01	17.2311	81.938448	0.000586	5.860341	1.985537	-0.046784
 572	2.8550e-01	17.1990	81.777124	0.000404	4.041614	1.369336	-0.032265
 573	2.8600e-01	17.1605	81.494807	0.000707	7.072825	2.396338	-0.056463
 574	2.8650e-01	17.1204	81.381880	0.000283	2.829130	0.958535	-0.022585
 575	2.8700e-01	17.0803	81.188291	0.000485	4.849937	1.643203	-0.038718
 576	2.8750e-01	17.0370	81.103596	0.000212	2.121848	0.718901	-0.016939
 577	2.8800e-01	16.9936	80.954372	0.000374	3.738493	1.266636	-0.029845
 578	2.8850e-01	16.9551	80.817246	0.000344	3.435372	1.163936	-0.027425
 579	2.8900e-01	16.9150	80.595426	0.000556	5.557220	1.882837	-0.044364
 580	2.8950e-01	16.8862	80.474433	0.000303	3.031211	1.027002	-0.024199
 581	2.9000e-01	16.8412	80.196149	0.000697	6.971785	2.362105	-0.055657
 582	2.9050e-01	16.7995	80.147752	0.000121	1.212484	0.410801	-0.009679
 583	2.9100e-01	16.7578	79.885601	0.000657	6.567624	2.225171	-0.052430
 584	2.9150e-01	16.7257	79.530688	0.000889	8.891552	3.012539	-0.070983
 585	2.9200e-01	16.6776	79.474225	0.000141	1.414565	0.479268	-0.011293
 586	2.9250e-01	16.6343	79.187875	0.000717	7.173866	2.430571	-0.057270
 587	2.9300e-01	16.6006	79.058815	0.000323	3.233292	1.095469	-0.025812
 588	2.9350e-01	16.5541	78.978153	0.000202	2.020807	0.684668	-0.016132
 589	2.9400e-01	16.5204	78.732134	0.000616	6.163462	2.088237	-0.049204
 590	2.9450e-01	16.4787	78.607108	0.000313	3.132251	1.061235	-0.025005
 591	2.9500e-01	16.4434	78.554678	0.000131	1.313525	0.445034	-0.010486
 592	2.9550e-01	16.3969	78.276394	0.000697	6.971785	2.362105	-0.055657
 593	2.9600e-01	16.3600	78.127170	0.000374	3.738493	1.266636	-0.029845
 594	2.9650e-01	16.3102	77.885184	0.000606	6.062422	2.054004	-0.048397
 595	2.9700e-01	16.2862	77.647231	0.000596	5.961381	2.019771	-0.047591
 596	2.9750e-01	16.2380	77.485907	0.000404	4.041614	1.369336	-0.032265
 597	2.9800e-01	16.1979	77.260053	0.000566	5.658260	1.917070	-0.045171
 598	2.9850e-01	16.1562	77.401212	-0.000354	-3.536413	-1.198169	0.028232
 599	2.9900e-01	16.1274	77.090663	0.000778	7.780108	2.635972	-0.062110
 600	2.9950e-01	16.0824	76.901108	0.000475	4.748897	1.608970	-0.037911
 601	3.0000e-01	16.0375	76.626857	0.000687	6.870745	2.327871	-0.054850
 602	3.0050e-01	16.0054	76.296143	0.000829	8.285310	2.807139	-0.066143
 603	3.0100e-01	15.9685	76.219514	0.000192	1.919767	0.650435	-0.015326
 604	3.0150e-01	15.9156	76.328408	-0.000273	-2.728090	-0.924302	0.021779
 605	3.0200e-01	15.8755	76.102554	0.000566	5.658260	1.917070	-0.045171
 606	3.0250e-01	15.8258	76.042058	0.000152	1.515605	0.513501	-0.012099
 607	3.0300e-01	15.7905	75.828303	0.000536	5.355139	1.814370	-0.042751
 608	3.0350e-01	15.7632	75.578251	0.000626	6.264502	2.122471	-0.050010
 609	3.0400e-01	15.7199	75.473391	0.000263	2.627049	0.890068	-0.020972
 610	3.0450e-01	15.6766	75.231405	0.000606	6.062422	2.054004	-0.048397
 611	3.0500e-01	15.6332	75.154776	0.000192	1.919767	0.650435	-0.015326
 612	3.0550e-01	15.5947	74.779698	0.000940	9.396754	3.183706	-0.075016
 613	3.0600e-01	15.5611	74.630473	0.000374	3.738493	1.266636	-0.029845
 614	3.0650e-01	15.5161	74.465116	0.000414	4.142655	1.403569	-0.033071
 615	3.0700e-01	15.4792	74.569977	-0.000263	-2.627049	-0.890068	0.020972
 616	3.0750e-01	15.4343	74.372355	0.000495	4.950978	1.677437	-0.039524
 617	3.0800e-01	15.4006	74.061806	0.000778	7.780108	2.635972	-0.062110
 618	3.0850e-01	15.3557	73.880317	0.000455	4.546816	1.540503	-0.036298
 619	3.0900e-01	15.3156	73.811754	0.000172	1.717686	0.581968	-0.013713
 620	3.0950e-01	15.2771	73.456841	0.000889	8.891552	3.012539	-0.070983
 621	3.1000e-01	15.2450	73.263253	0.000485	4.849937	1.643203	-0.038718
 622	3.1050e-01	15.1937	73.126127	0.000344	3.435372	1.163936	-0.027425
 623	3.1100e-01	15.1632	72.726851	0.001000	10.002996	3.389107	-0.079855
 624	3.1150e-01	15.1215	72.811546	-0.000212	-2.121848	-0.718901	0.016939
 625	3.1200e-01	15.0814	72.839777	-0.000071	-0.707283	-0.239634	0.005646
 626	3.1250e-01	15.0365	72.351772	0.001223	12.225884	4.142242	-0.097601
 627	3.1300e-01	14.9964	72.263044	0.000222	2.222888	0.753135	-0.017746
 628	3.1350e-01	14.9595	72.017025	0.000616	6.163462	2.088237	-0.049204
 629	3.1400e-01	14.9194	71.819403	0.000495	4.950978	1.677437	-0.039524
 630	3.1450e-01	14.8825	71.621782	0.000495	4.950978	1.677437	-0.039524
 631	3.1500e-01	14.8343	71.593550	0.000071	0.707283	0.239634	-0.005646
 632	3.1550e-01	14.7942	71.274935	0.000798	7.982189	2.704439	-0.063723
 633	3.1600e-01	14.7493	71.137810	0.000344	3.435372	1.163936	-0.027425
 634	3.1650e-01	14.7188	71.000684	0.000344	3.435372	1.163936	-0.027425
 635	3.1700e-01	14.6835	70.819195	0.000455	4.546816	1.540503	-0.036298
 636	3.1750e-01	14.6402	70.674003	0.000364	3.637453	1.232402	-0.029038
 637	3.1800e-01	14.5921	70.480415	0.000485	4.849937	1.643203	-0.038718
 638	3.1850e-01	14.5536	70.282793	0.000495	4.950978	1.677437	-0.039524
 639	3.1900e-01	14.5231	70.218263	0.000162	1.616646	0.547734	-0.012906
 640	3.1950e-01	14.4814	69.823020	0.000990	9.901955	3.354873	-0.079049
 641	3.2000e-01	14.4349	69.851251	-0.000071	-0.707283	-0.239634	0.005646
 642	3.2050e-01	14.4028	69.540703	0.000778	7.780108	2.635972	-0.062110
 643	3.2100e-01	14.3547	69.415677	0.000313	3.132251	1.061235	-0.025005
 644	3.2150e-01	14.3194	69.339048	0.000192	1.919767	0.650435	-0.015326
 645	3.2200e-01	14.2825	69.193856	0.000364	3.637453	1.232402	-0.029038
 646	3.2250e-01	14.2408	68.972036	0.000556	5.557220	1.882837	-0.044364
 647	3.2300e-01	14.2007	68.713917	0.000647	6.466583	2.190938	-0.051624
 648	3.2350e-01	14.1654	68.532428	0.000455	4.546816	1.540503	-0.036298
 649	3.2400e-01	14.1156	68.254144	0.000697	6.971785	2.362105	-0.055657
 650	3.2450e-01	14.0787	68.294475	-0.000101	-1.010404	-0.342334	0.008066
 651	3.2500e-01	14.0322	68.048456	0.000616	6.163462	2.088237	-0.049204
 652	3.2550e-01	14.0017	67.907298	0.000354	3.536413	1.198169	-0.028232
 653	3.2600e-01	13.9536	67.766139	0.000354	3.536413	1.198169	-0.028232
 654	3.2650e-01	13.9231	67.572551	0.000485	4.849937	1.643203	-0.038718
 655	3.2700e-01	13.8830	67.124877	0.001122	11.215480	3.799908	-0.089535
 656	3.2750e-01	13.8445	67.068413	0.000141	1.414565	0.479268	-0.011293
 657	3.2800e-01	13.7964	66.911122	0.000394	3.940574	1.335103	-0.031458
 658	3.2850e-01	13.7531	66.773997	0.000344	3.435372	1.163936	-0.027425
 659	3.2900e-01	13.7146	66.532011	0.000606	6.062422	2.054004	-0.048397
 660	3.2950e-01	13.6809	66.318257	0.000536	5.355139	1.814370	-0.042751
 661	3.3000e-01	13.6312	66.156933	0.000404	4.041614	1.369336	-0.032265
 662	3.3050e-01	13.5959	65.789921	0.000919	9.194673	3.115240	-0.073402
 663	3.3100e-01	13.5558	65.753623	0.000091	0.909363	0.308101	-0.007260
 664	3.3150e-01	13.5141	65.648762	0.000263	2.627049	0.890068	-0.020972
 665	3.3200e-01	13.4820	65.471306	0.000445	4.445776	1.506270	-0.035491
 666	3.3250e-01	13.4371	65.156724	0.000788	7.881148	2.670205	-0.062916
 667	3.3300e-01	13.3953	65.039765	0.000293	2.930170	0.992769	-0.023392
 668	3.3350e-01	13.3633	64.777613	0.000657	6.567624	2.225171	-0.052430
 669	3.3400e-01	13.3119	64.672753	0.000263	2.627049	0.890068	-0.020972
 670	3.3450e-01	13.2863	64.692918	-0.000051	-0.505202	-0.171167	0.004033
 671	3.3500e-01	13.2349	64.426734	0.000667	6.668664	2.259404	-0.053237
 672	3.3550e-01	13.1916	64.269443	0.000394	3.940574	1.335103	-0.031458
 673	3.3600e-01	13.1659	63.975027	0.000738	7.375946	2.499038	-0.058883
 674	3.3650e-01	13.1162	63.874199	0.000253	2.526009	0.855835	-0.020165
 675	3.3700e-01	13.0729	63.781438	0.000232	2.323928	0.787368	-0.018552
 676	3.3750e-01	13.0456	63.378128	0.001010	10.104036	3.423340	-0.080662
 677	3.3800e-01	12.9959	63.204705	0.000434	4.344736	1.472036	-0.034685
 678	3.3850e-01	12.9558	63.128076	0.000192	1.919767	0.650435	-0.015326
 679	3.3900e-01	12.9221	62.619905	0.001273	12.731086	4.313409	-0.101634
 680	3.3950e-01	12.8772	62.607806	0.000030	0.303121	0.102700	-0.002420
 681	3.4000e-01	12.8387	62.523111	0.000212	2.121848	0.718901	-0.016939
 682	3.4050e-01	12.8034	62.212562	0.000778	7.780108	2.635972	-0.062110
 683	3.4100e-01	12.7537	62.115768	0.000242	2.424969	0.821602	-0.019359
 684	3.4150e-01	12.7200	61.918146	0.000495	4.950978	1.677437	-0.039524
 685	3.4200e-01	12.6847	61.918146	-0.000000	-0.000000	-0.000000	0.000000
 686	3.4250e-01	12.6478	61.720524	0.000495	4.950978	1.677437	-0.039524
 687	3.4300e-01	12.5996	61.547101	0.000434	4.344736	1.472036	-0.034685
 688	3.4350e-01	12.5660	61.280917	0.000667	6.668664	2.259404	-0.053237
 689	3.4400e-01	12.5178	61.014732	0.000667	6.668664	2.259404	-0.053237
 690	3.4450e-01	12.4809	60.897772	0.000293	2.930170	0.992769	-0.023392
 691	3.4500e-01	12.4424	60.583191	0.000788	7.881148	2.670205	-0.062916
 692	3.4550e-01	12.4055	60.458165	0.000313	3.132251	1.061235	-0.025005
 693	3.4600e-01	12.3654	60.506562	-0.000121	-1.212484	-0.410801	0.009679
 694	3.4650e-01	12.3125	60.103252	0.001010	10.104036	3.423340	-0.080662
 695	3.4700e-01	12.2868	60.014524	0.000222	2.222888	0.753135	-0.017746
 696	3.4750e-01	12.2451	59.772538	0.000606	6.062422	2.054004	-0.048397
 697	3.4800e-01	12.1938	59.582982	0.000475	4.748897	1.608970	-0.037911
 698	3.4850e-01	12.1633	59.361162	0.000556	5.557220	1.882837	-0.044364
 699	3.4900e-01	12.1184	58.877190	0.001212	12.124843	4.108008	-0.096794
 700	3.4950e-01	12.0783	59.074812	-0.000495	-4.950978	-1.677437	0.039524
 701	3.5000e-01	12.0398	58.748131	0.000818	8.184269	2.772906	-0.065336
 702	3.5050e-01	12.0061	58.707800	0.000101	1.010404	0.342334	-0.008066
 703	3.5100e-01	11.9724	58.296424	0.001031	10.306117	3.491807	-0.082275
 704	3.5150e-01	11.9178	58.457748	-0.000404	-4.041614	-1.369336	0.032265
 705	3.5200e-01	11.8922	58.006041	0.001132	11.316521	3.834141	-0.090341
 706	3.5250e-01	11.8408	57.868915	0.000344	3.435372	1.163936	-0.027425
 707	3.5300e-01	11.8007	57.715658	0.000384	3.839534	1.300869	-0.030652
 708	3.5350e-01	11.7606	57.530135	0.000465	4.647857	1.574736	-0.037105
 709	3.5400e-01	11.7173	57.376877	0.000384	3.839534	1.300869	-0.030652
 710	3.5450e-01	11.6804	57.179255	0.000495	4.950978	1.677437	-0.039524
 711	3.5500e-01	11.6419	57.090527	0.000222	2.222888	0.753135	-0.017746
 712	3.5550e-01	11.6034	56.820310	0.000677	6.769704	2.293638	-0.054044
 713	3.5600e-01	11.5521	56.739648	0.000202	2.020807	0.684668	-0.016132
 714	3.5650e-01	11.5264	56.489596	0.000626	6.264502	2.122471	-0.050010
 715	3.5700e-01	11.4783	56.179047	0.000778	7.780108	2.635972	-0.062110
 716	3.5750e-01	11.4350	56.086286	0.000232	2.323928	0.787368	-0.018552
 717	3.5800e-01	11.3933	55.973359	0.000283	2.829130	0.958535	-0.022585
 718	3.5850e-01	11.3644	55.816068	0.000394	3.940574	1.335103	-0.031458
 719	3.5900e-01	11.3243	55.557950	0.000647	6.466583	2.190938	-0.051624
 720	3.5950e-01	11.2810	55.162706	0.000990	9.901955	3.354873	-0.079049
 721	3.6000e-01	11.2377	55.227236	-0.000162	-1.616646	-0.547734	0.012906
 722	3.6050e-01	11.2008	54.932820	0.000738	7.375946	2.499038	-0.058883
 723	3.6100e-01	11.1606	54.553708	0.000950	9.497794	3.217940	-0.075822
 724	3.6150e-01	11.1270	54.533543	0.000051	0.505202	0.171167	-0.004033
 725	3.6200e-01	11.0836	54.412550	0.000303	3.031211	1.027002	-0.024199
 726	3.6250e-01	11.0484	54.053604	0.000899	8.992592	3.046773	-0.071789
 727	3.6300e-01	10.9954	53.976975	0.000192	1.919767	0.650435	-0.015326
 728	3.6350e-01	10.9553	53.876148	0.000253	2.526009	0.855835	-0.020165
 729	3.6400e-01	10.9296	53.678526	0.000495	4.950978	1.677437	-0.039524
 730	3.6450e-01	10.8863	53.452672	0.000566	5.658260	1.917070	-0.045171
 731	3.6500e-01	10.8430	53.109859	0.000859	8.588431	2.909839	-0.068563
 732	3.6550e-01	10.7997	52.956601	0.000384	3.839534	1.300869	-0.030652
 733	3.6600e-01	10.7564	53.004998	-0.000121	-1.212484	-0.410801	0.009679
 734	3.6650e-01	10.7179	52.698483	0.000768	7.679068	2.601738	-0.061303
 735	3.6700e-01	10.6810	52.529093	0.000424	4.243695	1.437803	-0.033878
 736	3.6750e-01	10.6393	52.186279	0.000859	8.588431	2.909839	-0.068563
 737	3.6800e-01	10.5927	51.960426	0.000566	5.658260	1.917070	-0.045171
 738	3.6850e-01	10.5623	51.871698	0.000222	2.222888	0.753135	-0.017746
 739	3.6900e-01	10.5270	51.815234	0.000141	1.414565	0.479268	-0.011293
 740	3.6950e-01	10.4821	51.488553	0.000818	8.184269	2.772906	-0.065336
 741	3.7000e-01	10.4371	51.133641	0.000889	8.891552	3.012539	-0.070983
 742	3.7050e-01	10.3970	51.016681	0.000293	2.930170	0.992769	-0.023392
 743	3.7100e-01	10.3617	50.831158	0.000465	4.647857	1.574736	-0.037105
 744	3.7150e-01	10.3216	50.758562	0.000182	1.818727	0.616201	-0.014519
 745	3.7200e-01	10.2751	50.435915	0.000808	8.083229	2.738672	-0.064530
 746	3.7250e-01	10.2366	50.355253	0.000202	2.020807	0.684668	-0.016132
 747	3.7300e-01	10.2029	50.270558	0.000212	2.121848	0.718901	-0.016939
 748	3.7350e-01	10.1708	49.939843	0.000829	8.285310	2.807139	-0.066143
 749	3.7400e-01	10.1179	49.552666	0.000970	9.699875	3.286407	-0.077435
 750	3.7450e-01	10.0810	49.314713	0.000596	5.961381	2.019771	-0.047591
 751	3.7500e-01	10.0409	49.451839	-0.000344	-3.435372	-1.163936	0.027425
 752	3.7550e-01	10.0120	49.242117	0.000525	5.254099	1.780137	-0.041944
 753	3.7600e-01	9.9559	48.988032	0.000637	6.365543	2.156704	-0.050817
 754	3.7650e-01	9.9126	48.782344	0.000515	5.153058	1.745903	-0.041138
 755	3.7700e-01	9.8741	48.544391	0.000596	5.961381	2.019771	-0.047591
 756	3.7750e-01	9.8356	48.379034	0.000414	4.142655	1.403569	-0.033071
 757	3.7800e-01	9.7970	48.189479	0.000475	4.748897	1.608970	-0.037911
 758	3.7850e-01	9.7553	48.007989	0.000455	4.546816	1.540503	-0.036298
 759	3.7900e-01	9.7136	47.814400	0.000485	4.849937	1.643203	-0.038718
 760	3.7950e-01	9.6815	47.628878	0.000465	4.647857	1.574736	-0.037105
 761	3.8000e-01	9.6366	47.370760	0.000647	6.466583	2.190938	-0.051624
 762	3.8050e-01	9.5997	47.415124	-0.000111	-1.111444	-0.376567	0.008873
 763	3.8100e-01	9.5612	47.076343	0.000849	8.487390	2.875606	-0.067756
 764	3.8150e-01	9.5195	47.036012	0.000101	1.010404	0.342334	-0.008066
 765	3.8200e-01	9.4762	46.818225	0.000546	5.456180	1.848604	-0.043557
 766	3.8250e-01	9.4361	46.572206	0.000616	6.163462	2.088237	-0.049204
 767	3.8300e-01	9.3976	46.402816	0.000424	4.243695	1.437803	-0.033878
 768	3.8350e-01	9.3639	46.152764	0.000626	6.264502	2.122471	-0.050010
 769	3.8400e-01	9.3126	45.914811	0.000596	5.961381	2.019771	-0.047591
 770	3.8450e-01	9.2885	45.636527	0.000697	6.971785	2.362105	-0.055657
 771	3.8500e-01	9.2356	45.245317	0.000980	9.800915	3.320640	-0.078242
 772	3.8550e-01	9.2035	45.297747	-0.000131	-1.313525	-0.445034	0.010486
 773	3.8600e-01	9.1538	45.152555	0.000364	3.637453	1.232402	-0.029038
 774	3.8650e-01	9.1201	44.942834	0.000525	5.254099	1.780137	-0.041944
 775	3.8700e-01	9.0832	44.749246	0.000485	4.849937	1.643203	-0.038718
 776	3.8750e-01	9.0431	44.636319	0.000283	2.829130	0.958535	-0.022585
 777	3.8800e-01	9.0030	44.305605	0.000829	8.285310	2.807139	-0.066143
 778	3.8850e-01	8.9580	44.128148	0.000445	4.445776	1.506270	-0.035491
 779	3.8900e-01	8.9179	43.962791	0.000414	4.142655	1.403569	-0.033071
 780	3.8950e-01	8.8714	43.720805	0.000606	6.062422	2.054004	-0.048397
 781	3.9000e-01	8.8457	43.700640	0.000051	0.505202	0.171167	-0.004033
 782	3.9050e-01	8.8088	43.349760	0.000879	8.790511	2.978306	-0.070176
 783	3.9100e-01	8.7607	43.160205	0.000475	4.748897	1.608970	-0.037911
 784	3.9150e-01	8.7142	42.837557	0.000808	8.083229	2.738672	-0.064530
 785	3.9200e-01	8.6741	42.781093	0.000141	1.414565	0.479268	-0.011293
 786	3.9250e-01	8.6452	42.599604	0.000455	4.546816	1.540503	-0.036298
 787	3.9300e-01	8.5987	42.345519	0.000637	6.365543	2.156704	-0.050817
 788	3.9350e-01	8.5602	42.337453	0.000020	0.202081	0.068467	-0.001613
 789	3.9400e-01	8.5169	42.067235	0.000677	6.769704	2.293638	-0.054044
 790	3.9450e-01	8.4720	41.942209	0.000313	3.132251	1.061235	-0.025005
 791	3.9500e-01	8.4463	41.732488	0.000525	5.254099	1.780137	-0.041944
 792	3.9550e-01	8.3998	41.377575	0.000889	8.891552	3.012539	-0.070983
 793	3.9600e-01	8.3581	41.143655	0.000586	5.860341	1.985537	-0.046784
 794	3.9650e-01	8.3196	41.022662	0.000303	3.031211	1.027002	-0.024199
 795	3.9700e-01	8.2810	40.816974	0.000515	5.153058	1.745903	-0.041138
 796	3.9750e-01	8.2377	40.639518	0.000445	4.445776	1.506270	-0.035491
 797	3.9800e-01	8.2008	40.587088	0.000131	1.313525	0.445034	-0.010486
 798	3.9850e-01	8.1591	40.272506	0.000788	7.881148	2.670205	-0.062916
 799	3.9900e-01	8.1142	39.986156	0.000717	7.173866	2.430571	-0.057270
 800	3.9950e-01	8.0805	39.844998	0.000354	3.536413	1.198169	-0.028232
 801	4.0000e-01	8.0372	39.772402	0.000182	1.818727	0.616201	-0.014519
 802	4.0050e-01	8.0083	39.461853	0.000778	7.780108	2.635972	-0.062110
 803	4.0100e-01	7.9522	39.308596	0.000384	3.839534	1.300869	-0.030652
 804	4.0150e-01	7.9169	39.070643	0.000596	5.961381	2.019771	-0.047591
 805	4.0200e-01	7.8800	38.739929	0.000829	8.285310	2.807139	-0.066143
 806	4.0250e-01	7.8463	38.497943	0.000606	6.062422	2.054004	-0.048397
 807	4.0300e-01	7.7982	38.393082	0.000263	2.627049	0.890068	-0.020972
 808	4.0350e-01	7.7581	38.235791	0.000394	3.940574	1.335103	-0.031458
 809	4.0400e-01	7.7148	38.143030	0.000232	2.323928	0.787368	-0.018552
 810	4.0450e-01	7.6811	37.945408	0.000495	4.950978	1.677437	-0.039524
 811	4.0500e-01	7.6394	37.655025	0.000727	7.274906	2.464805	-0.058077
 812	4.0550e-01	7.5928	37.550165	0.000263	2.627049	0.890068	-0.020972
 813	4.0600e-01	7.5591	37.171053	0.000950	9.497794	3.217940	-0.075822
 814	4.0650e-01	7.5255	36.941167	0.000576	5.759301	1.951304	-0.045977
 815	4.0700e-01	7.4773	36.832273	0.000273	2.728090	0.924302	-0.021779
 816	4.0750e-01	7.4340	36.739512	0.000232	2.323928	0.787368	-0.018552
 817	4.0800e-01	7.4035	36.501559	0.000596	5.961381	2.019771	-0.047591
 818	4.0850e-01	7.3538	36.477360	0.000061	0.606242	0.205400	-0.004840
 819	4.0900e-01	7.3153	36.368467	0.000273	2.728090	0.924302	-0.021779
 820	4.0950e-01	7.2816	35.884495	0.001212	12.124843	4.108008	-0.096794
 821	4.1000e-01	7.2383	35.569913	0.000788	7.881148	2.670205	-0.062916
 822	4.1050e-01	7.1966	35.448920	0.000303	3.031211	1.027002	-0.024199
 823	4.1100e-01	7.1597	35.307762	0.000354	3.536413	1.198169	-0.028232
 824	4.1150e-01	7.1196	34.968981	0.000849	8.487390	2.875606	-0.067756
 825	4.1200e-01	7.0779	34.775393	0.000485	4.849937	1.643203	-0.038718
 826	4.1250e-01	7.0394	34.710863	0.000162	1.616646	0.547734	-0.012906
 827	4.1300e-01	6.9977	34.299487	0.001031	10.306117	3.491807	-0.082275
 828	4.1350e-01	6.9624	34.263189	0.000091	0.909363	0.308101	-0.007260
 829	4.1400e-01	6.9158	33.976839	0.000717	7.173866	2.430571	-0.057270
 830	4.1450e-01	6.8822	33.936508	0.000101	1.010404	0.342334	-0.008066
 831	4.1500e-01	6.8469	33.601761	0.000839	8.386350	2.841372	-0.066949
 832	4.1550e-01	6.7987	33.513033	0.000222	2.222888	0.753135	-0.017746
 833	4.1600e-01	6.7618	33.246848	0.000667	6.668664	2.259404	-0.053237
 834	4.1650e-01	6.7153	32.972598	0.000687	6.870745	2.327871	-0.054850
 835	4.1700e-01	6.6656	33.049226	-0.000192	-1.919767	-0.650435	0.015326
 836	4.1750e-01	6.6399	32.851605	0.000495	4.950978	1.677437	-0.039524
 837	4.1800e-01	6.6014	32.601553	0.000626	6.264502	2.122471	-0.050010
 838	4.1850e-01	6.5613	32.416030	0.000465	4.647857	1.574736	-0.037105
 839	4.1900e-01	6.5164	32.182110	0.000586	5.860341	1.985537	-0.046784
 840	4.1950e-01	6.4859	31.649741	0.001334	13.337328	4.518809	-0.106474
 841	4.2000e-01	6.4458	31.686039	-0.000091	-0.909363	-0.308101	0.007260
 842	4.2050e-01	6.3977	31.403722	0.000707	7.072825	2.396338	-0.056463
 843	4.2100e-01	6.3656	31.335160	0.000172	1.717686	0.581968	-0.013713
 844	4.2150e-01	6.3255	31.016545	0.000798	7.982189	2.704439	-0.063723
 845	4.2200e-01	6.2806	30.984280	0.000081	0.808323	0.273867	-0.006453
 846	4.2250e-01	6.2373	30.697930	0.000717	7.173866	2.430571	-0.057270
 847	4.2300e-01	6.2020	30.552738	0.000364	3.637453	1.232402	-0.029038
 848	4.2350e-01	6.1699	30.254289	0.000748	7.476987	2.533272	-0.059690
 849	4.2400e-01	6.1234	29.996171	0.000647	6.466583	2.190938	-0.051624
 850	4.2450e-01	6.0752	29.891310	0.000263	2.627049	0.890068	-0.020972
 851	4.2500e-01	6.0496	29.427504	0.001162	11.619642	3.936841	-0.092761
 852	4.2550e-01	6.0079	29.161319	0.000667	6.668664	2.259404	-0.053237
 853	4.2600e-01	5.9613	29.177452	-0.000040	-0.404161	-0.136934	0.003226
 854	4.2650e-01	5.9276	29.004029	0.000434	4.344736	1.472036	-0.034685
 855	4.2700e-01	5.8779	28.669281	0.000839	8.386350	2.841372	-0.066949
 856	4.2750e-01	5.8346	28.669281	-0.000000	-0.000000	-0.000000	0.000000
 857	4.2800e-01	5.8041	28.705579	-0.000091	-0.909363	-0.308101	0.007260
 858	4.2850e-01	5.7560	28.334534	0.000930	9.295713	3.149473	-0.074209
 859	4.2900e-01	5.7207	28.096581	0.000596	5.961381	2.019771	-0.047591
 860	4.2950e-01	5.6854	27.777967	0.000798	7.982189	2.704439	-0.063723
 861	4.3000e-01	5.6421	27.886860	-0.000273	-2.728090	-0.924302	0.021779
 862	4.3050e-01	5.6052	27.402888	0.001212	12.124843	4.108008	-0.096794
 863	4.3100e-01	5.5603	27.225432	0.000445	4.445776	1.506270	-0.035491
 864	4.3150e-01	5.5202	27.052009	0.000434	4.344736	1.472036	-0.034685
 865	4.3200e-01	5.4752	26.918917	0.000333	3.334332	1.129702	-0.026618
 866	4.3250e-01	5.4448	26.757593	0.000404	4.041614	1.369336	-0.032265
 867	4.3300e-01	5.4047	26.378481	0.000950	9.497794	3.217940	-0.075822
 868	4.3350e-01	5.3646	26.180860	0.000495	4.950978	1.677437	-0.039524
 869	4.3400e-01	5.3212	26.112297	0.000172	1.717686	0.581968	-0.013713
 870	4.3450e-01	5.2876	25.789649	0.000808	8.083229	2.738672	-0.064530
 871	4.3500e-01	5.2490	25.608160	0.000455	4.546816	1.540503	-0.036298
 872	4.3550e-01	5.1993	25.406505	0.000505	5.052018	1.711670	-0.040331
 873	4.3600e-01	5.1560	25.172585	0.000586	5.860341	1.985537	-0.046784
 874	4.3650e-01	5.1191	24.910434	0.000657	6.567624	2.225171	-0.052430
 875	4.3700e-01	5.0870	24.801540	0.000273	2.728090	0.924302	-0.021779
 876	4.3750e-01	5.0501	24.652315	0.000374	3.738493	1.266636	-0.029845
 877	4.3800e-01	5.0068	24.531322	0.000303	3.031211	1.027002	-0.024199
 878	4.3850e-01	4.9603	24.204641	0.000818	8.184269	2.772906	-0.065336
 879	4.3900e-01	4.9186	23.962655	0.000606	6.062422	2.054004	-0.048397
 880	4.3950e-01	4.8753	23.716636	0.000616	6.163462	2.088237	-0.049204
 881	4.4000e-01	4.8319	23.668239	0.000121	1.212484	0.410801	-0.009679
 882	4.4050e-01	4.8031	23.309293	0.000899	8.992592	3.046773	-0.071789
 883	4.4100e-01	4.7598	23.381889	-0.000182	-1.818727	-0.616201	0.014519
 884	4.4150e-01	4.7261	23.039076	0.000859	8.588431	2.909839	-0.068563
 885	4.4200e-01	4.6812	22.861619	0.000445	4.445776	1.506270	-0.035491
 886	4.4250e-01	4.6394	22.595435	0.000667	6.668664	2.259404	-0.053237
 887	4.4300e-01	4.6025	22.317151	0.000697	6.971785	2.362105	-0.055657
 888	4.4350e-01	4.5576	21.845279	0.001182	11.821722	4.005308	-0.094375
 889	4.4400e-01	4.5143	21.917874	-0.000182	-1.818727	-0.616201	0.014519
 890	4.4450e-01	4.4726	21.869477	0.000121	1.212484	0.410801	-0.009679
 891	4.4500e-01	4.4421	21.631524	0.000596	5.961381	2.019771	-0.047591
 892	4.4550e-01	4.3988	21.389538	0.000606	6.062422	2.054004	-0.048397
 893	4.4600e-01	4.3571	21.123354	0.000667	6.668664	2.259404	-0.053237
 894	4.4650e-01	4.3106	20.828938	0.000738	7.375946	2.499038	-0.058883
 895	4.4700e-01	4.2737	20.720044	0.000273	2.728090	0.924302	-0.021779
 896	4.4750e-01	4.2416	20.502257	0.000546	5.456180	1.848604	-0.043557
 897	4.4800e-01	4.1967	20.252205	0.000626	6.264502	2.122471	-0.050010
 898	4.4850e-01	4.1646	20.119112	0.000333	3.334332	1.129702	-0.026618
 899	4.4900e-01	4.1181	19.881160	0.000596	5.961381	2.019771	-0.047591
 900	4.4950e-01	4.0876	19.566578	0.000788	7.881148	2.670205	-0.062916
 901	4.5000e-01	4.0443	19.433486	0.000333	3.334332	1.129702	-0.026618
 902	4.5050e-01	3.9961	19.256029	0.000445	4.445776	1.506270	-0.035491
 903	4.5100e-01	3.9609	19.090672	0.000414	4.142655	1.403569	-0.033071
 904	4.5150e-01	3.9095	18.949514	0.000354	3.536413	1.198169	-0.028232
 905	4.5200e-01	3.8806	18.671230	0.000697	6.971785	2.362105	-0.055657
 906	4.5250e-01	3.8405	18.469575	0.000505	5.052018	1.711670	-0.040331
 907	4.5300e-01	3.8020	18.094497	0.000940	9.396754	3.183706	-0.075016
 908	4.5350e-01	3.7571	17.957372	0.000344	3.435372	1.163936	-0.027425
 909	4.5400e-01	3.7186	17.993669	-0.000091	-0.909363	-0.308101	0.007260
 910	4.5450e-01	3.6817	17.723452	0.000677	6.769704	2.293638	-0.054044
 911	4.5500e-01	3.6400	17.513731	0.000525	5.254099	1.780137	-0.041944
 912	4.5550e-01	3.6047	17.227381	0.000717	7.173866	2.430571	-0.057270
 913	4.5600e-01	3.5630	16.916832	0.000778	7.780108	2.635972	-0.062110
 914	4.5650e-01	3.5213	16.719210	0.000495	4.950978	1.677437	-0.039524
 915	4.5700e-01	3.4780	16.666780	0.000131	1.313525	0.445034	-0.010486
 916	4.5750e-01	3.4347	16.513522	0.000384	3.839534	1.300869	-0.030652
 917	4.5800e-01	3.3946	16.303801	0.000525	5.254099	1.780137	-0.041944
 918	4.5850e-01	3.3545	16.150543	0.000384	3.839534	1.300869	-0.030652
 919	4.5900e-01	3.3192	15.912591	0.000596	5.961381	2.019771	-0.047591
 920	4.5950e-01	3.2774	15.630274	0.000707	7.072825	2.396338	-0.056463
 921	4.6000e-01	3.2341	15.311659	0.000798	7.982189	2.704439	-0.063723
 922	4.6050e-01	3.1956	15.033375	0.000697	6.971785	2.362105	-0.055657
 923	4.6100e-01	3.1603	14.964812	0.000172	1.717686	0.581968	-0.013713
 924	4.6150e-01	3.1202	14.815588	0.000374	3.738493	1.266636	-0.029845
 925	4.6200e-01	3.0817	14.666363	0.000374	3.738493	1.266636	-0.029845
 926	4.6250e-01	3.0368	14.315483	0.000879	8.790511	2.978306	-0.070176
 927	4.6300e-01	3.0063	14.158193	0.000394	3.940574	1.335103	-0.031458
 928	4.6350e-01	2.9550	13.988803	0.000424	4.243695	1.437803	-0.033878
 929	4.6400e-01	2.9181	13.815379	0.000434	4.344736	1.472036	-0.034685
 930	4.6450e-01	2.8780	13.408036	0.001021	10.205077	3.457574	-0.081469
 931	4.6500e-01	2.8491	13.202348	0.000515	5.153058	1.745903	-0.041138
 932	4.6550e-01	2.8058	13.041024	0.000404	4.041614	1.369336	-0.032265
 933	4.6600e-01	2.7529	12.903899	0.000344	3.435372	1.163936	-0.027425
 934	4.6650e-01	2.7304	12.625615	0.000697	6.971785	2.362105	-0.055657
 935	4.6700e-01	2.6727	12.440093	0.000465	4.647857	1.574736	-0.037105
 936	4.6750e-01	2.6390	12.298934	0.000354	3.536413	1.198169	-0.028232
 937	4.6800e-01	2.6005	11.964187	0.000839	8.386350	2.841372	-0.066949
 938	4.6850e-01	2.5459	11.839161	0.000313	3.132251	1.061235	-0.025005
 939	4.6900e-01	2.5202	11.665738	0.000434	4.344736	1.472036	-0.034685
 940	4.6950e-01	2.4753	11.508447	0.000394	3.940574	1.335103	-0.031458
 941	4.7000e-01	2.4384	11.310825	0.000495	4.950978	1.677437	-0.039524
 942	4.7050e-01	2.3903	11.056740	0.000637	6.365543	2.156704	-0.050817
 943	4.7100e-01	2.3566	11.024475	0.000081	0.808323	0.273867	-0.006453
 944	4.7150e-01	2.3229	10.693761	0.000829	8.285310	2.807139	-0.066143
 945	4.7200e-01	2.2796	10.451775	0.000606	6.062422	2.054004	-0.048397
 946	4.7250e-01	2.2395	10.145260	0.000768	7.679068	2.601738	-0.061303
 947	4.7300e-01	2.2042	9.871009	0.000687	6.870745	2.327871	-0.054850
 948	4.7350e-01	2.1561	9.705652	0.000414	4.142655	1.403569	-0.033071
 949	4.7400e-01	2.1192	9.524162	0.000455	4.546816	1.540503	-0.036298
 950	4.7450e-01	2.0823	9.391070	0.000333	3.334332	1.129702	-0.026618
 951	4.7500e-01	2.0374	9.237812	0.000384	3.839534	1.300869	-0.030652
 952	4.7550e-01	1.9941	8.870800	0.000919	9.194673	3.115240	-0.073402
 953	4.7600e-01	1.9588	8.782072	0.000222	2.222888	0.753135	-0.017746
 954	4.7650e-01	1.9203	8.467491	0.000788	7.881148	2.670205	-0.062916
 955	4.7700e-01	1.8802	8.411027	0.000141	1.414565	0.479268	-0.011293
 956	4.7750e-01	1.8385	7.951254	0.001152	11.518601	3.902608	-0.091955
 957	4.7800e-01	1.7967	7.874625	0.000192	1.919767	0.650435	-0.015326
 958	4.7850e-01	1.7534	7.874625	-0.000000	-0.000000	-0.000000	0.000000
 959	4.7900e-01	1.7181	7.447117	0.001071	10.710278	3.628741	-0.085502
 960	4.7950e-01	1.6748	7.314024	0.000333	3.334332	1.129702	-0.026618
 961	4.8000e-01	1.6427	7.080105	0.000586	5.860341	1.985537	-0.046784
 962	4.8050e-01	1.5930	6.890549	0.000475	4.748897	1.608970	-0.037911
 963	4.8100e-01	1.5625	6.705026	0.000465	4.647857	1.574736	-0.037105
 964	4.8150e-01	1.5176	6.547736	0.000394	3.940574	1.335103	-0.031458
 965	4.8200e-01	1.4743	6.269452	0.000697	6.971785	2.362105	-0.055657
 966	4.8250e-01	1.4326	6.011333	0.000647	6.466583	2.190938	-0.051624
 967	4.8300e-01	1.3925	6.003267	0.000020	0.202081	0.068467	-0.001613
 968	4.8350e-01	1.3604	5.813712	0.000475	4.748897	1.608970	-0.037911
 969	4.8400e-01	1.3171	5.551560	0.000657	6.567624	2.225171	-0.052430
 970	4.8450e-01	1.2802	5.349905	0.000505	5.052018	1.711670	-0.040331
 971	4.8500e-01	1.2385	4.990960	0.000899	8.992592	3.046773	-0.071789
 972	4.8550e-01	1.1952	4.861900	0.000323	3.233292	1.095469	-0.025812
 973	4.8600e-01	1.1647	4.547319	0.000788	7.881148	2.670205	-0.062916
 974	4.8650e-01	1.1165	4.329531	0.000546	5.456180	1.848604	-0.043557
 975	4.8700e-01	1.0796	4.216605	0.000283	2.829130	0.958535	-0.022585
 976	4.8750e-01	1.0411	3.938321	0.000697	6.971785	2.362105	-0.055657
 977	4.8800e-01	0.9898	3.768931	0.000424	4.243695	1.437803	-0.033878
 978	4.8850e-01	0.9545	3.583408	0.000465	4.647857	1.574736	-0.037105
 979	4.8900e-01	0.9272	3.422084	0.000404	4.041614	1.369336	-0.032265
 980	4.8950e-01	0.8775	3.212363	0.000525	5.254099	1.780137	-0.041944
 981	4.9000e-01	0.8374	2.966344	0.000616	6.163462	2.088237	-0.049204
 982	4.9050e-01	0.7925	2.772755	0.000485	4.849937	1.643203	-0.038718
 983	4.9100e-01	0.7460	2.575133	0.000495	4.950978	1.677437	-0.039524
 984	4.9150e-01	0.7187	2.373479	0.000505	5.052018	1.711670	-0.040331
 985	4.9200e-01	0.6754	2.139559	0.000586	5.860341	1.985537	-0.046784
 986	4.9250e-01	0.6385	2.014533	0.000313	3.132251	1.061235	-0.025005
 987	4.9300e-01	0.5968	1.663653	0.000879	8.790511	2.978306	-0.070176
 988	4.9350e-01	0.5647	1.570892	0.000232	2.323928	0.787368	-0.018552
 989	4.9400e-01	0.5182	1.341005	0.000576	5.759301	1.951304	-0.045977
 990	4.9450e-01	0.4765	1.070788	0.000677	6.769704	2.293638	-0.054044
 991	4.9500e-01	0.4476	0.893331	0.000445	4.445776	1.506270	-0.035491
 992	4.9550e-01	0.4011	0.667478	0.000566	5.658260	1.917070	-0.045171
 993	4.9600e-01	0.3497	0.566650	0.000253	2.526009	0.855835	-0.020165
 994	4.9650e-01	0.3160	0.389194	0.000445	4.445776	1.506270	-0.035491
 995	4.9700e-01	0.2743	-0.026215	0.001041	10.407157	3.526040	-0.083082
 996	4.9750e-01	0.2374	-0.038314	0.000030	0.303121	0.102700	-0.002420
 997	4.9800e-01	0.2037	-0.203671	0.000414	4.142655	1.403569	-0.033071
 998	4.9850e-01	0.1604	-0.514220	0.000778	7.780108	2.635972	-0.062110
 999	4.9900e-01	0.1171	-0.619081	0.000263	2.627049	0.890068	-0.020972
1000	4.9950e-01	0.0770	-1.010291	0.000980	9.800915	3.320640	-0.078242
1001	5.0000e-01	0.0433	-1.413601	0.001010	10.104036	3.423340	-0.080662
1002	5.0050e-01	0.0080	-1.373270	-0.000101	-1.010404	-0.342334	0.008066
1003	5.0100e-01	-0.0417	-1.607190	0.000586	5.860341	1.985537	-0.046784
1004	5.0150e-01	-0.0754	-1.740282	0.000333	3.334332	1.129702	-0.026618
1005	5.0200e-01	-0.1171	-1.901606	0.000404	4.041614	1.369336	-0.032265
1006	5.0250e-01	-0.1492	-2.252486	0.000879	8.790511	2.978306	-0.070176
1007	5.0300e-01	-0.2021	-2.442041	0.000475	4.748897	1.608970	-0.037911
1008	5.0350e-01	-0.2246	-2.635630	0.000485	4.849937	1.643203	-0.038718
1009	5.0400e-01	-0.2791	-2.776788	0.000354	3.536413	1.198169	-0.028232
1010	5.0450e-01	-0.3241	-2.809053	0.000081	0.808323	0.273867	-0.006453
1011	5.0500e-01	-0.3610	-3.228495	0.001051	10.508198	3.560274	-0.083888
1012	5.0550e-01	-0.3914	-3.293025	0.000162	1.616646	0.547734	-0.012906
1013	5.0600e-01	-0.4380	-3.603574	0.000778	7.780108	2.635972	-0.062110
1014	5.0650e-01	-0.4636	-3.656004	0.000131	1.313525	0.445034	-0.010486
1015	5.0700e-01	-0.5037	-4.014950	0.000899	8.992592	3.046773	-0.071789
1016	5.0750e-01	-0.5679	-4.127876	0.000283	2.829130	0.958535	-0.022585
1017	5.0800e-01	-0.5823	-4.345664	0.000546	5.456180	1.848604	-0.043557
1018	5.0850e-01	-0.6337	-4.559418	0.000536	5.355139	1.814370	-0.042751
1019	5.0900e-01	-0.6690	-4.781238	0.000556	5.557220	1.882837	-0.044364
1020	5.0950e-01	-0.7219	-5.047423	0.000667	6.668664	2.259404	-0.053237
1021	5.1000e-01	-0.7476	-5.257144	0.000525	5.254099	1.780137	-0.041944
1022	5.1050e-01	-0.7941	-5.511229	0.000637	6.365543	2.156704	-0.050817
1023	5.1100e-01	-0.8374	-5.845976	0.000839	8.386350	2.841372	-0.066949
1024	5.1150e-01	-0.8743	-5.858076	0.000030	0.303121	0.102700	-0.002420
1025	5.1200e-01	-0.9192	-6.196856	0.000849	8.487390	2.875606	-0.067756
1026	5.1250e-01	-0.9577	-6.313816	0.000293	2.930170	0.992769	-0.023392
1027	5.1300e-01	-0.9946	-6.422710	0.000273	2.728090	0.924302	-0.021779
1028	5.1350e-01	-1.0315	-6.664695	0.000606	6.062422	2.054004	-0.048397
1029	5.1400e-01	-1.0796	-6.765523	0.000253	2.526009	0.855835	-0.020165
1030	5.1450e-01	-1.1005	-7.027674	0.000657	6.567624	2.225171	-0.052430
1031	5.1500e-01	-1.1518	-7.289826	0.000657	6.567624	2.225171	-0.052430
1032	5.1550e-01	-1.1984	-7.551977	0.000657	6.567624	2.225171	-0.052430
1033	5.1600e-01	-1.2272	-7.604407	0.000131	1.313525	0.445034	-0.010486
1034	5.1650e-01	-1.2706	-7.850426	0.000616	6.163462	2.088237	-0.049204
1035	5.1700e-01	-1.3139	-7.910923	0.000152	1.515605	0.513501	-0.012099
1036	5.1750e-01	-1.3508	-8.310200	0.001000	10.002996	3.389107	-0.079855
1037	5.1800e-01	-1.3941	-8.584450	0.000687	6.870745	2.327871	-0.054850
1038	5.1850e-01	-1.4406	-8.737708	0.000384	3.839534	1.300869	-0.030652
1039	5.1900e-01	-1.4743	-8.870800	0.000333	3.334332	1.129702	-0.026618
1040	5.1950e-01	-1.5160	-9.044224	0.000434	4.344736	1.472036	-0.034685
1041	5.2000e-01	-1.5593	-9.447533	0.001010	10.104036	3.423340	-0.080662
1042	5.2050e-01	-1.6058	-9.548361	0.000253	2.526009	0.855835	-0.020165
1043	5.2100e-01	-1.6411	-9.713718	0.000414	4.142655	1.403569	-0.033071
1044	5.2150e-01	-1.6764	-10.040399	0.000818	8.184269	2.772906	-0.065336
1045	5.2200e-01	-1.7149	-10.092829	0.000131	1.313525	0.445034	-0.010486
1046	5.2250e-01	-1.7518	-10.145260	0.000131	1.313525	0.445034	-0.010486
1047	5.2300e-01	-1.7935	-10.294484	0.000374	3.738493	1.266636	-0.029845
1048	5.2350e-01	-1.8368	-10.588900	0.000738	7.375946	2.499038	-0.058883
1049	5.2400e-01	-1.8866	-10.834919	0.000616	6.163462	2.088237	-0.049204
1050	5.2450e-01	-1.9122	-11.270494	0.001091	10.912359	3.697207	-0.087115
1051	5.2500e-01	-1.9507	-11.439884	0.000424	4.243695	1.437803	-0.033878
1052	5.2550e-01	-1.9957	-11.564910	0.000313	3.132251	1.061235	-0.025005
1053	5.2600e-01	-2.0374	-11.730267	0.000414	4.142655	1.403569	-0.033071
1054	5.2650e-01	-2.0679	-11.919823	0.000475	4.748897	1.608970	-0.037911
1055	5.2700e-01	-2.1240	-11.976286	0.000141	1.414565	0.479268	-0.011293
1056	5.2750e-01	-2.1561	-12.278769	0.000758	7.578027	2.567505	-0.060496
1057	5.2800e-01	-2.1914	-12.589317	0.000778	7.780108	2.635972	-0.062110
1058	5.2850e-01	-2.2347	-12.758707	0.000424	4.243695	1.437803	-0.033878
1059	5.2900e-01	-2.2684	-12.875667	0.000293	2.930170	0.992769	-0.023392
1060	5.2950e-01	-2.3085	-13.133786	0.000647	6.466583	2.190938	-0.051624
1061	5.3000e-01	-2.3566	-13.307209	0.000434	4.344736	1.472036	-0.034685
1062	5.3050e-01	-2.3935	-13.621791	0.000788	7.881148	2.670205	-0.062916
1063	5.3100e-01	-2.4352	-13.750850	0.000323	3.233292	1.095469	-0.025812
1064	5.3150e-01	-2.4721	-13.819412	0.000172	1.717686	0.581968	-0.013713
1065	5.3200e-01	-2.5170	-14.178358	0.000899	8.992592	3.046773	-0.071789
1066	5.3250e-01	-2.5684	-14.311450	0.000333	3.334332	1.129702	-0.026618
1067	5.3300e-01	-2.5989	-14.533271	0.000556	5.557220	1.882837	-0.044364
1068	5.3350e-01	-2.6406	-14.742992	0.000525	5.254099	1.780137	-0.041944
1069	5.3400e-01	-2.6759	-14.956746	0.000536	5.355139	1.814370	-0.042751
1070	5.3450e-01	-2.7192	-15.170500	0.000536	5.355139	1.814370	-0.042751
1071	5.3500e-01	-2.7609	-15.416519	0.000616	6.163462	2.088237	-0.049204
1072	5.3550e-01	-2.7866	-15.602042	0.000465	4.647857	1.574736	-0.037105
1073	5.3600e-01	-2.8411	-15.791598	0.000475	4.748897	1.608970	-0.037911
1074	5.3650e-01	-2.8812	-15.839995	0.000121	1.212484	0.410801	-0.009679
1075	5.3700e-01	-2.9053	-16.009385	0.000424	4.243695	1.437803	-0.033878
1076	5.3750e-01	-2.9566	-16.461092	0.001132	11.316521	3.834141	-0.090341
1077	5.3800e-01	-2.9983	-16.711144	0.000626	6.264502	2.122471	-0.050010
1078	5.3850e-01	-3.0352	-16.743409	0.000081	0.808323	0.273867	-0.006453
1079	5.3900e-01	-3.0753	-16.928931	0.000465	4.647857	1.574736	-0.037105
1080	5.3950e-01	-3.1154	-17.170917	0.000606	6.062422	2.054004	-0.048397
1081	5.4000e-01	-3.1475	-17.404837	0.000586	5.860341	1.985537	-0.046784
1082	5.4050e-01	-3.1956	-17.808147	0.001010	10.104036	3.423340	-0.080662
1083	5.4100e-01	-3.2373	-18.034000	0.000566	5.658260	1.917070	-0.045171
1084	5.4150e-01	-3.2758	-18.134828	0.000253	2.526009	0.855835	-0.020165
1085	5.4200e-01	-3.3240	-18.187258	0.000131	1.313525	0.445034	-0.010486
1086	5.4250e-01	-3.3577	-18.263887	0.000192	1.919767	0.650435	-0.015326
1087	5.4300e-01	-3.3913	-18.485707	0.000556	5.557220	1.882837	-0.044364
1088	5.4350e-01	-3.4411	-18.606700	0.000303	3.031211	1.027002	-0.024199
1089	5.4400e-01	-3.4780	-18.973712	0.000919	9.194673	3.115240	-0.073402
1090	5.4450e-01	-3.5069	-19.364923	0.000980	9.800915	3.320640	-0.078242
1091	5.4500e-01	-3.5518	-19.300393	-0.000162	-1.616646	-0.547734	0.012906
1092	5.4550e-01	-3.5999	-19.538346	0.000596	5.961381	2.019771	-0.047591
1093	5.4600e-01	-3.6336	-19.945689	0.001021	10.205077	3.457574	-0.081469
1094	5.4650e-01	-3.6769	-19.973921	0.000071	0.707283	0.239634	-0.005646
1095	5.4700e-01	-3.7138	-20.264304	0.000727	7.274906	2.464805	-0.058077
1096	5.4750e-01	-3.7555	-20.457893	0.000485	4.849937	1.643203	-0.038718
1097	5.4800e-01	-3.7972	-20.627283	0.000424	4.243695	1.437803	-0.033878
1098	5.4850e-01	-3.8309	-20.885401	0.000647	6.466583	2.190938	-0.051624
1099	5.4900e-01	-3.8806	-21.018493	0.000333	3.334332	1.129702	-0.026618
1100	5.4950e-01	-3.9159	-21.066891	0.000121	1.212484	0.410801	-0.009679
1101	5.5000e-01	-3.9576	-21.377439	0.000778	7.780108	2.635972	-0.062110
1102	5.5050e-01	-3.9849	-21.857378	0.001202	12.023803	4.073775	-0.095988
1103	5.5100e-01	-4.0314	-21.897709	0.000101	1.010404	0.342334	-0.008066
1104	5.5150e-01	-4.0796	-21.986437	0.000222	2.222888	0.753135	-0.017746
1105	5.5200e-01	-4.1036	-22.333284	0.000869	8.689471	2.944073	-0.069369
1106	5.5250e-01	-4.1582	-22.502674	0.000424	4.243695	1.437803	-0.033878
1107	5.5300e-01	-4.1951	-22.684163	0.000455	4.546816	1.540503	-0.036298
1108	5.5350e-01	-4.2352	-22.990679	0.000768	7.679068	2.601738	-0.061303
1109	5.5400e-01	-4.2753	-22.986645	-0.000010	-0.101040	-0.034233	0.000807
1110	5.5450e-01	-4.3154	-23.063274	0.000192	1.919767	0.650435	-0.015326
1111	5.5500e-01	-4.3507	-23.272995	0.000525	5.254099	1.780137	-0.041944
1112	5.5550e-01	-4.3972	-23.660173	0.000970	9.699875	3.286407	-0.077435
1113	5.5600e-01	-4.4325	-23.817464	0.000394	3.940574	1.335103	-0.031458
1114	5.5650e-01	-4.4694	-24.027185	0.000525	5.254099	1.780137	-0.041944
1115	5.5700e-01	-4.5191	-24.204641	0.000445	4.445776	1.506270	-0.035491
1116	5.5750e-01	-4.5640	-24.418395	0.000536	5.355139	1.814370	-0.042751
1117	5.5800e-01	-4.5961	-24.478892	0.000152	1.515605	0.513501	-0.012099
1118	5.5850e-01	-4.6394	-24.805573	0.000818	8.184269	2.772906	-0.065336
1119	5.5900e-01	-4.6715	-25.023360	0.000546	5.456180	1.848604	-0.043557
1120	5.5950e-01	-4.7197	-25.346008	0.000808	8.083229	2.738672	-0.064530
1121	5.6000e-01	-4.7549	-25.676722	0.000829	8.285310	2.807139	-0.066143
1122	5.6050e-01	-4.7934	-25.692855	0.000040	0.404161	0.136934	-0.003226
1123	5.6100e-01	-4.8336	-25.842079	0.000374	3.738493	1.266636	-0.029845
1124	5.6150e-01	-4.8817	-25.854179	0.000030	0.303121	0.102700	-0.002420
1125	5.6200e-01	-4.9218	-26.027602	0.000434	4.344736	1.472036	-0.034685
1126	5.6250e-01	-4.9507	-26.471243	0.001111	11.114440	3.765674	-0.088728
1127	5.6300e-01	-4.9876	-26.721295	0.000626	6.264502	2.122471	-0.050010
1128	5.6350e-01	-5.0341	-26.753560	0.000081	0.808323	0.273867	-0.006453
1129	5.6400e-01	-5.0710	-26.854387	0.000253	2.526009	0.855835	-0.020165
1130	5.6450e-01	-5.1127	-27.084274	0.000576	5.759301	1.951304	-0.045977
1131	5.6500e-01	-5.1624	-27.511782	0.001071	10.710278	3.628741	-0.085502
1132	5.6550e-01	-5.1993	-27.580345	0.000172	1.717686	0.581968	-0.013713
1133	5.6600e-01	-5.2426	-27.673106	0.000232	2.323928	0.787368	-0.018552
1134	5.6650e-01	-5.2827	-27.902993	0.000576	5.759301	1.951304	-0.045977
1135	5.6700e-01	-5.3148	-28.161111	0.000647	6.466583	2.190938	-0.051624
1136	5.6750e-01	-5.3549	-28.213541	0.000131	1.313525	0.445034	-0.010486
1137	5.6800e-01	-5.4095	-28.415196	0.000505	5.052018	1.711670	-0.040331
1138	5.6850e-01	-5.4400	-28.729778	0.000788	7.881148	2.670205	-0.062916
1139	5.6900e-01	-5.4817	-28.943532	0.000536	5.355139	1.814370	-0.042751
1140	5.6950e-01	-5.5154	-28.999995	0.000141	1.414565	0.479268	-0.011293
1141	5.7000e-01	-5.5490	-29.241981	0.000606	6.062422	2.054004	-0.048397
1142	5.7050e-01	-5.5859	-29.564629	0.000808	8.083229	2.738672	-0.064530
1143	5.7100e-01	-5.6389	-29.709821	0.000364	3.637453	1.232402	-0.029038
1144	5.7150e-01	-5.6790	-29.875178	0.000414	4.142655	1.403569	-0.033071
1145	5.7200e-01	-5.7175	-30.008270	0.000333	3.334332	1.129702	-0.026618
1146	5.7250e-01	-5.7528	-30.347050	0.000849	8.487390	2.875606	-0.067756
1147	5.7300e-01	-5.7913	-30.705996	0.000899	8.992592	3.046773	-0.071789
1148	5.7350e-01	-5.8314	-30.677765	-0.000071	-0.707283	-0.239634	0.005646
1149	5.7400e-01	-5.8747	-30.758426	0.000202	2.020807	0.684668	-0.016132
1150	5.7450e-01	-5.9116	-31.258531	0.001253	12.529005	4.244942	-0.100021
1151	5.7500e-01	-5.9597	-31.435987	0.000445	4.445776	1.506270	-0.035491
1152	5.7550e-01	-5.9966	-31.440020	0.000010	0.101040	0.034233	-0.000807
1153	5.7600e-01	-6.0303	-31.932058	0.001233	12.326924	4.176475	-0.098408
1154	5.7650e-01	-6.0736	-31.972389	0.000101	1.010404	0.342334	-0.008066
1155	5.7700e-01	-6.1105	-32.222441	0.000626	6.264502	2.122471	-0.050010
1156	5.7750e-01	-6.1635	-32.230507	0.000020	0.202081	0.068467	-0.001613
1157	5.7800e-01	-6.1955	-32.440229	0.000525	5.254099	1.780137	-0.041944
1158	5.7850e-01	-6.2405	-32.537023	0.000242	2.424969	0.821602	-0.019359
1159	5.7900e-01	-6.2742	-32.859671	0.000808	8.083229	2.738672	-0.064530
1160	5.7950e-01	-6.3191	-32.984697	0.000313	3.132251	1.061235	-0.025005
1161	5.8000e-01	-6.3496	-33.444470	0.001152	11.518601	3.902608	-0.091955
1162	5.8050e-01	-6.3993	-33.456569	0.000030	0.303121	0.102700	-0.002420
1163	5.8100e-01	-6.4378	-33.831648	0.000940	9.396754	3.183706	-0.075016
1164	5.8150e-01	-6.4747	-33.984905	0.000384	3.839534	1.300869	-0.030652
1165	5.8200e-01	-6.5116	-34.061534	0.000192	1.919767	0.650435	-0.015326
1166	5.8250e-01	-6.5501	-34.017170	-0.000111	-1.111444	-0.376567	0.008873
1167	5.8300e-01	-6.5902	-34.521307	0.001263	12.630045	4.279175	-0.100827
1168	5.8350e-01	-6.6399	-34.501142	-0.000051	-0.505202	-0.171167	0.004033
1169	5.8400e-01	-6.6720	-34.674565	0.000434	4.344736	1.472036	-0.034685
1170	5.8450e-01	-6.7137	-35.017379	0.000859	8.588431	2.909839	-0.068563
1171	5.8500e-01	-6.7394	-35.198868	0.000455	4.546816	1.540503	-0.036298
1172	5.8550e-01	-6.7859	-35.247265	0.000121	1.212484	0.410801	-0.009679
1173	5.8600e-01	-6.8292	-35.525549	0.000697	6.971785	2.362105	-0.055657
1174	5.8650e-01	-6.8693	-35.920793	0.000990	9.901955	3.354873	-0.079049
1175	5.8700e-01	-6.9110	-35.965157	0.000111	1.111444	0.376567	-0.008873
1176	5.8750e-01	-6.9624	-36.146646	0.000455	4.546816	1.540503	-0.036298
1177	5.8800e-01	-6.9945	-36.251507	0.000263	2.627049	0.890068	-0.020972
1178	5.8850e-01	-7.0362	-36.566088	0.000788	7.881148	2.670205	-0.062916
1179	5.8900e-01	-7.0731	-36.937134	0.000930	9.295713	3.149473	-0.074209
1180	5.8950e-01	-7.1132	-36.916968	-0.000051	-0.505202	-0.171167	0.004033
1181	5.9000e-01	-7.1549	-37.033928	0.000293	2.930170	0.992769	-0.023392
1182	5.9050e-01	-7.1966	-37.340443	0.000768	7.679068	2.601738	-0.061303
1183	5.9100e-01	-7.2303	-37.646959	0.000768	7.679068	2.601738	-0.061303
1184	5.9150e-01	-7.2800	-37.747786	0.000253	2.526009	0.855835	-0.020165
1185	5.9200e-01	-7.3089	-37.989772	0.000606	6.062422	2.054004	-0.048397
1186	5.9250e-01	-7.3538	-38.215626	0.000566	5.658260	1.917070	-0.045171
1187	5.9300e-01	-7.3939	-38.389049	0.000434	4.344736	1.472036	-0.034685
1188	5.9350e-01	-7.4292	-38.425347	0.000091	0.909363	0.308101	-0.007260
1189	5.9400e-01	-7.4677	-38.691531	0.000667	6.668664	2.259404	-0.053237
1190	5.9450e-01	-7.5190	-38.893186	0.000505	5.052018	1.711670	-0.040331
1191	5.9500e-01	-7.5527	-38.824624	-0.000172	-1.717686	-0.581968	0.013713
1192	5.9550e-01	-7.5960	-39.183569	0.000899	8.992592	3.046773	-0.071789
1193	5.9600e-01	-7.6410	-39.562681	0.000950	9.497794	3.217940	-0.075822
1194	5.9650e-01	-7.6746	-39.687707	0.000313	3.132251	1.061235	-0.025005
1195	5.9700e-01	-7.7099	-39.780468	0.000232	2.323928	0.787368	-0.018552
1196	5.9750e-01	-7.7484	-40.026487	0.000616	6.163462	2.088237	-0.049204
1197	5.9800e-01	-7.7918	-40.373334	0.000869	8.689471	2.944073	-0.069369
1198	5.9850e-01	-7.8319	-40.316870	-0.000141	-1.414565	-0.479268	0.011293
1199	5.9900e-01	-7.8736	-40.591121	0.000687	6.870745	2.327871	-0.054850
1200	5.9950e-01	-7.9089	-40.643551	0.000131	1.313525	0.445034	-0.010486
1201	6.0000e-01	-7.9666	-40.990398	0.000869	8.689471	2.944073	-0.069369
1202	6.0050e-01	-7.9923	-41.079126	0.000222	2.222888	0.753135	-0.017746
1203	6.0100e-01	-8.0420	-41.264648	0.000465	4.647857	1.574736	-0.037105
1204	6.0150e-01	-8.0741	-41.325145	0.000152	1.515605	0.513501	-0.012099
1205	6.0200e-01	-8.1158	-41.728455	0.001010	10.104036	3.423340	-0.080662
1206	6.0250e-01	-8.1559	-41.986573	0.000647	6.466583	2.190938	-0.051624
1207	6.0300e-01	-8.1992	-42.208393	0.000556	5.557220	1.882837	-0.044364
1208	6.0350e-01	-8.2281	-42.337453	0.000323	3.233292	1.095469	-0.025812
1209	6.0400e-01	-8.2794	-42.401982	0.000162	1.616646	0.547734	-0.012906
1210	6.0450e-01	-8.3179	-42.502810	0.000253	2.526009	0.855835	-0.020165
1211	6.0500e-01	-8.3420	-42.833524	0.000829	8.285310	2.807139	-0.066143
1212	6.0550e-01	-8.3966	-43.127940	0.000738	7.375946	2.499038	-0.058883
1213	6.0600e-01	-8.4351	-43.252966	0.000313	3.132251	1.061235	-0.025005
1214	6.0650e-01	-8.4768	-43.470753	0.000546	5.456180	1.848604	-0.043557
1215	6.0700e-01	-8.5056	-43.644177	0.000434	4.344736	1.472036	-0.034685
1216	6.0750e-01	-8.5554	-43.672408	0.000071	0.707283	0.239634	-0.005646
1217	6.0800e-01	-8.5923	-44.063619	0.000980	9.800915	3.320640	-0.078242
1218	6.0850e-01	-8.6324	-44.103950	0.000101	1.010404	0.342334	-0.008066
1219	6.0900e-01	-8.6869	-44.337869	0.000586	5.860341	1.985537	-0.046784
1220	6.0950e-01	-8.7158	-44.684716	0.000869	8.689471	2.944073	-0.069369
1221	6.1000e-01	-8.7575	-44.793610	0.000273	2.728090	0.924302	-0.021779
1222	6.1050e-01	-8.7864	-44.979132	0.000465	4.647857	1.574736	-0.037105
1223	6.1100e-01	-8.8329	-45.120291	0.000354	3.536413	1.198169	-0.028232
1224	6.1150e-01	-8.8730	-45.394541	0.000687	6.870745	2.327871	-0.054850
1225	6.1200e-01	-8.9243	-45.487303	0.000232	2.323928	0.787368	-0.018552
1226	6.1250e-01	-8.9500	-45.692991	0.000515	5.153058	1.745903	-0.041138
1227	6.1300e-01	-8.9981	-45.890612	0.000495	4.950978	1.677437	-0.039524
1228	6.1350e-01	-9.0415	-45.939010	0.000121	1.212484	0.410801	-0.009679
1229	6.1400e-01	-9.0719	-46.257624	0.000798	7.982189	2.704439	-0.063723
1230	6.1450e-01	-9.1104	-46.390717	0.000333	3.334332	1.129702	-0.026618
1231	6.1500e-01	-9.1586	-46.414915	0.000061	0.606242	0.205400	-0.004840
1232	6.1550e-01	-9.1923	-46.669000	0.000637	6.365543	2.156704	-0.050817
1233	6.1600e-01	-9.2388	-46.894854	0.000566	5.658260	1.917070	-0.045171
1234	6.1650e-01	-9.2741	-47.048112	0.000384	3.839534	1.300869	-0.030652
1235	6.1700e-01	-9.3142	-47.136840	0.000222	2.222888	0.753135	-0.017746
1236	6.1750e-01	-9.3511	-47.503852	0.000919	9.194673	3.115240	-0.073402
1237	6.1800e-01	-9.3880	-47.701474	0.000495	4.950978	1.677437	-0.039524
1238	6.1850e-01	-9.4377	-47.862798	0.000404	4.041614	1.369336	-0.032265
1239	6.1900e-01	-9.4762	-48.003956	0.000354	3.536413	1.198169	-0.028232
1240	6.1950e-01	-9.5163	-48.145115	0.000354	3.536413	1.198169	-0.028232
1241	6.2000e-01	-9.5484	-48.249975	0.000263	2.627049	0.890068	-0.020972
1242	6.2050e-01	-9.5981	-48.459696	0.000525	5.254099	1.780137	-0.041944
1243	6.2100e-01	-9.6302	-48.996098	0.001344	13.438368	4.553042	-0.107280
1244	6.2150e-01	-9.6719	-49.028363	0.000081	0.808323	0.273867	-0.006453
1245	6.2200e-01	-9.7088	-49.004165	-0.000061	-0.606242	-0.205400	0.004840
1246	6.2250e-01	-9.7553	-49.242117	0.000596	5.961381	2.019771	-0.047591
1247	6.2300e-01	-9.7906	-49.346978	0.000263	2.627049	0.890068	-0.020972
1248	6.2350e-01	-9.8307	-49.718023	0.000930	9.295713	3.149473	-0.074209
1249	6.2400e-01	-9.8692	-49.943877	0.000566	5.658260	1.917070	-0.045171
1250	6.2450e-01	-9.9190	-50.201995	0.000647	6.466583	2.190938	-0.051624
1251	6.2500e-01	-9.9511	-50.072936	-0.000323	-3.233292	-1.095469	0.025812
1252	6.2550e-01	-10.0024	-50.302822	0.000576	5.759301	1.951304	-0.045977
1253	6.2600e-01	-10.0281	-50.698066	0.000990	9.901955	3.354873	-0.079049
1254	6.2650e-01	-10.0746	-50.802927	0.000263	2.627049	0.890068	-0.020972
1255	6.2700e-01	-10.1195	-50.887622	0.000212	2.121848	0.718901	-0.016939
1256	6.2750e-01	-10.1500	-51.182038	0.000738	7.375946	2.499038	-0.058883
1257	6.2800e-01	-10.1869	-51.250600	0.000172	1.717686	0.581968	-0.013713
1258	6.2850e-01	-10.2366	-51.500653	0.000626	6.264502	2.122471	-0.050010
1259	6.2900e-01	-10.2719	-51.726506	0.000566	5.658260	1.917070	-0.045171
1260	6.2950e-01	-10.3072	-51.742639	0.000040	0.404161	0.136934	-0.003226
1261	6.3000e-01	-10.3521	-52.266941	0.001314	13.135247	4.450342	-0.104861
1262	6.3050e-01	-10.3922	-52.319372	0.000131	1.313525	0.445034	-0.010486
1263	6.3100e-01	-10.4371	-52.327438	0.000020	0.202081	0.068467	-0.001613
1264	6.3150e-01	-10.4740	-52.537159	0.000525	5.254099	1.780137	-0.041944
1265	6.3200e-01	-10.5174	-52.654119	0.000293	2.930170	0.992769	-0.023392
1266	6.3250e-01	-10.5559	-52.706549	0.000131	1.313525	0.445034	-0.010486
1267	6.3300e-01	-10.5895	-53.093727	0.000970	9.699875	3.286407	-0.077435
1268	6.3350e-01	-10.6313	-53.275216	0.000455	4.546816	1.540503	-0.036298
1269	6.3400e-01	-10.6746	-53.468805	0.000485	4.849937	1.643203	-0.038718
1270	6.3450e-01	-10.7163	-53.747089	0.000697	6.971785	2.362105	-0.055657
1271	6.3500e-01	-10.7484	-53.847916	0.000253	2.526009	0.855835	-0.020165
1272	6.3550e-01	-10.8013	-54.053604	0.000515	5.153058	1.745903	-0.041138
1273	6.3600e-01	-10.8350	-54.251226	0.000495	4.950978	1.677437	-0.039524
1274	6.3650e-01	-10.8783	-54.505311	0.000637	6.365543	2.156704	-0.050817
1275	6.3700e-01	-10.9072	-54.646470	0.000354	3.536413	1.198169	-0.028232
1276	6.3750e-01	-10.9521	-54.944919	0.000748	7.476987	2.533272	-0.059690
1277	6.3800e-01	-10.9970	-54.710999	-0.000586	-5.860341	-1.985537	0.046784
1278	6.3850e-01	-11.0307	-54.948952	0.000596	5.961381	2.019771	-0.047591
1279	6.3900e-01	-11.0740	-55.271600	0.000808	8.083229	2.738672	-0.064530
1280	6.3950e-01	-11.1205	-55.368394	0.000242	2.424969	0.821602	-0.019359
1281	6.4000e-01	-11.1526	-55.553917	0.000465	4.647857	1.574736	-0.037105
1282	6.4050e-01	-11.1847	-55.824134	0.000677	6.769704	2.293638	-0.054044
1283	6.4100e-01	-11.2344	-56.219378	0.000990	9.901955	3.354873	-0.079049
1284	6.4150e-01	-11.2778	-56.058054	-0.000404	-4.041614	-1.369336	0.032265
1285	6.4200e-01	-11.3243	-56.211312	0.000384	3.839534	1.300869	-0.030652
1286	6.4250e-01	-11.3467	-56.550092	0.000849	8.487390	2.875606	-0.067756
1287	6.4300e-01	-11.3965	-56.719482	0.000424	4.243695	1.437803	-0.033878
1288	6.4350e-01	-11.4382	-56.941303	0.000556	5.557220	1.882837	-0.044364
1289	6.4400e-01	-11.4767	-57.054229	0.000283	2.829130	0.958535	-0.022585
1290	6.4450e-01	-11.5168	-57.272017	0.000546	5.456180	1.848604	-0.043557
1291	6.4500e-01	-11.5441	-57.566433	0.000738	7.375946	2.499038	-0.058883
1292	6.4550e-01	-11.6002	-57.647095	0.000202	2.020807	0.684668	-0.016132
1293	6.4600e-01	-11.6355	-57.792286	0.000364	3.637453	1.232402	-0.029038
1294	6.4650e-01	-11.6724	-57.868915	0.000192	1.919767	0.650435	-0.015326
1295	6.4700e-01	-11.7141	-58.094769	0.000566	5.658260	1.917070	-0.045171
1296	6.4750e-01	-11.7574	-58.268192	0.000434	4.344736	1.472036	-0.034685
1297	6.4800e-01	-11.7895	-58.421450	0.000384	3.839534	1.300869	-0.030652
1298	6.4850e-01	-11.8312	-58.663436	0.000606	6.062422	2.054004	-0.048397
1299	6.4900e-01	-11.8713	-58.905422	0.000606	6.062422	2.054004	-0.048397
1300	6.4950e-01	-11.9146	-59.034481	0.000323	3.233292	1.095469	-0.025812
1301	6.5000e-01	-11.9483	-59.135308	0.000253	2.526009	0.855835	-0.020165
1302	6.5050e-01	-11.9916	-59.244202	0.000273	2.728090	0.924302	-0.021779
1303	6.5100e-01	-12.0430	-59.441824	0.000495	4.950978	1.677437	-0.039524
1304	6.5150e-01	-12.0783	-59.849167	0.001021	10.205077	3.457574	-0.081469
1305	6.5200e-01	-12.1200	-59.833034	-0.000040	-0.404161	-0.136934	0.003226
1306	6.5250e-01	-12.1505	-60.018557	0.000465	4.647857	1.574736	-0.037105
1307	6.5300e-01	-12.1986	-60.200046	0.000455	4.546816	1.540503	-0.036298
1308	6.5350e-01	-12.2307	-60.506562	0.000768	7.679068	2.601738	-0.061303
1309	6.5400e-01	-12.2676	-60.530760	0.000061	0.606242	0.205400	-0.004840
1310	6.5450e-01	-12.3157	-60.740481	0.000525	5.254099	1.780137	-0.041944
1311	6.5500e-01	-12.3638	-60.998600	0.000647	6.466583	2.190938	-0.051624
1312	6.5550e-01	-12.3943	-61.063129	0.000162	1.616646	0.547734	-0.012906
1313	6.5600e-01	-12.4392	-61.119593	0.000141	1.414565	0.479268	-0.011293
1314	6.5650e-01	-12.4697	-61.414009	0.000738	7.375946	2.499038	-0.058883
1315	6.5700e-01	-12.5210	-61.619697	0.000515	5.153058	1.745903	-0.041138
1316	6.5750e-01	-12.5531	-61.672127	0.000131	1.313525	0.445034	-0.010486
1317	6.5800e-01	-12.5964	-61.712458	0.000101	1.010404	0.342334	-0.008066
1318	6.5850e-01	-12.6365	-62.006874	0.000738	7.375946	2.499038	-0.058883
1319	6.5900e-01	-12.6718	-62.410184	0.001010	10.104036	3.423340	-0.080662
1320	6.5950e-01	-12.7119	-62.293224	-0.000293	-2.930170	-0.992769	0.023392
1321	6.6000e-01	-12.7617	-62.535210	0.000606	6.062422	2.054004	-0.048397
1322	6.6050e-01	-12.7970	-62.696534	0.000404	4.041614	1.369336	-0.032265
1323	6.6100e-01	-12.8339	-62.942553	0.000616	6.163462	2.088237	-0.049204
1324	6.6150e-01	-12.8772	-63.406360	0.001162	11.619642	3.936841	-0.092761
1325	6.6200e-01	-12.9157	-63.503154	0.000242	2.424969	0.821602	-0.019359
1326	6.6250e-01	-12.9542	-63.563651	0.000152	1.515605	0.513501	-0.012099
1327	6.6300e-01	-12.9959	-63.644312	0.000202	2.020807	0.684668	-0.016132
1328	6.6350e-01	-13.0376	-63.805636	0.000404	4.041614	1.369336	-0.032265
1329	6.6400e-01	-13.0809	-63.942762	0.000344	3.435372	1.163936	-0.027425
1330	6.6450e-01	-13.1162	-64.051655	0.000273	2.728090	0.924302	-0.021779
1331	6.6500e-01	-13.1547	-64.358171	0.000768	7.679068	2.601738	-0.061303
1332	6.6550e-01	-13.1932	-64.495296	0.000344	3.435372	1.163936	-0.027425
1333	6.6600e-01	-13.2333	-64.713084	0.000546	5.456180	1.848604	-0.043557
1334	6.6650e-01	-13.2718	-64.850209	0.000344	3.435372	1.163936	-0.027425
1335	6.6700e-01	-13.3167	-65.027665	0.000445	4.445776	1.506270	-0.035491
1336	6.6750e-01	-13.3488	-65.100261	0.000182	1.818727	0.616201	-0.014519
1337	6.6800e-01	-13.4018	-65.326115	0.000566	5.658260	1.917070	-0.045171
1338	6.6850e-01	-13.4322	-65.636663	0.000778	7.780108	2.635972	-0.062110
1339	6.6900e-01	-13.4723	-65.753623	0.000293	2.930170	0.992769	-0.023392
1340	6.6950e-01	-13.5108	-65.769755	0.000040	0.404161	0.136934	-0.003226
1341	6.7000e-01	-13.5606	-65.858484	0.000222	2.222888	0.753135	-0.017746
1342	6.7050e-01	-13.5846	-66.233562	0.000940	9.396754	3.183706	-0.075016
1343	6.7100e-01	-13.6408	-66.411018	0.000445	4.445776	1.506270	-0.035491
1344	6.7150e-01	-13.6761	-66.608640	0.000495	4.950978	1.677437	-0.039524
1345	6.7200e-01	-13.7146	-66.790129	0.000455	4.546816	1.540503	-0.036298
1346	6.7250e-01	-13.7547	-66.979685	0.000475	4.748897	1.608970	-0.037911
1347	6.7300e-01	-13.7916	-66.991784	0.000030	0.303121	0.102700	-0.002420
1348	6.7350e-01	-13.8365	-67.290234	0.000748	7.476987	2.533272	-0.059690
1349	6.7400e-01	-13.8798	-67.395094	0.000263	2.627049	0.890068	-0.020972
1350	6.7450e-01	-13.9135	-67.459624	0.000162	1.616646	0.547734	-0.012906
1351	6.7500e-01	-13.9520	-67.770172	0.000778	7.780108	2.635972	-0.062110
1352	6.7550e-01	-14.0050	-67.766139	-0.000010	-0.101040	-0.034233	0.000807
1353	6.7600e-01	-14.0242	-67.996026	0.000576	5.759301	1.951304	-0.045977
1354	6.7650e-01	-14.0771	-68.375137	0.000950	9.497794	3.217940	-0.075822
1355	6.7700e-01	-14.1124	-68.451766	0.000192	1.919767	0.650435	-0.015326
1356	6.7750e-01	-14.1509	-68.552593	0.000253	2.526009	0.855835	-0.020165
1357	6.7800e-01	-14.1846	-68.661487	0.000273	2.728090	0.924302	-0.021779
1358	6.7850e-01	-14.2344	-68.939771	0.000697	6.971785	2.362105	-0.055657
1359	6.7900e-01	-14.2793	-69.028499	0.000222	2.222888	0.753135	-0.017746
1360	6.7950e-01	-14.3114	-69.326948	0.000748	7.476987	2.533272	-0.059690
1361	6.8000e-01	-14.3627	-69.363246	0.000091	0.909363	0.308101	-0.007260
1362	6.8050e-01	-14.3868	-69.460041	0.000242	2.424969	0.821602	-0.019359
1363	6.8100e-01	-14.4253	-69.685894	0.000566	5.658260	1.917070	-0.045171
1364	6.8150e-01	-14.4670	-70.016608	0.000829	8.285310	2.807139	-0.066143
1365	6.8200e-01	-14.5183	-69.903682	-0.000283	-2.829130	-0.958535	0.022585
1366	6.8250e-01	-14.5552	-70.270693	0.000919	9.194673	3.115240	-0.073402
1367	6.8300e-01	-14.5953	-70.484448	0.000536	5.355139	1.814370	-0.042751
1368	6.8350e-01	-14.6274	-70.508646	0.000061	0.606242	0.205400	-0.004840
1369	6.8400e-01	-14.6723	-70.803063	0.000738	7.375946	2.499038	-0.058883
1370	6.8450e-01	-14.7220	-70.790963	-0.000030	-0.303121	-0.102700	0.002420
1371	6.8500e-01	-14.7557	-70.992618	0.000505	5.052018	1.711670	-0.040331
1372	6.8550e-01	-14.7910	-71.262836	0.000677	6.769704	2.293638	-0.054044
1373	6.8600e-01	-14.8327	-71.412060	0.000374	3.738493	1.266636	-0.029845
1374	6.8650e-01	-14.8728	-71.492722	0.000202	2.020807	0.684668	-0.016132
1375	6.8700e-01	-14.9097	-71.666146	0.000434	4.344736	1.472036	-0.034685
1376	6.8750e-01	-14.9531	-72.000893	0.000839	8.386350	2.841372	-0.066949
1377	6.8800e-01	-14.9948	-71.972661	-0.000071	-0.707283	-0.239634	0.005646
1378	6.8850e-01	-15.0333	-72.142051	0.000424	4.243695	1.437803	-0.033878
1379	6.8900e-01	-15.0782	-72.371938	0.000576	5.759301	1.951304	-0.045977
1380	6.8950e-01	-15.1135	-72.533262	0.000404	4.041614	1.369336	-0.032265
1381	6.9000e-01	-15.1584	-72.815579	0.000707	7.072825	2.396338	-0.056463
1382	6.9050e-01	-15.1937	-72.831711	0.000040	0.404161	0.136934	-0.003226
1383	6.9100e-01	-15.2322	-73.005134	0.000434	4.344736	1.472036	-0.034685
1384	6.9150e-01	-15.2739	-73.174524	0.000424	4.243695	1.437803	-0.033878
1385	6.9200e-01	-15.3220	-73.416510	0.000606	6.062422	2.054004	-0.048397
1386	6.9250e-01	-15.3525	-73.485073	0.000172	1.717686	0.581968	-0.013713
1387	6.9300e-01	-15.4006	-73.541536	0.000141	1.414565	0.479268	-0.011293
1388	6.9350e-01	-15.4407	-73.896449	0.000889	8.891552	3.012539	-0.070983
1389	6.9400e-01	-15.4712	-74.086005	0.000475	4.748897	1.608970	-0.037911
1390	6.9450e-01	-15.5145	-74.110203	0.000061	0.606242	0.205400	-0.004840
1391	6.9500e-01	-15.5546	-74.307825	0.000495	4.950978	1.677437	-0.039524
1392	6.9550e-01	-15.5947	-74.432851	0.000313	3.132251	1.061235	-0.025005
1393	6.9600e-01	-15.6365	-74.759532	0.000818	8.184269	2.772906	-0.065336
1394	6.9650e-01	-15.6718	-74.811963	0.000131	1.313525	0.445034	-0.010486
1395	6.9700e-01	-15.7231	-74.872459	0.000152	1.515605	0.513501	-0.012099
1396	6.9750e-01	-15.7584	-75.239471	0.000919	9.194673	3.115240	-0.073402
1397	6.9800e-01	-15.7937	-75.271736	0.000081	0.808323	0.273867	-0.006453
1398	6.9850e-01	-15.8338	-75.384663	0.000283	2.829130	0.958535	-0.022585
1399	6.9900e-01	-15.8755	-75.550020	0.000414	4.142655	1.403569	-0.033071
1400	6.9950e-01	-15.9156	-75.654880	0.000263	2.627049	0.890068	-0.020972
1401	7.0000e-01	-15.9541	-75.961396	0.000768	7.679068	2.601738	-0.061303
1402	7.0050e-01	-15.9942	-76.042058	0.000202	2.020807	0.684668	-0.016132
1403	7.0100e-01	-16.0327	-76.163051	0.000303	3.031211	1.027002	-0.024199
1404	7.0150e-01	-16.0728	-76.473599	0.000778	7.780108	2.635972	-0.062110
1405	7.0200e-01	-16.1209	-76.622824	0.000374	3.738493	1.266636	-0.029845
1406	7.0250e-01	-16.1498	-76.538129	-0.000212	-2.121848	-0.718901	0.016939
1407	7.0300e-01	-16.1899	-76.808346	0.000677	6.769704	2.293638	-0.054044
1408	7.0350e-01	-16.2284	-77.203590	0.000990	9.901955	3.354873	-0.079049
1409	7.0400e-01	-16.2669	-77.401212	0.000495	4.950978	1.677437	-0.039524
1410	7.0450e-01	-16.3022	-77.510105	0.000273	2.728090	0.924302	-0.021779
1411	7.0500e-01	-16.3616	-77.377013	-0.000333	-3.334332	-1.129702	0.026618
1412	7.0550e-01	-16.3921	-77.590767	0.000536	5.355139	1.814370	-0.042751
1413	7.0600e-01	-16.4306	-77.998110	0.001021	10.205077	3.457574	-0.081469
1414	7.0650e-01	-16.4658	-78.070706	0.000182	1.818727	0.616201	-0.014519
1415	7.0700e-01	-16.5188	-78.207832	0.000344	3.435372	1.163936	-0.027425
1416	7.0750e-01	-16.5589	-78.296560	0.000222	2.222888	0.753135	-0.017746
1417	7.0800e-01	-16.5910	-78.566777	0.000677	6.769704	2.293638	-0.054044
1418	7.0850e-01	-16.6311	-78.623241	0.000141	1.414565	0.479268	-0.011293
1419	7.0900e-01	-16.6696	-78.937822	0.000788	7.881148	2.670205	-0.062916
1420	7.0950e-01	-16.7225	-79.050749	0.000283	2.829130	0.958535	-0.022585
1421	7.1000e-01	-16.7546	-79.187875	0.000344	3.435372	1.163936	-0.027425
1422	7.1050e-01	-16.7915	-79.486324	0.000748	7.476987	2.533272	-0.059690
1423	7.1100e-01	-16.8332	-79.538754	0.000131	1.313525	0.445034	-0.010486
1424	7.1150e-01	-16.8701	-79.732343	0.000485	4.849937	1.643203	-0.038718
1425	7.1200e-01	-16.9102	-79.825104	0.000232	2.323928	0.787368	-0.018552
1426	7.1250e-01	-16.9583	-79.929965	0.000263	2.627049	0.890068	-0.020972
1427	7.1300e-01	-16.9888	-80.224381	0.000738	7.375946	2.499038	-0.058883
1428	7.1350e-01	-17.0289	-80.361506	0.000344	3.435372	1.163936	-0.027425
1429	7.1400e-01	-17.0835	-80.639790	0.000697	6.971785	2.362105	-0.055657
1430	7.1450e-01	-17.1140	-80.643823	0.000010	0.101040	0.034233	-0.000807
1431	7.1500e-01	-17.1557	-80.865644	0.000556	5.557220	1.882837	-0.044364
1432	7.1550e-01	-17.1894	-81.035034	0.000424	4.243695	1.437803	-0.033878
1433	7.1600e-01	-17.2343	-81.099563	0.000162	1.616646	0.547734	-0.012906
1434	7.1650e-01	-17.2680	-81.361715	0.000657	6.567624	2.225171	-0.052430
1435	7.1700e-01	-17.3177	-81.345582	-0.000040	-0.404161	-0.136934	0.003226
1436	7.1750e-01	-17.3578	-81.583535	0.000596	5.961381	2.019771	-0.047591
1437	7.1800e-01	-17.4011	-81.728727	0.000364	3.637453	1.232402	-0.029038
1438	7.1850e-01	-17.4348	-81.785190	0.000141	1.414565	0.479268	-0.011293
1439	7.1900e-01	-17.4621	-82.075573	0.000727	7.274906	2.464805	-0.058077
1440	7.1950e-01	-17.5198	-82.301427	0.000566	5.658260	1.917070	-0.045171
1441	7.2000e-01	-17.5583	-82.527280	0.000566	5.658260	1.917070	-0.045171
1442	7.2050e-01	-17.5968	-82.765233	0.000596	5.961381	2.019771	-0.047591
1443	7.2100e-01	-17.6353	-82.728935	-0.000091	-0.909363	-0.308101	0.007260
1444	7.2150e-01	-17.6674	-83.023351	0.000738	7.375946	2.499038	-0.058883
1445	7.2200e-01	-17.7155	-83.216940	0.000485	4.849937	1.643203	-0.038718
1446	7.2250e-01	-17.7556	-83.475058	0.000647	6.466583	2.190938	-0.051624
1447	7.2300e-01	-17.7974	-83.491191	0.000040	0.404161	0.136934	-0.003226
1448	7.2350e-01	-17.8391	-83.704945	0.000536	5.355139	1.814370	-0.042751
1449	7.2400e-01	-17.8760	-83.894501	0.000475	4.748897	1.608970	-0.037911
1450	7.2450e-01	-17.9161	-84.011460	0.000293	2.930170	0.992769	-0.023392
1451	7.2500e-01	-17.9562	-84.201016	0.000475	4.748897	1.608970	-0.037911
1452	7.2550e-01	-17.9995	-84.386539	0.000465	4.647857	1.574736	-0.037105
1453	7.2600e-01	-18.0380	-84.305877	-0.000202	-2.020807	-0.684668	0.016132
1454	7.2650e-01	-18.0717	-84.628525	0.000808	8.083229	2.738672	-0.064530
1455	7.2700e-01	-18.1214	-84.757584	0.000323	3.233292	1.095469	-0.025812
1456	7.2750e-01	-18.1567	-84.874544	0.000293	2.930170	0.992769	-0.023392
1457	7.2800e-01	-18.1920	-85.229456	0.000889	8.891552	3.012539	-0.070983
1458	7.2850e-01	-18.2337	-85.423045	0.000485	4.849937	1.643203	-0.038718
1459	7.2900e-01	-18.2722	-85.515806	0.000232	2.323928	0.787368	-0.018552
1460	7.2950e-01	-18.3091	-85.527906	0.000030	0.303121	0.102700	-0.002420
1461	7.3000e-01	-18.3524	-85.781991	0.000637	6.365543	2.156704	-0.050817
1462	7.3050e-01	-18.4006	-85.894917	0.000283	2.829130	0.958535	-0.022585
1463	7.3100e-01	-18.4439	-85.947348	0.000131	1.313525	0.445034	-0.010486
1464	7.3150e-01	-18.4759	-86.132870	0.000465	4.647857	1.574736	-0.037105
1465	7.3200e-01	-18.5273	-86.479717	0.000869	8.689471	2.944073	-0.069369
1466	7.3250e-01	-18.5562	-86.725736	0.000616	6.163462	2.088237	-0.049204
1467	7.3300e-01	-18.5979	-86.810431	0.000212	2.121848	0.718901	-0.016939
1468	7.3350e-01	-18.6348	-86.915291	0.000263	2.627049	0.890068	-0.020972
1469	7.3400e-01	-18.6685	-87.197608	0.000707	7.072825	2.396338	-0.056463
1470	7.3450e-01	-18.7134	-87.391197	0.000485	4.849937	1.643203	-0.038718
1471	7.3500e-01	-18.7535	-87.572687	0.000455	4.546816	1.540503	-0.036298
1472	7.3550e-01	-18.7936	-87.600918	0.000071	0.707283	0.239634	-0.005646
1473	7.3600e-01	-18.8433	-87.927599	0.000818	8.184269	2.772906	-0.065336
1474	7.3650e-01	-18.8754	-87.939698	0.000030	0.303121	0.102700	-0.002420
1475	7.3700e-01	-18.9171	-88.185717	0.000616	6.163462	2.088237	-0.049204
1476	7.3750e-01	-18.9604	-88.266379	0.000202	2.020807	0.684668	-0.016132
1477	7.3800e-01	-18.9973	-88.451902	0.000465	4.647857	1.574736	-0.037105
1478	7.3850e-01	-19.0374	-88.532564	0.000202	2.020807	0.684668	-0.016132
1479	7.3900e-01	-19.0840	-88.653557	0.000303	3.031211	1.027002	-0.024199
1480	7.3950e-01	-19.1289	-89.000403	0.000869	8.689471	2.944073	-0.069369
1481	7.4000e-01	-19.1626	-89.202058	0.000505	5.052018	1.711670	-0.040331
1482	7.4050e-01	-19.1946	-89.266588	0.000162	1.616646	0.547734	-0.012906
1483	7.4100e-01	-19.2428	-89.460177	0.000485	4.849937	1.643203	-0.038718
1484	7.4150e-01	-19.2749	-89.569070	0.000273	2.728090	0.924302	-0.021779
1485	7.4200e-01	-19.3214	-90.093373	0.001314	13.135247	4.450342	-0.104861
1486	7.4250e-01	-19.3615	-89.988513	-0.000263	-2.627049	-0.890068	0.020972
1487	7.4300e-01	-19.3888	-90.065141	0.000192	1.919767	0.650435	-0.015326
1488	7.4350e-01	-19.4385	-90.464418	0.001000	10.002996	3.389107	-0.079855
1489	7.4400e-01	-19.4690	-90.528948	0.000162	1.616646	0.547734	-0.012906
1490	7.4450e-01	-19.5107	-90.750768	0.000556	5.557220	1.882837	-0.044364
1491	7.4500e-01	-19.5556	-90.863695	0.000283	2.829130	0.958535	-0.022585
1492	7.4550e-01	-19.5989	-91.109714	0.000616	6.163462	2.088237	-0.049204
1493	7.4600e-01	-19.6374	-91.275071	0.000414	4.142655	1.403569	-0.033071
1494	7.4650e-01	-19.6727	-91.367832	0.000232	2.323928	0.787368	-0.018552
1495	7.4700e-01	-19.7144	-91.573520	0.000515	5.153058	1.745903	-0.041138
1496	7.4750e-01	-19.7625	-91.658215	0.000212	2.121848	0.718901	-0.016939
1497	7.4800e-01	-19.7866	-91.976830	0.000798	7.982189	2.704439	-0.063723
1498	7.4850e-01	-19.8363	-92.198651	0.000556	5.557220	1.882837	-0.044364
1499	7.4900e-01	-19.8732	-92.214783	0.000040	0.404161	0.136934	-0.003226
1500	7.4950e-01	-19.9117	-92.464835	0.000626	6.264502	2.122471	-0.050010
1501	7.5000e-01	-19.9551	-92.674556	0.000525	5.254099	1.780137	-0.041944
1502	7.5050e-01	-19.9599	-92.670523	-0.000010	-0.101040	-0.034233	0.000807
1503	7.5100e-01	-19.9358	-92.626159	0.000111	1.111444	0.376567	0.008873
1504	7.5150e-01	-19.8925	-92.509199	0.000293	2.930170	0.992769	0.023392
1505	7.5200e-01	-19.8508	-92.577762	-0.000172	-1.717686	-0.581968	-0.013713
1506	7.5250e-01	-19.8235	-92.440637	0.000344	3.435372	1.163936	0.027425
1507	7.5300e-01	-19.7850	-92.323677	0.000293	2.930170	0.992769	0.023392
1508	7.5350e-01	-19.7321	-92.347875	-0.000061	-0.606242	-0.205400	-0.004840
1509	7.5400e-01	-19.6952	-92.146220	0.000505	5.052018	1.711670	0.040331
1510	7.5450e-01	-19.6631	-92.117989	0.000071	0.707283	0.239634	0.005646
1511	7.5500e-01	-19.6214	-91.916334	0.000505	5.052018	1.711670	0.040331
1512	7.5550e-01	-19.5748	-91.964731	-0.000121	-1.212484	-0.410801	-0.009679
1513	7.5600e-01	-19.5299	-91.783241	0.000455	4.546816	1.540503	0.036298
1514	7.5650e-01	-19.4994	-91.658215	0.000313	3.132251	1.061235	0.025005
1515	7.5700e-01	-19.4545	-91.666282	-0.000020	-0.202081	-0.068467	-0.001613
1516	7.5750e-01	-19.4192	-91.553355	0.000283	2.829130	0.958535	0.022585
1517	7.5800e-01	-19.3791	-91.275071	0.000697	6.971785	2.362105	0.055657
1518	7.5850e-01	-19.3422	-91.053251	0.000556	5.557220	1.882837	0.044364
1519	7.5900e-01	-19.2973	-91.190376	-0.000344	-3.435372	-1.163936	-0.027425
1520	7.5950e-01	-19.2620	-91.133913	0.000141	1.414565	0.479268	0.011293
1521	7.6000e-01	-19.2187	-91.117780	0.000040	0.404161	0.136934	0.003226
1522	7.6050e-01	-19.1818	-90.811265	0.000768	7.679068	2.601738	0.061303
1523	7.6100e-01	-19.1401	-90.859662	-0.000121	-1.212484	-0.410801	-0.009679
1524	7.6150e-01	-19.1000	-90.645908	0.000536	5.355139	1.814370	0.042751
1525	7.6200e-01	-19.0631	-90.496683	0.000374	3.738493	1.266636	0.029845
1526	7.6250e-01	-19.0182	-90.488617	0.000020	0.202081	0.068467	0.001613
1527	7.6300e-01	-18.9797	-90.319227	0.000424	4.243695	1.437803	0.033878
1528	7.6350e-01	-18.9364	-90.226465	0.000232	2.323928	0.787368	0.018552
1529	7.6400e-01	-18.9043	-90.085307	0.000354	3.536413	1.198169	0.028232
1530	7.6450e-01	-18.8642	-89.915917	0.000424	4.243695	1.437803	0.033878
1531	7.6500e-01	-18.8209	-89.915917	0.000000	0.000000	0.000000	0.000000
1532	7.6550e-01	-18.7727	-89.883652	0.000081	0.808323	0.273867	0.006453
1533	7.6600e-01	-18.7358	-89.569070	0.000788	7.881148	2.670205	0.062916
1534	7.6650e-01	-18.6925	-89.686030	-0.000293	-2.930170	-0.992769	-0.023392
1535	7.6700e-01	-18.6588	-89.440011	0.000616	6.163462	2.088237	0.049204
1536	7.6750e-01	-18.6139	-89.314985	0.000313	3.132251	1.061235	0.025005
1537	7.6800e-01	-18.5834	-89.121396	0.000485	4.849937	1.643203	0.038718
1538	7.6850e-01	-18.5401	-89.165760	-0.000111	-1.111444	-0.376567	-0.008873
1539	7.6900e-01	-18.5080	-88.996370	0.000424	4.243695	1.437803	0.033878
1540	7.6950e-01	-18.4567	-88.726153	0.000677	6.769704	2.293638	0.054044
1541	7.7000e-01	-18.4246	-88.790682	-0.000162	-1.616646	-0.547734	-0.012906
1542	7.7050e-01	-18.3861	-88.633391	0.000394	3.940574	1.335103	0.031458
1543	7.7100e-01	-18.3460	-88.242181	0.000980	9.800915	3.320640	0.078242
1544	7.7150e-01	-18.2947	-88.266379	-0.000061	-0.606242	-0.205400	-0.004840
1545	7.7200e-01	-18.2594	-88.129254	0.000344	3.435372	1.163936	0.027425
1546	7.7250e-01	-18.2257	-88.193784	-0.000162	-1.616646	-0.547734	-0.012906
1547	7.7300e-01	-18.1824	-87.931632	0.000657	6.567624	2.225171	0.052430
1548	7.7350e-01	-18.1391	-87.810639	0.000303	3.031211	1.027002	0.024199
1549	7.7400e-01	-18.0941	-87.677547	0.000333	3.334332	1.129702	0.026618
1550	7.7450e-01	-18.0556	-87.645282	0.000081	0.808323	0.273867	0.006453
1551	7.7500e-01	-18.0316	-87.318601	0.000818	8.184269	2.772906	0.065336
1552	7.7550e-01	-17.9754	-87.306502	0.000030	0.303121	0.102700	0.002420
1553	7.7600e-01	-17.9401	-87.181476	0.000313	3.132251	1.061235	0.025005
1554	7.7650e-01	-17.8856	-87.092748	0.000222	2.222888	0.753135	0.017746
1555	7.7700e-01	-17.8599	-87.080648	0.000030	0.303121	0.102700	0.002420
1556	7.7750e-01	-17.8102	-86.758001	0.000808	8.083229	2.738672	0.064530
1557	7.7800e-01	-17.7765	-86.802365	-0.000111	-1.111444	-0.376567	-0.008873
1558	7.7850e-01	-17.7396	-86.669272	0.000333	3.334332	1.129702	0.026618
1559	7.7900e-01	-17.7059	-86.612809	0.000141	1.414565	0.479268	0.011293
1560	7.7950e-01	-17.6610	-86.427286	0.000465	4.647857	1.574736	0.037105
1561	7.8000e-01	-17.6113	-86.169168	0.000647	6.466583	2.190938	0.051624
1562	7.8050e-01	-17.5712	-86.181267	-0.000030	-0.303121	-0.102700	-0.002420
1563	7.8100e-01	-17.5375	-85.927182	0.000637	6.365543	2.156704	0.050817
1564	7.8150e-01	-17.5038	-85.826355	0.000253	2.526009	0.855835	0.020165
1565	7.8200e-01	-17.4605	-85.830388	-0.000010	-0.101040	-0.034233	-0.000807
1566	7.8250e-01	-17.4204	-85.596468	0.000586	5.860341	1.985537	0.046784
1567	7.8300e-01	-17.3770	-85.560170	0.000091	0.909363	0.308101	0.007260
1568	7.8350e-01	-17.3450	-85.370615	0.000475	4.748897	1.608970	0.037911
1569	7.8400e-01	-17.2984	-85.225423	0.000364	3.637453	1.232402	0.029038
1570	7.8450e-01	-17.2551	-85.007636	0.000546	5.456180	1.848604	0.043557
1571	7.8500e-01	-17.2166	-84.846312	0.000404	4.041614	1.369336	0.032265
1572	7.8550e-01	-17.1765	-84.745484	0.000253	2.526009	0.855835	0.020165
1573	7.8600e-01	-17.1348	-84.624491	0.000303	3.031211	1.027002	0.024199
1574	7.8650e-01	-17.1091	-84.531730	0.000232	2.323928	0.787368	0.018552
1575	7.8700e-01	-17.0562	-84.568028	-0.000091	-0.909363	-0.308101	-0.007260
1576	7.8750e-01	-17.0161	-84.406704	0.000404	4.041614	1.369336	0.032265
1577	7.8800e-01	-16.9888	-84.188917	0.000546	5.456180	1.848604	0.043557
1578	7.8850e-01	-16.9391	-84.007427	0.000455	4.546816	1.540503	0.036298
1579	7.8900e-01	-16.8990	-83.971129	0.000091	0.909363	0.308101	0.007260
1580	7.8950e-01	-16.8605	-83.700912	0.000677	6.769704	2.293638	0.054044
1581	7.9000e-01	-16.8156	-83.543621	0.000394	3.940574	1.335103	0.031458
1582	7.9050e-01	-16.7739	-83.559753	-0.000040	-0.404161	-0.136934	-0.003226
1583	7.9100e-01	-16.7305	-83.426661	0.000333	3.334332	1.129702	0.026618
1584	7.9150e-01	-16.6953	-83.277436	0.000374	3.738493	1.266636	0.029845
1585	7.9200e-01	-16.6567	-83.091914	0.000465	4.647857	1.574736	0.037105
1586	7.9250e-01	-16.6215	-82.833796	0.000647	6.466583	2.190938	0.051624
1587	7.9300e-01	-16.5797	-82.801531	0.000081	0.808323	0.273867	0.006453
1588	7.9350e-01	-16.5316	-82.773299	0.000071	0.707283	0.239634	0.005646
1589	7.9400e-01	-16.4979	-82.519214	0.000637	6.365543	2.156704	0.050817
1590	7.9450e-01	-16.4498	-82.293360	0.000566	5.658260	1.917070	0.045171
1591	7.9500e-01	-16.4209	-82.337725	-0.000111	-1.111444	-0.376567	-0.008873
1592	7.9550e-01	-16.3712	-82.111871	0.000566	5.658260	1.917070	0.045171
1593	7.9600e-01	-16.3343	-82.047341	0.000162	1.616646	0.547734	0.012906
1594	7.9650e-01	-16.2958	-81.950547	0.000242	2.424969	0.821602	0.019359
1595	7.9700e-01	-16.2589	-81.914249	0.000091	0.909363	0.308101	0.007260
1596	7.9750e-01	-16.2188	-81.571436	0.000859	8.588431	2.909839	0.068563
1597	7.9800e-01	-16.1819	-81.333483	0.000596	5.961381	2.019771	0.047591
1598	7.9850e-01	-16.1370	-81.293152	0.000101	1.010404	0.342334	0.008066
1599	7.9900e-01	-16.0969	-81.317351	-0.000061	-0.606242	-0.205400	-0.004840
1600	7.9950e-01	-16.0503	-81.119729	0.000495	4.950978	1.677437	0.039524
1601	8.0000e-01	-16.0199	-81.115696	0.000010	0.101040	0.034233	0.000807
1602	8.0050e-01	-15.9782	-80.744651	0.000930	9.295713	3.149473	0.074209
1603	8.0100e-01	-15.9348	-80.704320	0.000101	1.010404	0.342334	0.008066
1604	8.0150e-01	-15.9076	-80.434102	0.000677	6.769704	2.293638	0.054044
1605	8.0200e-01	-15.8530	-80.353440	0.000202	2.020807	0.684668	0.016132
1606	8.0250e-01	-15.8177	-80.216315	0.000344	3.435372	1.163936	0.027425
1607	8.0300e-01	-15.7776	-80.071123	0.000364	3.637453	1.232402	0.029038
1608	8.0350e-01	-15.7327	-79.901733	0.000424	4.243695	1.437803	0.033878
1609	8.0400e-01	-15.7054	-79.821071	0.000202	2.020807	0.684668	0.016132
1610	8.0450e-01	-15.6605	-79.667813	0.000384	3.839534	1.300869	0.030652
1611	8.0500e-01	-15.6140	-79.675879	-0.000020	-0.202081	-0.068467	-0.001613
1612	8.0550e-01	-15.5771	-79.385496	0.000727	7.274906	2.464805	0.058077
1613	8.0600e-01	-15.5466	-79.155610	0.000576	5.759301	1.951304	0.045977
1614	8.0650e-01	-15.4985	-79.058815	0.000242	2.424969	0.821602	0.019359
1615	8.0700e-01	-15.4488	-78.792631	0.000667	6.668664	2.259404	0.053237
1616	8.0750e-01	-15.4151	-78.643406	0.000374	3.738493	1.266636	0.029845
1617	8.0800e-01	-15.3798	-78.663572	-0.000051	-0.505202	-0.171167	-0.004033
1618	8.0850e-01	-15.3381	-78.566777	0.000242	2.424969	0.821602	0.019359
1619	8.0900e-01	-15.3012	-78.332858	0.000586	5.860341	1.985537	0.046784
1620	8.0950e-01	-15.2498	-78.159434	0.000434	4.344736	1.472036	0.034685
1621	8.1000e-01	-15.2049	-77.945680	0.000536	5.355139	1.814370	0.042751
1622	8.1050e-01	-15.1809	-77.957779	-0.000030	-0.303121	-0.102700	-0.002420
1623	8.1100e-01	-15.1327	-77.990044	-0.000081	-0.808323	-0.273867	-0.006453
1624	8.1150e-01	-15.0974	-77.639165	0.000879	8.790511	2.978306	0.070176
1625	8.1200e-01	-15.0589	-77.348782	0.000727	7.274906	2.464805	0.058077
1626	8.1250e-01	-15.0172	-77.397179	-0.000121	-1.212484	-0.410801	-0.009679
1627	8.1300e-01	-14.9803	-77.352815	0.000111	1.111444	0.376567	0.008873
1628	8.1350e-01	-14.9338	-77.179391	0.000434	4.344736	1.472036	0.034685
1629	8.1400e-01	-14.8937	-76.739784	0.001101	11.013399	3.731441	0.087922
1630	8.1450e-01	-14.8568	-76.663155	0.000192	1.919767	0.650435	0.015326
1631	8.1500e-01	-14.8167	-76.634923	0.000071	0.707283	0.239634	0.005646
1632	8.1550e-01	-14.7782	-76.441334	0.000485	4.849937	1.643203	0.038718
1633	8.1600e-01	-14.7333	-76.356639	0.000212	2.121848	0.718901	0.016939
1634	8.1650e-01	-14.6932	-76.203382	0.000384	3.839534	1.300869	0.030652
1635	8.1700e-01	-14.6563	-76.098521	0.000263	2.627049	0.890068	0.020972
1636	8.1750e-01	-14.6146	-75.888800	0.000525	5.254099	1.780137	0.041944
1637	8.1800e-01	-14.5793	-75.888800	0.000000	0.000000	0.000000	0.000000
1638	8.1850e-01	-14.5279	-75.445159	0.001111	11.114440	3.765674	0.088728
1639	8.1900e-01	-14.4958	-75.320133	0.000313	3.132251	1.061235	0.025005
1640	8.1950e-01	-14.4557	-75.195107	0.000313	3.132251	1.061235	0.025005
1641	8.2000e-01	-14.4140	-75.138644	0.000141	1.414565	0.479268	0.011293
1642	8.2050e-01	-14.3819	-74.932955	0.000515	5.153058	1.745903	0.041138
1643	8.2100e-01	-14.3370	-74.864393	0.000172	1.717686	0.581968	0.013713
1644	8.2150e-01	-14.2969	-74.787764	0.000192	1.919767	0.650435	0.015326
1645	8.2200e-01	-14.2440	-74.517546	0.000677	6.769704	2.293638	0.054044
1646	8.2250e-01	-14.2119	-74.388487	0.000323	3.233292	1.095469	0.025812
1647	8.2300e-01	-14.1718	-74.348156	0.000101	1.010404	0.342334	0.008066
1648	8.2350e-01	-14.1317	-74.170700	0.000445	4.445776	1.506270	0.035491
1649	8.2400e-01	-14.0916	-74.098104	0.000182	1.818727	0.616201	0.014519
1650	8.2450e-01	-14.0499	-73.944846	0.000384	3.839534	1.300869	0.030652
1651	8.2500e-01	-14.0178	-73.626232	0.000798	7.982189	2.704439	0.063723
1652	8.2550e-01	-13.9681	-73.525404	0.000253	2.526009	0.855835	0.020165
1653	8.2600e-01	-13.9360	-73.432643	0.000232	2.323928	0.787368	0.018552
1654	8.2650e-01	-13.8943	-73.114028	0.000798	7.982189	2.704439	0.063723
1655	8.2700e-01	-13.8558	-73.222922	-0.000273	-2.728090	-0.924302	-0.021779
1656	8.2750e-01	-13.8173	-72.819612	0.001010	10.104036	3.423340	0.080662
1657	8.2800e-01	-13.7788	-72.835744	-0.000040	-0.404161	-0.136934	-0.003226
1658	8.2850e-01	-13.7370	-72.714751	0.000303	3.031211	1.027002	0.024199
1659	8.2900e-01	-13.6889	-72.678453	0.000091	0.909363	0.308101	0.007260
1660	8.2950e-01	-13.6552	-72.089621	0.001475	14.751893	4.998077	0.117766
1661	8.3000e-01	-13.6167	-72.267077	-0.000445	-4.445776	-1.506270	-0.035491
1662	8.3050e-01	-13.5782	-72.254978	0.000030	0.303121	0.102700	0.002420
1663	8.3100e-01	-13.5365	-71.891999	0.000909	9.093633	3.081006	0.072596
1664	8.3150e-01	-13.4964	-71.682278	0.000525	5.254099	1.780137	0.041944
1665	8.3200e-01	-13.4515	-71.730675	-0.000121	-1.212484	-0.410801	-0.009679
1666	8.3250e-01	-13.4226	-71.412060	0.000798	7.982189	2.704439	0.063723
1667	8.3300e-01	-13.3793	-71.339465	0.000182	1.818727	0.616201	0.014519
1668	8.3350e-01	-13.3424	-71.077313	0.000657	6.567624	2.225171	0.052430
1669	8.3400e-01	-13.2879	-70.992618	0.000212	2.121848	0.718901	0.016939
1670	8.3450e-01	-13.2590	-70.851460	0.000354	3.536413	1.198169	0.028232
1671	8.3500e-01	-13.2189	-70.657871	0.000485	4.849937	1.643203	0.038718
1672	8.3550e-01	-13.1788	-70.553010	0.000263	2.627049	0.890068	0.020972
1673	8.3600e-01	-13.1306	-70.464282	0.000222	2.222888	0.753135	0.017746
1674	8.3650e-01	-13.1018	-70.472348	-0.000020	-0.202081	-0.068467	-0.001613
1675	8.3700e-01	-13.0633	-70.173899	0.000748	7.476987	2.533272	0.059690
1676	8.3750e-01	-13.0216	-69.980310	0.000485	4.849937	1.643203	0.038718
1677	8.3800e-01	-12.9750	-69.879483	0.000253	2.526009	0.855835	0.020165
1678	8.3850e-01	-12.9317	-69.863351	0.000040	0.404161	0.136934	0.003226
1679	8.3900e-01	-12.8964	-69.298717	0.001415	14.145651	4.792676	0.112927
1680	8.3950e-01	-12.8579	-69.423743	-0.000313	-3.132251	-1.061235	-0.025005
1681	8.4000e-01	-12.8194	-69.205955	0.000546	5.456180	1.848604	0.043557
1682	8.4050e-01	-12.7793	-69.141426	0.000162	1.616646	0.547734	0.012906
1683	8.4100e-01	-12.7328	-69.040598	0.000253	2.526009	0.855835	0.020165
1684	8.4150e-01	-12.7023	-68.677620	0.000909	9.093633	3.081006	0.072596
1685	8.4200e-01	-12.6654	-68.346905	0.000829	8.285310	2.807139	0.066143
1686	8.4250e-01	-12.6205	-68.278343	0.000172	1.717686	0.581968	0.013713
1687	8.4300e-01	-12.5772	-68.314641	-0.000091	-0.909363	-0.308101	-0.007260
1688	8.4350e-01	-12.5371	-68.177515	0.000344	3.435372	1.163936	0.027425
1689	8.4400e-01	-12.5050	-67.903265	0.000687	6.870745	2.327871	0.054850
1690	8.4450e-01	-12.4553	-67.737908	0.000414	4.142655	1.403569	0.033071
1691	8.4500e-01	-12.4184	-67.616915	0.000303	3.031211	1.027002	0.024199
1692	8.4550e-01	-12.3815	-67.467690	0.000374	3.738493	1.266636	0.029845
1693	8.4600e-01	-12.3366	-67.435425	0.000081	0.808323	0.273867	0.006453
1694	8.4650e-01	-12.3029	-67.132943	0.000758	7.578027	2.567505	0.060496
1695	8.4700e-01	-12.2628	-67.096645	0.000091	0.909363	0.308101	0.007260
1696	8.4750e-01	-12.2194	-66.769964	0.000818	8.184269	2.772906	0.065336
1697	8.4800e-01	-12.1874	-66.592508	0.000445	4.445776	1.506270	0.035491
1698	8.4850e-01	-12.1489	-66.604607	-0.000030	-0.303121	-0.102700	-0.002420
1699	8.4900e-01	-12.0943	-66.701401	-0.000242	-2.424969	-0.821602	-0.019359
1700	8.4950e-01	-12.0574	-66.209363	0.001233	12.326924	4.176475	0.098408
1701	8.5000e-01	-12.0189	-66.128701	0.000202	2.020807	0.684668	0.016132
1702	8.5050e-01	-11.9692	-65.999642	0.000323	3.233292	1.095469	0.025812
1703	8.5100e-01	-11.9419	-65.749590	0.000626	6.264502	2.122471	0.050010
1704	8.5150e-01	-11.8986	-65.551968	0.000495	4.950978	1.677437	0.039524
1705	8.5200e-01	-11.8601	-65.398710	0.000384	3.839534	1.300869	0.030652
1706	8.5250e-01	-11.8200	-65.281751	0.000293	2.930170	0.992769	0.023392
1707	8.5300e-01	-11.7879	-65.152691	0.000323	3.233292	1.095469	0.025812
1708	8.5350e-01	-11.7446	-64.979268	0.000434	4.344736	1.472036	0.034685
1709	8.5400e-01	-11.6997	-64.894573	0.000212	2.121848	0.718901	0.016939
1710	8.5450e-01	-11.6628	-64.733249	0.000404	4.041614	1.369336	0.032265
1711	8.5500e-01	-11.6227	-64.479164	0.000637	6.365543	2.156704	0.050817
1712	8.5550e-01	-11.5794	-64.261377	0.000546	5.456180	1.848604	0.043557
1713	8.5600e-01	-11.5328	-64.132317	0.000323	3.233292	1.095469	0.025812
1714	8.5650e-01	-11.4991	-64.108119	0.000061	0.606242	0.205400	0.004840
1715	8.5700e-01	-11.4590	-63.688677	0.001051	10.508198	3.560274	0.083888
1716	8.5750e-01	-11.4157	-63.745140	-0.000141	-1.414565	-0.479268	-0.011293
1717	8.5800e-01	-11.3965	-63.612048	0.000333	3.334332	1.129702	0.026618
1718	8.5850e-01	-11.3403	-63.466856	0.000364	3.637453	1.232402	0.029038
1719	8.5900e-01	-11.2954	-63.212771	0.000637	6.365543	2.156704	0.050817
1720	8.5950e-01	-11.2585	-63.160341	0.000131	1.313525	0.445034	0.010486
1721	8.6000e-01	-11.2184	-62.986917	0.000434	4.344736	1.472036	0.034685
1722	8.6050e-01	-11.1799	-62.970785	0.000040	0.404161	0.136934	0.003226
1723	8.6100e-01	-11.1398	-62.757031	0.000536	5.355139	1.814370	0.042751
1724	8.6150e-01	-11.0869	-62.579574	0.000445	4.445776	1.506270	0.035491
1725	8.6200e-01	-11.0644	-62.148033	0.001081	10.811319	3.662974	0.086308
1726	8.6250e-01	-11.0211	-62.200463	-0.000131	-1.313525	-0.445034	-0.010486
1727	8.6300e-01	-10.9826	-61.906047	0.000738	7.375946	2.499038	0.058883
1728	8.6350e-01	-10.9312	-61.938312	-0.000081	-0.808323	-0.273867	-0.006453
1729	8.6400e-01	-10.9040	-61.611631	0.000818	8.184269	2.772906	0.065336
1730	8.6450e-01	-10.8623	-61.571300	0.000101	1.010404	0.342334	0.008066
1731	8.6500e-01	-10.8270	-61.220420	0.000879	8.790511	2.978306	0.070176
1732	8.6550e-01	-10.7692	-61.204288	0.000040	0.404161	0.136934	0.003226
1733	8.6600e-01	-10.7371	-61.180089	0.000061	0.606242	0.205400	0.004840
1734	8.6650e-01	-10.6938	-60.934070	0.000616	6.163462	2.088237	0.049204
1735	8.6700e-01	-10.6649	-60.684018	0.000626	6.264502	2.122471	0.050010
1736	8.6750e-01	-10.6200	-60.510595	0.000434	4.344736	1.472036	0.034685
1737	8.6800e-01	-10.5767	-60.421867	0.000222	2.222888	0.753135	0.017746
1738	8.6850e-01	-10.5382	-60.244410	0.000445	4.445776	1.506270	0.035491
1739	8.6900e-01	-10.4933	-60.046789	0.000495	4.950978	1.677437	0.039524
1740	8.6950e-01	-10.4532	-59.937895	0.000273	2.728090	0.924302	0.021779
1741	8.7000e-01	-10.4179	-59.627346	0.000778	7.780108	2.635972	0.062110
1742	8.7050e-01	-10.3810	-59.405526	0.000556	5.557220	1.882837	0.044364
1743	8.7100e-01	-10.3409	-59.336963	0.000172	1.717686	0.581968	0.013713
1744	8.7150e-01	-10.2912	-59.312765	0.000061	0.606242	0.205400	0.004840
1745	8.7200e-01	-10.2607	-59.123209	0.000475	4.748897	1.608970	0.037911
1746	8.7250e-01	-10.2302	-58.784429	0.000849	8.487390	2.875606	0.067756
1747	8.7300e-01	-10.1869	-58.723932	0.000152	1.515605	0.513501	0.012099
1748	8.7350e-01	-10.1339	-58.526310	0.000495	4.950978	1.677437	0.039524
1749	8.7400e-01	-10.1067	-58.332722	0.000485	4.849937	1.643203	0.038718
1750	8.7450e-01	-10.0617	-58.248027	0.000212	2.121848	0.718901	0.016939
1751	8.7500e-01	-10.0168	-57.981842	0.000667	6.668664	2.259404	0.053237
1752	8.7550e-01	-9.9863	-57.961677	0.000051	0.505202	0.171167	0.004033
1753	8.7600e-01	-9.9366	-57.711624	0.000626	6.264502	2.122471	0.050010
1754	8.7650e-01	-9.8981	-57.505936	0.000515	5.153058	1.745903	0.041138
1755	8.7700e-01	-9.8612	-57.397043	0.000273	2.728090	0.924302	0.021779
1756	8.7750e-01	-9.8227	-57.312348	0.000212	2.121848	0.718901	0.016939
1757	8.7800e-01	-9.7778	-56.993733	0.000798	7.982189	2.704439	0.063723
1758	8.7850e-01	-9.7441	-56.913071	0.000202	2.020807	0.684668	0.016132
1759	8.7900e-01	-9.6928	-56.663019	0.000626	6.264502	2.122471	0.050010
1760	8.7950e-01	-9.6543	-56.554125	0.000273	2.728090	0.924302	0.021779
1761	8.8000e-01	-9.6126	-56.691251	-0.000344	-3.435372	-1.163936	-0.027425
1762	8.8050e-01	-9.5692	-56.239543	0.001132	11.316521	3.834141	0.090341
1763	8.8100e-01	-9.5404	-56.187113	0.000131	1.313525	0.445034	0.010486
1764	8.8150e-01	-9.5003	-56.005624	0.000455	4.546816	1.540503	0.036298
1765	8.8200e-01	-9.4602	-55.868498	0.000344	3.435372	1.163936	0.027425
1766	8.8250e-01	-9.4136	-55.606347	0.000657	6.567624	2.225171	0.052430
1767	8.8300e-01	-9.3832	-55.251434	0.000889	8.891552	3.012539	0.070983
1768	8.8350e-01	-9.3447	-55.178839	0.000182	1.818727	0.616201	0.014519
1769	8.8400e-01	-9.2933	-54.957018	0.000556	5.557220	1.882837	0.044364
1770	8.8450e-01	-9.2596	-54.860224	0.000242	2.424969	0.821602	0.019359
1771	8.8500e-01	-9.2179	-54.836025	0.000061	0.606242	0.205400	0.004840
1772	8.8550e-01	-9.1714	-54.759396	0.000192	1.919767	0.650435	0.015326
1773	8.8600e-01	-9.1393	-54.594039	0.000414	4.142655	1.403569	0.033071
1774	8.8650e-01	-9.0960	-54.444815	0.000374	3.738493	1.266636	0.029845
1775	8.8700e-01	-9.0527	-54.182663	0.000657	6.567624	2.225171	0.052430
1776	8.8750e-01	-9.0158	-54.041505	0.000354	3.536413	1.198169	0.028232
1777	8.8800e-01	-8.9837	-53.827750	0.000536	5.355139	1.814370	0.042751
1778	8.8850e-01	-8.9404	-53.710791	0.000293	2.930170	0.992769	0.023392
1779	8.8900e-01	-8.9003	-53.432507	0.000697	6.971785	2.362105	0.055657
1780	8.8950e-01	-8.8506	-53.420408	0.000030	0.303121	0.102700	0.002420
1781	8.9000e-01	-8.8121	-52.944502	0.001192	11.922763	4.039541	0.095181
1782	8.9050e-01	-8.7784	-52.924336	0.000051	0.505202	0.171167	0.004033
1783	8.9100e-01	-8.7479	-52.831575	0.000232	2.323928	0.787368	0.018552
1784	8.9150e-01	-8.7014	-52.690417	0.000354	3.536413	1.198169	0.028232
1785	8.9200e-01	-8.6596	-52.480696	0.000525	5.254099	1.780137	0.041944
1786	8.9250e-01	-8.6099	-52.307272	0.000434	4.344736	1.472036	0.034685
1787	8.9300e-01	-8.5746	-52.000757	0.000768	7.679068	2.601738	0.061303
1788	8.9350e-01	-8.5345	-52.000757	0.000000	0.000000	0.000000	0.000000
1789	8.9400e-01	-8.4976	-51.754738	0.000616	6.163462	2.088237	0.049204
1790	8.9450e-01	-8.4495	-51.625679	0.000323	3.233292	1.095469	0.025812
1791	8.9500e-01	-8.4206	-51.476454	0.000374	3.738493	1.266636	0.029845
1792	8.9550e-01	-8.3789	-51.190104	0.000717	7.173866	2.430571	0.057270
1793	8.9600e-01	-8.3404	-51.194137	-0.000010	-0.101040	-0.034233	-0.000807
1794	8.9650e-01	-8.2955	-50.875522	0.000798	7.982189	2.704439	0.063723
1795	8.9700e-01	-8.2570	-50.810993	0.000162	1.616646	0.547734	0.012906
1796	8.9750e-01	-8.2105	-50.798893	0.000030	0.303121	0.102700	0.002420
1797	8.9800e-01	-8.1832	-50.512543	0.000717	7.173866	2.430571	0.057270
1798	8.9850e-01	-8.1351	-50.206028	0.000768	7.679068	2.601738	0.061303
1799	8.9900e-01	-8.0950	-50.072936	0.000333	3.334332	1.129702	0.026618
1800	8.9950e-01	-8.0645	-49.911612	0.000404	4.041614	1.369336	0.032265
1801	9.0000e-01	-8.0164	-49.693824	0.000546	5.456180	1.848604	0.043557
1802	9.0050e-01	-7.9746	-49.709957	-0.000040	-0.404161	-0.136934	-0.003226
1803	9.0100e-01	-7.9361	-49.512335	0.000495	4.950978	1.677437	0.039524
1804	9.0150e-01	-7.8992	-49.104992	0.001021	10.205077	3.457574	0.081469
1805	9.0200e-01	-7.8559	-49.052562	0.000131	1.313525	0.445034	0.010486
1806	9.0250e-01	-7.8222	-48.988032	0.000162	1.616646	0.547734	0.012906
1807	9.0300e-01	-7.7757	-48.774278	0.000536	5.355139	1.814370	0.042751
1808	9.0350e-01	-7.7436	-48.552458	0.000556	5.557220	1.882837	0.044364
1809	9.0400e-01	-7.7148	-48.298372	0.000637	6.365543	2.156704	0.050817
1810	9.0450e-01	-7.6570	-48.145115	0.000384	3.839534	1.300869	0.030652
1811	9.0500e-01	-7.6185	-48.007989	0.000344	3.435372	1.163936	0.027425
1812	9.0550e-01	-7.5736	-47.858765	0.000374	3.738493	1.266636	0.029845
1813	9.0600e-01	-7.5383	-47.749871	0.000273	2.728090	0.924302	0.021779
1814	9.0650e-01	-7.4966	-47.378826	0.000930	9.295713	3.149473	0.074209
1815	9.0700e-01	-7.4565	-47.237667	0.000354	3.536413	1.198169	0.028232
1816	9.0750e-01	-7.4067	-47.282031	-0.000111	-1.111444	-0.376567	-0.008873
1817	9.0800e-01	-7.3731	-47.201369	0.000202	2.020807	0.684668	0.016132
1818	9.0850e-01	-7.3362	-46.822258	0.000950	9.497794	3.217940	0.075822
1819	9.0900e-01	-7.2977	-46.664967	0.000394	3.940574	1.335103	0.031458
1820	9.0950e-01	-7.2495	-46.467346	0.000495	4.950978	1.677437	0.039524
1821	9.1000e-01	-7.2271	-46.257624	0.000525	5.254099	1.780137	0.041944
1822	9.1050e-01	-7.1838	-46.060003	0.000495	4.950978	1.677437	0.039524
1823	9.1100e-01	-7.1404	-45.951109	0.000273	2.728090	0.924302	0.021779
1824	9.1150e-01	-7.0907	-45.773653	0.000445	4.445776	1.506270	0.035491
1825	9.1200e-01	-7.0602	-45.664759	0.000273	2.728090	0.924302	0.021779
1826	9.1250e-01	-7.0201	-45.438905	0.000566	5.658260	1.917070	0.045171
1827	9.1300e-01	-6.9816	-45.257416	0.000455	4.546816	1.540503	0.036298
1828	9.1350e-01	-6.9415	-44.971066	0.000717	7.173866	2.430571	0.057270
1829	9.1400e-01	-6.8982	-44.721014	0.000626	6.264502	2.122471	0.050010
1830	9.1450e-01	-6.8613	-44.636319	0.000212	2.121848	0.718901	0.016939
1831	9.1500e-01	-6.8084	-44.551624	0.000212	2.121848	0.718901	0.016939
1832	9.1550e-01	-6.7699	-44.442730	0.000273	2.728090	0.924302	0.021779
1833	9.1600e-01	-6.7346	-44.499193	-0.000141	-1.414565	-0.479268	-0.011293
1834	9.1650e-01	-6.7009	-43.882129	0.001546	15.459175	5.237710	0.123413
1835	9.1700e-01	-6.6528	-43.781302	0.000253	2.526009	0.855835	0.020165
1836	9.1750e-01	-6.6239	-43.724838	0.000141	1.414565	0.479268	0.011293
1837	9.1800e-01	-6.5774	-43.494952	0.000576	5.759301	1.951304	0.045977
1838	9.1850e-01	-6.5356	-43.168271	0.000818	8.184269	2.772906	0.065336
1839	9.1900e-01	-6.4891	-43.148105	0.000051	0.505202	0.171167	0.004033
1840	9.1950e-01	-6.4570	-42.789160	0.000899	8.992592	3.046773	0.071789
1841	9.2000e-01	-6.4233	-42.732696	0.000141	1.414565	0.479268	0.011293
1842	9.2050e-01	-6.3848	-42.833524	-0.000253	-2.526009	-0.855835	-0.020165
1843	9.2100e-01	-6.3415	-42.462479	0.000930	9.295713	3.149473	0.074209
1844	9.2150e-01	-6.2950	-42.313254	0.000374	3.738493	1.266636	0.029845
1845	9.2200e-01	-6.2549	-42.063202	0.000626	6.264502	2.122471	0.050010
1846	9.2250e-01	-6.2116	-41.950275	0.000283	2.829130	0.958535	0.022585
1847	9.2300e-01	-6.1843	-41.821216	0.000323	3.233292	1.095469	0.025812
1848	9.2350e-01	-6.1394	-41.446138	0.000940	9.396754	3.183706	0.075016
1849	9.2400e-01	-6.1025	-41.345310	0.000253	2.526009	0.855835	0.020165
1850	9.2450e-01	-6.0560	-41.083159	0.000657	6.567624	2.225171	0.052430
1851	9.2500e-01	-6.0191	-41.030729	0.000131	1.313525	0.445034	0.010486
1852	9.2550e-01	-5.9934	-40.756478	0.000687	6.870745	2.327871	0.054850
1853	9.2600e-01	-5.9292	-40.736312	0.000051	0.505202	0.171167	0.004033
1854	9.2650e-01	-5.9020	-40.256374	0.001202	12.023803	4.073775	0.095988
1855	9.2700e-01	-5.8715	-40.280572	-0.000061	-0.606242	-0.205400	-0.004840
1856	9.2750e-01	-5.8137	-40.159579	0.000303	3.031211	1.027002	0.024199
1857	9.2800e-01	-5.7736	-40.086984	0.000182	1.818727	0.616201	0.014519
1858	9.2850e-01	-5.7399	-39.711905	0.000940	9.396754	3.183706	0.075016
1859	9.2900e-01	-5.7030	-39.469919	0.000606	6.062422	2.054004	0.048397
1860	9.2950e-01	-5.6613	-39.215834	0.000637	6.365543	2.156704	0.050817
1861	9.3000e-01	-5.6180	-39.244066	-0.000071	-0.707283	-0.239634	-0.005646
1862	9.3050e-01	-5.5683	-39.054510	0.000475	4.748897	1.608970	0.037911
1863	9.3100e-01	-5.5442	-38.961749	0.000232	2.323928	0.787368	0.018552
1864	9.3150e-01	-5.4929	-38.691531	0.000677	6.769704	2.293638	0.054044
1865	9.3200e-01	-5.4672	-38.215626	0.001192	11.922763	4.039541	0.095181
1866	9.3250e-01	-5.4175	-38.171262	0.000111	1.111444	0.376567	0.008873
1867	9.3300e-01	-5.3838	-38.179328	-0.000020	-0.202081	-0.068467	-0.001613
1868	9.3350e-01	-5.3389	-37.913143	0.000667	6.668664	2.259404	0.053237
1869	9.3400e-01	-5.3052	-37.550165	0.000909	9.093633	3.081006	0.072596
1870	9.3450e-01	-5.2619	-37.671157	-0.000303	-3.031211	-1.027002	-0.024199
1871	9.3500e-01	-5.2266	-37.493701	0.000445	4.445776	1.506270	0.035491
1872	9.3550e-01	-5.1769	-37.162987	0.000829	8.285310	2.807139	0.066143
1873	9.3600e-01	-5.1368	-37.046027	0.000293	2.930170	0.992769	0.023392
1874	9.3650e-01	-5.1047	-36.771777	0.000687	6.870745	2.327871	0.054850
1875	9.3700e-01	-5.0598	-36.618519	0.000384	3.839534	1.300869	0.030652
1876	9.3750e-01	-5.0180	-36.513658	0.000263	2.627049	0.890068	0.020972
1877	9.3800e-01	-4.9731	-36.312003	0.000505	5.052018	1.711670	0.040331
1878	9.3850e-01	-4.9394	-35.969190	0.000859	8.588431	2.909839	0.068563
1879	9.3900e-01	-4.8977	-35.783667	0.000465	4.647857	1.574736	0.037105
1880	9.3950e-01	-4.8592	-35.727204	0.000141	1.414565	0.479268	0.011293
1881	9.4000e-01	-4.8159	-35.388424	0.000849	8.487390	2.875606	0.067756
1882	9.4050e-01	-4.7774	-35.404556	-0.000040	-0.404161	-0.136934	-0.003226
1883	9.4100e-01	-4.7373	-35.106107	0.000748	7.476987	2.533272	0.059690
1884	9.4150e-01	-4.6988	-35.001246	0.000263	2.627049	0.890068	0.020972
1885	9.4200e-01	-4.6603	-35.033511	-0.000081	-0.808323	-0.273867	-0.006453
1886	9.4250e-01	-4.6250	-34.585837	0.001122	11.215480	3.799908	0.089535
1887	9.4300e-01	-4.5801	-34.493076	0.000232	2.323928	0.787368	0.018552
1888	9.4350e-01	-4.5416	-34.392248	0.000253	2.526009	0.855835	0.020165
1889	9.4400e-01	-4.5015	-33.960707	0.001081	10.811319	3.662974	0.086308
1890	9.4450e-01	-4.4598	-33.771151	0.000475	4.748897	1.608970	0.037911
1891	9.4500e-01	-4.4165	-33.605794	0.000414	4.142655	1.403569	0.033071
1892	9.4550e-01	-4.3796	-33.670324	-0.000162	-1.616646	-0.547734	-0.012906
1893	9.4600e-01	-4.3411	-33.271047	0.001000	10.002996	3.389107	0.079855
1894	9.4650e-01	-4.3009	-32.948399	0.000808	8.083229	2.738672	0.064530
1895	9.4700e-01	-4.2496	-32.827406	0.000303	3.031211	1.027002	0.024199
1896	9.4750e-01	-4.2272	-32.762876	0.000162	1.616646	0.547734	0.012906
1897	9.4800e-01	-4.1758	-32.565255	0.000495	4.950978	1.677437	0.039524
1898	9.4850e-01	-4.1357	-32.637850	-0.000182	-1.818727	-0.616201	-0.014519
1899	9.4900e-01	-4.0972	-32.214375	0.001061	10.609238	3.594507	0.084695
1900	9.4950e-01	-4.0635	-32.044985	0.000424	4.243695	1.437803	0.033878
1901	9.5000e-01	-4.0154	-31.823165	0.000556	5.557220	1.882837	0.044364
1902	9.5050e-01	-3.9737	-31.520682	0.000758	7.578027	2.567505	0.060496
1903	9.5100e-01	-3.9544	-31.427921	0.000232	2.323928	0.787368	0.018552
1904	9.5150e-01	-3.8999	-31.286762	0.000354	3.536413	1.198169	0.028232
1905	9.5200e-01	-3.8598	-31.125438	0.000404	4.041614	1.369336	0.032265
1906	9.5250e-01	-3.8197	-30.794724	0.000829	8.285310	2.807139	0.066143
1907	9.5300e-01	-3.7796	-30.540639	0.000637	6.365543	2.156704	0.050817
1908	9.5350e-01	-3.7411	-30.387381	0.000384	3.839534	1.300869	0.030652
1909	9.5400e-01	-3.6978	-30.343017	0.000111	1.111444	0.376567	0.008873
1910	9.5450e-01	-3.6577	-30.121197	0.000556	5.557220	1.882837	0.044364
1911	9.5500e-01	-3.6208	-29.895343	0.000566	5.658260	1.917070	0.045171
1912	9.5550e-01	-3.5790	-29.649324	0.000616	6.163462	2.088237	0.049204
1913	9.5600e-01	-3.5309	-29.459769	0.000475	4.748897	1.608970	0.037911
1914	9.5650e-01	-3.4988	-29.423471	0.000091	0.909363	0.308101	0.007260
1915	9.5700e-01	-3.4635	-29.205684	0.000546	5.456180	1.848604	0.043557
1916	9.5750e-01	-3.4250	-29.116955	0.000222	2.222888	0.753135	0.017746
1917	9.5800e-01	-3.3737	-28.810440	0.000768	7.679068	2.601738	0.061303
1918	9.5850e-01	-3.3272	-28.673315	0.000344	3.435372	1.163936	0.027425
1919	9.5900e-01	-3.2983	-28.524090	0.000374	3.738493	1.266636	0.029845
1920	9.5950e-01	-3.2518	-28.282104	0.000606	6.062422	2.054004	0.048397
1921	9.6000e-01	-3.2149	-27.975588	0.000768	7.679068	2.601738	0.061303
1922	9.6050e-01	-3.1780	-27.786033	0.000475	4.748897	1.608970	0.037911
1923	9.6100e-01	-3.1411	-27.636808	0.000374	3.738493	1.266636	0.029845
1924	9.6150e-01	-3.1058	-27.334326	0.000758	7.578027	2.567505	0.060496
1925	9.6200e-01	-3.0673	-27.076207	0.000647	6.466583	2.190938	0.051624
1926	9.6250e-01	-3.0127	-27.132671	-0.000141	-1.414565	-0.479268	-0.011293
1927	9.6300e-01	-2.9855	-26.729361	0.001010	10.104036	3.423340	0.080662
1928	9.6350e-01	-2.9406	-26.491408	0.000596	5.961381	2.019771	0.047591
1929	9.6400e-01	-2.9021	-26.410746	0.000202	2.020807	0.684668	0.016132
1930	9.6450e-01	-2.8603	-26.305886	0.000263	2.627049	0.890068	0.020972
1931	9.6500e-01	-2.8234	-26.084065	0.000556	5.557220	1.882837	0.044364
1932	9.6550e-01	-2.7833	-25.765450	0.000798	7.982189	2.704439	0.063723
1933	9.6600e-01	-2.7416	-25.713020	0.000131	1.313525	0.445034	0.010486
1934	9.6650e-01	-2.6983	-25.547663	0.000414	4.142655	1.403569	0.033071
1935	9.6700e-01	-2.6614	-25.471034	0.000192	1.919767	0.650435	0.015326
1936	9.6750e-01	-2.6261	-25.120155	0.000879	8.790511	2.978306	0.070176
1937	9.6800e-01	-2.5764	-25.091923	0.000071	0.707283	0.239634	0.005646
1938	9.6850e-01	-2.5283	-24.874136	0.000546	5.456180	1.848604	0.043557
1939	9.6900e-01	-2.4962	-24.652315	0.000556	5.557220	1.882837	0.044364
1940	9.6950e-01	-2.4593	-24.369998	0.000707	7.072825	2.396338	0.056463
1941	9.7000e-01	-2.4112	-24.196575	0.000434	4.344736	1.472036	0.034685
1942	9.7050e-01	-2.3775	-23.930391	0.000667	6.668664	2.259404	0.053237
1943	9.7100e-01	-2.3406	-23.756967	0.000434	4.344736	1.472036	0.034685
1944	9.7150e-01	-2.2941	-23.470617	0.000717	7.173866	2.430571	0.057270
1945	9.7200e-01	-2.2620	-23.357691	0.000283	2.829130	0.958535	0.022585
1946	9.7250e-01	-2.2138	-23.224598	0.000333	3.334332	1.129702	0.026618
1947	9.7300e-01	-2.1850	-23.031010	0.000485	4.849937	1.643203	0.038718
1948	9.7350e-01	-2.1384	-22.897917	0.000333	3.334332	1.129702	0.026618
1949	9.7400e-01	-2.1064	-22.676097	0.000556	5.557220	1.882837	0.044364
1950	9.7450e-01	-2.0566	-22.478475	0.000495	4.950978	1.677437	0.039524
1951	9.7500e-01	-2.0229	-22.417979	0.000152	1.515605	0.513501	0.012099
1952	9.7550e-01	-1.9652	-22.276820	0.000354	3.536413	1.198169	0.028232
1953	9.7600e-01	-1.9347	-22.063066	0.000536	5.355139	1.814370	0.042751
1954	9.7650e-01	-1.9042	-21.732352	0.000829	8.285310	2.807139	0.066143
1955	9.7700e-01	-1.8689	-21.675888	0.000141	1.414565	0.479268	0.011293
1956	9.7750e-01	-1.8224	-21.357274	0.000798	7.982189	2.704439	0.063723
1957	9.7800e-01	-1.7839	-21.159652	0.000495	4.950978	1.677437	0.039524
1958	9.7850e-01	-1.7422	-20.978162	0.000455	4.546816	1.540503	0.036298
1959	9.7900e-01	-1.7021	-20.728110	0.000626	6.264502	2.122471	0.050010
1960	9.7950e-01	-1.6620	-20.465959	0.000657	6.567624	2.225171	0.052430
1961	9.8000e-01	-1.6235	-20.086848	0.000950	9.497794	3.217940	0.075822
1962	9.8050e-01	-1.5770	-20.026351	0.000152	1.515605	0.513501	0.012099
1963	9.8100e-01	-1.5401	-19.824696	0.000505	5.052018	1.711670	0.040331
1964	9.8150e-01	-1.5032	-19.772266	0.000131	1.313525	0.445034	0.010486
1965	9.8200e-01	-1.4615	-19.631107	0.000354	3.536413	1.198169	0.028232
1966	9.8250e-01	-1.4214	-19.530280	0.000253	2.526009	0.855835	0.020165
1967	9.8300e-01	-1.3845	-19.022110	0.001273	12.731086	4.313409	0.101634
1968	9.8350e-01	-1.3427	-18.788190	0.000586	5.860341	1.985537	0.046784
1969	9.8400e-01	-1.3042	-18.804322	-0.000040	-0.404161	-0.136934	-0.003226
1970	9.8450e-01	-1.2673	-18.489741	0.000788	7.881148	2.670205	0.062916
1971	9.8500e-01	-1.2144	-18.263887	0.000566	5.658260	1.917070	0.045171
1972	9.8550e-01	-1.1823	-18.146927	0.000293	2.930170	0.992769	0.023392
1973	9.8600e-01	-1.1294	-17.937206	0.000525	5.254099	1.780137	0.041944
1974	9.8650e-01	-1.1021	-17.695220	0.000606	6.062422	2.054004	0.048397
1975	9.8700e-01	-1.0556	-17.598426	0.000242	2.424969	0.821602	0.019359
1976	9.8750e-01	-1.0219	-17.457267	0.000354	3.536413	1.198169	0.028232
1977	9.8800e-01	-0.9818	-17.295943	0.000404	4.041614	1.369336	0.032265
1978	9.8850e-01	-0.9433	-17.062024	0.000586	5.860341	1.985537	0.046784
1979	9.8900e-01	-0.9016	-16.888600	0.000434	4.344736	1.472036	0.034685
1980	9.8950e-01	-0.8615	-16.602250	0.000717	7.173866	2.430571	0.057270
1981	9.9000e-01	-0.8262	-16.396562	0.000515	5.153058	1.745903	0.041138
1982	9.9050e-01	-0.7748	-16.227172	0.000424	4.243695	1.437803	0.033878
1983	9.9100e-01	-0.7363	-16.001319	0.000566	5.658260	1.917070	0.045171
1984	9.9150e-01	-0.6882	-15.981153	0.000051	0.505202	0.171167	0.004033
1985	9.9200e-01	-0.6674	-15.775465	0.000515	5.153058	1.745903	0.041138
1986	9.9250e-01	-0.6128	-15.436685	0.000849	8.487390	2.875606	0.067756
1987	9.9300e-01	-0.5839	-15.105971	0.000829	8.285310	2.807139	0.066143
1988	9.9350e-01	-0.5406	-14.900283	0.000515	5.153058	1.745903	0.041138
1989	9.9400e-01	-0.5037	-14.678462	0.000556	5.557220	1.882837	0.044364
1990	9.9450e-01	-0.4572	-14.573602	0.000263	2.627049	0.890068	0.020972
1991	9.9500e-01	-0.4187	-14.464708	0.000273	2.728090	0.924302	0.021779
1992	9.9550e-01	-0.3722	-14.295318	0.000424	4.243695	1.437803	0.033878
1993	9.9600e-01	-0.3433	-13.887975	0.001021	10.205077	3.457574	0.081469
1994	9.9650e-01	-0.3032	-13.944438	-0.000141	-1.414565	-0.479268	-0.011293
1995	9.9700e-01	-0.2551	-13.823445	0.000303	3.031211	1.027002	0.024199
1996	9.9750e-01	-0.2150	-13.331407	0.001233	12.326924	4.176475	0.098408
1997	9.9800e-01	-0.1797	-13.214448	0.000293	2.930170	0.992769	0.023392
1998	9.9850e-01	-0.1428	-12.907932	0.000768	7.679068	2.601738	0.061303
1999	9.9900e-01	-0.0979	-12.875667	0.000081	0.808323	0.273867	0.006453
2000	9.9950e-01	-0.0594	-12.440093	0.001091	10.912359	3.697207	0.087115
2001	1.0000e+00	-0.0176	-12.593350	0.001091	10.912359	3.697207	-0.030652

PMax (uC/cm2):	9.84e+01
Pr (uC/cm2):	4.35e+00
-Pr (uC/cm2):	-6.83e+00
PLoss (uC/cm2):	-6.78e+00
-Vc:	-8.26e-01
C (Max-Eff) (nF):	4.93e-01
K (Eff):	1.67e+03
Vert. (+/-Pr) Shift (uC/cm2):	-1.24e+00
Offset (uC/cm2):	5.76e+00

A (Loop Area - uC/cm2·Volts):	-1.06e-01



Hysteresis Version: 5.48.1 - Radiant Technologies, Inc., 1999 - 9/12/24

