»»»»»»»»»»»»»»»»»»»»»»»»»»»»»»»»»»»» Hysteresis ««««««««««««««««««««««««««««««««««««
»»»  Executed Version:	5.48.1
»»»  Vision Version:	5.48.4 (R)
»»»  Vision Compiled:	9/18/24
»»»  Driver Version:	5.47.0
»»»  Windows Version:	Windows 8 or 8.1
»»»  Processor Information:	x86 (AMD or Intel) - 32 Processors
»»»  Tester Name:	PMF21124-494 (100V)
»»»  Tester S/N:	PMF21124-494
»»»  Internal Amp Type:	100V RevK 270k
»»»  Internal Amp S/N:	iAB2-596/K     
»»»  Execution Count:	1
»»»»»»»»»»»»»»»»»»»»»»»»»»»»»»»»»»»»»»»»»»««««««««««««««««««««««««««««««««««««««««««

Stored:	6/18/2025 - 17:41:2
Configured:	06/18/25 09:47:30 AM
Executed:	06/18/25 05:40:20 PM

»»»»»»»»»»»»»»»»»»»»»»»»»»»»»»»»»»» Sample Info ««««««««««««««««««««««««««««««««««««
Sample Name:	
Lot Name:	
Wafer Name:	
Die Row/Column:	0/0
Capacitor Number:	0
Sample Area (cm2):	1.00e-04
Sample Thickness (microns):	3.00e-01

Amplifier:	Internal

»»»»»»»»»»»»»»»»»»»»»»»»»»»»»»»»»»» Tester Info «««««««««««««««««««««««««««««««««««
Tester Name:	PMF21124-494 (100V)
Tester Serial Number:	PMF21124-494
Return Signal Amp. Level:	0.19 [Index: 3]

»»»»»»»»»»»»»»»»»»»»»»»»»»»»»»»» Hysteresis Info ««««««««««««««««««««««««««««««««««
Task Name:	Hyst-554
Volts:	20.00
Field:	666.67 (kV/cm)
DCBias:	0.00
DCField:	0.00 (kV/cm)
Hysteresis Period (ms):	2.00e+02
Preset:	Enabled
Preset Delay (ms):	1.00e+03
Profile:	Standard Bipolar

»»»»»»»»»»»»»»»»»»»»»»»»»»»»»»»»»»»»»» Data «««««««««««««««««««««««««««««««««««««««
Points:	2009

Valid Data

Point	Time (ms)	Drive Voltage	Measured Polarization (uC/cm2)	Capacitance (uF)	Normalized Capacitance (uF/cm2)	Dielectric Constant	Instantaneous Current (mA)
   1	0.0000e+00	0.0000	-24.029032	0.000294	2.939520	0.995936	0.000118
   2	9.9500e-02	0.0305	-23.911955	0.000294	2.939520	0.995936	0.000118
   3	1.9900e-01	0.0690	-23.681838	0.000578	5.777677	1.957530	0.000231
   4	2.9850e-01	0.1187	-23.516316	0.000416	4.155873	1.408048	0.000166
   5	3.9800e-01	0.1556	-23.245828	0.000679	6.791304	2.300956	0.000272
   6	4.9750e-01	0.1989	-23.035897	0.000527	5.270863	1.785817	0.000211
   7	5.9700e-01	0.2342	-22.858263	0.000446	4.459961	1.511076	0.000179
   8	6.9650e-01	0.2791	-22.652369	0.000517	5.169500	1.751474	0.000207
   9	7.9600e-01	0.3128	-22.482809	0.000426	4.257235	1.442390	0.000170
  10	8.9550e-01	0.3610	-22.216358	0.000669	6.689941	2.266613	0.000268
  11	9.9500e-01	0.3914	-22.075058	0.000355	3.547696	1.201992	0.000142
  12	1.0945e+00	0.4364	-21.873201	0.000507	5.068137	1.717131	0.000203
  13	1.1940e+00	0.4716	-21.630973	0.000608	6.081765	2.060558	0.000243
  14	1.2935e+00	0.5101	-21.396819	0.000588	5.879039	1.991872	0.000235
  15	1.3930e+00	0.5535	-21.219185	0.000446	4.459961	1.511076	0.000179
  16	1.4925e+00	0.6016	-21.001180	0.000547	5.473588	1.854502	0.000219
  17	1.5920e+00	0.6385	-20.787212	0.000537	5.372226	1.820159	0.000215
  18	1.6915e+00	0.6722	-20.589392	0.000497	4.966775	1.682789	0.000199
  19	1.7910e+00	0.7155	-20.419833	0.000426	4.257235	1.442390	0.000170
  20	1.8905e+00	0.7508	-20.153382	0.000669	6.689941	2.266613	0.000268
  21	1.9900e+00	0.7893	-19.975748	0.000446	4.459961	1.511076	0.000179
  22	2.0895e+00	0.8326	-19.717371	0.000649	6.487216	2.197928	0.000260
  23	2.1890e+00	0.8663	-19.511477	0.000517	5.169500	1.751474	0.000207
  24	2.2885e+00	0.9096	-19.297509	0.000537	5.372226	1.820159	0.000215
  25	2.3880e+00	0.9481	-19.136023	0.000405	4.054510	1.373705	0.000162
  26	2.4875e+00	0.9994	-18.897832	0.000598	5.980402	2.026215	0.000239
  27	2.5870e+00	1.0363	-18.671753	0.000568	5.676314	1.923187	0.000227
  28	2.6865e+00	1.0780	-18.469896	0.000507	5.068137	1.717131	0.000203
  29	2.7860e+00	1.1101	-18.231705	0.000598	5.980402	2.026215	0.000239
  30	2.8855e+00	1.1534	-18.033885	0.000497	4.966775	1.682789	0.000199
  31	2.9850e+00	1.1952	-17.807806	0.000568	5.676314	1.923187	0.000227
  32	3.0845e+00	1.2272	-17.614023	0.000487	4.865412	1.648446	0.000195
  33	3.1840e+00	1.2689	-17.408129	0.000517	5.169500	1.751474	0.000207
  34	3.2835e+00	1.3155	-17.206273	0.000507	5.068137	1.717131	0.000203
  35	3.3830e+00	1.3508	-16.964044	0.000608	6.081765	2.060558	0.000243
  36	3.4825e+00	1.3957	-16.778336	0.000466	4.662686	1.579761	0.000187
  37	3.5820e+00	1.4326	-16.519959	0.000649	6.487216	2.197928	0.000260
  38	3.6815e+00	1.4727	-16.346363	0.000436	4.358598	1.476733	0.000174
  39	3.7810e+00	1.5128	-16.087986	0.000649	6.487216	2.197928	0.000260
  40	3.8805e+00	1.5497	-15.942649	0.000365	3.649059	1.236335	0.000146
  41	3.9800e+00	1.5882	-15.700421	0.000608	6.081765	2.060558	0.000243
  42	4.0795e+00	1.6331	-15.478378	0.000557	5.574951	1.888845	0.000223
  43	4.1790e+00	1.6716	-15.215965	0.000659	6.588579	2.232271	0.000264
  44	4.2785e+00	1.7085	-15.074665	0.000355	3.547696	1.201992	0.000142
  45	4.3780e+00	1.7470	-14.812251	0.000659	6.588579	2.232271	0.000264
  46	4.4775e+00	1.7871	-14.614431	0.000497	4.966775	1.682789	0.000199
  47	4.5770e+00	1.8336	-14.384315	0.000578	5.777677	1.957530	0.000231
  48	4.6765e+00	1.8673	-14.182458	0.000507	5.068137	1.717131	0.000203
  49	4.7760e+00	1.9074	-13.960415	0.000557	5.574951	1.888845	0.000223
  50	4.8755e+00	1.9427	-13.754521	0.000517	5.169500	1.751474	0.000207
  51	4.9750e+00	1.9957	-13.536516	0.000547	5.473588	1.854502	0.000219
  52	5.0745e+00	2.0213	-13.294288	0.000608	6.081765	2.060558	0.000243
  53	5.1740e+00	2.0695	-13.068208	0.000568	5.676314	1.923187	0.000227
  54	5.2735e+00	2.1096	-12.858277	0.000527	5.270863	1.785817	0.000211
  55	5.3730e+00	2.1497	-12.632198	0.000568	5.676314	1.923187	0.000227
  56	5.4725e+00	2.1882	-12.406118	0.000568	5.676314	1.923187	0.000227
  57	5.5720e+00	2.2267	-12.204261	0.000507	5.068137	1.717131	0.000203
  58	5.6715e+00	2.2764	-11.962033	0.000608	6.081765	2.060558	0.000243
  59	5.7710e+00	2.3069	-11.784399	0.000446	4.459961	1.511076	0.000179
  60	5.8705e+00	2.3486	-11.497763	0.000720	7.196755	2.438327	0.000288
  61	5.9700e+00	2.3887	-11.328203	0.000426	4.257235	1.442390	0.000170
  62	6.0695e+00	2.4272	-11.114235	0.000537	5.372226	1.820159	0.000215
  63	6.1690e+00	2.4609	-10.872007	0.000608	6.081765	2.060558	0.000243
  64	6.2685e+00	2.5074	-10.633816	0.000598	5.980402	2.026215	0.000239
  65	6.3680e+00	2.5475	-10.480404	0.000385	3.851784	1.305020	0.000154
  66	6.4675e+00	2.5844	-10.230102	0.000628	6.284490	2.129243	0.000252
  67	6.5670e+00	2.6197	-10.032282	0.000497	4.966775	1.682789	0.000199
  68	6.6665e+00	2.6630	-9.781980	0.000628	6.284490	2.129243	0.000252
  69	6.7660e+00	2.6983	-9.523603	0.000649	6.487216	2.197928	0.000260
  70	6.8655e+00	2.7432	-9.337895	0.000466	4.662686	1.579761	0.000187
  71	6.9650e+00	2.7849	-9.103741	0.000588	5.879039	1.991872	0.000235
  72	7.0645e+00	2.8251	-8.905921	0.000497	4.966775	1.682789	0.000199
  73	7.1640e+00	2.8700	-8.647545	0.000649	6.487216	2.197928	0.000260
  74	7.2635e+00	2.9069	-8.465874	0.000456	4.561324	1.545418	0.000183
  75	7.3630e+00	2.9470	-8.227683	0.000598	5.980402	2.026215	0.000239
  76	7.4625e+00	2.9855	-7.973343	0.000639	6.385853	2.163586	0.000256
  77	7.5620e+00	3.0304	-7.795709	0.000446	4.459961	1.511076	0.000179
  78	7.6615e+00	3.0737	-7.569630	0.000568	5.676314	1.923187	0.000227
  79	7.7610e+00	3.1058	-7.331439	0.000598	5.980402	2.026215	0.000239
  80	7.8605e+00	3.1491	-7.109396	0.000557	5.574951	1.888845	0.000223
  81	7.9600e+00	3.1796	-6.927725	0.000456	4.561324	1.545418	0.000183
  82	8.0595e+00	3.2261	-6.633014	0.000740	7.399481	2.507012	0.000296
  83	8.1590e+00	3.2694	-6.483640	0.000375	3.750422	1.270677	0.000150
  84	8.2585e+00	3.2983	-6.245449	0.000598	5.980402	2.026215	0.000239
  85	8.3580e+00	3.3368	-6.047629	0.000497	4.966775	1.682789	0.000199
  86	8.4575e+00	3.3817	-5.801364	0.000618	6.183128	2.094900	0.000248
  87	8.5570e+00	3.4218	-5.567210	0.000588	5.879039	1.991872	0.000235
  88	8.6565e+00	3.4700	-5.377465	0.000476	4.764049	1.614104	0.000191
  89	8.7560e+00	3.5085	-5.106977	0.000679	6.791304	2.300956	0.000272
  90	8.8555e+00	3.5389	-4.925306	0.000456	4.561324	1.545418	0.000183
  91	8.9550e+00	3.5774	-4.691152	0.000588	5.879039	1.991872	0.000235
  92	9.0545e+00	3.6175	-4.485258	0.000517	5.169500	1.751474	0.000207
  93	9.1540e+00	3.6577	-4.222844	0.000659	6.588579	2.232271	0.000264
  94	9.2535e+00	3.6978	-4.065396	0.000395	3.953147	1.339363	0.000158
  95	9.3530e+00	3.7427	-3.802982	0.000659	6.588579	2.232271	0.000264
  96	9.4525e+00	3.7732	-3.536531	0.000669	6.689941	2.266613	0.000268
  97	9.5520e+00	3.8197	-3.318526	0.000547	5.473588	1.854502	0.000219
  98	9.6515e+00	3.8534	-3.112632	0.000517	5.169500	1.751474	0.000207
  99	9.7510e+00	3.9127	-2.898663	0.000537	5.372226	1.820159	0.000215
 100	9.8505e+00	3.9320	-2.696807	0.000507	5.068137	1.717131	0.000203
 101	9.9500e+00	3.9849	-2.462653	0.000588	5.879039	1.991872	0.000235
 102	1.0050e+01	4.0234	-2.252722	0.000527	5.270863	1.785817	0.000211
 103	1.0149e+01	4.0539	-2.042791	0.000527	5.270863	1.785817	0.000211
 104	1.0248e+01	4.1052	-1.756154	0.000720	7.196755	2.438327	0.000288
 105	1.0348e+01	4.1405	-1.566409	0.000476	4.764049	1.614104	0.000191
 106	1.0447e+01	4.1903	-1.360515	0.000517	5.169500	1.751474	0.000207
 107	1.0547e+01	4.2255	-1.110212	0.000628	6.284490	2.129243	0.000252
 108	1.0646e+01	4.2624	-0.851836	0.000649	6.487216	2.197928	0.000260
 109	1.0746e+01	4.2993	-0.649979	0.000507	5.068137	1.717131	0.000203
 110	1.0845e+01	4.3394	-0.431974	0.000547	5.473588	1.854502	0.000219
 111	1.0945e+01	4.3796	-0.218005	0.000537	5.372226	1.820159	0.000215
 112	1.1044e+01	4.4165	0.024223	0.000608	6.081765	2.060558	0.000243
 113	1.1144e+01	4.4598	0.242228	0.000547	5.473588	1.854502	0.000219
 114	1.1243e+01	4.5063	0.480419	0.000598	5.980402	2.026215	0.000239
 115	1.1343e+01	4.5464	0.698424	0.000547	5.473588	1.854502	0.000219
 116	1.1443e+01	4.5817	0.900281	0.000507	5.068137	1.717131	0.000203
 117	1.1542e+01	4.6170	1.162695	0.000659	6.588579	2.232271	0.000264
 118	1.1642e+01	4.6587	1.392812	0.000578	5.777677	1.957530	0.000231
 119	1.1741e+01	4.7020	1.570446	0.000446	4.459961	1.511076	0.000179
 120	1.1841e+01	4.7405	1.816711	0.000618	6.183128	2.094900	0.000248
 121	1.1940e+01	4.7758	2.046828	0.000578	5.777677	1.957530	0.000231
 122	1.2040e+01	4.8175	2.260796	0.000537	5.372226	1.820159	0.000215
 123	1.2139e+01	4.8640	2.482838	0.000557	5.574951	1.888845	0.000223
 124	1.2239e+01	4.8977	2.737178	0.000639	6.385853	2.163586	0.000256
 125	1.2338e+01	4.9346	2.963258	0.000568	5.676314	1.923187	0.000227
 126	1.2438e+01	4.9811	3.205486	0.000608	6.081765	2.060558	0.000243
 127	1.2537e+01	5.0164	3.427528	0.000557	5.574951	1.888845	0.000223
 128	1.2636e+01	5.0501	3.649571	0.000557	5.574951	1.888845	0.000223
 129	1.2736e+01	5.1031	3.883725	0.000588	5.879039	1.991872	0.000235
 130	1.2835e+01	5.1368	4.081544	0.000497	4.966775	1.682789	0.000199
 131	1.2935e+01	5.1753	4.271290	0.000476	4.764049	1.614104	0.000191
 132	1.3034e+01	5.2105	4.509481	0.000598	5.980402	2.026215	0.000239
 133	1.3134e+01	5.2635	4.796117	0.000720	7.196755	2.438327	0.000288
 134	1.3233e+01	5.2988	4.937417	0.000355	3.547696	1.201992	0.000142
 135	1.3333e+01	5.3421	5.224054	0.000720	7.196755	2.438327	0.000288
 136	1.3432e+01	5.3790	5.425910	0.000507	5.068137	1.717131	0.000203
 137	1.3532e+01	5.4191	5.615656	0.000476	4.764049	1.614104	0.000191
 138	1.3632e+01	5.4608	5.882107	0.000669	6.689941	2.266613	0.000268
 139	1.3731e+01	5.4961	6.120298	0.000598	5.980402	2.026215	0.000239
 140	1.3831e+01	5.5266	6.350415	0.000578	5.777677	1.957530	0.000231
 141	1.3930e+01	5.5715	6.576494	0.000568	5.676314	1.923187	0.000227
 142	1.4030e+01	5.6052	6.770277	0.000487	4.865412	1.648446	0.000195
 143	1.4129e+01	5.6613	7.024616	0.000639	6.385853	2.163586	0.000256
 144	1.4229e+01	5.6854	7.262807	0.000598	5.980402	2.026215	0.000239
 145	1.4328e+01	5.7319	7.480813	0.000547	5.473588	1.854502	0.000219
 146	1.4428e+01	5.7736	7.690744	0.000527	5.270863	1.785817	0.000211
 147	1.4527e+01	5.8153	7.900675	0.000527	5.270863	1.785817	0.000211
 148	1.4627e+01	5.8522	8.130791	0.000578	5.777677	1.957530	0.000231
 149	1.4726e+01	5.8956	8.381094	0.000628	6.284490	2.129243	0.000252
 150	1.4825e+01	5.9341	8.603136	0.000557	5.574951	1.888845	0.000223
 151	1.4925e+01	5.9806	8.772696	0.000426	4.257235	1.442390	0.000170
 152	1.5024e+01	6.0191	9.031073	0.000649	6.487216	2.197928	0.000260
 153	1.5124e+01	6.0560	9.273301	0.000608	6.081765	2.060558	0.000243
 154	1.5223e+01	6.0977	9.503418	0.000578	5.777677	1.957530	0.000231
 155	1.5323e+01	6.1298	9.701237	0.000497	4.966775	1.682789	0.000199
 156	1.5422e+01	6.1667	9.943465	0.000608	6.081765	2.060558	0.000243
 157	1.5522e+01	6.2148	10.161471	0.000547	5.473588	1.854502	0.000219
 158	1.5621e+01	6.2581	10.383513	0.000557	5.574951	1.888845	0.000223
 159	1.5721e+01	6.2918	10.645927	0.000659	6.588579	2.232271	0.000264
 160	1.5820e+01	6.3399	10.823561	0.000446	4.459961	1.511076	0.000179
 161	1.5920e+01	6.3736	11.041566	0.000547	5.473588	1.854502	0.000219
 162	1.6020e+01	6.4089	11.308017	0.000669	6.689941	2.266613	0.000268
 163	1.6119e+01	6.4522	11.513911	0.000517	5.169500	1.751474	0.000207
 164	1.6218e+01	6.4955	11.731916	0.000547	5.473588	1.854502	0.000219
 165	1.6318e+01	6.5389	11.986256	0.000639	6.385853	2.163586	0.000256
 166	1.6418e+01	6.5741	12.212336	0.000568	5.676314	1.923187	0.000227
 167	1.6517e+01	6.6143	12.402081	0.000476	4.764049	1.614104	0.000191
 168	1.6616e+01	6.6544	12.664495	0.000659	6.588579	2.232271	0.000264
 169	1.6716e+01	6.6880	12.930946	0.000669	6.689941	2.266613	0.000268
 170	1.6816e+01	6.7314	13.092431	0.000405	4.054510	1.373705	0.000162
 171	1.6915e+01	6.7667	13.298325	0.000517	5.169500	1.751474	0.000207
 172	1.7015e+01	6.8052	13.568813	0.000679	6.791304	2.300956	0.000272
 173	1.7114e+01	6.8453	13.746447	0.000446	4.459961	1.511076	0.000179
 174	1.7213e+01	6.8982	14.012898	0.000669	6.689941	2.266613	0.000268
 175	1.7313e+01	6.9271	14.218792	0.000517	5.169500	1.751474	0.000207
 176	1.7413e+01	6.9688	14.428723	0.000527	5.270863	1.785817	0.000211
 177	1.7512e+01	7.0089	14.674988	0.000618	6.183128	2.094900	0.000248
 178	1.7611e+01	7.0474	14.892994	0.000547	5.473588	1.854502	0.000219
 179	1.7711e+01	7.0891	15.123110	0.000578	5.777677	1.957530	0.000231
 180	1.7811e+01	7.1276	15.357264	0.000588	5.879039	1.991872	0.000235
 181	1.7910e+01	7.1725	15.583344	0.000568	5.676314	1.923187	0.000227
 182	1.8009e+01	7.2094	15.797312	0.000537	5.372226	1.820159	0.000215
 183	1.8109e+01	7.2575	16.015317	0.000547	5.473588	1.854502	0.000219
 184	1.8209e+01	7.2832	16.273694	0.000649	6.487216	2.197928	0.000260
 185	1.8308e+01	7.3265	16.515922	0.000608	6.081765	2.060558	0.000243
 186	1.8407e+01	7.3522	16.681445	0.000416	4.155873	1.408048	0.000166
 187	1.8507e+01	7.4132	16.939822	0.000649	6.487216	2.197928	0.000260
 188	1.8607e+01	7.4420	17.169938	0.000578	5.777677	1.957530	0.000231
 189	1.8706e+01	7.4837	17.396018	0.000568	5.676314	1.923187	0.000227
 190	1.8805e+01	7.5335	17.605949	0.000527	5.270863	1.785817	0.000211
 191	1.8905e+01	7.5640	17.840103	0.000588	5.879039	1.991872	0.000235
 192	1.9005e+01	7.6073	18.045997	0.000517	5.169500	1.751474	0.000207
 193	1.9104e+01	7.6442	18.264002	0.000547	5.473588	1.854502	0.000219
 194	1.9203e+01	7.6907	18.522379	0.000649	6.487216	2.197928	0.000260
 195	1.9303e+01	7.7292	18.772681	0.000628	6.284490	2.129243	0.000252
 196	1.9402e+01	7.7677	18.938204	0.000416	4.155873	1.408048	0.000166
 197	1.9502e+01	7.8078	19.200618	0.000659	6.588579	2.232271	0.000264
 198	1.9602e+01	7.8399	19.426697	0.000568	5.676314	1.923187	0.000227
 199	1.9701e+01	7.8848	19.632591	0.000517	5.169500	1.751474	0.000207
 200	1.9800e+01	7.9249	19.846559	0.000537	5.372226	1.820159	0.000215
 201	1.9900e+01	7.9666	20.092825	0.000618	6.183128	2.094900	0.000248
 202	2.0000e+01	8.0035	20.294681	0.000507	5.068137	1.717131	0.000203
 203	2.0099e+01	8.0516	20.565169	0.000679	6.791304	2.300956	0.000272
 204	2.0198e+01	8.0869	20.730692	0.000416	4.155873	1.408048	0.000166
 205	2.0298e+01	8.1190	20.985032	0.000639	6.385853	2.163586	0.000256
 206	2.0398e+01	8.1623	21.194963	0.000527	5.270863	1.785817	0.000211
 207	2.0497e+01	8.2089	21.429116	0.000588	5.879039	1.991872	0.000235
 208	2.0596e+01	8.2490	21.647122	0.000547	5.473588	1.854502	0.000219
 209	2.0696e+01	8.2859	21.905499	0.000649	6.487216	2.197928	0.000260
 210	2.0796e+01	8.3228	22.099281	0.000487	4.865412	1.648446	0.000195
 211	2.0895e+01	8.3613	22.333435	0.000588	5.879039	1.991872	0.000235
 212	2.0994e+01	8.3998	22.531255	0.000497	4.966775	1.682789	0.000199
 213	2.1094e+01	8.4431	22.749260	0.000547	5.473588	1.854502	0.000219
 214	2.1194e+01	8.4816	22.979377	0.000578	5.777677	1.957530	0.000231
 215	2.1293e+01	8.5329	23.225642	0.000618	6.183128	2.094900	0.000248
 216	2.1392e+01	8.5698	23.443647	0.000547	5.473588	1.854502	0.000219
 217	2.1492e+01	8.5955	23.653578	0.000527	5.270863	1.785817	0.000211
 218	2.1591e+01	8.6436	23.879658	0.000568	5.676314	1.923187	0.000227
 219	2.1691e+01	8.6885	24.125923	0.000618	6.183128	2.094900	0.000248
 220	2.1791e+01	8.7158	24.303557	0.000446	4.459961	1.511076	0.000179
 221	2.1890e+01	8.7607	24.549822	0.000618	6.183128	2.094900	0.000248
 222	2.1989e+01	8.8040	24.792051	0.000608	6.081765	2.060558	0.000243
 223	2.2089e+01	8.8457	25.006019	0.000537	5.372226	1.820159	0.000215
 224	2.2189e+01	8.8842	25.219987	0.000537	5.372226	1.820159	0.000215
 225	2.2288e+01	8.9292	25.433955	0.000537	5.372226	1.820159	0.000215
 226	2.2387e+01	8.9516	25.672146	0.000598	5.980402	2.026215	0.000239
 227	2.2487e+01	8.9949	25.845743	0.000436	4.358598	1.476733	0.000174
 228	2.2587e+01	9.0399	26.100083	0.000639	6.385853	2.163586	0.000256
 229	2.2686e+01	9.0816	26.334236	0.000588	5.879039	1.991872	0.000235
 230	2.2785e+01	9.1088	26.588576	0.000639	6.385853	2.163586	0.000256
 231	2.2885e+01	9.1650	26.766210	0.000446	4.459961	1.511076	0.000179
 232	2.2985e+01	9.2019	26.980178	0.000537	5.372226	1.820159	0.000215
 233	2.3084e+01	9.2388	27.202221	0.000557	5.574951	1.888845	0.000223
 234	2.3183e+01	9.2885	27.464634	0.000659	6.588579	2.232271	0.000264
 235	2.3283e+01	9.3206	27.650343	0.000466	4.662686	1.579761	0.000187
 236	2.3383e+01	9.3607	27.868348	0.000547	5.473588	1.854502	0.000219
 237	2.3482e+01	9.4008	28.098465	0.000578	5.777677	1.957530	0.000231
 238	2.3581e+01	9.4377	28.332619	0.000588	5.879039	1.991872	0.000235
 239	2.3681e+01	9.4714	28.582921	0.000628	6.284490	2.129243	0.000252
 240	2.3780e+01	9.5195	28.792852	0.000527	5.270863	1.785817	0.000211
 241	2.3880e+01	9.5532	28.990672	0.000497	4.966775	1.682789	0.000199
 242	2.3980e+01	9.5965	29.188491	0.000497	4.966775	1.682789	0.000199
 243	2.4079e+01	9.6430	29.414571	0.000568	5.676314	1.923187	0.000227
 244	2.4178e+01	9.6783	29.636613	0.000557	5.574951	1.888845	0.000223
 245	2.4278e+01	9.7088	29.858656	0.000557	5.574951	1.888845	0.000223
 246	2.4378e+01	9.7634	30.108958	0.000628	6.284490	2.129243	0.000252
 247	2.4477e+01	9.8051	30.310815	0.000507	5.068137	1.717131	0.000203
 248	2.4576e+01	9.8468	30.504598	0.000487	4.865412	1.648446	0.000195
 249	2.4676e+01	9.8869	30.750863	0.000618	6.183128	2.094900	0.000248
 250	2.4776e+01	9.9110	30.993091	0.000608	6.081765	2.060558	0.000243
 251	2.4875e+01	9.9607	31.215134	0.000557	5.574951	1.888845	0.000223
 252	2.4974e+01	9.9912	31.388730	0.000436	4.358598	1.476733	0.000174
 253	2.5074e+01	10.0361	31.634996	0.000618	6.183128	2.094900	0.000248
 254	2.5174e+01	10.0762	31.820704	0.000466	4.662686	1.579761	0.000187
 255	2.5273e+01	10.1147	32.030635	0.000527	5.270863	1.785817	0.000211
 256	2.5372e+01	10.1596	32.260752	0.000578	5.777677	1.957530	0.000231
 257	2.5472e+01	10.1965	32.478757	0.000547	5.473588	1.854502	0.000219
 258	2.5572e+01	10.2398	32.664465	0.000466	4.662686	1.579761	0.000187
 259	2.5671e+01	10.2767	32.898619	0.000588	5.879039	1.991872	0.000235
 260	2.5770e+01	10.3136	33.116624	0.000547	5.473588	1.854502	0.000219
 261	2.5870e+01	10.3569	33.342704	0.000568	5.676314	1.923187	0.000227
 262	2.5970e+01	10.4018	33.556672	0.000537	5.372226	1.820159	0.000215
 263	2.6069e+01	10.4211	33.794863	0.000598	5.980402	2.026215	0.000239
 264	2.6169e+01	10.4805	34.024980	0.000578	5.777677	1.957530	0.000231
 265	2.6268e+01	10.5174	34.238948	0.000537	5.372226	1.820159	0.000215
 266	2.6367e+01	10.5526	34.465028	0.000568	5.676314	1.923187	0.000227
 267	2.6467e+01	10.5895	34.662847	0.000497	4.966775	1.682789	0.000199
 268	2.6567e+01	10.6393	34.909113	0.000618	6.183128	2.094900	0.000248
 269	2.6666e+01	10.6810	35.115007	0.000517	5.169500	1.751474	0.000207
 270	2.6765e+01	10.7195	35.328975	0.000537	5.372226	1.820159	0.000215
 271	2.6865e+01	10.7596	35.518720	0.000476	4.764049	1.614104	0.000191
 272	2.6965e+01	10.7933	35.744800	0.000568	5.676314	1.923187	0.000227
 273	2.7064e+01	10.8366	35.999139	0.000639	6.385853	2.163586	0.000256
 274	2.7163e+01	10.8703	36.180810	0.000456	4.561324	1.545418	0.000183
 275	2.7263e+01	10.9136	36.386704	0.000517	5.169500	1.751474	0.000207
 276	2.7363e+01	10.9473	36.592598	0.000517	5.169500	1.751474	0.000207
 277	2.7462e+01	10.9922	36.822715	0.000578	5.777677	1.957530	0.000231
 278	2.7561e+01	11.0307	37.028609	0.000517	5.169500	1.751474	0.000207
 279	2.7661e+01	11.0724	37.238540	0.000527	5.270863	1.785817	0.000211
 280	2.7761e+01	11.1254	37.472694	0.000588	5.879039	1.991872	0.000235
 281	2.7860e+01	11.1462	37.702811	0.000578	5.777677	1.957530	0.000231
 282	2.7959e+01	11.1943	37.904667	0.000507	5.068137	1.717131	0.000203
 283	2.8059e+01	11.2296	38.122673	0.000547	5.473588	1.854502	0.000219
 284	2.8159e+01	11.2665	38.332604	0.000527	5.270863	1.785817	0.000211
 285	2.8258e+01	11.3130	38.595018	0.000659	6.588579	2.232271	0.000264
 286	2.8358e+01	11.3451	38.780726	0.000466	4.662686	1.579761	0.000187
 287	2.8457e+01	11.3901	38.986620	0.000517	5.169500	1.751474	0.000207
 288	2.8556e+01	11.4366	39.208662	0.000557	5.574951	1.888845	0.000223
 289	2.8656e+01	11.4815	39.414556	0.000517	5.169500	1.751474	0.000207
 290	2.8756e+01	11.5152	39.636599	0.000557	5.574951	1.888845	0.000223
 291	2.8855e+01	11.5537	39.846530	0.000527	5.270863	1.785817	0.000211
 292	2.8954e+01	11.5890	40.080684	0.000588	5.879039	1.991872	0.000235
 293	2.9054e+01	11.6259	40.278503	0.000497	4.966775	1.682789	0.000199
 294	2.9154e+01	11.6724	40.508620	0.000578	5.777677	1.957530	0.000231
 295	2.9253e+01	11.7045	40.738737	0.000578	5.777677	1.957530	0.000231
 296	2.9352e+01	11.7446	40.964816	0.000568	5.676314	1.923187	0.000227
 297	2.9452e+01	11.7863	41.158599	0.000487	4.865412	1.648446	0.000195
 298	2.9552e+01	11.8392	41.372567	0.000537	5.372226	1.820159	0.000215
 299	2.9651e+01	11.8713	41.574424	0.000507	5.068137	1.717131	0.000203
 300	2.9750e+01	11.9227	41.784355	0.000527	5.270863	1.785817	0.000211
 301	2.9850e+01	11.9499	41.990249	0.000517	5.169500	1.751474	0.000207
 302	2.9950e+01	11.9852	42.216328	0.000568	5.676314	1.923187	0.000227
 303	3.0049e+01	12.0285	42.450482	0.000588	5.879039	1.991872	0.000235
 304	3.0148e+01	12.0686	42.680599	0.000578	5.777677	1.957530	0.000231
 305	3.0248e+01	12.1120	42.874382	0.000487	4.865412	1.648446	0.000195
 306	3.0348e+01	12.1424	43.088350	0.000537	5.372226	1.820159	0.000215
 307	3.0447e+01	12.1858	43.314429	0.000568	5.676314	1.923187	0.000227
 308	3.0547e+01	12.2243	43.536472	0.000557	5.574951	1.888845	0.000223
 309	3.0646e+01	12.2772	43.782737	0.000618	6.183128	2.094900	0.000248
 310	3.0745e+01	12.3013	43.940185	0.000395	3.953147	1.339363	0.000158
 311	3.0845e+01	12.3366	44.162228	0.000557	5.574951	1.888845	0.000223
 312	3.0945e+01	12.3991	44.396382	0.000588	5.879039	1.991872	0.000235
 313	3.1044e+01	12.4248	44.602276	0.000517	5.169500	1.751474	0.000207
 314	3.1143e+01	12.4617	44.808170	0.000517	5.169500	1.751474	0.000207
 315	3.1243e+01	12.5098	45.058472	0.000628	6.284490	2.129243	0.000252
 316	3.1343e+01	12.5515	45.240143	0.000456	4.561324	1.545418	0.000183
 317	3.1442e+01	12.5836	45.437963	0.000497	4.966775	1.682789	0.000199
 318	3.1541e+01	12.6157	45.684228	0.000618	6.183128	2.094900	0.000248
 319	3.1641e+01	12.6606	45.926456	0.000608	6.081765	2.060558	0.000243
 320	3.1741e+01	12.7055	46.100053	0.000436	4.358598	1.476733	0.000174
 321	3.1840e+01	12.7504	46.326133	0.000568	5.676314	1.923187	0.000227
 322	3.1939e+01	12.7889	46.552212	0.000568	5.676314	1.923187	0.000227
 323	3.2039e+01	12.8258	46.770218	0.000547	5.473588	1.854502	0.000219
 324	3.2139e+01	12.8643	46.959963	0.000476	4.764049	1.614104	0.000191
 325	3.2238e+01	12.9077	47.165857	0.000517	5.169500	1.751474	0.000207
 326	3.2337e+01	12.9462	47.391936	0.000568	5.676314	1.923187	0.000227
 327	3.2437e+01	12.9879	47.585719	0.000487	4.865412	1.648446	0.000195
 328	3.2536e+01	13.0248	47.848133	0.000659	6.588579	2.232271	0.000264
 329	3.2636e+01	13.0633	48.049990	0.000507	5.068137	1.717131	0.000203
 330	3.2736e+01	13.0970	48.243772	0.000487	4.865412	1.648446	0.000195
 331	3.2835e+01	13.1483	48.477926	0.000588	5.879039	1.991872	0.000235
 332	3.2934e+01	13.1820	48.675746	0.000497	4.966775	1.682789	0.000199
 333	3.3034e+01	13.2317	48.913937	0.000598	5.980402	2.026215	0.000239
 334	3.3133e+01	13.2606	49.123868	0.000527	5.270863	1.785817	0.000211
 335	3.3233e+01	13.2943	49.341873	0.000547	5.473588	1.854502	0.000219
 336	3.3333e+01	13.3440	49.576027	0.000588	5.879039	1.991872	0.000235
 337	3.3432e+01	13.3889	49.806144	0.000578	5.777677	1.957530	0.000231
 338	3.3532e+01	13.4258	50.020112	0.000537	5.372226	1.820159	0.000215
 339	3.3631e+01	13.4723	50.209857	0.000476	4.764049	1.614104	0.000191
 340	3.3730e+01	13.5060	50.431900	0.000557	5.574951	1.888845	0.000223
 341	3.3830e+01	13.5397	50.666054	0.000588	5.879039	1.991872	0.000235
 342	3.3929e+01	13.5814	50.908282	0.000608	6.081765	2.060558	0.000243
 343	3.4029e+01	13.6215	51.118213	0.000527	5.270863	1.785817	0.000211
 344	3.4129e+01	13.6665	51.328144	0.000527	5.270863	1.785817	0.000211
 345	3.4228e+01	13.7018	51.554223	0.000568	5.676314	1.923187	0.000227
 346	3.4328e+01	13.7451	51.768192	0.000537	5.372226	1.820159	0.000215
 347	3.4427e+01	13.7868	51.957937	0.000476	4.764049	1.614104	0.000191
 348	3.4526e+01	13.8108	52.163831	0.000517	5.169500	1.751474	0.000207
 349	3.4626e+01	13.8574	52.410096	0.000618	6.183128	2.094900	0.000248
 350	3.4725e+01	13.9055	52.652324	0.000608	6.081765	2.060558	0.000243
 351	3.4825e+01	13.9440	52.813810	0.000405	4.054510	1.373705	0.000162
 352	3.4925e+01	13.9825	53.100446	0.000720	7.196755	2.438327	0.000288
 353	3.5024e+01	14.0274	53.302303	0.000507	5.068137	1.717131	0.000203
 354	3.5123e+01	14.0547	53.520308	0.000547	5.473588	1.854502	0.000219
 355	3.5223e+01	14.0996	53.718128	0.000497	4.966775	1.682789	0.000199
 356	3.5322e+01	14.1429	53.940171	0.000557	5.574951	1.888845	0.000223
 357	3.5422e+01	14.1846	54.190473	0.000628	6.284490	2.129243	0.000252
 358	3.5522e+01	14.2151	54.400404	0.000527	5.270863	1.785817	0.000211
 359	3.5621e+01	14.2632	54.606298	0.000517	5.169500	1.751474	0.000207
 360	3.5721e+01	14.3001	54.824303	0.000547	5.473588	1.854502	0.000219
 361	3.5820e+01	14.3370	55.026160	0.000507	5.068137	1.717131	0.000203
 362	3.5919e+01	14.3787	55.276463	0.000628	6.284490	2.129243	0.000252
 363	3.6019e+01	14.4124	55.514654	0.000598	5.980402	2.026215	0.000239
 364	3.6118e+01	14.4541	55.732659	0.000547	5.473588	1.854502	0.000219
 365	3.6218e+01	14.4991	55.946627	0.000537	5.372226	1.820159	0.000215
 366	3.6318e+01	14.5360	56.164632	0.000547	5.473588	1.854502	0.000219
 367	3.6417e+01	14.5777	56.354378	0.000476	4.764049	1.614104	0.000191
 368	3.6517e+01	14.6210	56.612754	0.000649	6.487216	2.197928	0.000260
 369	3.6616e+01	14.6563	56.814611	0.000507	5.068137	1.717131	0.000203
 370	3.6715e+01	14.6964	57.036654	0.000557	5.574951	1.888845	0.000223
 371	3.6815e+01	14.7397	57.282919	0.000618	6.183128	2.094900	0.000248
 372	3.6914e+01	14.7814	57.508999	0.000568	5.676314	1.923187	0.000227
 373	3.7014e+01	14.8263	57.722967	0.000537	5.372226	1.820159	0.000215
 374	3.7114e+01	14.8616	57.928861	0.000517	5.169500	1.751474	0.000207
 375	3.7213e+01	14.8937	58.171089	0.000608	6.081765	2.060558	0.000243
 376	3.7313e+01	14.9386	58.381020	0.000527	5.270863	1.785817	0.000211
 377	3.7412e+01	14.9723	58.623248	0.000608	6.081765	2.060558	0.000243
 378	3.7511e+01	15.0156	58.841253	0.000547	5.473588	1.854502	0.000219
 379	3.7611e+01	15.0493	59.059259	0.000547	5.473588	1.854502	0.000219
 380	3.7711e+01	15.0926	59.317635	0.000649	6.487216	2.197928	0.000260
 381	3.7810e+01	15.1375	59.511418	0.000487	4.865412	1.648446	0.000195
 382	3.7910e+01	15.1648	59.753646	0.000608	6.081765	2.060558	0.000243
 383	3.8009e+01	15.2178	59.987800	0.000588	5.879039	1.991872	0.000235
 384	3.8108e+01	15.2579	60.185620	0.000497	4.966775	1.682789	0.000199
 385	3.8208e+01	15.2915	60.371328	0.000466	4.662686	1.579761	0.000187
 386	3.8307e+01	15.3381	60.629705	0.000649	6.487216	2.197928	0.000260
 387	3.8407e+01	15.3766	60.859821	0.000578	5.777677	1.957530	0.000231
 388	3.8507e+01	15.4199	61.114161	0.000639	6.385853	2.163586	0.000256
 389	3.8606e+01	15.4584	61.360426	0.000618	6.183128	2.094900	0.000248
 390	3.8706e+01	15.4921	61.562283	0.000507	5.068137	1.717131	0.000203
 391	3.8805e+01	15.5402	61.808548	0.000618	6.183128	2.094900	0.000248
 392	3.8904e+01	15.5755	62.038665	0.000578	5.777677	1.957530	0.000231
 393	3.9004e+01	15.6124	62.256670	0.000547	5.473588	1.854502	0.000219
 394	3.9103e+01	15.6525	62.482750	0.000568	5.676314	1.923187	0.000227
 395	3.9203e+01	15.6990	62.737089	0.000639	6.385853	2.163586	0.000256
 396	3.9303e+01	15.7407	62.959132	0.000557	5.574951	1.888845	0.000223
 397	3.9402e+01	15.7808	63.169063	0.000527	5.270863	1.785817	0.000211
 398	3.9502e+01	15.8065	63.403217	0.000588	5.879039	1.991872	0.000235
 399	3.9601e+01	15.8514	63.665631	0.000659	6.588579	2.232271	0.000264
 400	3.9700e+01	15.8915	63.879599	0.000537	5.372226	1.820159	0.000215
 401	3.9800e+01	15.9332	64.129901	0.000628	6.284490	2.129243	0.000252
 402	3.9900e+01	15.9669	64.392315	0.000659	6.588579	2.232271	0.000264
 403	3.9999e+01	16.0135	64.610320	0.000547	5.473588	1.854502	0.000219
 404	4.0099e+01	16.0568	64.848511	0.000598	5.980402	2.026215	0.000239
 405	4.0198e+01	16.0937	65.066517	0.000547	5.473588	1.854502	0.000219
 406	4.0297e+01	16.1338	65.316819	0.000628	6.284490	2.129243	0.000252
 407	4.0397e+01	16.1755	65.542899	0.000568	5.676314	1.923187	0.000227
 408	4.0496e+01	16.2156	65.793201	0.000628	6.284490	2.129243	0.000252
 409	4.0596e+01	16.2493	66.003132	0.000527	5.270863	1.785817	0.000211
 410	4.0696e+01	16.2894	66.289769	0.000720	7.196755	2.438327	0.000288
 411	4.0795e+01	16.3311	66.491626	0.000507	5.068137	1.717131	0.000203
 412	4.0895e+01	16.3712	66.758077	0.000669	6.689941	2.266613	0.000268
 413	4.0994e+01	16.4129	67.012416	0.000639	6.385853	2.163586	0.000256
 414	4.1093e+01	16.4514	67.214273	0.000507	5.068137	1.717131	0.000203
 415	4.1193e+01	16.4915	67.440353	0.000568	5.676314	1.923187	0.000227
 416	4.1292e+01	16.5316	67.686618	0.000618	6.183128	2.094900	0.000248
 417	4.1392e+01	16.5621	67.949032	0.000659	6.588579	2.232271	0.000264
 418	4.1492e+01	16.6118	68.187223	0.000598	5.980402	2.026215	0.000239
 419	4.1591e+01	16.6487	68.441562	0.000639	6.385853	2.163586	0.000256
 420	4.1691e+01	16.6888	68.671679	0.000578	5.777677	1.957530	0.000231
 421	4.1790e+01	16.7321	68.909870	0.000598	5.980402	2.026215	0.000239
 422	4.1889e+01	16.7690	69.156135	0.000618	6.183128	2.094900	0.000248
 423	4.1989e+01	16.8172	69.438735	0.000710	7.095392	2.403984	0.000284
 424	4.2089e+01	16.8557	69.660777	0.000557	5.574951	1.888845	0.000223
 425	4.2188e+01	16.8813	69.886857	0.000568	5.676314	1.923187	0.000227
 426	4.2288e+01	16.9279	70.177531	0.000730	7.298118	2.472669	0.000292
 427	4.2387e+01	16.9728	70.387462	0.000527	5.270863	1.785817	0.000211
 428	4.2486e+01	17.0113	70.653913	0.000669	6.689941	2.266613	0.000268
 429	4.2586e+01	17.0450	70.928438	0.000689	6.892667	2.335299	0.000276
 430	4.2685e+01	17.1011	71.166629	0.000598	5.980402	2.026215	0.000239
 431	4.2785e+01	17.1332	71.425005	0.000649	6.487216	2.197928	0.000260
 432	4.2885e+01	17.1701	71.707605	0.000710	7.095392	2.403984	0.000284
 433	4.2984e+01	17.1990	71.953870	0.000618	6.183128	2.094900	0.000248
 434	4.3084e+01	17.2503	72.188024	0.000588	5.879039	1.991872	0.000235
 435	4.3183e+01	17.2824	72.466586	0.000699	6.994030	2.369641	0.000280
 436	4.3282e+01	17.3289	72.737075	0.000679	6.791304	2.300956	0.000272
 437	4.3382e+01	17.3706	72.967191	0.000578	5.777677	1.957530	0.000231
 438	4.3481e+01	17.4091	73.282088	0.000791	7.906294	2.678725	0.000316
 439	4.3581e+01	17.4460	73.508168	0.000568	5.676314	1.923187	0.000227
 440	4.3681e+01	17.4910	73.786730	0.000699	6.994030	2.369641	0.000280
 441	4.3780e+01	17.5343	74.032995	0.000618	6.183128	2.094900	0.000248
 442	4.3880e+01	17.5647	74.307520	0.000689	6.892667	2.335299	0.000276
 443	4.3979e+01	17.6000	74.573971	0.000669	6.689941	2.266613	0.000268
 444	4.4078e+01	17.6450	74.856571	0.000710	7.095392	2.403984	0.000284
 445	4.4178e+01	17.6931	75.094762	0.000598	5.980402	2.026215	0.000239
 446	4.4278e+01	17.7236	75.369287	0.000689	6.892667	2.335299	0.000276
 447	4.4377e+01	17.7653	75.663998	0.000740	7.399481	2.507012	0.000296
 448	4.4477e+01	17.8006	75.910263	0.000618	6.183128	2.094900	0.000248
 449	4.4576e+01	17.8455	76.196900	0.000720	7.196755	2.438327	0.000288
 450	4.4675e+01	17.8792	76.479499	0.000710	7.095392	2.403984	0.000284
 451	4.4775e+01	17.9193	76.758062	0.000699	6.994030	2.369641	0.000280
 452	4.4874e+01	17.9610	77.044698	0.000720	7.196755	2.438327	0.000288
 453	4.4974e+01	17.9979	77.307112	0.000659	6.588579	2.232271	0.000264
 454	4.5074e+01	18.0380	77.593749	0.000720	7.196755	2.438327	0.000288
 455	4.5173e+01	18.0797	77.892497	0.000750	7.500843	2.541355	0.000300
 456	4.5273e+01	18.1246	78.150874	0.000649	6.487216	2.197928	0.000260
 457	4.5372e+01	18.1679	78.449622	0.000750	7.500843	2.541355	0.000300
 458	4.5471e+01	18.1968	78.740295	0.000730	7.298118	2.472669	0.000292
 459	4.5571e+01	18.2433	79.055192	0.000791	7.906294	2.678725	0.000316
 460	4.5670e+01	18.2850	79.293383	0.000598	5.980402	2.026215	0.000239
 461	4.5770e+01	18.3235	79.580020	0.000720	7.196755	2.438327	0.000288
 462	4.5870e+01	18.3572	79.902991	0.000811	8.109020	2.747410	0.000325
 463	4.5969e+01	18.3957	80.185590	0.000710	7.095392	2.403984	0.000284
 464	4.6069e+01	18.4455	80.492412	0.000770	7.703569	2.610040	0.000308
 465	4.6168e+01	18.4776	80.779049	0.000720	7.196755	2.438327	0.000288
 466	4.6267e+01	18.5209	81.093946	0.000791	7.906294	2.678725	0.000316
 467	4.6367e+01	18.5610	81.384619	0.000730	7.298118	2.472669	0.000292
 468	4.6467e+01	18.6123	81.691442	0.000770	7.703569	2.610040	0.000308
 469	4.6566e+01	18.6396	82.006338	0.000791	7.906294	2.678725	0.000316
 470	4.6666e+01	18.6861	82.309123	0.000760	7.602206	2.575697	0.000304
 471	4.6765e+01	18.7150	82.628057	0.000801	8.007657	2.713068	0.000321
 472	4.6864e+01	18.7743	82.926805	0.000750	7.500843	2.541355	0.000300
 473	4.6964e+01	18.8000	83.245739	0.000801	8.007657	2.713068	0.000321
 474	4.7063e+01	18.8417	83.564673	0.000801	8.007657	2.713068	0.000321
 475	4.7163e+01	18.8802	83.899755	0.000841	8.413108	2.850438	0.000337
 476	4.7263e+01	18.9235	84.194466	0.000740	7.399481	2.507012	0.000296
 477	4.7362e+01	18.9668	84.537622	0.000862	8.615834	2.919123	0.000345
 478	4.7462e+01	18.9941	84.840408	0.000760	7.602206	2.575697	0.000304
 479	4.7561e+01	19.0422	85.139156	0.000750	7.500843	2.541355	0.000300
 480	4.7660e+01	19.0840	85.494424	0.000892	8.919922	3.022151	0.000357
 481	4.7760e+01	19.1144	85.797209	0.000760	7.602206	2.575697	0.000304
 482	4.7859e+01	19.1610	86.132291	0.000841	8.413108	2.850438	0.000337
 483	4.7959e+01	19.1930	86.475448	0.000862	8.615834	2.919123	0.000345
 484	4.8059e+01	19.2492	86.830715	0.000892	8.919922	3.022151	0.000357
 485	4.8158e+01	19.2749	87.165798	0.000841	8.413108	2.850438	0.000337
 486	4.8258e+01	19.3214	87.521066	0.000892	8.919922	3.022151	0.000357
 487	4.8357e+01	19.3599	87.884408	0.000912	9.122647	3.090837	0.000365
 488	4.8456e+01	19.3952	88.215453	0.000831	8.311745	2.816096	0.000333
 489	4.8556e+01	19.4369	88.566684	0.000882	8.818559	2.987809	0.000353
 490	4.8656e+01	19.4754	88.909840	0.000862	8.615834	2.919123	0.000345
 491	4.8755e+01	19.5139	89.236848	0.000821	8.210383	2.781753	0.000329
 492	4.8855e+01	19.5636	89.632488	0.000993	9.933549	3.365578	0.000398
 493	4.8954e+01	19.5909	90.024090	0.000983	9.832187	3.331235	0.000394
 494	4.9053e+01	19.6182	90.343024	0.000801	8.007657	2.713068	0.000321
 495	4.9153e+01	19.6743	90.726551	0.000963	9.629461	3.262550	0.000385
 496	4.9252e+01	19.7144	91.106042	0.000953	9.528098	3.228207	0.000381
 497	4.9352e+01	19.7513	91.477459	0.000933	9.325373	3.159522	0.000373
 498	4.9452e+01	19.8026	91.869061	0.000983	9.832187	3.331235	0.000394
 499	4.9551e+01	19.8379	92.228366	0.000902	9.021285	3.056494	0.000361
 500	4.9651e+01	19.8780	92.607857	0.000953	9.528098	3.228207	0.000381
 501	4.9750e+01	19.9166	92.999459	0.000983	9.832187	3.331235	0.000394
 502	4.9849e+01	19.9454	93.407210	0.001024	10.237637	3.468605	0.000410
 503	4.9949e+01	19.9919	93.802849	0.000993	9.933549	3.365578	0.000398
 504	5.0048e+01	19.9567	93.831109	-0.000071	-0.709539	-0.240398	0.000028
 505	5.0148e+01	19.9182	93.911852	-0.000203	-2.027255	-0.686853	0.000081
 506	5.0248e+01	19.8797	93.948186	-0.000091	-0.912265	-0.309084	0.000037
 507	5.0347e+01	19.8379	93.984520	-0.000091	-0.912265	-0.309084	0.000037
 508	5.0447e+01	19.7946	94.024891	-0.000101	-1.013627	-0.343426	0.000041
 509	5.0546e+01	19.7545	94.093523	-0.000172	-1.723167	-0.583825	0.000069
 510	5.0645e+01	19.7176	94.077374	0.000041	0.405451	0.137371	-0.000016
 511	5.0745e+01	19.6807	94.113708	-0.000091	-0.912265	-0.309084	0.000037
 512	5.0844e+01	19.6374	94.137931	-0.000061	-0.608176	-0.206056	0.000024
 513	5.0944e+01	19.6037	94.162154	-0.000061	-0.608176	-0.206056	0.000024
 514	5.1044e+01	19.5540	94.194451	-0.000081	-0.810902	-0.274741	0.000032
 515	5.1143e+01	19.5203	94.198488	-0.000010	-0.101363	-0.034343	0.000004
 516	5.1242e+01	19.4786	94.210600	-0.000030	-0.304088	-0.103028	0.000012
 517	5.1342e+01	19.4449	94.214637	-0.000010	-0.101363	-0.034343	0.000004
 518	5.1441e+01	19.3952	94.222711	-0.000020	-0.202725	-0.068685	0.000008
 519	5.1541e+01	19.3567	94.222711	-0.000000	-0.000000	-0.000000	0.000000
 520	5.1641e+01	19.3182	94.186377	0.000091	0.912265	0.309084	-0.000037
 521	5.1740e+01	19.2749	94.226748	-0.000101	-1.013627	-0.343426	0.000041
 522	5.1840e+01	19.2396	94.194451	0.000081	0.810902	0.274741	-0.000032
 523	5.1939e+01	19.1962	94.198488	-0.000010	-0.101363	-0.034343	0.000004
 524	5.2038e+01	19.1626	94.174265	0.000061	0.608176	0.206056	-0.000024
 525	5.2138e+01	19.1257	94.150043	0.000061	0.608176	0.206056	-0.000024
 526	5.2237e+01	19.0840	94.150043	-0.000000	-0.000000	-0.000000	0.000000
 527	5.2337e+01	19.0358	94.137931	0.000030	0.304088	0.103028	-0.000012
 528	5.2437e+01	19.0070	94.069300	0.000172	1.723167	0.583825	-0.000069
 529	5.2536e+01	18.9636	94.065263	0.000010	0.101363	0.034343	-0.000004
 530	5.2636e+01	18.9203	94.053151	0.000030	0.304088	0.103028	-0.000012
 531	5.2735e+01	18.8786	94.032966	0.000051	0.506814	0.171713	-0.000020
 532	5.2834e+01	18.8385	93.992594	0.000101	1.013627	0.343426	-0.000041
 533	5.2934e+01	18.8064	93.948186	0.000111	1.114990	0.377769	-0.000045
 534	5.3033e+01	18.7631	93.879554	0.000172	1.723167	0.583825	-0.000069
 535	5.3133e+01	18.7230	93.895703	-0.000041	-0.405451	-0.137371	0.000016
 536	5.3233e+01	18.6861	93.843220	0.000132	1.317716	0.446454	-0.000053
 537	5.3332e+01	18.6364	93.786700	0.000142	1.419078	0.480797	-0.000057
 538	5.3431e+01	18.6075	93.758440	0.000071	0.709539	0.240398	-0.000028
 539	5.3531e+01	18.5674	93.714032	0.000111	1.114990	0.377769	-0.000045
 540	5.3630e+01	18.5209	93.657512	0.000142	1.419078	0.480797	-0.000057
 541	5.3730e+01	18.4824	93.617141	0.000101	1.013627	0.343426	-0.000041
 542	5.3830e+01	18.4439	93.520249	0.000243	2.432706	0.824223	-0.000097
 543	5.3929e+01	18.4006	93.467767	0.000132	1.317716	0.446454	-0.000053
 544	5.4029e+01	18.3604	93.427395	0.000101	1.013627	0.343426	-0.000041
 545	5.4128e+01	18.3219	93.374912	0.000132	1.317716	0.446454	-0.000053
 546	5.4227e+01	18.2834	93.290133	0.000213	2.128618	0.721195	-0.000085
 547	5.4327e+01	18.2353	93.241687	0.000122	1.216353	0.412112	-0.000049
 548	5.4426e+01	18.2096	93.193241	0.000122	1.216353	0.412112	-0.000049
 549	5.4526e+01	18.1631	93.124610	0.000172	1.723167	0.583825	-0.000069
 550	5.4626e+01	18.1246	93.015607	0.000274	2.736794	0.927251	-0.000110
 551	5.4725e+01	18.0733	92.963125	0.000132	1.317716	0.446454	-0.000053
 552	5.4825e+01	18.0476	92.878345	0.000213	2.128618	0.721195	-0.000085
 553	5.4924e+01	18.0043	92.813751	0.000162	1.621804	0.549482	-0.000065
 554	5.5023e+01	17.9578	92.737045	0.000193	1.925892	0.652510	-0.000077
 555	5.5123e+01	17.9241	92.684562	0.000132	1.317716	0.446454	-0.000053
 556	5.5222e+01	17.8888	92.607857	0.000193	1.925892	0.652510	-0.000077
 557	5.5322e+01	17.8439	92.539225	0.000172	1.723167	0.583825	-0.000069
 558	5.5422e+01	17.8006	92.462520	0.000193	1.925892	0.652510	-0.000077
 559	5.5521e+01	17.7669	92.357554	0.000264	2.635431	0.892908	-0.000105
 560	5.5620e+01	17.7188	92.260663	0.000243	2.432706	0.824223	-0.000097
 561	5.5720e+01	17.6754	92.187995	0.000182	1.824529	0.618167	-0.000073
 562	5.5819e+01	17.6417	92.115326	0.000182	1.824529	0.618167	-0.000073
 563	5.5919e+01	17.6016	92.002286	0.000284	2.838157	0.961594	-0.000114
 564	5.6019e+01	17.5615	91.905395	0.000243	2.432706	0.824223	-0.000097
 565	5.6118e+01	17.5246	91.820615	0.000213	2.128618	0.721195	-0.000085
 566	5.6218e+01	17.4926	91.687390	0.000334	3.344971	1.133307	-0.000134
 567	5.6317e+01	17.4476	91.651056	0.000091	0.912265	0.309084	-0.000037
 568	5.6416e+01	17.4011	91.517830	0.000334	3.344971	1.133307	-0.000134
 569	5.6516e+01	17.3626	91.433050	0.000213	2.128618	0.721195	-0.000085
 570	5.6615e+01	17.3337	91.376530	0.000142	1.419078	0.480797	-0.000057
 571	5.6715e+01	17.2760	91.211008	0.000416	4.155873	1.408048	-0.000166
 572	5.6815e+01	17.2455	91.150451	0.000152	1.520441	0.515139	-0.000061
 573	5.6914e+01	17.2038	91.001077	0.000375	3.750422	1.270677	-0.000150
 574	5.7014e+01	17.1669	90.920334	0.000203	2.027255	0.686853	-0.000081
 575	5.7113e+01	17.1220	90.811331	0.000274	2.736794	0.927251	-0.000110
 576	5.7212e+01	17.0915	90.694254	0.000294	2.939520	0.995936	-0.000118
 577	5.7312e+01	17.0514	90.601400	0.000233	2.331343	0.789880	-0.000093
 578	5.7411e+01	16.9952	90.472212	0.000324	3.243608	1.098964	-0.000130
 579	5.7511e+01	16.9664	90.375321	0.000243	2.432706	0.824223	-0.000097
 580	5.7611e+01	16.9295	90.229984	0.000365	3.649059	1.236335	-0.000146
 581	5.7710e+01	16.8862	90.120981	0.000274	2.736794	0.927251	-0.000110
 582	5.7809e+01	16.8477	90.003904	0.000294	2.939520	0.995936	-0.000118
 583	5.7909e+01	16.8027	89.894901	0.000274	2.736794	0.927251	-0.000110
 584	5.8008e+01	16.7803	89.785899	0.000274	2.736794	0.927251	-0.000110
 585	5.8108e+01	16.7354	89.693045	0.000233	2.331343	0.789880	-0.000093
 586	5.8208e+01	16.6969	89.547708	0.000365	3.649059	1.236335	-0.000146
 587	5.8307e+01	16.6600	89.430631	0.000294	2.939520	0.995936	-0.000118
 588	5.8407e+01	16.6102	89.305480	0.000314	3.142245	1.064621	-0.000126
 589	5.8506e+01	16.5669	89.160143	0.000365	3.649059	1.236335	-0.000146
 590	5.8605e+01	16.5332	89.051140	0.000274	2.736794	0.927251	-0.000110
 591	5.8705e+01	16.4899	88.913877	0.000345	3.446333	1.167649	-0.000138
 592	5.8804e+01	16.4546	88.780652	0.000334	3.344971	1.133307	-0.000134
 593	5.8904e+01	16.4145	88.615129	0.000416	4.155873	1.408048	-0.000166
 594	5.9004e+01	16.3888	88.534387	0.000203	2.027255	0.686853	-0.000081
 595	5.9103e+01	16.3167	88.360790	0.000436	4.358598	1.476733	-0.000174
 596	5.9203e+01	16.2846	88.231602	0.000324	3.243608	1.098964	-0.000130
 597	5.9302e+01	16.2493	88.134710	0.000243	2.432706	0.824223	-0.000097
 598	5.9401e+01	16.2076	87.985336	0.000375	3.750422	1.270677	-0.000150
 599	5.9501e+01	16.1642	87.868259	0.000294	2.939520	0.995936	-0.000118
 600	5.9600e+01	16.1257	87.710811	0.000395	3.953147	1.339363	-0.000158
 601	5.9700e+01	16.0937	87.589697	0.000304	3.040882	1.030279	-0.000122
 602	5.9800e+01	16.0568	87.464546	0.000314	3.142245	1.064621	-0.000126
 603	5.9899e+01	16.0135	87.303060	0.000405	4.054510	1.373705	-0.000162
 604	5.9998e+01	15.9750	87.185983	0.000294	2.939520	0.995936	-0.000118
 605	6.0098e+01	15.9397	87.028535	0.000395	3.953147	1.339363	-0.000158
 606	6.0197e+01	15.8883	86.903384	0.000314	3.142245	1.064621	-0.000126
 607	6.0297e+01	15.8466	86.745936	0.000395	3.953147	1.339363	-0.000158
 608	6.0397e+01	15.8129	86.588487	0.000395	3.953147	1.339363	-0.000158
 609	6.0496e+01	15.7696	86.471410	0.000294	2.939520	0.995936	-0.000118
 610	6.0596e+01	15.7247	86.342222	0.000324	3.243608	1.098964	-0.000130
 611	6.0695e+01	15.6910	86.213034	0.000324	3.243608	1.098964	-0.000130
 612	6.0794e+01	15.6589	86.031363	0.000456	4.561324	1.545418	-0.000183
 613	6.0894e+01	15.6156	85.898137	0.000334	3.344971	1.133307	-0.000134
 614	6.0993e+01	15.5739	85.772986	0.000314	3.142245	1.064621	-0.000126
 615	6.1093e+01	15.5386	85.631686	0.000355	3.547696	1.201992	-0.000142
 616	6.1193e+01	15.4953	85.433866	0.000497	4.966775	1.682789	-0.000199
 617	6.1292e+01	15.4584	85.300641	0.000334	3.344971	1.133307	-0.000134
 618	6.1392e+01	15.4022	85.155304	0.000365	3.649059	1.236335	-0.000146
 619	6.1491e+01	15.3782	84.997856	0.000395	3.953147	1.339363	-0.000158
 620	6.1590e+01	15.3381	84.832333	0.000416	4.155873	1.408048	-0.000166
 621	6.1690e+01	15.2915	84.686996	0.000365	3.649059	1.236335	-0.000146
 622	6.1789e+01	15.2563	84.505325	0.000456	4.561324	1.545418	-0.000183
 623	6.1889e+01	15.2097	84.404397	0.000253	2.534069	0.858566	-0.000101
 624	6.1989e+01	15.1744	84.202540	0.000507	5.068137	1.717131	-0.000203
 625	6.2088e+01	15.1311	84.057203	0.000365	3.649059	1.236335	-0.000146
 626	6.2188e+01	15.0958	83.911866	0.000365	3.649059	1.236335	-0.000146
 627	6.2287e+01	15.0637	83.754418	0.000395	3.953147	1.339363	-0.000158
 628	6.2386e+01	15.0220	83.609081	0.000365	3.649059	1.236335	-0.000146
 629	6.2486e+01	14.9755	83.467781	0.000355	3.547696	1.201992	-0.000142
 630	6.2586e+01	14.9450	83.310333	0.000395	3.953147	1.339363	-0.000158
 631	6.2685e+01	14.8889	83.148848	0.000405	4.054510	1.373705	-0.000162
 632	6.2785e+01	14.8616	82.979288	0.000426	4.257235	1.442390	-0.000170
 633	6.2884e+01	14.8103	82.805691	0.000436	4.358598	1.476733	-0.000174
 634	6.2983e+01	14.7766	82.664391	0.000355	3.547696	1.201992	-0.000142
 635	6.3083e+01	14.7317	82.506943	0.000395	3.953147	1.339363	-0.000158
 636	6.3182e+01	14.6948	82.317198	0.000476	4.764049	1.614104	-0.000191
 637	6.3282e+01	14.6691	82.151675	0.000416	4.155873	1.408048	-0.000166
 638	6.3382e+01	14.6130	81.982115	0.000426	4.257235	1.442390	-0.000170
 639	6.3481e+01	14.5921	81.848890	0.000334	3.344971	1.133307	-0.000134
 640	6.3581e+01	14.5376	81.711627	0.000345	3.446333	1.167649	-0.000138
 641	6.3680e+01	14.4958	81.501696	0.000527	5.270863	1.785817	-0.000211
 642	6.3779e+01	14.4493	81.340211	0.000405	4.054510	1.373705	-0.000162
 643	6.3879e+01	14.4188	81.194874	0.000365	3.649059	1.236335	-0.000146
 644	6.3978e+01	14.3852	80.988980	0.000517	5.169500	1.751474	-0.000207
 645	6.4078e+01	14.3434	80.839606	0.000375	3.750422	1.270677	-0.000150
 646	6.4177e+01	14.2985	80.645824	0.000487	4.865412	1.648446	-0.000195
 647	6.4277e+01	14.2600	80.464152	0.000456	4.561324	1.545418	-0.000183
 648	6.4376e+01	14.2215	80.306704	0.000395	3.953147	1.339363	-0.000158
 649	6.4476e+01	14.1878	80.112922	0.000487	4.865412	1.648446	-0.000195
 650	6.4576e+01	14.1429	79.967585	0.000365	3.649059	1.236335	-0.000146
 651	6.4675e+01	14.0948	79.814174	0.000385	3.851784	1.305020	-0.000154
 652	6.4775e+01	14.0595	79.620391	0.000487	4.865412	1.648446	-0.000195
 653	6.4874e+01	14.0274	79.462943	0.000395	3.953147	1.339363	-0.000158
 654	6.4974e+01	13.9825	79.269160	0.000487	4.865412	1.648446	-0.000195
 655	6.5073e+01	13.9328	79.135935	0.000334	3.344971	1.133307	-0.000134
 656	6.5172e+01	13.8975	78.921967	0.000537	5.372226	1.820159	-0.000215
 657	6.5272e+01	13.8670	78.784704	0.000345	3.446333	1.167649	-0.000138
 658	6.5371e+01	13.8237	78.586884	0.000497	4.966775	1.682789	-0.000199
 659	6.5471e+01	13.7836	78.413287	0.000436	4.358598	1.476733	-0.000174
 660	6.5570e+01	13.7515	78.227579	0.000466	4.662686	1.579761	-0.000187
 661	6.5670e+01	13.7034	78.062057	0.000416	4.155873	1.408048	-0.000166
 662	6.5769e+01	13.6600	77.900571	0.000405	4.054510	1.373705	-0.000162
 663	6.5869e+01	13.6199	77.710826	0.000476	4.764049	1.614104	-0.000191
 664	6.5969e+01	13.5862	77.529155	0.000456	4.561324	1.545418	-0.000183
 665	6.6068e+01	13.5429	77.379781	0.000375	3.750422	1.270677	-0.000150
 666	6.6168e+01	13.4948	77.218295	0.000405	4.054510	1.373705	-0.000162
 667	6.6267e+01	13.4643	77.020476	0.000497	4.966775	1.682789	-0.000199
 668	6.6367e+01	13.4242	76.794396	0.000568	5.676314	1.923187	-0.000227
 669	6.6466e+01	13.3809	76.673282	0.000304	3.040882	1.030279	-0.000122
 670	6.6566e+01	13.3408	76.463351	0.000527	5.270863	1.785817	-0.000211
 671	6.6665e+01	13.3055	76.301865	0.000405	4.054510	1.373705	-0.000162
 672	6.6764e+01	13.2670	76.152491	0.000375	3.750422	1.270677	-0.000150
 673	6.6864e+01	13.2221	75.922375	0.000578	5.777677	1.957530	-0.000231
 674	6.6963e+01	13.1804	75.740704	0.000456	4.561324	1.545418	-0.000183
 675	6.7063e+01	13.1435	75.595367	0.000365	3.649059	1.236335	-0.000146
 676	6.7162e+01	13.0986	75.433881	0.000405	4.054510	1.373705	-0.000162
 677	6.7262e+01	13.0601	75.244136	0.000476	4.764049	1.614104	-0.000191
 678	6.7362e+01	13.0183	75.034205	0.000527	5.270863	1.785817	-0.000211
 679	6.7461e+01	12.9863	74.844459	0.000476	4.764049	1.614104	-0.000191
 680	6.7561e+01	12.9510	74.662788	0.000456	4.561324	1.545418	-0.000183
 681	6.7660e+01	12.9061	74.513414	0.000375	3.750422	1.270677	-0.000150
 682	6.7760e+01	12.8643	74.323669	0.000476	4.764049	1.614104	-0.000191
 683	6.7859e+01	12.8274	74.137961	0.000466	4.662686	1.579761	-0.000187
 684	6.7959e+01	12.7889	73.968401	0.000426	4.257235	1.442390	-0.000170
 685	6.8058e+01	12.7472	73.754433	0.000537	5.372226	1.820159	-0.000215
 686	6.8157e+01	12.6991	73.617170	0.000345	3.446333	1.167649	-0.000138
 687	6.8257e+01	12.6702	73.407239	0.000527	5.270863	1.785817	-0.000211
 688	6.8356e+01	12.6317	73.249791	0.000395	3.953147	1.339363	-0.000158
 689	6.8456e+01	12.5868	73.023711	0.000568	5.676314	1.923187	-0.000227
 690	6.8555e+01	12.5419	72.866263	0.000395	3.953147	1.339363	-0.000158
 691	6.8655e+01	12.4970	72.632109	0.000588	5.879039	1.991872	-0.000235
 692	6.8754e+01	12.4617	72.490809	0.000355	3.547696	1.201992	-0.000142
 693	6.8854e+01	12.4216	72.288953	0.000507	5.068137	1.717131	-0.000203
 694	6.8954e+01	12.3943	72.103244	0.000466	4.662686	1.579761	-0.000187
 695	6.9053e+01	12.3462	71.877165	0.000568	5.676314	1.923187	-0.000227
 696	6.9153e+01	12.3077	71.707605	0.000426	4.257235	1.442390	-0.000170
 697	6.9252e+01	12.2692	71.566305	0.000355	3.547696	1.201992	-0.000142
 698	6.9352e+01	12.2275	71.324077	0.000608	6.081765	2.060558	-0.000243
 699	6.9451e+01	12.1954	71.146443	0.000446	4.459961	1.511076	-0.000179
 700	6.9550e+01	12.1456	70.964772	0.000456	4.561324	1.545418	-0.000183
 701	6.9650e+01	12.1039	70.783101	0.000456	4.561324	1.545418	-0.000183
 702	6.9749e+01	12.0638	70.573170	0.000527	5.270863	1.785817	-0.000211
 703	6.9849e+01	12.0350	70.403610	0.000426	4.257235	1.442390	-0.000170
 704	6.9948e+01	11.9900	70.189642	0.000537	5.372226	1.820159	-0.000215
 705	7.0048e+01	11.9531	69.995859	0.000487	4.865412	1.648446	-0.000195
 706	7.0147e+01	11.9130	69.838411	0.000395	3.953147	1.339363	-0.000158
 707	7.0247e+01	11.8617	69.632517	0.000517	5.169500	1.751474	-0.000207
 708	7.0347e+01	11.8296	69.442772	0.000476	4.764049	1.614104	-0.000191
 709	7.0446e+01	11.7975	69.273212	0.000426	4.257235	1.442390	-0.000170
 710	7.0546e+01	11.7494	69.030984	0.000608	6.081765	2.060558	-0.000243
 711	7.0645e+01	11.7093	68.865461	0.000416	4.155873	1.408048	-0.000166
 712	7.0745e+01	11.6660	68.683790	0.000456	4.561324	1.545418	-0.000183
 713	7.0844e+01	11.6371	68.477896	0.000517	5.169500	1.751474	-0.000207
 714	7.0944e+01	11.5922	68.292188	0.000466	4.662686	1.579761	-0.000187
 715	7.1043e+01	11.5553	68.094368	0.000497	4.966775	1.682789	-0.000199
 716	7.1142e+01	11.5072	67.912697	0.000456	4.561324	1.545418	-0.000183
 717	7.1242e+01	11.4687	67.714878	0.000497	4.966775	1.682789	-0.000199
 718	7.1341e+01	11.4253	67.521095	0.000487	4.865412	1.648446	-0.000195
 719	7.1441e+01	11.3820	67.319238	0.000507	5.068137	1.717131	-0.000203
 720	7.1540e+01	11.3467	67.113345	0.000517	5.169500	1.751474	-0.000207
 721	7.1640e+01	11.3179	66.919562	0.000487	4.865412	1.648446	-0.000195
 722	7.1740e+01	11.2794	66.733854	0.000466	4.662686	1.579761	-0.000187
 723	7.1839e+01	11.2280	66.519886	0.000537	5.372226	1.820159	-0.000215
 724	7.1939e+01	11.1911	66.338214	0.000456	4.561324	1.545418	-0.000183
 725	7.2038e+01	11.1462	66.140395	0.000497	4.966775	1.682789	-0.000199
 726	7.2138e+01	11.1093	65.926427	0.000537	5.372226	1.820159	-0.000215
 727	7.2237e+01	11.0660	65.728607	0.000497	4.966775	1.682789	-0.000199
 728	7.2337e+01	11.0355	65.559047	0.000426	4.257235	1.442390	-0.000170
 729	7.2436e+01	10.9922	65.361228	0.000497	4.966775	1.682789	-0.000199
 730	7.2535e+01	10.9457	65.163408	0.000497	4.966775	1.682789	-0.000199
 731	7.2635e+01	10.9056	64.933291	0.000578	5.777677	1.957530	-0.000231
 732	7.2734e+01	10.8703	64.783917	0.000375	3.750422	1.270677	-0.000150
 733	7.2834e+01	10.8334	64.602246	0.000456	4.561324	1.545418	-0.000183
 734	7.2933e+01	10.8029	64.351944	0.000628	6.284490	2.129243	-0.000252
 735	7.3033e+01	10.7596	64.186421	0.000416	4.155873	1.408048	-0.000166
 736	7.3132e+01	10.7147	64.004750	0.000456	4.561324	1.545418	-0.000183
 737	7.3232e+01	10.6730	63.786745	0.000547	5.473588	1.854502	-0.000219
 738	7.3332e+01	10.6361	63.556628	0.000578	5.777677	1.957530	-0.000231
 739	7.3431e+01	10.6008	63.354771	0.000507	5.068137	1.717131	-0.000203
 740	7.3531e+01	10.5510	63.181174	0.000436	4.358598	1.476733	-0.000174
 741	7.3630e+01	10.5141	62.999503	0.000456	4.561324	1.545418	-0.000183
 742	7.3730e+01	10.4821	62.801684	0.000497	4.966775	1.682789	-0.000199
 743	7.3829e+01	10.4211	62.579641	0.000557	5.574951	1.888845	-0.000223
 744	7.3928e+01	10.3922	62.365673	0.000537	5.372226	1.820159	-0.000215
 745	7.4028e+01	10.3569	62.188039	0.000446	4.459961	1.511076	-0.000179
 746	7.4127e+01	10.3184	61.994256	0.000487	4.865412	1.648446	-0.000195
 747	7.4227e+01	10.2671	61.772214	0.000557	5.574951	1.888845	-0.000223
 748	7.4326e+01	10.2350	61.586506	0.000466	4.662686	1.579761	-0.000187
 749	7.4426e+01	10.1949	61.384649	0.000507	5.068137	1.717131	-0.000203
 750	7.4525e+01	10.1532	61.215089	0.000426	4.257235	1.442390	-0.000170
 751	7.4625e+01	10.1147	61.013232	0.000507	5.068137	1.717131	-0.000203
 752	7.4725e+01	10.0762	60.783116	0.000578	5.777677	1.957530	-0.000231
 753	7.4824e+01	10.0457	60.561073	0.000557	5.574951	1.888845	-0.000223
 754	7.4924e+01	9.9928	60.387476	0.000436	4.358598	1.476733	-0.000174
 755	7.5023e+01	9.9575	60.173508	0.000537	5.372226	1.820159	-0.000215
 756	7.5123e+01	9.9270	59.951466	0.000557	5.574951	1.888845	-0.000223
 757	7.5222e+01	9.8773	59.749609	0.000507	5.068137	1.717131	-0.000203
 758	7.5322e+01	9.8372	59.539678	0.000527	5.270863	1.785817	-0.000211
 759	7.5421e+01	9.7922	59.333784	0.000517	5.169500	1.751474	-0.000207
 760	7.5520e+01	9.7569	59.107704	0.000568	5.676314	1.923187	-0.000227
 761	7.5620e+01	9.7217	58.930070	0.000446	4.459961	1.511076	-0.000179
 762	7.5719e+01	9.6848	58.712065	0.000547	5.473588	1.854502	-0.000219
 763	7.5819e+01	9.6398	58.526357	0.000466	4.662686	1.579761	-0.000187
 764	7.5918e+01	9.6029	58.276054	0.000628	6.284490	2.129243	-0.000252
 765	7.6018e+01	9.5548	58.114569	0.000405	4.054510	1.373705	-0.000162
 766	7.6118e+01	9.5195	57.932898	0.000456	4.561324	1.545418	-0.000183
 767	7.6217e+01	9.4826	57.690670	0.000608	6.081765	2.060558	-0.000243
 768	7.6317e+01	9.4425	57.476702	0.000537	5.372226	1.820159	-0.000215
 769	7.6416e+01	9.3992	57.295030	0.000456	4.561324	1.545418	-0.000183
 770	7.6516e+01	9.3639	57.085099	0.000527	5.270863	1.785817	-0.000211
 771	7.6615e+01	9.3206	56.879205	0.000517	5.169500	1.751474	-0.000207
 772	7.6715e+01	9.2885	56.673311	0.000517	5.169500	1.751474	-0.000207
 773	7.6814e+01	9.2388	56.487603	0.000466	4.662686	1.579761	-0.000187
 774	7.6913e+01	9.1971	56.253449	0.000588	5.879039	1.991872	-0.000235
 775	7.7013e+01	9.1586	56.067741	0.000466	4.662686	1.579761	-0.000187
 776	7.7112e+01	9.1201	55.825513	0.000608	6.081765	2.060558	-0.000243
 777	7.7212e+01	9.0784	55.647879	0.000446	4.459961	1.511076	-0.000179
 778	7.7311e+01	9.0463	55.409688	0.000598	5.980402	2.026215	-0.000239
 779	7.7411e+01	8.9885	55.223980	0.000466	4.662686	1.579761	-0.000187
 780	7.7510e+01	8.9645	55.042309	0.000456	4.561324	1.545418	-0.000183
 781	7.7610e+01	8.9131	54.796043	0.000618	6.183128	2.094900	-0.000248
 782	7.7710e+01	8.8730	54.598224	0.000497	4.966775	1.682789	-0.000199
 783	7.7809e+01	8.8409	54.412515	0.000466	4.662686	1.579761	-0.000187
 784	7.7909e+01	8.8056	54.210659	0.000507	5.068137	1.717131	-0.000203
 785	7.8008e+01	8.7591	53.972468	0.000598	5.980402	2.026215	-0.000239
 786	7.8108e+01	8.7254	53.806945	0.000416	4.155873	1.408048	-0.000166
 787	7.8207e+01	8.6821	53.572791	0.000588	5.879039	1.991872	-0.000235
 788	7.8306e+01	8.6356	53.383046	0.000476	4.764049	1.614104	-0.000191
 789	7.8406e+01	8.5987	53.152929	0.000578	5.777677	1.957530	-0.000231
 790	7.8505e+01	8.5634	52.979332	0.000436	4.358598	1.476733	-0.000174
 791	7.8605e+01	8.5249	52.757290	0.000557	5.574951	1.888845	-0.000223
 792	7.8704e+01	8.4832	52.494876	0.000659	6.588579	2.232271	-0.000264
 793	7.8804e+01	8.4351	52.325316	0.000426	4.257235	1.442390	-0.000170
 794	7.8903e+01	8.4030	52.119422	0.000517	5.169500	1.751474	-0.000207
 795	7.9003e+01	8.3757	51.917566	0.000507	5.068137	1.717131	-0.000203
 796	7.9103e+01	8.3228	51.731857	0.000466	4.662686	1.579761	-0.000187
 797	7.9202e+01	8.2875	51.489629	0.000608	6.081765	2.060558	-0.000243
 798	7.9302e+01	8.2409	51.303921	0.000466	4.662686	1.579761	-0.000187
 799	7.9401e+01	8.2057	51.089953	0.000537	5.372226	1.820159	-0.000215
 800	7.9501e+01	8.1688	50.880022	0.000527	5.270863	1.785817	-0.000211
 801	7.9600e+01	8.1206	50.649905	0.000578	5.777677	1.957530	-0.000231
 802	7.9700e+01	8.0789	50.480345	0.000426	4.257235	1.442390	-0.000170
 803	7.9799e+01	8.0404	50.230043	0.000628	6.284490	2.129243	-0.000252
 804	7.9898e+01	8.0083	50.040297	0.000476	4.764049	1.614104	-0.000191
 805	7.9998e+01	7.9554	49.802106	0.000598	5.980402	2.026215	-0.000239
 806	8.0097e+01	7.9233	49.612361	0.000476	4.764049	1.614104	-0.000191
 807	8.0197e+01	7.8864	49.418579	0.000487	4.865412	1.648446	-0.000195
 808	8.0296e+01	7.8447	49.208648	0.000527	5.270863	1.785817	-0.000211
 809	8.0396e+01	7.8110	49.010828	0.000497	4.966775	1.682789	-0.000199
 810	8.0496e+01	7.7661	48.796860	0.000537	5.372226	1.820159	-0.000215
 811	8.0595e+01	7.7356	48.542520	0.000639	6.385853	2.163586	-0.000256
 812	8.0695e+01	7.6875	48.352775	0.000476	4.764049	1.614104	-0.000191
 813	8.0794e+01	7.6490	48.146881	0.000517	5.169500	1.751474	-0.000207
 814	8.0894e+01	7.6009	47.884467	0.000659	6.588579	2.232271	-0.000264
 815	8.0993e+01	7.5720	47.718944	0.000416	4.155873	1.408048	-0.000166
 816	8.1093e+01	7.5319	47.521125	0.000497	4.966775	1.682789	-0.000199
 817	8.1192e+01	7.4902	47.274859	0.000618	6.183128	2.094900	-0.000248
 818	8.1291e+01	7.4485	47.068966	0.000517	5.169500	1.751474	-0.000207
 819	8.1391e+01	7.4003	46.891332	0.000446	4.459961	1.511076	-0.000179
 820	8.1490e+01	7.3666	46.588546	0.000760	7.602206	2.575697	-0.000304
 821	8.1590e+01	7.3201	46.435135	0.000385	3.851784	1.305020	-0.000154
 822	8.1689e+01	7.2832	46.217130	0.000547	5.473588	1.854502	-0.000219
 823	8.1789e+01	7.2495	46.031422	0.000466	4.662686	1.579761	-0.000187
 824	8.1888e+01	7.2046	45.813416	0.000547	5.473588	1.854502	-0.000219
 825	8.1988e+01	7.1565	45.591374	0.000557	5.574951	1.888845	-0.000223
 826	8.2088e+01	7.1260	45.385480	0.000517	5.169500	1.751474	-0.000207
 827	8.2187e+01	7.0955	45.155363	0.000578	5.777677	1.957530	-0.000231
 828	8.2287e+01	7.0490	44.953506	0.000507	5.068137	1.717131	-0.000203
 829	8.2386e+01	7.0121	44.723390	0.000578	5.777677	1.957530	-0.000231
 830	8.2486e+01	6.9640	44.513459	0.000527	5.270863	1.785817	-0.000211
 831	8.2585e+01	6.9351	44.295453	0.000547	5.473588	1.854502	-0.000219
 832	8.2684e+01	6.8998	44.109745	0.000466	4.662686	1.579761	-0.000187
 833	8.2784e+01	6.8469	43.875591	0.000588	5.879039	1.991872	-0.000235
 834	8.2883e+01	6.8164	43.637400	0.000598	5.980402	2.026215	-0.000239
 835	8.2983e+01	6.7650	43.496100	0.000355	3.547696	1.201992	-0.000142
 836	8.3082e+01	6.7298	43.241761	0.000639	6.385853	2.163586	-0.000256
 837	8.3182e+01	6.6864	43.056053	0.000466	4.662686	1.579761	-0.000187
 838	8.3281e+01	6.6447	42.825936	0.000578	5.777677	1.957530	-0.000231
 839	8.3381e+01	6.6110	42.595819	0.000578	5.777677	1.957530	-0.000231
 840	8.3481e+01	6.5741	42.406074	0.000476	4.764049	1.614104	-0.000191
 841	8.3580e+01	6.5324	42.196143	0.000527	5.270863	1.785817	-0.000211
 842	8.3680e+01	6.4827	42.018509	0.000446	4.459961	1.511076	-0.000179
 843	8.3779e+01	6.4474	41.760132	0.000649	6.487216	2.197928	-0.000260
 844	8.3879e+01	6.4073	41.525978	0.000588	5.879039	1.991872	-0.000235
 845	8.3978e+01	6.3784	41.340270	0.000466	4.662686	1.579761	-0.000187
 846	8.4078e+01	6.3367	41.122265	0.000547	5.473588	1.854502	-0.000219
 847	8.4177e+01	6.2918	40.920408	0.000507	5.068137	1.717131	-0.000203
 848	8.4276e+01	6.2581	40.678180	0.000608	6.081765	2.060558	-0.000243
 849	8.4376e+01	6.2116	40.488434	0.000476	4.764049	1.614104	-0.000191
 850	8.4475e+01	6.1747	40.250243	0.000598	5.980402	2.026215	-0.000239
 851	8.4575e+01	6.1314	40.048387	0.000507	5.068137	1.717131	-0.000203
 852	8.4674e+01	6.0977	39.842493	0.000517	5.169500	1.751474	-0.000207
 853	8.4774e+01	6.0447	39.628524	0.000537	5.372226	1.820159	-0.000215
 854	8.4874e+01	6.0191	39.402445	0.000568	5.676314	1.923187	-0.000227
 855	8.4973e+01	5.9710	39.192514	0.000527	5.270863	1.785817	-0.000211
 856	8.5073e+01	5.9373	38.978546	0.000537	5.372226	1.820159	-0.000215
 857	8.5172e+01	5.8972	38.760540	0.000547	5.473588	1.854502	-0.000219
 858	8.5272e+01	5.8506	38.546572	0.000537	5.372226	1.820159	-0.000215
 859	8.5371e+01	5.8137	38.328567	0.000547	5.473588	1.854502	-0.000219
 860	8.5471e+01	5.7784	38.106524	0.000557	5.574951	1.888845	-0.000223
 861	8.5570e+01	5.7335	37.888519	0.000547	5.473588	1.854502	-0.000219
 862	8.5669e+01	5.6918	37.702811	0.000466	4.662686	1.579761	-0.000187
 863	8.5769e+01	5.6549	37.476731	0.000568	5.676314	1.923187	-0.000227
 864	8.5868e+01	5.6132	37.218354	0.000649	6.487216	2.197928	-0.000260
 865	8.5968e+01	5.5779	37.028609	0.000476	4.764049	1.614104	-0.000191
 866	8.6067e+01	5.5394	36.814641	0.000537	5.372226	1.820159	-0.000215
 867	8.6167e+01	5.4945	36.596635	0.000547	5.473588	1.854502	-0.000219
 868	8.6266e+01	5.4544	36.378630	0.000547	5.473588	1.854502	-0.000219
 869	8.6366e+01	5.4143	36.196959	0.000456	4.561324	1.545418	-0.000183
 870	8.6466e+01	5.3726	35.987028	0.000527	5.270863	1.785817	-0.000211
 871	8.6565e+01	5.3373	35.752874	0.000588	5.879039	1.991872	-0.000235
 872	8.6665e+01	5.2940	35.502572	0.000628	6.284490	2.129243	-0.000252
 873	8.6764e+01	5.2490	35.300715	0.000507	5.068137	1.717131	-0.000203
 874	8.6864e+01	5.2186	35.070598	0.000578	5.777677	1.957530	-0.000231
 875	8.6963e+01	5.1769	34.832407	0.000598	5.980402	2.026215	-0.000239
 876	8.7063e+01	5.1335	34.658810	0.000436	4.358598	1.476733	-0.000174
 877	8.7162e+01	5.0999	34.424656	0.000588	5.879039	1.991872	-0.000235
 878	8.7261e+01	5.0581	34.198577	0.000568	5.676314	1.923187	-0.000227
 879	8.7361e+01	5.0164	33.984609	0.000537	5.372226	1.820159	-0.000215
 880	8.7460e+01	4.9844	33.754492	0.000578	5.777677	1.957530	-0.000231
 881	8.7560e+01	4.9410	33.524375	0.000578	5.777677	1.957530	-0.000231
 882	8.7659e+01	4.8977	33.346741	0.000446	4.459961	1.511076	-0.000179
 883	8.7759e+01	4.8576	33.104513	0.000608	6.081765	2.060558	-0.000243
 884	8.7859e+01	4.8159	32.878433	0.000568	5.676314	1.923187	-0.000227
 885	8.7958e+01	4.7790	32.660428	0.000547	5.473588	1.854502	-0.000219
 886	8.8058e+01	4.7405	32.454534	0.000517	5.169500	1.751474	-0.000207
 887	8.8157e+01	4.7020	32.220380	0.000588	5.879039	1.991872	-0.000235
 888	8.8257e+01	4.6635	32.022561	0.000497	4.966775	1.682789	-0.000199
 889	8.8356e+01	4.6202	31.784370	0.000598	5.980402	2.026215	-0.000239
 890	8.8456e+01	4.5801	31.578476	0.000517	5.169500	1.751474	-0.000207
 891	8.8555e+01	4.5400	31.376619	0.000507	5.068137	1.717131	-0.000203
 892	8.8654e+01	4.4967	31.150539	0.000568	5.676314	1.923187	-0.000227
 893	8.8754e+01	4.4614	30.904274	0.000618	6.183128	2.094900	-0.000248
 894	8.8853e+01	4.4277	30.694343	0.000527	5.270863	1.785817	-0.000211
 895	8.8953e+01	4.3796	30.476338	0.000547	5.473588	1.854502	-0.000219
 896	8.9052e+01	4.3459	30.262369	0.000537	5.372226	1.820159	-0.000215
 897	8.9152e+01	4.3009	30.048401	0.000537	5.372226	1.820159	-0.000215
 898	8.9251e+01	4.2528	29.854619	0.000487	4.865412	1.648446	-0.000195
 899	8.9351e+01	4.2127	29.636613	0.000547	5.473588	1.854502	-0.000219
 900	8.9451e+01	4.1790	29.358051	0.000699	6.994030	2.369641	-0.000280
 901	8.9550e+01	4.1405	29.180417	0.000446	4.459961	1.511076	-0.000179
 902	8.9650e+01	4.1020	28.958375	0.000557	5.574951	1.888845	-0.000223
 903	8.9749e+01	4.0635	28.728258	0.000578	5.777677	1.957530	-0.000231
 904	8.9849e+01	4.0202	28.494104	0.000588	5.879039	1.991872	-0.000235
 905	8.9948e+01	3.9785	28.324544	0.000426	4.257235	1.442390	-0.000170
 906	9.0047e+01	3.9448	28.070205	0.000639	6.385853	2.163586	-0.000256
 907	9.0147e+01	3.8983	27.852199	0.000547	5.473588	1.854502	-0.000219
 908	9.0246e+01	3.8742	27.646306	0.000517	5.169500	1.751474	-0.000207
 909	9.0346e+01	3.8149	27.440412	0.000517	5.169500	1.751474	-0.000207
 910	9.0445e+01	3.7844	27.194146	0.000618	6.183128	2.094900	-0.000248
 911	9.0545e+01	3.7539	26.951918	0.000608	6.081765	2.060558	-0.000243
 912	9.0644e+01	3.6849	26.770247	0.000456	4.561324	1.545418	-0.000183
 913	9.0744e+01	3.6625	26.536093	0.000588	5.879039	1.991872	-0.000235
 914	9.0844e+01	3.6272	26.285791	0.000628	6.284490	2.129243	-0.000252
 915	9.0943e+01	3.5839	26.083934	0.000507	5.068137	1.717131	-0.000203
 916	9.1043e+01	3.5357	25.833632	0.000628	6.284490	2.129243	-0.000252
 917	9.1142e+01	3.4972	25.639849	0.000487	4.865412	1.648446	-0.000195
 918	9.1242e+01	3.4651	25.421844	0.000547	5.473588	1.854502	-0.000219
 919	9.1341e+01	3.4202	25.219987	0.000507	5.068137	1.717131	-0.000203
 920	9.1441e+01	3.3881	24.989870	0.000578	5.777677	1.957530	-0.000231
 921	9.1540e+01	3.3464	24.735531	0.000639	6.385853	2.163586	-0.000256
 922	9.1639e+01	3.3031	24.517525	0.000547	5.473588	1.854502	-0.000219
 923	9.1739e+01	3.2614	24.315669	0.000507	5.068137	1.717131	-0.000203
 924	9.1838e+01	3.2133	24.077478	0.000598	5.980402	2.026215	-0.000239
 925	9.1938e+01	3.1956	23.811027	0.000669	6.689941	2.266613	-0.000268
 926	9.2037e+01	3.1491	23.637430	0.000436	4.358598	1.476733	-0.000174
 927	9.2137e+01	3.1074	23.427499	0.000527	5.270863	1.785817	-0.000211
 928	9.2237e+01	3.0657	23.148936	0.000699	6.994030	2.369641	-0.000280
 929	9.2336e+01	3.0352	22.951117	0.000497	4.966775	1.682789	-0.000199
 930	9.2436e+01	2.9807	22.761371	0.000476	4.764049	1.614104	-0.000191
 931	9.2535e+01	2.9374	22.502995	0.000649	6.487216	2.197928	-0.000260
 932	9.2635e+01	2.9069	22.284989	0.000547	5.473588	1.854502	-0.000219
 933	9.2734e+01	2.8684	22.071021	0.000537	5.372226	1.820159	-0.000215
 934	9.2834e+01	2.8283	21.828793	0.000608	6.081765	2.060558	-0.000243
 935	9.2933e+01	2.7914	21.598676	0.000578	5.777677	1.957530	-0.000231
 936	9.3032e+01	2.7529	21.408931	0.000476	4.764049	1.614104	-0.000191
 937	9.3132e+01	2.7144	21.162666	0.000618	6.183128	2.094900	-0.000248
 938	9.3231e+01	2.6743	20.932549	0.000578	5.777677	1.957530	-0.000231
 939	9.3331e+01	2.6277	20.750878	0.000456	4.561324	1.545418	-0.000183
 940	9.3430e+01	2.5956	20.508650	0.000608	6.081765	2.060558	-0.000243
 941	9.3530e+01	2.5427	20.298718	0.000527	5.270863	1.785817	-0.000211
 942	9.3629e+01	2.5010	20.108973	0.000476	4.764049	1.614104	-0.000191
 943	9.3729e+01	2.4705	19.798114	0.000780	7.804932	2.644382	-0.000312
 944	9.3829e+01	2.4288	19.604331	0.000487	4.865412	1.648446	-0.000195
 945	9.3928e+01	2.3839	19.402474	0.000507	5.068137	1.717131	-0.000203
 946	9.4028e+01	2.3566	19.144098	0.000649	6.487216	2.197928	-0.000260
 947	9.4127e+01	2.3069	18.958389	0.000466	4.662686	1.579761	-0.000187
 948	9.4227e+01	2.2604	18.740384	0.000547	5.473588	1.854502	-0.000219
 949	9.4326e+01	2.2331	18.486045	0.000639	6.385853	2.163586	-0.000256
 950	9.4425e+01	2.1914	18.276113	0.000527	5.270863	1.785817	-0.000211
 951	9.4525e+01	2.1577	18.029848	0.000618	6.183128	2.094900	-0.000248
 952	9.4624e+01	2.1096	17.791657	0.000598	5.980402	2.026215	-0.000239
 953	9.4724e+01	2.0711	17.605949	0.000466	4.662686	1.579761	-0.000187
 954	9.4823e+01	2.0261	17.347572	0.000649	6.487216	2.197928	-0.000260
 955	9.4923e+01	1.9909	17.121493	0.000568	5.676314	1.923187	-0.000227
 956	9.5022e+01	1.9507	16.927710	0.000487	4.865412	1.648446	-0.000195
 957	9.5122e+01	1.9155	16.721816	0.000517	5.169500	1.751474	-0.000207
 958	9.5222e+01	1.8770	16.467477	0.000639	6.385853	2.163586	-0.000256
 959	9.5321e+01	1.8256	16.281768	0.000466	4.662686	1.579761	-0.000187
 960	9.5421e+01	1.7919	15.995132	0.000720	7.196755	2.438327	-0.000288
 961	9.5520e+01	1.7518	15.789238	0.000517	5.169500	1.751474	-0.000207
 962	9.5620e+01	1.7133	15.583344	0.000517	5.169500	1.751474	-0.000207
 963	9.5719e+01	1.6652	15.353227	0.000578	5.777677	1.957530	-0.000231
 964	9.5819e+01	1.6251	15.098888	0.000639	6.385853	2.163586	-0.000256
 965	9.5918e+01	1.5866	14.929328	0.000426	4.257235	1.442390	-0.000170
 966	9.6017e+01	1.5609	14.683063	0.000618	6.183128	2.094900	-0.000248
 967	9.6117e+01	1.5128	14.436797	0.000618	6.183128	2.094900	-0.000248
 968	9.6216e+01	1.4679	14.267238	0.000426	4.257235	1.442390	-0.000170
 969	9.6316e+01	1.4310	14.016935	0.000628	6.284490	2.129243	-0.000252
 970	9.6415e+01	1.3845	13.790856	0.000568	5.676314	1.923187	-0.000227
 971	9.6515e+01	1.3540	13.564776	0.000568	5.676314	1.923187	-0.000227
 972	9.6615e+01	1.3091	13.358882	0.000517	5.169500	1.751474	-0.000207
 973	9.6714e+01	1.2786	13.148951	0.000527	5.270863	1.785817	-0.000211
 974	9.6814e+01	1.2321	12.850203	0.000750	7.500843	2.541355	-0.000300
 975	9.6913e+01	1.1887	12.688718	0.000405	4.054510	1.373705	-0.000162
 976	9.7013e+01	1.1502	12.418230	0.000679	6.791304	2.300956	-0.000272
 977	9.7112e+01	1.1053	12.216373	0.000507	5.068137	1.717131	-0.000203
 978	9.7212e+01	1.0796	11.978182	0.000598	5.980402	2.026215	-0.000239
 979	9.7311e+01	1.0299	11.748065	0.000578	5.777677	1.957530	-0.000231
 980	9.7410e+01	0.9930	11.550245	0.000497	4.966775	1.682789	-0.000199
 981	9.7510e+01	0.9529	11.287832	0.000659	6.588579	2.232271	-0.000264
 982	9.7609e+01	0.9160	11.098086	0.000476	4.764049	1.614104	-0.000191
 983	9.7709e+01	0.8695	10.855858	0.000608	6.081765	2.060558	-0.000243
 984	9.7808e+01	0.8358	10.621704	0.000588	5.879039	1.991872	-0.000235
 985	9.7908e+01	0.7941	10.415810	0.000517	5.169500	1.751474	-0.000207
 986	9.8007e+01	0.7572	10.173582	0.000608	6.081765	2.060558	-0.000243
 987	9.8107e+01	0.7155	9.947502	0.000568	5.676314	1.923187	-0.000227
 988	9.8207e+01	0.6722	9.749683	0.000497	4.966775	1.682789	-0.000199
 989	9.8306e+01	0.6289	9.471120	0.000699	6.994030	2.369641	-0.000280
 990	9.8406e+01	0.5904	9.313672	0.000395	3.953147	1.339363	-0.000158
 991	9.8505e+01	0.5599	9.035110	0.000699	6.994030	2.369641	-0.000280
 992	9.8605e+01	0.5134	8.829216	0.000517	5.169500	1.751474	-0.000207
 993	9.8704e+01	0.4765	8.586988	0.000608	6.081765	2.060558	-0.000243
 994	9.8803e+01	0.4364	8.377057	0.000527	5.270863	1.785817	-0.000211
 995	9.8903e+01	0.3914	8.130791	0.000618	6.183128	2.094900	-0.000248
 996	9.9002e+01	0.3577	7.928935	0.000507	5.068137	1.717131	-0.000203
 997	9.9102e+01	0.3176	7.710929	0.000547	5.473588	1.854502	-0.000219
 998	9.9201e+01	0.2807	7.468701	0.000608	6.081765	2.060558	-0.000243
 999	9.9301e+01	0.2374	7.274919	0.000487	4.865412	1.648446	-0.000195
1000	9.9400e+01	0.2053	7.040765	0.000588	5.879039	1.991872	-0.000235
1001	9.9500e+01	0.1556	6.786425	0.000639	6.385853	2.163586	-0.000256
1002	9.9600e+01	0.1091	6.584568	0.000507	5.068137	1.717131	-0.000203
1003	9.9699e+01	0.0754	6.374637	0.000527	5.270863	1.785817	-0.000211
1004	9.9799e+01	0.0305	6.132409	0.000608	6.081765	2.060558	-0.000243
1005	9.9898e+01	0.0080	5.991109	0.000355	3.547696	1.201992	-0.000142
1006	9.9998e+01	-0.0337	5.756956	0.000588	5.879039	1.991872	-0.000235
1007	1.0010e+02	-0.0802	5.526839	0.000578	5.777677	1.957530	-0.000231
1008	1.0020e+02	-0.1107	5.312871	0.000537	5.372226	1.820159	-0.000215
1009	1.0030e+02	-0.1540	5.086791	0.000568	5.676314	1.923187	-0.000227
1010	1.0040e+02	-0.1845	4.848600	0.000598	5.980402	2.026215	-0.000239
1011	1.0050e+02	-0.2358	4.642706	0.000517	5.169500	1.751474	-0.000207
1012	1.0059e+02	-0.2743	4.404515	0.000598	5.980402	2.026215	-0.000239
1013	1.0069e+02	-0.3192	4.190547	0.000537	5.372226	1.820159	-0.000215
1014	1.0079e+02	-0.3465	3.948319	0.000608	6.081765	2.060558	-0.000243
1015	1.0089e+02	-0.3930	3.766648	0.000456	4.561324	1.545418	-0.000183
1016	1.0099e+02	-0.4364	3.512308	0.000639	6.385853	2.163586	-0.000256
1017	1.0109e+02	-0.4716	3.278154	0.000588	5.879039	1.991872	-0.000235
1018	1.0119e+02	-0.5166	3.072260	0.000517	5.169500	1.751474	-0.000207
1019	1.0129e+02	-0.5438	2.858292	0.000537	5.372226	1.820159	-0.000215
1020	1.0139e+02	-0.5888	2.672584	0.000466	4.662686	1.579761	-0.000187
1021	1.0149e+02	-0.6337	2.422281	0.000628	6.284490	2.129243	-0.000252
1022	1.0159e+02	-0.6658	2.200239	0.000557	5.574951	1.888845	-0.000223
1023	1.0169e+02	-0.7107	2.002419	0.000497	4.966775	1.682789	-0.000199
1024	1.0179e+02	-0.7492	1.740006	0.000659	6.588579	2.232271	-0.000264
1025	1.0189e+02	-0.7877	1.538149	0.000507	5.068137	1.717131	-0.000203
1026	1.0199e+02	-0.8278	1.312069	0.000568	5.676314	1.923187	-0.000227
1027	1.0209e+02	-0.8663	1.053692	0.000649	6.487216	2.197928	-0.000260
1028	1.0219e+02	-0.9128	0.839724	0.000537	5.372226	1.820159	-0.000215
1029	1.0229e+02	-0.9561	0.629793	0.000527	5.270863	1.785817	-0.000211
1030	1.0239e+02	-0.9882	0.383528	0.000618	6.183128	2.094900	-0.000248
1031	1.0248e+02	-1.0363	0.161485	0.000557	5.574951	1.888845	-0.000223
1032	1.0258e+02	-1.0716	-0.040371	0.000507	5.068137	1.717131	-0.000203
1033	1.0268e+02	-1.1182	-0.274525	0.000588	5.879039	1.991872	-0.000235
1034	1.0278e+02	-1.1502	-0.492531	0.000547	5.473588	1.854502	-0.000219
1035	1.0288e+02	-1.1903	-0.702462	0.000527	5.270863	1.785817	-0.000211
1036	1.0298e+02	-1.2304	-0.876058	0.000436	4.358598	1.476733	-0.000174
1037	1.0308e+02	-1.2738	-1.154621	0.000699	6.994030	2.369641	-0.000280
1038	1.0318e+02	-1.3171	-1.404923	0.000628	6.284490	2.129243	-0.000252
1039	1.0328e+02	-1.3556	-1.558334	0.000385	3.851784	1.305020	-0.000154
1040	1.0338e+02	-1.3877	-1.808637	0.000628	6.284490	2.129243	-0.000252
1041	1.0348e+02	-1.4278	-2.054902	0.000618	6.183128	2.094900	-0.000248
1042	1.0358e+02	-1.4679	-2.236573	0.000456	4.561324	1.545418	-0.000183
1043	1.0368e+02	-1.5128	-2.482838	0.000618	6.183128	2.094900	-0.000248
1044	1.0378e+02	-1.5465	-2.708918	0.000568	5.676314	1.923187	-0.000227
1045	1.0388e+02	-1.5850	-2.914812	0.000517	5.169500	1.751474	-0.000207
1046	1.0398e+02	-1.6283	-3.173189	0.000649	6.487216	2.197928	-0.000260
1047	1.0408e+02	-1.6684	-3.366971	0.000487	4.865412	1.648446	-0.000195
1048	1.0418e+02	-1.7133	-3.576902	0.000527	5.270863	1.785817	-0.000211
1049	1.0428e+02	-1.7518	-3.819130	0.000608	6.081765	2.060558	-0.000243
1050	1.0438e+02	-1.7935	-4.041173	0.000557	5.574951	1.888845	-0.000223
1051	1.0447e+02	-1.8320	-4.275327	0.000588	5.879039	1.991872	-0.000235
1052	1.0457e+02	-1.8770	-4.477184	0.000507	5.068137	1.717131	-0.000203
1053	1.0467e+02	-1.9106	-4.703263	0.000568	5.676314	1.923187	-0.000227
1054	1.0477e+02	-1.9475	-4.901083	0.000497	4.966775	1.682789	-0.000199
1055	1.0487e+02	-1.9925	-5.147348	0.000618	6.183128	2.094900	-0.000248
1056	1.0497e+02	-2.0326	-5.369391	0.000557	5.574951	1.888845	-0.000223
1057	1.0507e+02	-2.0807	-5.627767	0.000649	6.487216	2.197928	-0.000260
1058	1.0517e+02	-2.1048	-5.813475	0.000466	4.662686	1.579761	-0.000187
1059	1.0527e+02	-2.1449	-6.067815	0.000639	6.385853	2.163586	-0.000256
1060	1.0537e+02	-2.1946	-6.273709	0.000517	5.169500	1.751474	-0.000207
1061	1.0547e+02	-2.2283	-6.487677	0.000537	5.372226	1.820159	-0.000215
1062	1.0557e+02	-2.2716	-6.717794	0.000578	5.777677	1.957530	-0.000231
1063	1.0567e+02	-2.3037	-6.903502	0.000466	4.662686	1.579761	-0.000187
1064	1.0577e+02	-2.3518	-7.141693	0.000598	5.980402	2.026215	-0.000239
1065	1.0587e+02	-2.3887	-7.371810	0.000578	5.777677	1.957530	-0.000231
1066	1.0597e+02	-2.4208	-7.577704	0.000517	5.169500	1.751474	-0.000207
1067	1.0607e+02	-2.4785	-7.783598	0.000517	5.169500	1.751474	-0.000207
1068	1.0617e+02	-2.5042	-8.017752	0.000588	5.879039	1.991872	-0.000235
1069	1.0627e+02	-2.5411	-8.227683	0.000527	5.270863	1.785817	-0.000211
1070	1.0637e+02	-2.5860	-8.490096	0.000659	6.588579	2.232271	-0.000264
1071	1.0647e+02	-2.6229	-8.659656	0.000426	4.257235	1.442390	-0.000170
1072	1.0656e+02	-2.6743	-8.877661	0.000547	5.473588	1.854502	-0.000219
1073	1.0666e+02	-2.6999	-9.079518	0.000507	5.068137	1.717131	-0.000203
1074	1.0676e+02	-2.7416	-9.289449	0.000527	5.270863	1.785817	-0.000211
1075	1.0686e+02	-2.7914	-9.539752	0.000628	6.284490	2.129243	-0.000252
1076	1.0696e+02	-2.8218	-9.777943	0.000598	5.980402	2.026215	-0.000239
1077	1.0706e+02	-2.8668	-9.987874	0.000527	5.270863	1.785817	-0.000211
1078	1.0716e+02	-2.8972	-10.205879	0.000547	5.473588	1.854502	-0.000219
1079	1.0726e+02	-2.9502	-10.435996	0.000578	5.777677	1.957530	-0.000231
1080	1.0736e+02	-2.9871	-10.658038	0.000557	5.574951	1.888845	-0.000223
1081	1.0746e+02	-3.0272	-10.835672	0.000446	4.459961	1.511076	-0.000179
1082	1.0756e+02	-3.0625	-11.077900	0.000608	6.081765	2.060558	-0.000243
1083	1.0766e+02	-3.1074	-11.312054	0.000588	5.879039	1.991872	-0.000235
1084	1.0776e+02	-3.1459	-11.542171	0.000578	5.777677	1.957530	-0.000231
1085	1.0786e+02	-3.1764	-11.748065	0.000517	5.169500	1.751474	-0.000207
1086	1.0796e+02	-3.2245	-12.018553	0.000679	6.791304	2.300956	-0.000272
1087	1.0806e+02	-3.2598	-12.171964	0.000385	3.851784	1.305020	-0.000154
1088	1.0816e+02	-3.3127	-12.414192	0.000608	6.081765	2.060558	-0.000243
1089	1.0826e+02	-3.3512	-12.607975	0.000487	4.865412	1.648446	-0.000195
1090	1.0836e+02	-3.3833	-12.882500	0.000689	6.892667	2.335299	-0.000276
1091	1.0845e+02	-3.4250	-13.068208	0.000466	4.662686	1.579761	-0.000187
1092	1.0855e+02	-3.4619	-13.290251	0.000557	5.574951	1.888845	-0.000223
1093	1.0865e+02	-3.4972	-13.508256	0.000547	5.473588	1.854502	-0.000219
1094	1.0875e+02	-3.5405	-13.722224	0.000537	5.372226	1.820159	-0.000215
1095	1.0885e+02	-3.5823	-13.964453	0.000608	6.081765	2.060558	-0.000243
1096	1.0895e+02	-3.6208	-14.150161	0.000466	4.662686	1.579761	-0.000187
1097	1.0905e+02	-3.6641	-14.372203	0.000557	5.574951	1.888845	-0.000223
1098	1.0915e+02	-3.7010	-14.594246	0.000557	5.574951	1.888845	-0.000223
1099	1.0925e+02	-3.7459	-14.812251	0.000547	5.473588	1.854502	-0.000219
1100	1.0935e+02	-3.7876	-15.006034	0.000487	4.865412	1.648446	-0.000195
1101	1.0945e+02	-3.8261	-15.248262	0.000608	6.081765	2.060558	-0.000243
1102	1.0955e+02	-3.8630	-15.450118	0.000507	5.068137	1.717131	-0.000203
1103	1.0965e+02	-3.9015	-15.635827	0.000466	4.662686	1.579761	-0.000187
1104	1.0975e+02	-3.9480	-15.882092	0.000618	6.183128	2.094900	-0.000248
1105	1.0985e+02	-3.9833	-16.128357	0.000618	6.183128	2.094900	-0.000248
1106	1.0995e+02	-4.0186	-16.342325	0.000537	5.372226	1.820159	-0.000215
1107	1.1005e+02	-4.0651	-16.536108	0.000487	4.865412	1.648446	-0.000195
1108	1.1015e+02	-4.1149	-16.729890	0.000487	4.865412	1.648446	-0.000195
1109	1.1025e+02	-4.1357	-16.980193	0.000628	6.284490	2.129243	-0.000252
1110	1.1035e+02	-4.1742	-17.182050	0.000507	5.068137	1.717131	-0.000203
1111	1.1044e+02	-4.2207	-17.412166	0.000578	5.777677	1.957530	-0.000231
1112	1.1054e+02	-4.2657	-17.609986	0.000497	4.966775	1.682789	-0.000199
1113	1.1064e+02	-4.3026	-17.836066	0.000568	5.676314	1.923187	-0.000227
1114	1.1074e+02	-4.3362	-18.082331	0.000618	6.183128	2.094900	-0.000248
1115	1.1084e+02	-4.3828	-18.235742	0.000385	3.851784	1.305020	-0.000154
1116	1.1094e+02	-4.4261	-18.490082	0.000639	6.385853	2.163586	-0.000256
1117	1.1104e+02	-4.4614	-18.708087	0.000547	5.473588	1.854502	-0.000219
1118	1.1114e+02	-4.4935	-18.946278	0.000598	5.980402	2.026215	-0.000239
1119	1.1124e+02	-4.5400	-19.144098	0.000497	4.966775	1.682789	-0.000199
1120	1.1134e+02	-4.5897	-19.333843	0.000476	4.764049	1.614104	-0.000191
1121	1.1144e+02	-4.6202	-19.572034	0.000598	5.980402	2.026215	-0.000239
1122	1.1154e+02	-4.6603	-19.806188	0.000588	5.879039	1.991872	-0.000235
1123	1.1164e+02	-4.6972	-19.987859	0.000456	4.561324	1.545418	-0.000183
1124	1.1174e+02	-4.7405	-20.217976	0.000578	5.777677	1.957530	-0.000231
1125	1.1184e+02	-4.7838	-20.431944	0.000537	5.372226	1.820159	-0.000215
1126	1.1194e+02	-4.8223	-20.658024	0.000568	5.676314	1.923187	-0.000227
1127	1.1204e+02	-4.8560	-20.851806	0.000487	4.865412	1.648446	-0.000195
1128	1.1214e+02	-4.8961	-21.089997	0.000598	5.980402	2.026215	-0.000239
1129	1.1224e+02	-4.9378	-21.287817	0.000497	4.966775	1.682789	-0.000199
1130	1.1234e+02	-4.9763	-21.481599	0.000487	4.865412	1.648446	-0.000195
1131	1.1244e+02	-5.0068	-21.760162	0.000699	6.994030	2.369641	-0.000280
1132	1.1253e+02	-5.0581	-21.865127	0.000264	2.635431	0.892908	-0.000105
1133	1.1263e+02	-5.0918	-22.135615	0.000679	6.791304	2.300956	-0.000272
1134	1.1273e+02	-5.1368	-22.345546	0.000527	5.270863	1.785817	-0.000211
1135	1.1283e+02	-5.1769	-22.571626	0.000568	5.676314	1.923187	-0.000227
1136	1.1293e+02	-5.2186	-22.757334	0.000466	4.662686	1.579761	-0.000187
1137	1.1303e+02	-5.2619	-22.991488	0.000588	5.879039	1.991872	-0.000235
1138	1.1313e+02	-5.2940	-23.173159	0.000456	4.561324	1.545418	-0.000183
1139	1.1323e+02	-5.3357	-23.411350	0.000598	5.980402	2.026215	-0.000239
1140	1.1333e+02	-5.3838	-23.629355	0.000547	5.473588	1.854502	-0.000219
1141	1.1343e+02	-5.4287	-23.811027	0.000456	4.561324	1.545418	-0.000183
1142	1.1353e+02	-5.4496	-24.049218	0.000598	5.980402	2.026215	-0.000239
1143	1.1363e+02	-5.5009	-24.238963	0.000476	4.764049	1.614104	-0.000191
1144	1.1373e+02	-5.5490	-24.452931	0.000537	5.372226	1.820159	-0.000215
1145	1.1383e+02	-5.5779	-24.691122	0.000598	5.980402	2.026215	-0.000239
1146	1.1393e+02	-5.6148	-24.860682	0.000426	4.257235	1.442390	-0.000170
1147	1.1403e+02	-5.6421	-25.110984	0.000628	6.284490	2.129243	-0.000252
1148	1.1413e+02	-5.6966	-25.288618	0.000446	4.459961	1.511076	-0.000179
1149	1.1423e+02	-5.7496	-25.522772	0.000588	5.879039	1.991872	-0.000235
1150	1.1433e+02	-5.7784	-25.756926	0.000588	5.879039	1.991872	-0.000235
1151	1.1442e+02	-5.8218	-25.958783	0.000507	5.068137	1.717131	-0.000203
1152	1.1452e+02	-5.8571	-26.176788	0.000547	5.473588	1.854502	-0.000219
1153	1.1462e+02	-5.8956	-26.362496	0.000466	4.662686	1.579761	-0.000187
1154	1.1472e+02	-5.9421	-26.556279	0.000487	4.865412	1.648446	-0.000195
1155	1.1482e+02	-5.9710	-26.778321	0.000557	5.574951	1.888845	-0.000223
1156	1.1492e+02	-6.0062	-26.984215	0.000517	5.169500	1.751474	-0.000207
1157	1.1502e+02	-6.0608	-27.182035	0.000497	4.966775	1.682789	-0.000199
1158	1.1512e+02	-6.0961	-27.448486	0.000669	6.689941	2.266613	-0.000268
1159	1.1522e+02	-6.1330	-27.638231	0.000476	4.764049	1.614104	-0.000191
1160	1.1532e+02	-6.1715	-27.836051	0.000497	4.966775	1.682789	-0.000199
1161	1.1542e+02	-6.2164	-28.062131	0.000568	5.676314	1.923187	-0.000227
1162	1.1552e+02	-6.2565	-28.263987	0.000507	5.068137	1.717131	-0.000203
1163	1.1562e+02	-6.2886	-28.473918	0.000527	5.270863	1.785817	-0.000211
1164	1.1572e+02	-6.3271	-28.659627	0.000466	4.662686	1.579761	-0.000187
1165	1.1582e+02	-6.3736	-28.873595	0.000537	5.372226	1.820159	-0.000215
1166	1.1592e+02	-6.4153	-29.067377	0.000487	4.865412	1.648446	-0.000195
1167	1.1602e+02	-6.4522	-29.277308	0.000527	5.270863	1.785817	-0.000211
1168	1.1612e+02	-6.4907	-29.426682	0.000375	3.750422	1.270677	-0.000150
1169	1.1622e+02	-6.5276	-29.681022	0.000639	6.385853	2.163586	-0.000256
1170	1.1632e+02	-6.5629	-29.894990	0.000537	5.372226	1.820159	-0.000215
1171	1.1642e+02	-6.6110	-30.121070	0.000568	5.676314	1.923187	-0.000227
1172	1.1651e+02	-6.6528	-30.310815	0.000476	4.764049	1.614104	-0.000191
1173	1.1661e+02	-6.6848	-30.528820	0.000547	5.473588	1.854502	-0.000219
1174	1.1671e+02	-6.7265	-30.722603	0.000487	4.865412	1.648446	-0.000195
1175	1.1681e+02	-6.7586	-30.884088	0.000405	4.054510	1.373705	-0.000162
1176	1.1691e+02	-6.8068	-31.118242	0.000588	5.879039	1.991872	-0.000235
1177	1.1701e+02	-6.8501	-31.275691	0.000395	3.953147	1.339363	-0.000158
1178	1.1711e+02	-6.8838	-31.538104	0.000659	6.588579	2.232271	-0.000264
1179	1.1721e+02	-6.9175	-31.731887	0.000487	4.865412	1.648446	-0.000195
1180	1.1731e+02	-6.9640	-31.893372	0.000405	4.054510	1.373705	-0.000162
1181	1.1741e+02	-7.0041	-32.135600	0.000608	6.081765	2.060558	-0.000243
1182	1.1751e+02	-7.0490	-32.333420	0.000497	4.966775	1.682789	-0.000199
1183	1.1761e+02	-7.0955	-32.555463	0.000557	5.574951	1.888845	-0.000223
1184	1.1771e+02	-7.1340	-32.745208	0.000476	4.764049	1.614104	-0.000191
1185	1.1781e+02	-7.1661	-32.979362	0.000588	5.879039	1.991872	-0.000235
1186	1.1791e+02	-7.2030	-33.156996	0.000446	4.459961	1.511076	-0.000179
1187	1.1801e+02	-7.2415	-33.350778	0.000487	4.865412	1.648446	-0.000195
1188	1.1811e+02	-7.2864	-33.572821	0.000557	5.574951	1.888845	-0.000223
1189	1.1821e+02	-7.3346	-33.806975	0.000588	5.879039	1.991872	-0.000235
1190	1.1831e+02	-7.3618	-33.984609	0.000446	4.459961	1.511076	-0.000179
1191	1.1841e+02	-7.4019	-34.146094	0.000405	4.054510	1.373705	-0.000162
1192	1.1850e+02	-7.4420	-34.404471	0.000649	6.487216	2.197928	-0.000260
1193	1.1860e+02	-7.4805	-34.569993	0.000416	4.155873	1.408048	-0.000166
1194	1.1870e+02	-7.5190	-34.767813	0.000497	4.966775	1.682789	-0.000199
1195	1.1880e+02	-7.5688	-34.985818	0.000547	5.473588	1.854502	-0.000219
1196	1.1890e+02	-7.6025	-35.187675	0.000507	5.068137	1.717131	-0.000203
1197	1.1900e+02	-7.6474	-35.377420	0.000476	4.764049	1.614104	-0.000191
1198	1.1910e+02	-7.6875	-35.555054	0.000446	4.459961	1.511076	-0.000179
1199	1.1920e+02	-7.7244	-35.817468	0.000659	6.588579	2.232271	-0.000264
1200	1.1930e+02	-7.7597	-35.982991	0.000416	4.155873	1.408048	-0.000166
1201	1.1940e+02	-7.8094	-36.205033	0.000557	5.574951	1.888845	-0.000223
1202	1.1950e+02	-7.8399	-36.410927	0.000517	5.169500	1.751474	-0.000207
1203	1.1960e+02	-7.8816	-36.580487	0.000426	4.257235	1.442390	-0.000170
1204	1.1970e+02	-7.9185	-36.818678	0.000598	5.980402	2.026215	-0.000239
1205	1.1980e+02	-7.9570	-36.976126	0.000395	3.953147	1.339363	-0.000158
1206	1.1990e+02	-8.0019	-37.222392	0.000618	6.183128	2.094900	-0.000248
1207	1.2000e+02	-8.0404	-37.404063	0.000456	4.561324	1.545418	-0.000183
1208	1.2010e+02	-8.0853	-37.573622	0.000426	4.257235	1.442390	-0.000170
1209	1.2020e+02	-8.1222	-37.827962	0.000639	6.385853	2.163586	-0.000256
1210	1.2030e+02	-8.1607	-37.997522	0.000426	4.257235	1.442390	-0.000170
1211	1.2039e+02	-8.2040	-38.183230	0.000466	4.662686	1.579761	-0.000187
1212	1.2049e+02	-8.2442	-38.429495	0.000618	6.183128	2.094900	-0.000248
1213	1.2059e+02	-8.2843	-38.615203	0.000466	4.662686	1.579761	-0.000187
1214	1.2069e+02	-8.3244	-38.813023	0.000497	4.966775	1.682789	-0.000199
1215	1.2079e+02	-8.3564	-39.018917	0.000517	5.169500	1.751474	-0.000207
1216	1.2089e+02	-8.4046	-39.212699	0.000487	4.865412	1.648446	-0.000195
1217	1.2099e+02	-8.4415	-39.402445	0.000476	4.764049	1.614104	-0.000191
1218	1.2109e+02	-8.4752	-39.616413	0.000537	5.372226	1.820159	-0.000215
1219	1.2119e+02	-8.5153	-39.798084	0.000456	4.561324	1.545418	-0.000183
1220	1.2129e+02	-8.5570	-40.024164	0.000568	5.676314	1.923187	-0.000227
1221	1.2139e+02	-8.6035	-40.181612	0.000395	3.953147	1.339363	-0.000158
1222	1.2149e+02	-8.6372	-40.435952	0.000639	6.385853	2.163586	-0.000256
1223	1.2159e+02	-8.6805	-40.573214	0.000345	3.446333	1.167649	-0.000138
1224	1.2169e+02	-8.7174	-40.815442	0.000608	6.081765	2.060558	-0.000243
1225	1.2179e+02	-8.7671	-40.997113	0.000456	4.561324	1.545418	-0.000183
1226	1.2189e+02	-8.7992	-41.190896	0.000487	4.865412	1.648446	-0.000195
1227	1.2199e+02	-8.8473	-41.396790	0.000517	5.169500	1.751474	-0.000207
1228	1.2209e+02	-8.8842	-41.598647	0.000507	5.068137	1.717131	-0.000203
1229	1.2219e+02	-8.9227	-41.752058	0.000385	3.851784	1.305020	-0.000154
1230	1.2229e+02	-8.9548	-42.006397	0.000639	6.385853	2.163586	-0.000256
1231	1.2239e+02	-9.0014	-42.179994	0.000436	4.358598	1.476733	-0.000174
1232	1.2248e+02	-9.0415	-42.373777	0.000487	4.865412	1.648446	-0.000195
1233	1.2258e+02	-9.0784	-42.563522	0.000476	4.764049	1.614104	-0.000191
1234	1.2268e+02	-9.1169	-42.797676	0.000588	5.879039	1.991872	-0.000235
1235	1.2278e+02	-9.1634	-42.955124	0.000395	3.953147	1.339363	-0.000158
1236	1.2288e+02	-9.2067	-43.152944	0.000497	4.966775	1.682789	-0.000199
1237	1.2298e+02	-9.2388	-43.346726	0.000487	4.865412	1.648446	-0.000195
1238	1.2308e+02	-9.2773	-43.532435	0.000466	4.662686	1.579761	-0.000187
1239	1.2318e+02	-9.3206	-43.774663	0.000608	6.081765	2.060558	-0.000243
1240	1.2328e+02	-9.3463	-43.952297	0.000446	4.459961	1.511076	-0.000179
1241	1.2338e+02	-9.3976	-44.077448	0.000314	3.142245	1.064621	-0.000126
1242	1.2348e+02	-9.4377	-44.307565	0.000578	5.777677	1.957530	-0.000231
1243	1.2358e+02	-9.4762	-44.493273	0.000466	4.662686	1.579761	-0.000187
1244	1.2368e+02	-9.5147	-44.695130	0.000507	5.068137	1.717131	-0.000203
1245	1.2378e+02	-9.5548	-44.917172	0.000557	5.574951	1.888845	-0.000223
1246	1.2388e+02	-9.5933	-45.066546	0.000375	3.750422	1.270677	-0.000150
1247	1.2398e+02	-9.6334	-45.296663	0.000578	5.777677	1.957530	-0.000231
1248	1.2408e+02	-9.6751	-45.514668	0.000547	5.473588	1.854502	-0.000219
1249	1.2418e+02	-9.7249	-45.668079	0.000385	3.851784	1.305020	-0.000154
1250	1.2428e+02	-9.7521	-45.890122	0.000557	5.574951	1.888845	-0.000223
1251	1.2438e+02	-9.7970	-46.112164	0.000557	5.574951	1.888845	-0.000223
1252	1.2447e+02	-9.8275	-46.265576	0.000385	3.851784	1.305020	-0.000154
1253	1.2457e+02	-9.8853	-46.467432	0.000507	5.068137	1.717131	-0.000203
1254	1.2467e+02	-9.9206	-46.677363	0.000527	5.270863	1.785817	-0.000211
1255	1.2477e+02	-9.9543	-46.887294	0.000527	5.270863	1.785817	-0.000211
1256	1.2487e+02	-9.9896	-47.044743	0.000395	3.953147	1.339363	-0.000158
1257	1.2497e+02	-10.0345	-47.222377	0.000446	4.459961	1.511076	-0.000179
1258	1.2507e+02	-10.0714	-47.460568	0.000598	5.980402	2.026215	-0.000239
1259	1.2517e+02	-10.1147	-47.686647	0.000568	5.676314	1.923187	-0.000227
1260	1.2527e+02	-10.1580	-47.840058	0.000385	3.851784	1.305020	-0.000154
1261	1.2537e+02	-10.1901	-48.009618	0.000426	4.257235	1.442390	-0.000170
1262	1.2547e+02	-10.2382	-48.207438	0.000497	4.966775	1.682789	-0.000199
1263	1.2557e+02	-10.2847	-48.425443	0.000547	5.473588	1.854502	-0.000219
1264	1.2567e+02	-10.3216	-48.639411	0.000537	5.372226	1.820159	-0.000215
1265	1.2577e+02	-10.3553	-48.821082	0.000456	4.561324	1.545418	-0.000183
1266	1.2587e+02	-10.3922	-49.006791	0.000466	4.662686	1.579761	-0.000187
1267	1.2597e+02	-10.4339	-49.204610	0.000497	4.966775	1.682789	-0.000199
1268	1.2607e+02	-10.4708	-49.382244	0.000446	4.459961	1.511076	-0.000179
1269	1.2617e+02	-10.5077	-49.592175	0.000527	5.270863	1.785817	-0.000211
1270	1.2627e+02	-10.5478	-49.794032	0.000507	5.068137	1.717131	-0.000203
1271	1.2636e+02	-10.5927	-49.971666	0.000446	4.459961	1.511076	-0.000179
1272	1.2646e+02	-10.6361	-50.133152	0.000405	4.054510	1.373705	-0.000162
1273	1.2656e+02	-10.6778	-50.326934	0.000487	4.865412	1.648446	-0.000195
1274	1.2666e+02	-10.7083	-50.520717	0.000487	4.865412	1.648446	-0.000195
1275	1.2676e+02	-10.7596	-50.706425	0.000466	4.662686	1.579761	-0.000187
1276	1.2686e+02	-10.8109	-50.892133	0.000466	4.662686	1.579761	-0.000187
1277	1.2696e+02	-10.8222	-51.110138	0.000547	5.473588	1.854502	-0.000219
1278	1.2706e+02	-10.8687	-51.263550	0.000385	3.851784	1.305020	-0.000154
1279	1.2716e+02	-10.9088	-51.505778	0.000608	6.081765	2.060558	-0.000243
1280	1.2726e+02	-10.9521	-51.667263	0.000405	4.054510	1.373705	-0.000162
1281	1.2736e+02	-10.9954	-51.836823	0.000426	4.257235	1.442390	-0.000170
1282	1.2746e+02	-11.0323	-52.066940	0.000578	5.777677	1.957530	-0.000231
1283	1.2756e+02	-11.0692	-52.232462	0.000416	4.155873	1.408048	-0.000166
1284	1.2766e+02	-11.1093	-52.446430	0.000537	5.372226	1.820159	-0.000215
1285	1.2776e+02	-11.1478	-52.648287	0.000507	5.068137	1.717131	-0.000203
1286	1.2786e+02	-11.1927	-52.821884	0.000436	4.358598	1.476733	-0.000174
1287	1.2796e+02	-11.2264	-52.979332	0.000395	3.953147	1.339363	-0.000158
1288	1.2806e+02	-11.2762	-53.205412	0.000568	5.676314	1.923187	-0.000227
1289	1.2816e+02	-11.3098	-53.346712	0.000355	3.547696	1.201992	-0.000142
1290	1.2826e+02	-11.3483	-53.548568	0.000507	5.068137	1.717131	-0.000203
1291	1.2835e+02	-11.3901	-53.742351	0.000487	4.865412	1.648446	-0.000195
1292	1.2845e+02	-11.4141	-53.915948	0.000436	4.358598	1.476733	-0.000174
1293	1.2855e+02	-11.4638	-54.170287	0.000639	6.385853	2.163586	-0.000256
1294	1.2865e+02	-11.5088	-54.303513	0.000334	3.344971	1.133307	-0.000134
1295	1.2875e+02	-11.5553	-54.497295	0.000487	4.865412	1.648446	-0.000195
1296	1.2885e+02	-11.5794	-54.691078	0.000487	4.865412	1.648446	-0.000195
1297	1.2895e+02	-11.6339	-54.896972	0.000517	5.169500	1.751474	-0.000207
1298	1.2905e+02	-11.6644	-55.062494	0.000416	4.155873	1.408048	-0.000166
1299	1.2915e+02	-11.7093	-55.252240	0.000476	4.764049	1.614104	-0.000191
1300	1.2925e+02	-11.7446	-55.421799	0.000426	4.257235	1.442390	-0.000170
1301	1.2935e+02	-11.7943	-55.631730	0.000527	5.270863	1.785817	-0.000211
1302	1.2945e+02	-11.8200	-55.809364	0.000446	4.459961	1.511076	-0.000179
1303	1.2955e+02	-11.8633	-56.011221	0.000507	5.068137	1.717131	-0.000203
1304	1.2965e+02	-11.9066	-56.196929	0.000466	4.662686	1.579761	-0.000187
1305	1.2975e+02	-11.9563	-56.370526	0.000436	4.358598	1.476733	-0.000174
1306	1.2985e+02	-11.9804	-56.560272	0.000476	4.764049	1.614104	-0.000191
1307	1.2995e+02	-12.0334	-56.758091	0.000497	4.966775	1.682789	-0.000199
1308	1.3005e+02	-12.0686	-56.923614	0.000416	4.155873	1.408048	-0.000166
1309	1.3015e+02	-12.1023	-57.101248	0.000446	4.459961	1.511076	-0.000179
1310	1.3025e+02	-12.1473	-57.319253	0.000547	5.473588	1.854502	-0.000219
1311	1.3034e+02	-12.1841	-57.452479	0.000334	3.344971	1.133307	-0.000134
1312	1.3044e+02	-12.2275	-57.662410	0.000527	5.270863	1.785817	-0.000211
1313	1.3054e+02	-12.2644	-57.831969	0.000426	4.257235	1.442390	-0.000170
1314	1.3064e+02	-12.3061	-58.058049	0.000568	5.676314	1.923187	-0.000227
1315	1.3074e+02	-12.3398	-58.219534	0.000405	4.054510	1.373705	-0.000162
1316	1.3084e+02	-12.3927	-58.409280	0.000476	4.764049	1.614104	-0.000191
1317	1.3094e+02	-12.4264	-58.594988	0.000466	4.662686	1.579761	-0.000187
1318	1.3104e+02	-12.4633	-58.841253	0.000618	6.183128	2.094900	-0.000248
1319	1.3114e+02	-12.5002	-58.974479	0.000334	3.344971	1.133307	-0.000134
1320	1.3124e+02	-12.5435	-59.152113	0.000446	4.459961	1.511076	-0.000179
1321	1.3134e+02	-12.5852	-59.325710	0.000436	4.358598	1.476733	-0.000174
1322	1.3144e+02	-12.6269	-59.547752	0.000557	5.574951	1.888845	-0.000223
1323	1.3154e+02	-12.6622	-59.717312	0.000426	4.257235	1.442390	-0.000170
1324	1.3164e+02	-12.7007	-59.850537	0.000334	3.344971	1.133307	-0.000134
1325	1.3174e+02	-12.7392	-60.056431	0.000517	5.169500	1.751474	-0.000207
1326	1.3184e+02	-12.7905	-60.278474	0.000557	5.574951	1.888845	-0.000223
1327	1.3194e+02	-12.8210	-60.448033	0.000426	4.257235	1.442390	-0.000170
1328	1.3204e+02	-12.8708	-60.653927	0.000517	5.169500	1.751474	-0.000207
1329	1.3214e+02	-12.8964	-60.859821	0.000517	5.169500	1.751474	-0.000207
1330	1.3224e+02	-12.9365	-60.989010	0.000324	3.243608	1.098964	-0.000130
1331	1.3234e+02	-12.9831	-61.158569	0.000426	4.257235	1.442390	-0.000170
1332	1.3243e+02	-13.0216	-61.376575	0.000547	5.473588	1.854502	-0.000219
1333	1.3253e+02	-13.0585	-61.570357	0.000487	4.865412	1.648446	-0.000195
1334	1.3263e+02	-13.1018	-61.747991	0.000446	4.459961	1.511076	-0.000179
1335	1.3273e+02	-13.1435	-61.909477	0.000405	4.054510	1.373705	-0.000162
1336	1.3283e+02	-13.1756	-62.083073	0.000436	4.358598	1.476733	-0.000174
1337	1.3293e+02	-13.2189	-62.309153	0.000568	5.676314	1.923187	-0.000227
1338	1.3303e+02	-13.2590	-62.454490	0.000365	3.649059	1.236335	-0.000146
1339	1.3313e+02	-13.3023	-62.664421	0.000527	5.270863	1.785817	-0.000211
1340	1.3323e+02	-13.3440	-62.789572	0.000314	3.142245	1.064621	-0.000126
1341	1.3333e+02	-13.3809	-62.999503	0.000527	5.270863	1.785817	-0.000211
1342	1.3343e+02	-13.4387	-63.156951	0.000395	3.953147	1.339363	-0.000158
1343	1.3353e+02	-13.4563	-63.338623	0.000456	4.561324	1.545418	-0.000183
1344	1.3363e+02	-13.5060	-63.556628	0.000547	5.473588	1.854502	-0.000219
1345	1.3373e+02	-13.5413	-63.714076	0.000395	3.953147	1.339363	-0.000158
1346	1.3383e+02	-13.5750	-63.879599	0.000416	4.155873	1.408048	-0.000166
1347	1.3393e+02	-13.6215	-64.045121	0.000416	4.155873	1.408048	-0.000166
1348	1.3403e+02	-13.6536	-64.275238	0.000578	5.777677	1.957530	-0.000231
1349	1.3413e+02	-13.6969	-64.424612	0.000375	3.750422	1.270677	-0.000150
1350	1.3423e+02	-13.7467	-64.622432	0.000497	4.966775	1.682789	-0.000199
1351	1.3432e+02	-13.7804	-64.808140	0.000466	4.662686	1.579761	-0.000187
1352	1.3442e+02	-13.8221	-64.981737	0.000436	4.358598	1.476733	-0.000174
1353	1.3452e+02	-13.8670	-65.155334	0.000436	4.358598	1.476733	-0.000174
1354	1.3462e+02	-13.9055	-65.349116	0.000487	4.865412	1.648446	-0.000195
1355	1.3472e+02	-13.9408	-65.530787	0.000456	4.561324	1.545418	-0.000183
1356	1.3482e+02	-13.9793	-65.736681	0.000517	5.169500	1.751474	-0.000207
1357	1.3492e+02	-14.0162	-65.861832	0.000314	3.142245	1.064621	-0.000126
1358	1.3502e+02	-14.0563	-66.055615	0.000487	4.865412	1.648446	-0.000195
1359	1.3512e+02	-14.0996	-66.261509	0.000517	5.169500	1.751474	-0.000207
1360	1.3522e+02	-14.1317	-66.414920	0.000385	3.851784	1.305020	-0.000154
1361	1.3532e+02	-14.1782	-66.616777	0.000507	5.068137	1.717131	-0.000203
1362	1.3542e+02	-14.2215	-66.754039	0.000345	3.446333	1.167649	-0.000138
1363	1.3552e+02	-14.2600	-66.976082	0.000557	5.574951	1.888845	-0.000223
1364	1.3562e+02	-14.2937	-67.121419	0.000365	3.649059	1.236335	-0.000146
1365	1.3572e+02	-14.3386	-67.327313	0.000517	5.169500	1.751474	-0.000207
1366	1.3582e+02	-14.3771	-67.517058	0.000476	4.764049	1.614104	-0.000191
1367	1.3592e+02	-14.4156	-67.686618	0.000426	4.257235	1.442390	-0.000170
1368	1.3602e+02	-14.4622	-67.880400	0.000487	4.865412	1.648446	-0.000195
1369	1.3612e+02	-14.4926	-68.037849	0.000395	3.953147	1.339363	-0.000158
1370	1.3622e+02	-14.5392	-68.231631	0.000487	4.865412	1.648446	-0.000195
1371	1.3631e+02	-14.5729	-68.385042	0.000385	3.851784	1.305020	-0.000154
1372	1.3641e+02	-14.6146	-68.578825	0.000487	4.865412	1.648446	-0.000195
1373	1.3651e+02	-14.6595	-68.724162	0.000365	3.649059	1.236335	-0.000146
1374	1.3661e+02	-14.6964	-68.942167	0.000547	5.473588	1.854502	-0.000219
1375	1.3671e+02	-14.7381	-69.111727	0.000426	4.257235	1.442390	-0.000170
1376	1.3681e+02	-14.7766	-69.293398	0.000456	4.561324	1.545418	-0.000183
1377	1.3691e+02	-14.8135	-69.466995	0.000436	4.358598	1.476733	-0.000174
1378	1.3701e+02	-14.8632	-69.668851	0.000507	5.068137	1.717131	-0.000203
1379	1.3711e+02	-14.8985	-69.810151	0.000355	3.547696	1.201992	-0.000142
1380	1.3721e+02	-14.9418	-70.003934	0.000487	4.865412	1.648446	-0.000195
1381	1.3731e+02	-14.9739	-70.177531	0.000436	4.358598	1.476733	-0.000174
1382	1.3741e+02	-15.0108	-70.343053	0.000416	4.155873	1.408048	-0.000166
1383	1.3751e+02	-15.0557	-70.536836	0.000487	4.865412	1.648446	-0.000195
1384	1.3761e+02	-15.0862	-70.698321	0.000405	4.054510	1.373705	-0.000162
1385	1.3771e+02	-15.1391	-70.888066	0.000476	4.764049	1.614104	-0.000191
1386	1.3781e+02	-15.1744	-71.061663	0.000436	4.358598	1.476733	-0.000174
1387	1.3791e+02	-15.2065	-71.235260	0.000436	4.358598	1.476733	-0.000174
1388	1.3801e+02	-15.2595	-71.404820	0.000426	4.257235	1.442390	-0.000170
1389	1.3811e+02	-15.2883	-71.614751	0.000527	5.270863	1.785817	-0.000211
1390	1.3821e+02	-15.3317	-71.739902	0.000314	3.142245	1.064621	-0.000126
1391	1.3831e+02	-15.3878	-71.978093	0.000598	5.980402	2.026215	-0.000239
1392	1.3840e+02	-15.4087	-72.147653	0.000426	4.257235	1.442390	-0.000170
1393	1.3850e+02	-15.4600	-72.288953	0.000355	3.547696	1.201992	-0.000142
1394	1.3860e+02	-15.4841	-72.510995	0.000557	5.574951	1.888845	-0.000223
1395	1.3870e+02	-15.5274	-72.724963	0.000537	5.372226	1.820159	-0.000215
1396	1.3880e+02	-15.5787	-72.825892	0.000253	2.534069	0.858566	-0.000101
1397	1.3890e+02	-15.6236	-73.027748	0.000507	5.068137	1.717131	-0.000203
1398	1.3900e+02	-15.6541	-73.245754	0.000547	5.473588	1.854502	-0.000219
1399	1.3910e+02	-15.6862	-73.354756	0.000274	2.736794	0.927251	-0.000110
1400	1.3920e+02	-15.7311	-73.564687	0.000527	5.270863	1.785817	-0.000211
1401	1.3930e+02	-15.7680	-73.705987	0.000355	3.547696	1.201992	-0.000142
1402	1.3940e+02	-15.8113	-73.936104	0.000578	5.777677	1.957530	-0.000231
1403	1.3950e+02	-15.8578	-74.089515	0.000385	3.851784	1.305020	-0.000154
1404	1.3960e+02	-15.8867	-74.267149	0.000446	4.459961	1.511076	-0.000179
1405	1.3970e+02	-15.9332	-74.408449	0.000355	3.547696	1.201992	-0.000142
1406	1.3980e+02	-15.9701	-74.606268	0.000497	4.966775	1.682789	-0.000199
1407	1.3990e+02	-16.0102	-74.763717	0.000395	3.953147	1.339363	-0.000158
1408	1.4000e+02	-16.0520	-74.937314	0.000436	4.358598	1.476733	-0.000174
1409	1.4010e+02	-16.0921	-75.127059	0.000476	4.764049	1.614104	-0.000191
1410	1.4020e+02	-16.1306	-75.324879	0.000497	4.966775	1.682789	-0.000199
1411	1.4029e+02	-16.1691	-75.502513	0.000446	4.459961	1.511076	-0.000179
1412	1.4039e+02	-16.2092	-75.655924	0.000385	3.851784	1.305020	-0.000154
1413	1.4049e+02	-16.2493	-75.857781	0.000507	5.068137	1.717131	-0.000203
1414	1.4059e+02	-16.2894	-76.031377	0.000436	4.358598	1.476733	-0.000174
1415	1.4069e+02	-16.3311	-76.192863	0.000405	4.054510	1.373705	-0.000162
1416	1.4079e+02	-16.3760	-76.390682	0.000497	4.966775	1.682789	-0.000199
1417	1.4089e+02	-16.4145	-76.576391	0.000466	4.662686	1.579761	-0.000187
1418	1.4099e+02	-16.4530	-76.762099	0.000466	4.662686	1.579761	-0.000187
1419	1.4109e+02	-16.4819	-76.915510	0.000385	3.851784	1.305020	-0.000154
1420	1.4119e+02	-16.5300	-77.121404	0.000517	5.169500	1.751474	-0.000207
1421	1.4129e+02	-16.5685	-77.274815	0.000385	3.851784	1.305020	-0.000154
1422	1.4139e+02	-16.6070	-77.484746	0.000527	5.270863	1.785817	-0.000211
1423	1.4149e+02	-16.6584	-77.682566	0.000497	4.966775	1.682789	-0.000199
1424	1.4159e+02	-16.6953	-77.831940	0.000375	3.750422	1.270677	-0.000150
1425	1.4169e+02	-16.7338	-77.989388	0.000395	3.953147	1.339363	-0.000158
1426	1.4179e+02	-16.7674	-78.187208	0.000497	4.966775	1.682789	-0.000199
1427	1.4189e+02	-16.8124	-78.368879	0.000456	4.561324	1.545418	-0.000183
1428	1.4199e+02	-16.8444	-78.590921	0.000557	5.574951	1.888845	-0.000223
1429	1.4209e+02	-16.8894	-78.732221	0.000355	3.547696	1.201992	-0.000142
1430	1.4219e+02	-16.9375	-78.897744	0.000416	4.155873	1.408048	-0.000166
1431	1.4228e+02	-16.9616	-79.095563	0.000497	4.966775	1.682789	-0.000199
1432	1.4238e+02	-17.0049	-79.261086	0.000416	4.155873	1.408048	-0.000166
1433	1.4248e+02	-17.0450	-79.450831	0.000476	4.764049	1.614104	-0.000191
1434	1.4258e+02	-17.0851	-79.624428	0.000436	4.358598	1.476733	-0.000174
1435	1.4268e+02	-17.1268	-79.822248	0.000497	4.966775	1.682789	-0.000199
1436	1.4278e+02	-17.1701	-80.016030	0.000487	4.865412	1.648446	-0.000195
1437	1.4288e+02	-17.2070	-80.197701	0.000456	4.561324	1.545418	-0.000183
1438	1.4298e+02	-17.2471	-80.379373	0.000456	4.561324	1.545418	-0.000183
1439	1.4308e+02	-17.2920	-80.569118	0.000476	4.764049	1.614104	-0.000191
1440	1.4318e+02	-17.3225	-80.762900	0.000487	4.865412	1.648446	-0.000195
1441	1.4328e+02	-17.3690	-80.936497	0.000436	4.358598	1.476733	-0.000174
1442	1.4338e+02	-17.4075	-81.041463	0.000264	2.635431	0.892908	-0.000105
1443	1.4348e+02	-17.4508	-81.283691	0.000608	6.081765	2.060558	-0.000243
1444	1.4358e+02	-17.4845	-81.521882	0.000598	5.980402	2.026215	-0.000239
1445	1.4368e+02	-17.5198	-81.659145	0.000345	3.446333	1.167649	-0.000138
1446	1.4378e+02	-17.5647	-81.812556	0.000385	3.851784	1.305020	-0.000154
1447	1.4388e+02	-17.5984	-82.050747	0.000598	5.980402	2.026215	-0.000239
1448	1.4398e+02	-17.6434	-82.244529	0.000487	4.865412	1.648446	-0.000195
1449	1.4408e+02	-17.6963	-82.414089	0.000426	4.257235	1.442390	-0.000170
1450	1.4418e+02	-17.7155	-82.579612	0.000416	4.155873	1.408048	-0.000166
1451	1.4428e+02	-17.7669	-82.741097	0.000405	4.054510	1.373705	-0.000162
1452	1.4437e+02	-17.8006	-82.991399	0.000628	6.284490	2.129243	-0.000252
1453	1.4447e+02	-17.8375	-83.148848	0.000395	3.953147	1.339363	-0.000158
1454	1.4457e+02	-17.8840	-83.322444	0.000436	4.358598	1.476733	-0.000174
1455	1.4467e+02	-17.9225	-83.516227	0.000487	4.865412	1.648446	-0.000195
1456	1.4477e+02	-17.9626	-83.714047	0.000497	4.966775	1.682789	-0.000199
1457	1.4487e+02	-17.9995	-83.911866	0.000497	4.966775	1.682789	-0.000199
1458	1.4497e+02	-18.0444	-84.081426	0.000426	4.257235	1.442390	-0.000170
1459	1.4507e+02	-18.0909	-84.250986	0.000426	4.257235	1.442390	-0.000170
1460	1.4517e+02	-18.1214	-84.481102	0.000578	5.777677	1.957530	-0.000231
1461	1.4527e+02	-18.1647	-84.707182	0.000568	5.676314	1.923187	-0.000227
1462	1.4537e+02	-18.2016	-84.840408	0.000334	3.344971	1.133307	-0.000134
1463	1.4547e+02	-18.2433	-85.046301	0.000517	5.169500	1.751474	-0.000207
1464	1.4557e+02	-18.2786	-85.223935	0.000446	4.459961	1.511076	-0.000179
1465	1.4567e+02	-18.3187	-85.450015	0.000568	5.676314	1.923187	-0.000227
1466	1.4577e+02	-18.3556	-85.607463	0.000395	3.953147	1.339363	-0.000158
1467	1.4587e+02	-18.3989	-85.805283	0.000497	4.966775	1.682789	-0.000199
1468	1.4597e+02	-18.4471	-86.019251	0.000537	5.372226	1.820159	-0.000215
1469	1.4607e+02	-18.4824	-86.200922	0.000456	4.561324	1.545418	-0.000183
1470	1.4617e+02	-18.5145	-86.390668	0.000476	4.764049	1.614104	-0.000191
1471	1.4626e+02	-18.5674	-86.616747	0.000568	5.676314	1.923187	-0.000227
1472	1.4636e+02	-18.5995	-86.810530	0.000487	4.865412	1.648446	-0.000195
1473	1.4646e+02	-18.6428	-86.972015	0.000405	4.054510	1.373705	-0.000162
1474	1.4656e+02	-18.6845	-87.190021	0.000547	5.473588	1.854502	-0.000219
1475	1.4666e+02	-18.7230	-87.403989	0.000537	5.372226	1.820159	-0.000215
1476	1.4676e+02	-18.7631	-87.593734	0.000476	4.764049	1.614104	-0.000191
1477	1.4686e+02	-18.8048	-87.807702	0.000537	5.372226	1.820159	-0.000215
1478	1.4696e+02	-18.8385	-87.989373	0.000456	4.561324	1.545418	-0.000183
1479	1.4706e+02	-18.8738	-88.191230	0.000507	5.068137	1.717131	-0.000203
1480	1.4716e+02	-18.9235	-88.401161	0.000527	5.270863	1.785817	-0.000211
1481	1.4726e+02	-18.9620	-88.611092	0.000527	5.270863	1.785817	-0.000211
1482	1.4736e+02	-19.0005	-88.796801	0.000466	4.662686	1.579761	-0.000187
1483	1.4746e+02	-19.0406	-89.010769	0.000537	5.372226	1.820159	-0.000215
1484	1.4756e+02	-19.0888	-89.212626	0.000507	5.068137	1.717131	-0.000203
1485	1.4766e+02	-19.1144	-89.434668	0.000557	5.574951	1.888845	-0.000223
1486	1.4776e+02	-19.1561	-89.684970	0.000628	6.284490	2.129243	-0.000252
1487	1.4786e+02	-19.2011	-89.870679	0.000466	4.662686	1.579761	-0.000187
1488	1.4796e+02	-19.2396	-90.092721	0.000557	5.574951	1.888845	-0.000223
1489	1.4806e+02	-19.2749	-90.302652	0.000527	5.270863	1.785817	-0.000211
1490	1.4816e+02	-19.3118	-90.516620	0.000537	5.372226	1.820159	-0.000215
1491	1.4825e+02	-19.3647	-90.726551	0.000527	5.270863	1.785817	-0.000211
1492	1.4835e+02	-19.4032	-90.924371	0.000497	4.966775	1.682789	-0.000199
1493	1.4845e+02	-19.4401	-91.178711	0.000639	6.385853	2.163586	-0.000256
1494	1.4855e+02	-19.4818	-91.364419	0.000466	4.662686	1.579761	-0.000187
1495	1.4865e+02	-19.5203	-91.586461	0.000557	5.574951	1.888845	-0.000223
1496	1.4875e+02	-19.5556	-91.784281	0.000497	4.966775	1.682789	-0.000199
1497	1.4885e+02	-19.5973	-92.018435	0.000588	5.879039	1.991872	-0.000235
1498	1.4895e+02	-19.6470	-92.248552	0.000578	5.777677	1.957530	-0.000231
1499	1.4905e+02	-19.6759	-92.515003	0.000669	6.689941	2.266613	-0.000268
1500	1.4915e+02	-19.7128	-92.688599	0.000436	4.358598	1.476733	-0.000174
1501	1.4925e+02	-19.7658	-92.918716	0.000578	5.777677	1.957530	-0.000231
1502	1.4935e+02	-19.8010	-93.100387	0.000456	4.561324	1.545418	-0.000183
1503	1.4945e+02	-19.8267	-93.370875	0.000679	6.791304	2.300956	-0.000272
1504	1.4955e+02	-19.8716	-93.552546	0.000456	4.561324	1.545418	-0.000183
1505	1.4965e+02	-19.9166	-93.810923	0.000649	6.487216	2.197928	-0.000260
1506	1.4975e+02	-19.9583	-94.012780	0.000507	5.068137	1.717131	-0.000203
1507	1.4985e+02	-19.9936	-94.226748	0.000537	5.372226	1.820159	-0.000215
1508	1.4995e+02	-19.9534	-94.214637	0.000030	0.304088	0.103028	0.000012
1509	1.5005e+02	-19.9166	-94.182340	0.000081	0.810902	0.274741	0.000032
1510	1.5015e+02	-19.8797	-94.121783	0.000152	1.520441	0.515139	0.000061
1511	1.5025e+02	-19.8299	-94.085448	0.000091	0.912265	0.309084	0.000037
1512	1.5034e+02	-19.8010	-94.012780	0.000182	1.824529	0.618167	0.000073
1513	1.5044e+02	-19.7609	-93.956260	0.000142	1.419078	0.480797	0.000057
1514	1.5054e+02	-19.7208	-93.891666	0.000162	1.621804	0.549482	0.000065
1515	1.5064e+02	-19.6775	-93.823035	0.000172	1.723167	0.583825	0.000069
1516	1.5074e+02	-19.6390	-93.770552	0.000132	1.317716	0.446454	0.000053
1517	1.5084e+02	-19.5941	-93.734218	0.000091	0.912265	0.309084	0.000037
1518	1.5094e+02	-19.5588	-93.617141	0.000294	2.939520	0.995936	0.000118
1519	1.5104e+02	-19.5139	-93.536398	0.000203	2.027255	0.686853	0.000081
1520	1.5114e+02	-19.4786	-93.483915	0.000132	1.317716	0.446454	0.000053
1521	1.5124e+02	-19.4385	-93.439507	0.000111	1.114990	0.377769	0.000045
1522	1.5134e+02	-19.3888	-93.310318	0.000324	3.243608	1.098964	0.000130
1523	1.5144e+02	-19.3551	-93.237650	0.000182	1.824529	0.618167	0.000073
1524	1.5154e+02	-19.3214	-93.108462	0.000324	3.243608	1.098964	0.000130
1525	1.5164e+02	-19.2733	-93.031756	0.000193	1.925892	0.652510	0.000077
1526	1.5174e+02	-19.2444	-93.011570	0.000051	0.506814	0.171713	0.000020
1527	1.5184e+02	-19.2091	-92.862196	0.000375	3.750422	1.270677	0.000150
1528	1.5194e+02	-19.1513	-92.773379	0.000223	2.229980	0.755538	0.000089
1529	1.5204e+02	-19.1112	-92.692637	0.000203	2.027255	0.686853	0.000081
1530	1.5214e+02	-19.0872	-92.575560	0.000294	2.939520	0.995936	0.000118
1531	1.5224e+02	-19.0438	-92.490780	0.000213	2.128618	0.721195	0.000085
1532	1.5233e+02	-19.0037	-92.397926	0.000233	2.331343	0.789880	0.000093
1533	1.5243e+02	-18.9620	-92.292960	0.000264	2.635431	0.892908	0.000105
1534	1.5253e+02	-18.9203	-92.187995	0.000264	2.635431	0.892908	0.000105
1535	1.5263e+02	-18.8786	-92.062843	0.000314	3.142245	1.064621	0.000126
1536	1.5273e+02	-18.8417	-91.986138	0.000193	1.925892	0.652510	0.000077
1537	1.5283e+02	-18.8096	-91.873098	0.000284	2.838157	0.961594	0.000114
1538	1.5293e+02	-18.7599	-91.735835	0.000345	3.446333	1.167649	0.000138
1539	1.5303e+02	-18.7214	-91.667204	0.000172	1.723167	0.583825	0.000069
1540	1.5313e+02	-18.6813	-91.550127	0.000294	2.939520	0.995936	0.000118
1541	1.5323e+02	-18.6316	-91.412865	0.000345	3.446333	1.167649	0.000138
1542	1.5333e+02	-18.6091	-91.324048	0.000223	2.229980	0.755538	0.000089
1543	1.5343e+02	-18.5594	-91.219082	0.000264	2.635431	0.892908	0.000105
1544	1.5353e+02	-18.5209	-91.146414	0.000182	1.824529	0.618167	0.000073
1545	1.5363e+02	-18.4856	-91.005114	0.000355	3.547696	1.201992	0.000142
1546	1.5373e+02	-18.4439	-90.879963	0.000314	3.142245	1.064621	0.000126
1547	1.5383e+02	-18.4006	-90.770960	0.000274	2.736794	0.927251	0.000110
1548	1.5393e+02	-18.3620	-90.657920	0.000284	2.838157	0.961594	0.000114
1549	1.5403e+02	-18.3268	-90.548917	0.000274	2.736794	0.927251	0.000110
1550	1.5413e+02	-18.2866	-90.415692	0.000334	3.344971	1.133307	0.000134
1551	1.5422e+02	-18.2417	-90.294578	0.000304	3.040882	1.030279	0.000122
1552	1.5432e+02	-18.1968	-90.181538	0.000284	2.838157	0.961594	0.000114
1553	1.5442e+02	-18.1615	-90.076573	0.000264	2.635431	0.892908	0.000105
1554	1.5452e+02	-18.1214	-89.967570	0.000274	2.736794	0.927251	0.000110
1555	1.5462e+02	-18.0845	-89.854530	0.000284	2.838157	0.961594	0.000114
1556	1.5472e+02	-18.0316	-89.721305	0.000334	3.344971	1.133307	0.000134
1557	1.5482e+02	-18.0075	-89.563856	0.000395	3.953147	1.339363	0.000158
1558	1.5492e+02	-17.9706	-89.454854	0.000274	2.736794	0.927251	0.000110
1559	1.5502e+02	-17.9385	-89.277220	0.000446	4.459961	1.511076	0.000179
1560	1.5512e+02	-17.8808	-89.164180	0.000284	2.838157	0.961594	0.000114
1561	1.5522e+02	-17.8375	-89.063252	0.000253	2.534069	0.858566	0.000101
1562	1.5532e+02	-17.8102	-88.946175	0.000294	2.939520	0.995936	0.000118
1563	1.5542e+02	-17.7589	-88.865432	0.000203	2.027255	0.686853	0.000081
1564	1.5552e+02	-17.7171	-88.724132	0.000355	3.547696	1.201992	0.000142
1565	1.5562e+02	-17.6819	-88.582832	0.000355	3.547696	1.201992	0.000142
1566	1.5572e+02	-17.6514	-88.473830	0.000274	2.736794	0.927251	0.000110
1567	1.5582e+02	-17.6081	-88.300233	0.000436	4.358598	1.476733	0.000174
1568	1.5592e+02	-17.5599	-88.167007	0.000334	3.344971	1.133307	0.000134
1569	1.5602e+02	-17.5198	-88.033782	0.000334	3.344971	1.133307	0.000134
1570	1.5612e+02	-17.4829	-87.924779	0.000274	2.736794	0.927251	0.000110
1571	1.5622e+02	-17.4476	-87.803665	0.000304	3.040882	1.030279	0.000122
1572	1.5631e+02	-17.4027	-87.666403	0.000345	3.446333	1.167649	0.000138
1573	1.5641e+02	-17.3658	-87.569511	0.000243	2.432706	0.824223	0.000097
1574	1.5651e+02	-17.3353	-87.387840	0.000456	4.561324	1.545418	0.000183
1575	1.5661e+02	-17.2888	-87.270763	0.000294	2.939520	0.995936	0.000118
1576	1.5671e+02	-17.2359	-87.145612	0.000314	3.142245	1.064621	0.000126
1577	1.5681e+02	-17.2038	-86.972015	0.000436	4.358598	1.476733	0.000174
1578	1.5691e+02	-17.1637	-86.850901	0.000304	3.040882	1.030279	0.000122
1579	1.5701e+02	-17.1220	-86.721713	0.000324	3.243608	1.098964	0.000130
1580	1.5711e+02	-17.0899	-86.584450	0.000345	3.446333	1.167649	0.000138
1581	1.5721e+02	-17.0434	-86.463336	0.000304	3.040882	1.030279	0.000122
1582	1.5731e+02	-17.0017	-86.342222	0.000304	3.040882	1.030279	0.000122
1583	1.5741e+02	-16.9616	-86.217071	0.000314	3.142245	1.064621	0.000126
1584	1.5751e+02	-16.9327	-86.023288	0.000487	4.865412	1.648446	0.000195
1585	1.5761e+02	-16.8846	-85.906211	0.000294	2.939520	0.995936	0.000118
1586	1.5771e+02	-16.8460	-85.785097	0.000304	3.040882	1.030279	0.000122
1587	1.5781e+02	-16.8124	-85.623612	0.000405	4.054510	1.373705	0.000162
1588	1.5791e+02	-16.7723	-85.526721	0.000243	2.432706	0.824223	0.000097
1589	1.5801e+02	-16.7305	-85.381384	0.000365	3.649059	1.236335	0.000146
1590	1.5811e+02	-16.6953	-85.256233	0.000314	3.142245	1.064621	0.000126
1591	1.5821e+02	-16.6519	-85.098784	0.000395	3.953147	1.339363	0.000158
1592	1.5830e+02	-16.6166	-85.005930	0.000233	2.331343	0.789880	0.000093
1593	1.5840e+02	-16.5653	-84.876742	0.000324	3.243608	1.098964	0.000130
1594	1.5850e+02	-16.5380	-84.703145	0.000436	4.358598	1.476733	0.000174
1595	1.5860e+02	-16.4883	-84.557808	0.000365	3.649059	1.236335	0.000146
1596	1.5870e+02	-16.4434	-84.473028	0.000213	2.128618	0.721195	0.000085
1597	1.5880e+02	-16.4065	-84.319617	0.000385	3.851784	1.305020	0.000154
1598	1.5890e+02	-16.3744	-84.182354	0.000345	3.446333	1.167649	0.000138
1599	1.5900e+02	-16.3231	-83.996646	0.000466	4.662686	1.579761	0.000187
1600	1.5910e+02	-16.2974	-83.887644	0.000274	2.736794	0.927251	0.000110
1601	1.5920e+02	-16.2493	-83.730195	0.000395	3.953147	1.339363	0.000158
1602	1.5930e+02	-16.2044	-83.613118	0.000294	2.939520	0.995936	0.000118
1603	1.5940e+02	-16.1723	-83.455670	0.000395	3.953147	1.339363	0.000158
1604	1.5950e+02	-16.1306	-83.314370	0.000355	3.547696	1.201992	0.000142
1605	1.5960e+02	-16.0985	-83.160959	0.000385	3.851784	1.305020	0.000154
1606	1.5970e+02	-16.0503	-83.011585	0.000375	3.750422	1.270677	0.000150
1607	1.5980e+02	-16.0151	-82.870285	0.000355	3.547696	1.201992	0.000142
1608	1.5990e+02	-15.9669	-82.801654	0.000172	1.723167	0.583825	0.000069
1609	1.6000e+02	-15.9348	-82.611909	0.000476	4.764049	1.614104	0.000191
1610	1.6010e+02	-15.8931	-82.466572	0.000365	3.649059	1.236335	0.000146
1611	1.6019e+02	-15.8530	-82.329309	0.000345	3.446333	1.167649	0.000138
1612	1.6029e+02	-15.8129	-82.167824	0.000405	4.054510	1.373705	0.000162
1613	1.6039e+02	-15.7648	-82.070932	0.000243	2.432706	0.824223	0.000097
1614	1.6049e+02	-15.7311	-81.873113	0.000497	4.966775	1.682789	0.000199
1615	1.6059e+02	-15.6942	-81.743924	0.000324	3.243608	1.098964	0.000130
1616	1.6069e+02	-15.6557	-81.638959	0.000264	2.635431	0.892908	0.000105
1617	1.6079e+02	-15.6076	-81.465362	0.000436	4.358598	1.476733	0.000174
1618	1.6089e+02	-15.5707	-81.328099	0.000345	3.446333	1.167649	0.000138
1619	1.6099e+02	-15.5290	-81.211023	0.000294	2.939520	0.995936	0.000118
1620	1.6109e+02	-15.4985	-81.029351	0.000456	4.561324	1.545418	0.000183
1621	1.6119e+02	-15.4456	-80.851717	0.000446	4.459961	1.511076	0.000179
1622	1.6129e+02	-15.4167	-80.754826	0.000243	2.432706	0.824223	0.000097
1623	1.6139e+02	-15.3830	-80.569118	0.000466	4.662686	1.579761	0.000187
1624	1.6149e+02	-15.3397	-80.431855	0.000345	3.446333	1.167649	0.000138
1625	1.6159e+02	-15.2948	-80.290556	0.000355	3.547696	1.201992	0.000142
1626	1.6169e+02	-15.2546	-80.133107	0.000395	3.953147	1.339363	0.000158
1627	1.6179e+02	-15.2274	-80.011993	0.000304	3.040882	1.030279	0.000122
1628	1.6189e+02	-15.1728	-79.882805	0.000324	3.243608	1.098964	0.000130
1629	1.6199e+02	-15.1311	-79.737468	0.000365	3.649059	1.236335	0.000146
1630	1.6209e+02	-15.0990	-79.543685	0.000487	4.865412	1.648446	0.000195
1631	1.6219e+02	-15.0637	-79.374126	0.000426	4.257235	1.442390	0.000170
1632	1.6228e+02	-15.0108	-79.261086	0.000284	2.838157	0.961594	0.000114
1633	1.6238e+02	-14.9643	-79.103638	0.000395	3.953147	1.339363	0.000158
1634	1.6248e+02	-14.9418	-78.954264	0.000375	3.750422	1.270677	0.000150
1635	1.6258e+02	-14.8969	-78.833150	0.000304	3.040882	1.030279	0.000122
1636	1.6268e+02	-14.8552	-78.703961	0.000324	3.243608	1.098964	0.000130
1637	1.6278e+02	-14.8167	-78.506142	0.000497	4.966775	1.682789	0.000199
1638	1.6288e+02	-14.7734	-78.340619	0.000416	4.155873	1.408048	0.000166
1639	1.6298e+02	-14.7365	-78.195282	0.000365	3.649059	1.236335	0.000146
1640	1.6308e+02	-14.6948	-78.078205	0.000294	2.939520	0.995936	0.000118
1641	1.6318e+02	-14.6434	-77.957091	0.000304	3.040882	1.030279	0.000122
1642	1.6328e+02	-14.6194	-77.743123	0.000537	5.372226	1.820159	0.000215
1643	1.6338e+02	-14.5761	-77.622009	0.000304	3.040882	1.030279	0.000122
1644	1.6348e+02	-14.5343	-77.508969	0.000284	2.838157	0.961594	0.000114
1645	1.6358e+02	-14.4910	-77.295001	0.000537	5.372226	1.820159	0.000215
1646	1.6368e+02	-14.4590	-77.169850	0.000314	3.142245	1.064621	0.000126
1647	1.6378e+02	-14.4188	-77.016438	0.000385	3.851784	1.305020	0.000154
1648	1.6388e+02	-14.3707	-76.826693	0.000476	4.764049	1.614104	0.000191
1649	1.6398e+02	-14.3434	-76.697505	0.000324	3.243608	1.098964	0.000130
1650	1.6408e+02	-14.3001	-76.600613	0.000243	2.432706	0.824223	0.000097
1651	1.6418e+02	-14.2616	-76.435091	0.000416	4.155873	1.408048	0.000166
1652	1.6427e+02	-14.2135	-76.269568	0.000416	4.155873	1.408048	0.000166
1653	1.6437e+02	-14.1782	-76.128269	0.000355	3.547696	1.201992	0.000142
1654	1.6447e+02	-14.1445	-75.982932	0.000365	3.649059	1.236335	0.000146
1655	1.6457e+02	-14.1060	-75.768964	0.000537	5.372226	1.820159	0.000215
1656	1.6467e+02	-14.0579	-75.651887	0.000294	2.939520	0.995936	0.000118
1657	1.6477e+02	-14.0210	-75.494438	0.000395	3.953147	1.339363	0.000158
1658	1.6487e+02	-13.9809	-75.324879	0.000426	4.257235	1.442390	0.000170
1659	1.6497e+02	-13.9344	-75.207802	0.000294	2.939520	0.995936	0.000118
1660	1.6507e+02	-13.8911	-75.078613	0.000324	3.243608	1.098964	0.000130
1661	1.6517e+02	-13.8526	-74.905016	0.000436	4.358598	1.476733	0.000174
1662	1.6527e+02	-13.8140	-74.747568	0.000395	3.953147	1.339363	0.000158
1663	1.6537e+02	-13.7739	-74.614343	0.000334	3.344971	1.133307	0.000134
1664	1.6547e+02	-13.7354	-74.396337	0.000547	5.473588	1.854502	0.000219
1665	1.6557e+02	-13.7098	-74.255038	0.000355	3.547696	1.201992	0.000142
1666	1.6567e+02	-13.6697	-74.109701	0.000365	3.649059	1.236335	0.000146
1667	1.6577e+02	-13.6215	-73.968401	0.000355	3.547696	1.201992	0.000142
1668	1.6587e+02	-13.5766	-73.790767	0.000446	4.459961	1.511076	0.000179
1669	1.6597e+02	-13.5365	-73.617170	0.000436	4.358598	1.476733	0.000174
1670	1.6607e+02	-13.4964	-73.459722	0.000395	3.953147	1.339363	0.000158
1671	1.6616e+02	-13.4611	-73.310348	0.000375	3.750422	1.270677	0.000150
1672	1.6626e+02	-13.4194	-73.181160	0.000324	3.243608	1.098964	0.000130
1673	1.6636e+02	-13.3809	-73.015637	0.000416	4.155873	1.408048	0.000166
1674	1.6646e+02	-13.3440	-72.862226	0.000385	3.851784	1.305020	0.000154
1675	1.6656e+02	-13.3023	-72.704778	0.000395	3.953147	1.339363	0.000158
1676	1.6666e+02	-13.2510	-72.494846	0.000527	5.270863	1.785817	0.000211
1677	1.6676e+02	-13.2285	-72.357584	0.000345	3.446333	1.167649	0.000138
1678	1.6686e+02	-13.1868	-72.200136	0.000395	3.953147	1.339363	0.000158
1679	1.6696e+02	-13.1467	-72.046724	0.000385	3.851784	1.305020	0.000154
1680	1.6706e+02	-13.1066	-71.913499	0.000334	3.344971	1.133307	0.000134
1681	1.6716e+02	-13.0601	-71.743939	0.000426	4.257235	1.442390	0.000170
1682	1.6726e+02	-13.0167	-71.542082	0.000507	5.068137	1.717131	0.000203
1683	1.6736e+02	-12.9782	-71.400783	0.000355	3.547696	1.201992	0.000142
1684	1.6746e+02	-12.9462	-71.267557	0.000334	3.344971	1.133307	0.000134
1685	1.6756e+02	-12.8868	-71.102035	0.000416	4.155873	1.408048	0.000166
1686	1.6766e+02	-12.8579	-70.928438	0.000436	4.358598	1.476733	0.000174
1687	1.6776e+02	-12.8355	-70.758878	0.000426	4.257235	1.442390	0.000170
1688	1.6786e+02	-12.7922	-70.625653	0.000334	3.344971	1.133307	0.000134
1689	1.6796e+02	-12.7456	-70.423796	0.000507	5.068137	1.717131	0.000203
1690	1.6806e+02	-12.7087	-70.270385	0.000385	3.851784	1.305020	0.000154
1691	1.6816e+02	-12.6606	-70.088714	0.000456	4.561324	1.545418	0.000183
1692	1.6825e+02	-12.6285	-69.987785	0.000253	2.534069	0.858566	0.000101
1693	1.6835e+02	-12.5964	-69.826300	0.000405	4.054510	1.373705	0.000162
1694	1.6845e+02	-12.5339	-69.636554	0.000476	4.764049	1.614104	0.000191
1695	1.6855e+02	-12.4954	-69.458920	0.000446	4.459961	1.511076	0.000179
1696	1.6865e+02	-12.4617	-69.305509	0.000385	3.851784	1.305020	0.000154
1697	1.6875e+02	-12.4232	-69.119801	0.000466	4.662686	1.579761	0.000187
1698	1.6885e+02	-12.3847	-69.010798	0.000274	2.736794	0.927251	0.000110
1699	1.6895e+02	-12.3462	-68.804904	0.000517	5.169500	1.751474	0.000207
1700	1.6905e+02	-12.3093	-68.635345	0.000426	4.257235	1.442390	0.000170
1701	1.6915e+02	-12.2660	-68.494045	0.000355	3.547696	1.201992	0.000142
1702	1.6925e+02	-12.2243	-68.320448	0.000436	4.358598	1.476733	0.000174
1703	1.6935e+02	-12.1858	-68.150888	0.000426	4.257235	1.442390	0.000170
1704	1.6945e+02	-12.1537	-68.005552	0.000365	3.649059	1.236335	0.000146
1705	1.6955e+02	-12.1104	-67.823880	0.000456	4.561324	1.545418	0.000183
1706	1.6965e+02	-12.0670	-67.678544	0.000365	3.649059	1.236335	0.000146
1707	1.6975e+02	-12.0317	-67.533207	0.000365	3.649059	1.236335	0.000146
1708	1.6985e+02	-11.9772	-67.351536	0.000456	4.561324	1.545418	0.000183
1709	1.6995e+02	-11.9531	-67.153716	0.000497	4.966775	1.682789	0.000199
1710	1.7005e+02	-11.9002	-66.980119	0.000436	4.358598	1.476733	0.000174
1711	1.7015e+02	-11.8745	-66.871116	0.000274	2.736794	0.927251	0.000110
1712	1.7024e+02	-11.8264	-66.673297	0.000497	4.966775	1.682789	0.000199
1713	1.7034e+02	-11.7943	-66.511811	0.000405	4.054510	1.373705	0.000162
1714	1.7044e+02	-11.7398	-66.342252	0.000426	4.257235	1.442390	0.000170
1715	1.7054e+02	-11.7141	-66.200952	0.000355	3.547696	1.201992	0.000142
1716	1.7064e+02	-11.6676	-66.031392	0.000426	4.257235	1.442390	0.000170
1717	1.7074e+02	-11.6275	-65.890092	0.000355	3.547696	1.201992	0.000142
1718	1.7084e+02	-11.5890	-65.700347	0.000476	4.764049	1.614104	0.000191
1719	1.7094e+02	-11.5521	-65.522713	0.000446	4.459961	1.511076	0.000179
1720	1.7104e+02	-11.5072	-65.341042	0.000456	4.561324	1.545418	0.000183
1721	1.7114e+02	-11.4671	-65.187631	0.000385	3.851784	1.305020	0.000154
1722	1.7124e+02	-11.4270	-65.022108	0.000416	4.155873	1.408048	0.000166
1723	1.7134e+02	-11.3933	-64.848511	0.000436	4.358598	1.476733	0.000174
1724	1.7144e+02	-11.3467	-64.662803	0.000466	4.662686	1.579761	0.000187
1725	1.7154e+02	-11.3163	-64.513429	0.000375	3.750422	1.270677	0.000150
1726	1.7164e+02	-11.2681	-64.347907	0.000416	4.155873	1.408048	0.000166
1727	1.7174e+02	-11.2393	-64.178347	0.000426	4.257235	1.442390	0.000170
1728	1.7184e+02	-11.1911	-64.041084	0.000345	3.446333	1.167649	0.000138
1729	1.7194e+02	-11.1446	-63.847302	0.000487	4.865412	1.648446	0.000195
1730	1.7204e+02	-11.1093	-63.673705	0.000436	4.358598	1.476733	0.000174
1731	1.7213e+02	-11.0724	-63.508182	0.000416	4.155873	1.408048	0.000166
1732	1.7223e+02	-11.0387	-63.326511	0.000456	4.561324	1.545418	0.000183
1733	1.7233e+02	-10.9938	-63.152914	0.000436	4.358598	1.476733	0.000174
1734	1.7243e+02	-10.9553	-62.967206	0.000466	4.662686	1.579761	0.000187
1735	1.7253e+02	-10.9120	-62.821869	0.000365	3.649059	1.236335	0.000146
1736	1.7263e+02	-10.8671	-62.583678	0.000598	5.980402	2.026215	0.000239
1737	1.7273e+02	-10.8318	-62.462564	0.000304	3.040882	1.030279	0.000122
1738	1.7283e+02	-10.7869	-62.305116	0.000395	3.953147	1.339363	0.000158
1739	1.7293e+02	-10.7484	-62.115370	0.000476	4.764049	1.614104	0.000191
1740	1.7303e+02	-10.7034	-61.933699	0.000456	4.561324	1.545418	0.000183
1741	1.7313e+02	-10.6746	-61.808548	0.000314	3.142245	1.064621	0.000126
1742	1.7323e+02	-10.6345	-61.651100	0.000395	3.953147	1.339363	0.000158
1743	1.7333e+02	-10.5927	-61.408872	0.000608	6.081765	2.060558	0.000243
1744	1.7343e+02	-10.5494	-61.223163	0.000466	4.662686	1.579761	0.000187
1745	1.7353e+02	-10.5093	-61.073789	0.000375	3.750422	1.270677	0.000150
1746	1.7363e+02	-10.4821	-60.924415	0.000375	3.750422	1.270677	0.000150
1747	1.7373e+02	-10.4307	-60.718522	0.000517	5.169500	1.751474	0.000207
1748	1.7383e+02	-10.3922	-60.561073	0.000395	3.953147	1.339363	0.000158
1749	1.7393e+02	-10.3457	-60.383439	0.000446	4.459961	1.511076	0.000179
1750	1.7403e+02	-10.3152	-60.262325	0.000304	3.040882	1.030279	0.000122
1751	1.7413e+02	-10.2719	-60.052394	0.000527	5.270863	1.785817	0.000211
1752	1.7422e+02	-10.2334	-59.870723	0.000456	4.561324	1.545418	0.000183
1753	1.7432e+02	-10.1981	-59.733460	0.000345	3.446333	1.167649	0.000138
1754	1.7442e+02	-10.1532	-59.523529	0.000527	5.270863	1.785817	0.000211
1755	1.7452e+02	-10.1195	-59.382230	0.000355	3.547696	1.201992	0.000142
1756	1.7462e+02	-10.0714	-59.204596	0.000446	4.459961	1.511076	0.000179
1757	1.7472e+02	-10.0361	-58.998702	0.000517	5.169500	1.751474	0.000207
1758	1.7482e+02	-10.0040	-58.849328	0.000375	3.750422	1.270677	0.000150
1759	1.7492e+02	-9.9607	-58.687842	0.000405	4.054510	1.373705	0.000162
1760	1.7502e+02	-9.9222	-58.490023	0.000497	4.966775	1.682789	0.000199
1761	1.7512e+02	-9.8789	-58.304314	0.000466	4.662686	1.579761	0.000187
1762	1.7522e+02	-9.8356	-58.130717	0.000436	4.358598	1.476733	0.000174
1763	1.7532e+02	-9.7987	-57.961158	0.000426	4.257235	1.442390	0.000170
1764	1.7542e+02	-9.7585	-57.795635	0.000416	4.155873	1.408048	0.000166
1765	1.7552e+02	-9.7184	-57.634150	0.000405	4.054510	1.373705	0.000162
1766	1.7562e+02	-9.6735	-57.468627	0.000416	4.155873	1.408048	0.000166
1767	1.7572e+02	-9.6446	-57.331365	0.000345	3.446333	1.167649	0.000138
1768	1.7582e+02	-9.6013	-57.072988	0.000649	6.487216	2.197928	0.000260
1769	1.7592e+02	-9.5580	-56.943800	0.000324	3.243608	1.098964	0.000130
1770	1.7602e+02	-9.5147	-56.721757	0.000557	5.574951	1.888845	0.000223
1771	1.7612e+02	-9.4810	-56.572383	0.000375	3.750422	1.270677	0.000150
1772	1.7621e+02	-9.4377	-56.374563	0.000497	4.966775	1.682789	0.000199
1773	1.7631e+02	-9.3992	-56.221152	0.000385	3.851784	1.305020	0.000154
1774	1.7641e+02	-9.3671	-56.019296	0.000507	5.068137	1.717131	0.000203
1775	1.7651e+02	-9.3254	-55.845699	0.000436	4.358598	1.476733	0.000174
1776	1.7661e+02	-9.2805	-55.664028	0.000456	4.561324	1.545418	0.000183
1777	1.7671e+02	-9.2388	-55.482356	0.000456	4.561324	1.545418	0.000183
1778	1.7681e+02	-9.1955	-55.296648	0.000466	4.662686	1.579761	0.000187
1779	1.7691e+02	-9.1618	-55.155348	0.000355	3.547696	1.201992	0.000142
1780	1.7701e+02	-9.1249	-54.973677	0.000456	4.561324	1.545418	0.000183
1781	1.7711e+02	-9.0767	-54.755672	0.000547	5.473588	1.854502	0.000219
1782	1.7721e+02	-9.0270	-54.614372	0.000355	3.547696	1.201992	0.000142
1783	1.7731e+02	-8.9949	-54.424627	0.000476	4.764049	1.614104	0.000191
1784	1.7741e+02	-8.9564	-54.263141	0.000405	4.054510	1.373705	0.000162
1785	1.7751e+02	-8.9195	-54.069359	0.000487	4.865412	1.648446	0.000195
1786	1.7761e+02	-8.8874	-53.891725	0.000446	4.459961	1.511076	0.000179
1787	1.7771e+02	-8.8313	-53.722165	0.000426	4.257235	1.442390	0.000170
1788	1.7781e+02	-8.8024	-53.488011	0.000588	5.879039	1.991872	0.000235
1789	1.7791e+02	-8.7527	-53.338637	0.000375	3.750422	1.270677	0.000150
1790	1.7801e+02	-8.7222	-53.177152	0.000405	4.054510	1.373705	0.000162
1791	1.7810e+02	-8.6789	-52.979332	0.000497	4.966775	1.682789	0.000199
1792	1.7820e+02	-8.6388	-52.797661	0.000456	4.561324	1.545418	0.000183
1793	1.7830e+02	-8.6035	-52.628101	0.000426	4.257235	1.442390	0.000170
1794	1.7840e+02	-8.5570	-52.474690	0.000385	3.851784	1.305020	0.000154
1795	1.7850e+02	-8.5281	-52.256685	0.000547	5.473588	1.854502	0.000219
1796	1.7860e+02	-8.4800	-52.058865	0.000497	4.966775	1.682789	0.000199
1797	1.7870e+02	-8.4367	-51.869120	0.000476	4.764049	1.614104	0.000191
1798	1.7880e+02	-8.4094	-51.699560	0.000426	4.257235	1.442390	0.000170
1799	1.7890e+02	-8.3613	-51.550186	0.000375	3.750422	1.270677	0.000150
1800	1.7900e+02	-8.3244	-51.364478	0.000466	4.662686	1.579761	0.000187
1801	1.7910e+02	-8.2746	-51.154547	0.000527	5.270863	1.785817	0.000211
1802	1.7920e+02	-8.2361	-50.964802	0.000476	4.764049	1.614104	0.000191
1803	1.7930e+02	-8.1992	-50.779093	0.000466	4.662686	1.579761	0.000187
1804	1.7940e+02	-8.1607	-50.645868	0.000334	3.344971	1.133307	0.000134
1805	1.7950e+02	-8.1238	-50.375380	0.000679	6.791304	2.300956	0.000272
1806	1.7960e+02	-8.0725	-50.234080	0.000355	3.547696	1.201992	0.000142
1807	1.7970e+02	-8.0484	-50.028186	0.000517	5.169500	1.751474	0.000207
1808	1.7980e+02	-8.0003	-49.886886	0.000355	3.547696	1.201992	0.000142
1809	1.7990e+02	-7.9682	-49.656770	0.000578	5.777677	1.957530	0.000231
1810	1.8000e+02	-7.9089	-49.458950	0.000497	4.966775	1.682789	0.000199
1811	1.8009e+02	-7.8752	-49.297464	0.000405	4.054510	1.373705	0.000162
1812	1.8019e+02	-7.8399	-49.115793	0.000456	4.561324	1.545418	0.000183
1813	1.8029e+02	-7.8062	-48.946234	0.000426	4.257235	1.442390	0.000170
1814	1.8039e+02	-7.7549	-48.776674	0.000426	4.257235	1.442390	0.000170
1815	1.8049e+02	-7.7164	-48.542520	0.000588	5.879039	1.991872	0.000235
1816	1.8059e+02	-7.6795	-48.360849	0.000456	4.561324	1.545418	0.000183
1817	1.8069e+02	-7.6410	-48.207438	0.000385	3.851784	1.305020	0.000154
1818	1.8079e+02	-7.6057	-48.001544	0.000517	5.169500	1.751474	0.000207
1819	1.8089e+02	-7.5688	-47.783539	0.000547	5.473588	1.854502	0.000219
1820	1.8099e+02	-7.5255	-47.605905	0.000446	4.459961	1.511076	0.000179
1821	1.8109e+02	-7.4773	-47.448456	0.000395	3.953147	1.339363	0.000158
1822	1.8119e+02	-7.4404	-47.234488	0.000537	5.372226	1.820159	0.000215
1823	1.8129e+02	-7.4100	-47.068966	0.000416	4.155873	1.408048	0.000166
1824	1.8139e+02	-7.3666	-46.903443	0.000416	4.155873	1.408048	0.000166
1825	1.8149e+02	-7.3281	-46.661215	0.000608	6.081765	2.060558	0.000243
1826	1.8159e+02	-7.2896	-46.527989	0.000334	3.344971	1.133307	0.000134
1827	1.8169e+02	-7.2463	-46.309984	0.000547	5.473588	1.854502	0.000219
1828	1.8179e+02	-7.2046	-46.136387	0.000436	4.358598	1.476733	0.000174
1829	1.8189e+02	-7.1613	-45.974902	0.000405	4.054510	1.373705	0.000162
1830	1.8199e+02	-7.1068	-45.740748	0.000588	5.879039	1.991872	0.000235
1831	1.8209e+02	-7.0779	-45.563114	0.000446	4.459961	1.511076	0.000179
1832	1.8218e+02	-7.0522	-45.349146	0.000537	5.372226	1.820159	0.000215
1833	1.8228e+02	-7.0025	-45.207846	0.000355	3.547696	1.201992	0.000142
1834	1.8238e+02	-6.9704	-45.010026	0.000497	4.966775	1.682789	0.000199
1835	1.8248e+02	-6.9239	-44.775872	0.000588	5.879039	1.991872	0.000235
1836	1.8258e+02	-6.8870	-44.586127	0.000476	4.764049	1.614104	0.000191
1837	1.8268e+02	-6.8453	-44.384270	0.000507	5.068137	1.717131	0.000203
1838	1.8278e+02	-6.8116	-44.238933	0.000365	3.649059	1.236335	0.000146
1839	1.8288e+02	-6.7650	-43.972482	0.000669	6.689941	2.266613	0.000268
1840	1.8298e+02	-6.7330	-43.823108	0.000375	3.750422	1.270677	0.000150
1841	1.8308e+02	-6.6848	-43.665660	0.000395	3.953147	1.339363	0.000158
1842	1.8318e+02	-6.6463	-43.443618	0.000557	5.574951	1.888845	0.000223
1843	1.8328e+02	-6.5966	-43.257909	0.000466	4.662686	1.579761	0.000187
1844	1.8338e+02	-6.5709	-43.056053	0.000507	5.068137	1.717131	0.000203
1845	1.8348e+02	-6.5260	-42.842084	0.000537	5.372226	1.820159	0.000215
1846	1.8358e+02	-6.4939	-42.664450	0.000446	4.459961	1.511076	0.000179
1847	1.8368e+02	-6.4554	-42.478742	0.000466	4.662686	1.579761	0.000187
1848	1.8378e+02	-6.4089	-42.293034	0.000466	4.662686	1.579761	0.000187
1849	1.8388e+02	-6.3752	-42.095214	0.000497	4.966775	1.682789	0.000199
1850	1.8398e+02	-6.3255	-41.873172	0.000557	5.574951	1.888845	0.000223
1851	1.8407e+02	-6.3030	-41.691501	0.000456	4.561324	1.545418	0.000183
1852	1.8417e+02	-6.2565	-41.525978	0.000416	4.155873	1.408048	0.000166
1853	1.8427e+02	-6.2068	-41.332196	0.000487	4.865412	1.648446	0.000195
1854	1.8437e+02	-6.1747	-41.110153	0.000557	5.574951	1.888845	0.000223
1855	1.8447e+02	-6.1282	-40.900222	0.000527	5.270863	1.785817	0.000211
1856	1.8457e+02	-6.0993	-40.702403	0.000497	4.966775	1.682789	0.000199
1857	1.8467e+02	-6.0496	-40.492471	0.000527	5.270863	1.785817	0.000211
1858	1.8477e+02	-6.0095	-40.330986	0.000405	4.054510	1.373705	0.000162
1859	1.8487e+02	-5.9758	-40.108944	0.000557	5.574951	1.888845	0.000223
1860	1.8497e+02	-5.9341	-39.935347	0.000436	4.358598	1.476733	0.000174
1861	1.8507e+02	-5.8923	-39.705230	0.000578	5.777677	1.957530	0.000231
1862	1.8517e+02	-5.8554	-39.551819	0.000385	3.851784	1.305020	0.000154
1863	1.8527e+02	-5.8218	-39.329776	0.000557	5.574951	1.888845	0.000223
1864	1.8537e+02	-5.7752	-39.164254	0.000416	4.155873	1.408048	0.000166
1865	1.8547e+02	-5.7399	-38.950286	0.000537	5.372226	1.820159	0.000215
1866	1.8557e+02	-5.6998	-38.736317	0.000537	5.372226	1.820159	0.000215
1867	1.8567e+02	-5.6565	-38.518312	0.000547	5.473588	1.854502	0.000219
1868	1.8577e+02	-5.6228	-38.316455	0.000507	5.068137	1.717131	0.000203
1869	1.8587e+02	-5.5779	-38.179193	0.000345	3.446333	1.167649	0.000138
1870	1.8597e+02	-5.5458	-37.924853	0.000639	6.385853	2.163586	0.000256
1871	1.8606e+02	-5.4945	-37.771442	0.000385	3.851784	1.305020	0.000154
1872	1.8616e+02	-5.4560	-37.521140	0.000628	6.284490	2.129243	0.000252
1873	1.8626e+02	-5.4191	-37.367728	0.000385	3.851784	1.305020	0.000154
1874	1.8636e+02	-5.3694	-37.157797	0.000527	5.270863	1.785817	0.000211
1875	1.8646e+02	-5.3341	-36.984200	0.000436	4.358598	1.476733	0.000174
1876	1.8656e+02	-5.2956	-36.746009	0.000598	5.980402	2.026215	0.000239
1877	1.8666e+02	-5.2490	-36.560301	0.000466	4.662686	1.579761	0.000187
1878	1.8676e+02	-5.2138	-36.382667	0.000446	4.459961	1.511076	0.000179
1879	1.8686e+02	-5.1737	-36.164662	0.000547	5.473588	1.854502	0.000219
1880	1.8696e+02	-5.1416	-35.962805	0.000507	5.068137	1.717131	0.000203
1881	1.8706e+02	-5.0934	-35.793245	0.000426	4.257235	1.442390	0.000170
1882	1.8716e+02	-5.0549	-35.567166	0.000568	5.676314	1.923187	0.000227
1883	1.8726e+02	-5.0293	-35.345123	0.000557	5.574951	1.888845	0.000223
1884	1.8736e+02	-4.9763	-35.135192	0.000527	5.270863	1.785817	0.000211
1885	1.8746e+02	-4.9394	-34.937373	0.000497	4.966775	1.682789	0.000199
1886	1.8756e+02	-4.9090	-34.743590	0.000487	4.865412	1.648446	0.000195
1887	1.8766e+02	-4.8608	-34.553845	0.000476	4.764049	1.614104	0.000191
1888	1.8776e+02	-4.8143	-34.323728	0.000578	5.777677	1.957530	0.000231
1889	1.8786e+02	-4.7774	-34.166280	0.000395	3.953147	1.339363	0.000158
1890	1.8796e+02	-4.7373	-33.907903	0.000649	6.487216	2.197928	0.000260
1891	1.8806e+02	-4.7004	-33.722195	0.000466	4.662686	1.579761	0.000187
1892	1.8815e+02	-4.6603	-33.556672	0.000416	4.155873	1.408048	0.000166
1893	1.8825e+02	-4.6170	-33.322518	0.000588	5.879039	1.991872	0.000235
1894	1.8835e+02	-4.5769	-33.100476	0.000557	5.574951	1.888845	0.000223
1895	1.8845e+02	-4.5384	-32.886508	0.000537	5.372226	1.820159	0.000215
1896	1.8855e+02	-4.4983	-32.720985	0.000416	4.155873	1.408048	0.000166
1897	1.8865e+02	-4.4582	-32.519128	0.000507	5.068137	1.717131	0.000203
1898	1.8875e+02	-4.4165	-32.321309	0.000497	4.966775	1.682789	0.000199
1899	1.8885e+02	-4.3860	-32.111378	0.000527	5.270863	1.785817	0.000211
1900	1.8895e+02	-4.3394	-31.861075	0.000628	6.284490	2.129243	0.000252
1901	1.8905e+02	-4.2993	-31.695553	0.000416	4.155873	1.408048	0.000166
1902	1.8915e+02	-4.2544	-31.481584	0.000537	5.372226	1.820159	0.000215
1903	1.8925e+02	-4.2239	-31.247431	0.000588	5.879039	1.991872	0.000235
1904	1.8935e+02	-4.1790	-31.049611	0.000497	4.966775	1.682789	0.000199
1905	1.8945e+02	-4.1405	-30.888126	0.000405	4.054510	1.373705	0.000162
1906	1.8955e+02	-4.0988	-30.670120	0.000547	5.473588	1.854502	0.000219
1907	1.8965e+02	-4.0603	-30.407706	0.000659	6.588579	2.232271	0.000264
1908	1.8975e+02	-4.0202	-30.242184	0.000416	4.155873	1.408048	0.000166
1909	1.8985e+02	-3.9865	-30.032253	0.000527	5.270863	1.785817	0.000211
1910	1.8995e+02	-3.9368	-29.870767	0.000405	4.054510	1.373705	0.000162
1911	1.9004e+02	-3.9063	-29.588168	0.000710	7.095392	2.403984	0.000284
1912	1.9014e+02	-3.8630	-29.410534	0.000446	4.459961	1.511076	0.000179
1913	1.9024e+02	-3.8133	-29.164269	0.000618	6.183128	2.094900	0.000248
1914	1.9034e+02	-3.7876	-28.966449	0.000497	4.966775	1.682789	0.000199
1915	1.9044e+02	-3.7443	-28.768629	0.000497	4.966775	1.682789	0.000199
1916	1.9054e+02	-3.7042	-28.599070	0.000426	4.257235	1.442390	0.000170
1917	1.9064e+02	-3.6673	-28.368953	0.000578	5.777677	1.957530	0.000231
1918	1.9074e+02	-3.6208	-28.207467	0.000405	4.054510	1.373705	0.000162
1919	1.9084e+02	-3.5806	-27.920831	0.000720	7.196755	2.438327	0.000288
1920	1.9094e+02	-3.5438	-27.723011	0.000497	4.966775	1.682789	0.000199
1921	1.9104e+02	-3.4908	-27.496932	0.000568	5.676314	1.923187	0.000227
1922	1.9114e+02	-3.4667	-27.359669	0.000345	3.446333	1.167649	0.000138
1923	1.9124e+02	-3.4202	-27.141664	0.000547	5.473588	1.854502	0.000219
1924	1.9134e+02	-3.3785	-26.915584	0.000568	5.676314	1.923187	0.000227
1925	1.9144e+02	-3.3384	-26.733913	0.000456	4.561324	1.545418	0.000183
1926	1.9154e+02	-3.2935	-26.519945	0.000537	5.372226	1.820159	0.000215
1927	1.9164e+02	-3.2566	-26.297902	0.000557	5.574951	1.888845	0.000223
1928	1.9174e+02	-3.2245	-26.075860	0.000557	5.574951	1.888845	0.000223
1929	1.9184e+02	-3.1860	-25.853817	0.000557	5.574951	1.888845	0.000223
1930	1.9194e+02	-3.1411	-25.651960	0.000507	5.068137	1.717131	0.000203
1931	1.9203e+02	-3.1138	-25.442029	0.000527	5.270863	1.785817	0.000211
1932	1.9213e+02	-3.0673	-25.260358	0.000456	4.561324	1.545418	0.000183
1933	1.9223e+02	-3.0208	-25.074650	0.000466	4.662686	1.579761	0.000187
1934	1.9233e+02	-2.9855	-24.820311	0.000639	6.385853	2.163586	0.000256
1935	1.9243e+02	-2.9438	-24.622491	0.000497	4.966775	1.682789	0.000199
1936	1.9253e+02	-2.9005	-24.408523	0.000537	5.372226	1.820159	0.000215
1937	1.9263e+02	-2.8764	-24.186480	0.000557	5.574951	1.888845	0.000223
1938	1.9273e+02	-2.8170	-23.952326	0.000588	5.879039	1.991872	0.000235
1939	1.9283e+02	-2.7914	-23.786804	0.000416	4.155873	1.408048	0.000166
1940	1.9293e+02	-2.7481	-23.552650	0.000588	5.879039	1.991872	0.000235
1941	1.9303e+02	-2.7079	-23.342719	0.000527	5.270863	1.785817	0.000211
1942	1.9313e+02	-2.6630	-23.132788	0.000527	5.270863	1.785817	0.000211
1943	1.9323e+02	-2.6309	-22.930931	0.000507	5.068137	1.717131	0.000203
1944	1.9333e+02	-2.5828	-22.708889	0.000557	5.574951	1.888845	0.000223
1945	1.9343e+02	-2.5491	-22.507032	0.000507	5.068137	1.717131	0.000203
1946	1.9353e+02	-2.5074	-22.264804	0.000608	6.081765	2.060558	0.000243
1947	1.9363e+02	-2.4721	-22.050835	0.000537	5.372226	1.820159	0.000215
1948	1.9373e+02	-2.4272	-21.865127	0.000466	4.662686	1.579761	0.000187
1949	1.9383e+02	-2.3839	-21.639048	0.000568	5.676314	1.923187	0.000227
1950	1.9393e+02	-2.3422	-21.412968	0.000568	5.676314	1.923187	0.000227
1951	1.9403e+02	-2.3053	-21.178814	0.000588	5.879039	1.991872	0.000235
1952	1.9412e+02	-2.2748	-21.001180	0.000446	4.459961	1.511076	0.000179
1953	1.9422e+02	-2.2299	-20.799323	0.000507	5.068137	1.717131	0.000203
1954	1.9432e+02	-2.1898	-20.565169	0.000588	5.879039	1.991872	0.000235
1955	1.9442e+02	-2.1368	-20.343127	0.000557	5.574951	1.888845	0.000223
1956	1.9452e+02	-2.1048	-20.125122	0.000547	5.473588	1.854502	0.000219
1957	1.9462e+02	-2.0663	-19.951525	0.000436	4.358598	1.476733	0.000174
1958	1.9472e+02	-2.0294	-19.713334	0.000598	5.980402	2.026215	0.000239
1959	1.9482e+02	-1.9828	-19.487254	0.000568	5.676314	1.923187	0.000227
1960	1.9492e+02	-1.9459	-19.281360	0.000517	5.169500	1.751474	0.000207
1961	1.9502e+02	-1.9042	-19.022984	0.000649	6.487216	2.197928	0.000260
1962	1.9512e+02	-1.8705	-18.841312	0.000456	4.561324	1.545418	0.000183
1963	1.9522e+02	-1.8256	-18.631381	0.000527	5.270863	1.785817	0.000211
1964	1.9532e+02	-1.7855	-18.373005	0.000649	6.487216	2.197928	0.000260
1965	1.9542e+02	-1.7534	-18.199408	0.000436	4.358598	1.476733	0.000174
1966	1.9552e+02	-1.7181	-17.981403	0.000547	5.473588	1.854502	0.000219
1967	1.9562e+02	-1.6684	-17.771472	0.000527	5.270863	1.785817	0.000211
1968	1.9572e+02	-1.6299	-17.533281	0.000598	5.980402	2.026215	0.000239
1969	1.9582e+02	-1.5834	-17.339498	0.000487	4.865412	1.648446	0.000195
1970	1.9592e+02	-1.5593	-17.125530	0.000537	5.372226	1.820159	0.000215
1971	1.9601e+02	-1.5128	-16.911562	0.000537	5.372226	1.820159	0.000215
1972	1.9611e+02	-1.4711	-16.681445	0.000578	5.777677	1.957530	0.000231
1973	1.9621e+02	-1.4310	-16.447291	0.000588	5.879039	1.991872	0.000235
1974	1.9631e+02	-1.3941	-16.205063	0.000608	6.081765	2.060558	0.000243
1975	1.9641e+02	-1.3652	-16.051652	0.000385	3.851784	1.305020	0.000154
1976	1.9651e+02	-1.3139	-15.789238	0.000659	6.588579	2.232271	0.000264
1977	1.9661e+02	-1.2689	-15.567195	0.000557	5.574951	1.888845	0.000223
1978	1.9671e+02	-1.2288	-15.357264	0.000527	5.270863	1.785817	0.000211
1979	1.9681e+02	-1.1919	-15.147333	0.000527	5.270863	1.785817	0.000211
1980	1.9691e+02	-1.1502	-14.937402	0.000527	5.270863	1.785817	0.000211
1981	1.9701e+02	-1.1165	-14.687100	0.000628	6.284490	2.129243	0.000252
1982	1.9711e+02	-1.0780	-14.477169	0.000527	5.270863	1.785817	0.000211
1983	1.9721e+02	-1.0331	-14.259163	0.000547	5.473588	1.854502	0.000219
1984	1.9731e+02	-0.9882	-14.012898	0.000618	6.183128	2.094900	0.000248
1985	1.9741e+02	-0.9481	-13.835264	0.000446	4.459961	1.511076	0.000179
1986	1.9751e+02	-0.9192	-13.613222	0.000557	5.574951	1.888845	0.000223
1987	1.9761e+02	-0.8711	-13.399254	0.000537	5.372226	1.820159	0.000215
1988	1.9771e+02	-0.8326	-13.173174	0.000568	5.676314	1.923187	0.000227
1989	1.9781e+02	-0.7925	-12.967280	0.000517	5.169500	1.751474	0.000207
1990	1.9791e+02	-0.7524	-12.741200	0.000568	5.676314	1.923187	0.000227
1991	1.9800e+02	-0.7107	-12.507047	0.000588	5.879039	1.991872	0.000235
1992	1.9810e+02	-0.6738	-12.301153	0.000517	5.169500	1.751474	0.000207
1993	1.9820e+02	-0.6305	-12.075073	0.000568	5.676314	1.923187	0.000227
1994	1.9830e+02	-0.5855	-11.832845	0.000608	6.081765	2.060558	0.000243
1995	1.9840e+02	-0.5567	-11.655211	0.000446	4.459961	1.511076	0.000179
1996	1.9850e+02	-0.5134	-11.368574	0.000720	7.196755	2.438327	0.000288
1997	1.9860e+02	-0.4716	-11.199015	0.000426	4.257235	1.442390	0.000170
1998	1.9870e+02	-0.4380	-10.989083	0.000527	5.270863	1.785817	0.000211
1999	1.9880e+02	-0.3882	-10.750892	0.000598	5.980402	2.026215	0.000239
2000	1.9890e+02	-0.3481	-10.577296	0.000436	4.358598	1.476733	0.000174
2001	1.9900e+02	-0.3064	-10.298733	0.000699	6.994030	2.369641	0.000280
2002	1.9910e+02	-0.2759	-10.084765	0.000537	5.372226	1.820159	0.000215
2003	1.9920e+02	-0.2294	-9.874834	0.000527	5.270863	1.785817	0.000211
2004	1.9930e+02	-0.1925	-9.656829	0.000547	5.473588	1.854502	0.000219
2005	1.9940e+02	-0.1540	-9.422675	0.000588	5.879039	1.991872	0.000235
2006	1.9950e+02	-0.1075	-9.208707	0.000537	5.372226	1.820159	0.000215
2007	1.9960e+02	-0.0770	-8.970516	0.000598	5.980402	2.026215	0.000239
2008	1.9970e+02	-0.0465	-8.748473	0.000557	5.574951	1.888845	0.000223
2009	1.9980e+02	0.0048	-8.510282	0.000557	5.574951	1.888845	0.000239

PMax (uC/cm2):	1.18e+02
Pr (uC/cm2):	3.00e+01
-Pr (uC/cm2):	1.56e+01
PLoss (uC/cm2):	1.55e+01
Vc:	-2.85e+00
-Vc:	-5.46e+00
C (Max-Eff) (nF):	5.90e-01
K (Eff):	2.00e+03
Vert. (+/-Pr) Shift (uC/cm2):	2.28e+01
Horiz. Shift (+/-Vc):	-4.15e+00
Offset (uC/cm2):	2.41e+01

A (Loop Area - uC/cm2·Volts):	-9.98e-01



Hysteresis Version: 5.48.1 - Radiant Technologies, Inc., 1999 - 9/12/24

