»»»»»»»»»»»»»»»»»»»»»»»»»»»»»»»»»»»» Hysteresis ««««««««««««««««««««««««««««««««««««
»»»  Executed Version:	5.48.1
»»»  Vision Version:	5.48.4 (R)
»»»  Vision Compiled:	9/18/24
»»»  Driver Version:	5.47.0
»»»  Windows Version:	Windows 8 or 8.1
»»»  Processor Information:	x86 (AMD or Intel) - 32 Processors
»»»  Tester Name:	PMF21124-494 (100V)
»»»  Tester S/N:	PMF21124-494
»»»  Internal Amp Type:	100V RevK 270k
»»»  Internal Amp S/N:	iAB2-596/K     
»»»  Execution Count:	1
»»»»»»»»»»»»»»»»»»»»»»»»»»»»»»»»»»»»»»»»»»««««««««««««««««««««««««««««««««««««««««««

Stored:	6/18/2025 - 13:16:53
Configured:	06/18/25 09:47:30 AM
Executed:	06/18/25 01:16:21 PM

»»»»»»»»»»»»»»»»»»»»»»»»»»»»»»»»»»» Sample Info ««««««««««««««««««««««««««««««««««««
Sample Name:	
Lot Name:	
Wafer Name:	
Die Row/Column:	0/0
Capacitor Number:	0
Sample Area (cm2):	1.00e-04
Sample Thickness (microns):	3.00e-01

Amplifier:	Internal

»»»»»»»»»»»»»»»»»»»»»»»»»»»»»»»»»»» Tester Info «««««««««««««««««««««««««««««««««««
Tester Name:	PMF21124-494 (100V)
Tester Serial Number:	PMF21124-494
Return Signal Amp. Level:	0.19 [Index: 3]

»»»»»»»»»»»»»»»»»»»»»»»»»»»»»»»» Hysteresis Info ««««««««««««««««««««««««««««««««««
Task Name:	Hyst-554
Volts:	20.00
Field:	666.67 (kV/cm)
DCBias:	0.00
DCField:	0.00 (kV/cm)
Hysteresis Period (ms):	2.00e+02
Preset:	Enabled
Preset Delay (ms):	1.00e+03
Profile:	Standard Bipolar

»»»»»»»»»»»»»»»»»»»»»»»»»»»»»»»»»»»»»» Data «««««««««««««««««««««««««««««««««««««««
Points:	2009

Valid Data

Point	Time (ms)	Drive Voltage	Measured Polarization (uC/cm2)	Capacitance (uF)	Normalized Capacitance (uF/cm2)	Dielectric Constant	Instantaneous Current (mA)
   1	0.0000e+00	0.0080	-1.061767	0.000284	2.837360	0.961324	0.000114
   2	9.9500e-02	0.0321	-0.948727	0.000284	2.837360	0.961324	0.000114
   3	1.9900e-01	0.0722	-0.815501	0.000334	3.344032	1.132989	0.000134
   4	2.9850e-01	0.1075	-0.621719	0.000486	4.864046	1.647983	0.000195
   5	3.9800e-01	0.1588	-0.411788	0.000527	5.269383	1.785315	0.000211
   6	4.9750e-01	0.1989	-0.238191	0.000436	4.357374	1.476318	0.000174
   7	5.9700e-01	0.2310	-0.068631	0.000426	4.256040	1.441985	0.000170
   8	6.9650e-01	0.2727	0.129188	0.000497	4.965380	1.682316	0.000199
   9	7.9600e-01	0.3128	0.290674	0.000405	4.053372	1.373319	0.000162
  10	8.9550e-01	0.3513	0.512716	0.000557	5.573386	1.888314	0.000223
  11	9.9500e-01	0.3898	0.682276	0.000426	4.256040	1.441985	0.000170
  12	1.0945e+00	0.4331	0.863947	0.000456	4.560043	1.544984	0.000183
  13	1.1940e+00	0.4732	1.057730	0.000486	4.864046	1.647983	0.000195
  14	1.2935e+00	0.5085	1.211141	0.000385	3.850703	1.304654	0.000154
  15	1.3930e+00	0.5519	1.408960	0.000497	4.965380	1.682316	0.000199
  16	1.4925e+00	0.5855	1.610817	0.000507	5.066715	1.716649	0.000203
  17	1.5920e+00	0.6224	1.760191	0.000375	3.749369	1.270321	0.000150
  18	1.6915e+00	0.6722	1.994345	0.000588	5.877389	1.991313	0.000235
  19	1.7910e+00	0.7107	2.155830	0.000405	4.053372	1.373319	0.000162
  20	1.8905e+00	0.7508	2.353650	0.000497	4.965380	1.682316	0.000199
  21	1.9900e+00	0.7861	2.507061	0.000385	3.850703	1.304654	0.000154
  22	2.0895e+00	0.8390	2.716992	0.000527	5.269383	1.785315	0.000211
  23	2.1890e+00	0.8647	2.910775	0.000486	4.864046	1.647983	0.000195
  24	2.2885e+00	0.9064	3.092446	0.000456	4.560043	1.544984	0.000183
  25	2.3880e+00	0.9529	3.253931	0.000405	4.053372	1.373319	0.000162
  26	2.4875e+00	0.9866	3.439640	0.000466	4.661377	1.579317	0.000187
  27	2.5870e+00	1.0347	3.637459	0.000497	4.965380	1.682316	0.000199
  28	2.6865e+00	1.0684	3.815093	0.000446	4.458709	1.510651	0.000179
  29	2.7860e+00	1.1021	4.033099	0.000547	5.472052	1.853981	0.000219
  30	2.8855e+00	1.1486	4.247067	0.000537	5.370717	1.819648	0.000215
  31	2.9850e+00	1.1919	4.440849	0.000486	4.864046	1.647983	0.000195
  32	3.0845e+00	1.2208	4.638669	0.000497	4.965380	1.682316	0.000199
  33	3.1840e+00	1.2609	4.820340	0.000456	4.560043	1.544984	0.000183
  34	3.2835e+00	1.3026	5.010085	0.000476	4.762712	1.613650	0.000191
  35	3.3830e+00	1.3556	5.183682	0.000436	4.357374	1.476318	0.000174
  36	3.4825e+00	1.3812	5.369391	0.000466	4.661377	1.579317	0.000187
  37	3.5820e+00	1.4230	5.591433	0.000557	5.573386	1.888314	0.000223
  38	3.6815e+00	1.4647	5.748881	0.000395	3.952037	1.338986	0.000158
  39	3.7810e+00	1.5176	6.007258	0.000649	6.485395	2.197311	0.000260
  40	3.8805e+00	1.5401	6.172781	0.000415	4.154706	1.407652	0.000166
  41	3.9800e+00	1.5802	6.338303	0.000415	4.154706	1.407652	0.000166
  42	4.0795e+00	1.6219	6.556308	0.000547	5.472052	1.853981	0.000219
  43	4.1790e+00	1.6716	6.758165	0.000507	5.066715	1.716649	0.000203
  44	4.2785e+00	1.7021	6.907539	0.000375	3.749369	1.270321	0.000150
  45	4.3780e+00	1.7438	7.165916	0.000649	6.485395	2.197311	0.000260
  46	4.4775e+00	1.7919	7.351624	0.000466	4.661377	1.579317	0.000187
  47	4.5770e+00	1.8272	7.517147	0.000415	4.154706	1.407652	0.000166
  48	4.6765e+00	1.8625	7.723041	0.000517	5.168049	1.750982	0.000207
  49	4.7760e+00	1.9122	7.900675	0.000446	4.458709	1.510651	0.000179
  50	4.8755e+00	1.9459	8.130791	0.000578	5.776055	1.956980	0.000231
  51	4.9750e+00	1.9892	8.312462	0.000456	4.560043	1.544984	0.000183
  52	5.0745e+00	2.0294	8.530468	0.000547	5.472052	1.853981	0.000219
  53	5.1740e+00	2.0646	8.712139	0.000456	4.560043	1.544984	0.000183
  54	5.2735e+00	2.1064	8.893810	0.000456	4.560043	1.544984	0.000183
  55	5.3730e+00	2.1352	9.039147	0.000365	3.648034	1.235988	0.000146
  56	5.4725e+00	2.1802	9.293486	0.000638	6.384060	2.162978	0.000256
  57	5.5720e+00	2.2283	9.511492	0.000547	5.472052	1.853981	0.000219
  58	5.6715e+00	2.2700	9.697200	0.000466	4.661377	1.579317	0.000187
  59	5.7710e+00	2.3005	9.907131	0.000527	5.269383	1.785315	0.000211
  60	5.8705e+00	2.3454	10.084765	0.000446	4.458709	1.510651	0.000179
  61	5.9700e+00	2.3839	10.298733	0.000537	5.370717	1.819648	0.000215
  62	6.0695e+00	2.4240	10.528850	0.000578	5.776055	1.956980	0.000231
  63	6.1690e+00	2.4721	10.698410	0.000426	4.256040	1.441985	0.000170
  64	6.2685e+00	2.4994	10.908341	0.000527	5.269383	1.785315	0.000211
  65	6.3680e+00	2.5459	11.065789	0.000395	3.952037	1.338986	0.000158
  66	6.4675e+00	2.5828	11.308017	0.000608	6.080057	2.059979	0.000243
  67	6.5670e+00	2.6261	11.461428	0.000385	3.850703	1.304654	0.000154
  68	6.6665e+00	2.6646	11.667322	0.000517	5.168049	1.750982	0.000207
  69	6.7660e+00	2.7047	11.865142	0.000497	4.965380	1.682316	0.000199
  70	6.8655e+00	2.7320	12.091222	0.000567	5.674720	1.922647	0.000227
  71	6.9650e+00	2.7849	12.276930	0.000466	4.661377	1.579317	0.000187
  72	7.0645e+00	2.8234	12.490898	0.000537	5.370717	1.819648	0.000215
  73	7.1640e+00	2.8587	12.696792	0.000517	5.168049	1.750982	0.000207
  74	7.2635e+00	2.9085	12.834055	0.000345	3.445366	1.167322	0.000138
  75	7.3630e+00	2.9438	13.080320	0.000618	6.181392	2.094312	0.000248
  76	7.4625e+00	2.9839	13.261991	0.000456	4.560043	1.544984	0.000183
  77	7.5620e+00	3.0160	13.516330	0.000638	6.384060	2.162978	0.000256
  78	7.6615e+00	3.0593	13.653593	0.000345	3.445366	1.167322	0.000138
  79	7.7610e+00	3.0962	13.887747	0.000588	5.877389	1.991313	0.000235
  80	7.8605e+00	3.1347	14.093641	0.000517	5.168049	1.750982	0.000207
  81	7.9600e+00	3.1796	14.259163	0.000415	4.154706	1.407652	0.000166
  82	8.0595e+00	3.2213	14.456983	0.000497	4.965380	1.682316	0.000199
  83	8.1590e+00	3.2550	14.679026	0.000557	5.573386	1.888314	0.000223
  84	8.2585e+00	3.2983	14.876845	0.000497	4.965380	1.682316	0.000199
  85	8.3580e+00	3.3352	15.123110	0.000618	6.181392	2.094312	0.000248
  86	8.4575e+00	3.3833	15.308819	0.000466	4.661377	1.579317	0.000187
  87	8.5570e+00	3.4186	15.470304	0.000405	4.053372	1.373319	0.000162
  88	8.6565e+00	3.4603	15.676198	0.000517	5.168049	1.750982	0.000207
  89	8.7560e+00	3.5085	15.906315	0.000578	5.776055	1.956980	0.000231
  90	8.8555e+00	3.5373	16.112209	0.000517	5.168049	1.750982	0.000207
  91	8.9550e+00	3.5823	16.314066	0.000507	5.066715	1.716649	0.000203
  92	9.0545e+00	3.6240	16.479588	0.000415	4.154706	1.407652	0.000166
  93	9.1540e+00	3.6593	16.709705	0.000578	5.776055	1.956980	0.000231
  94	9.2535e+00	3.7026	16.911562	0.000507	5.066715	1.716649	0.000203
  95	9.3530e+00	3.7347	17.133604	0.000557	5.573386	1.888314	0.000223
  96	9.4525e+00	3.7812	17.351609	0.000547	5.472052	1.853981	0.000219
  97	9.5520e+00	3.8181	17.541355	0.000476	4.762712	1.613650	0.000191
  98	9.6515e+00	3.8598	17.759360	0.000547	5.472052	1.853981	0.000219
  99	9.7510e+00	3.8871	17.965254	0.000517	5.168049	1.750982	0.000207
 100	9.8505e+00	3.9320	18.150962	0.000466	4.661377	1.579317	0.000187
 101	9.9500e+00	3.9849	18.324559	0.000436	4.357374	1.476318	0.000174
 102	1.0050e+01	4.0170	18.570824	0.000618	6.181392	2.094312	0.000248
 103	1.0149e+01	4.0571	18.792867	0.000557	5.573386	1.888314	0.000223
 104	1.0248e+01	4.0988	18.970501	0.000446	4.458709	1.510651	0.000179
 105	1.0348e+01	4.1325	19.200618	0.000578	5.776055	1.956980	0.000231
 106	1.0447e+01	4.1806	19.414586	0.000537	5.370717	1.819648	0.000215
 107	1.0547e+01	4.2159	19.604331	0.000476	4.762712	1.613650	0.000191
 108	1.0646e+01	4.2592	19.822336	0.000547	5.472052	1.853981	0.000219
 109	1.0746e+01	4.2977	20.048416	0.000567	5.674720	1.922647	0.000227
 110	1.0845e+01	4.3330	20.274496	0.000567	5.674720	1.922647	0.000227
 111	1.0945e+01	4.3715	20.444055	0.000426	4.256040	1.441985	0.000170
 112	1.1044e+01	4.4229	20.653986	0.000527	5.269383	1.785315	0.000211
 113	1.1144e+01	4.4598	20.851806	0.000497	4.965380	1.682316	0.000199
 114	1.1243e+01	4.5047	21.081923	0.000578	5.776055	1.956980	0.000231
 115	1.1343e+01	4.5320	21.271668	0.000476	4.762712	1.613650	0.000191
 116	1.1443e+01	4.5673	21.493711	0.000557	5.573386	1.888314	0.000223
 117	1.1542e+01	4.6154	21.683456	0.000476	4.762712	1.613650	0.000191
 118	1.1642e+01	4.6507	21.909536	0.000567	5.674720	1.922647	0.000227
 119	1.1741e+01	4.6956	22.107355	0.000497	4.965380	1.682316	0.000199
 120	1.1841e+01	4.7293	22.313249	0.000517	5.168049	1.750982	0.000207
 121	1.1940e+01	4.7662	22.507032	0.000486	4.864046	1.647983	0.000195
 122	1.2040e+01	4.8191	22.700814	0.000486	4.864046	1.647983	0.000195
 123	1.2139e+01	4.8528	22.959191	0.000649	6.485395	2.197311	0.000260
 124	1.2239e+01	4.8977	23.140862	0.000456	4.560043	1.544984	0.000183
 125	1.2338e+01	4.9250	23.342719	0.000507	5.066715	1.716649	0.000203
 126	1.2438e+01	4.9795	23.552650	0.000527	5.269383	1.785315	0.000211
 127	1.2537e+01	5.0068	23.766618	0.000537	5.370717	1.819648	0.000215
 128	1.2636e+01	5.0453	23.980586	0.000537	5.370717	1.819648	0.000215
 129	1.2736e+01	5.0918	24.178406	0.000497	4.965380	1.682316	0.000199
 130	1.2835e+01	5.1368	24.404486	0.000567	5.674720	1.922647	0.000227
 131	1.2935e+01	5.1720	24.590194	0.000466	4.661377	1.579317	0.000187
 132	1.3034e+01	5.2170	24.824348	0.000588	5.877389	1.991313	0.000235
 133	1.3134e+01	5.2490	25.058502	0.000588	5.877389	1.991313	0.000235
 134	1.3233e+01	5.2956	25.244210	0.000466	4.661377	1.579317	0.000187
 135	1.3333e+01	5.3261	25.442029	0.000497	4.965380	1.682316	0.000199
 136	1.3432e+01	5.3710	25.672146	0.000578	5.776055	1.956980	0.000231
 137	1.3532e+01	5.3966	25.869966	0.000497	4.965380	1.682316	0.000199
 138	1.3632e+01	5.4480	26.079897	0.000527	5.269383	1.785315	0.000211
 139	1.3731e+01	5.4945	26.305976	0.000567	5.674720	1.922647	0.000227
 140	1.3831e+01	5.5282	26.487648	0.000456	4.560043	1.544984	0.000183
 141	1.3930e+01	5.5651	26.681430	0.000486	4.864046	1.647983	0.000195
 142	1.4030e+01	5.6052	26.903473	0.000557	5.573386	1.888314	0.000223
 143	1.4129e+01	5.6453	27.137626	0.000588	5.877389	1.991313	0.000235
 144	1.4229e+01	5.6854	27.331409	0.000486	4.864046	1.647983	0.000195
 145	1.4328e+01	5.7271	27.537303	0.000517	5.168049	1.750982	0.000207
 146	1.4428e+01	5.7784	27.739160	0.000507	5.066715	1.716649	0.000203
 147	1.4527e+01	5.8105	27.953128	0.000537	5.370717	1.819648	0.000215
 148	1.4627e+01	5.8522	28.175170	0.000557	5.573386	1.888314	0.000223
 149	1.4726e+01	5.8907	28.368953	0.000486	4.864046	1.647983	0.000195
 150	1.4825e+01	5.9389	28.514290	0.000365	3.648034	1.235988	0.000146
 151	1.4925e+01	5.9661	28.800926	0.000719	7.194735	2.437642	0.000288
 152	1.5024e+01	6.0095	29.018932	0.000547	5.472052	1.853981	0.000219
 153	1.5124e+01	6.0544	29.192529	0.000436	4.357374	1.476318	0.000174
 154	1.5223e+01	6.0768	29.370162	0.000446	4.458709	1.510651	0.000179
 155	1.5323e+01	6.1346	29.644688	0.000689	6.890732	2.334643	0.000276
 156	1.5422e+01	6.1635	29.810210	0.000415	4.154706	1.407652	0.000166
 157	1.5522e+01	6.2052	30.032253	0.000557	5.573386	1.888314	0.000223
 158	1.5621e+01	6.2485	30.242184	0.000527	5.269383	1.785315	0.000211
 159	1.5721e+01	6.2966	30.444041	0.000507	5.066715	1.716649	0.000203
 160	1.5820e+01	6.3255	30.698380	0.000638	6.384060	2.162978	0.000256
 161	1.5920e+01	6.3688	30.896200	0.000497	4.965380	1.682316	0.000199
 162	1.6020e+01	6.4073	31.122279	0.000567	5.674720	1.922647	0.000227
 163	1.6119e+01	6.4458	31.312025	0.000476	4.762712	1.613650	0.000191
 164	1.6218e+01	6.4843	31.501770	0.000476	4.762712	1.613650	0.000191
 165	1.6318e+01	6.5228	31.739961	0.000598	5.978723	2.025646	0.000239
 166	1.6418e+01	6.5758	31.897409	0.000395	3.952037	1.338986	0.000158
 167	1.6517e+01	6.5998	32.143675	0.000618	6.181392	2.094312	0.000248
 168	1.6616e+01	6.6431	32.349569	0.000517	5.168049	1.750982	0.000207
 169	1.6716e+01	6.6784	32.543351	0.000486	4.864046	1.647983	0.000195
 170	1.6816e+01	6.7314	32.797691	0.000638	6.384060	2.162978	0.000256
 171	1.6915e+01	6.7650	32.995510	0.000497	4.965380	1.682316	0.000199
 172	1.7015e+01	6.8100	33.177181	0.000456	4.560043	1.544984	0.000183
 173	1.7114e+01	6.8388	33.415373	0.000598	5.978723	2.025646	0.000239
 174	1.7213e+01	6.8918	33.593006	0.000446	4.458709	1.510651	0.000179
 175	1.7313e+01	6.9239	33.819086	0.000567	5.674720	1.922647	0.000227
 176	1.7413e+01	6.9608	34.065351	0.000618	6.181392	2.094312	0.000248
 177	1.7512e+01	7.0137	34.234911	0.000426	4.256040	1.441985	0.000170
 178	1.7611e+01	7.0410	34.440805	0.000517	5.168049	1.750982	0.000207
 179	1.7711e+01	7.0859	34.626513	0.000466	4.661377	1.579317	0.000187
 180	1.7811e+01	7.1212	34.816259	0.000476	4.762712	1.613650	0.000191
 181	1.7910e+01	7.1565	35.098858	0.000709	7.093400	2.403309	0.000284
 182	1.8009e+01	7.2174	35.268418	0.000426	4.256040	1.441985	0.000170
 183	1.8109e+01	7.2415	35.474312	0.000517	5.168049	1.750982	0.000207
 184	1.8209e+01	7.2848	35.700391	0.000567	5.674720	1.922647	0.000227
 185	1.8308e+01	7.3217	35.878025	0.000446	4.458709	1.510651	0.000179
 186	1.8407e+01	7.3602	36.091993	0.000537	5.370717	1.819648	0.000215
 187	1.8507e+01	7.4035	36.318073	0.000567	5.674720	1.922647	0.000227
 188	1.8607e+01	7.4356	36.491670	0.000436	4.357374	1.476318	0.000174
 189	1.8706e+01	7.4902	36.685452	0.000486	4.864046	1.647983	0.000195
 190	1.8805e+01	7.5222	36.895384	0.000527	5.269383	1.785315	0.000211
 191	1.8905e+01	7.5575	37.125500	0.000578	5.776055	1.956980	0.000231
 192	1.9005e+01	7.6025	37.371766	0.000618	6.181392	2.094312	0.000248
 193	1.9104e+01	7.6345	37.525177	0.000385	3.850703	1.304654	0.000154
 194	1.9203e+01	7.6746	37.787591	0.000659	6.586729	2.231644	0.000264
 195	1.9303e+01	7.7132	37.977336	0.000476	4.762712	1.613650	0.000191
 196	1.9402e+01	7.7597	38.163044	0.000466	4.661377	1.579317	0.000187
 197	1.9502e+01	7.8078	38.401235	0.000598	5.978723	2.025646	0.000239
 198	1.9602e+01	7.8463	38.627315	0.000567	5.674720	1.922647	0.000227
 199	1.9701e+01	7.8832	38.813023	0.000466	4.661377	1.579317	0.000187
 200	1.9800e+01	7.9281	39.026991	0.000537	5.370717	1.819648	0.000215
 201	1.9900e+01	7.9586	39.236922	0.000527	5.269383	1.785315	0.000211
 202	2.0000e+01	8.0131	39.458965	0.000557	5.573386	1.888314	0.000223
 203	2.0099e+01	8.0388	39.600264	0.000355	3.546700	1.201655	0.000142
 204	2.0198e+01	8.0757	39.862678	0.000659	6.586729	2.231644	0.000264
 205	2.0298e+01	8.1270	40.076646	0.000537	5.370717	1.819648	0.000215
 206	2.0398e+01	8.1655	40.254280	0.000446	4.458709	1.510651	0.000179
 207	2.0497e+01	8.1960	40.488434	0.000588	5.877389	1.991313	0.000235
 208	2.0596e+01	8.2442	40.686254	0.000497	4.965380	1.682316	0.000199
 209	2.0696e+01	8.2794	40.888111	0.000507	5.066715	1.716649	0.000203
 210	2.0796e+01	8.3212	41.102079	0.000537	5.370717	1.819648	0.000215
 211	2.0895e+01	8.3564	41.320084	0.000547	5.472052	1.853981	0.000219
 212	2.0994e+01	8.4014	41.489644	0.000426	4.256040	1.441985	0.000170
 213	2.1094e+01	8.4383	41.695538	0.000517	5.168049	1.750982	0.000207
 214	2.1194e+01	8.4896	41.937766	0.000608	6.080057	2.059979	0.000243
 215	2.1293e+01	8.5105	42.127511	0.000476	4.762712	1.613650	0.000191
 216	2.1392e+01	8.5522	42.377814	0.000628	6.282726	2.128645	0.000252
 217	2.1492e+01	8.5987	42.547374	0.000426	4.256040	1.441985	0.000170
 218	2.1591e+01	8.6404	42.761342	0.000537	5.370717	1.819648	0.000215
 219	2.1691e+01	8.6789	42.995496	0.000588	5.877389	1.991313	0.000235
 220	2.1791e+01	8.7078	43.173130	0.000446	4.458709	1.510651	0.000179
 221	2.1890e+01	8.7575	43.358838	0.000466	4.661377	1.579317	0.000187
 222	2.1989e+01	8.8137	43.544546	0.000466	4.661377	1.579317	0.000187
 223	2.2089e+01	8.8361	43.819071	0.000689	6.890732	2.334643	0.000276
 224	2.2189e+01	8.8778	44.033039	0.000537	5.370717	1.819648	0.000215
 225	2.2288e+01	8.9227	44.234896	0.000507	5.066715	1.716649	0.000203
 226	2.2387e+01	8.9500	44.432716	0.000497	4.965380	1.682316	0.000199
 227	2.2487e+01	8.9965	44.618424	0.000466	4.661377	1.579317	0.000187
 228	2.2587e+01	9.0431	44.860652	0.000608	6.080057	2.059979	0.000243
 229	2.2686e+01	9.0800	45.022138	0.000405	4.053372	1.373319	0.000162
 230	2.2785e+01	9.1136	45.284552	0.000659	6.586729	2.231644	0.000264
 231	2.2885e+01	9.1554	45.458148	0.000436	4.357374	1.476318	0.000174
 232	2.2985e+01	9.1971	45.664042	0.000517	5.168049	1.750982	0.000207
 233	2.3084e+01	9.2243	45.853788	0.000476	4.762712	1.613650	0.000191
 234	2.3183e+01	9.2741	46.112164	0.000649	6.485395	2.197311	0.000260
 235	2.3283e+01	9.3062	46.314021	0.000507	5.066715	1.716649	0.000203
 236	2.3383e+01	9.3575	46.523952	0.000527	5.269383	1.785315	0.000211
 237	2.3482e+01	9.3976	46.705623	0.000456	4.560043	1.544984	0.000183
 238	2.3581e+01	9.4393	46.907480	0.000507	5.066715	1.716649	0.000203
 239	2.3681e+01	9.4746	47.133560	0.000567	5.674720	1.922647	0.000227
 240	2.3780e+01	9.5083	47.339454	0.000517	5.168049	1.750982	0.000207
 241	2.3880e+01	9.5548	47.513051	0.000436	4.357374	1.476318	0.000174
 242	2.3980e+01	9.5885	47.747204	0.000588	5.877389	1.991313	0.000235
 243	2.4079e+01	9.6446	47.993470	0.000618	6.181392	2.094312	0.000248
 244	2.4178e+01	9.6703	48.150918	0.000395	3.952037	1.338986	0.000158
 245	2.4278e+01	9.7088	48.385072	0.000588	5.877389	1.991313	0.000235
 246	2.4378e+01	9.7585	48.570780	0.000466	4.661377	1.579317	0.000187
 247	2.4477e+01	9.7954	48.760525	0.000476	4.762712	1.613650	0.000191
 248	2.4576e+01	9.8436	48.966419	0.000517	5.168049	1.750982	0.000207
 249	2.4676e+01	9.8724	49.192499	0.000567	5.674720	1.922647	0.000227
 250	2.4776e+01	9.9142	49.390319	0.000497	4.965380	1.682316	0.000199
 251	2.4875e+01	9.9559	49.584101	0.000486	4.864046	1.647983	0.000195
 252	2.4974e+01	9.9928	49.777884	0.000486	4.864046	1.647983	0.000195
 253	2.5074e+01	10.0377	50.003963	0.000567	5.674720	1.922647	0.000227
 254	2.5174e+01	10.0698	50.189671	0.000466	4.661377	1.579317	0.000187
 255	2.5273e+01	10.1147	50.419788	0.000578	5.776055	1.956980	0.000231
 256	2.5372e+01	10.1532	50.629719	0.000527	5.269383	1.785315	0.000211
 257	2.5472e+01	10.1933	50.851762	0.000557	5.573386	1.888314	0.000223
 258	2.5572e+01	10.2270	51.013247	0.000405	4.053372	1.373319	0.000162
 259	2.5671e+01	10.2735	51.251438	0.000598	5.978723	2.025646	0.000239
 260	2.5770e+01	10.3024	51.433109	0.000456	4.560043	1.544984	0.000183
 261	2.5870e+01	10.3441	51.671300	0.000598	5.978723	2.025646	0.000239
 262	2.5970e+01	10.4018	51.897380	0.000567	5.674720	1.922647	0.000227
 263	2.6069e+01	10.4275	52.066940	0.000426	4.256040	1.441985	0.000170
 264	2.6169e+01	10.4708	52.284945	0.000547	5.472052	1.853981	0.000219
 265	2.6268e+01	10.5206	52.511025	0.000567	5.674720	1.922647	0.000227
 266	2.6367e+01	10.5542	52.700770	0.000476	4.762712	1.613650	0.000191
 267	2.6467e+01	10.5879	52.926850	0.000567	5.674720	1.922647	0.000227
 268	2.6567e+01	10.6329	53.112558	0.000466	4.661377	1.579317	0.000187
 269	2.6666e+01	10.6714	53.322489	0.000527	5.269383	1.785315	0.000211
 270	2.6765e+01	10.7099	53.532420	0.000527	5.269383	1.785315	0.000211
 271	2.6865e+01	10.7532	53.701980	0.000426	4.256040	1.441985	0.000170
 272	2.6965e+01	10.7853	53.952282	0.000628	6.282726	2.128645	0.000252
 273	2.7064e+01	10.8238	54.129916	0.000446	4.458709	1.510651	0.000179
 274	2.7163e+01	10.8719	54.368107	0.000598	5.978723	2.025646	0.000239
 275	2.7263e+01	10.9088	54.578038	0.000527	5.269383	1.785315	0.000211
 276	2.7363e+01	10.9505	54.747598	0.000426	4.256040	1.441985	0.000170
 277	2.7462e+01	10.9954	55.005974	0.000649	6.485395	2.197311	0.000260
 278	2.7561e+01	11.0307	55.207831	0.000507	5.066715	1.716649	0.000203
 279	2.7661e+01	11.0692	55.389502	0.000456	4.560043	1.544984	0.000183
 280	2.7761e+01	11.1029	55.591359	0.000507	5.066715	1.716649	0.000203
 281	2.7860e+01	11.1446	55.785142	0.000486	4.864046	1.647983	0.000195
 282	2.7959e+01	11.1831	56.031407	0.000618	6.181392	2.094312	0.000248
 283	2.8059e+01	11.2296	56.217115	0.000466	4.661377	1.579317	0.000187
 284	2.8159e+01	11.2633	56.423009	0.000517	5.168049	1.750982	0.000207
 285	2.8258e+01	11.2986	56.632940	0.000527	5.269383	1.785315	0.000211
 286	2.8358e+01	11.3483	56.859020	0.000567	5.674720	1.922647	0.000227
 287	2.8457e+01	11.3884	57.032617	0.000436	4.357374	1.476318	0.000174
 288	2.8556e+01	11.4253	57.246585	0.000537	5.370717	1.819648	0.000215
 289	2.8656e+01	11.4606	57.428256	0.000456	4.560043	1.544984	0.000183
 290	2.8756e+01	11.5152	57.670484	0.000608	6.080057	2.059979	0.000243
 291	2.8855e+01	11.5521	57.860229	0.000476	4.762712	1.613650	0.000191
 292	2.8954e+01	11.6002	58.025752	0.000415	4.154706	1.407652	0.000166
 293	2.9054e+01	11.6227	58.272017	0.000618	6.181392	2.094312	0.000248
 294	2.9154e+01	11.6708	58.481948	0.000527	5.269383	1.785315	0.000211
 295	2.9253e+01	11.7189	58.675731	0.000486	4.864046	1.647983	0.000195
 296	2.9352e+01	11.7510	58.889699	0.000537	5.370717	1.819648	0.000215
 297	2.9452e+01	11.7911	59.059259	0.000426	4.256040	1.441985	0.000170
 298	2.9552e+01	11.8264	59.293413	0.000588	5.877389	1.991313	0.000235
 299	2.9651e+01	11.8697	59.462972	0.000426	4.256040	1.441985	0.000170
 300	2.9750e+01	11.9082	59.676940	0.000537	5.370717	1.819648	0.000215
 301	2.9850e+01	11.9419	59.866686	0.000476	4.762712	1.613650	0.000191
 302	2.9950e+01	11.9900	60.121025	0.000638	6.384060	2.162978	0.000256
 303	3.0049e+01	12.0221	60.318845	0.000497	4.965380	1.682316	0.000199
 304	3.0148e+01	12.0670	60.540888	0.000557	5.573386	1.888314	0.000223
 305	3.0248e+01	12.1023	60.710447	0.000426	4.256040	1.441985	0.000170
 306	3.0348e+01	12.1473	60.928453	0.000547	5.472052	1.853981	0.000219
 307	3.0447e+01	12.1777	61.134346	0.000517	5.168049	1.750982	0.000207
 308	3.0547e+01	12.2259	61.324092	0.000476	4.762712	1.613650	0.000191
 309	3.0646e+01	12.2692	61.538060	0.000537	5.370717	1.819648	0.000215
 310	3.0745e+01	12.3077	61.723768	0.000466	4.661377	1.579317	0.000187
 311	3.0845e+01	12.3382	61.921588	0.000497	4.965380	1.682316	0.000199
 312	3.0945e+01	12.3927	62.111333	0.000476	4.762712	1.613650	0.000191
 313	3.1044e+01	12.4184	62.313190	0.000507	5.066715	1.716649	0.000203
 314	3.1143e+01	12.4665	62.519084	0.000517	5.168049	1.750982	0.000207
 315	3.1243e+01	12.5002	62.704792	0.000466	4.661377	1.579317	0.000187
 316	3.1343e+01	12.5515	62.951058	0.000618	6.181392	2.094312	0.000248
 317	3.1442e+01	12.5884	63.156951	0.000517	5.168049	1.750982	0.000207
 318	3.1541e+01	12.6189	63.354771	0.000497	4.965380	1.682316	0.000199
 319	3.1641e+01	12.6622	63.528368	0.000436	4.357374	1.476318	0.000174
 320	3.1741e+01	12.6959	63.770596	0.000608	6.080057	2.059979	0.000243
 321	3.1840e+01	12.7392	63.932082	0.000405	4.053372	1.373319	0.000162
 322	3.1939e+01	12.7873	64.166235	0.000588	5.877389	1.991313	0.000235
 323	3.2039e+01	12.8194	64.376166	0.000527	5.269383	1.785315	0.000211
 324	3.2139e+01	12.8724	64.557838	0.000456	4.560043	1.544984	0.000183
 325	3.2238e+01	12.9061	64.751620	0.000486	4.864046	1.647983	0.000195
 326	3.2337e+01	12.9430	64.973663	0.000557	5.573386	1.888314	0.000223
 327	3.2437e+01	12.9911	65.167445	0.000486	4.864046	1.647983	0.000195
 328	3.2536e+01	13.0183	65.316819	0.000375	3.749369	1.270321	0.000150
 329	3.2636e+01	13.0569	65.583270	0.000669	6.688063	2.265977	0.000268
 330	3.2736e+01	13.0986	65.756867	0.000436	4.357374	1.476318	0.000174
 331	3.2835e+01	13.1387	65.991021	0.000588	5.877389	1.991313	0.000235
 332	3.2934e+01	13.1772	66.192878	0.000507	5.066715	1.716649	0.000203
 333	3.3034e+01	13.2076	66.350326	0.000395	3.952037	1.338986	0.000158
 334	3.3133e+01	13.2558	66.584480	0.000588	5.877389	1.991313	0.000235
 335	3.3233e+01	13.3007	66.802485	0.000547	5.472052	1.853981	0.000219
 336	3.3333e+01	13.3328	66.959933	0.000395	3.952037	1.338986	0.000158
 337	3.3432e+01	13.3857	67.177939	0.000547	5.472052	1.853981	0.000219
 338	3.3532e+01	13.4242	67.408055	0.000578	5.776055	1.956980	0.000231
 339	3.3631e+01	13.4563	67.581652	0.000436	4.357374	1.476318	0.000174
 340	3.3730e+01	13.5012	67.787546	0.000517	5.168049	1.750982	0.000207
 341	3.3830e+01	13.5445	68.009589	0.000557	5.573386	1.888314	0.000223
 342	3.3929e+01	13.5750	68.215483	0.000517	5.168049	1.750982	0.000207
 343	3.4029e+01	13.6119	68.393117	0.000446	4.458709	1.510651	0.000179
 344	3.4129e+01	13.6600	68.615159	0.000557	5.573386	1.888314	0.000223
 345	3.4228e+01	13.6937	68.768570	0.000385	3.850703	1.304654	0.000154
 346	3.4328e+01	13.7419	68.982538	0.000537	5.370717	1.819648	0.000215
 347	3.4427e+01	13.7804	69.212655	0.000578	5.776055	1.956980	0.000231
 348	3.4526e+01	13.8189	69.378178	0.000415	4.154706	1.407652	0.000166
 349	3.4626e+01	13.8542	69.592146	0.000537	5.370717	1.819648	0.000215
 350	3.4725e+01	13.9023	69.769780	0.000446	4.458709	1.510651	0.000179
 351	3.4825e+01	13.9440	69.975674	0.000517	5.168049	1.750982	0.000207
 352	3.4925e+01	13.9777	70.213865	0.000598	5.978723	2.025646	0.000239
 353	3.5024e+01	14.0162	70.375350	0.000405	4.053372	1.373319	0.000162
 354	3.5123e+01	14.0627	70.589318	0.000537	5.370717	1.819648	0.000215
 355	3.5223e+01	14.0964	70.770989	0.000456	4.560043	1.544984	0.000183
 356	3.5322e+01	14.1317	70.976883	0.000517	5.168049	1.750982	0.000207
 357	3.5422e+01	14.1702	71.174703	0.000497	4.965380	1.682316	0.000199
 358	3.5522e+01	14.2151	71.396746	0.000557	5.573386	1.888314	0.000223
 359	3.5621e+01	14.2520	71.574379	0.000446	4.458709	1.510651	0.000179
 360	3.5721e+01	14.2985	71.772199	0.000497	4.965380	1.682316	0.000199
 361	3.5820e+01	14.3386	72.006353	0.000588	5.877389	1.991313	0.000235
 362	3.5919e+01	14.3787	72.163801	0.000395	3.952037	1.338986	0.000158
 363	3.6019e+01	14.4253	72.353547	0.000476	4.762712	1.613650	0.000191
 364	3.6118e+01	14.4493	72.563478	0.000527	5.269383	1.785315	0.000211
 365	3.6218e+01	14.4958	72.781483	0.000547	5.472052	1.853981	0.000219
 366	3.6318e+01	14.5343	72.979303	0.000497	4.965380	1.682316	0.000199
 367	3.6417e+01	14.5680	73.132714	0.000385	3.850703	1.304654	0.000154
 368	3.6517e+01	14.6114	73.378979	0.000618	6.181392	2.094312	0.000248
 369	3.6616e+01	14.6595	73.532390	0.000385	3.850703	1.304654	0.000154
 370	3.6715e+01	14.6884	73.774618	0.000608	6.080057	2.059979	0.000243
 371	3.6815e+01	14.7253	73.960327	0.000466	4.661377	1.579317	0.000187
 372	3.6914e+01	14.7734	74.194481	0.000588	5.877389	1.991313	0.000235
 373	3.7014e+01	14.8167	74.388263	0.000486	4.864046	1.647983	0.000195
 374	3.7114e+01	14.8568	74.565897	0.000446	4.458709	1.510651	0.000179
 375	3.7213e+01	14.8969	74.783902	0.000547	5.472052	1.853981	0.000219
 376	3.7313e+01	14.9354	74.969611	0.000466	4.661377	1.579317	0.000187
 377	3.7412e+01	14.9659	75.151282	0.000456	4.560043	1.544984	0.000183
 378	3.7511e+01	15.0076	75.369287	0.000547	5.472052	1.853981	0.000219
 379	3.7611e+01	15.0557	75.575181	0.000517	5.168049	1.750982	0.000207
 380	3.7711e+01	15.0846	75.752815	0.000446	4.458709	1.510651	0.000179
 381	3.7810e+01	15.1311	75.926412	0.000436	4.357374	1.476318	0.000174
 382	3.7910e+01	15.1760	76.168640	0.000608	6.080057	2.059979	0.000243
 383	3.8009e+01	15.2145	76.394720	0.000567	5.674720	1.922647	0.000227
 384	3.8108e+01	15.2482	76.560242	0.000415	4.154706	1.407652	0.000166
 385	3.8208e+01	15.2964	76.745950	0.000466	4.661377	1.579317	0.000187
 386	3.8307e+01	15.3252	76.943770	0.000497	4.965380	1.682316	0.000199
 387	3.8407e+01	15.3621	77.165812	0.000557	5.573386	1.888314	0.000223
 388	3.8507e+01	15.4071	77.371706	0.000517	5.168049	1.750982	0.000207
 389	3.8606e+01	15.4456	77.533192	0.000405	4.053372	1.373319	0.000162
 390	3.8706e+01	15.4889	77.743123	0.000527	5.269383	1.785315	0.000211
 391	3.8805e+01	15.5274	77.940943	0.000497	4.965380	1.682316	0.000199
 392	3.8904e+01	15.5707	78.146836	0.000517	5.168049	1.750982	0.000207
 393	3.9004e+01	15.6156	78.340619	0.000486	4.864046	1.647983	0.000195
 394	3.9103e+01	15.6557	78.546513	0.000517	5.168049	1.750982	0.000207
 395	3.9203e+01	15.6894	78.756444	0.000527	5.269383	1.785315	0.000211
 396	3.9303e+01	15.7263	78.946189	0.000476	4.762712	1.613650	0.000191
 397	3.9402e+01	15.7664	79.123823	0.000446	4.458709	1.510651	0.000179
 398	3.9502e+01	15.8097	79.325680	0.000507	5.066715	1.716649	0.000203
 399	3.9601e+01	15.8530	79.519463	0.000486	4.864046	1.647983	0.000195
 400	3.9700e+01	15.8851	79.745542	0.000567	5.674720	1.922647	0.000227
 401	3.9800e+01	15.9268	79.979696	0.000588	5.877389	1.991313	0.000235
 402	3.9900e+01	15.9669	80.137144	0.000395	3.952037	1.338986	0.000158
 403	3.9999e+01	16.0118	80.322853	0.000466	4.661377	1.579317	0.000187
 404	4.0099e+01	16.0520	80.544895	0.000557	5.573386	1.888314	0.000223
 405	4.0198e+01	16.0856	80.734640	0.000476	4.762712	1.613650	0.000191
 406	4.0297e+01	16.1209	80.936497	0.000507	5.066715	1.716649	0.000203
 407	4.0397e+01	16.1707	81.138354	0.000507	5.066715	1.716649	0.000203
 408	4.0496e+01	16.2028	81.299839	0.000405	4.053372	1.373319	0.000162
 409	4.0596e+01	16.2477	81.509771	0.000527	5.269383	1.785315	0.000211
 410	4.0696e+01	16.2862	81.743924	0.000588	5.877389	1.991313	0.000235
 411	4.0795e+01	16.3199	81.909447	0.000415	4.154706	1.407652	0.000166
 412	4.0895e+01	16.3600	82.107267	0.000497	4.965380	1.682316	0.000199
 413	4.0994e+01	16.4001	82.301049	0.000486	4.864046	1.647983	0.000195
 414	4.1093e+01	16.4546	82.498869	0.000497	4.965380	1.682316	0.000199
 415	4.1193e+01	16.4835	82.644206	0.000365	3.648034	1.235988	0.000146
 416	4.1292e+01	16.5188	82.862211	0.000547	5.472052	1.853981	0.000219
 417	4.1392e+01	16.5669	83.076179	0.000537	5.370717	1.819648	0.000215
 418	4.1492e+01	16.6102	83.314370	0.000598	5.978723	2.025646	0.000239
 419	4.1591e+01	16.6487	83.455670	0.000355	3.546700	1.201655	0.000142
 420	4.1691e+01	16.6888	83.673675	0.000547	5.472052	1.853981	0.000219
 421	4.1790e+01	16.7289	83.907829	0.000588	5.877389	1.991313	0.000235
 422	4.1889e+01	16.7594	84.057203	0.000375	3.749369	1.270321	0.000150
 423	4.1989e+01	16.7995	84.283283	0.000567	5.674720	1.922647	0.000227
 424	4.2089e+01	16.8525	84.432657	0.000375	3.749369	1.270321	0.000150
 425	4.2188e+01	16.8829	84.606254	0.000436	4.357374	1.476318	0.000174
 426	4.2288e+01	16.9279	84.856556	0.000628	6.282726	2.128645	0.000252
 427	4.2387e+01	16.9616	85.050339	0.000486	4.864046	1.647983	0.000195
 428	4.2486e+01	17.0017	85.256233	0.000517	5.168049	1.750982	0.000207
 429	4.2586e+01	17.0353	85.445978	0.000476	4.762712	1.613650	0.000191
 430	4.2685e+01	17.0755	85.696280	0.000628	6.282726	2.128645	0.000252
 431	4.2785e+01	17.1268	85.837580	0.000355	3.546700	1.201655	0.000142
 432	4.2885e+01	17.1717	86.071734	0.000588	5.877389	1.991313	0.000235
 433	4.2984e+01	17.1974	86.261479	0.000476	4.762712	1.613650	0.000191
 434	4.3084e+01	17.2375	86.427002	0.000415	4.154706	1.407652	0.000166
 435	4.3183e+01	17.2888	86.624822	0.000497	4.965380	1.682316	0.000199
 436	4.3282e+01	17.3257	86.810530	0.000466	4.661377	1.579317	0.000187
 437	4.3382e+01	17.3706	87.004312	0.000486	4.864046	1.647983	0.000195
 438	4.3481e+01	17.4059	87.214243	0.000527	5.269383	1.785315	0.000211
 439	4.3581e+01	17.4460	87.420137	0.000517	5.168049	1.750982	0.000207
 440	4.3681e+01	17.4845	87.605846	0.000466	4.661377	1.579317	0.000187
 441	4.3780e+01	17.5262	87.835962	0.000578	5.776055	1.956980	0.000231
 442	4.3880e+01	17.5647	88.029745	0.000486	4.864046	1.647983	0.000195
 443	4.3979e+01	17.6081	88.183156	0.000385	3.850703	1.304654	0.000154
 444	4.4078e+01	17.6385	88.389050	0.000517	5.168049	1.750982	0.000207
 445	4.4178e+01	17.6770	88.615129	0.000567	5.674720	1.922647	0.000227
 446	4.4278e+01	17.7123	88.792763	0.000446	4.458709	1.510651	0.000179
 447	4.4377e+01	17.7637	89.002694	0.000527	5.269383	1.785315	0.000211
 448	4.4477e+01	17.8054	89.192440	0.000476	4.762712	1.613650	0.000191
 449	4.4576e+01	17.8423	89.370074	0.000446	4.458709	1.510651	0.000179
 450	4.4675e+01	17.8744	89.612302	0.000608	6.080057	2.059979	0.000243
 451	4.4775e+01	17.9209	89.773787	0.000405	4.053372	1.373319	0.000162
 452	4.4874e+01	17.9610	89.963533	0.000476	4.762712	1.613650	0.000191
 453	4.4974e+01	18.0011	90.157315	0.000486	4.864046	1.647983	0.000195
 454	4.5074e+01	18.0396	90.375321	0.000547	5.472052	1.853981	0.000219
 455	4.5173e+01	18.0749	90.552955	0.000446	4.458709	1.510651	0.000179
 456	4.5273e+01	18.1150	90.726551	0.000436	4.357374	1.476318	0.000174
 457	4.5372e+01	18.1487	90.912260	0.000466	4.661377	1.579317	0.000187
 458	4.5471e+01	18.2016	91.166599	0.000638	6.384060	2.162978	0.000256
 459	4.5571e+01	18.2321	91.332122	0.000415	4.154706	1.407652	0.000166
 460	4.5670e+01	18.2818	91.489570	0.000395	3.952037	1.338986	0.000158
 461	4.5770e+01	18.3219	91.739873	0.000628	6.282726	2.128645	0.000252
 462	4.5870e+01	18.3572	91.905395	0.000415	4.154706	1.407652	0.000166
 463	4.5969e+01	18.3989	92.123400	0.000547	5.472052	1.853981	0.000219
 464	4.6069e+01	18.4374	92.309109	0.000466	4.661377	1.579317	0.000187
 465	4.6168e+01	18.4824	92.490780	0.000456	4.560043	1.544984	0.000183
 466	4.6267e+01	18.5225	92.728971	0.000598	5.978723	2.025646	0.000239
 467	4.6367e+01	18.5610	92.874308	0.000365	3.648034	1.235988	0.000146
 468	4.6467e+01	18.5947	93.080202	0.000517	5.168049	1.750982	0.000207
 469	4.6566e+01	18.6380	93.278021	0.000497	4.965380	1.682316	0.000199
 470	4.6666e+01	18.6781	93.451618	0.000436	4.357374	1.476318	0.000174
 471	4.6765e+01	18.7150	93.669623	0.000547	5.472052	1.853981	0.000219
 472	4.6864e+01	18.7551	93.863406	0.000486	4.864046	1.647983	0.000195
 473	4.6964e+01	18.7984	94.032966	0.000426	4.256040	1.441985	0.000170
 474	4.7063e+01	18.8449	94.234822	0.000507	5.066715	1.716649	0.000203
 475	4.7163e+01	18.8754	94.424568	0.000476	4.762712	1.613650	0.000191
 476	4.7263e+01	18.9203	94.602202	0.000446	4.458709	1.510651	0.000179
 477	4.7362e+01	18.9588	94.795984	0.000486	4.864046	1.647983	0.000195
 478	4.7462e+01	18.9957	94.973618	0.000446	4.458709	1.510651	0.000179
 479	4.7561e+01	19.0374	95.171438	0.000497	4.965380	1.682316	0.000199
 480	4.7660e+01	19.0823	95.397517	0.000567	5.674720	1.922647	0.000227
 481	4.7760e+01	19.1080	95.579189	0.000456	4.560043	1.544984	0.000183
 482	4.7859e+01	19.1545	95.764897	0.000466	4.661377	1.579317	0.000187
 483	4.7959e+01	19.1930	95.970791	0.000517	5.168049	1.750982	0.000207
 484	4.8059e+01	19.2380	96.164573	0.000486	4.864046	1.647983	0.000195
 485	4.8158e+01	19.2781	96.334133	0.000426	4.256040	1.441985	0.000170
 486	4.8258e+01	19.3134	96.499656	0.000415	4.154706	1.407652	0.000166
 487	4.8357e+01	19.3727	96.721698	0.000557	5.573386	1.888314	0.000223
 488	4.8456e+01	19.3968	96.867035	0.000365	3.648034	1.235988	0.000146
 489	4.8556e+01	19.4305	97.133486	0.000669	6.688063	2.265977	0.000268
 490	4.8656e+01	19.4658	97.282860	0.000375	3.749369	1.270321	0.000150
 491	4.8755e+01	19.5139	97.488754	0.000517	5.168049	1.750982	0.000207
 492	4.8855e+01	19.5492	97.678499	0.000476	4.762712	1.613650	0.000191
 493	4.8954e+01	19.5909	97.876319	0.000497	4.965380	1.682316	0.000199
 494	4.9053e+01	19.6310	98.086250	0.000527	5.269383	1.785315	0.000211
 495	4.9153e+01	19.6775	98.259847	0.000436	4.357374	1.476318	0.000174
 496	4.9252e+01	19.7192	98.445555	0.000466	4.661377	1.579317	0.000187
 497	4.9352e+01	19.7609	98.631263	0.000466	4.661377	1.579317	0.000187
 498	4.9452e+01	19.7930	98.853306	0.000557	5.573386	1.888314	0.000223
 499	4.9551e+01	19.8299	99.006717	0.000385	3.850703	1.304654	0.000154
 500	4.9651e+01	19.8668	99.176277	0.000426	4.256040	1.441985	0.000170
 501	4.9750e+01	19.9133	99.446765	0.000679	6.789397	2.300310	0.000272
 502	4.9849e+01	19.9599	99.588064	0.000355	3.546700	1.201655	0.000142
 503	4.9949e+01	19.9984	99.761661	0.000436	4.357374	1.476318	0.000174
 504	5.0048e+01	19.9502	99.668807	0.000233	2.330689	0.789659	-0.000093
 505	5.0148e+01	19.9133	99.555767	0.000284	2.837360	0.961324	-0.000114
 506	5.0248e+01	19.8813	99.386208	0.000426	4.256040	1.441985	-0.000170
 507	5.0347e+01	19.8299	99.248945	0.000345	3.445366	1.167322	-0.000138
 508	5.0447e+01	19.7962	99.123794	0.000314	3.141363	1.064323	-0.000126
 509	5.0546e+01	19.7561	98.962308	0.000405	4.053372	1.373319	-0.000162
 510	5.0645e+01	19.7096	98.804860	0.000395	3.952037	1.338986	-0.000158
 511	5.0745e+01	19.6711	98.695857	0.000274	2.736026	0.926991	-0.000110
 512	5.0844e+01	19.6310	98.506112	0.000476	4.762712	1.613650	-0.000191
 513	5.0944e+01	19.5909	98.393072	0.000284	2.837360	0.961324	-0.000114
 514	5.1044e+01	19.5492	98.247735	0.000365	3.648034	1.235988	-0.000146
 515	5.1143e+01	19.5203	98.110473	0.000345	3.445366	1.167322	-0.000138
 516	5.1242e+01	19.4786	97.928802	0.000456	4.560043	1.544984	-0.000183
 517	5.1342e+01	19.4305	97.735019	0.000486	4.864046	1.647983	-0.000195
 518	5.1441e+01	19.3920	97.609868	0.000314	3.141363	1.064323	-0.000126
 519	5.1541e+01	19.3599	97.460494	0.000375	3.749369	1.270321	-0.000150
 520	5.1641e+01	19.3150	97.307083	0.000385	3.850703	1.304654	-0.000154
 521	5.1740e+01	19.2845	97.137523	0.000426	4.256040	1.441985	-0.000170
 522	5.1840e+01	19.2315	96.996223	0.000355	3.546700	1.201655	-0.000142
 523	5.1939e+01	19.1979	96.822626	0.000436	4.357374	1.476318	-0.000174
 524	5.2038e+01	19.1561	96.640955	0.000456	4.560043	1.544984	-0.000183
 525	5.2138e+01	19.1289	96.487544	0.000385	3.850703	1.304654	-0.000154
 526	5.2237e+01	19.0727	96.382579	0.000263	2.634692	0.892658	-0.000105
 527	5.2337e+01	19.0358	96.233205	0.000375	3.749369	1.270321	-0.000150
 528	5.2437e+01	18.9957	96.043459	0.000476	4.762712	1.613650	-0.000191
 529	5.2536e+01	18.9652	95.890048	0.000385	3.850703	1.304654	-0.000154
 530	5.2636e+01	18.9155	95.712414	0.000446	4.458709	1.510651	-0.000179
 531	5.2735e+01	18.8850	95.595337	0.000294	2.938694	0.995657	-0.000118
 532	5.2834e+01	18.8417	95.377332	0.000547	5.472052	1.853981	-0.000219
 533	5.2934e+01	18.7984	95.272366	0.000263	2.634692	0.892658	-0.000105
 534	5.3033e+01	18.7647	95.110881	0.000405	4.053372	1.373319	-0.000162
 535	5.3133e+01	18.7166	94.933247	0.000446	4.458709	1.510651	-0.000179
 536	5.3233e+01	18.6685	94.795984	0.000345	3.445366	1.167322	-0.000138
 537	5.3332e+01	18.6348	94.618350	0.000446	4.458709	1.510651	-0.000179
 538	5.3431e+01	18.6075	94.440716	0.000446	4.458709	1.510651	-0.000179
 539	5.3531e+01	18.5610	94.295379	0.000365	3.648034	1.235988	-0.000146
 540	5.3630e+01	18.5273	94.133894	0.000405	4.053372	1.373319	-0.000162
 541	5.3730e+01	18.4808	93.940111	0.000486	4.864046	1.647983	-0.000195
 542	5.3830e+01	18.4374	93.782663	0.000395	3.952037	1.338986	-0.000158
 543	5.3929e+01	18.4038	93.645401	0.000345	3.445366	1.167322	-0.000138
 544	5.4029e+01	18.3524	93.475841	0.000426	4.256040	1.441985	-0.000170
 545	5.4128e+01	18.3155	93.350690	0.000314	3.141363	1.064323	-0.000126
 546	5.4227e+01	18.2899	93.132684	0.000547	5.472052	1.853981	-0.000219
 547	5.4327e+01	18.2433	92.995422	0.000345	3.445366	1.167322	-0.000138
 548	5.4426e+01	18.2048	92.817788	0.000446	4.458709	1.510651	-0.000179
 549	5.4526e+01	18.1535	92.668414	0.000375	3.749369	1.270321	-0.000150
 550	5.4626e+01	18.1182	92.462520	0.000517	5.168049	1.750982	-0.000207
 551	5.4725e+01	18.0765	92.329294	0.000334	3.344032	1.132989	-0.000134
 552	5.4825e+01	18.0412	92.147623	0.000456	4.560043	1.544984	-0.000183
 553	5.4924e+01	17.9995	91.986138	0.000405	4.053372	1.373319	-0.000162
 554	5.5023e+01	17.9674	91.824652	0.000405	4.053372	1.373319	-0.000162
 555	5.5123e+01	17.9209	91.655093	0.000426	4.256040	1.441985	-0.000170
 556	5.5222e+01	17.8744	91.457273	0.000497	4.965380	1.682316	-0.000199
 557	5.5322e+01	17.8359	91.340196	0.000294	2.938694	0.995657	-0.000118
 558	5.5422e+01	17.8118	91.158525	0.000456	4.560043	1.544984	-0.000183
 559	5.5521e+01	17.7621	90.997040	0.000405	4.053372	1.373319	-0.000162
 560	5.5620e+01	17.7188	90.823443	0.000436	4.357374	1.476318	-0.000174
 561	5.5720e+01	17.6899	90.665994	0.000395	3.952037	1.338986	-0.000158
 562	5.5819e+01	17.6385	90.460100	0.000517	5.168049	1.750982	-0.000207
 563	5.5919e+01	17.6032	90.326875	0.000334	3.344032	1.132989	-0.000134
 564	5.6019e+01	17.5696	90.141167	0.000466	4.661377	1.579317	-0.000187
 565	5.6118e+01	17.5214	90.003904	0.000345	3.445366	1.167322	-0.000138
 566	5.6218e+01	17.4926	89.826270	0.000446	4.458709	1.510651	-0.000179
 567	5.6317e+01	17.4380	89.652673	0.000436	4.357374	1.476318	-0.000174
 568	5.6416e+01	17.4091	89.487151	0.000415	4.154706	1.407652	-0.000166
 569	5.6516e+01	17.3674	89.313554	0.000436	4.357374	1.476318	-0.000174
 570	5.6615e+01	17.3241	89.148031	0.000415	4.154706	1.407652	-0.000166
 571	5.6715e+01	17.2824	88.962323	0.000466	4.661377	1.579317	-0.000187
 572	5.6815e+01	17.2423	88.808912	0.000385	3.850703	1.304654	-0.000154
 573	5.6914e+01	17.2038	88.643389	0.000415	4.154706	1.407652	-0.000166
 574	5.7014e+01	17.1621	88.502090	0.000355	3.546700	1.201655	-0.000142
 575	5.7113e+01	17.1236	88.304270	0.000497	4.965380	1.682316	-0.000199
 576	5.7212e+01	17.0851	88.134710	0.000426	4.256040	1.441985	-0.000170
 577	5.7312e+01	17.0418	87.936891	0.000497	4.965380	1.682316	-0.000199
 578	5.7411e+01	17.0049	87.811739	0.000314	3.141363	1.064323	-0.000126
 579	5.7511e+01	16.9567	87.617957	0.000486	4.864046	1.647983	-0.000195
 580	5.7611e+01	16.9295	87.472620	0.000365	3.648034	1.235988	-0.000146
 581	5.7710e+01	16.8813	87.274800	0.000497	4.965380	1.682316	-0.000199
 582	5.7809e+01	16.8444	87.101204	0.000436	4.357374	1.476318	-0.000174
 583	5.7909e+01	16.7995	86.931644	0.000426	4.256040	1.441985	-0.000170
 584	5.8008e+01	16.7690	86.762084	0.000426	4.256040	1.441985	-0.000170
 585	5.8108e+01	16.7273	86.600599	0.000405	4.053372	1.373319	-0.000162
 586	5.8208e+01	16.6840	86.402779	0.000497	4.965380	1.682316	-0.000199
 587	5.8307e+01	16.6455	86.217071	0.000466	4.661377	1.579317	-0.000187
 588	5.8407e+01	16.6038	86.087882	0.000324	3.242697	1.098656	-0.000130
 589	5.8506e+01	16.5685	85.857766	0.000578	5.776055	1.956980	-0.000231
 590	5.8605e+01	16.5268	85.728577	0.000324	3.242697	1.098656	-0.000130
 591	5.8705e+01	16.4803	85.567092	0.000405	4.053372	1.373319	-0.000162
 592	5.8804e+01	16.4466	85.413681	0.000385	3.850703	1.304654	-0.000154
 593	5.8904e+01	16.3985	85.232010	0.000456	4.560043	1.544984	-0.000183
 594	5.9004e+01	16.3712	85.042264	0.000476	4.762712	1.613650	-0.000191
 595	5.9103e+01	16.3231	84.864630	0.000446	4.458709	1.510651	-0.000179
 596	5.9203e+01	16.2894	84.727368	0.000345	3.445366	1.167322	-0.000138
 597	5.9302e+01	16.2493	84.521474	0.000517	5.168049	1.750982	-0.000207
 598	5.9401e+01	16.2028	84.323654	0.000497	4.965380	1.682316	-0.000199
 599	5.9501e+01	16.1691	84.190429	0.000334	3.344032	1.132989	-0.000134
 600	5.9600e+01	16.1274	83.988572	0.000507	5.066715	1.716649	-0.000203
 601	5.9700e+01	16.0905	83.831124	0.000395	3.952037	1.338986	-0.000158
 602	5.9800e+01	16.0503	83.657527	0.000436	4.357374	1.476318	-0.000174
 603	5.9899e+01	16.0086	83.496041	0.000405	4.053372	1.373319	-0.000162
 604	5.9998e+01	15.9605	83.298222	0.000497	4.965380	1.682316	-0.000199
 605	6.0098e+01	15.9300	83.164996	0.000334	3.344032	1.132989	-0.000134
 606	6.0197e+01	15.8851	82.967177	0.000497	4.965380	1.682316	-0.000199
 607	6.0297e+01	15.8450	82.797617	0.000426	4.256040	1.441985	-0.000170
 608	6.0397e+01	15.8113	82.640169	0.000395	3.952037	1.338986	-0.000158
 609	6.0496e+01	15.7664	82.474646	0.000415	4.154706	1.407652	-0.000166
 610	6.0596e+01	15.7327	82.276826	0.000497	4.965380	1.682316	-0.000199
 611	6.0695e+01	15.6910	82.099192	0.000446	4.458709	1.510651	-0.000179
 612	6.0794e+01	15.6429	81.945781	0.000385	3.850703	1.304654	-0.000154
 613	6.0894e+01	15.6092	81.751999	0.000486	4.864046	1.647983	-0.000195
 614	6.0993e+01	15.5707	81.618773	0.000334	3.344032	1.132989	-0.000134
 615	6.1093e+01	15.5354	81.437102	0.000456	4.560043	1.544984	-0.000183
 616	6.1193e+01	15.4889	81.219097	0.000547	5.472052	1.853981	-0.000219
 617	6.1292e+01	15.4616	81.053574	0.000415	4.154706	1.407652	-0.000166
 618	6.1392e+01	15.4071	80.904200	0.000375	3.749369	1.270321	-0.000150
 619	6.1491e+01	15.3718	80.694269	0.000527	5.269383	1.785315	-0.000211
 620	6.1590e+01	15.3252	80.528747	0.000415	4.154706	1.407652	-0.000166
 621	6.1690e+01	15.2899	80.387447	0.000355	3.546700	1.201655	-0.000142
 622	6.1789e+01	15.2482	80.157330	0.000578	5.776055	1.956980	-0.000231
 623	6.1889e+01	15.2081	80.003919	0.000385	3.850703	1.304654	-0.000154
 624	6.1989e+01	15.1744	79.822248	0.000456	4.560043	1.544984	-0.000183
 625	6.2088e+01	15.1263	79.644614	0.000446	4.458709	1.510651	-0.000179
 626	6.2188e+01	15.0878	79.471017	0.000436	4.357374	1.476318	-0.000174
 627	6.2287e+01	15.0509	79.301457	0.000426	4.256040	1.441985	-0.000170
 628	6.2386e+01	15.0172	79.152083	0.000375	3.749369	1.270321	-0.000150
 629	6.2486e+01	14.9675	78.954264	0.000497	4.965380	1.682316	-0.000199
 630	6.2586e+01	14.9306	78.752407	0.000507	5.066715	1.716649	-0.000203
 631	6.2685e+01	14.8905	78.574773	0.000446	4.458709	1.510651	-0.000179
 632	6.2785e+01	14.8616	78.425399	0.000375	3.749369	1.270321	-0.000150
 633	6.2884e+01	14.8199	78.251802	0.000436	4.357374	1.476318	-0.000174
 634	6.2983e+01	14.7718	78.049945	0.000507	5.066715	1.716649	-0.000203
 635	6.3083e+01	14.7317	77.876348	0.000436	4.357374	1.476318	-0.000174
 636	6.3182e+01	14.6916	77.706789	0.000426	4.256040	1.441985	-0.000170
 637	6.3282e+01	14.6499	77.529155	0.000446	4.458709	1.510651	-0.000179
 638	6.3382e+01	14.6146	77.363632	0.000415	4.154706	1.407652	-0.000166
 639	6.3481e+01	14.5745	77.145627	0.000547	5.472052	1.853981	-0.000219
 640	6.3581e+01	14.5360	77.000290	0.000365	3.648034	1.235988	-0.000146
 641	6.3680e+01	14.4942	76.810545	0.000476	4.762712	1.613650	-0.000191
 642	6.3779e+01	14.4573	76.673282	0.000345	3.445366	1.167322	-0.000138
 643	6.3879e+01	14.4140	76.459314	0.000537	5.370717	1.819648	-0.000215
 644	6.3978e+01	14.3755	76.253420	0.000517	5.168049	1.750982	-0.000207
 645	6.4078e+01	14.3258	76.083860	0.000426	4.256040	1.441985	-0.000170
 646	6.4177e+01	14.2985	75.918338	0.000415	4.154706	1.407652	-0.000166
 647	6.4277e+01	14.2520	75.720518	0.000497	4.965380	1.682316	-0.000199
 648	6.4376e+01	14.2151	75.550958	0.000426	4.256040	1.441985	-0.000170
 649	6.4476e+01	14.1734	75.373324	0.000446	4.458709	1.510651	-0.000179
 650	6.4576e+01	14.1333	75.211839	0.000405	4.053372	1.373319	-0.000162
 651	6.4675e+01	14.0980	74.989796	0.000557	5.573386	1.888314	-0.000223
 652	6.4775e+01	14.0515	74.852534	0.000345	3.445366	1.167322	-0.000138
 653	6.4874e+01	14.0210	74.666825	0.000466	4.661377	1.579317	-0.000187
 654	6.4974e+01	13.9809	74.469006	0.000497	4.965380	1.682316	-0.000199
 655	6.5073e+01	13.9392	74.291372	0.000446	4.458709	1.510651	-0.000179
 656	6.5172e+01	13.8959	74.101626	0.000476	4.762712	1.613650	-0.000191
 657	6.5272e+01	13.8509	73.936104	0.000415	4.154706	1.407652	-0.000166
 658	6.5371e+01	13.8092	73.750396	0.000466	4.661377	1.579317	-0.000187
 659	6.5471e+01	13.7772	73.580836	0.000426	4.256040	1.441985	-0.000170
 660	6.5570e+01	13.7338	73.387053	0.000486	4.864046	1.647983	-0.000195
 661	6.5670e+01	13.6921	73.205382	0.000456	4.560043	1.544984	-0.000183
 662	6.5769e+01	13.6520	73.003526	0.000507	5.066715	1.716649	-0.000203
 663	6.5869e+01	13.6215	72.866263	0.000345	3.445366	1.167322	-0.000138
 664	6.5969e+01	13.5734	72.668443	0.000497	4.965380	1.682316	-0.000199
 665	6.6068e+01	13.5365	72.446401	0.000557	5.573386	1.888314	-0.000223
 666	6.6168e+01	13.4948	72.333361	0.000284	2.837360	0.961324	-0.000114
 667	6.6267e+01	13.4579	72.115356	0.000547	5.472052	1.853981	-0.000219
 668	6.6367e+01	13.4178	71.949833	0.000415	4.154706	1.407652	-0.000166
 669	6.6466e+01	13.3713	71.764125	0.000466	4.661377	1.579317	-0.000187
 670	6.6566e+01	13.3456	71.598602	0.000415	4.154706	1.407652	-0.000166
 671	6.6665e+01	13.3023	71.396746	0.000507	5.066715	1.716649	-0.000203
 672	6.6764e+01	13.2574	71.207000	0.000476	4.762712	1.613650	-0.000191
 673	6.6864e+01	13.2173	71.029366	0.000446	4.458709	1.510651	-0.000179
 674	6.6963e+01	13.1820	70.851732	0.000446	4.458709	1.510651	-0.000179
 675	6.7063e+01	13.1403	70.682173	0.000426	4.256040	1.441985	-0.000170
 676	6.7162e+01	13.0921	70.512613	0.000426	4.256040	1.441985	-0.000170
 677	6.7262e+01	13.0649	70.339016	0.000436	4.357374	1.476318	-0.000174
 678	6.7362e+01	13.0216	70.080639	0.000649	6.485395	2.197311	-0.000260
 679	6.7461e+01	12.9847	69.939340	0.000355	3.546700	1.201655	-0.000142
 680	6.7561e+01	12.9430	69.765743	0.000436	4.357374	1.476318	-0.000174
 681	6.7660e+01	12.9044	69.584072	0.000456	4.560043	1.544984	-0.000183
 682	6.7760e+01	12.8659	69.370103	0.000537	5.370717	1.819648	-0.000215
 683	6.7859e+01	12.8114	69.192469	0.000446	4.458709	1.510651	-0.000179
 684	6.7959e+01	12.7873	68.970427	0.000557	5.573386	1.888314	-0.000223
 685	6.8058e+01	12.7440	68.796830	0.000436	4.357374	1.476318	-0.000174
 686	6.8157e+01	12.7055	68.611122	0.000466	4.661377	1.579317	-0.000187
 687	6.8257e+01	12.6622	68.433488	0.000446	4.458709	1.510651	-0.000179
 688	6.8356e+01	12.6189	68.227594	0.000517	5.168049	1.750982	-0.000207
 689	6.8456e+01	12.5836	68.074183	0.000385	3.850703	1.304654	-0.000154
 690	6.8555e+01	12.5499	67.868289	0.000517	5.168049	1.750982	-0.000207
 691	6.8655e+01	12.5098	67.702766	0.000415	4.154706	1.407652	-0.000166
 692	6.8754e+01	12.4601	67.480724	0.000557	5.573386	1.888314	-0.000223
 693	6.8854e+01	12.4264	67.343461	0.000345	3.445366	1.167322	-0.000138
 694	6.8954e+01	12.3895	67.145642	0.000497	4.965380	1.682316	-0.000199
 695	6.9053e+01	12.3462	66.919562	0.000567	5.674720	1.922647	-0.000227
 696	6.9153e+01	12.2997	66.745965	0.000436	4.357374	1.476318	-0.000174
 697	6.9252e+01	12.2628	66.564294	0.000456	4.560043	1.544984	-0.000183
 698	6.9352e+01	12.2146	66.358400	0.000517	5.168049	1.750982	-0.000207
 699	6.9451e+01	12.1890	66.180766	0.000446	4.458709	1.510651	-0.000179
 700	6.9550e+01	12.1392	65.974872	0.000517	5.168049	1.750982	-0.000207
 701	6.9650e+01	12.1055	65.797238	0.000446	4.458709	1.510651	-0.000179
 702	6.9749e+01	12.0606	65.627679	0.000426	4.256040	1.441985	-0.000170
 703	6.9849e+01	12.0269	65.446007	0.000456	4.560043	1.544984	-0.000183
 704	6.9948e+01	11.9852	65.228002	0.000547	5.472052	1.853981	-0.000219
 705	7.0048e+01	11.9499	65.050368	0.000446	4.458709	1.510651	-0.000179
 706	7.0147e+01	11.9098	64.868697	0.000456	4.560043	1.544984	-0.000183
 707	7.0247e+01	11.8713	64.699137	0.000426	4.256040	1.441985	-0.000170
 708	7.0347e+01	11.8296	64.493243	0.000517	5.168049	1.750982	-0.000207
 709	7.0446e+01	11.7943	64.360018	0.000334	3.344032	1.132989	-0.000134
 710	7.0546e+01	11.7414	64.142013	0.000547	5.472052	1.853981	-0.000219
 711	7.0645e+01	11.7061	63.976490	0.000415	4.154706	1.407652	-0.000166
 712	7.0745e+01	11.6772	63.746373	0.000578	5.776055	1.956980	-0.000231
 713	7.0844e+01	11.6243	63.560665	0.000466	4.661377	1.579317	-0.000187
 714	7.0944e+01	11.5858	63.399180	0.000405	4.053372	1.373319	-0.000162
 715	7.1043e+01	11.5553	63.165026	0.000588	5.877389	1.991313	-0.000235
 716	7.1142e+01	11.5120	63.003540	0.000405	4.053372	1.373319	-0.000162
 717	7.1242e+01	11.4687	62.842055	0.000405	4.053372	1.373319	-0.000162
 718	7.1341e+01	11.4221	62.640198	0.000507	5.066715	1.716649	-0.000203
 719	7.1441e+01	11.3917	62.414119	0.000567	5.674720	1.922647	-0.000227
 720	7.1540e+01	11.3499	62.248596	0.000415	4.154706	1.407652	-0.000166
 721	7.1640e+01	11.3050	62.042702	0.000517	5.168049	1.750982	-0.000207
 722	7.1740e+01	11.2745	61.865068	0.000446	4.458709	1.510651	-0.000179
 723	7.1839e+01	11.2232	61.675323	0.000476	4.762712	1.613650	-0.000191
 724	7.1939e+01	11.1943	61.497689	0.000446	4.458709	1.510651	-0.000179
 725	7.2038e+01	11.1462	61.247386	0.000628	6.282726	2.128645	-0.000252
 726	7.2138e+01	11.1173	61.093975	0.000385	3.850703	1.304654	-0.000154
 727	7.2237e+01	11.0708	60.920378	0.000436	4.357374	1.476318	-0.000174
 728	7.2337e+01	11.0371	60.714484	0.000517	5.168049	1.750982	-0.000207
 729	7.2436e+01	10.9842	60.516665	0.000497	4.965380	1.682316	-0.000199
 730	7.2535e+01	10.9393	60.371328	0.000365	3.648034	1.235988	-0.000146
 731	7.2635e+01	10.9120	60.145248	0.000567	5.674720	1.922647	-0.000227
 732	7.2734e+01	10.8655	59.967614	0.000446	4.458709	1.510651	-0.000179
 733	7.2834e+01	10.8189	59.749609	0.000547	5.472052	1.853981	-0.000219
 734	7.2933e+01	10.7917	59.576012	0.000436	4.357374	1.476318	-0.000174
 735	7.3033e+01	10.7452	59.374155	0.000507	5.066715	1.716649	-0.000203
 736	7.3132e+01	10.7034	59.236893	0.000345	3.445366	1.167322	-0.000138
 737	7.3232e+01	10.6681	58.982553	0.000638	6.384060	2.162978	-0.000256
 738	7.3332e+01	10.6313	58.829142	0.000385	3.850703	1.304654	-0.000154
 739	7.3431e+01	10.5911	58.603062	0.000567	5.674720	1.922647	-0.000227
 740	7.3531e+01	10.5462	58.457725	0.000365	3.648034	1.235988	-0.000146
 741	7.3630e+01	10.5190	58.247794	0.000527	5.269383	1.785315	-0.000211
 742	7.3730e+01	10.4708	58.013641	0.000588	5.877389	1.991313	-0.000235
 743	7.3829e+01	10.4259	57.856192	0.000395	3.952037	1.338986	-0.000158
 744	7.3928e+01	10.3906	57.678558	0.000446	4.458709	1.510651	-0.000179
 745	7.4028e+01	10.3473	57.480739	0.000497	4.965380	1.682316	-0.000199
 746	7.4127e+01	10.3088	57.274845	0.000517	5.168049	1.750982	-0.000207
 747	7.4227e+01	10.2767	57.077025	0.000497	4.965380	1.682316	-0.000199
 748	7.4326e+01	10.2382	56.871131	0.000517	5.168049	1.750982	-0.000207
 749	7.4426e+01	10.1917	56.661200	0.000527	5.269383	1.785315	-0.000211
 750	7.4525e+01	10.1596	56.495678	0.000415	4.154706	1.407652	-0.000166
 751	7.4625e+01	10.1163	56.269598	0.000567	5.674720	1.922647	-0.000227
 752	7.4725e+01	10.0666	56.079853	0.000476	4.762712	1.613650	-0.000191
 753	7.4824e+01	10.0361	55.869921	0.000527	5.269383	1.785315	-0.000211
 754	7.4924e+01	10.0024	55.676139	0.000486	4.864046	1.647983	-0.000195
 755	7.5023e+01	9.9527	55.526765	0.000375	3.749369	1.270321	-0.000150
 756	7.5123e+01	9.9238	55.349131	0.000446	4.458709	1.510651	-0.000179
 757	7.5222e+01	9.8741	55.110940	0.000598	5.978723	2.025646	-0.000239
 758	7.5322e+01	9.8275	54.957529	0.000385	3.850703	1.304654	-0.000154
 759	7.5421e+01	9.7954	54.743561	0.000537	5.370717	1.819648	-0.000215
 760	7.5520e+01	9.7602	54.569964	0.000436	4.357374	1.476318	-0.000174
 761	7.5620e+01	9.7152	54.315624	0.000638	6.384060	2.162978	-0.000256
 762	7.5719e+01	9.6703	54.202584	0.000284	2.837360	0.961324	-0.000114
 763	7.5819e+01	9.6366	54.000728	0.000507	5.066715	1.716649	-0.000203
 764	7.5918e+01	9.5933	53.754462	0.000618	6.181392	2.094312	-0.000248
 765	7.6018e+01	9.5548	53.584903	0.000426	4.256040	1.441985	-0.000170
 766	7.6118e+01	9.5227	53.391120	0.000486	4.864046	1.647983	-0.000195
 767	7.6217e+01	9.4650	53.189263	0.000507	5.066715	1.716649	-0.000203
 768	7.6317e+01	9.4457	52.995481	0.000486	4.864046	1.647983	-0.000195
 769	7.6416e+01	9.4056	52.817847	0.000446	4.458709	1.510651	-0.000179
 770	7.6516e+01	9.3591	52.620027	0.000497	4.965380	1.682316	-0.000199
 771	7.6615e+01	9.3206	52.410096	0.000527	5.269383	1.785315	-0.000211
 772	7.6715e+01	9.2821	52.220351	0.000476	4.762712	1.613650	-0.000191
 773	7.6814e+01	9.2404	52.046754	0.000436	4.357374	1.476318	-0.000174
 774	7.6913e+01	9.1939	51.832786	0.000537	5.370717	1.819648	-0.000215
 775	7.7013e+01	9.1554	51.626892	0.000517	5.168049	1.750982	-0.000207
 776	7.7112e+01	9.1217	51.449258	0.000446	4.458709	1.510651	-0.000179
 777	7.7212e+01	9.0784	51.243364	0.000517	5.168049	1.750982	-0.000207
 778	7.7311e+01	9.0366	51.069767	0.000436	4.357374	1.476318	-0.000174
 779	7.7411e+01	8.9981	50.880022	0.000476	4.762712	1.613650	-0.000191
 780	7.7510e+01	8.9500	50.690276	0.000476	4.762712	1.613650	-0.000191
 781	7.7610e+01	8.9179	50.492457	0.000497	4.965380	1.682316	-0.000199
 782	7.7710e+01	8.8874	50.258303	0.000588	5.877389	1.991313	-0.000235
 783	7.7809e+01	8.8361	50.048372	0.000527	5.269383	1.785315	-0.000211
 784	7.7909e+01	8.7944	49.886886	0.000405	4.053372	1.373319	-0.000162
 785	7.8008e+01	8.7463	49.713289	0.000436	4.357374	1.476318	-0.000174
 786	7.8108e+01	8.7142	49.503358	0.000527	5.269383	1.785315	-0.000211
 787	7.8207e+01	8.6853	49.289390	0.000537	5.370717	1.819648	-0.000215
 788	7.8306e+01	8.6436	49.140016	0.000375	3.749369	1.270321	-0.000150
 789	7.8406e+01	8.5955	48.885677	0.000638	6.384060	2.162978	-0.000256
 790	7.8505e+01	8.5650	48.720154	0.000415	4.154706	1.407652	-0.000166
 791	7.8605e+01	8.5153	48.486000	0.000588	5.877389	1.991313	-0.000235
 792	7.8704e+01	8.4752	48.308366	0.000446	4.458709	1.510651	-0.000179
 793	7.8804e+01	8.4286	48.110547	0.000497	4.965380	1.682316	-0.000199
 794	7.8903e+01	8.3982	47.936950	0.000436	4.357374	1.476318	-0.000174
 795	7.9003e+01	8.3613	47.743167	0.000486	4.864046	1.647983	-0.000195
 796	7.9103e+01	8.3196	47.533236	0.000527	5.269383	1.785315	-0.000211
 797	7.9202e+01	8.2810	47.339454	0.000486	4.864046	1.647983	-0.000195
 798	7.9302e+01	8.2393	47.125485	0.000537	5.370717	1.819648	-0.000215
 799	7.9401e+01	8.2008	46.947851	0.000446	4.458709	1.510651	-0.000179
 800	7.9501e+01	8.1655	46.725809	0.000557	5.573386	1.888314	-0.000223
 801	7.9600e+01	8.1190	46.552212	0.000436	4.357374	1.476318	-0.000174
 802	7.9700e+01	8.0709	46.362467	0.000476	4.762712	1.613650	-0.000191
 803	7.9799e+01	8.0340	46.124276	0.000598	5.978723	2.025646	-0.000239
 804	7.9898e+01	7.9907	45.962790	0.000405	4.053372	1.373319	-0.000162
 805	7.9998e+01	7.9602	45.777082	0.000466	4.661377	1.579317	-0.000187
 806	8.0097e+01	7.9233	45.546965	0.000578	5.776055	1.956980	-0.000231
 807	8.0197e+01	7.8752	45.389517	0.000395	3.952037	1.338986	-0.000158
 808	8.0296e+01	7.8447	45.151326	0.000598	5.978723	2.025646	-0.000239
 809	8.0396e+01	7.8030	44.961581	0.000476	4.762712	1.613650	-0.000191
 810	8.0496e+01	7.7741	44.775872	0.000466	4.661377	1.579317	-0.000187
 811	8.0595e+01	7.7180	44.569979	0.000517	5.168049	1.750982	-0.000207
 812	8.0695e+01	7.6746	44.351973	0.000547	5.472052	1.853981	-0.000219
 813	8.0794e+01	7.6490	44.142042	0.000527	5.269383	1.785315	-0.000211
 814	8.0894e+01	7.6041	43.956334	0.000466	4.661377	1.579317	-0.000187
 815	8.0993e+01	7.5591	43.714106	0.000608	6.080057	2.059979	-0.000243
 816	8.1093e+01	7.5190	43.564732	0.000375	3.749369	1.270321	-0.000150
 817	8.1192e+01	7.4854	43.366912	0.000497	4.965380	1.682316	-0.000199
 818	8.1291e+01	7.4404	43.108535	0.000649	6.485395	2.197311	-0.000260
 819	8.1391e+01	7.4067	42.991458	0.000294	2.938694	0.995657	-0.000118
 820	8.1490e+01	7.3634	42.765379	0.000567	5.674720	1.922647	-0.000227
 821	8.1590e+01	7.3217	42.579671	0.000466	4.661377	1.579317	-0.000187
 822	8.1689e+01	7.2736	42.345517	0.000588	5.877389	1.991313	-0.000235
 823	8.1789e+01	7.2431	42.179994	0.000415	4.154706	1.407652	-0.000166
 824	8.1888e+01	7.2094	41.982175	0.000497	4.965380	1.682316	-0.000199
 825	8.1988e+01	7.1645	41.776281	0.000517	5.168049	1.750982	-0.000207
 826	8.2088e+01	7.1180	41.562312	0.000537	5.370717	1.819648	-0.000215
 827	8.2187e+01	7.0875	41.364493	0.000497	4.965380	1.682316	-0.000199
 828	8.2287e+01	7.0442	41.166673	0.000497	4.965380	1.682316	-0.000199
 829	8.2386e+01	7.0073	40.997113	0.000426	4.256040	1.441985	-0.000170
 830	8.2486e+01	6.9656	40.795257	0.000507	5.066715	1.716649	-0.000203
 831	8.2585e+01	6.9239	40.540917	0.000638	6.384060	2.162978	-0.000256
 832	8.2684e+01	6.8773	40.395580	0.000365	3.648034	1.235988	-0.000146
 833	8.2784e+01	6.8388	40.157389	0.000598	5.978723	2.025646	-0.000239
 834	8.2883e+01	6.8100	40.003978	0.000385	3.850703	1.304654	-0.000154
 835	8.2983e+01	6.7650	39.749638	0.000638	6.384060	2.162978	-0.000256
 836	8.3082e+01	6.7265	39.588153	0.000405	4.053372	1.373319	-0.000162
 837	8.3182e+01	6.6832	39.349962	0.000598	5.978723	2.025646	-0.000239
 838	8.3281e+01	6.6367	39.144068	0.000517	5.168049	1.750982	-0.000207
 839	8.3381e+01	6.6046	38.974508	0.000426	4.256040	1.441985	-0.000170
 840	8.3481e+01	6.5741	38.780726	0.000486	4.864046	1.647983	-0.000195
 841	8.3580e+01	6.5180	38.550609	0.000578	5.776055	1.956980	-0.000231
 842	8.3680e+01	6.4859	38.356827	0.000486	4.864046	1.647983	-0.000195
 843	8.3779e+01	6.4426	38.179193	0.000446	4.458709	1.510651	-0.000179
 844	8.3879e+01	6.4025	37.977336	0.000507	5.066715	1.716649	-0.000203
 845	8.3978e+01	6.3672	37.727033	0.000628	6.282726	2.128645	-0.000252
 846	8.4078e+01	6.3319	37.529214	0.000497	4.965380	1.682316	-0.000199
 847	8.4177e+01	6.2934	37.351580	0.000446	4.458709	1.510651	-0.000179
 848	8.4276e+01	6.2485	37.190094	0.000405	4.053372	1.373319	-0.000162
 849	8.4376e+01	6.2116	36.968052	0.000557	5.573386	1.888314	-0.000223
 850	8.4475e+01	6.1699	36.713712	0.000638	6.384060	2.162978	-0.000256
 851	8.4575e+01	6.1282	36.515893	0.000497	4.965380	1.682316	-0.000199
 852	8.4674e+01	6.0897	36.285776	0.000578	5.776055	1.956980	-0.000231
 853	8.4774e+01	6.0512	36.116216	0.000426	4.256040	1.441985	-0.000170
 854	8.4874e+01	5.9966	35.938582	0.000446	4.458709	1.510651	-0.000179
 855	8.4973e+01	5.9645	35.720577	0.000547	5.472052	1.853981	-0.000219
 856	8.5073e+01	5.9325	35.510646	0.000527	5.269383	1.785315	-0.000211
 857	8.5172e+01	5.9004	35.296678	0.000537	5.370717	1.819648	-0.000215
 858	8.5272e+01	5.8458	35.102895	0.000486	4.864046	1.647983	-0.000195
 859	8.5371e+01	5.8041	34.860667	0.000608	6.080057	2.059979	-0.000243
 860	8.5471e+01	5.7672	34.715330	0.000365	3.648034	1.235988	-0.000146
 861	8.5570e+01	5.7287	34.493288	0.000557	5.573386	1.888314	-0.000223
 862	8.5669e+01	5.6854	34.295468	0.000497	4.965380	1.682316	-0.000199
 863	8.5769e+01	5.6533	34.077463	0.000547	5.472052	1.853981	-0.000219
 864	8.5868e+01	5.6068	33.887717	0.000476	4.762712	1.613650	-0.000191
 865	8.5968e+01	5.5667	33.653564	0.000588	5.877389	1.991313	-0.000235
 866	8.6067e+01	5.5394	33.447670	0.000517	5.168049	1.750982	-0.000207
 867	8.6167e+01	5.4945	33.274073	0.000436	4.357374	1.476318	-0.000174
 868	8.6266e+01	5.4464	33.023770	0.000628	6.282726	2.128645	-0.000252
 869	8.6366e+01	5.4175	32.858248	0.000415	4.154706	1.407652	-0.000166
 870	8.6466e+01	5.3726	32.656391	0.000507	5.066715	1.716649	-0.000203
 871	8.6565e+01	5.3405	32.450497	0.000517	5.168049	1.750982	-0.000207
 872	8.6665e+01	5.2876	32.240566	0.000527	5.269383	1.785315	-0.000211
 873	8.6764e+01	5.2587	32.034672	0.000517	5.168049	1.750982	-0.000207
 874	8.6864e+01	5.2154	31.828778	0.000517	5.168049	1.750982	-0.000207
 875	8.6963e+01	5.1833	31.602699	0.000567	5.674720	1.922647	-0.000227
 876	8.7063e+01	5.1335	31.388730	0.000537	5.370717	1.819648	-0.000215
 877	8.7162e+01	5.0918	31.182836	0.000517	5.168049	1.750982	-0.000207
 878	8.7261e+01	5.0565	30.976943	0.000517	5.168049	1.750982	-0.000207
 879	8.7361e+01	5.0245	30.791234	0.000466	4.661377	1.579317	-0.000187
 880	8.7460e+01	4.9715	30.565155	0.000567	5.674720	1.922647	-0.000227
 881	8.7560e+01	4.9362	30.335038	0.000578	5.776055	1.956980	-0.000231
 882	8.7659e+01	4.8961	30.169515	0.000415	4.154706	1.407652	-0.000166
 883	8.7759e+01	4.8576	29.947473	0.000557	5.573386	1.888314	-0.000223
 884	8.7859e+01	4.8159	29.737542	0.000527	5.269383	1.785315	-0.000211
 885	8.7958e+01	4.7710	29.547796	0.000476	4.762712	1.613650	-0.000191
 886	8.8058e+01	4.7293	29.325754	0.000557	5.573386	1.888314	-0.000223
 887	8.8157e+01	4.7052	29.164269	0.000405	4.053372	1.373319	-0.000162
 888	8.8257e+01	4.6539	28.942226	0.000557	5.573386	1.888314	-0.000223
 889	8.8356e+01	4.6170	28.712109	0.000578	5.776055	1.956980	-0.000231
 890	8.8456e+01	4.5785	28.514290	0.000497	4.965380	1.682316	-0.000199
 891	8.8555e+01	4.5352	28.308396	0.000517	5.168049	1.750982	-0.000207
 892	8.8654e+01	4.4967	28.122688	0.000466	4.661377	1.579317	-0.000187
 893	8.8754e+01	4.4662	27.888534	0.000588	5.877389	1.991313	-0.000235
 894	8.8853e+01	4.4132	27.690714	0.000497	4.965380	1.682316	-0.000199
 895	8.8953e+01	4.3763	27.500969	0.000476	4.762712	1.613650	-0.000191
 896	8.9052e+01	4.3394	27.299112	0.000507	5.066715	1.716649	-0.000203
 897	8.9152e+01	4.2881	27.073032	0.000567	5.674720	1.922647	-0.000227
 898	8.9251e+01	4.2608	26.879250	0.000486	4.864046	1.647983	-0.000195
 899	8.9351e+01	4.2143	26.649133	0.000578	5.776055	1.956980	-0.000231
 900	8.9451e+01	4.1822	26.475536	0.000436	4.357374	1.476318	-0.000174
 901	8.9550e+01	4.1373	26.225234	0.000628	6.282726	2.128645	-0.000252
 902	8.9650e+01	4.0956	26.011266	0.000537	5.370717	1.819648	-0.000215
 903	8.9749e+01	4.0571	25.797297	0.000537	5.370717	1.819648	-0.000215
 904	8.9849e+01	4.0154	25.603515	0.000486	4.864046	1.647983	-0.000195
 905	8.9948e+01	3.9705	25.413769	0.000476	4.762712	1.613650	-0.000191
 906	9.0047e+01	3.9448	25.179616	0.000588	5.877389	1.991313	-0.000235
 907	9.0147e+01	3.8967	25.001982	0.000446	4.458709	1.510651	-0.000179
 908	9.0246e+01	3.8614	24.824348	0.000446	4.458709	1.510651	-0.000179
 909	9.0346e+01	3.8133	24.574045	0.000628	6.282726	2.128645	-0.000252
 910	9.0445e+01	3.7828	24.364114	0.000527	5.269383	1.785315	-0.000211
 911	9.0545e+01	3.7395	24.146109	0.000547	5.472052	1.853981	-0.000219
 912	9.0644e+01	3.7026	23.952326	0.000486	4.864046	1.647983	-0.000195
 913	9.0744e+01	3.6496	23.778729	0.000436	4.357374	1.476318	-0.000174
 914	9.0844e+01	3.6224	23.540538	0.000598	5.978723	2.025646	-0.000239
 915	9.0943e+01	3.5823	23.322533	0.000547	5.472052	1.853981	-0.000219
 916	9.1043e+01	3.5454	23.108565	0.000537	5.370717	1.819648	-0.000215
 917	9.1142e+01	3.4988	22.890560	0.000547	5.472052	1.853981	-0.000219
 918	9.1242e+01	3.4603	22.696777	0.000486	4.864046	1.647983	-0.000195
 919	9.1341e+01	3.4154	22.486846	0.000527	5.269383	1.785315	-0.000211
 920	9.1441e+01	3.3769	22.276915	0.000527	5.269383	1.785315	-0.000211
 921	9.1540e+01	3.3432	22.058910	0.000547	5.472052	1.853981	-0.000219
 922	9.1639e+01	3.3015	21.881276	0.000446	4.458709	1.510651	-0.000179
 923	9.1739e+01	3.2598	21.671345	0.000527	5.269383	1.785315	-0.000211
 924	9.1838e+01	3.2133	21.437191	0.000588	5.877389	1.991313	-0.000235
 925	9.1938e+01	3.1812	21.223223	0.000537	5.370717	1.819648	-0.000215
 926	9.2037e+01	3.1523	21.057700	0.000415	4.154706	1.407652	-0.000166
 927	9.2137e+01	3.1026	20.811435	0.000618	6.181392	2.094312	-0.000248
 928	9.2237e+01	3.0609	20.613615	0.000497	4.965380	1.682316	-0.000199
 929	9.2336e+01	3.0176	20.403684	0.000527	5.269383	1.785315	-0.000211
 930	9.2436e+01	2.9791	20.213939	0.000476	4.762712	1.613650	-0.000191
 931	9.2535e+01	2.9374	19.963636	0.000628	6.282726	2.128645	-0.000252
 932	9.2635e+01	2.9085	19.777928	0.000466	4.661377	1.579317	-0.000187
 933	9.2734e+01	2.8684	19.600294	0.000446	4.458709	1.510651	-0.000179
 934	9.2834e+01	2.8170	19.354029	0.000618	6.181392	2.094312	-0.000248
 935	9.2933e+01	2.7898	19.180432	0.000436	4.357374	1.476318	-0.000174
 936	9.3032e+01	2.7416	18.934167	0.000618	6.181392	2.094312	-0.000248
 937	9.3132e+01	2.7015	18.695976	0.000598	5.978723	2.025646	-0.000239
 938	9.3231e+01	2.6694	18.550639	0.000365	3.648034	1.235988	-0.000146
 939	9.3331e+01	2.6197	18.328596	0.000557	5.573386	1.888314	-0.000223
 940	9.3430e+01	2.5876	18.114628	0.000537	5.370717	1.819648	-0.000215
 941	9.3530e+01	2.5491	17.888548	0.000567	5.674720	1.922647	-0.000227
 942	9.3629e+01	2.4978	17.723026	0.000415	4.154706	1.407652	-0.000166
 943	9.3729e+01	2.4577	17.549429	0.000436	4.357374	1.476318	-0.000174
 944	9.3829e+01	2.4208	17.266830	0.000709	7.093400	2.403309	-0.000284
 945	9.3928e+01	2.3791	17.097270	0.000426	4.256040	1.441985	-0.000170
 946	9.4028e+01	2.3390	16.834856	0.000659	6.586729	2.231644	-0.000264
 947	9.4127e+01	2.3005	16.677408	0.000395	3.952037	1.338986	-0.000158
 948	9.4227e+01	2.2716	16.483625	0.000486	4.864046	1.647983	-0.000195
 949	9.4326e+01	2.2251	16.261583	0.000557	5.573386	1.888314	-0.000223
 950	9.4425e+01	2.1834	16.035503	0.000567	5.674720	1.922647	-0.000227
 951	9.4525e+01	2.1384	15.837684	0.000497	4.965380	1.682316	-0.000199
 952	9.4624e+01	2.1112	15.607567	0.000578	5.776055	1.956980	-0.000231
 953	9.4724e+01	2.0582	15.450118	0.000395	3.952037	1.338986	-0.000158
 954	9.4823e+01	2.0213	15.191742	0.000649	6.485395	2.197311	-0.000260
 955	9.4923e+01	1.9828	14.985848	0.000517	5.168049	1.750982	-0.000207
 956	9.5022e+01	1.9411	14.755731	0.000578	5.776055	1.956980	-0.000231
 957	9.5122e+01	1.9010	14.565986	0.000476	4.762712	1.613650	-0.000191
 958	9.5222e+01	1.8689	14.360092	0.000517	5.168049	1.750982	-0.000207
 959	9.5321e+01	1.8272	14.174384	0.000466	4.661377	1.579317	-0.000187
 960	9.5421e+01	1.7855	13.964453	0.000527	5.269383	1.785315	-0.000211
 961	9.5520e+01	1.7454	13.774707	0.000476	4.762712	1.613650	-0.000191
 962	9.5620e+01	1.6989	13.560739	0.000537	5.370717	1.819648	-0.000215
 963	9.5719e+01	1.6700	13.334659	0.000567	5.674720	1.922647	-0.000227
 964	9.5819e+01	1.6203	13.112617	0.000557	5.573386	1.888314	-0.000223
 965	9.5918e+01	1.5866	12.906723	0.000517	5.168049	1.750982	-0.000207
 966	9.6017e+01	1.5385	12.696792	0.000527	5.269383	1.785315	-0.000211
 967	9.6117e+01	1.5064	12.515121	0.000456	4.560043	1.544984	-0.000183
 968	9.6216e+01	1.4679	12.280967	0.000588	5.877389	1.991313	-0.000235
 969	9.6316e+01	1.4294	12.083147	0.000497	4.965380	1.682316	-0.000199
 970	9.6415e+01	1.3828	11.885328	0.000497	4.965380	1.682316	-0.000199
 971	9.6515e+01	1.3572	11.647137	0.000598	5.978723	2.025646	-0.000239
 972	9.6615e+01	1.3091	11.429131	0.000547	5.472052	1.853981	-0.000219
 973	9.6714e+01	1.2657	11.283794	0.000365	3.648034	1.235988	-0.000146
 974	9.6814e+01	1.2353	11.029455	0.000638	6.384060	2.162978	-0.000256
 975	9.6913e+01	1.1968	10.843747	0.000466	4.661377	1.579317	-0.000187
 976	9.7013e+01	1.1583	10.573258	0.000679	6.789397	2.300310	-0.000272
 977	9.7112e+01	1.1005	10.391587	0.000456	4.560043	1.544984	-0.000183
 978	9.7212e+01	1.0684	10.193768	0.000497	4.965380	1.682316	-0.000199
 979	9.7311e+01	1.0283	9.967688	0.000567	5.674720	1.922647	-0.000227
 980	9.7410e+01	0.9898	9.777943	0.000476	4.762712	1.613650	-0.000191
 981	9.7510e+01	0.9433	9.535715	0.000608	6.080057	2.059979	-0.000243
 982	9.7609e+01	0.9112	9.378266	0.000395	3.952037	1.338986	-0.000158
 983	9.7709e+01	0.8711	9.168335	0.000527	5.269383	1.785315	-0.000211
 984	9.7808e+01	0.8182	8.958404	0.000527	5.269383	1.785315	-0.000211
 985	9.7908e+01	0.7941	8.716176	0.000608	6.080057	2.059979	-0.000243
 986	9.8007e+01	0.7444	8.498171	0.000547	5.472052	1.853981	-0.000219
 987	9.8107e+01	0.7107	8.304388	0.000486	4.864046	1.647983	-0.000195
 988	9.8207e+01	0.6818	8.086383	0.000547	5.472052	1.853981	-0.000219
 989	9.8306e+01	0.6337	7.876452	0.000527	5.269383	1.785315	-0.000211
 990	9.8406e+01	0.5871	7.666521	0.000527	5.269383	1.785315	-0.000211
 991	9.8505e+01	0.5470	7.464664	0.000507	5.066715	1.716649	-0.000203
 992	9.8605e+01	0.5150	7.258770	0.000517	5.168049	1.750982	-0.000207
 993	9.8704e+01	0.4749	7.064988	0.000486	4.864046	1.647983	-0.000195
 994	9.8803e+01	0.4347	6.814685	0.000628	6.282726	2.128645	-0.000252
 995	9.8903e+01	0.3850	6.645125	0.000426	4.256040	1.441985	-0.000170
 996	9.9002e+01	0.3513	6.443269	0.000507	5.066715	1.716649	-0.000203
 997	9.9102e+01	0.3096	6.184892	0.000649	6.485395	2.197311	-0.000260
 998	9.9201e+01	0.2743	6.007258	0.000446	4.458709	1.510651	-0.000179
 999	9.9301e+01	0.2278	5.805401	0.000507	5.066715	1.716649	-0.000203
1000	9.9400e+01	0.2005	5.571247	0.000588	5.877389	1.991313	-0.000235
1001	9.9500e+01	0.1476	5.377465	0.000486	4.864046	1.647983	-0.000195
1002	9.9600e+01	0.1075	5.167534	0.000527	5.269383	1.785315	-0.000211
1003	9.9699e+01	0.0770	4.929343	0.000598	5.978723	2.025646	-0.000239
1004	9.9799e+01	0.0209	4.751709	0.000446	4.458709	1.510651	-0.000179
1005	9.9898e+01	-0.0048	4.606372	0.000365	3.648034	1.235988	-0.000146
1006	9.9998e+01	-0.0433	4.368181	0.000598	5.978723	2.025646	-0.000239
1007	1.0010e+02	-0.0754	4.154213	0.000537	5.370717	1.819648	-0.000215
1008	1.0020e+02	-0.1219	3.960430	0.000486	4.864046	1.647983	-0.000195
1009	1.0030e+02	-0.1620	3.714165	0.000618	6.181392	2.094312	-0.000248
1010	1.0040e+02	-0.1973	3.536531	0.000446	4.458709	1.510651	-0.000179
1011	1.0050e+02	-0.2390	3.354860	0.000456	4.560043	1.544984	-0.000183
1012	1.0059e+02	-0.2872	3.096483	0.000649	6.485395	2.197311	-0.000260
1013	1.0069e+02	-0.3289	2.939035	0.000395	3.952037	1.338986	-0.000158
1014	1.0079e+02	-0.3610	2.676621	0.000659	6.586729	2.231644	-0.000264
1015	1.0089e+02	-0.4027	2.462653	0.000537	5.370717	1.819648	-0.000215
1016	1.0099e+02	-0.4380	2.232536	0.000578	5.776055	1.956980	-0.000231
1017	1.0109e+02	-0.4829	2.071051	0.000405	4.053372	1.373319	-0.000162
1018	1.0119e+02	-0.5214	1.832860	0.000598	5.978723	2.025646	-0.000239
1019	1.0129e+02	-0.5551	1.622929	0.000527	5.269383	1.785315	-0.000211
1020	1.0139e+02	-0.6032	1.441257	0.000456	4.560043	1.544984	-0.000183
1021	1.0149e+02	-0.6417	1.235364	0.000517	5.168049	1.750982	-0.000207
1022	1.0159e+02	-0.6786	0.997173	0.000598	5.978723	2.025646	-0.000239
1023	1.0169e+02	-0.7155	0.787241	0.000527	5.269383	1.785315	-0.000211
1024	1.0179e+02	-0.7588	0.565199	0.000557	5.573386	1.888314	-0.000223
1025	1.0189e+02	-0.7925	0.375454	0.000476	4.762712	1.613650	-0.000191
1026	1.0199e+02	-0.8342	0.141300	0.000588	5.877389	1.991313	-0.000235
1027	1.0209e+02	-0.8727	-0.052483	0.000486	4.864046	1.647983	-0.000195
1028	1.0219e+02	-0.9112	-0.306822	0.000638	6.384060	2.162978	-0.000256
1029	1.0229e+02	-0.9657	-0.468308	0.000405	4.053372	1.373319	-0.000162
1030	1.0239e+02	-0.9962	-0.666127	0.000497	4.965380	1.682316	-0.000199
1031	1.0248e+02	-1.0331	-0.884133	0.000547	5.472052	1.853981	-0.000219
1032	1.0258e+02	-1.0829	-1.110212	0.000567	5.674720	1.922647	-0.000227
1033	1.0268e+02	-1.1182	-1.303995	0.000486	4.864046	1.647983	-0.000195
1034	1.0278e+02	-1.1534	-1.497777	0.000486	4.864046	1.647983	-0.000195
1035	1.0288e+02	-1.1952	-1.764228	0.000669	6.688063	2.265977	-0.000268
1036	1.0298e+02	-1.2288	-1.937825	0.000436	4.357374	1.476318	-0.000174
1037	1.0308e+02	-1.2706	-2.115459	0.000446	4.458709	1.510651	-0.000179
1038	1.0318e+02	-1.3171	-2.369799	0.000638	6.384060	2.162978	-0.000256
1039	1.0328e+02	-1.3588	-2.579730	0.000527	5.269383	1.785315	-0.000211
1040	1.0338e+02	-1.3989	-2.793698	0.000537	5.370717	1.819648	-0.000215
1041	1.0348e+02	-1.4326	-2.971332	0.000446	4.458709	1.510651	-0.000179
1042	1.0358e+02	-1.4711	-3.193374	0.000557	5.573386	1.888314	-0.000223
1043	1.0368e+02	-1.5160	-3.415417	0.000557	5.573386	1.888314	-0.000223
1044	1.0378e+02	-1.5513	-3.584977	0.000426	4.256040	1.441985	-0.000170
1045	1.0388e+02	-1.5946	-3.827205	0.000608	6.080057	2.059979	-0.000243
1046	1.0398e+02	-1.6299	-4.053284	0.000567	5.674720	1.922647	-0.000227
1047	1.0408e+02	-1.6812	-4.263215	0.000527	5.269383	1.785315	-0.000211
1048	1.0418e+02	-1.7149	-4.424701	0.000405	4.053372	1.373319	-0.000162
1049	1.0428e+02	-1.7470	-4.646743	0.000557	5.573386	1.888314	-0.000223
1050	1.0438e+02	-1.7887	-4.820340	0.000436	4.357374	1.476318	-0.000174
1051	1.0447e+02	-1.8368	-5.082754	0.000659	6.586729	2.231644	-0.000264
1052	1.0457e+02	-1.8770	-5.264425	0.000456	4.560043	1.544984	-0.000183
1053	1.0467e+02	-1.9138	-5.486467	0.000557	5.573386	1.888314	-0.000223
1054	1.0477e+02	-1.9507	-5.688324	0.000507	5.066715	1.716649	-0.000203
1055	1.0487e+02	-1.9892	-5.890181	0.000507	5.066715	1.716649	-0.000203
1056	1.0497e+02	-2.0342	-6.100112	0.000527	5.269383	1.785315	-0.000211
1057	1.0507e+02	-2.0807	-6.269672	0.000426	4.256040	1.441985	-0.000170
1058	1.0517e+02	-2.1208	-6.507863	0.000598	5.978723	2.025646	-0.000239
1059	1.0527e+02	-2.1529	-6.721831	0.000537	5.370717	1.819648	-0.000215
1060	1.0537e+02	-2.1962	-6.972133	0.000628	6.282726	2.128645	-0.000252
1061	1.0547e+02	-2.2395	-7.165916	0.000486	4.864046	1.647983	-0.000195
1062	1.0557e+02	-2.2652	-7.367773	0.000507	5.066715	1.716649	-0.000203
1063	1.0567e+02	-2.3117	-7.577704	0.000527	5.269383	1.785315	-0.000211
1064	1.0577e+02	-2.3502	-7.795709	0.000547	5.472052	1.853981	-0.000219
1065	1.0587e+02	-2.3919	-8.021789	0.000567	5.674720	1.922647	-0.000227
1066	1.0597e+02	-2.4352	-8.171163	0.000375	3.749369	1.270321	-0.000150
1067	1.0607e+02	-2.4673	-8.381094	0.000527	5.269383	1.785315	-0.000211
1068	1.0617e+02	-2.5106	-8.558728	0.000446	4.458709	1.510651	-0.000179
1069	1.0627e+02	-2.5539	-8.829216	0.000679	6.789397	2.300310	-0.000272
1070	1.0637e+02	-2.5908	-9.031073	0.000507	5.066715	1.716649	-0.000203
1071	1.0647e+02	-2.6261	-9.212744	0.000456	4.560043	1.544984	-0.000183
1072	1.0656e+02	-2.6646	-9.422675	0.000527	5.269383	1.785315	-0.000211
1073	1.0666e+02	-2.7160	-9.588197	0.000415	4.154706	1.407652	-0.000166
1074	1.0676e+02	-2.7513	-9.838500	0.000628	6.282726	2.128645	-0.000252
1075	1.0686e+02	-2.7882	-10.080728	0.000608	6.080057	2.059979	-0.000243
1076	1.0696e+02	-2.8202	-10.230102	0.000375	3.749369	1.270321	-0.000150
1077	1.0706e+02	-2.8780	-10.452144	0.000557	5.573386	1.888314	-0.000223
1078	1.0716e+02	-2.9117	-10.674187	0.000557	5.573386	1.888314	-0.000223
1079	1.0726e+02	-2.9630	-10.884118	0.000527	5.269383	1.785315	-0.000211
1080	1.0736e+02	-2.9903	-11.090012	0.000517	5.168049	1.750982	-0.000207
1081	1.0746e+02	-3.0304	-11.279757	0.000476	4.762712	1.613650	-0.000191
1082	1.0756e+02	-3.0753	-11.485651	0.000517	5.168049	1.750982	-0.000207
1083	1.0766e+02	-3.1058	-11.744028	0.000649	6.485395	2.197311	-0.000260
1084	1.0776e+02	-3.1459	-11.909550	0.000415	4.154706	1.407652	-0.000166
1085	1.0786e+02	-3.1844	-12.123519	0.000537	5.370717	1.819648	-0.000215
1086	1.0796e+02	-3.2293	-12.329413	0.000517	5.168049	1.750982	-0.000207
1087	1.0806e+02	-3.2710	-12.539344	0.000527	5.269383	1.785315	-0.000211
1088	1.0816e+02	-3.3015	-12.716978	0.000446	4.458709	1.510651	-0.000179
1089	1.0826e+02	-3.3448	-12.922871	0.000517	5.168049	1.750982	-0.000207
1090	1.0836e+02	-3.3817	-13.096468	0.000436	4.357374	1.476318	-0.000174
1091	1.0845e+02	-3.4266	-13.326585	0.000578	5.776055	1.956980	-0.000231
1092	1.0855e+02	-3.4667	-13.512293	0.000466	4.661377	1.579317	-0.000187
1093	1.0865e+02	-3.5101	-13.734336	0.000557	5.573386	1.888314	-0.000223
1094	1.0875e+02	-3.5454	-13.956378	0.000557	5.573386	1.888314	-0.000223
1095	1.0885e+02	-3.5871	-14.117864	0.000405	4.053372	1.373319	-0.000162
1096	1.0895e+02	-3.6256	-14.339906	0.000557	5.573386	1.888314	-0.000223
1097	1.0905e+02	-3.6737	-14.533689	0.000486	4.864046	1.647983	-0.000195
1098	1.0915e+02	-3.6962	-14.763805	0.000578	5.776055	1.956980	-0.000231
1099	1.0925e+02	-3.7507	-14.973736	0.000527	5.269383	1.785315	-0.000211
1100	1.0935e+02	-3.7876	-15.155408	0.000456	4.560043	1.544984	-0.000183
1101	1.0945e+02	-3.8213	-15.393599	0.000598	5.978723	2.025646	-0.000239
1102	1.0955e+02	-3.8694	-15.559121	0.000415	4.154706	1.407652	-0.000166
1103	1.0965e+02	-3.9063	-15.748867	0.000476	4.762712	1.613650	-0.000191
1104	1.0975e+02	-3.9448	-15.987058	0.000598	5.978723	2.025646	-0.000239
1105	1.0985e+02	-3.9849	-16.217174	0.000578	5.776055	1.956980	-0.000231
1106	1.0995e+02	-4.0282	-16.386734	0.000426	4.256040	1.441985	-0.000170
1107	1.1005e+02	-4.0699	-16.616851	0.000578	5.776055	1.956980	-0.000231
1108	1.1015e+02	-4.1036	-16.774299	0.000395	3.952037	1.338986	-0.000158
1109	1.1025e+02	-4.1421	-16.996341	0.000557	5.573386	1.888314	-0.000223
1110	1.1035e+02	-4.1870	-17.222421	0.000567	5.674720	1.922647	-0.000227
1111	1.1044e+02	-4.2207	-17.343535	0.000304	3.040029	1.029990	-0.000122
1112	1.1054e+02	-4.2608	-17.597875	0.000638	6.384060	2.162978	-0.000256
1113	1.1064e+02	-4.3138	-17.803769	0.000517	5.168049	1.750982	-0.000207
1114	1.1074e+02	-4.3427	-17.993514	0.000476	4.762712	1.613650	-0.000191
1115	1.1084e+02	-4.3828	-18.163074	0.000426	4.256040	1.441985	-0.000170
1116	1.1094e+02	-4.4261	-18.381079	0.000547	5.472052	1.853981	-0.000219
1117	1.1104e+02	-4.4566	-18.599084	0.000547	5.472052	1.853981	-0.000219
1118	1.1114e+02	-4.5031	-18.788830	0.000476	4.762712	1.613650	-0.000191
1119	1.1124e+02	-4.5528	-18.990687	0.000507	5.066715	1.716649	-0.000203
1120	1.1134e+02	-4.5769	-19.236952	0.000618	6.181392	2.094312	-0.000248
1121	1.1144e+02	-4.6154	-19.398437	0.000405	4.053372	1.373319	-0.000162
1122	1.1154e+02	-4.6651	-19.628554	0.000578	5.776055	1.956980	-0.000231
1123	1.1164e+02	-4.7036	-19.786002	0.000395	3.952037	1.338986	-0.000158
1124	1.1174e+02	-4.7389	-20.004008	0.000547	5.472052	1.853981	-0.000219
1125	1.1184e+02	-4.7790	-20.234124	0.000578	5.776055	1.956980	-0.000231
1126	1.1194e+02	-4.8352	-20.403684	0.000426	4.256040	1.441985	-0.000170
1127	1.1204e+02	-4.8624	-20.589392	0.000466	4.661377	1.579317	-0.000187
1128	1.1214e+02	-4.9041	-20.783175	0.000486	4.864046	1.647983	-0.000195
1129	1.1224e+02	-4.9410	-20.989069	0.000517	5.168049	1.750982	-0.000207
1130	1.1234e+02	-4.9811	-21.255520	0.000669	6.688063	2.265977	-0.000268
1131	1.1244e+02	-5.0212	-21.421042	0.000415	4.154706	1.407652	-0.000166
1132	1.1253e+02	-5.0630	-21.582528	0.000405	4.053372	1.373319	-0.000162
1133	1.1263e+02	-5.1015	-21.828793	0.000618	6.181392	2.094312	-0.000248
1134	1.1273e+02	-5.1384	-22.010464	0.000456	4.560043	1.544984	-0.000183
1135	1.1283e+02	-5.1945	-22.188098	0.000446	4.458709	1.510651	-0.000179
1136	1.1293e+02	-5.2202	-22.414178	0.000567	5.674720	1.922647	-0.000227
1137	1.1303e+02	-5.2603	-22.636220	0.000557	5.573386	1.888314	-0.000223
1138	1.1313e+02	-5.2908	-22.825965	0.000476	4.762712	1.613650	-0.000191
1139	1.1323e+02	-5.3373	-23.060119	0.000588	5.877389	1.991313	-0.000235
1140	1.1333e+02	-5.3710	-23.209493	0.000375	3.749369	1.270321	-0.000150
1141	1.1343e+02	-5.4223	-23.415387	0.000517	5.168049	1.750982	-0.000207
1142	1.1353e+02	-5.4624	-23.588984	0.000436	4.357374	1.476318	-0.000174
1143	1.1363e+02	-5.4993	-23.811027	0.000557	5.573386	1.888314	-0.000223
1144	1.1373e+02	-5.5298	-24.004809	0.000486	4.864046	1.647983	-0.000195
1145	1.1383e+02	-5.5956	-24.214740	0.000527	5.269383	1.785315	-0.000211
1146	1.1393e+02	-5.6196	-24.372188	0.000395	3.952037	1.338986	-0.000158
1147	1.1403e+02	-5.6645	-24.610379	0.000598	5.978723	2.025646	-0.000239
1148	1.1413e+02	-5.6950	-24.792051	0.000456	4.560043	1.544984	-0.000183
1149	1.1423e+02	-5.7351	-25.006019	0.000537	5.370717	1.819648	-0.000215
1150	1.1433e+02	-5.7897	-25.203838	0.000497	4.965380	1.682316	-0.000199
1151	1.1442e+02	-5.8186	-25.417807	0.000537	5.370717	1.819648	-0.000215
1152	1.1452e+02	-5.8651	-25.571218	0.000385	3.850703	1.304654	-0.000154
1153	1.1462e+02	-5.8923	-25.789223	0.000547	5.472052	1.853981	-0.000219
1154	1.1472e+02	-5.9341	-25.983006	0.000486	4.864046	1.647983	-0.000195
1155	1.1482e+02	-5.9806	-26.205048	0.000557	5.573386	1.888314	-0.000223
1156	1.1492e+02	-6.0159	-26.382682	0.000446	4.458709	1.510651	-0.000179
1157	1.1502e+02	-6.0640	-26.568390	0.000466	4.661377	1.579317	-0.000187
1158	1.1512e+02	-6.0977	-26.782358	0.000537	5.370717	1.819648	-0.000215
1159	1.1522e+02	-6.1362	-26.955955	0.000436	4.357374	1.476318	-0.000174
1160	1.1532e+02	-6.1875	-27.198183	0.000608	6.080057	2.059979	-0.000243
1161	1.1542e+02	-6.2084	-27.355632	0.000395	3.952037	1.338986	-0.000158
1162	1.1552e+02	-6.2565	-27.585748	0.000578	5.776055	1.956980	-0.000231
1163	1.1562e+02	-6.3030	-27.767420	0.000456	4.560043	1.544984	-0.000183
1164	1.1572e+02	-6.3512	-27.997536	0.000578	5.776055	1.956980	-0.000231
1165	1.1582e+02	-6.3688	-28.175170	0.000446	4.458709	1.510651	-0.000179
1166	1.1592e+02	-6.4233	-28.352804	0.000446	4.458709	1.510651	-0.000179
1167	1.1602e+02	-6.4554	-28.522364	0.000426	4.256040	1.441985	-0.000170
1168	1.1612e+02	-6.4987	-28.699998	0.000446	4.458709	1.510651	-0.000179
1169	1.1622e+02	-6.5260	-28.962412	0.000659	6.586729	2.231644	-0.000264
1170	1.1632e+02	-6.5645	-29.127934	0.000415	4.154706	1.407652	-0.000166
1171	1.1642e+02	-6.6126	-29.297494	0.000426	4.256040	1.441985	-0.000170
1172	1.1651e+02	-6.6560	-29.495314	0.000497	4.965380	1.682316	-0.000199
1173	1.1661e+02	-6.6864	-29.709282	0.000537	5.370717	1.819648	-0.000215
1174	1.1671e+02	-6.7282	-29.894990	0.000466	4.661377	1.579317	-0.000187
1175	1.1681e+02	-6.7586	-30.088773	0.000486	4.864046	1.647983	-0.000195
1176	1.1691e+02	-6.8100	-30.278518	0.000476	4.762712	1.613650	-0.000191
1177	1.1701e+02	-6.8501	-30.431929	0.000385	3.850703	1.304654	-0.000154
1178	1.1711e+02	-6.8982	-30.649935	0.000547	5.472052	1.853981	-0.000219
1179	1.1721e+02	-6.9207	-30.847754	0.000497	4.965380	1.682316	-0.000199
1180	1.1731e+02	-6.9816	-31.045574	0.000497	4.965380	1.682316	-0.000199
1181	1.1741e+02	-7.0153	-31.287802	0.000608	6.080057	2.059979	-0.000243
1182	1.1751e+02	-7.0490	-31.449287	0.000405	4.053372	1.373319	-0.000162
1183	1.1761e+02	-7.0859	-31.675367	0.000567	5.674720	1.922647	-0.000227
1184	1.1771e+02	-7.1276	-31.808592	0.000334	3.344032	1.132989	-0.000134
1185	1.1781e+02	-7.1757	-32.066969	0.000649	6.485395	2.197311	-0.000260
1186	1.1791e+02	-7.2078	-32.240566	0.000436	4.357374	1.476318	-0.000174
1187	1.1801e+02	-7.2479	-32.422237	0.000456	4.560043	1.544984	-0.000183
1188	1.1811e+02	-7.2864	-32.656391	0.000588	5.877389	1.991313	-0.000235
1189	1.1821e+02	-7.3249	-32.821914	0.000415	4.154706	1.407652	-0.000166
1190	1.1831e+02	-7.3763	-33.015696	0.000486	4.864046	1.647983	-0.000195
1191	1.1841e+02	-7.4164	-33.189293	0.000436	4.357374	1.476318	-0.000174
1192	1.1850e+02	-7.4452	-33.431521	0.000608	6.080057	2.059979	-0.000243
1193	1.1860e+02	-7.4870	-33.645489	0.000537	5.370717	1.819648	-0.000215
1194	1.1870e+02	-7.5271	-33.786789	0.000355	3.546700	1.201655	-0.000142
1195	1.1880e+02	-7.5752	-34.024980	0.000598	5.978723	2.025646	-0.000239
1196	1.1890e+02	-7.6041	-34.174354	0.000375	3.749369	1.270321	-0.000150
1197	1.1900e+02	-7.6602	-34.380248	0.000517	5.168049	1.750982	-0.000207
1198	1.1910e+02	-7.6779	-34.590179	0.000527	5.269383	1.785315	-0.000211
1199	1.1920e+02	-7.7244	-34.796073	0.000517	5.168049	1.750982	-0.000207
1200	1.1930e+02	-7.7677	-34.985818	0.000476	4.762712	1.613650	-0.000191
1201	1.1940e+02	-7.8030	-35.143267	0.000395	3.952037	1.338986	-0.000158
1202	1.1950e+02	-7.8495	-35.373383	0.000578	5.776055	1.956980	-0.000231
1203	1.1960e+02	-7.8768	-35.559092	0.000466	4.661377	1.579317	-0.000187
1204	1.1970e+02	-7.9233	-35.728651	0.000426	4.256040	1.441985	-0.000170
1205	1.1980e+02	-7.9714	-35.938582	0.000527	5.269383	1.785315	-0.000211
1206	1.1990e+02	-8.0083	-36.172736	0.000588	5.877389	1.991313	-0.000235
1207	1.2000e+02	-8.0468	-36.342296	0.000426	4.256040	1.441985	-0.000170
1208	1.2010e+02	-8.0918	-36.491670	0.000375	3.749369	1.270321	-0.000150
1209	1.2020e+02	-8.1238	-36.693527	0.000507	5.066715	1.716649	-0.000203
1210	1.2030e+02	-8.1623	-36.899421	0.000517	5.168049	1.750982	-0.000207
1211	1.2039e+02	-8.2153	-37.073017	0.000436	4.357374	1.476318	-0.000174
1212	1.2049e+02	-8.2425	-37.286986	0.000537	5.370717	1.819648	-0.000215
1213	1.2059e+02	-8.2827	-37.448471	0.000405	4.053372	1.373319	-0.000162
1214	1.2069e+02	-8.3163	-37.650328	0.000507	5.066715	1.716649	-0.000203
1215	1.2079e+02	-8.3661	-37.836036	0.000466	4.661377	1.579317	-0.000187
1216	1.2089e+02	-8.3998	-38.025782	0.000476	4.762712	1.613650	-0.000191
1217	1.2099e+02	-8.4511	-38.239750	0.000537	5.370717	1.819648	-0.000215
1218	1.2109e+02	-8.4816	-38.417384	0.000446	4.458709	1.510651	-0.000179
1219	1.2119e+02	-8.5281	-38.611166	0.000486	4.864046	1.647983	-0.000195
1220	1.2129e+02	-8.5682	-38.780726	0.000426	4.256040	1.441985	-0.000170
1221	1.2139e+02	-8.6083	-38.954323	0.000436	4.357374	1.476318	-0.000174
1222	1.2149e+02	-8.6468	-39.152142	0.000497	4.965380	1.682316	-0.000199
1223	1.2159e+02	-8.6853	-39.358036	0.000517	5.168049	1.750982	-0.000207
1224	1.2169e+02	-8.7286	-39.567967	0.000527	5.269383	1.785315	-0.000211
1225	1.2179e+02	-8.7607	-39.753676	0.000466	4.661377	1.579317	-0.000187
1226	1.2189e+02	-8.8040	-39.907087	0.000385	3.850703	1.304654	-0.000154
1227	1.2199e+02	-8.8506	-40.076646	0.000426	4.256040	1.441985	-0.000170
1228	1.2209e+02	-8.8923	-40.290615	0.000537	5.370717	1.819648	-0.000215
1229	1.2219e+02	-8.9308	-40.488434	0.000497	4.965380	1.682316	-0.000199
1230	1.2229e+02	-8.9596	-40.666068	0.000446	4.458709	1.510651	-0.000179
1231	1.2239e+02	-9.0062	-40.867925	0.000507	5.066715	1.716649	-0.000203
1232	1.2248e+02	-9.0463	-41.069782	0.000507	5.066715	1.716649	-0.000203
1233	1.2258e+02	-9.0960	-41.287787	0.000547	5.472052	1.853981	-0.000219
1234	1.2268e+02	-9.1265	-41.400827	0.000284	2.837360	0.961324	-0.000114
1235	1.2278e+02	-9.1714	-41.634981	0.000588	5.877389	1.991313	-0.000235
1236	1.2288e+02	-9.2051	-41.768206	0.000334	3.344032	1.132989	-0.000134
1237	1.2298e+02	-9.2420	-41.957952	0.000476	4.762712	1.613650	-0.000191
1238	1.2308e+02	-9.2805	-42.224403	0.000669	6.688063	2.265977	-0.000268
1239	1.2318e+02	-9.3270	-42.349554	0.000314	3.141363	1.064323	-0.000126
1240	1.2328e+02	-9.3703	-42.559485	0.000527	5.269383	1.785315	-0.000211
1241	1.2338e+02	-9.4024	-42.777490	0.000547	5.472052	1.853981	-0.000219
1242	1.2348e+02	-9.4521	-42.934939	0.000395	3.952037	1.338986	-0.000158
1243	1.2358e+02	-9.4858	-43.112573	0.000446	4.458709	1.510651	-0.000179
1244	1.2368e+02	-9.5195	-43.278095	0.000415	4.154706	1.407652	-0.000166
1245	1.2378e+02	-9.5564	-43.479952	0.000507	5.066715	1.716649	-0.000203
1246	1.2388e+02	-9.6045	-43.689883	0.000527	5.269383	1.785315	-0.000211
1247	1.2398e+02	-9.6382	-43.879628	0.000476	4.762712	1.613650	-0.000191
1248	1.2408e+02	-9.6815	-44.016891	0.000345	3.445366	1.167322	-0.000138
1249	1.2418e+02	-9.7152	-44.238933	0.000557	5.573386	1.888314	-0.000223
1250	1.2428e+02	-9.7618	-44.424642	0.000466	4.661377	1.579317	-0.000187
1251	1.2438e+02	-9.7922	-44.590164	0.000415	4.154706	1.407652	-0.000166
1252	1.2447e+02	-9.8388	-44.779910	0.000476	4.762712	1.613650	-0.000191
1253	1.2457e+02	-9.8805	-44.949469	0.000426	4.256040	1.441985	-0.000170
1254	1.2467e+02	-9.9222	-45.175549	0.000567	5.674720	1.922647	-0.000227
1255	1.2477e+02	-9.9639	-45.357220	0.000456	4.560043	1.544984	-0.000183
1256	1.2487e+02	-10.0056	-45.522743	0.000415	4.154706	1.407652	-0.000166
1257	1.2497e+02	-10.0441	-45.724599	0.000507	5.066715	1.716649	-0.000203
1258	1.2507e+02	-10.0810	-45.906270	0.000456	4.560043	1.544984	-0.000183
1259	1.2517e+02	-10.1227	-46.100053	0.000486	4.864046	1.647983	-0.000195
1260	1.2527e+02	-10.1596	-46.301910	0.000507	5.066715	1.716649	-0.000203
1261	1.2537e+02	-10.1885	-46.463395	0.000405	4.053372	1.373319	-0.000162
1262	1.2547e+02	-10.2414	-46.669289	0.000517	5.168049	1.750982	-0.000207
1263	1.2557e+02	-10.2783	-46.794440	0.000314	3.141363	1.064323	-0.000126
1264	1.2567e+02	-10.3200	-47.008409	0.000537	5.370717	1.819648	-0.000215
1265	1.2577e+02	-10.3666	-47.234488	0.000567	5.674720	1.922647	-0.000227
1266	1.2587e+02	-10.4034	-47.400011	0.000415	4.154706	1.407652	-0.000166
1267	1.2597e+02	-10.4387	-47.569570	0.000426	4.256040	1.441985	-0.000170
1268	1.2607e+02	-10.4756	-47.735093	0.000415	4.154706	1.407652	-0.000166
1269	1.2617e+02	-10.5093	-47.924838	0.000476	4.762712	1.613650	-0.000191
1270	1.2627e+02	-10.5655	-48.106509	0.000456	4.560043	1.544984	-0.000183
1271	1.2636e+02	-10.5976	-48.276069	0.000426	4.256040	1.441985	-0.000170
1272	1.2646e+02	-10.6345	-48.498112	0.000557	5.573386	1.888314	-0.000223
1273	1.2656e+02	-10.6842	-48.647486	0.000375	3.749369	1.270321	-0.000150
1274	1.2666e+02	-10.7195	-48.808971	0.000405	4.053372	1.373319	-0.000162
1275	1.2676e+02	-10.7548	-49.010828	0.000507	5.066715	1.716649	-0.000203
1276	1.2686e+02	-10.7901	-49.188462	0.000446	4.458709	1.510651	-0.000179
1277	1.2696e+02	-10.8270	-49.370133	0.000456	4.560043	1.544984	-0.000183
1278	1.2706e+02	-10.8767	-49.547767	0.000446	4.458709	1.510651	-0.000179
1279	1.2716e+02	-10.9120	-49.753661	0.000517	5.168049	1.750982	-0.000207
1280	1.2726e+02	-10.9553	-49.898998	0.000365	3.648034	1.235988	-0.000146
1281	1.2736e+02	-11.0018	-50.104892	0.000517	5.168049	1.750982	-0.000207
1282	1.2746e+02	-11.0355	-50.343083	0.000598	5.978723	2.025646	-0.000239
1283	1.2756e+02	-11.0756	-50.448048	0.000263	2.634692	0.892658	-0.000105
1284	1.2766e+02	-11.1125	-50.641831	0.000486	4.864046	1.647983	-0.000195
1285	1.2776e+02	-11.1558	-50.847725	0.000517	5.168049	1.750982	-0.000207
1286	1.2786e+02	-11.2040	-51.001136	0.000385	3.850703	1.304654	-0.000154
1287	1.2796e+02	-11.2312	-51.170695	0.000426	4.256040	1.441985	-0.000170
1288	1.2806e+02	-11.2745	-51.340255	0.000426	4.256040	1.441985	-0.000170
1289	1.2816e+02	-11.3163	-51.525963	0.000466	4.661377	1.579317	-0.000187
1290	1.2826e+02	-11.3628	-51.691486	0.000415	4.154706	1.407652	-0.000166
1291	1.2835e+02	-11.4045	-51.909491	0.000547	5.472052	1.853981	-0.000219
1292	1.2845e+02	-11.4366	-52.038680	0.000324	3.242697	1.098656	-0.000130
1293	1.2855e+02	-11.4783	-52.240536	0.000507	5.066715	1.716649	-0.000203
1294	1.2865e+02	-11.5104	-52.414133	0.000436	4.357374	1.476318	-0.000174
1295	1.2875e+02	-11.5585	-52.591767	0.000446	4.458709	1.510651	-0.000179
1296	1.2885e+02	-11.5810	-52.809773	0.000547	5.472052	1.853981	-0.000219
1297	1.2895e+02	-11.6371	-52.963184	0.000385	3.850703	1.304654	-0.000154
1298	1.2905e+02	-11.6724	-53.120632	0.000395	3.952037	1.338986	-0.000158
1299	1.2915e+02	-11.7093	-53.370934	0.000628	6.282726	2.128645	-0.000252
1300	1.2925e+02	-11.7526	-53.528383	0.000395	3.952037	1.338986	-0.000158
1301	1.2935e+02	-11.7959	-53.689868	0.000405	4.053372	1.373319	-0.000162
1302	1.2945e+02	-11.8328	-53.794834	0.000263	2.634692	0.892658	-0.000105
1303	1.2955e+02	-11.8761	-54.037062	0.000608	6.080057	2.059979	-0.000243
1304	1.2965e+02	-11.9114	-54.190473	0.000385	3.850703	1.304654	-0.000154
1305	1.2975e+02	-11.9531	-54.408478	0.000547	5.472052	1.853981	-0.000219
1306	1.2985e+02	-11.9868	-54.574001	0.000415	4.154706	1.407652	-0.000166
1307	1.2995e+02	-12.0269	-54.755672	0.000456	4.560043	1.544984	-0.000183
1308	1.3005e+02	-12.0686	-54.937343	0.000456	4.560043	1.544984	-0.000183
1309	1.3015e+02	-12.1087	-55.114977	0.000446	4.458709	1.510651	-0.000179
1310	1.3025e+02	-12.1553	-55.320871	0.000517	5.168049	1.750982	-0.000207
1311	1.3034e+02	-12.1874	-55.478319	0.000395	3.952037	1.338986	-0.000158
1312	1.3044e+02	-12.2307	-55.643842	0.000415	4.154706	1.407652	-0.000166
1313	1.3054e+02	-12.2708	-55.805327	0.000405	4.053372	1.373319	-0.000162
1314	1.3064e+02	-12.3045	-55.966813	0.000405	4.053372	1.373319	-0.000162
1315	1.3074e+02	-12.3494	-56.180781	0.000537	5.370717	1.819648	-0.000215
1316	1.3084e+02	-12.3847	-56.342266	0.000405	4.053372	1.373319	-0.000162
1317	1.3094e+02	-12.4392	-56.499715	0.000395	3.952037	1.338986	-0.000158
1318	1.3104e+02	-12.4713	-56.681386	0.000456	4.560043	1.544984	-0.000183
1319	1.3114e+02	-12.5034	-56.859020	0.000446	4.458709	1.510651	-0.000179
1320	1.3124e+02	-12.5531	-57.068951	0.000527	5.269383	1.785315	-0.000211
1321	1.3134e+02	-12.5932	-57.222362	0.000385	3.850703	1.304654	-0.000154
1322	1.3144e+02	-12.6333	-57.424219	0.000507	5.066715	1.716649	-0.000203
1323	1.3154e+02	-12.6686	-57.565518	0.000355	3.546700	1.201655	-0.000142
1324	1.3164e+02	-12.7023	-57.731041	0.000415	4.154706	1.407652	-0.000166
1325	1.3174e+02	-12.7504	-57.940972	0.000527	5.269383	1.785315	-0.000211
1326	1.3184e+02	-12.7970	-58.118606	0.000446	4.458709	1.510651	-0.000179
1327	1.3194e+02	-12.8242	-58.251832	0.000334	3.344032	1.132989	-0.000134
1328	1.3204e+02	-12.8740	-58.461763	0.000527	5.269383	1.785315	-0.000211
1329	1.3214e+02	-12.9044	-58.635359	0.000436	4.357374	1.476318	-0.000174
1330	1.3224e+02	-12.9462	-58.796845	0.000405	4.053372	1.373319	-0.000162
1331	1.3234e+02	-12.9863	-58.966405	0.000426	4.256040	1.441985	-0.000170
1332	1.3243e+02	-13.0216	-59.152113	0.000466	4.661377	1.579317	-0.000187
1333	1.3253e+02	-13.0633	-59.305524	0.000385	3.850703	1.304654	-0.000154
1334	1.3263e+02	-13.1114	-59.527566	0.000557	5.573386	1.888314	-0.000223
1335	1.3273e+02	-13.1499	-59.624458	0.000243	2.432023	0.823992	-0.000097
1336	1.3283e+02	-13.1804	-59.862649	0.000598	5.978723	2.025646	-0.000239
1337	1.3293e+02	-13.2285	-60.024134	0.000405	4.053372	1.373319	-0.000162
1338	1.3303e+02	-13.2670	-60.177545	0.000385	3.850703	1.304654	-0.000154
1339	1.3313e+02	-13.3039	-60.391514	0.000537	5.370717	1.819648	-0.000215
1340	1.3323e+02	-13.3408	-60.544925	0.000385	3.850703	1.304654	-0.000154
1341	1.3333e+02	-13.3841	-60.706410	0.000405	4.053372	1.373319	-0.000162
1342	1.3343e+02	-13.4274	-60.835598	0.000324	3.242697	1.098656	-0.000130
1343	1.3353e+02	-13.4659	-61.081864	0.000618	6.181392	2.094312	-0.000248
1344	1.3363e+02	-13.5028	-61.259498	0.000446	4.458709	1.510651	-0.000179
1345	1.3373e+02	-13.5461	-61.412909	0.000385	3.850703	1.304654	-0.000154
1346	1.3383e+02	-13.5766	-61.590543	0.000446	4.458709	1.510651	-0.000179
1347	1.3393e+02	-13.6199	-61.772214	0.000456	4.560043	1.544984	-0.000183
1348	1.3403e+02	-13.6633	-61.937736	0.000415	4.154706	1.407652	-0.000166
1349	1.3413e+02	-13.7050	-62.103259	0.000415	4.154706	1.407652	-0.000166
1350	1.3423e+02	-13.7338	-62.272819	0.000426	4.256040	1.441985	-0.000170
1351	1.3432e+02	-13.7788	-62.454490	0.000456	4.560043	1.544984	-0.000183
1352	1.3442e+02	-13.8221	-62.595790	0.000355	3.546700	1.201655	-0.000142
1353	1.3452e+02	-13.8718	-62.833981	0.000598	5.978723	2.025646	-0.000239
1354	1.3462e+02	-13.9039	-62.959132	0.000314	3.141363	1.064323	-0.000126
1355	1.3472e+02	-13.9376	-63.165026	0.000517	5.168049	1.750982	-0.000207
1356	1.3482e+02	-13.9841	-63.314400	0.000375	3.749369	1.270321	-0.000150
1357	1.3492e+02	-14.0178	-63.508182	0.000486	4.864046	1.647983	-0.000195
1358	1.3502e+02	-14.0755	-63.665631	0.000395	3.952037	1.338986	-0.000158
1359	1.3512e+02	-14.1028	-63.851339	0.000466	4.661377	1.579317	-0.000187
1360	1.3522e+02	-14.1397	-64.061270	0.000527	5.269383	1.785315	-0.000211
1361	1.3532e+02	-14.1862	-64.251015	0.000476	4.762712	1.613650	-0.000191
1362	1.3542e+02	-14.2215	-64.400389	0.000375	3.749369	1.270321	-0.000150
1363	1.3552e+02	-14.2632	-64.529578	0.000324	3.242697	1.098656	-0.000130
1364	1.3562e+02	-14.2953	-64.699137	0.000426	4.256040	1.441985	-0.000170
1365	1.3572e+02	-14.3370	-64.896957	0.000497	4.965380	1.682316	-0.000199
1366	1.3582e+02	-14.3884	-65.086702	0.000476	4.762712	1.613650	-0.000191
1367	1.3592e+02	-14.4253	-65.244151	0.000395	3.952037	1.338986	-0.000158
1368	1.3602e+02	-14.4702	-65.429859	0.000466	4.661377	1.579317	-0.000187
1369	1.3612e+02	-14.5007	-65.555010	0.000314	3.141363	1.064323	-0.000126
1370	1.3622e+02	-14.5376	-65.760904	0.000517	5.168049	1.750982	-0.000207
1371	1.3631e+02	-14.5793	-65.926427	0.000415	4.154706	1.407652	-0.000166
1372	1.3641e+02	-14.6242	-66.116172	0.000476	4.762712	1.613650	-0.000191
1373	1.3651e+02	-14.6611	-66.261509	0.000365	3.648034	1.235988	-0.000146
1374	1.3661e+02	-14.7044	-66.431069	0.000426	4.256040	1.441985	-0.000170
1375	1.3671e+02	-14.7413	-66.624851	0.000486	4.864046	1.647983	-0.000195
1376	1.3681e+02	-14.7782	-66.806522	0.000456	4.560043	1.544984	-0.000183
1377	1.3691e+02	-14.8183	-66.943785	0.000345	3.445366	1.167322	-0.000138
1378	1.3701e+02	-14.8600	-67.161790	0.000547	5.472052	1.853981	-0.000219
1379	1.3711e+02	-14.9049	-67.307127	0.000365	3.648034	1.235988	-0.000146
1380	1.3721e+02	-14.9418	-67.456501	0.000375	3.749369	1.270321	-0.000150
1381	1.3731e+02	-14.9787	-67.646246	0.000476	4.762712	1.613650	-0.000191
1382	1.3741e+02	-15.0252	-67.848103	0.000507	5.066715	1.716649	-0.000203
1383	1.3751e+02	-15.0589	-67.969217	0.000304	3.040029	1.029990	-0.000122
1384	1.3761e+02	-15.0990	-68.138777	0.000426	4.256040	1.441985	-0.000170
1385	1.3771e+02	-15.1359	-68.336597	0.000497	4.965380	1.682316	-0.000199
1386	1.3781e+02	-15.1744	-68.490008	0.000385	3.850703	1.304654	-0.000154
1387	1.3791e+02	-15.2097	-68.683790	0.000486	4.864046	1.647983	-0.000195
1388	1.3801e+02	-15.2546	-68.865461	0.000456	4.560043	1.544984	-0.000183
1389	1.3811e+02	-15.3076	-69.006761	0.000355	3.546700	1.201655	-0.000142
1390	1.3821e+02	-15.3365	-69.188432	0.000456	4.560043	1.544984	-0.000183
1391	1.3831e+02	-15.3814	-69.390289	0.000507	5.066715	1.716649	-0.000203
1392	1.3840e+02	-15.4231	-69.515440	0.000314	3.141363	1.064323	-0.000126
1393	1.3850e+02	-15.4648	-69.705186	0.000476	4.762712	1.613650	-0.000191
1394	1.3860e+02	-15.5017	-69.894931	0.000476	4.762712	1.613650	-0.000191
1395	1.3870e+02	-15.5306	-70.076602	0.000456	4.560043	1.544984	-0.000183
1396	1.3880e+02	-15.5723	-70.225976	0.000375	3.749369	1.270321	-0.000150
1397	1.3890e+02	-15.6076	-70.403610	0.000446	4.458709	1.510651	-0.000179
1398	1.3900e+02	-15.6525	-70.569133	0.000415	4.154706	1.407652	-0.000166
1399	1.3910e+02	-15.6910	-70.734655	0.000415	4.154706	1.407652	-0.000166
1400	1.3920e+02	-15.7295	-70.912289	0.000446	4.458709	1.510651	-0.000179
1401	1.3930e+02	-15.7808	-71.097997	0.000466	4.661377	1.579317	-0.000187
1402	1.3940e+02	-15.8129	-71.275631	0.000446	4.458709	1.510651	-0.000179
1403	1.3950e+02	-15.8546	-71.445191	0.000426	4.256040	1.441985	-0.000170
1404	1.3960e+02	-15.9028	-71.638974	0.000486	4.864046	1.647983	-0.000195
1405	1.3970e+02	-15.9348	-71.772199	0.000334	3.344032	1.132989	-0.000134
1406	1.3980e+02	-15.9685	-71.978093	0.000517	5.168049	1.750982	-0.000207
1407	1.3990e+02	-16.0118	-72.147653	0.000426	4.256040	1.441985	-0.000170
1408	1.4000e+02	-16.0391	-72.309138	0.000405	4.053372	1.373319	-0.000162
1409	1.4010e+02	-16.0921	-72.510995	0.000507	5.066715	1.716649	-0.000203
1410	1.4020e+02	-16.1386	-72.652295	0.000355	3.546700	1.201655	-0.000142
1411	1.4029e+02	-16.1691	-72.821854	0.000426	4.256040	1.441985	-0.000170
1412	1.4039e+02	-16.2076	-73.039860	0.000547	5.472052	1.853981	-0.000219
1413	1.4049e+02	-16.2573	-73.185197	0.000365	3.648034	1.235988	-0.000146
1414	1.4059e+02	-16.2942	-73.378979	0.000486	4.864046	1.647983	-0.000195
1415	1.4069e+02	-16.3455	-73.540465	0.000405	4.053372	1.373319	-0.000162
1416	1.4079e+02	-16.3728	-73.766544	0.000567	5.674720	1.922647	-0.000227
1417	1.4089e+02	-16.4113	-73.903807	0.000345	3.445366	1.167322	-0.000138
1418	1.4099e+02	-16.4562	-74.117775	0.000537	5.370717	1.819648	-0.000215
1419	1.4109e+02	-16.4995	-74.303483	0.000466	4.661377	1.579317	-0.000187
1420	1.4119e+02	-16.5364	-74.497266	0.000486	4.864046	1.647983	-0.000195
1421	1.4129e+02	-16.5701	-74.662788	0.000415	4.154706	1.407652	-0.000166
1422	1.4139e+02	-16.6166	-74.872719	0.000527	5.269383	1.785315	-0.000211
1423	1.4149e+02	-16.6535	-75.030168	0.000395	3.952037	1.338986	-0.000158
1424	1.4159e+02	-16.6985	-75.240099	0.000527	5.269383	1.785315	-0.000211
1425	1.4169e+02	-16.7289	-75.445993	0.000517	5.168049	1.750982	-0.000207
1426	1.4179e+02	-16.7819	-75.595367	0.000375	3.749369	1.270321	-0.000150
1427	1.4189e+02	-16.8140	-75.809335	0.000537	5.370717	1.819648	-0.000215
1428	1.4199e+02	-16.8509	-75.982932	0.000436	4.357374	1.476318	-0.000174
1429	1.4209e+02	-16.8910	-76.200937	0.000547	5.472052	1.853981	-0.000219
1430	1.4219e+02	-16.9343	-76.378571	0.000446	4.458709	1.510651	-0.000179
1431	1.4228e+02	-16.9760	-76.592539	0.000537	5.370717	1.819648	-0.000215
1432	1.4238e+02	-17.0113	-76.778247	0.000466	4.661377	1.579317	-0.000187
1433	1.4248e+02	-17.0546	-76.976067	0.000497	4.965380	1.682316	-0.000199
1434	1.4258e+02	-17.0883	-77.206184	0.000578	5.776055	1.956980	-0.000231
1435	1.4268e+02	-17.1300	-77.387855	0.000456	4.560043	1.544984	-0.000183
1436	1.4278e+02	-17.1701	-77.593749	0.000517	5.168049	1.750982	-0.000207
1437	1.4288e+02	-17.2150	-77.791569	0.000497	4.965380	1.682316	-0.000199
1438	1.4298e+02	-17.2567	-77.985351	0.000486	4.864046	1.647983	-0.000195
1439	1.4308e+02	-17.2968	-78.231616	0.000618	6.181392	2.094312	-0.000248
1440	1.4318e+02	-17.3289	-78.409250	0.000446	4.458709	1.510651	-0.000179
1441	1.4328e+02	-17.3642	-78.598996	0.000476	4.762712	1.613650	-0.000191
1442	1.4338e+02	-17.4075	-78.857372	0.000649	6.485395	2.197311	-0.000260
1443	1.4348e+02	-17.4492	-79.063266	0.000517	5.168049	1.750982	-0.000207
1444	1.4358e+02	-17.4877	-79.236863	0.000436	4.357374	1.476318	-0.000174
1445	1.4368e+02	-17.5278	-79.466980	0.000578	5.776055	1.956980	-0.000231
1446	1.4378e+02	-17.5663	-79.676911	0.000527	5.269383	1.785315	-0.000211
1447	1.4388e+02	-17.6049	-79.898953	0.000557	5.573386	1.888314	-0.000223
1448	1.4398e+02	-17.6450	-80.169441	0.000679	6.789397	2.300310	-0.000272
1449	1.4408e+02	-17.6835	-80.359187	0.000476	4.762712	1.613650	-0.000191
1450	1.4418e+02	-17.7316	-80.597378	0.000598	5.978723	2.025646	-0.000239
1451	1.4428e+02	-17.7669	-80.799235	0.000507	5.066715	1.716649	-0.000203
1452	1.4437e+02	-17.8070	-81.057611	0.000649	6.485395	2.197311	-0.000260
1453	1.4447e+02	-17.8455	-81.271580	0.000537	5.370717	1.819648	-0.000215
1454	1.4457e+02	-17.8840	-81.493622	0.000557	5.573386	1.888314	-0.000223
1455	1.4467e+02	-17.9273	-81.711627	0.000547	5.472052	1.853981	-0.000219
1456	1.4477e+02	-17.9626	-81.994227	0.000709	7.093400	2.403309	-0.000284
1457	1.4487e+02	-18.0171	-82.228381	0.000588	5.877389	1.991313	-0.000235
1458	1.4497e+02	-18.0412	-82.466572	0.000598	5.978723	2.025646	-0.000239
1459	1.4507e+02	-18.0781	-82.724948	0.000649	6.485395	2.197311	-0.000260
1460	1.4517e+02	-18.1214	-82.983325	0.000649	6.485395	2.197311	-0.000260
1461	1.4527e+02	-18.1631	-83.225553	0.000608	6.080057	2.059979	-0.000243
1462	1.4537e+02	-18.2113	-83.455670	0.000578	5.776055	1.956980	-0.000231
1463	1.4547e+02	-18.2449	-83.730195	0.000689	6.890732	2.334643	-0.000276
1464	1.4557e+02	-18.2754	-84.008758	0.000699	6.992066	2.368976	-0.000280
1465	1.4567e+02	-18.3203	-84.246949	0.000598	5.978723	2.025646	-0.000239
1466	1.4577e+02	-18.3733	-84.533585	0.000719	7.194735	2.437642	-0.000288
1467	1.4587e+02	-18.3973	-84.775813	0.000608	6.080057	2.059979	-0.000243
1468	1.4597e+02	-18.4471	-85.046301	0.000679	6.789397	2.300310	-0.000272
1469	1.4607e+02	-18.4856	-85.328901	0.000709	7.093400	2.403309	-0.000284
1470	1.4617e+02	-18.5273	-85.619575	0.000730	7.296069	2.471975	-0.000292
1471	1.4626e+02	-18.5706	-85.914286	0.000740	7.397403	2.506308	-0.000296
1472	1.4636e+02	-18.6059	-86.168625	0.000638	6.384060	2.162978	-0.000256
1473	1.4646e+02	-18.6444	-86.467373	0.000750	7.498737	2.540641	-0.000300
1474	1.4656e+02	-18.6845	-86.741898	0.000689	6.890732	2.334643	-0.000276
1475	1.4666e+02	-18.7278	-87.052758	0.000780	7.802740	2.643640	-0.000312
1476	1.4676e+02	-18.7711	-87.339395	0.000719	7.194735	2.437642	-0.000288
1477	1.4686e+02	-18.8000	-87.670440	0.000831	8.309412	2.815305	-0.000333
1478	1.4696e+02	-18.8562	-87.965151	0.000740	7.397403	2.506308	-0.000296
1479	1.4706e+02	-18.8818	-88.227564	0.000659	6.586729	2.231644	-0.000264
1480	1.4716e+02	-18.9332	-88.578795	0.000882	8.816083	2.986970	-0.000353
1481	1.4726e+02	-18.9588	-88.861395	0.000709	7.093400	2.403309	-0.000284
1482	1.4736e+02	-19.0005	-89.208588	0.000871	8.714749	2.952637	-0.000349
1483	1.4746e+02	-19.0390	-89.523485	0.000790	7.904075	2.677973	-0.000316
1484	1.4756e+02	-19.0904	-89.870679	0.000871	8.714749	2.952637	-0.000349
1485	1.4766e+02	-19.1257	-90.157315	0.000719	7.194735	2.437642	-0.000288
1486	1.4776e+02	-19.1690	-90.516620	0.000902	9.018752	3.055636	-0.000361
1487	1.4786e+02	-19.2139	-90.847666	0.000831	8.309412	2.815305	-0.000333
1488	1.4796e+02	-19.2476	-91.206971	0.000902	9.018752	3.055636	-0.000361
1489	1.4806e+02	-19.2765	-91.533979	0.000821	8.208078	2.780972	-0.000329
1490	1.4816e+02	-19.3166	-91.865024	0.000831	8.309412	2.815305	-0.000333
1491	1.4825e+02	-19.3727	-92.248552	0.000963	9.626758	3.261634	-0.000385
1492	1.4835e+02	-19.3984	-92.587671	0.000851	8.512080	2.883971	-0.000341
1493	1.4845e+02	-19.4513	-92.967162	0.000953	9.525423	3.227301	-0.000381
1494	1.4855e+02	-19.4850	-93.294170	0.000821	8.208078	2.780972	-0.000329
1495	1.4865e+02	-19.5107	-93.705958	0.001034	10.336098	3.501965	-0.000414
1496	1.4875e+02	-19.5524	-94.028928	0.000811	8.106743	2.746639	-0.000325
1497	1.4885e+02	-19.6037	-94.452828	0.001064	10.640100	3.604964	-0.000426
1498	1.4895e+02	-19.6358	-94.791947	0.000851	8.512080	2.883971	-0.000341
1499	1.4905e+02	-19.6839	-95.215846	0.001064	10.640100	3.604964	-0.000426
1500	1.4915e+02	-19.7208	-95.659931	0.001115	11.146772	3.776629	-0.000446
1501	1.4925e+02	-19.7561	-96.047496	0.000973	9.728092	3.295967	-0.000390
1502	1.4935e+02	-19.7962	-96.463321	0.001044	10.437432	3.536298	-0.000418
1503	1.4945e+02	-19.8395	-96.854923	0.000983	9.829426	3.330300	-0.000394
1504	1.4955e+02	-19.8813	-97.286897	0.001084	10.842769	3.673630	-0.000434
1505	1.4965e+02	-19.9230	-97.678499	0.000983	9.829426	3.330300	-0.000394
1506	1.4975e+02	-19.9470	-98.150844	0.001186	11.856112	4.016959	-0.000475
1507	1.4985e+02	-20.0000	-98.550521	0.001003	10.032095	3.398966	-0.000402
1508	1.4995e+02	-19.9567	-98.699895	-0.000375	-3.749369	-1.270321	-0.000150
1509	1.5005e+02	-19.9246	-98.853306	-0.000385	-3.850703	-1.304654	-0.000154
1510	1.5015e+02	-19.8813	-98.986531	-0.000334	-3.344032	-1.132989	-0.000134
1511	1.5025e+02	-19.8347	-99.119757	-0.000334	-3.344032	-1.132989	-0.000134
1512	1.5034e+02	-19.8043	-99.208574	-0.000223	-2.229354	-0.755326	-0.000089
1513	1.5044e+02	-19.7658	-99.321613	-0.000284	-2.837360	-0.961324	-0.000114
1514	1.5054e+02	-19.7096	-99.394282	-0.000182	-1.824017	-0.617994	-0.000073
1515	1.5064e+02	-19.6743	-99.483099	-0.000223	-2.229354	-0.755326	-0.000089
1516	1.5074e+02	-19.6406	-99.527507	-0.000111	-1.114677	-0.377663	-0.000045
1517	1.5084e+02	-19.5973	-99.584027	-0.000142	-1.418680	-0.480662	-0.000057
1518	1.5094e+02	-19.5668	-99.588064	-0.000010	-0.101334	-0.034333	-0.000004
1519	1.5104e+02	-19.5251	-99.664770	-0.000193	-1.925352	-0.652327	-0.000077
1520	1.5114e+02	-19.4802	-99.705141	-0.000101	-1.013343	-0.343330	-0.000041
1521	1.5124e+02	-19.4513	-99.709178	-0.000010	-0.101334	-0.034333	-0.000004
1522	1.5134e+02	-19.3936	-99.684956	0.000061	0.608006	0.205998	0.000024
1523	1.5144e+02	-19.3615	-99.733401	-0.000122	-1.216011	-0.411996	-0.000049
1524	1.5154e+02	-19.3230	-99.688993	0.000111	1.114677	0.377663	0.000045
1525	1.5164e+02	-19.2797	-99.761661	-0.000182	-1.824017	-0.617994	-0.000073
1526	1.5174e+02	-19.2428	-99.705141	0.000142	1.418680	0.480662	0.000057
1527	1.5184e+02	-19.2027	-99.676881	0.000071	0.709340	0.240331	0.000028
1528	1.5194e+02	-19.1594	-99.644584	0.000081	0.810674	0.274664	0.000032
1529	1.5204e+02	-19.1273	-99.648621	-0.000010	-0.101334	-0.034333	-0.000004
1530	1.5214e+02	-19.0759	-99.660733	-0.000030	-0.304003	-0.102999	-0.000012
1531	1.5224e+02	-19.0438	-99.632473	0.000071	0.709340	0.240331	0.000028
1532	1.5233e+02	-19.0021	-99.511359	0.000304	3.040029	1.029990	0.000122
1533	1.5243e+02	-18.9620	-99.450802	0.000152	1.520014	0.514995	0.000061
1534	1.5253e+02	-18.9267	-99.434653	0.000041	0.405337	0.137332	0.000016
1535	1.5263e+02	-18.8850	-99.353911	0.000203	2.026686	0.686660	0.000081
1536	1.5273e+02	-18.8417	-99.337762	0.000041	0.405337	0.137332	0.000016
1537	1.5283e+02	-18.8128	-99.252982	0.000213	2.128020	0.720993	0.000085
1538	1.5293e+02	-18.7631	-99.208574	0.000111	1.114677	0.377663	0.000045
1539	1.5303e+02	-18.7278	-99.123794	0.000213	2.128020	0.720993	0.000085
1540	1.5313e+02	-18.6877	-99.047088	0.000193	1.925352	0.652327	0.000077
1541	1.5323e+02	-18.6444	-99.018828	0.000071	0.709340	0.240331	0.000028
1542	1.5333e+02	-18.6043	-98.942123	0.000193	1.925352	0.652327	0.000077
1543	1.5343e+02	-18.5610	-98.800823	0.000355	3.546700	1.201655	0.000142
1544	1.5353e+02	-18.5225	-98.764489	0.000091	0.912009	0.308997	0.000037
1545	1.5363e+02	-18.4952	-98.639337	0.000314	3.141363	1.064323	0.000126
1546	1.5373e+02	-18.4487	-98.594929	0.000111	1.114677	0.377663	0.000045
1547	1.5383e+02	-18.3973	-98.526298	0.000172	1.722683	0.583661	0.000069
1548	1.5393e+02	-18.3604	-98.437481	0.000223	2.229354	0.755326	0.000089
1549	1.5403e+02	-18.3187	-98.292144	0.000365	3.648034	1.235988	0.000146
1550	1.5413e+02	-18.2931	-98.255810	0.000091	0.912009	0.308997	0.000037
1551	1.5422e+02	-18.2465	-98.098361	0.000395	3.952037	1.338986	0.000158
1552	1.5432e+02	-18.2096	-98.033767	0.000162	1.621349	0.549328	0.000065
1553	1.5442e+02	-18.1744	-97.928802	0.000263	2.634692	0.892658	0.000105
1554	1.5452e+02	-18.1198	-97.815762	0.000284	2.837360	0.961324	0.000114
1555	1.5462e+02	-18.0829	-97.714833	0.000253	2.533357	0.858325	0.000101
1556	1.5472e+02	-18.0444	-97.626016	0.000223	2.229354	0.755326	0.000089
1557	1.5482e+02	-18.0187	-97.468568	0.000395	3.952037	1.338986	0.000158
1558	1.5492e+02	-17.9626	-97.428197	0.000101	1.013343	0.343330	0.000041
1559	1.5502e+02	-17.9289	-97.339380	0.000223	2.229354	0.755326	0.000089
1560	1.5512e+02	-17.8840	-97.214229	0.000314	3.141363	1.064323	0.000126
1561	1.5522e+02	-17.8455	-97.113300	0.000253	2.533357	0.858325	0.000101
1562	1.5532e+02	-17.7990	-96.988149	0.000314	3.141363	1.064323	0.000126
1563	1.5542e+02	-17.7765	-96.903369	0.000213	2.128020	0.720993	0.000085
1564	1.5552e+02	-17.7252	-96.766107	0.000345	3.445366	1.167322	0.000138
1565	1.5562e+02	-17.6867	-96.640955	0.000314	3.141363	1.064323	0.000126
1566	1.5572e+02	-17.6450	-96.519841	0.000304	3.040029	1.029990	0.000122
1567	1.5582e+02	-17.6049	-96.402764	0.000294	2.938694	0.995657	0.000118
1568	1.5592e+02	-17.5712	-96.293762	0.000274	2.736026	0.926991	0.000110
1569	1.5602e+02	-17.5311	-96.164573	0.000324	3.242697	1.098656	0.000130
1570	1.5612e+02	-17.4942	-96.063645	0.000253	2.533357	0.858325	0.000101
1571	1.5622e+02	-17.4444	-95.934457	0.000324	3.242697	1.098656	0.000130
1572	1.5631e+02	-17.3995	-95.817380	0.000294	2.938694	0.995657	0.000118
1573	1.5641e+02	-17.3787	-95.672043	0.000365	3.648034	1.235988	0.000146
1574	1.5651e+02	-17.3289	-95.559003	0.000284	2.837360	0.961324	0.000114
1575	1.5661e+02	-17.2952	-95.437889	0.000304	3.040029	1.029990	0.000122
1576	1.5671e+02	-17.2439	-95.308701	0.000324	3.242697	1.098656	0.000130
1577	1.5681e+02	-17.2118	-95.191624	0.000294	2.938694	0.995657	0.000118
1578	1.5691e+02	-17.1765	-95.050324	0.000355	3.546700	1.201655	0.000142
1579	1.5701e+02	-17.1300	-94.953433	0.000243	2.432023	0.823992	0.000097
1580	1.5711e+02	-17.0787	-94.840393	0.000284	2.837360	0.961324	0.000114
1581	1.5721e+02	-17.0546	-94.674870	0.000415	4.154706	1.407652	0.000166
1582	1.5731e+02	-17.0145	-94.565868	0.000274	2.736026	0.926991	0.000110
1583	1.5741e+02	-16.9824	-94.468976	0.000243	2.432023	0.823992	0.000097
1584	1.5751e+02	-16.9327	-94.343825	0.000314	3.141363	1.064323	0.000126
1585	1.5761e+02	-16.8910	-94.202525	0.000355	3.546700	1.201655	0.000142
1586	1.5771e+02	-16.8541	-94.093523	0.000274	2.736026	0.926991	0.000110
1587	1.5781e+02	-16.8092	-93.964334	0.000324	3.242697	1.098656	0.000130
1588	1.5791e+02	-16.7674	-93.847257	0.000294	2.938694	0.995657	0.000118
1589	1.5801e+02	-16.7273	-93.693846	0.000385	3.850703	1.304654	0.000154
1590	1.5811e+02	-16.6969	-93.613103	0.000203	2.026686	0.686660	0.000081
1591	1.5821e+02	-16.6519	-93.427395	0.000466	4.661377	1.579317	0.000187
1592	1.5830e+02	-16.6118	-93.322430	0.000263	2.634692	0.892658	0.000105
1593	1.5840e+02	-16.5749	-93.144796	0.000446	4.458709	1.510651	0.000179
1594	1.5850e+02	-16.5445	-93.060016	0.000213	2.128020	0.720993	0.000085
1595	1.5860e+02	-16.4915	-92.914679	0.000365	3.648034	1.235988	0.000146
1596	1.5870e+02	-16.4594	-92.769342	0.000365	3.648034	1.235988	0.000146
1597	1.5880e+02	-16.4065	-92.664377	0.000263	2.634692	0.892658	0.000105
1598	1.5890e+02	-16.3696	-92.547300	0.000294	2.938694	0.995657	0.000118
1599	1.5900e+02	-16.3311	-92.377740	0.000426	4.256040	1.441985	0.000170
1600	1.5910e+02	-16.2958	-92.236440	0.000355	3.546700	1.201655	0.000142
1601	1.5920e+02	-16.2557	-92.078992	0.000395	3.952037	1.338986	0.000158
1602	1.5930e+02	-16.2124	-91.978064	0.000253	2.533357	0.858325	0.000101
1603	1.5940e+02	-16.1771	-91.812541	0.000415	4.154706	1.407652	0.000166
1604	1.5950e+02	-16.1402	-91.691427	0.000304	3.040029	1.029990	0.000122
1605	1.5960e+02	-16.0985	-91.554164	0.000345	3.445366	1.167322	0.000138
1606	1.5970e+02	-16.0503	-91.412865	0.000355	3.546700	1.201655	0.000142
1607	1.5980e+02	-16.0183	-91.307899	0.000263	2.634692	0.892658	0.000105
1608	1.5990e+02	-15.9685	-91.142376	0.000415	4.154706	1.407652	0.000166
1609	1.6000e+02	-15.9397	-91.009151	0.000334	3.344032	1.132989	0.000134
1610	1.6010e+02	-15.8931	-90.843628	0.000415	4.154706	1.407652	0.000166
1611	1.6019e+02	-15.8659	-90.730589	0.000284	2.837360	0.961324	0.000114
1612	1.6029e+02	-15.8161	-90.593326	0.000345	3.445366	1.167322	0.000138
1613	1.6039e+02	-15.7808	-90.472212	0.000304	3.040029	1.029990	0.000122
1614	1.6049e+02	-15.7359	-90.322838	0.000375	3.749369	1.270321	0.000150
1615	1.6059e+02	-15.6990	-90.145204	0.000446	4.458709	1.510651	0.000179
1616	1.6069e+02	-15.6653	-89.999867	0.000365	3.648034	1.235988	0.000146
1617	1.6079e+02	-15.6140	-89.874716	0.000314	3.141363	1.064323	0.000126
1618	1.6089e+02	-15.5755	-89.753602	0.000304	3.040029	1.029990	0.000122
1619	1.6099e+02	-15.5498	-89.628451	0.000314	3.141363	1.064323	0.000126
1620	1.6109e+02	-15.4953	-89.466965	0.000405	4.053372	1.373319	0.000162
1621	1.6119e+02	-15.4568	-89.353925	0.000284	2.837360	0.961324	0.000114
1622	1.6129e+02	-15.4135	-89.192440	0.000405	4.053372	1.373319	0.000162
1623	1.6139e+02	-15.3830	-89.034992	0.000395	3.952037	1.338986	0.000158
1624	1.6149e+02	-15.3397	-88.905803	0.000324	3.242697	1.098656	0.000130
1625	1.6159e+02	-15.3012	-88.764503	0.000355	3.546700	1.201655	0.000142
1626	1.6169e+02	-15.2514	-88.590907	0.000436	4.357374	1.476318	0.000174
1627	1.6179e+02	-15.2161	-88.477867	0.000284	2.837360	0.961324	0.000114
1628	1.6189e+02	-15.1776	-88.308307	0.000426	4.256040	1.441985	0.000170
1629	1.6199e+02	-15.1520	-88.167007	0.000355	3.546700	1.201655	0.000142
1630	1.6209e+02	-15.1071	-88.045893	0.000304	3.040029	1.029990	0.000122
1631	1.6219e+02	-15.0589	-87.888445	0.000395	3.952037	1.338986	0.000158
1632	1.6228e+02	-15.0124	-87.759257	0.000324	3.242697	1.098656	0.000130
1633	1.6238e+02	-14.9787	-87.621994	0.000345	3.445366	1.167322	0.000138
1634	1.6248e+02	-14.9402	-87.452434	0.000426	4.256040	1.441985	0.000170
1635	1.6258e+02	-14.8873	-87.327283	0.000314	3.141363	1.064323	0.000126
1636	1.6268e+02	-14.8632	-87.145612	0.000456	4.560043	1.544984	0.000183
1637	1.6278e+02	-14.8167	-87.028535	0.000294	2.938694	0.995657	0.000118
1638	1.6288e+02	-14.7846	-86.871087	0.000395	3.952037	1.338986	0.000158
1639	1.6298e+02	-14.7413	-86.733824	0.000345	3.445366	1.167322	0.000138
1640	1.6308e+02	-14.6996	-86.572339	0.000405	4.053372	1.373319	0.000162
1641	1.6318e+02	-14.6707	-86.418928	0.000385	3.850703	1.304654	0.000154
1642	1.6328e+02	-14.6194	-86.293776	0.000314	3.141363	1.064323	0.000126
1643	1.6338e+02	-14.5809	-86.164588	0.000324	3.242697	1.098656	0.000130
1644	1.6348e+02	-14.5327	-86.039437	0.000314	3.141363	1.064323	0.000126
1645	1.6358e+02	-14.4958	-85.853729	0.000466	4.661377	1.579317	0.000187
1646	1.6368e+02	-14.4606	-85.760874	0.000233	2.330689	0.789659	0.000093
1647	1.6378e+02	-14.4204	-85.567092	0.000486	4.864046	1.647983	0.000195
1648	1.6388e+02	-14.3739	-85.389458	0.000446	4.458709	1.510651	0.000179
1649	1.6398e+02	-14.3386	-85.296604	0.000233	2.330689	0.789659	0.000093
1650	1.6408e+02	-14.2985	-85.106858	0.000476	4.762712	1.613650	0.000191
1651	1.6418e+02	-14.2616	-84.985744	0.000304	3.040029	1.029990	0.000122
1652	1.6427e+02	-14.2135	-84.840408	0.000365	3.648034	1.235988	0.000146
1653	1.6437e+02	-14.1782	-84.646625	0.000486	4.864046	1.647983	0.000195
1654	1.6447e+02	-14.1445	-84.537622	0.000274	2.736026	0.926991	0.000110
1655	1.6457e+02	-14.1028	-84.432657	0.000263	2.634692	0.892658	0.000105
1656	1.6467e+02	-14.0643	-84.218689	0.000537	5.370717	1.819648	0.000215
1657	1.6477e+02	-14.0162	-84.085463	0.000334	3.344032	1.132989	0.000134
1658	1.6487e+02	-13.9873	-83.915903	0.000426	4.256040	1.441985	0.000170
1659	1.6497e+02	-13.9488	-83.819012	0.000243	2.432023	0.823992	0.000097
1660	1.6507e+02	-13.8959	-83.677712	0.000355	3.546700	1.201655	0.000142
1661	1.6517e+02	-13.8670	-83.451633	0.000567	5.674720	1.922647	0.000227
1662	1.6527e+02	-13.8237	-83.366853	0.000213	2.128020	0.720993	0.000085
1663	1.6537e+02	-13.7868	-83.173070	0.000486	4.864046	1.647983	0.000195
1664	1.6547e+02	-13.7451	-83.039845	0.000334	3.344032	1.132989	0.000134
1665	1.6557e+02	-13.7178	-82.862211	0.000446	4.458709	1.510651	0.000179
1666	1.6567e+02	-13.6600	-82.749171	0.000284	2.837360	0.961324	0.000114
1667	1.6577e+02	-13.6280	-82.563463	0.000466	4.661377	1.579317	0.000187
1668	1.6587e+02	-13.5862	-82.406015	0.000395	3.952037	1.338986	0.000158
1669	1.6597e+02	-13.5365	-82.256641	0.000375	3.749369	1.270321	0.000150
1670	1.6607e+02	-13.5060	-82.091118	0.000415	4.154706	1.407652	0.000166
1671	1.6616e+02	-13.4579	-81.970004	0.000304	3.040029	1.029990	0.000122
1672	1.6626e+02	-13.4258	-81.804481	0.000415	4.154706	1.407652	0.000166
1673	1.6636e+02	-13.3873	-81.663182	0.000355	3.546700	1.201655	0.000142
1674	1.6646e+02	-13.3456	-81.525919	0.000345	3.445366	1.167322	0.000138
1675	1.6656e+02	-13.3071	-81.388656	0.000345	3.445366	1.167322	0.000138
1676	1.6666e+02	-13.2590	-81.198911	0.000476	4.762712	1.613650	0.000191
1677	1.6676e+02	-13.2237	-81.061648	0.000345	3.445366	1.167322	0.000138
1678	1.6686e+02	-13.1804	-80.855755	0.000517	5.168049	1.750982	0.000207
1679	1.6696e+02	-13.1515	-80.706381	0.000375	3.749369	1.270321	0.000150
1680	1.6706e+02	-13.1082	-80.565081	0.000355	3.546700	1.201655	0.000142
1681	1.6716e+02	-13.0569	-80.464152	0.000253	2.533357	0.858325	0.000101
1682	1.6726e+02	-13.0151	-80.278444	0.000466	4.661377	1.579317	0.000187
1683	1.6736e+02	-12.9847	-80.133107	0.000365	3.648034	1.235988	0.000146
1684	1.6746e+02	-12.9510	-79.987770	0.000365	3.648034	1.235988	0.000146
1685	1.6756e+02	-12.9061	-79.806099	0.000456	4.560043	1.544984	0.000183
1686	1.6766e+02	-12.8740	-79.693059	0.000284	2.837360	0.961324	0.000114
1687	1.6776e+02	-12.8339	-79.511388	0.000456	4.560043	1.544984	0.000183
1688	1.6786e+02	-12.7922	-79.362014	0.000375	3.749369	1.270321	0.000150
1689	1.6796e+02	-12.7456	-79.220715	0.000355	3.546700	1.201655	0.000142
1690	1.6806e+02	-12.7119	-79.059229	0.000405	4.053372	1.373319	0.000162
1691	1.6816e+02	-12.6734	-78.909855	0.000375	3.749369	1.270321	0.000150
1692	1.6825e+02	-12.6398	-78.724147	0.000466	4.661377	1.579317	0.000187
1693	1.6835e+02	-12.5932	-78.607070	0.000294	2.938694	0.995657	0.000118
1694	1.6845e+02	-12.5515	-78.449622	0.000395	3.952037	1.338986	0.000158
1695	1.6855e+02	-12.5066	-78.312359	0.000345	3.445366	1.167322	0.000138
1696	1.6865e+02	-12.4745	-78.162985	0.000375	3.749369	1.270321	0.000150
1697	1.6875e+02	-12.4376	-77.997462	0.000415	4.154706	1.407652	0.000166
1698	1.6885e+02	-12.3911	-77.835977	0.000405	4.053372	1.373319	0.000162
1699	1.6895e+02	-12.3478	-77.682566	0.000385	3.850703	1.304654	0.000154
1700	1.6905e+02	-12.3061	-77.492820	0.000476	4.762712	1.613650	0.000191
1701	1.6915e+02	-12.2692	-77.355558	0.000345	3.445366	1.167322	0.000138
1702	1.6925e+02	-12.2291	-77.190035	0.000415	4.154706	1.407652	0.000166
1703	1.6935e+02	-12.1954	-77.060847	0.000324	3.242697	1.098656	0.000130
1704	1.6945e+02	-12.1537	-76.895324	0.000415	4.154706	1.407652	0.000166
1705	1.6955e+02	-12.1120	-76.725765	0.000426	4.256040	1.441985	0.000170
1706	1.6965e+02	-12.0735	-76.588502	0.000345	3.445366	1.167322	0.000138
1707	1.6975e+02	-12.0398	-76.427017	0.000405	4.053372	1.373319	0.000162
1708	1.6985e+02	-11.9884	-76.213048	0.000537	5.370717	1.819648	0.000215
1709	1.6995e+02	-11.9547	-76.100009	0.000284	2.837360	0.961324	0.000114
1710	1.7005e+02	-11.9146	-75.974857	0.000314	3.141363	1.064323	0.000126
1711	1.7015e+02	-11.8697	-75.785112	0.000476	4.762712	1.613650	0.000191
1712	1.7024e+02	-11.8296	-75.607478	0.000446	4.458709	1.510651	0.000179
1713	1.7034e+02	-11.7911	-75.482327	0.000314	3.141363	1.064323	0.000126
1714	1.7044e+02	-11.7510	-75.300656	0.000456	4.560043	1.544984	0.000183
1715	1.7054e+02	-11.7205	-75.175505	0.000314	3.141363	1.064323	0.000126
1716	1.7064e+02	-11.6740	-74.989796	0.000466	4.661377	1.579317	0.000187
1717	1.7074e+02	-11.6355	-74.836385	0.000385	3.850703	1.304654	0.000154
1718	1.7084e+02	-11.5810	-74.638566	0.000497	4.965380	1.682316	0.000199
1719	1.7094e+02	-11.5585	-74.477080	0.000405	4.053372	1.373319	0.000162
1720	1.7104e+02	-11.5184	-74.360003	0.000294	2.938694	0.995657	0.000118
1721	1.7114e+02	-11.4767	-74.210629	0.000375	3.749369	1.270321	0.000150
1722	1.7124e+02	-11.4382	-74.008772	0.000507	5.066715	1.716649	0.000203
1723	1.7134e+02	-11.3917	-73.875547	0.000334	3.344032	1.132989	0.000134
1724	1.7144e+02	-11.3532	-73.714061	0.000405	4.053372	1.373319	0.000162
1725	1.7154e+02	-11.3211	-73.524316	0.000476	4.762712	1.613650	0.000191
1726	1.7164e+02	-11.2697	-73.342645	0.000456	4.560043	1.544984	0.000183
1727	1.7174e+02	-11.2393	-73.213457	0.000324	3.242697	1.098656	0.000130
1728	1.7184e+02	-11.1943	-73.076194	0.000345	3.445366	1.167322	0.000138
1729	1.7194e+02	-11.1510	-72.870300	0.000517	5.168049	1.750982	0.000207
1730	1.7204e+02	-11.1109	-72.745149	0.000314	3.141363	1.064323	0.000126
1731	1.7213e+02	-11.0836	-72.563478	0.000456	4.560043	1.544984	0.000183
1732	1.7223e+02	-11.0419	-72.442364	0.000304	3.040029	1.029990	0.000122
1733	1.7233e+02	-10.9954	-72.280878	0.000405	4.053372	1.373319	0.000162
1734	1.7243e+02	-10.9537	-72.046724	0.000588	5.877389	1.991313	0.000235
1735	1.7253e+02	-10.9200	-71.893313	0.000385	3.850703	1.304654	0.000154
1736	1.7263e+02	-10.8735	-71.739902	0.000385	3.850703	1.304654	0.000154
1737	1.7273e+02	-10.8398	-71.566305	0.000436	4.357374	1.476318	0.000174
1738	1.7283e+02	-10.7933	-71.376560	0.000476	4.762712	1.613650	0.000191
1739	1.7293e+02	-10.7580	-71.283706	0.000233	2.330689	0.789659	0.000093
1740	1.7303e+02	-10.7243	-71.114146	0.000426	4.256040	1.441985	0.000170
1741	1.7313e+02	-10.6810	-70.916326	0.000497	4.965380	1.682316	0.000199
1742	1.7323e+02	-10.6329	-70.738692	0.000446	4.458709	1.510651	0.000179
1743	1.7333e+02	-10.5960	-70.581244	0.000395	3.952037	1.338986	0.000158
1744	1.7343e+02	-10.5591	-70.435907	0.000365	3.648034	1.235988	0.000146
1745	1.7353e+02	-10.5109	-70.278459	0.000395	3.952037	1.338986	0.000158
1746	1.7363e+02	-10.4772	-70.116973	0.000405	4.053372	1.373319	0.000162
1747	1.7373e+02	-10.4371	-69.943377	0.000436	4.357374	1.476318	0.000174
1748	1.7383e+02	-10.4067	-69.761706	0.000456	4.560043	1.544984	0.000183
1749	1.7393e+02	-10.3489	-69.608294	0.000385	3.850703	1.304654	0.000154
1750	1.7403e+02	-10.3152	-69.434698	0.000436	4.357374	1.476318	0.000174
1751	1.7413e+02	-10.2944	-69.293398	0.000355	3.546700	1.201655	0.000142
1752	1.7422e+02	-10.2414	-69.127875	0.000415	4.154706	1.407652	0.000166
1753	1.7432e+02	-10.2045	-68.954278	0.000436	4.357374	1.476318	0.000174
1754	1.7442e+02	-10.1660	-68.792793	0.000405	4.053372	1.373319	0.000162
1755	1.7452e+02	-10.1163	-68.603048	0.000476	4.762712	1.613650	0.000191
1756	1.7462e+02	-10.0810	-68.461748	0.000355	3.546700	1.201655	0.000142
1757	1.7472e+02	-10.0345	-68.280077	0.000456	4.560043	1.544984	0.000183
1758	1.7482e+02	-10.0056	-68.094368	0.000466	4.661377	1.579317	0.000187
1759	1.7492e+02	-9.9639	-67.953069	0.000355	3.546700	1.201655	0.000142
1760	1.7502e+02	-9.9142	-67.807732	0.000365	3.648034	1.235988	0.000146
1761	1.7512e+02	-9.8837	-67.646246	0.000405	4.053372	1.373319	0.000162
1762	1.7522e+02	-9.8356	-67.448427	0.000497	4.965380	1.682316	0.000199
1763	1.7532e+02	-9.8019	-67.274830	0.000436	4.357374	1.476318	0.000174
1764	1.7542e+02	-9.7618	-67.133530	0.000355	3.546700	1.201655	0.000142
1765	1.7552e+02	-9.7217	-66.911488	0.000557	5.573386	1.888314	0.000223
1766	1.7562e+02	-9.6751	-66.737891	0.000436	4.357374	1.476318	0.000174
1767	1.7572e+02	-9.6446	-66.632925	0.000263	2.634692	0.892658	0.000105
1768	1.7582e+02	-9.5981	-66.463366	0.000426	4.256040	1.441985	0.000170
1769	1.7592e+02	-9.5564	-66.253435	0.000527	5.269383	1.785315	0.000211
1770	1.7602e+02	-9.5243	-66.079838	0.000436	4.357374	1.476318	0.000174
1771	1.7612e+02	-9.4810	-65.914315	0.000415	4.154706	1.407652	0.000166
1772	1.7621e+02	-9.4393	-65.760904	0.000385	3.850703	1.304654	0.000154
1773	1.7631e+02	-9.4040	-65.595381	0.000415	4.154706	1.407652	0.000166
1774	1.7641e+02	-9.3623	-65.429859	0.000415	4.154706	1.407652	0.000166
1775	1.7651e+02	-9.3110	-65.199742	0.000578	5.776055	1.956980	0.000231
1776	1.7661e+02	-9.2757	-65.058442	0.000355	3.546700	1.201655	0.000142
1777	1.7671e+02	-9.2420	-64.900994	0.000395	3.952037	1.338986	0.000158
1778	1.7681e+02	-9.2035	-64.707212	0.000486	4.864046	1.647983	0.000195
1779	1.7691e+02	-9.1698	-64.549763	0.000395	3.952037	1.338986	0.000158
1780	1.7701e+02	-9.1329	-64.351944	0.000497	4.965380	1.682316	0.000199
1781	1.7711e+02	-9.0816	-64.162198	0.000476	4.762712	1.613650	0.000191
1782	1.7721e+02	-9.0495	-64.033010	0.000324	3.242697	1.098656	0.000130
1783	1.7731e+02	-9.0046	-63.815005	0.000547	5.472052	1.853981	0.000219
1784	1.7741e+02	-8.9628	-63.669668	0.000365	3.648034	1.235988	0.000146
1785	1.7751e+02	-8.9227	-63.508182	0.000405	4.053372	1.373319	0.000162
1786	1.7761e+02	-8.8842	-63.370920	0.000345	3.445366	1.167322	0.000138
1787	1.7771e+02	-8.8506	-63.152914	0.000547	5.472052	1.853981	0.000219
1788	1.7781e+02	-8.8040	-62.963169	0.000476	4.762712	1.613650	0.000191
1789	1.7791e+02	-8.7671	-62.793609	0.000426	4.256040	1.441985	0.000170
1790	1.7801e+02	-8.7222	-62.644235	0.000375	3.749369	1.270321	0.000150
1791	1.7810e+02	-8.6821	-62.430267	0.000537	5.370717	1.819648	0.000215
1792	1.7820e+02	-8.6516	-62.284930	0.000365	3.648034	1.235988	0.000146
1793	1.7830e+02	-8.5987	-62.091148	0.000486	4.864046	1.647983	0.000195
1794	1.7840e+02	-8.5586	-61.974071	0.000294	2.938694	0.995657	0.000118
1795	1.7850e+02	-8.5201	-61.739917	0.000588	5.877389	1.991313	0.000235
1796	1.7860e+02	-8.4752	-61.582469	0.000395	3.952037	1.338986	0.000158
1797	1.7870e+02	-8.4415	-61.388686	0.000486	4.864046	1.647983	0.000195
1798	1.7880e+02	-8.4030	-61.219126	0.000426	4.256040	1.441985	0.000170
1799	1.7890e+02	-8.3629	-61.045529	0.000436	4.357374	1.476318	0.000174
1800	1.7900e+02	-8.3308	-60.888081	0.000395	3.952037	1.338986	0.000158
1801	1.7910e+02	-8.2843	-60.718522	0.000426	4.256040	1.441985	0.000170
1802	1.7920e+02	-8.2393	-60.516665	0.000507	5.066715	1.716649	0.000203
1803	1.7930e+02	-8.2089	-60.339031	0.000446	4.458709	1.510651	0.000179
1804	1.7940e+02	-8.1671	-60.189657	0.000375	3.749369	1.270321	0.000150
1805	1.7950e+02	-8.1270	-59.995874	0.000486	4.864046	1.647983	0.000195
1806	1.7960e+02	-8.0821	-59.781906	0.000537	5.370717	1.819648	0.000215
1807	1.7970e+02	-8.0468	-59.652718	0.000324	3.242697	1.098656	0.000130
1808	1.7980e+02	-8.0099	-59.462972	0.000476	4.762712	1.613650	0.000191
1809	1.7990e+02	-7.9682	-59.269190	0.000486	4.864046	1.647983	0.000195
1810	1.8000e+02	-7.9233	-59.103667	0.000415	4.154706	1.407652	0.000166
1811	1.8009e+02	-7.8864	-58.946219	0.000395	3.952037	1.338986	0.000158
1812	1.8019e+02	-7.8431	-58.748399	0.000497	4.965380	1.682316	0.000199
1813	1.8029e+02	-7.8062	-58.599025	0.000375	3.749369	1.270321	0.000150
1814	1.8039e+02	-7.7645	-58.381020	0.000547	5.472052	1.853981	0.000219
1815	1.8049e+02	-7.7260	-58.215497	0.000415	4.154706	1.407652	0.000166
1816	1.8059e+02	-7.6811	-58.045938	0.000426	4.256040	1.441985	0.000170
1817	1.8069e+02	-7.6538	-57.884452	0.000405	4.053372	1.373319	0.000162
1818	1.8079e+02	-7.6121	-57.662410	0.000557	5.573386	1.888314	0.000223
1819	1.8089e+02	-7.5688	-57.545333	0.000294	2.938694	0.995657	0.000118
1820	1.8099e+02	-7.5319	-57.335402	0.000527	5.269383	1.785315	0.000211
1821	1.8109e+02	-7.4934	-57.157768	0.000446	4.458709	1.510651	0.000179
1822	1.8119e+02	-7.4452	-56.927651	0.000578	5.776055	1.956980	0.000231
1823	1.8129e+02	-7.4116	-56.794426	0.000334	3.344032	1.132989	0.000134
1824	1.8139e+02	-7.3731	-56.576420	0.000547	5.472052	1.853981	0.000219
1825	1.8149e+02	-7.3346	-56.443195	0.000334	3.344032	1.132989	0.000134
1826	1.8159e+02	-7.2864	-56.209041	0.000588	5.877389	1.991313	0.000235
1827	1.8169e+02	-7.2495	-56.079853	0.000324	3.242697	1.098656	0.000130
1828	1.8179e+02	-7.2142	-55.894144	0.000466	4.661377	1.579317	0.000187
1829	1.8189e+02	-7.1693	-55.712473	0.000456	4.560043	1.544984	0.000183
1830	1.8199e+02	-7.1212	-55.575211	0.000345	3.445366	1.167322	0.000138
1831	1.8209e+02	-7.0955	-55.373354	0.000507	5.066715	1.716649	0.000203
1832	1.8218e+02	-7.0538	-55.167460	0.000517	5.168049	1.750982	0.000207
1833	1.8228e+02	-7.0105	-54.973677	0.000486	4.864046	1.647983	0.000195
1834	1.8238e+02	-6.9768	-54.755672	0.000547	5.472052	1.853981	0.000219
1835	1.8248e+02	-6.9303	-54.614372	0.000355	3.546700	1.201655	0.000142
1836	1.8258e+02	-6.8918	-54.460961	0.000385	3.850703	1.304654	0.000154
1837	1.8268e+02	-6.8404	-54.214696	0.000618	6.181392	2.094312	0.000248
1838	1.8278e+02	-6.8164	-54.061285	0.000385	3.850703	1.304654	0.000154
1839	1.8288e+02	-6.7715	-53.899799	0.000405	4.053372	1.373319	0.000162
1840	1.8298e+02	-6.7298	-53.665645	0.000588	5.877389	1.991313	0.000235
1841	1.8308e+02	-6.6977	-53.516271	0.000375	3.749369	1.270321	0.000150
1842	1.8318e+02	-6.6528	-53.318452	0.000497	4.965380	1.682316	0.000199
1843	1.8328e+02	-6.6110	-53.132743	0.000466	4.661377	1.579317	0.000187
1844	1.8338e+02	-6.5725	-52.922812	0.000527	5.269383	1.785315	0.000211
1845	1.8348e+02	-6.5340	-52.769401	0.000385	3.850703	1.304654	0.000154
1846	1.8358e+02	-6.4891	-52.567544	0.000507	5.066715	1.716649	0.000203
1847	1.8368e+02	-6.4538	-52.422208	0.000365	3.648034	1.235988	0.000146
1848	1.8378e+02	-6.4217	-52.232462	0.000476	4.762712	1.613650	0.000191
1849	1.8388e+02	-6.3784	-52.018494	0.000537	5.370717	1.819648	0.000215
1850	1.8398e+02	-6.3255	-51.852971	0.000415	4.154706	1.407652	0.000166
1851	1.8407e+02	-6.2934	-51.707635	0.000365	3.648034	1.235988	0.000146
1852	1.8417e+02	-6.2517	-51.509815	0.000497	4.965380	1.682316	0.000199
1853	1.8427e+02	-6.2148	-51.348329	0.000405	4.053372	1.373319	0.000162
1854	1.8437e+02	-6.1811	-51.122250	0.000567	5.674720	1.922647	0.000227
1855	1.8447e+02	-6.1474	-50.956727	0.000415	4.154706	1.407652	0.000166
1856	1.8457e+02	-6.1041	-50.750833	0.000517	5.168049	1.750982	0.000207
1857	1.8467e+02	-6.0576	-50.597422	0.000385	3.850703	1.304654	0.000154
1858	1.8477e+02	-6.0207	-50.415751	0.000456	4.560043	1.544984	0.000183
1859	1.8487e+02	-5.9694	-50.234080	0.000456	4.560043	1.544984	0.000183
1860	1.8497e+02	-5.9292	-50.036260	0.000497	4.965380	1.682316	0.000199
1861	1.8507e+02	-5.9020	-49.826329	0.000527	5.269383	1.785315	0.000211
1862	1.8517e+02	-5.8635	-49.693104	0.000334	3.344032	1.132989	0.000134
1863	1.8527e+02	-5.8202	-49.467024	0.000567	5.674720	1.922647	0.000227
1864	1.8537e+02	-5.7720	-49.281316	0.000466	4.661377	1.579317	0.000187
1865	1.8547e+02	-5.7367	-49.099645	0.000456	4.560043	1.544984	0.000183
1866	1.8557e+02	-5.7047	-48.885677	0.000537	5.370717	1.819648	0.000215
1867	1.8567e+02	-5.6581	-48.732265	0.000385	3.850703	1.304654	0.000154
1868	1.8577e+02	-5.6100	-48.526372	0.000517	5.168049	1.750982	0.000207
1869	1.8587e+02	-5.5779	-48.405257	0.000304	3.040029	1.029990	0.000122
1870	1.8597e+02	-5.5378	-48.183215	0.000557	5.573386	1.888314	0.000223
1871	1.8606e+02	-5.5009	-47.969247	0.000537	5.370717	1.819648	0.000215
1872	1.8616e+02	-5.4608	-47.815836	0.000385	3.850703	1.304654	0.000154
1873	1.8626e+02	-5.4143	-47.609942	0.000517	5.168049	1.750982	0.000207
1874	1.8636e+02	-5.3886	-47.440382	0.000426	4.256040	1.441985	0.000170
1875	1.8646e+02	-5.3453	-47.262748	0.000446	4.458709	1.510651	0.000179
1876	1.8656e+02	-5.2972	-47.032631	0.000578	5.776055	1.956980	0.000231
1877	1.8666e+02	-5.2555	-46.887294	0.000365	3.648034	1.235988	0.000146
1878	1.8676e+02	-5.2186	-46.661215	0.000567	5.674720	1.922647	0.000227
1879	1.8686e+02	-5.1785	-46.463395	0.000497	4.965380	1.682316	0.000199
1880	1.8696e+02	-5.1384	-46.293836	0.000426	4.256040	1.441985	0.000170
1881	1.8706e+02	-5.0966	-46.091979	0.000507	5.066715	1.716649	0.000203
1882	1.8716e+02	-5.0565	-45.894159	0.000497	4.965380	1.682316	0.000199
1883	1.8726e+02	-5.0196	-45.756896	0.000345	3.445366	1.167322	0.000138
1884	1.8736e+02	-4.9795	-45.542928	0.000537	5.370717	1.819648	0.000215
1885	1.8746e+02	-4.9346	-45.373369	0.000426	4.256040	1.441985	0.000170
1886	1.8756e+02	-4.9025	-45.159400	0.000537	5.370717	1.819648	0.000215
1887	1.8766e+02	-4.8576	-44.949469	0.000527	5.269383	1.785315	0.000211
1888	1.8776e+02	-4.8191	-44.800095	0.000375	3.749369	1.270321	0.000150
1889	1.8786e+02	-4.7838	-44.578053	0.000557	5.573386	1.888314	0.000223
1890	1.8796e+02	-4.7453	-44.400419	0.000446	4.458709	1.510651	0.000179
1891	1.8806e+02	-4.7084	-44.234896	0.000415	4.154706	1.407652	0.000166
1892	1.8815e+02	-4.6667	-44.053225	0.000456	4.560043	1.544984	0.000183
1893	1.8825e+02	-4.6234	-43.823108	0.000578	5.776055	1.956980	0.000231
1894	1.8835e+02	-4.5817	-43.637400	0.000466	4.661377	1.579317	0.000187
1895	1.8845e+02	-4.5544	-43.439581	0.000497	4.965380	1.682316	0.000199
1896	1.8855e+02	-4.5047	-43.225612	0.000537	5.370717	1.819648	0.000215
1897	1.8865e+02	-4.4582	-43.092387	0.000334	3.344032	1.132989	0.000134
1898	1.8875e+02	-4.4229	-42.846122	0.000618	6.181392	2.094312	0.000248
1899	1.8885e+02	-4.3780	-42.704822	0.000355	3.546700	1.201655	0.000142
1900	1.8895e+02	-4.3491	-42.442408	0.000659	6.586729	2.231644	0.000264
1901	1.8905e+02	-4.3042	-42.264774	0.000446	4.458709	1.510651	0.000179
1902	1.8915e+02	-4.2560	-42.091177	0.000436	4.357374	1.476318	0.000174
1903	1.8925e+02	-4.2223	-41.937766	0.000385	3.850703	1.304654	0.000154
1904	1.8935e+02	-4.1870	-41.743984	0.000486	4.864046	1.647983	0.000195
1905	1.8945e+02	-4.1453	-41.509830	0.000588	5.877389	1.991313	0.000235
1906	1.8955e+02	-4.1084	-41.316047	0.000486	4.864046	1.647983	0.000195
1907	1.8965e+02	-4.0651	-41.126302	0.000476	4.762712	1.613650	0.000191
1908	1.8975e+02	-4.0186	-40.960779	0.000415	4.154706	1.407652	0.000166
1909	1.8985e+02	-3.9785	-40.730662	0.000578	5.776055	1.956980	0.000231
1910	1.8995e+02	-3.9464	-40.573214	0.000395	3.952037	1.338986	0.000158
1911	1.9004e+02	-3.9047	-40.326949	0.000618	6.181392	2.094312	0.000248
1912	1.9014e+02	-3.8614	-40.169501	0.000395	3.952037	1.338986	0.000158
1913	1.9024e+02	-3.8325	-39.959570	0.000527	5.269383	1.785315	0.000211
1914	1.9034e+02	-3.7796	-39.785973	0.000436	4.357374	1.476318	0.000174
1915	1.9044e+02	-3.7443	-39.567967	0.000547	5.472052	1.853981	0.000219
1916	1.9054e+02	-3.7010	-39.362073	0.000517	5.168049	1.750982	0.000207
1917	1.9064e+02	-3.6689	-39.236922	0.000314	3.141363	1.064323	0.000126
1918	1.9074e+02	-3.6208	-38.974508	0.000659	6.586729	2.231644	0.000264
1919	1.9084e+02	-3.5790	-38.772652	0.000507	5.066715	1.716649	0.000203
1920	1.9094e+02	-3.5389	-38.590981	0.000456	4.560043	1.544984	0.000183
1921	1.9104e+02	-3.5101	-38.429495	0.000405	4.053372	1.373319	0.000162
1922	1.9114e+02	-3.4651	-38.243787	0.000466	4.661377	1.579317	0.000187
1923	1.9124e+02	-3.4266	-37.989447	0.000638	6.384060	2.162978	0.000256
1924	1.9134e+02	-3.3801	-37.827962	0.000405	4.053372	1.373319	0.000162
1925	1.9144e+02	-3.3480	-37.622068	0.000517	5.168049	1.750982	0.000207
1926	1.9154e+02	-3.3095	-37.428285	0.000486	4.864046	1.647983	0.000195
1927	1.9164e+02	-3.2630	-37.242577	0.000466	4.661377	1.579317	0.000187
1928	1.9174e+02	-3.2277	-37.064943	0.000446	4.458709	1.510651	0.000179
1929	1.9184e+02	-3.1876	-36.891346	0.000436	4.357374	1.476318	0.000174
1930	1.9194e+02	-3.1491	-36.677378	0.000537	5.370717	1.819648	0.000215
1931	1.9203e+02	-3.1042	-36.439187	0.000598	5.978723	2.025646	0.000239
1932	1.9213e+02	-3.0657	-36.225219	0.000537	5.370717	1.819648	0.000215
1933	1.9223e+02	-3.0288	-36.055659	0.000426	4.256040	1.441985	0.000170
1934	1.9233e+02	-2.9887	-35.857840	0.000497	4.965380	1.682316	0.000199
1935	1.9243e+02	-2.9518	-35.655983	0.000507	5.066715	1.716649	0.000203
1936	1.9253e+02	-2.9117	-35.450089	0.000517	5.168049	1.750982	0.000207
1937	1.9263e+02	-2.8700	-35.272455	0.000446	4.458709	1.510651	0.000179
1938	1.9273e+02	-2.8315	-35.082710	0.000476	4.762712	1.613650	0.000191
1939	1.9283e+02	-2.7946	-34.840481	0.000608	6.080057	2.059979	0.000243
1940	1.9293e+02	-2.7577	-34.674959	0.000415	4.154706	1.407652	0.000166
1941	1.9303e+02	-2.7095	-34.456954	0.000547	5.472052	1.853981	0.000219
1942	1.9313e+02	-2.6775	-34.267208	0.000476	4.762712	1.613650	0.000191
1943	1.9323e+02	-2.6293	-34.041129	0.000567	5.674720	1.922647	0.000227
1944	1.9333e+02	-2.5940	-33.859457	0.000456	4.560043	1.544984	0.000183
1945	1.9343e+02	-2.5411	-33.669712	0.000476	4.762712	1.613650	0.000191
1946	1.9353e+02	-2.5202	-33.455744	0.000537	5.370717	1.819648	0.000215
1947	1.9363e+02	-2.4705	-33.265998	0.000476	4.762712	1.613650	0.000191
1948	1.9373e+02	-2.4256	-33.080290	0.000466	4.661377	1.579317	0.000187
1949	1.9383e+02	-2.3903	-32.829988	0.000628	6.282726	2.128645	0.000252
1950	1.9393e+02	-2.3470	-32.648317	0.000456	4.560043	1.544984	0.000183
1951	1.9403e+02	-2.3117	-32.389940	0.000649	6.485395	2.197311	0.000260
1952	1.9412e+02	-2.2796	-32.256715	0.000334	3.344032	1.132989	0.000134
1953	1.9422e+02	-2.2267	-32.026598	0.000578	5.776055	1.956980	0.000231
1954	1.9432e+02	-2.1914	-31.861075	0.000415	4.154706	1.407652	0.000166
1955	1.9442e+02	-2.1577	-31.622884	0.000598	5.978723	2.025646	0.000239
1956	1.9452e+02	-2.1144	-31.449287	0.000436	4.357374	1.476318	0.000174
1957	1.9462e+02	-2.0759	-31.255505	0.000486	4.864046	1.647983	0.000195
1958	1.9472e+02	-2.0310	-31.069797	0.000466	4.661377	1.579317	0.000187
1959	1.9482e+02	-1.9876	-30.823531	0.000618	6.181392	2.094312	0.000248
1960	1.9492e+02	-1.9556	-30.589377	0.000588	5.877389	1.991313	0.000235
1961	1.9502e+02	-1.9058	-30.444041	0.000365	3.648034	1.235988	0.000146
1962	1.9512e+02	-1.8673	-30.226035	0.000547	5.472052	1.853981	0.000219
1963	1.9522e+02	-1.8256	-30.080698	0.000365	3.648034	1.235988	0.000146
1964	1.9532e+02	-1.7887	-29.810210	0.000679	6.789397	2.300310	0.000272
1965	1.9542e+02	-1.7518	-29.616428	0.000486	4.864046	1.647983	0.000195
1966	1.9552e+02	-1.7133	-29.426682	0.000476	4.762712	1.613650	0.000191
1967	1.9562e+02	-1.6780	-29.216751	0.000527	5.269383	1.785315	0.000211
1968	1.9572e+02	-1.6187	-28.990672	0.000567	5.674720	1.922647	0.000227
1969	1.9582e+02	-1.5962	-28.845335	0.000365	3.648034	1.235988	0.000146
1970	1.9592e+02	-1.5481	-28.619255	0.000567	5.674720	1.922647	0.000227
1971	1.9601e+02	-1.5208	-28.413361	0.000517	5.168049	1.750982	0.000207
1972	1.9611e+02	-1.4727	-28.207467	0.000517	5.168049	1.750982	0.000207
1973	1.9621e+02	-1.4342	-27.985425	0.000557	5.573386	1.888314	0.000223
1974	1.9631e+02	-1.3909	-27.819902	0.000415	4.154706	1.407652	0.000166
1975	1.9641e+02	-1.3572	-27.537303	0.000709	7.093400	2.403309	0.000284
1976	1.9651e+02	-1.3155	-27.387929	0.000375	3.749369	1.270321	0.000150
1977	1.9661e+02	-1.2770	-27.206258	0.000456	4.560043	1.544984	0.000183
1978	1.9671e+02	-1.2288	-26.992290	0.000537	5.370717	1.819648	0.000215
1979	1.9681e+02	-1.1903	-26.790433	0.000507	5.066715	1.716649	0.000203
1980	1.9691e+02	-1.1583	-26.568390	0.000557	5.573386	1.888314	0.000223
1981	1.9701e+02	-1.1182	-26.374608	0.000486	4.864046	1.647983	0.000195
1982	1.9711e+02	-1.0796	-26.144491	0.000578	5.776055	1.956980	0.000231
1983	1.9721e+02	-1.0347	-25.974931	0.000426	4.256040	1.441985	0.000170
1984	1.9731e+02	-1.0075	-25.785186	0.000476	4.762712	1.613650	0.000191
1985	1.9741e+02	-0.9657	-25.518735	0.000669	6.688063	2.265977	0.000268
1986	1.9751e+02	-0.9208	-25.349175	0.000426	4.256040	1.441985	0.000170
1987	1.9761e+02	-0.8759	-25.147319	0.000507	5.066715	1.716649	0.000203
1988	1.9771e+02	-0.8342	-24.969685	0.000446	4.458709	1.510651	0.000179
1989	1.9781e+02	-0.8021	-24.743605	0.000567	5.674720	1.922647	0.000227
1990	1.9791e+02	-0.7620	-24.521562	0.000557	5.573386	1.888314	0.000223
1991	1.9800e+02	-0.7203	-24.299520	0.000557	5.573386	1.888314	0.000223
1992	1.9810e+02	-0.6754	-24.146109	0.000385	3.850703	1.304654	0.000154
1993	1.9820e+02	-0.6321	-23.915992	0.000578	5.776055	1.956980	0.000231
1994	1.9830e+02	-0.5968	-23.706061	0.000527	5.269383	1.785315	0.000211
1995	1.9840e+02	-0.5535	-23.475944	0.000578	5.776055	1.956980	0.000231
1996	1.9850e+02	-0.5182	-23.302347	0.000436	4.357374	1.476318	0.000174
1997	1.9860e+02	-0.4861	-23.124714	0.000446	4.458709	1.510651	0.000179
1998	1.9870e+02	-0.4331	-22.890560	0.000588	5.877389	1.991313	0.000235
1999	1.9880e+02	-0.3978	-22.672554	0.000547	5.472052	1.853981	0.000219
2000	1.9890e+02	-0.3626	-22.470698	0.000507	5.066715	1.716649	0.000203
2001	1.9900e+02	-0.3144	-22.272878	0.000497	4.965380	1.682316	0.000199
2002	1.9910e+02	-0.2759	-22.058910	0.000537	5.370717	1.819648	0.000215
2003	1.9920e+02	-0.2374	-21.824756	0.000588	5.877389	1.991313	0.000235
2004	1.9930e+02	-0.1909	-21.618862	0.000517	5.168049	1.750982	0.000207
2005	1.9940e+02	-0.1668	-21.412968	0.000517	5.168049	1.750982	0.000207
2006	1.9950e+02	-0.1155	-21.207074	0.000517	5.168049	1.750982	0.000207
2007	1.9960e+02	-0.0802	-21.061737	0.000365	3.648034	1.235988	0.000146
2008	1.9970e+02	-0.0417	-20.839695	0.000557	5.573386	1.888314	0.000223
2009	1.9980e+02	0.0096	-20.613615	0.000557	5.573386	1.888314	0.000227

PMax (uC/cm2):	1.01e+02
Pr (uC/cm2):	5.74e+00
-Pr (uC/cm2):	-1.95e+01
PLoss (uC/cm2):	-1.96e+01
-Vc:	-1.08e+00
C (Max-Eff) (nF):	5.04e-01
K (Eff):	1.71e+03
Vert. (+/-Pr) Shift (uC/cm2):	-6.88e+00
Offset (uC/cm2):	1.11e+00

A (Loop Area - uC/cm2·Volts):	2.35e-01



Hysteresis Version: 5.48.1 - Radiant Technologies, Inc., 1999 - 9/12/24

