»»»»»»»»»»»»»»»»»»»»»»»»»»»»»»»»»»»» Hysteresis ««««««««««««««««««««««««««««««««««««
»»»  Executed Version:	5.48.1
»»»  Vision Version:	5.48.4 (R)
»»»  Vision Compiled:	9/18/24
»»»  Driver Version:	5.47.0
»»»  Windows Version:	Windows 8 or 8.1
»»»  Processor Information:	x86 (AMD or Intel) - 32 Processors
»»»  Tester Name:	PMF21124-494 (100V)
»»»  Tester S/N:	PMF21124-494
»»»  Internal Amp Type:	100V RevK 270k
»»»  Internal Amp S/N:	iAB2-596/K     
»»»  Execution Count:	1
»»»»»»»»»»»»»»»»»»»»»»»»»»»»»»»»»»»»»»»»»»««««««««««««««««««««««««««««««««««««««««««

Stored:	6/18/2025 - 13:4:10
Configured:	06/18/25 09:47:30 AM
Executed:	06/18/25 01:03:33 PM

»»»»»»»»»»»»»»»»»»»»»»»»»»»»»»»»»»» Sample Info ««««««««««««««««««««««««««««««««««««
Sample Name:	
Lot Name:	
Wafer Name:	
Die Row/Column:	0/0
Capacitor Number:	0
Sample Area (cm2):	1.00e-04
Sample Thickness (microns):	3.00e-01

Amplifier:	Internal

»»»»»»»»»»»»»»»»»»»»»»»»»»»»»»»»»»» Tester Info «««««««««««««««««««««««««««««««««««
Tester Name:	PMF21124-494 (100V)
Tester Serial Number:	PMF21124-494
Return Signal Amp. Level:	0.19 [Index: 3]

»»»»»»»»»»»»»»»»»»»»»»»»»»»»»»»» Hysteresis Info ««««««««««««««««««««««««««««««««««
Task Name:	Hyst-554
Volts:	20.00
Field:	666.67 (kV/cm)
DCBias:	0.00
DCField:	0.00 (kV/cm)
Hysteresis Period (ms):	1.00e+00
Preset:	Enabled
Preset Delay (ms):	1.00e+03
Profile:	Standard Bipolar

»»»»»»»»»»»»»»»»»»»»»»»»»»»»»»»»»»»»»» Data «««««««««««««««««««««««««««««««««««««««
Points:	2001

Valid Data

Point	Time (ms)	Drive Voltage	Measured Polarization (uC/cm2)	Capacitance (uF)	Normalized Capacitance (uF/cm2)	Dielectric Constant	Instantaneous Current (mA)
   1	0.0000e+00	0.0144	-12.282802	0.000849	8.487902	2.875779	0.067756
   2	5.0000e-04	0.0273	-11.944022	0.000849	8.487902	2.875779	0.067756
   3	1.0000e-03	0.0545	-11.827062	0.000293	2.930347	0.992828	0.023392
   4	1.5000e-03	0.0834	-11.730267	0.000243	2.425115	0.821651	0.019359
   5	2.0000e-03	0.1315	-11.443917	0.000717	7.174298	2.430718	0.057270
   6	2.5000e-03	0.1668	-11.197898	0.000616	6.163834	2.088363	0.049204
   7	3.0000e-03	0.2102	-11.230163	-0.000081	-0.808372	-0.273884	-0.006453
   8	3.5000e-03	0.2422	-10.814754	0.001041	10.407785	3.526253	0.083082
   9	4.0000e-03	0.2904	-10.455808	0.000899	8.993134	3.046956	0.071789
  10	4.5000e-03	0.3289	-10.100895	0.000889	8.892088	3.012721	0.070983
  11	5.0000e-03	0.3658	-9.737917	0.000909	9.094181	3.081192	0.072596
  12	5.5000e-03	0.4123	-9.653222	0.000212	2.121976	0.718945	0.016939
  13	6.0000e-03	0.4556	-9.447533	0.000515	5.153369	1.746009	0.041138
  14	6.5000e-03	0.4877	-9.120852	0.000818	8.184763	2.773073	0.065336
  15	7.0000e-03	0.5310	-8.943396	0.000445	4.446044	1.506360	0.035491
  16	7.5000e-03	0.5615	-8.544119	0.001000	10.003599	3.389311	0.079855
  17	8.0000e-03	0.6112	-8.181141	0.000909	9.094181	3.081192	0.072596
  18	8.5000e-03	0.6449	-7.975452	0.000515	5.153369	1.746009	0.041138
  19	9.0000e-03	0.6802	-7.592308	0.000960	9.599413	3.252369	0.076629
  20	9.5000e-03	0.7331	-7.467282	0.000313	3.132440	1.061299	0.025005
  21	1.0000e-02	0.7636	-7.188998	0.000697	6.972205	2.362247	0.055657
  22	1.0500e-02	0.8101	-6.765523	0.001061	10.609878	3.594724	0.084695
  23	1.1000e-02	0.8551	-6.584033	0.000455	4.547090	1.540596	0.036298
  24	1.1500e-02	0.8920	-6.430776	0.000384	3.839765	1.300948	0.030652
  25	1.2000e-02	0.9369	-6.160558	0.000677	6.770112	2.293776	0.054044
  26	1.2500e-02	0.9657	-5.862109	0.000748	7.477438	2.533424	0.059690
  27	1.3000e-02	1.0010	-5.366038	0.001243	12.428714	4.210962	0.099214
  28	1.3500e-02	1.0428	-5.107919	0.000647	6.466973	2.191070	0.051624
  29	1.4000e-02	1.0796	-4.849801	0.000647	6.466973	2.191070	0.051624
  30	1.4500e-02	1.1230	-4.708643	0.000354	3.536626	1.198241	0.028232
  31	1.5000e-02	1.1631	-4.381962	0.000818	8.184763	2.773073	0.065336
  32	1.5500e-02	1.2128	-4.083512	0.000748	7.477438	2.533424	0.059690
  33	1.6000e-02	1.2481	-3.696335	0.000970	9.700460	3.286605	0.077435
  34	1.6500e-02	1.2834	-3.591474	0.000263	2.627208	0.890122	0.020972
  35	1.7000e-02	1.3139	-3.139767	0.001132	11.317203	3.834372	0.090341
  36	1.7500e-02	1.3700	-2.825186	0.000788	7.881623	2.670366	0.062916
  37	1.8000e-02	1.4037	-2.716292	0.000273	2.728254	0.924358	0.021779
  38	1.8500e-02	1.4454	-2.458174	0.000647	6.466973	2.191070	0.051624
  39	1.9000e-02	1.4935	-1.913705	0.001364	13.641271	4.621788	0.108894
  40	1.9500e-02	1.5288	-1.631388	0.000707	7.073252	2.396483	0.056463
  41	2.0000e-02	1.5770	-1.466031	0.000414	4.142905	1.403654	0.033071
  42	2.0500e-02	1.6042	-1.260343	0.000515	5.153369	1.746009	0.041138
  43	2.1000e-02	1.6475	-0.873166	0.000970	9.700460	3.286605	0.077435
  44	2.1500e-02	1.6893	-0.651345	0.000556	5.557555	1.882951	0.044364
  45	2.2000e-02	1.7133	-0.223837	0.001071	10.710924	3.628959	0.085502
  46	2.2500e-02	1.7631	-0.135109	0.000222	2.223022	0.753180	0.017746
  47	2.3000e-02	1.8144	0.389194	0.001314	13.136039	4.450610	0.104861
  48	2.3500e-02	1.8433	0.699743	0.000778	7.780577	2.636131	0.062110
  49	2.4000e-02	1.8898	0.780405	0.000202	2.020929	0.684709	0.016132
  50	2.4500e-02	1.9267	0.969960	0.000475	4.749183	1.609067	0.037911
  51	2.5000e-02	1.9732	1.187748	0.000546	5.456508	1.848715	0.043557
  52	2.5500e-02	2.0117	1.651554	0.001162	11.620342	3.937079	0.092761
  53	2.6000e-02	2.0534	1.869341	0.000546	5.456508	1.848715	0.043557
  54	2.6500e-02	2.0887	2.204088	0.000839	8.386856	2.841544	0.066949
  55	2.7000e-02	2.1288	2.518670	0.000788	7.881623	2.670366	0.062916
  56	2.7500e-02	2.1625	2.958278	0.001101	11.014063	3.731666	0.087922
  57	2.8000e-02	2.2010	3.087337	0.000323	3.233487	1.095535	0.025812
  58	2.8500e-02	2.2475	3.176065	0.000222	2.223022	0.753180	0.017746
  59	2.9000e-02	2.2828	3.692302	0.001293	12.933946	4.382140	0.103247
  60	2.9500e-02	2.3277	4.010917	0.000798	7.982670	2.704602	0.063723
  61	3.0000e-02	2.3614	4.200472	0.000475	4.749183	1.609067	0.037911
  62	3.0500e-02	2.4047	4.599749	0.001000	10.003599	3.389311	0.079855
  63	3.1000e-02	2.4449	4.994993	0.000990	9.902552	3.355076	0.079049
  64	3.1500e-02	2.4834	5.111952	0.000293	2.930347	0.992828	0.023392
  65	3.2000e-02	2.5267	5.555593	0.001112	11.115110	3.765901	0.088728
  66	3.2500e-02	2.5588	6.059731	0.001263	12.630807	4.279433	0.100827
  67	3.3000e-02	2.6005	6.124260	0.000162	1.616743	0.547767	0.012906
  68	3.3500e-02	2.6470	6.317849	0.000485	4.850230	1.643302	0.038718
  69	3.4000e-02	2.6871	6.600166	0.000707	7.073252	2.396483	0.056463
  70	3.4500e-02	2.7272	6.765523	0.000414	4.142905	1.403654	0.033071
  71	3.5000e-02	2.7721	7.124469	0.000899	8.993134	3.046956	0.071789
  72	3.5500e-02	2.8106	7.358388	0.000586	5.860694	1.985657	0.046784
  73	3.6000e-02	2.8475	7.600374	0.000606	6.062787	2.054128	0.048397
  74	3.6500e-02	2.8860	7.963353	0.000909	9.094181	3.081192	0.072596
  75	3.7000e-02	2.9341	8.156942	0.000485	4.850230	1.643302	0.038718
  76	3.7500e-02	2.9630	8.390862	0.000586	5.860694	1.985657	0.046784
  77	3.8000e-02	3.0111	8.858701	0.001172	11.721389	3.971314	0.093568
  78	3.8500e-02	3.0496	9.249912	0.000980	9.801506	3.320840	0.078242
  79	3.9000e-02	3.0865	9.229746	-0.000051	-0.505232	-0.171177	-0.004033
  80	3.9500e-02	3.1331	9.754049	0.001314	13.136039	4.450610	0.104861
  81	4.0000e-02	3.1684	9.935538	0.000455	4.547090	1.540596	0.036298
  82	4.0500e-02	3.2149	10.455808	0.001303	13.034993	4.416375	0.104054
  83	4.1000e-02	3.2534	10.782489	0.000818	8.184763	2.773073	0.065336
  84	4.1500e-02	3.2887	11.008343	0.000566	5.658601	1.917186	0.045171
  85	4.2000e-02	3.3400	11.234196	0.000566	5.658601	1.917186	0.045171
  86	4.2500e-02	3.3769	11.480215	0.000616	6.163834	2.088363	0.049204
  87	4.3000e-02	3.4010	12.024683	0.001364	13.641271	4.621788	0.108894
  88	4.3500e-02	3.4539	12.105345	0.000202	2.020929	0.684709	0.016132
  89	4.4000e-02	3.4860	12.553019	0.001122	11.216156	3.800137	0.089535
  90	4.4500e-02	3.5261	12.936164	0.000960	9.599413	3.252369	0.076629
  91	4.5000e-02	3.5742	13.089422	0.000384	3.839765	1.300948	0.030652
  92	4.5500e-02	3.6031	13.404003	0.000788	7.881623	2.670366	0.062916
  93	4.6000e-02	3.6512	13.581460	0.000445	4.446044	1.506360	0.035491
  94	4.6500e-02	3.6769	13.787148	0.000515	5.153369	1.746009	0.041138
  95	4.7000e-02	3.7266	14.065431	0.000697	6.972205	2.362247	0.055657
  96	4.7500e-02	3.7603	14.513105	0.001122	11.216156	3.800137	0.089535
  97	4.8000e-02	3.8052	14.896250	0.000960	9.599413	3.252369	0.076629
  98	4.8500e-02	3.8502	15.097905	0.000505	5.052323	1.711773	0.040331
  99	4.9000e-02	3.8887	15.384255	0.000717	7.174298	2.430718	0.057270
 100	4.9500e-02	3.9272	15.577843	0.000485	4.850230	1.643302	0.038718
 101	5.0000e-02	3.9673	15.973087	0.000990	9.902552	3.355076	0.079049
 102	5.0500e-02	4.0074	16.235238	0.000657	6.568019	2.225305	0.052430
 103	5.1000e-02	4.0555	16.440926	0.000515	5.153369	1.746009	0.041138
 104	5.1500e-02	4.0892	16.763574	0.000808	8.083716	2.738837	0.064530
 105	5.2000e-02	4.1437	17.170917	0.001021	10.205692	3.457782	0.081469
 106	5.2500e-02	4.1774	17.308043	0.000344	3.435579	1.164006	0.027425
 107	5.3000e-02	4.2127	17.590360	0.000707	7.073252	2.396483	0.056463
 108	5.3500e-02	4.2560	18.102563	0.001283	12.832900	4.347904	0.102441
 109	5.4000e-02	4.2913	18.231622	0.000323	3.233487	1.095535	0.025812
 110	5.4500e-02	4.3314	18.703495	0.001182	11.822435	4.005549	0.094375
 111	5.5000e-02	4.3635	19.231831	0.001324	13.237085	4.484846	0.105667
 112	5.5500e-02	4.4100	19.348791	0.000293	2.930347	0.992828	0.023392
 113	5.6000e-02	4.4534	19.546412	0.000495	4.951276	1.677538	0.039524
 114	5.6500e-02	4.4902	19.804531	0.000647	6.466973	2.191070	0.051624
 115	5.7000e-02	4.5320	20.203807	0.001000	10.003599	3.389311	0.079855
 116	5.7500e-02	4.5640	20.465959	0.000657	6.568019	2.225305	0.052430
 117	5.8000e-02	4.5993	20.720044	0.000637	6.365927	2.156834	0.050817
 118	5.8500e-02	4.6523	20.905567	0.000465	4.648137	1.574831	0.037105
 119	5.9000e-02	4.6908	21.260479	0.000889	8.892088	3.012721	0.070983
 120	5.9500e-02	4.7341	21.663789	0.001010	10.104645	3.423547	0.080662
 121	6.0000e-02	4.7566	22.059033	0.000990	9.902552	3.355076	0.079049
 122	6.0500e-02	4.8031	22.268754	0.000525	5.254416	1.780244	0.041944
 123	6.1000e-02	4.8528	22.587369	0.000798	7.982670	2.704602	0.063723
 124	6.1500e-02	4.8881	22.893884	0.000768	7.679530	2.601895	0.061303
 125	6.2000e-02	4.9266	23.083440	0.000475	4.749183	1.609067	0.037911
 126	6.2500e-02	4.9683	23.446419	0.000909	9.094181	3.081192	0.072596
 127	6.3000e-02	4.9972	23.736802	0.000728	7.275345	2.464953	0.058077
 128	6.3500e-02	5.0485	24.055417	0.000798	7.982670	2.704602	0.063723
 129	6.4000e-02	5.0999	24.305469	0.000626	6.264880	2.122599	0.050010
 130	6.4500e-02	5.1368	24.478892	0.000434	4.344998	1.472125	0.034685
 131	6.5000e-02	5.1672	24.930599	0.001132	11.317203	3.834372	0.090341
 132	6.5500e-02	5.2122	25.083857	0.000384	3.839765	1.300948	0.030652
 133	6.6000e-02	5.2458	25.204850	0.000303	3.031394	1.027064	0.024199
 134	6.6500e-02	5.2892	25.656557	0.001132	11.317203	3.834372	0.090341
 135	6.7000e-02	5.3277	25.995337	0.000849	8.487902	2.875779	0.067756
 136	6.7500e-02	5.3726	26.576103	0.001455	14.550689	4.929907	0.116153
 137	6.8000e-02	5.4063	26.640633	0.000162	1.616743	0.547767	0.012906
 138	6.8500e-02	5.4496	26.995545	0.000889	8.892088	3.012721	0.070983
 139	6.9000e-02	5.4881	27.261730	0.000667	6.669066	2.259541	0.053237
 140	6.9500e-02	5.5282	27.673106	0.001031	10.306738	3.492017	0.082275
 141	7.0000e-02	5.5699	27.931224	0.000647	6.466973	2.191070	0.051624
 142	7.0500e-02	5.6036	28.229674	0.000748	7.477438	2.533424	0.059690
 143	7.1000e-02	5.6421	28.677348	0.001122	11.216156	3.800137	0.089535
 144	7.1500e-02	5.6886	28.895135	0.000546	5.456508	1.848715	0.043557
 145	7.2000e-02	5.7351	29.004029	0.000273	2.728254	0.924358	0.021779
 146	7.2500e-02	5.7720	29.189551	0.000465	4.648137	1.574831	0.037105
 147	7.3000e-02	5.8041	29.427504	0.000596	5.961741	2.019892	0.047591
 148	7.3500e-02	5.8458	29.899376	0.001182	11.822435	4.005549	0.094375
 149	7.4000e-02	5.8891	30.242190	0.000859	8.588949	2.910015	0.068563
 150	7.4500e-02	5.9341	30.580970	0.000849	8.487902	2.875779	0.067756
 151	7.5000e-02	5.9694	30.774559	0.000485	4.850230	1.643302	0.038718
 152	7.5500e-02	6.0159	31.040743	0.000667	6.669066	2.259541	0.053237
 153	7.6000e-02	6.0351	31.504550	0.001162	11.620342	3.937079	0.092761
 154	7.6500e-02	6.0881	31.754602	0.000626	6.264880	2.122599	0.050010
 155	7.7000e-02	6.1346	32.053051	0.000748	7.477438	2.533424	0.059690
 156	7.7500e-02	6.1667	32.367633	0.000788	7.881623	2.670366	0.062916
 157	7.8000e-02	6.2020	32.787075	0.001051	10.508831	3.560488	0.083888
 158	7.8500e-02	6.2533	33.113756	0.000818	8.184763	2.773073	0.065336
 159	7.9000e-02	6.2806	33.113756	0.000000	0.000000	0.000000	0.000000
 160	7.9500e-02	6.3271	33.412205	0.000748	7.477438	2.533424	0.059690
 161	8.0000e-02	6.3704	33.726787	0.000788	7.881623	2.670366	0.062916
 162	8.0500e-02	6.4025	34.319653	0.001485	14.853829	5.032613	0.118573
 163	8.1000e-02	6.4538	34.767327	0.001122	11.216156	3.800137	0.089535
 164	8.1500e-02	6.4923	34.747161	-0.000051	-0.505232	-0.171177	-0.004033
 165	8.2000e-02	6.5196	35.102074	0.000889	8.892088	3.012721	0.070983
 166	8.2500e-02	6.5741	35.420688	0.000798	7.982670	2.704602	0.063723
 167	8.3000e-02	6.6078	35.707038	0.000717	7.174298	2.430718	0.057270
 168	8.3500e-02	6.6479	35.799800	0.000232	2.324068	0.787416	0.018552
 169	8.4000e-02	6.6913	36.094216	0.000738	7.376391	2.499189	0.058883
 170	8.4500e-02	6.7217	36.356367	0.000657	6.568019	2.225305	0.052430
 171	8.5000e-02	6.7650	36.775810	0.001051	10.508831	3.560488	0.083888
 172	8.5500e-02	6.8068	37.179119	0.001010	10.104645	3.423547	0.080662
 173	8.6000e-02	6.8469	37.308179	0.000323	3.233487	1.095535	0.025812
 174	8.6500e-02	6.8854	37.824415	0.001293	12.933946	4.382140	0.103247
 175	8.7000e-02	6.9239	38.034136	0.000525	5.254416	1.780244	0.041944
 176	8.7500e-02	6.9608	38.453579	0.001051	10.508831	3.560488	0.083888
 177	8.8000e-02	7.0009	38.683465	0.000576	5.759648	1.951422	0.045977
 178	8.8500e-02	7.0410	39.038378	0.000889	8.892088	3.012721	0.070983
 179	8.9000e-02	7.0907	39.244066	0.000515	5.153369	1.746009	0.041138
 180	8.9500e-02	7.1292	39.292463	0.000121	1.212557	0.410826	0.009679
 181	9.0000e-02	7.1693	39.764336	0.001182	11.822435	4.005549	0.094375
 182	9.0500e-02	7.2014	40.127315	0.000909	9.094181	3.081192	0.072596
 183	9.1000e-02	7.2351	40.425764	0.000748	7.477438	2.533424	0.059690
 184	9.1500e-02	7.2784	40.712114	0.000717	7.174298	2.430718	0.057270
 185	9.2000e-02	7.3265	40.966199	0.000637	6.365927	2.156834	0.050817
 186	9.2500e-02	7.3666	41.341277	0.000940	9.397320	3.183898	0.075016
 187	9.3000e-02	7.4003	41.478403	0.000344	3.435579	1.164006	0.027425
 188	9.3500e-02	7.4485	41.966408	0.001223	12.226621	4.142491	0.097601
 189	9.4000e-02	7.4854	42.272923	0.000768	7.679530	2.601895	0.061303
 190	9.4500e-02	7.5206	42.652034	0.000950	9.498367	3.218134	0.075822
 191	9.5000e-02	7.5752	42.696398	0.000111	1.111511	0.376590	0.008873
 192	9.5500e-02	7.6089	42.809325	0.000283	2.829301	0.958593	0.022585
 193	9.6000e-02	7.6458	43.115841	0.000768	7.679530	2.601895	0.061303
 194	9.6500e-02	7.6827	43.430422	0.000788	7.881623	2.670366	0.062916
 195	9.7000e-02	7.7276	43.995056	0.001415	14.146503	4.792965	0.112927
 196	9.7500e-02	7.7677	44.341903	0.000869	8.689995	2.944250	0.069369
 197	9.8000e-02	7.8126	44.652451	0.000778	7.780577	2.636131	0.062110
 198	9.8500e-02	7.8511	45.007364	0.000889	8.892088	3.012721	0.070983
 199	9.9000e-02	7.8960	45.233217	0.000566	5.658601	1.917186	0.045171
 200	9.9500e-02	7.9265	45.418740	0.000465	4.648137	1.574831	0.037105
 201	1.0000e-01	7.9714	45.664759	0.000616	6.163834	2.088363	0.049204
 202	1.0050e-01	8.0019	45.979341	0.000788	7.881623	2.670366	0.062916
 203	1.0100e-01	8.0500	46.217293	0.000596	5.961741	2.019892	0.047591
 204	1.0150e-01	8.0853	46.693199	0.001192	11.923482	4.039785	0.095181
 205	1.0200e-01	8.1206	47.007781	0.000788	7.881623	2.670366	0.062916
 206	1.0250e-01	8.1671	47.225568	0.000546	5.456508	1.848715	0.043557
 207	1.0300e-01	8.1960	47.431256	0.000515	5.153369	1.746009	0.041138
 208	1.0350e-01	8.2474	47.943460	0.001283	12.832900	4.347904	0.102441
 209	1.0400e-01	8.2891	48.270141	0.000818	8.184763	2.773073	0.065336
 210	1.0450e-01	8.3292	48.479862	0.000525	5.254416	1.780244	0.041944
 211	1.0500e-01	8.3629	48.770245	0.000728	7.275345	2.464953	0.058077
 212	1.0550e-01	8.4046	48.895271	0.000313	3.132440	1.061299	0.025005
 213	1.0600e-01	8.4479	49.351011	0.001142	11.418249	3.868608	0.091148
 214	1.0650e-01	8.4944	49.726089	0.000940	9.397320	3.183898	0.075016
 215	1.0700e-01	8.5265	49.899512	0.000434	4.344998	1.472125	0.034685
 216	1.0750e-01	8.5714	50.012439	0.000283	2.829301	0.958593	0.022585
 217	1.0800e-01	8.6051	50.278624	0.000667	6.669066	2.259541	0.053237
 218	1.0850e-01	8.6452	50.645636	0.000920	9.195227	3.115427	0.073402
 219	1.0900e-01	8.6773	50.742430	0.000243	2.425115	0.821651	0.019359
 220	1.0950e-01	8.7270	51.105409	0.000909	9.094181	3.081192	0.072596
 221	1.1000e-01	8.7575	51.540984	0.001091	10.913017	3.697430	0.087115
 222	1.1050e-01	8.8153	52.069320	0.001324	13.237085	4.484846	0.105667
 223	1.1100e-01	8.8441	52.238710	0.000424	4.243951	1.437890	0.033878
 224	1.1150e-01	8.8907	52.444398	0.000515	5.153369	1.746009	0.041138
 225	1.1200e-01	8.9243	52.654119	0.000525	5.254416	1.780244	0.041944
 226	1.1250e-01	8.9645	53.065495	0.001031	10.306738	3.492017	0.082275
 227	1.1300e-01	9.0174	53.186488	0.000303	3.031394	1.027064	0.024199
 228	1.1350e-01	9.0543	53.388143	0.000505	5.052323	1.711773	0.040331
 229	1.1400e-01	9.0912	53.759188	0.000930	9.296274	3.149663	0.074209
 230	1.1450e-01	9.1281	54.122167	0.000909	9.094181	3.081192	0.072596
 231	1.1500e-01	9.1698	54.348020	0.000566	5.658601	1.917186	0.045171
 232	1.1550e-01	9.2083	54.751330	0.001010	10.104645	3.423547	0.080662
 233	1.1600e-01	9.2500	55.259500	0.001273	12.731853	4.313669	0.101634
 234	1.1650e-01	9.2901	55.404692	0.000364	3.637672	1.232477	0.029038
 235	1.1700e-01	9.3334	55.638612	0.000586	5.860694	1.985657	0.046784
 236	1.1750e-01	9.3655	55.876565	0.000596	5.961741	2.019892	0.047591
 237	1.1800e-01	9.4136	56.195179	0.000798	7.982670	2.704602	0.063723
 238	1.1850e-01	9.4505	56.247610	0.000131	1.313604	0.445061	0.010486
 239	1.1900e-01	9.4906	56.667052	0.001051	10.508831	3.560488	0.083888
 240	1.1950e-01	9.5243	57.082461	0.001041	10.407785	3.526253	0.083082
 241	1.2000e-01	9.5660	57.380910	0.000748	7.477438	2.533424	0.059690
 242	1.2050e-01	9.6126	57.691459	0.000778	7.780577	2.636131	0.062110
 243	1.2100e-01	9.6511	58.062504	0.000930	9.296274	3.149663	0.074209
 244	1.2150e-01	9.6912	58.397251	0.000839	8.386856	2.841544	0.066949
 245	1.2200e-01	9.7217	58.469847	0.000182	1.818836	0.616238	0.014519
 246	1.2250e-01	9.7730	59.054646	0.001465	14.651736	4.964142	0.116960
 247	1.2300e-01	9.8115	59.248235	0.000485	4.850230	1.643302	0.038718
 248	1.2350e-01	9.8452	59.207904	-0.000101	-1.010465	-0.342355	-0.008066
 249	1.2400e-01	9.8869	59.490221	0.000707	7.073252	2.396483	0.056463
 250	1.2450e-01	9.9318	59.869332	0.000950	9.498367	3.218134	0.075822
 251	1.2500e-01	9.9623	60.260543	0.000980	9.801506	3.320840	0.078242
 252	1.2550e-01	10.0072	60.466231	0.000515	5.153369	1.746009	0.041138
 253	1.2600e-01	10.0473	60.930037	0.001162	11.620342	3.937079	0.092761
 254	1.2650e-01	10.0874	61.123626	0.000485	4.850230	1.643302	0.038718
 255	1.2700e-01	10.1291	61.317215	0.000485	4.850230	1.643302	0.038718
 256	1.2750e-01	10.1692	61.526936	0.000525	5.254416	1.780244	0.041944
 257	1.2800e-01	10.2045	61.946378	0.001051	10.508831	3.560488	0.083888
 258	1.2850e-01	10.2462	62.192397	0.000616	6.163834	2.088363	0.049204
 259	1.2900e-01	10.2847	62.531177	0.000849	8.487902	2.875779	0.067756
 260	1.2950e-01	10.3297	62.873991	0.000859	8.588949	2.910015	0.068563
 261	1.3000e-01	10.3698	62.918355	0.000111	1.111511	0.376590	0.008873
 262	1.3050e-01	10.4083	63.361996	0.001112	11.115110	3.765901	0.088728
 263	1.3100e-01	10.4387	63.737074	0.000940	9.397320	3.183898	0.075016
 264	1.3150e-01	10.4933	64.011324	0.000687	6.871159	2.328012	0.054850
 265	1.3200e-01	10.5206	64.261377	0.000626	6.264880	2.122599	0.050010
 266	1.3250e-01	10.5687	64.656620	0.000990	9.902552	3.355076	0.079049
 267	1.3300e-01	10.6152	64.906672	0.000626	6.264880	2.122599	0.050010
 268	1.3350e-01	10.6569	65.108327	0.000505	5.052323	1.711773	0.040331
 269	1.3400e-01	10.6906	65.257552	0.000374	3.738719	1.266712	0.029845
 270	1.3450e-01	10.7323	65.729424	0.001182	11.822435	4.005549	0.094375
 271	1.3500e-01	10.7644	66.140801	0.001031	10.306738	3.492017	0.082275
 272	1.3550e-01	10.8013	66.269860	0.000323	3.233487	1.095535	0.025812
 273	1.3600e-01	10.8478	66.423117	0.000384	3.839765	1.300948	0.030652
 274	1.3650e-01	10.8911	66.773997	0.000879	8.791041	2.978485	0.070176
 275	1.3700e-01	10.9248	67.104711	0.000829	8.285809	2.807308	0.066143
 276	1.3750e-01	10.9601	67.354763	0.000626	6.264880	2.122599	0.050010
 277	1.3800e-01	11.0066	67.572551	0.000546	5.456508	1.848715	0.043557
 278	1.3850e-01	11.0484	67.858901	0.000717	7.174298	2.430718	0.057270
 279	1.3900e-01	11.0997	68.197681	0.000849	8.487902	2.875779	0.067756
 280	1.3950e-01	11.1334	68.403369	0.000515	5.153369	1.746009	0.041138
 281	1.4000e-01	11.1703	68.524362	0.000303	3.031394	1.027064	0.024199
 282	1.4050e-01	11.2072	68.939771	0.001041	10.407785	3.526253	0.083082
 283	1.4100e-01	11.2473	69.415677	0.001192	11.923482	4.039785	0.095181
 284	1.4150e-01	11.2906	69.814953	0.001000	10.003599	3.389311	0.079855
 285	1.4200e-01	11.3259	69.774622	-0.000101	-1.010465	-0.342355	-0.008066
 286	1.4250e-01	11.3692	70.161800	0.000970	9.700460	3.286605	0.077435
 287	1.4300e-01	11.4045	70.440084	0.000697	6.972205	2.362247	0.055657
 288	1.4350e-01	11.4574	70.508646	0.000172	1.717790	0.582003	0.013713
 289	1.4400e-01	11.4799	71.036982	0.001324	13.237085	4.484846	0.105667
 290	1.4450e-01	11.5200	71.303167	0.000667	6.669066	2.259541	0.053237
 291	1.4500e-01	11.5617	71.621782	0.000798	7.982670	2.704602	0.063723
 292	1.4550e-01	11.6098	71.980727	0.000899	8.993134	3.046956	0.071789
 293	1.4600e-01	11.6451	72.162217	0.000455	4.547090	1.540596	0.036298
 294	1.4650e-01	11.6820	72.396136	0.000586	5.860694	1.985657	0.046784
 295	1.4700e-01	11.7221	72.678453	0.000707	7.073252	2.396483	0.056463
 296	1.4750e-01	11.7654	72.989002	0.000778	7.780577	2.636131	0.062110
 297	1.4800e-01	11.8120	73.255186	0.000667	6.669066	2.259541	0.053237
 298	1.4850e-01	11.8457	73.557669	0.000758	7.578484	2.567660	0.060496
 299	1.4900e-01	11.8954	73.670596	0.000283	2.829301	0.958593	0.022585
 300	1.4950e-01	11.9339	74.021475	0.000879	8.791041	2.978485	0.070176
 301	1.5000e-01	11.9724	74.396553	0.000940	9.397320	3.183898	0.075016
 302	1.5050e-01	12.0093	74.489315	0.000232	2.324068	0.787416	0.018552
 303	1.5100e-01	12.0558	74.678870	0.000475	4.749183	1.609067	0.037911
 304	1.5150e-01	12.0799	75.094279	0.001041	10.407785	3.526253	0.083082
 305	1.5200e-01	12.1328	75.429027	0.000839	8.386856	2.841544	0.066949
 306	1.5250e-01	12.1617	75.735542	0.000768	7.679530	2.601895	0.061303
 307	1.5300e-01	12.2066	76.094488	0.000899	8.993134	3.046956	0.071789
 308	1.5350e-01	12.2403	76.396970	0.000758	7.578484	2.567660	0.060496
 309	1.5400e-01	12.2868	76.679287	0.000707	7.073252	2.396483	0.056463
 310	1.5450e-01	12.3349	77.090663	0.001031	10.306738	3.492017	0.082275
 311	1.5500e-01	12.3702	77.231822	0.000354	3.536626	1.198241	0.028232
 312	1.5550e-01	12.4103	77.300384	0.000172	1.717790	0.582003	0.013713
 313	1.5600e-01	12.4456	77.546403	0.000616	6.163834	2.088363	0.049204
 314	1.5650e-01	12.4970	77.788389	0.000606	6.062787	2.054128	0.048397
 315	1.5700e-01	12.5323	78.232030	0.001112	11.115110	3.765901	0.088728
 316	1.5750e-01	12.5772	78.566777	0.000839	8.386856	2.841544	0.066949
 317	1.5800e-01	12.6045	78.784565	0.000546	5.456508	1.848715	0.043557
 318	1.5850e-01	12.6430	79.042683	0.000647	6.466973	2.191070	0.051624
 319	1.5900e-01	12.6831	79.401629	0.000899	8.993134	3.046956	0.071789
 320	1.5950e-01	12.7264	79.744442	0.000859	8.588949	2.910015	0.068563
 321	1.6000e-01	12.7649	79.752508	0.000020	0.202093	0.068471	0.001613
 322	1.6050e-01	12.8098	79.865435	0.000283	2.829301	0.958593	0.022585
 323	1.6100e-01	12.8467	80.175984	0.000778	7.780577	2.636131	0.062110
 324	1.6150e-01	12.8900	80.845478	0.001677	16.773711	5.683087	0.133899
 325	1.6200e-01	12.9221	81.123762	0.000697	6.972205	2.362247	0.055657
 326	1.6250e-01	12.9654	81.063265	-0.000152	-1.515697	-0.513532	-0.012099
 327	1.6300e-01	13.0055	81.377847	0.000788	7.881623	2.670366	0.062916
 328	1.6350e-01	13.0456	81.591601	0.000536	5.355462	1.814480	0.042751
 329	1.6400e-01	13.0809	82.107838	0.001293	12.933946	4.382140	0.103247
 330	1.6450e-01	13.1242	82.224798	0.000293	2.930347	0.992828	0.023392
 331	1.6500e-01	13.1675	82.523247	0.000748	7.477438	2.533424	0.059690
 332	1.6550e-01	13.2157	82.761200	0.000596	5.961741	2.019892	0.047591
 333	1.6600e-01	13.2462	83.043517	0.000707	7.073252	2.396483	0.056463
 334	1.6650e-01	13.2782	83.164510	0.000303	3.031394	1.027064	0.024199
 335	1.6700e-01	13.3215	83.620250	0.001142	11.418249	3.868608	0.091148
 336	1.6750e-01	13.3681	83.834004	0.000536	5.355462	1.814480	0.042751
 337	1.6800e-01	13.4098	84.096156	0.000657	6.568019	2.225305	0.052430
 338	1.6850e-01	13.4419	84.414770	0.000798	7.982670	2.704602	0.063723
 339	1.6900e-01	13.4884	84.572061	0.000394	3.940812	1.335183	0.031458
 340	1.6950e-01	13.5333	84.922941	0.000879	8.791041	2.978485	0.070176
 341	1.7000e-01	13.5590	85.108463	0.000465	4.648137	1.574831	0.037105
 342	1.7050e-01	13.6119	85.467409	0.000899	8.993134	3.046956	0.071789
 343	1.7100e-01	13.6488	85.681163	0.000536	5.355462	1.814480	0.042751
 344	1.7150e-01	13.6841	86.028010	0.000869	8.689995	2.944250	0.069369
 345	1.7200e-01	13.7210	86.310327	0.000707	7.073252	2.396483	0.056463
 346	1.7250e-01	13.7755	86.564412	0.000637	6.365927	2.156834	0.050817
 347	1.7300e-01	13.8012	86.854795	0.000728	7.275345	2.464953	0.058077
 348	1.7350e-01	13.8461	87.185509	0.000829	8.285809	2.807308	0.066143
 349	1.7400e-01	13.8911	87.483958	0.000748	7.477438	2.533424	0.059690
 350	1.7450e-01	13.9199	87.665448	0.000455	4.547090	1.540596	0.036298
 351	1.7500e-01	13.9681	87.871136	0.000515	5.153369	1.746009	0.041138
 352	1.7550e-01	14.0114	88.262346	0.000980	9.801506	3.320840	0.078242
 353	1.7600e-01	14.0467	88.399472	0.000344	3.435579	1.164006	0.027425
 354	1.7650e-01	14.0804	88.774550	0.000940	9.397320	3.183898	0.075016
 355	1.7700e-01	14.1124	89.125429	0.000879	8.791041	2.978485	0.070176
 356	1.7750e-01	14.1734	89.081065	-0.000111	-1.111511	-0.376590	-0.008873
 357	1.7800e-01	14.2039	89.339184	0.000647	6.466973	2.191070	0.051624
 358	1.7850e-01	14.2408	89.798957	0.001152	11.519296	3.902843	0.091955
 359	1.7900e-01	14.2857	90.081274	0.000707	7.073252	2.396483	0.056463
 360	1.7950e-01	14.3258	90.307127	0.000566	5.658601	1.917186	0.045171
 361	1.8000e-01	14.3739	90.472484	0.000414	4.142905	1.403654	0.033071
 362	1.8050e-01	14.4060	90.589444	0.000293	2.930347	0.992828	0.023392
 363	1.8100e-01	14.4525	91.033085	0.001112	11.115110	3.765901	0.088728
 364	1.8150e-01	14.4910	91.400097	0.000920	9.195227	3.115427	0.073402
 365	1.8200e-01	14.5183	91.537222	0.000344	3.435579	1.164006	0.027425
 366	1.8250e-01	14.5712	91.718712	0.000455	4.547090	1.540596	0.036298
 367	1.8300e-01	14.6049	92.126055	0.001021	10.205692	3.457782	0.081469
 368	1.8350e-01	14.6418	92.497100	0.000930	9.296274	3.149663	0.074209
 369	1.8400e-01	14.6835	92.593894	0.000243	2.425115	0.821651	0.019359
 370	1.8450e-01	14.7253	93.033502	0.001101	11.014063	3.731666	0.087922
 371	1.8500e-01	14.7638	93.311786	0.000697	6.972205	2.362247	0.055657
 372	1.8550e-01	14.8135	93.473110	0.000404	4.041858	1.369419	0.032265
 373	1.8600e-01	14.8552	93.751394	0.000697	6.972205	2.362247	0.055657
 374	1.8650e-01	14.8905	94.110339	0.000899	8.993134	3.046956	0.071789
 375	1.8700e-01	14.9242	94.364425	0.000637	6.365927	2.156834	0.050817
 376	1.8750e-01	14.9611	94.416855	0.000131	1.313604	0.445061	0.010486
 377	1.8800e-01	15.0124	94.674973	0.000647	6.466973	2.191070	0.051624
 378	1.8850e-01	15.0397	95.021820	0.000869	8.689995	2.944250	0.069369
 379	1.8900e-01	15.0814	95.497725	0.001192	11.923482	4.039785	0.095181
 380	1.8950e-01	15.1231	95.610652	0.000283	2.829301	0.958593	0.022585
 381	1.9000e-01	15.1680	95.876837	0.000667	6.669066	2.259541	0.053237
 382	1.9050e-01	15.2097	96.199484	0.000808	8.083716	2.738837	0.064530
 383	1.9100e-01	15.2482	96.183352	-0.000040	-0.404186	-0.136942	-0.003226
 384	1.9150e-01	15.2851	96.602794	0.001051	10.508831	3.560488	0.083888
 385	1.9200e-01	15.3204	97.167428	0.001415	14.146503	4.792965	0.112927
 386	1.9250e-01	15.3653	97.340851	0.000434	4.344998	1.472125	0.034685
 387	1.9300e-01	15.4054	97.393282	0.000131	1.313604	0.445061	0.010486
 388	1.9350e-01	15.4488	97.631234	0.000596	5.961741	2.019892	0.047591
 389	1.9400e-01	15.4921	97.800625	0.000424	4.243951	1.437890	0.033878
 390	1.9450e-01	15.5354	97.974048	0.000434	4.344998	1.472125	0.034685
 391	1.9500e-01	15.5723	98.486251	0.001283	12.832900	4.347904	0.102441
 392	1.9550e-01	15.6060	98.760502	0.000687	6.871159	2.328012	0.054850
 393	1.9600e-01	15.6461	99.006521	0.000616	6.163834	2.088363	0.049204
 394	1.9650e-01	15.6894	99.490493	0.001213	12.125574	4.108256	0.096794
 395	1.9700e-01	15.7263	99.696181	0.000515	5.153369	1.746009	0.041138
 396	1.9750e-01	15.7616	99.788942	0.000232	2.324068	0.787416	0.018552
 397	1.9800e-01	15.8065	100.103524	0.000788	7.881623	2.670366	0.062916
 398	1.9850e-01	15.8466	100.091425	-0.000030	-0.303139	-0.102706	-0.002420
 399	1.9900e-01	15.8867	100.393907	0.000758	7.578484	2.567660	0.060496
 400	1.9950e-01	15.9316	100.837548	0.001112	11.115110	3.765901	0.088728
 401	2.0000e-01	15.9685	100.978706	0.000354	3.536626	1.198241	0.028232
 402	2.0050e-01	16.0118	101.325553	0.000869	8.689995	2.944250	0.069369
 403	2.0100e-01	16.0503	101.624002	0.000748	7.477438	2.533424	0.059690
 404	2.0150e-01	16.0856	101.898253	0.000687	6.871159	2.328012	0.054850
 405	2.0200e-01	16.1338	102.253165	0.000889	8.892088	3.012721	0.070983
 406	2.0250e-01	16.1610	102.382225	0.000323	3.233487	1.095535	0.025812
 407	2.0300e-01	16.2092	102.725038	0.000859	8.588949	2.910015	0.068563
 408	2.0350e-01	16.2525	102.684707	-0.000101	-1.010465	-0.342355	-0.008066
 409	2.0400e-01	16.2733	103.204977	0.001303	13.034993	4.416375	0.104054
 410	2.0450e-01	16.3327	103.313870	0.000273	2.728254	0.924358	0.021779
 411	2.0500e-01	16.3648	103.725246	0.001031	10.306738	3.492017	0.082275
 412	2.0550e-01	16.4097	104.019663	0.000738	7.376391	2.499189	0.058883
 413	2.0600e-01	16.4418	104.229384	0.000525	5.254416	1.780244	0.041944
 414	2.0650e-01	16.4771	104.499601	0.000677	6.770112	2.293776	0.054044
 415	2.0700e-01	16.5284	104.681091	0.000455	4.547090	1.540596	0.036298
 416	2.0750e-01	16.5621	105.015838	0.000839	8.386856	2.841544	0.066949
 417	2.0800e-01	16.6134	105.169096	0.000384	3.839765	1.300948	0.030652
 418	2.0850e-01	16.6407	105.600637	0.001081	10.811971	3.663195	0.086308
 419	2.0900e-01	16.6920	105.862789	0.000657	6.568019	2.225305	0.052430
 420	2.0950e-01	16.7289	106.084609	0.000556	5.557555	1.882951	0.044364
 421	2.1000e-01	16.7658	106.270132	0.000465	4.648137	1.574831	0.037105
 422	2.1050e-01	16.8140	106.411290	0.000354	3.536626	1.198241	0.028232
 423	2.1100e-01	16.8428	106.709739	0.000748	7.477438	2.533424	0.059690
 424	2.1150e-01	16.8910	106.923494	0.000536	5.355462	1.814480	0.042751
 425	2.1200e-01	16.9263	107.355035	0.001081	10.811971	3.663195	0.086308
 426	2.1250e-01	16.9664	107.613153	0.000647	6.466973	2.191070	0.051624
 427	2.1300e-01	17.0097	107.697849	0.000212	2.121976	0.718945	0.016939
 428	2.1350e-01	17.0514	107.806742	0.000273	2.728254	0.924358	0.021779
 429	2.1400e-01	17.0803	108.234251	0.001071	10.710924	3.628959	0.085502
 430	2.1450e-01	17.1300	108.609329	0.000940	9.397320	3.183898	0.075016
 431	2.1500e-01	17.1669	108.810984	0.000505	5.052323	1.711773	0.040331
 432	2.1550e-01	17.2022	109.004572	0.000485	4.850230	1.643302	0.038718
 433	2.1600e-01	17.2471	109.452246	0.001122	11.216156	3.800137	0.089535
 434	2.1650e-01	17.2936	109.472412	0.000051	0.505232	0.171177	0.004033
 435	2.1700e-01	17.3273	109.831358	0.000899	8.993134	3.046956	0.071789
 436	2.1750e-01	17.3706	110.073344	0.000606	6.062787	2.054128	0.048397
 437	2.1800e-01	17.4091	110.254833	0.000455	4.547090	1.540596	0.036298
 438	2.1850e-01	17.4364	110.573448	0.000798	7.982670	2.704602	0.063723
 439	2.1900e-01	17.4845	110.928361	0.000889	8.892088	3.012721	0.070983
 440	2.1950e-01	17.5246	111.343770	0.001041	10.407785	3.526253	0.083082
 441	2.2000e-01	17.5647	111.380068	0.000091	0.909418	0.308119	0.007260
 442	2.2050e-01	17.5984	111.730947	0.000879	8.791041	2.978485	0.070176
 443	2.2100e-01	17.6482	111.698682	-0.000081	-0.808372	-0.273884	-0.006453
 444	2.2150e-01	17.6931	111.956801	0.000647	6.466973	2.191070	0.051624
 445	2.2200e-01	17.7332	112.356077	0.001000	10.003599	3.389311	0.079855
 446	2.2250e-01	17.7540	112.505302	0.000374	3.738719	1.266712	0.029845
 447	2.2300e-01	17.8054	112.767453	0.000657	6.568019	2.225305	0.052430
 448	2.2350e-01	17.8567	113.235293	0.001172	11.721389	3.971314	0.093568
 449	2.2400e-01	17.8904	113.424849	0.000475	4.749183	1.609067	0.037911
 450	2.2450e-01	17.9209	113.372418	-0.000131	-1.313604	-0.445061	-0.010486
 451	2.2500e-01	17.9706	113.751530	0.000950	9.498367	3.218134	0.075822
 452	2.2550e-01	18.0123	114.005615	0.000637	6.365927	2.156834	0.050817
 453	2.2600e-01	18.0444	114.445222	0.001101	11.014063	3.731666	0.087922
 454	2.2650e-01	18.0974	114.542017	0.000243	2.425115	0.821651	0.019359
 455	2.2700e-01	18.1310	114.888863	0.000869	8.689995	2.944250	0.069369
 456	2.2750e-01	18.1663	115.183280	0.000738	7.376391	2.499189	0.058883
 457	2.2800e-01	18.2080	115.316372	0.000333	3.334533	1.129770	0.026618
 458	2.2850e-01	18.2433	115.679351	0.000909	9.094181	3.081192	0.072596
 459	2.2900e-01	18.2834	115.784211	0.000263	2.627208	0.890122	0.020972
 460	2.2950e-01	18.3268	116.001999	0.000546	5.456508	1.848715	0.043557
 461	2.3000e-01	18.3653	116.312547	0.000778	7.780577	2.636131	0.062110
 462	2.3050e-01	18.4086	116.578732	0.000667	6.669066	2.259541	0.053237
 463	2.3100e-01	18.4503	116.832817	0.000637	6.365927	2.156834	0.050817
 464	2.3150e-01	18.4872	116.982042	0.000374	3.738719	1.266712	0.029845
 465	2.3200e-01	18.5209	117.506344	0.001314	13.136039	4.450610	0.104861
 466	2.3250e-01	18.5658	117.776562	0.000677	6.770112	2.293776	0.054044
 467	2.3300e-01	18.6187	118.014515	0.000596	5.961741	2.019892	0.047591
 468	2.3350e-01	18.6572	118.083077	0.000172	1.717790	0.582003	0.013713
 469	2.3400e-01	18.6845	118.417825	0.000839	8.386856	2.841544	0.066949
 470	2.3450e-01	18.7230	118.817101	0.001000	10.003599	3.389311	0.079855
 471	2.3500e-01	18.7711	118.998591	0.000455	4.547090	1.540596	0.036298
 472	2.3550e-01	18.8112	119.091352	0.000232	2.324068	0.787416	0.018552
 473	2.3600e-01	18.8529	119.381735	0.000728	7.275345	2.464953	0.058077
 474	2.3650e-01	18.8914	119.518861	0.000344	3.435579	1.164006	0.027425
 475	2.3700e-01	18.9364	119.748747	0.000576	5.759648	1.951422	0.045977
 476	2.3750e-01	18.9717	120.059296	0.000778	7.780577	2.636131	0.062110
 477	2.3800e-01	19.0037	120.430341	0.000930	9.296274	3.149663	0.074209
 478	2.3850e-01	19.0438	120.845750	0.001041	10.407785	3.526253	0.083082
 479	2.3900e-01	19.0840	120.894147	0.000121	1.212557	0.410826	0.009679
 480	2.3950e-01	19.1337	121.220828	0.000818	8.184763	2.773073	0.065336
 481	2.4000e-01	19.1674	121.325689	0.000263	2.627208	0.890122	0.020972
 482	2.4050e-01	19.2123	121.583807	0.000647	6.466973	2.191070	0.051624
 483	2.4100e-01	19.2492	121.809661	0.000566	5.658601	1.917186	0.045171
 484	2.4150e-01	19.2941	122.019382	0.000525	5.254416	1.780244	0.041944
 485	2.4200e-01	19.3406	122.285566	0.000667	6.669066	2.259541	0.053237
 486	2.4250e-01	19.3663	122.793737	0.001273	12.731853	4.313669	0.101634
 487	2.4300e-01	19.4064	122.713075	-0.000202	-2.020929	-0.684709	-0.016132
 488	2.4350e-01	19.4513	122.846167	0.000333	3.334533	1.129770	0.026618
 489	2.4400e-01	19.4898	123.330139	0.001213	12.125574	4.108256	0.096794
 490	2.4450e-01	19.5283	123.560025	0.000576	5.759648	1.951422	0.045977
 491	2.4500e-01	19.5700	123.584224	0.000061	0.606279	0.205413	0.004840
 492	2.4550e-01	19.5989	124.068196	0.001213	12.125574	4.108256	0.096794
 493	2.4600e-01	19.6454	124.298082	0.000576	5.759648	1.951422	0.045977
 494	2.4650e-01	19.6839	124.519903	0.000556	5.557555	1.882951	0.044364
 495	2.4700e-01	19.7337	124.612664	0.000232	2.324068	0.787416	0.018552
 496	2.4750e-01	19.7641	124.939345	0.000818	8.184763	2.773073	0.065336
 497	2.4800e-01	19.8043	125.387019	0.001122	11.216156	3.800137	0.089535
 498	2.4850e-01	19.8476	125.395085	0.000020	0.202093	0.068471	0.001613
 499	2.4900e-01	19.8893	125.600773	0.000515	5.153369	1.746009	0.041138
 500	2.4950e-01	19.9278	125.883090	0.000707	7.073252	2.396483	0.056463
 501	2.5000e-01	19.9695	126.117010	0.000586	5.860694	1.985657	0.046784
 502	2.5050e-01	19.9711	126.334797	0.000546	5.456508	1.848715	0.043557
 503	2.5100e-01	19.9406	126.258168	0.000192	1.919883	0.650474	-0.015326
 504	2.5150e-01	19.9149	125.987951	0.000677	6.770112	2.293776	-0.054044
 505	2.5200e-01	19.8764	125.713700	0.000687	6.871159	2.328012	-0.054850
 506	2.5250e-01	19.8331	125.423317	0.000728	7.275345	2.464953	-0.058077
 507	2.5300e-01	19.7834	125.447515	-0.000061	-0.606279	-0.205413	0.004840
 508	2.5350e-01	19.7545	125.253927	0.000485	4.850230	1.643302	-0.038718
 509	2.5400e-01	19.7096	125.020007	0.000586	5.860694	1.985657	-0.046784
 510	2.5450e-01	19.6791	124.814319	0.000515	5.153369	1.746009	-0.041138
 511	2.5500e-01	19.6406	124.749789	0.000162	1.616743	0.547767	-0.012906
 512	2.5550e-01	19.5909	124.556201	0.000485	4.850230	1.643302	-0.038718
 513	2.5600e-01	19.5508	124.225487	0.000829	8.285809	2.807308	-0.066143
 514	2.5650e-01	19.5203	124.064163	0.000404	4.041858	1.369419	-0.032265
 515	2.5700e-01	19.4642	123.729415	0.000839	8.386856	2.841544	-0.066949
 516	2.5750e-01	19.4289	123.745548	-0.000040	-0.404186	-0.136942	0.003226
 517	2.5800e-01	19.3904	123.188980	0.001394	13.944411	4.724494	-0.111314
 518	2.5850e-01	19.3535	123.092186	0.000243	2.425115	0.821651	-0.019359
 519	2.5900e-01	19.3198	123.063954	0.000071	0.707325	0.239648	-0.005646
 520	2.5950e-01	19.2749	122.842134	0.000556	5.557555	1.882951	-0.044364
 521	2.6000e-01	19.2299	122.696942	0.000364	3.637672	1.232477	-0.029038
 522	2.6050e-01	19.1995	122.467056	0.000576	5.759648	1.951422	-0.045977
 523	2.6100e-01	19.1561	122.192805	0.000687	6.871159	2.328012	-0.054850
 524	2.6150e-01	19.1176	122.120209	0.000182	1.818836	0.616238	-0.014519
 525	2.6200e-01	19.0727	121.825793	0.000738	7.376391	2.499189	-0.058883
 526	2.6250e-01	19.0294	121.571708	0.000637	6.365927	2.156834	-0.050817
 527	2.6300e-01	18.9941	121.253093	0.000798	7.982670	2.704602	-0.063723
 528	2.6350e-01	18.9604	121.192596	0.000152	1.515697	0.513532	-0.012099
 529	2.6400e-01	18.9171	121.067570	0.000313	3.132440	1.061299	-0.025005
 530	2.6450e-01	18.8802	120.886081	0.000455	4.547090	1.540596	-0.036298
 531	2.6500e-01	18.8369	120.563433	0.000808	8.083716	2.738837	-0.064530
 532	2.6550e-01	18.8016	120.446473	0.000293	2.930347	0.992828	-0.023392
 533	2.6600e-01	18.7487	120.357745	0.000222	2.223022	0.753180	-0.017746
 534	2.6650e-01	18.7182	120.043163	0.000788	7.881623	2.670366	-0.062916
 535	2.6700e-01	18.6893	119.704383	0.000849	8.487902	2.875779	-0.067756
 536	2.6750e-01	18.6300	119.486596	0.000546	5.456508	1.848715	-0.043557
 537	2.6800e-01	18.5931	119.397868	0.000222	2.223022	0.753180	-0.017746
 538	2.6850e-01	18.5562	119.176047	0.000556	5.557555	1.882951	-0.044364
 539	2.6900e-01	18.5225	118.805002	0.000930	9.296274	3.149663	-0.074209
 540	2.6950e-01	18.4792	118.579149	0.000566	5.658601	1.917186	-0.045171
 541	2.7000e-01	18.4439	118.385560	0.000485	4.850230	1.643302	-0.038718
 542	2.7050e-01	18.3893	118.333130	0.000131	1.313604	0.445061	-0.010486
 543	2.7100e-01	18.3540	118.252468	0.000202	2.020929	0.684709	-0.016132
 544	2.7150e-01	18.3107	117.720099	0.001334	13.338132	4.519081	-0.106474
 545	2.7200e-01	18.2738	117.687834	0.000081	0.808372	0.273884	-0.006453
 546	2.7250e-01	18.2353	117.470046	0.000546	5.456508	1.848715	-0.043557
 547	2.7300e-01	18.1920	117.211928	0.000647	6.466973	2.191070	-0.051624
 548	2.7350e-01	18.1503	116.836850	0.000940	9.397320	3.183898	-0.075016
 549	2.7400e-01	18.1150	116.691658	0.000364	3.637672	1.232477	-0.029038
 550	2.7450e-01	18.0685	116.445639	0.000616	6.163834	2.088363	-0.049204
 551	2.7500e-01	18.0300	116.320613	0.000313	3.132440	1.061299	-0.025005
 552	2.7550e-01	18.0043	116.143157	0.000445	4.446044	1.506360	-0.035491
 553	2.7600e-01	17.9562	115.687417	0.001142	11.418249	3.868608	-0.091148
 554	2.7650e-01	17.9129	115.509961	0.000445	4.446044	1.506360	-0.035491
 555	2.7700e-01	17.8824	115.477696	0.000081	0.808372	0.273884	-0.006453
 556	2.7750e-01	17.8423	115.255875	0.000556	5.557555	1.882951	-0.044364
 557	2.7800e-01	17.7942	114.880797	0.000940	9.397320	3.183898	-0.075016
 558	2.7850e-01	17.7556	114.832400	0.000121	1.212557	0.410826	-0.009679
 559	2.7900e-01	17.7171	114.558149	0.000687	6.871159	2.328012	-0.054850
 560	2.7950e-01	17.6770	114.227435	0.000829	8.285809	2.807308	-0.066143
 561	2.8000e-01	17.6353	113.981416	0.000616	6.163834	2.088363	-0.049204
 562	2.8050e-01	17.5952	113.695066	0.000717	7.174298	2.430718	-0.057270
 563	2.8100e-01	17.5551	113.485345	0.000525	5.254416	1.780244	-0.041944
 564	2.8150e-01	17.5102	113.319988	0.000414	4.142905	1.403654	-0.033071
 565	2.8200e-01	17.4621	113.207061	0.000283	2.829301	0.958593	-0.022585
 566	2.8250e-01	17.4364	113.033638	0.000434	4.344998	1.472125	-0.034685
 567	2.8300e-01	17.3899	112.618229	0.001041	10.407785	3.526253	-0.083082
 568	2.8350e-01	17.3514	112.440772	0.000445	4.446044	1.506360	-0.035491
 569	2.8400e-01	17.3177	112.327846	0.000283	2.829301	0.958593	-0.022585
 570	2.8450e-01	17.2824	111.997132	0.000829	8.285809	2.807308	-0.066143
 571	2.8500e-01	17.2279	111.985032	0.000030	0.303139	0.102706	-0.002420
 572	2.8550e-01	17.2022	111.476862	0.001273	12.731853	4.313669	-0.101634
 573	2.8600e-01	17.1476	111.464763	0.000030	0.303139	0.102706	-0.002420
 574	2.8650e-01	17.1268	111.069519	0.000990	9.902552	3.355076	-0.079049
 575	2.8700e-01	17.0755	110.996923	0.000182	1.818836	0.616238	-0.014519
 576	2.8750e-01	17.0386	110.557315	0.001101	11.014063	3.731666	-0.087922
 577	2.8800e-01	16.9985	110.299197	0.000647	6.466973	2.191070	-0.051624
 578	2.8850e-01	16.9551	109.932185	0.000920	9.195227	3.115427	-0.073402
 579	2.8900e-01	16.9102	110.049145	-0.000293	-2.930347	-0.992828	0.023392
 580	2.8950e-01	16.8717	109.778927	0.000677	6.770112	2.293776	-0.054044
 581	2.9000e-01	16.8364	109.645835	0.000333	3.334533	1.129770	-0.026618
 582	2.9050e-01	16.7947	109.383684	0.000657	6.568019	2.225305	-0.052430
 583	2.9100e-01	16.7498	109.153797	0.000576	5.759648	1.951422	-0.045977
 584	2.9150e-01	16.7161	108.790818	0.000909	9.094181	3.081192	-0.072596
 585	2.9200e-01	16.6744	108.782752	0.000020	0.202093	0.068471	-0.001613
 586	2.9250e-01	16.6343	108.427839	0.000889	8.892088	3.012721	-0.070983
 587	2.9300e-01	16.5926	108.331045	0.000243	2.425115	0.821651	-0.019359
 588	2.9350e-01	16.5541	108.113258	0.000546	5.456508	1.848715	-0.043557
 589	2.9400e-01	16.5076	107.709948	0.001010	10.104645	3.423547	-0.080662
 590	2.9450e-01	16.4691	107.528458	0.000455	4.547090	1.540596	-0.036298
 591	2.9500e-01	16.4386	107.290506	0.000596	5.961741	2.019892	-0.047591
 592	2.9550e-01	16.4017	106.871063	0.001051	10.508831	3.560488	-0.083888
 593	2.9600e-01	16.3535	106.713772	0.000394	3.940812	1.335183	-0.031458
 594	2.9650e-01	16.3167	106.572614	0.000354	3.536626	1.198241	-0.028232
 595	2.9700e-01	16.2733	106.330628	0.000606	6.062787	2.054128	-0.048397
 596	2.9750e-01	16.2364	106.128973	0.000505	5.052323	1.711773	-0.040331
 597	2.9800e-01	16.1995	105.729696	0.001000	10.003599	3.389311	-0.079855
 598	2.9850e-01	16.1610	105.515942	0.000536	5.355462	1.814480	-0.042751
 599	2.9900e-01	16.1145	105.455446	0.000152	1.515697	0.513532	-0.012099
 600	2.9950e-01	16.0680	105.265890	0.000475	4.749183	1.609067	-0.037911
 601	3.0000e-01	16.0279	105.140864	0.000313	3.132440	1.061299	-0.025005
 602	3.0050e-01	15.9942	104.725455	0.001041	10.407785	3.526253	-0.083082
 603	3.0100e-01	15.9621	104.378608	0.000869	8.689995	2.944250	-0.069369
 604	3.0150e-01	15.9204	104.168887	0.000525	5.254416	1.780244	-0.041944
 605	3.0200e-01	15.8787	103.991431	0.000445	4.446044	1.506360	-0.035491
 606	3.0250e-01	15.8322	103.822041	0.000424	4.243951	1.437890	-0.033878
 607	3.0300e-01	15.7937	103.628452	0.000485	4.850230	1.643302	-0.038718
 608	3.0350e-01	15.7568	103.301771	0.000818	8.184763	2.773073	-0.065336
 609	3.0400e-01	15.7135	103.051719	0.000626	6.264880	2.122599	-0.050010
 610	3.0450e-01	15.6669	102.837965	0.000536	5.355462	1.814480	-0.042751
 611	3.0500e-01	15.6365	102.567747	0.000677	6.770112	2.293776	-0.054044
 612	3.0550e-01	15.5980	102.470953	0.000243	2.425115	0.821651	-0.019359
 613	3.0600e-01	15.5578	102.265265	0.000515	5.153369	1.746009	-0.041138
 614	3.0650e-01	15.5226	102.200735	0.000162	1.616743	0.547767	-0.012906
 615	3.0700e-01	15.4776	101.978915	0.000556	5.557555	1.882951	-0.044364
 616	3.0750e-01	15.4391	101.603837	0.000940	9.397320	3.183898	-0.075016
 617	3.0800e-01	15.3958	101.337652	0.000667	6.669066	2.259541	-0.053237
 618	3.0850e-01	15.3573	100.837548	0.001253	12.529760	4.245198	-0.100021
 619	3.0900e-01	15.3060	100.639926	0.000495	4.951276	1.677538	-0.039524
 620	3.0950e-01	15.2675	100.450370	0.000475	4.749183	1.609067	-0.037911
 621	3.1000e-01	15.2338	100.543132	-0.000232	-2.324068	-0.787416	0.018552
 622	3.1050e-01	15.1905	100.075292	0.001172	11.721389	3.971314	-0.093568
 623	3.1100e-01	15.1504	99.768777	0.000768	7.679530	2.601895	-0.061303
 624	3.1150e-01	15.1087	99.595353	0.000434	4.344998	1.472125	-0.034685
 625	3.1200e-01	15.0670	99.409831	0.000465	4.648137	1.574831	-0.037105
 626	3.1250e-01	15.0413	99.212209	0.000495	4.951276	1.677538	-0.039524
 627	3.1300e-01	14.9948	98.893594	0.000798	7.982670	2.704602	-0.063723
 628	3.1350e-01	14.9595	98.679840	0.000536	5.355462	1.814480	-0.042751
 629	3.1400e-01	14.9146	98.510450	0.000424	4.243951	1.437890	-0.033878
 630	3.1450e-01	14.8648	98.272497	0.000596	5.961741	2.019892	-0.047591
 631	3.1500e-01	14.8392	98.062776	0.000525	5.254416	1.780244	-0.041944
 632	3.1550e-01	14.7990	97.812724	0.000626	6.264880	2.122599	-0.050010
 633	3.1600e-01	14.7493	97.405381	0.001021	10.205692	3.457782	-0.081469
 634	3.1650e-01	14.7076	97.207759	0.000495	4.951276	1.677538	-0.039524
 635	3.1700e-01	14.6819	96.860913	0.000869	8.689995	2.944250	-0.069369
 636	3.1750e-01	14.6386	96.606827	0.000637	6.365927	2.156834	-0.050817
 637	3.1800e-01	14.5873	96.336610	0.000677	6.770112	2.293776	-0.054044
 638	3.1850e-01	14.5536	95.977664	0.000899	8.993134	3.046956	-0.071789
 639	3.1900e-01	14.5071	95.961532	0.000040	0.404186	0.136942	-0.003226
 640	3.1950e-01	14.4734	95.751810	0.000525	5.254416	1.780244	-0.041944
 641	3.2000e-01	14.4317	95.497725	0.000637	6.365927	2.156834	-0.050817
 642	3.2050e-01	14.4012	95.179110	0.000798	7.982670	2.704602	-0.063723
 643	3.2100e-01	14.3611	94.977456	0.000505	5.052323	1.711773	-0.040331
 644	3.2150e-01	14.3114	94.759668	0.000546	5.456508	1.848715	-0.043557
 645	3.2200e-01	14.2793	94.666907	0.000232	2.324068	0.787416	-0.018552
 646	3.2250e-01	14.2263	94.408789	0.000647	6.466973	2.191070	-0.051624
 647	3.2300e-01	14.1959	94.186968	0.000556	5.557555	1.882951	-0.044364
 648	3.2350e-01	14.1654	93.598136	0.001475	14.752782	4.998378	-0.117766
 649	3.2400e-01	14.1124	93.473110	0.000313	3.132440	1.061299	-0.025005
 650	3.2450e-01	14.0723	93.267422	0.000515	5.153369	1.746009	-0.041138
 651	3.2500e-01	14.0258	92.964939	0.000758	7.578484	2.567660	-0.060496
 652	3.2550e-01	13.9937	92.843946	0.000303	3.031394	1.027064	-0.024199
 653	3.2600e-01	13.9488	92.622126	0.000556	5.557555	1.882951	-0.044364
 654	3.2650e-01	13.9167	92.440637	0.000455	4.547090	1.540596	-0.036298
 655	3.2700e-01	13.8686	92.105889	0.000839	8.386856	2.841544	-0.066949
 656	3.2750e-01	13.8285	91.855837	0.000626	6.264880	2.122599	-0.050010
 657	3.2800e-01	13.7948	91.444461	0.001031	10.306738	3.492017	-0.082275
 658	3.2850e-01	13.7531	91.404130	0.000101	1.010465	0.342355	-0.008066
 659	3.2900e-01	13.7114	91.214575	0.000475	4.749183	1.609067	-0.037911
 660	3.2950e-01	13.6809	90.827397	0.000970	9.700460	3.286605	-0.077435
 661	3.3000e-01	13.6247	90.758834	0.000172	1.717790	0.582003	-0.013713
 662	3.3050e-01	13.5895	90.222432	0.001344	13.439178	4.553317	-0.107280
 663	3.3100e-01	13.5654	89.992546	0.000576	5.759648	1.951422	-0.045977
 664	3.3150e-01	13.5205	89.911884	0.000202	2.020929	0.684709	-0.016132
 665	3.3200e-01	13.4756	89.698129	0.000536	5.355462	1.814480	-0.042751
 666	3.3250e-01	13.4306	89.427912	0.000677	6.770112	2.293776	-0.054044
 667	3.3300e-01	13.3873	89.238356	0.000475	4.749183	1.609067	-0.037911
 668	3.3350e-01	13.3633	89.060900	0.000445	4.446044	1.506360	-0.035491
 669	3.3400e-01	13.3167	88.681789	0.000950	9.498367	3.218134	-0.075822
 670	3.3450e-01	13.2830	88.254280	0.001071	10.710924	3.628959	-0.085502
 671	3.3500e-01	13.2317	88.145387	0.000273	2.728254	0.924358	-0.021779
 672	3.3550e-01	13.1916	87.915500	0.000576	5.759648	1.951422	-0.045977
 673	3.3600e-01	13.1595	87.798540	0.000293	2.930347	0.992828	-0.023392
 674	3.3650e-01	13.1178	87.435561	0.000909	9.094181	3.081192	-0.072596
 675	3.3700e-01	13.0745	87.112913	0.000808	8.083716	2.738837	-0.064530
 676	3.3750e-01	13.0328	86.790265	0.000808	8.083716	2.738837	-0.064530
 677	3.3800e-01	12.9911	86.725736	0.000162	1.616743	0.547767	-0.012906
 678	3.3850e-01	12.9622	86.669272	0.000141	1.414650	0.479297	-0.011293
 679	3.3900e-01	12.9125	86.084473	0.001465	14.651736	4.964142	-0.116960
 680	3.3950e-01	12.8820	85.717461	0.000920	9.195227	3.115427	-0.073402
 681	3.4000e-01	12.8290	85.765858	-0.000121	-1.212557	-0.410826	0.009679
 682	3.4050e-01	12.7986	85.447244	0.000798	7.982670	2.704602	-0.063723
 683	3.4100e-01	12.7697	85.334317	0.000283	2.829301	0.958593	-0.022585
 684	3.4150e-01	12.7184	85.047967	0.000717	7.174298	2.430718	-0.057270
 685	3.4200e-01	12.6783	84.757584	0.000728	7.275345	2.464953	-0.058077
 686	3.4250e-01	12.6414	84.523664	0.000586	5.860694	1.985657	-0.046784
 687	3.4300e-01	12.5916	84.253446	0.000677	6.770112	2.293776	-0.054044
 688	3.4350e-01	12.5563	84.075990	0.000445	4.446044	1.506360	-0.035491
 689	3.4400e-01	12.5178	83.652515	0.001061	10.609878	3.594724	-0.084695
 690	3.4450e-01	12.4761	83.519422	0.000333	3.334533	1.129770	-0.026618
 691	3.4500e-01	12.4296	83.402463	0.000293	2.930347	0.992828	-0.023392
 692	3.4550e-01	12.3911	83.059649	0.000859	8.588949	2.910015	-0.068563
 693	3.4600e-01	12.3606	82.757167	0.000758	7.578484	2.567660	-0.060496
 694	3.4650e-01	12.3157	82.426453	0.000829	8.285809	2.807308	-0.066143
 695	3.4700e-01	12.2756	82.128003	0.000748	7.477438	2.533424	-0.059690
 696	3.4750e-01	12.2355	82.180434	-0.000131	-1.313604	-0.445061	0.010486
 697	3.4800e-01	12.1970	81.777124	0.001010	10.104645	3.423547	-0.080662
 698	3.4850e-01	12.1489	81.353648	0.001061	10.609878	3.594724	-0.084695
 699	3.4900e-01	12.1168	81.123762	0.000576	5.759648	1.951422	-0.045977
 700	3.4950e-01	12.0670	80.885809	0.000596	5.961741	2.019892	-0.047591
 701	3.5000e-01	12.0301	80.780948	0.000263	2.627208	0.890122	-0.020972
 702	3.5050e-01	11.9916	80.591393	0.000475	4.749183	1.609067	-0.037911
 703	3.5100e-01	11.9580	80.260679	0.000829	8.285809	2.807308	-0.066143
 704	3.5150e-01	11.9211	79.970296	0.000728	7.275345	2.464953	-0.058077
 705	3.5200e-01	11.8826	79.764608	0.000515	5.153369	1.746009	-0.041138
 706	3.5250e-01	11.8392	79.357265	0.001021	10.205692	3.457782	-0.081469
 707	3.5300e-01	11.7991	79.191908	0.000414	4.142905	1.403654	-0.033071
 708	3.5350e-01	11.7590	78.845061	0.000869	8.689995	2.944250	-0.069369
 709	3.5400e-01	11.7237	78.691803	0.000384	3.839765	1.300948	-0.030652
 710	3.5450e-01	11.6772	78.574844	0.000293	2.930347	0.992828	-0.023392
 711	3.5500e-01	11.6339	78.195732	0.000950	9.498367	3.218134	-0.075822
 712	3.5550e-01	11.5954	77.739992	0.001142	11.418249	3.868608	-0.091148
 713	3.5600e-01	11.5601	77.703694	0.000091	0.909418	0.308119	-0.007260
 714	3.5650e-01	11.5120	77.300384	0.001010	10.104645	3.423547	-0.080662
 715	3.5700e-01	11.4671	77.014034	0.000717	7.174298	2.430718	-0.057270
 716	3.5750e-01	11.4302	77.042266	-0.000071	-0.707325	-0.239648	0.005646
 717	3.5800e-01	11.3868	76.683320	0.000899	8.993134	3.046956	-0.071789
 718	3.5850e-01	11.3676	76.150951	0.001334	13.338132	4.519081	-0.106474
 719	3.5900e-01	11.3147	75.864601	0.000717	7.174298	2.430718	-0.057270
 720	3.5950e-01	11.2762	75.751674	0.000283	2.829301	0.958593	-0.022585
 721	3.6000e-01	11.2393	75.529854	0.000556	5.557555	1.882951	-0.044364
 722	3.6050e-01	11.1911	75.170908	0.000899	8.993134	3.046956	-0.071789
 723	3.6100e-01	11.1494	75.053948	0.000293	2.930347	0.992828	-0.023392
 724	3.6150e-01	11.1221	74.739367	0.000788	7.881623	2.670366	-0.062916
 725	3.6200e-01	11.0772	74.586109	0.000384	3.839765	1.300948	-0.030652
 726	3.6250e-01	11.0355	74.440917	0.000364	3.637672	1.232477	-0.029038
 727	3.6300e-01	11.0034	74.086005	0.000889	8.892088	3.012721	-0.070983
 728	3.6350e-01	10.9569	73.803688	0.000707	7.073252	2.396483	-0.056463
 729	3.6400e-01	10.9232	73.493139	0.000778	7.780577	2.636131	-0.062110
 730	3.6450e-01	10.8751	73.432643	0.000152	1.515697	0.513532	-0.012099
 731	3.6500e-01	10.8446	72.980936	0.001132	11.317203	3.834372	-0.090341
 732	3.6550e-01	10.7965	72.799446	0.000455	4.547090	1.540596	-0.036298
 733	3.6600e-01	10.7484	72.751049	0.000121	1.212557	0.410826	-0.009679
 734	3.6650e-01	10.7163	72.121886	0.001576	15.763247	5.340733	-0.125833
 735	3.6700e-01	10.6762	71.883933	0.000596	5.961741	2.019892	-0.047591
 736	3.6750e-01	10.6457	71.750841	0.000333	3.334533	1.129770	-0.026618
 737	3.6800e-01	10.5911	71.565318	0.000465	4.648137	1.574831	-0.037105
 738	3.6850e-01	10.5687	71.109578	0.001142	11.418249	3.868608	-0.091148
 739	3.6900e-01	10.5174	70.835327	0.000687	6.871159	2.328012	-0.054850
 740	3.6950e-01	10.4788	70.399753	0.001091	10.913017	3.697430	-0.087115
 741	3.7000e-01	10.4243	70.440084	-0.000101	-1.010465	-0.342355	0.008066
 742	3.7050e-01	10.3906	70.125502	0.000788	7.881623	2.670366	-0.062916
 743	3.7100e-01	10.3553	69.798821	0.000818	8.184763	2.773073	-0.065336
 744	3.7150e-01	10.3152	69.645563	0.000384	3.839765	1.300948	-0.030652
 745	3.7200e-01	10.2799	69.504405	0.000354	3.536626	1.198241	-0.028232
 746	3.7250e-01	10.2430	69.117227	0.000970	9.700460	3.286605	-0.077435
 747	3.7300e-01	10.1933	68.774414	0.000859	8.588949	2.910015	-0.068563
 748	3.7350e-01	10.1580	68.677620	0.000243	2.425115	0.821651	-0.019359
 749	3.7400e-01	10.1179	68.177515	0.001253	12.529760	4.245198	-0.100021
 750	3.7450e-01	10.0698	68.064589	0.000283	2.829301	0.958593	-0.022585
 751	3.7500e-01	10.0329	67.717742	0.000869	8.689995	2.944250	-0.069369
 752	3.7550e-01	9.9960	67.399127	0.000798	7.982670	2.704602	-0.063723
 753	3.7600e-01	9.9527	67.153108	0.000616	6.163834	2.088363	-0.049204
 754	3.7650e-01	9.9126	67.011950	0.000354	3.536626	1.198241	-0.028232
 755	3.7700e-01	9.8805	66.717534	0.000738	7.376391	2.499189	-0.058883
 756	3.7750e-01	9.8259	66.362621	0.000889	8.892088	3.012721	-0.070983
 757	3.7800e-01	9.7890	66.225496	0.000344	3.435579	1.164006	-0.027425
 758	3.7850e-01	9.7473	65.729424	0.001243	12.428714	4.210962	-0.099214
 759	3.7900e-01	9.7104	65.221254	0.001273	12.731853	4.313669	-0.101634
 760	3.7950e-01	9.6783	65.305949	-0.000212	-2.121976	-0.718945	0.016939
 761	3.8000e-01	9.6382	64.942970	0.000909	9.094181	3.081192	-0.072596
 762	3.8050e-01	9.5949	64.870374	0.000182	1.818836	0.616238	-0.014519
 763	3.8100e-01	9.5484	64.680819	0.000475	4.749183	1.609067	-0.037911
 764	3.8150e-01	9.5195	64.463032	0.000546	5.456508	1.848715	-0.043557
 765	3.8200e-01	9.4778	64.116185	0.000869	8.689995	2.944250	-0.069369
 766	3.8250e-01	9.4329	63.777405	0.000849	8.487902	2.875779	-0.067756
 767	3.8300e-01	9.3896	63.487022	0.000728	7.275345	2.464953	-0.058077
 768	3.8350e-01	9.3511	63.285367	0.000505	5.052323	1.711773	-0.040331
 769	3.8400e-01	9.3190	62.938520	0.000869	8.689995	2.944250	-0.069369
 770	3.8450e-01	9.2869	62.680402	0.000647	6.466973	2.191070	-0.051624
 771	3.8500e-01	9.2292	62.559409	0.000303	3.031394	1.027064	-0.024199
 772	3.8550e-01	9.1939	62.289191	0.000677	6.770112	2.293776	-0.054044
 773	3.8600e-01	9.1554	61.978643	0.000778	7.780577	2.636131	-0.062110
 774	3.8650e-01	9.1104	61.781021	0.000495	4.951276	1.677538	-0.039524
 775	3.8700e-01	9.0719	61.369645	0.001031	10.306738	3.492017	-0.082275
 776	3.8750e-01	9.0350	61.244619	0.000313	3.132440	1.061299	-0.025005
 777	3.8800e-01	8.9949	60.869541	0.000940	9.397320	3.183898	-0.075016
 778	3.8850e-01	8.9596	60.619489	0.000626	6.264880	2.122599	-0.050010
 779	3.8900e-01	8.9115	60.228278	0.000980	9.801506	3.320840	-0.078242
 780	3.8950e-01	8.8842	59.873365	0.000889	8.892088	3.012721	-0.070983
 781	3.9000e-01	8.8361	59.780604	0.000232	2.324068	0.787416	-0.018552
 782	3.9050e-01	8.7912	59.461989	0.000798	7.982670	2.704602	-0.063723
 783	3.9100e-01	8.7559	59.389393	0.000182	1.818836	0.616238	-0.014519
 784	3.9150e-01	8.7174	58.897355	0.001233	12.327667	4.176727	-0.098408
 785	3.9200e-01	8.6773	58.723932	0.000434	4.344998	1.472125	-0.034685
 786	3.9250e-01	8.6324	58.457748	0.000667	6.669066	2.259541	-0.053237
 787	3.9300e-01	8.5923	58.074603	0.000960	9.599413	3.252369	-0.076629
 788	3.9350e-01	8.5522	57.820518	0.000637	6.365927	2.156834	-0.050817
 789	3.9400e-01	8.5233	57.679360	0.000354	3.536626	1.198241	-0.028232
 790	3.9450e-01	8.4768	57.417208	0.000657	6.568019	2.225305	-0.052430
 791	3.9500e-01	8.4351	57.082461	0.000839	8.386856	2.841544	-0.066949
 792	3.9550e-01	8.3998	56.707383	0.000940	9.397320	3.183898	-0.075016
 793	3.9600e-01	8.3597	56.505728	0.000505	5.052323	1.711773	-0.040331
 794	3.9650e-01	8.3147	56.102418	0.001010	10.104645	3.423547	-0.080662
 795	3.9700e-01	8.2730	55.945127	0.000394	3.940812	1.335183	-0.031458
 796	3.9750e-01	8.2313	55.824134	0.000303	3.031394	1.027064	-0.024199
 797	3.9800e-01	8.1928	55.634579	0.000475	4.749183	1.609067	-0.037911
 798	3.9850e-01	8.1559	55.178839	0.001142	11.418249	3.868608	-0.091148
 799	3.9900e-01	8.1174	54.856191	0.000808	8.083716	2.738837	-0.064530
 800	3.9950e-01	8.0757	54.432715	0.001061	10.609878	3.594724	-0.084695
 801	4.0000e-01	8.0356	54.182663	0.000626	6.264880	2.122599	-0.050010
 802	4.0050e-01	7.9987	53.936644	0.000616	6.163834	2.088363	-0.049204
 803	4.0100e-01	7.9538	53.710791	0.000566	5.658601	1.917186	-0.045171
 804	4.0150e-01	7.9137	53.448639	0.000657	6.568019	2.225305	-0.052430
 805	4.0200e-01	7.8768	53.267150	0.000455	4.547090	1.540596	-0.036298
 806	4.0250e-01	7.8415	52.855774	0.001031	10.306738	3.492017	-0.082275
 807	4.0300e-01	7.7950	52.783178	0.000182	1.818836	0.616238	-0.014519
 808	4.0350e-01	7.7613	52.492795	0.000728	7.275345	2.464953	-0.058077
 809	4.0400e-01	7.7115	52.117717	0.000940	9.397320	3.183898	-0.075016
 810	4.0450e-01	7.6714	51.839433	0.000697	6.972205	2.362247	-0.055657
 811	4.0500e-01	7.6345	51.456289	0.000960	9.599413	3.252369	-0.076629
 812	4.0550e-01	7.5993	51.351428	0.000263	2.627208	0.890122	-0.020972
 813	4.0600e-01	7.5575	50.964250	0.000970	9.700460	3.286605	-0.077435
 814	4.0650e-01	7.5126	50.581106	0.000960	9.599413	3.252369	-0.076629
 815	4.0700e-01	7.4789	50.318955	0.000657	6.568019	2.225305	-0.052430
 816	4.0750e-01	7.4340	50.125366	0.000485	4.850230	1.643302	-0.038718
 817	4.0800e-01	7.3971	49.972108	0.000384	3.839765	1.300948	-0.030652
 818	4.0850e-01	7.3474	49.568798	0.001010	10.104645	3.423547	-0.080662
 819	4.0900e-01	7.3121	49.346978	0.000556	5.557555	1.882951	-0.044364
 820	4.0950e-01	7.2656	49.161455	0.000465	4.648137	1.574831	-0.037105
 821	4.1000e-01	7.2319	49.096926	0.000162	1.616743	0.547767	-0.012906
 822	4.1050e-01	7.2014	48.625053	0.001182	11.822435	4.005549	-0.094375
 823	4.1100e-01	7.1565	48.286273	0.000849	8.487902	2.875779	-0.067756
 824	4.1150e-01	7.1260	47.766003	0.001303	13.034993	4.416375	-0.104054
 825	4.1200e-01	7.0747	47.580481	0.000465	4.648137	1.574831	-0.037105
 826	4.1250e-01	7.0297	47.398991	0.000455	4.547090	1.540596	-0.036298
 827	4.1300e-01	6.9864	47.060211	0.000849	8.487902	2.875779	-0.067756
 828	4.1350e-01	6.9543	46.632703	0.001071	10.710924	3.628959	-0.085502
 829	4.1400e-01	6.9158	46.427015	0.000515	5.153369	1.746009	-0.041138
 830	4.1450e-01	6.8725	46.301989	0.000313	3.132440	1.061299	-0.025005
 831	4.1500e-01	6.8421	46.124532	0.000445	4.446044	1.506360	-0.035491
 832	4.1550e-01	6.7971	45.709123	0.001041	10.407785	3.526253	-0.083082
 833	4.1600e-01	6.7554	45.338078	0.000930	9.296274	3.149663	-0.074209
 834	4.1650e-01	6.7137	45.160622	0.000445	4.446044	1.506360	-0.035491
 835	4.1700e-01	6.6704	44.866205	0.000738	7.376391	2.499189	-0.058883
 836	4.1750e-01	6.6319	44.616153	0.000626	6.264880	2.122599	-0.050010
 837	4.1800e-01	6.5918	44.241075	0.000940	9.397320	3.183898	-0.075016
 838	4.1850e-01	6.5565	43.999089	0.000606	6.062787	2.054128	-0.048397
 839	4.1900e-01	6.5196	43.825666	0.000434	4.344998	1.472125	-0.034685
 840	4.1950e-01	6.4747	43.325562	0.001253	12.529760	4.245198	-0.100021
 841	4.2000e-01	6.4314	43.059377	0.000667	6.669066	2.259541	-0.053237
 842	4.2050e-01	6.3881	42.894020	0.000414	4.142905	1.403654	-0.033071
 843	4.2100e-01	6.3560	42.732696	0.000404	4.041858	1.369419	-0.032265
 844	4.2150e-01	6.3191	42.555240	0.000445	4.446044	1.506360	-0.035491
 845	4.2200e-01	6.2838	42.067235	0.001223	12.226621	4.142491	-0.097601
 846	4.2250e-01	6.2373	41.639727	0.001071	10.710924	3.628959	-0.085502
 847	4.2300e-01	6.1939	41.470336	0.000424	4.243951	1.437890	-0.033878
 848	4.2350e-01	6.1506	41.095258	0.000940	9.397320	3.183898	-0.075016
 849	4.2400e-01	6.1185	41.058960	0.000091	0.909418	0.308119	-0.007260
 850	4.2450e-01	6.0768	40.651617	0.001021	10.205692	3.457782	-0.081469
 851	4.2500e-01	6.0383	40.296705	0.000889	8.892088	3.012721	-0.070983
 852	4.2550e-01	6.0030	39.929693	0.000920	9.195227	3.115427	-0.073402
 853	4.2600e-01	5.9517	39.623177	0.000768	7.679530	2.601895	-0.061303
 854	4.2650e-01	5.9164	39.425555	0.000495	4.951276	1.677538	-0.039524
 855	4.2700e-01	5.8827	39.014179	0.001031	10.306738	3.492017	-0.082275
 856	4.2750e-01	5.8410	38.844789	0.000424	4.243951	1.437890	-0.033878
 857	4.2800e-01	5.7897	38.643134	0.000505	5.052323	1.711773	-0.040331
 858	4.2850e-01	5.7640	38.239824	0.001010	10.104645	3.423547	-0.080662
 859	4.2900e-01	5.7191	38.026070	0.000536	5.355462	1.814480	-0.042751
 860	4.2950e-01	5.6758	37.650992	0.000940	9.397320	3.183898	-0.075016
 861	4.3000e-01	5.6357	37.517900	0.000333	3.334533	1.129770	-0.026618
 862	4.3050e-01	5.5940	37.126689	0.000980	9.801506	3.320840	-0.078242
 863	4.3100e-01	5.5539	37.021829	0.000263	2.627208	0.890122	-0.020972
 864	4.3150e-01	5.5121	36.602386	0.001051	10.508831	3.560488	-0.083888
 865	4.3200e-01	5.4817	36.469294	0.000333	3.334533	1.129770	-0.026618
 866	4.3250e-01	5.4351	36.013554	0.001142	11.418249	3.868608	-0.091148
 867	4.3300e-01	5.4015	35.694939	0.000798	7.982670	2.704602	-0.063723
 868	4.3350e-01	5.3517	35.384391	0.000778	7.780577	2.636131	-0.062110
 869	4.3400e-01	5.3180	35.283563	0.000253	2.526161	0.855887	-0.020165
 870	4.3450e-01	5.2779	35.138372	0.000364	3.637672	1.232477	-0.029038
 871	4.3500e-01	5.2362	34.726996	0.001031	10.306738	3.492017	-0.082275
 872	4.3550e-01	5.1897	34.436612	0.000728	7.275345	2.464953	-0.058077
 873	4.3600e-01	5.1560	33.904243	0.001334	13.338132	4.519081	-0.106474
 874	4.3650e-01	5.1143	33.674357	0.000576	5.759648	1.951422	-0.045977
 875	4.3700e-01	5.0870	33.541265	0.000333	3.334533	1.129770	-0.026618
 876	4.3750e-01	5.0373	33.174253	0.000920	9.195227	3.115427	-0.073402
 877	4.3800e-01	4.9876	32.779009	0.000990	9.902552	3.355076	-0.079049
 878	4.3850e-01	4.9523	32.500725	0.000697	6.972205	2.362247	-0.055657
 879	4.3900e-01	4.9170	32.008687	0.001233	12.327667	4.176727	-0.098408
 880	4.3950e-01	4.8785	31.782834	0.000566	5.658601	1.917186	-0.045171
 881	4.4000e-01	4.8368	31.548914	0.000586	5.860694	1.985657	-0.046784
 882	4.4050e-01	4.7934	31.544881	0.000010	0.101046	0.034235	-0.000807
 883	4.4100e-01	4.7533	31.109306	0.001091	10.913017	3.697430	-0.087115
 884	4.4150e-01	4.7180	30.927817	0.000455	4.547090	1.540596	-0.036298
 885	4.4200e-01	4.6828	30.472076	0.001142	11.418249	3.868608	-0.091148
 886	4.4250e-01	4.6346	30.343017	0.000323	3.233487	1.095535	-0.025812
 887	4.4300e-01	4.5945	29.955840	0.000970	9.700460	3.286605	-0.077435
 888	4.4350e-01	4.5560	29.697722	0.000647	6.466973	2.191070	-0.051624
 889	4.4400e-01	4.5127	29.665457	0.000081	0.808372	0.273884	-0.006453
 890	4.4450e-01	4.4806	29.221816	0.001112	11.115110	3.765901	-0.088728
 891	4.4500e-01	4.4341	28.814473	0.001021	10.205692	3.457782	-0.081469
 892	4.4550e-01	4.3924	28.552322	0.000657	6.568019	2.225305	-0.052430
 893	4.4600e-01	4.3555	28.274038	0.000697	6.972205	2.362247	-0.055657
 894	4.4650e-01	4.3202	28.048184	0.000566	5.658601	1.917186	-0.045171
 895	4.4700e-01	4.2705	27.689238	0.000899	8.993134	3.046956	-0.071789
 896	4.4750e-01	4.2352	27.471451	0.000546	5.456508	1.848715	-0.043557
 897	4.4800e-01	4.1983	27.164936	0.000768	7.679530	2.601895	-0.061303
 898	4.4850e-01	4.1518	26.753560	0.001031	10.306738	3.492017	-0.082275
 899	4.4900e-01	4.1181	26.297819	0.001142	11.418249	3.868608	-0.091148
 900	4.4950e-01	4.0731	26.152628	0.000364	3.637672	1.232477	-0.029038
 901	4.5000e-01	4.0330	25.971138	0.000455	4.547090	1.540596	-0.036298
 902	4.5050e-01	3.9977	25.628325	0.000859	8.588949	2.910015	-0.068563
 903	4.5100e-01	3.9592	25.253247	0.000940	9.397320	3.183898	-0.075016
 904	4.5150e-01	3.9127	25.184684	0.000172	1.717790	0.582003	-0.013713
 905	4.5200e-01	3.8742	24.793474	0.000980	9.801506	3.320840	-0.078242
 906	4.5250e-01	3.8341	24.571653	0.000556	5.557555	1.882951	-0.044364
 907	4.5300e-01	3.7940	24.039284	0.001334	13.338132	4.519081	-0.106474
 908	4.5350e-01	3.7491	23.777133	0.000657	6.568019	2.225305	-0.052430
 909	4.5400e-01	3.7154	23.454485	0.000808	8.083716	2.738837	-0.064530
 910	4.5450e-01	3.6785	23.293161	0.000404	4.041858	1.369419	-0.032265
 911	4.5500e-01	3.6320	22.982612	0.000778	7.780577	2.636131	-0.062110
 912	4.5550e-01	3.5935	22.651898	0.000829	8.285809	2.807308	-0.066143
 913	4.5600e-01	3.5534	22.397813	0.000637	6.365927	2.156834	-0.050817
 914	4.5650e-01	3.5117	22.055000	0.000859	8.588949	2.910015	-0.068563
 915	4.5700e-01	3.4764	21.804948	0.000626	6.264880	2.122599	-0.050010
 916	4.5750e-01	3.4411	21.502465	0.000758	7.578484	2.567660	-0.060496
 917	4.5800e-01	3.3913	21.296777	0.000515	5.153369	1.746009	-0.041138
 918	4.5850e-01	3.3561	21.050758	0.000616	6.163834	2.088363	-0.049204
 919	4.5900e-01	3.3127	20.590985	0.001152	11.519296	3.902843	-0.091955
 920	4.5950e-01	3.2742	20.316734	0.000687	6.871159	2.328012	-0.054850
 921	4.6000e-01	3.2341	19.905358	0.001031	10.306738	3.492017	-0.082275
 922	4.6050e-01	3.1892	19.663372	0.000606	6.062787	2.054128	-0.048397
 923	4.6100e-01	3.1523	19.340724	0.000808	8.083716	2.738837	-0.064530
 924	4.6150e-01	3.1218	19.102772	0.000596	5.961741	2.019892	-0.047591
 925	4.6200e-01	3.0689	18.804322	0.000748	7.477438	2.533424	-0.059690
 926	4.6250e-01	3.0288	18.505873	0.000748	7.477438	2.533424	-0.059690
 927	4.6300e-01	2.9903	18.239688	0.000667	6.669066	2.259541	-0.053237
 928	4.6350e-01	2.9630	18.082398	0.000394	3.940812	1.335183	-0.031458
 929	4.6400e-01	2.9229	17.783948	0.000748	7.477438	2.533424	-0.059690
 930	4.6450e-01	2.8796	17.295943	0.001223	12.226621	4.142491	-0.097601
 931	4.6500e-01	2.8283	17.195116	0.000253	2.526161	0.855887	-0.020165
 932	4.6550e-01	2.7994	16.658714	0.001344	13.439178	4.553317	-0.107280
 933	4.6600e-01	2.7513	16.586118	0.000182	1.818836	0.616238	-0.014519
 934	4.6650e-01	2.7144	16.126345	0.001152	11.519296	3.902843	-0.091955
 935	4.6700e-01	2.6775	15.747233	0.000950	9.498367	3.218134	-0.075822
 936	4.6750e-01	2.6406	15.553645	0.000485	4.850230	1.643302	-0.038718
 937	4.6800e-01	2.5989	15.356023	0.000495	4.951276	1.677538	-0.039524
 938	4.6850e-01	2.5588	15.178567	0.000445	4.446044	1.506360	-0.035491
 939	4.6900e-01	2.5122	14.634098	0.001364	13.641271	4.621788	-0.108894
 940	4.6950e-01	2.4785	14.250954	0.000960	9.599413	3.252369	-0.076629
 941	4.7000e-01	2.4288	14.174325	0.000192	1.919883	0.650474	-0.015326
 942	4.7050e-01	2.3999	13.609691	0.001415	14.146503	4.792965	-0.112927
 943	4.7100e-01	2.3534	13.537095	0.000182	1.818836	0.616238	-0.014519
 944	4.7150e-01	2.3133	13.226547	0.000778	7.780577	2.636131	-0.062110
 945	4.7200e-01	2.2860	12.823237	0.001010	10.104645	3.423547	-0.080662
 946	4.7250e-01	2.2395	12.573185	0.000626	6.264880	2.122599	-0.050010
 947	4.7300e-01	2.1914	12.496556	0.000192	1.919883	0.650474	-0.015326
 948	4.7350e-01	2.1513	12.169875	0.000818	8.184763	2.773073	-0.065336
 949	4.7400e-01	2.1112	11.823029	0.000869	8.689995	2.944250	-0.069369
 950	4.7450e-01	2.0759	11.367288	0.001142	11.418249	3.868608	-0.091148
 951	4.7500e-01	2.0358	10.943813	0.001061	10.609878	3.594724	-0.084695
 952	4.7550e-01	1.9957	10.790555	0.000384	3.839765	1.300948	-0.030652
 953	4.7600e-01	1.9475	10.697794	0.000232	2.324068	0.787416	-0.018552
 954	4.7650e-01	1.9203	10.258186	0.001101	11.014063	3.731666	-0.087922
 955	4.7700e-01	1.8721	9.907307	0.000879	8.791041	2.978485	-0.070176
 956	4.7750e-01	1.8304	9.677420	0.000576	5.759648	1.951422	-0.045977
 957	4.7800e-01	1.7855	9.536262	0.000354	3.536626	1.198241	-0.028232
 958	4.7850e-01	1.7358	9.197481	0.000849	8.487902	2.875779	-0.067756
 959	4.7900e-01	1.7021	9.112786	0.000212	2.121976	0.718945	-0.016939
 960	4.7950e-01	1.6748	8.689311	0.001061	10.609878	3.594724	-0.084695
 961	4.8000e-01	1.6395	7.906890	0.001960	19.603012	6.641680	-0.156484
 962	4.8050e-01	1.5962	7.741533	0.000414	4.142905	1.403654	-0.033071
 963	4.8100e-01	1.5497	7.507613	0.000586	5.860694	1.985657	-0.046784
 964	4.8150e-01	1.5160	7.265627	0.000606	6.062787	2.054128	-0.048397
 965	4.8200e-01	1.4743	6.910714	0.000889	8.892088	3.012721	-0.070983
 966	4.8250e-01	1.4390	6.648563	0.000657	6.568019	2.225305	-0.052430
 967	4.8300e-01	1.3909	6.321882	0.000818	8.184763	2.773073	-0.065336
 968	4.8350e-01	1.3524	5.894374	0.001071	10.710924	3.628959	-0.085502
 969	4.8400e-01	1.3251	5.575759	0.000798	7.982670	2.704602	-0.063723
 970	4.8450e-01	1.2754	5.321674	0.000637	6.365927	2.156834	-0.050817
 971	4.8500e-01	1.2304	5.188581	0.000333	3.334533	1.129770	-0.026618
 972	4.8550e-01	1.1935	5.019191	0.000424	4.243951	1.437890	-0.033878
 973	4.8600e-01	1.1567	4.648146	0.000930	9.296274	3.149663	-0.074209
 974	4.8650e-01	1.1198	4.361796	0.000717	7.174298	2.430718	-0.057270
 975	4.8700e-01	1.0732	4.119810	0.000606	6.062787	2.054128	-0.048397
 976	4.8750e-01	1.0411	3.744732	0.000940	9.397320	3.183898	-0.075016
 977	4.8800e-01	0.9914	3.498713	0.000616	6.163834	2.088363	-0.049204
 978	4.8850e-01	0.9481	3.159933	0.000849	8.487902	2.875779	-0.067756
 979	4.8900e-01	0.9112	2.926013	0.000586	5.860694	1.985657	-0.046784
 980	4.8950e-01	0.8807	2.663862	0.000657	6.568019	2.225305	-0.052430
 981	4.9000e-01	0.8326	2.224254	0.001101	11.014063	3.731666	-0.087922
 982	4.9050e-01	0.7925	1.966136	0.000647	6.466973	2.191070	-0.051624
 983	4.9100e-01	0.7556	1.792712	0.000434	4.344998	1.472125	-0.034685
 984	4.9150e-01	0.7107	1.332939	0.001152	11.519296	3.902843	-0.091955
 985	4.9200e-01	0.6738	0.744107	0.001475	14.752782	4.998378	-0.117766
 986	4.9250e-01	0.6305	0.687643	0.000141	1.414650	0.479297	-0.011293
 987	4.9300e-01	0.6048	0.615048	0.000182	1.818836	0.616238	-0.014519
 988	4.9350e-01	0.5615	0.066546	0.001374	13.742318	4.656023	-0.109700
 989	4.9400e-01	0.5101	-0.183506	0.000626	6.264880	2.122599	-0.050010
 990	4.9450e-01	0.4732	-0.417426	0.000586	5.860694	1.985657	-0.046784
 991	4.9500e-01	0.4251	-0.820736	0.001010	10.104645	3.423547	-0.080662
 992	4.9550e-01	0.4027	-1.123218	0.000758	7.578484	2.567660	-0.060496
 993	4.9600e-01	0.3529	-1.276476	0.000384	3.839765	1.300948	-0.030652
 994	4.9650e-01	0.3128	-1.534594	0.000647	6.466973	2.191070	-0.051624
 995	4.9700e-01	0.2823	-1.941937	0.001021	10.205692	3.457782	-0.081469
 996	4.9750e-01	0.2310	-2.260552	0.000798	7.982670	2.704602	-0.063723
 997	4.9800e-01	0.1893	-2.627564	0.000920	9.195227	3.115427	-0.073402
 998	4.9850e-01	0.1524	-2.909881	0.000707	7.073252	2.396483	-0.056463
 999	4.9900e-01	0.1107	-3.111536	0.000505	5.052323	1.711773	-0.040331
1000	4.9950e-01	0.0722	-3.325290	0.000536	5.355462	1.814480	-0.042751
1001	5.0000e-01	0.0321	-3.918155	0.001485	14.853829	5.032613	-0.118573
1002	5.0050e-01	0.0032	-4.152075	0.000586	5.860694	1.985657	-0.046784
1003	5.0100e-01	-0.0449	-4.406160	0.000637	6.365927	2.156834	-0.050817
1004	5.0150e-01	-0.0818	-4.474723	0.000172	1.717790	0.582003	-0.013713
1005	5.0200e-01	-0.1187	-4.966761	0.001233	12.327667	4.176727	-0.098408
1006	5.0250e-01	-0.1636	-5.430567	0.001162	11.620342	3.937079	-0.092761
1007	5.0300e-01	-0.1989	-5.535428	0.000263	2.627208	0.890122	-0.020972
1008	5.0350e-01	-0.2519	-5.938738	0.001010	10.104645	3.423547	-0.080662
1009	5.0400e-01	-0.2791	-6.079896	0.000354	3.536626	1.198241	-0.028232
1010	5.0450e-01	-0.3160	-6.426743	0.000869	8.689995	2.944250	-0.069369
1011	5.0500e-01	-0.3577	-6.668729	0.000606	6.062787	2.054128	-0.048397
1012	5.0550e-01	-0.3995	-7.096237	0.001071	10.710924	3.628959	-0.085502
1013	5.0600e-01	-0.4396	-7.326124	0.000576	5.759648	1.951422	-0.045977
1014	5.0650e-01	-0.4732	-7.677003	0.000879	8.791041	2.978485	-0.070176
1015	5.0700e-01	-0.5198	-7.765731	0.000222	2.223022	0.753180	-0.017746
1016	5.0750e-01	-0.5647	-8.092412	0.000818	8.184763	2.773073	-0.065336
1017	5.0800e-01	-0.5968	-8.415060	0.000808	8.083716	2.738837	-0.064530
1018	5.0850e-01	-0.6369	-8.729642	0.000788	7.881623	2.670366	-0.062916
1019	5.0900e-01	-0.6818	-9.003893	0.000687	6.871159	2.328012	-0.054850
1020	5.0950e-01	-0.7219	-9.338640	0.000839	8.386856	2.841544	-0.066949
1021	5.1000e-01	-0.7540	-9.612891	0.000687	6.871159	2.328012	-0.054850
1022	5.1050e-01	-0.7893	-10.016200	0.001010	10.104645	3.423547	-0.080662
1023	5.1100e-01	-0.8390	-10.242054	0.000566	5.658601	1.917186	-0.045171
1024	5.1150e-01	-0.8807	-10.342881	0.000253	2.526161	0.855887	-0.020165
1025	5.1200e-01	-0.9208	-10.842986	0.001253	12.529760	4.245198	-0.100021
1026	5.1250e-01	-0.9545	-11.310825	0.001172	11.721389	3.971314	-0.093568
1027	5.1300e-01	-0.9946	-11.645572	0.000839	8.386856	2.841544	-0.066949
1028	5.1350e-01	-1.0428	-11.625407	-0.000051	-0.505232	-0.171177	0.004033
1029	5.1400e-01	-1.0813	-12.113412	0.001223	12.226621	4.142491	-0.097601
1030	5.1450e-01	-1.1182	-12.427993	0.000788	7.881623	2.670366	-0.062916
1031	5.1500e-01	-1.1567	-12.702244	0.000687	6.871159	2.328012	-0.054850
1032	5.1550e-01	-1.1935	-12.887767	0.000465	4.648137	1.574831	-0.037105
1033	5.1600e-01	-1.2385	-13.170083	0.000707	7.073252	2.396483	-0.056463
1034	5.1650e-01	-1.2754	-13.742783	0.001435	14.348596	4.861436	-0.114540
1035	5.1700e-01	-1.3219	-13.944438	0.000505	5.052323	1.711773	-0.040331
1036	5.1750e-01	-1.3620	-14.109795	0.000414	4.142905	1.403654	-0.033071
1037	5.1800e-01	-1.3973	-14.267086	0.000394	3.940812	1.335183	-0.031458
1038	5.1850e-01	-1.4422	-14.738959	0.001182	11.822435	4.005549	-0.094375
1039	5.1900e-01	-1.4759	-15.295526	0.001394	13.944411	4.724494	-0.111314
1040	5.1950e-01	-1.5112	-15.436685	0.000354	3.536626	1.198241	-0.028232
1041	5.2000e-01	-1.5625	-15.614141	0.000445	4.446044	1.506360	-0.035491
1042	5.2050e-01	-1.5898	-16.090047	0.001192	11.923482	4.039785	-0.095181
1043	5.2100e-01	-1.6427	-16.279603	0.000475	4.749183	1.609067	-0.037911
1044	5.2150e-01	-1.6796	-16.569986	0.000728	7.275345	2.464953	-0.058077
1045	5.2200e-01	-1.7181	-16.682912	0.000283	2.829301	0.958593	-0.022585
1046	5.2250e-01	-1.7679	-16.828104	0.000364	3.637672	1.232477	-0.029038
1047	5.2300e-01	-1.8016	-17.400804	0.001435	14.348596	4.861436	-0.114540
1048	5.2350e-01	-1.8401	-17.598426	0.000495	4.951276	1.677538	-0.039524
1049	5.2400e-01	-1.8850	-17.981570	0.000960	9.599413	3.252369	-0.076629
1050	5.2450e-01	-1.9090	-18.271953	0.000728	7.275345	2.464953	-0.058077
1051	5.2500e-01	-1.9636	-18.477641	0.000515	5.153369	1.746009	-0.041138
1052	5.2550e-01	-2.0037	-18.667197	0.000475	4.749183	1.609067	-0.037911
1053	5.2600e-01	-2.0486	-18.929348	0.000657	6.568019	2.225305	-0.052430
1054	5.2650e-01	-2.0791	-19.280228	0.000879	8.791041	2.978485	-0.070176
1055	5.2700e-01	-2.1160	-19.554479	0.000687	6.871159	2.328012	-0.054850
1056	5.2750e-01	-2.1577	-19.913424	0.000899	8.993134	3.046956	-0.071789
1057	5.2800e-01	-2.2058	-20.385297	0.001182	11.822435	4.005549	-0.094375
1058	5.2850e-01	-2.2395	-20.720044	0.000839	8.386856	2.841544	-0.066949
1059	5.2900e-01	-2.2748	-20.953964	0.000586	5.860694	1.985657	-0.046784
1060	5.2950e-01	-2.3069	-21.216115	0.000657	6.568019	2.225305	-0.052430
1061	5.3000e-01	-2.3566	-21.518598	0.000758	7.578484	2.567660	-0.060496
1062	5.3050e-01	-2.4047	-21.942073	0.001061	10.609878	3.594724	-0.084695
1063	5.3100e-01	-2.4432	-22.095331	0.000384	3.839765	1.300948	-0.030652
1064	5.3150e-01	-2.4817	-22.393780	0.000748	7.477438	2.533424	-0.059690
1065	5.3200e-01	-2.5202	-22.696262	0.000758	7.578484	2.567660	-0.060496
1066	5.3250e-01	-2.5555	-22.942281	0.000616	6.163834	2.088363	-0.049204
1067	5.3300e-01	-2.5989	-23.277029	0.000839	8.386856	2.841544	-0.066949
1068	5.3350e-01	-2.6422	-23.462551	0.000465	4.648137	1.574831	-0.037105
1069	5.3400e-01	-2.6807	-23.640007	0.000445	4.446044	1.506360	-0.035491
1070	5.3450e-01	-2.7208	-23.994920	0.000889	8.892088	3.012721	-0.070983
1071	5.3500e-01	-2.7657	-24.434528	0.001101	11.014063	3.731666	-0.087922
1072	5.3550e-01	-2.7946	-24.611984	0.000445	4.446044	1.506360	-0.035491
1073	5.3600e-01	-2.8411	-25.075791	0.001162	11.620342	3.937079	-0.092761
1074	5.3650e-01	-2.8764	-25.225015	0.000374	3.738719	1.266712	-0.029845
1075	5.3700e-01	-2.9149	-25.571862	0.000869	8.689995	2.944250	-0.069369
1076	5.3750e-01	-2.9614	-25.793682	0.000556	5.557555	1.882951	-0.044364
1077	5.3800e-01	-3.0015	-25.946940	0.000384	3.839765	1.300948	-0.030652
1078	5.3850e-01	-3.0416	-26.313952	0.000920	9.195227	3.115427	-0.073402
1079	5.3900e-01	-3.0801	-26.644666	0.000829	8.285809	2.807308	-0.066143
1080	5.3950e-01	-3.1186	-26.898751	0.000637	6.365927	2.156834	-0.050817
1081	5.4000e-01	-3.1507	-27.201234	0.000758	7.578484	2.567660	-0.060496
1082	5.4050e-01	-3.1988	-27.608576	0.001021	10.205692	3.457782	-0.081469
1083	5.4100e-01	-3.2422	-27.826364	0.000546	5.456508	1.848715	-0.043557
1084	5.4150e-01	-3.2807	-28.116747	0.000728	7.275345	2.464953	-0.058077
1085	5.4200e-01	-3.3256	-28.467626	0.000879	8.791041	2.978485	-0.070176
1086	5.4250e-01	-3.3545	-28.798341	0.000829	8.285809	2.807308	-0.066143
1087	5.4300e-01	-3.3978	-29.056459	0.000647	6.466973	2.191070	-0.051624
1088	5.4350e-01	-3.4539	-29.177452	0.000303	3.031394	1.027064	-0.024199
1089	5.4400e-01	-3.4796	-29.617060	0.001101	11.014063	3.731666	-0.087922
1090	5.4450e-01	-3.5181	-29.859046	0.000606	6.062787	2.054128	-0.048397
1091	5.4500e-01	-3.5566	-29.976005	0.000293	2.930347	0.992828	-0.023392
1092	5.4550e-01	-3.6031	-30.242190	0.000667	6.669066	2.259541	-0.053237
1093	5.4600e-01	-3.6304	-30.621301	0.000950	9.498367	3.218134	-0.075822
1094	5.4650e-01	-3.6801	-30.903618	0.000707	7.073252	2.396483	-0.056463
1095	5.4700e-01	-3.7154	-31.145604	0.000606	6.062787	2.054128	-0.048397
1096	5.4750e-01	-3.7539	-31.456153	0.000778	7.780577	2.636131	-0.062110
1097	5.4800e-01	-3.8020	-31.819131	0.000909	9.094181	3.081192	-0.072596
1098	5.4850e-01	-3.8373	-32.153879	0.000839	8.386856	2.841544	-0.066949
1099	5.4900e-01	-3.8790	-32.512824	0.000899	8.993134	3.046956	-0.071789
1100	5.4950e-01	-3.9256	-32.476526	-0.000091	-0.909418	-0.308119	0.007260
1101	5.5000e-01	-3.9657	-32.908068	0.001081	10.811971	3.663195	-0.086308
1102	5.5050e-01	-3.9994	-33.069392	0.000404	4.041858	1.369419	-0.032265
1103	5.5100e-01	-4.0362	-33.517066	0.001122	11.216156	3.800137	-0.089535
1104	5.5150e-01	-4.0764	-33.755019	0.000596	5.961741	2.019892	-0.047591
1105	5.5200e-01	-4.1165	-34.178494	0.001061	10.609878	3.594724	-0.084695
1106	5.5250e-01	-4.1534	-34.359984	0.000455	4.547090	1.540596	-0.036298
1107	5.5300e-01	-4.2047	-34.658433	0.000748	7.477438	2.533424	-0.059690
1108	5.5350e-01	-4.2288	-34.860088	0.000505	5.052323	1.711773	-0.040331
1109	5.5400e-01	-4.2817	-34.940750	0.000202	2.020929	0.684709	-0.016132
1110	5.5450e-01	-4.3170	-35.299696	0.000899	8.993134	3.046956	-0.071789
1111	5.5500e-01	-4.3555	-35.944991	0.001617	16.167433	5.477674	-0.129059
1112	5.5550e-01	-4.3972	-36.061951	0.000293	2.930347	0.992828	-0.023392
1113	5.5600e-01	-4.4389	-36.215209	0.000384	3.839765	1.300948	-0.030652
1114	5.5650e-01	-4.4790	-36.465261	0.000626	6.264880	2.122599	-0.050010
1115	5.5700e-01	-4.5191	-36.832273	0.000920	9.195227	3.115427	-0.073402
1116	5.5750e-01	-4.5592	-36.989564	0.000394	3.940812	1.335183	-0.031458
1117	5.5800e-01	-4.6025	-37.304146	0.000788	7.881623	2.670366	-0.062916
1118	5.5850e-01	-4.6330	-37.638893	0.000839	8.386856	2.841544	-0.066949
1119	5.5900e-01	-4.6844	-37.892978	0.000637	6.365927	2.156834	-0.050817
1120	5.5950e-01	-4.7213	-38.082534	0.000475	4.749183	1.609067	-0.037911
1121	5.6000e-01	-4.7630	-38.465678	0.000960	9.599413	3.252369	-0.076629
1122	5.6050e-01	-4.8095	-38.836723	0.000930	9.296274	3.149663	-0.074209
1123	5.6100e-01	-4.8464	-39.106941	0.000677	6.770112	2.293776	-0.054044
1124	5.6150e-01	-4.8849	-39.244066	0.000344	3.435579	1.164006	-0.027425
1125	5.6200e-01	-4.9186	-39.570747	0.000818	8.184763	2.773073	-0.065336
1126	5.6250e-01	-4.9619	-39.881296	0.000778	7.780577	2.636131	-0.062110
1127	5.6300e-01	-4.9924	-40.107149	0.000566	5.658601	1.917186	-0.045171
1128	5.6350e-01	-5.0421	-40.288638	0.000455	4.547090	1.540596	-0.036298
1129	5.6400e-01	-5.0806	-40.546757	0.000647	6.466973	2.191070	-0.051624
1130	5.6450e-01	-5.1095	-41.010563	0.001162	11.620342	3.937079	-0.092761
1131	5.6500e-01	-5.1592	-41.244483	0.000586	5.860694	1.985657	-0.046784
1132	5.6550e-01	-5.2057	-41.514700	0.000677	6.770112	2.293776	-0.054044
1133	5.6600e-01	-5.2490	-41.615528	0.000253	2.526161	0.855887	-0.020165
1134	5.6650e-01	-5.2795	-42.087400	0.001182	11.822435	4.005549	-0.094375
1135	5.6700e-01	-5.3277	-42.111599	0.000061	0.606279	0.205413	-0.004840
1136	5.6750e-01	-5.3517	-42.478611	0.000920	9.195227	3.115427	-0.073402
1137	5.6800e-01	-5.4079	-42.768994	0.000728	7.275345	2.464953	-0.058077
1138	5.6850e-01	-5.4400	-43.023079	0.000637	6.365927	2.156834	-0.050817
1139	5.6900e-01	-5.4881	-43.329595	0.000768	7.679530	2.601895	-0.061303
1140	5.6950e-01	-5.5282	-43.523184	0.000485	4.850230	1.643302	-0.038718
1141	5.7000e-01	-5.5683	-43.995056	0.001182	11.822435	4.005549	-0.094375
1142	5.7050e-01	-5.5988	-44.224943	0.000576	5.759648	1.951422	-0.045977
1143	5.7100e-01	-5.6405	-44.309638	0.000212	2.121976	0.718945	-0.016939
1144	5.7150e-01	-5.6790	-44.708915	0.001000	10.003599	3.389311	-0.079855
1145	5.7200e-01	-5.7239	-45.172721	0.001162	11.620342	3.937079	-0.092761
1146	5.7250e-01	-5.7544	-45.160622	-0.000030	-0.303139	-0.102706	0.002420
1147	5.7300e-01	-5.8057	-45.479236	0.000798	7.982670	2.704602	-0.063723
1148	5.7350e-01	-5.8458	-45.753487	0.000687	6.871159	2.328012	-0.054850
1149	5.7400e-01	-5.8859	-46.035804	0.000707	7.073252	2.396483	-0.056463
1150	5.7450e-01	-5.9180	-46.354419	0.000798	7.982670	2.704602	-0.063723
1151	5.7500e-01	-5.9501	-46.660934	0.000768	7.679530	2.601895	-0.061303
1152	5.7550e-01	-6.0014	-46.874689	0.000536	5.355462	1.814480	-0.042751
1153	5.7600e-01	-6.0512	-47.173138	0.000748	7.477438	2.533424	-0.059690
1154	5.7650e-01	-6.0800	-47.277998	0.000263	2.627208	0.890122	-0.020972
1155	5.7700e-01	-6.1250	-47.697441	0.001051	10.508831	3.560488	-0.083888
1156	5.7750e-01	-6.1570	-48.044287	0.000869	8.689995	2.944250	-0.069369
1157	5.7800e-01	-6.2100	-48.221743	0.000445	4.446044	1.506360	-0.035491
1158	5.7850e-01	-6.2437	-48.459696	0.000596	5.961741	2.019892	-0.047591
1159	5.7900e-01	-6.2902	-48.685550	0.000566	5.658601	1.917186	-0.045171
1160	5.7950e-01	-6.3255	-48.858973	0.000434	4.344998	1.472125	-0.034685
1161	5.8000e-01	-6.3608	-49.294548	0.001091	10.913017	3.697430	-0.087115
1162	5.8050e-01	-6.3929	-49.528467	0.000586	5.860694	1.985657	-0.046784
1163	5.8100e-01	-6.4490	-49.947910	0.001051	10.508831	3.560488	-0.083888
1164	5.8150e-01	-6.4779	-50.242326	0.000738	7.376391	2.499189	-0.058883
1165	5.8200e-01	-6.5132	-50.363319	0.000303	3.031394	1.027064	-0.024199
1166	5.8250e-01	-6.5533	-50.613371	0.000626	6.264880	2.122599	-0.050010
1167	5.8300e-01	-6.5950	-50.895688	0.000707	7.073252	2.396483	-0.056463
1168	5.8350e-01	-6.6367	-51.105409	0.000525	5.254416	1.780244	-0.041944
1169	5.8400e-01	-6.6848	-51.274799	0.000424	4.243951	1.437890	-0.033878
1170	5.8450e-01	-6.7089	-51.609546	0.000839	8.386856	2.841544	-0.066949
1171	5.8500e-01	-6.7602	-51.734572	0.000313	3.132440	1.061299	-0.025005
1172	5.8550e-01	-6.7955	-51.948327	0.000536	5.355462	1.814480	-0.042751
1173	5.8600e-01	-6.8308	-52.371802	0.001061	10.609878	3.594724	-0.084695
1174	5.8650e-01	-6.8757	-52.803343	0.001081	10.811971	3.663195	-0.086308
1175	5.8700e-01	-6.9158	-52.976767	0.000434	4.344998	1.472125	-0.034685
1176	5.8750e-01	-6.9576	-53.117925	0.000354	3.536626	1.198241	-0.028232
1177	5.8800e-01	-7.0041	-53.521235	0.001010	10.104645	3.423547	-0.080662
1178	5.8850e-01	-7.0458	-53.868081	0.000869	8.689995	2.944250	-0.069369
1179	5.8900e-01	-7.0779	-54.053604	0.000465	4.648137	1.574831	-0.037105
1180	5.8950e-01	-7.1100	-54.267358	0.000536	5.355462	1.814480	-0.042751
1181	5.9000e-01	-7.1533	-54.376252	0.000273	2.728254	0.924358	-0.021779
1182	5.9050e-01	-7.1950	-54.626304	0.000626	6.264880	2.122599	-0.050010
1183	5.9100e-01	-7.2271	-55.078011	0.001132	11.317203	3.834372	-0.090341
1184	5.9150e-01	-7.2704	-55.319997	0.000606	6.062787	2.054128	-0.048397
1185	5.9200e-01	-7.3169	-55.449056	0.000323	3.233487	1.095535	-0.025812
1186	5.9250e-01	-7.3570	-55.884631	0.001091	10.913017	3.697430	-0.087115
1187	5.9300e-01	-7.4035	-56.134683	0.000626	6.264880	2.122599	-0.050010
1188	5.9350e-01	-7.4340	-56.263742	0.000323	3.233487	1.095535	-0.025812
1189	5.9400e-01	-7.4709	-56.481529	0.000546	5.456508	1.848715	-0.043557
1190	5.9450e-01	-7.5174	-56.852574	0.000930	9.296274	3.149663	-0.074209
1191	5.9500e-01	-7.5559	-57.102627	0.000626	6.264880	2.122599	-0.050010
1192	5.9550e-01	-7.5960	-57.401076	0.000748	7.477438	2.533424	-0.059690
1193	5.9600e-01	-7.6426	-57.590631	0.000475	4.749183	1.609067	-0.037911
1194	5.9650e-01	-7.6811	-57.780187	0.000475	4.749183	1.609067	-0.037911
1195	5.9700e-01	-7.7212	-58.046372	0.000667	6.669066	2.259541	-0.053237
1196	5.9750e-01	-7.7468	-58.102835	0.000141	1.414650	0.479297	-0.011293
1197	5.9800e-01	-7.8062	-58.477913	0.000940	9.397320	3.183898	-0.075016
1198	5.9850e-01	-7.8367	-58.804594	0.000818	8.184763	2.773073	-0.065336
1199	5.9900e-01	-7.8768	-59.123209	0.000798	7.982670	2.704602	-0.063723
1200	5.9950e-01	-7.9137	-59.381327	0.000647	6.466973	2.191070	-0.051624
1201	6.0000e-01	-7.9506	-59.768505	0.000970	9.700460	3.286605	-0.077435
1202	6.0050e-01	-8.0019	-59.752372	-0.000040	-0.404186	-0.136942	0.003226
1203	6.0100e-01	-8.0372	-59.966127	0.000536	5.355462	1.814480	-0.042751
1204	6.0150e-01	-8.0773	-60.361370	0.000990	9.902552	3.355076	-0.079049
1205	6.0200e-01	-8.1222	-60.506562	0.000364	3.637672	1.232477	-0.029038
1206	6.0250e-01	-8.1495	-60.813077	0.000768	7.679530	2.601895	-0.061303
1207	6.0300e-01	-8.1992	-61.131692	0.000798	7.982670	2.704602	-0.063723
1208	6.0350e-01	-8.2313	-61.236553	0.000263	2.627208	0.890122	-0.020972
1209	6.0400e-01	-8.2778	-61.530969	0.000738	7.376391	2.499189	-0.058883
1210	6.0450e-01	-8.3163	-61.873782	0.000859	8.588949	2.910015	-0.068563
1211	6.0500e-01	-8.3484	-62.079470	0.000515	5.153369	1.746009	-0.041138
1212	6.0550e-01	-8.4014	-62.410184	0.000829	8.285809	2.807308	-0.066143
1213	6.0600e-01	-8.4335	-62.547310	0.000344	3.435579	1.164006	-0.027425
1214	6.0650e-01	-8.4703	-62.958686	0.001031	10.306738	3.492017	-0.082275
1215	6.0700e-01	-8.5185	-63.245036	0.000717	7.174298	2.430718	-0.057270
1216	6.0750e-01	-8.5554	-63.228903	-0.000040	-0.404186	-0.136942	0.003226
1217	6.0800e-01	-8.5971	-63.503154	0.000687	6.871159	2.328012	-0.054850
1218	6.0850e-01	-8.6356	-63.926629	0.001061	10.609878	3.594724	-0.084695
1219	6.0900e-01	-8.6789	-64.051655	0.000313	3.132440	1.061299	-0.025005
1220	6.0950e-01	-8.7222	-64.281542	0.000576	5.759648	1.951422	-0.045977
1221	6.1000e-01	-8.7543	-64.725183	0.001112	11.115110	3.765901	-0.088728
1222	6.1050e-01	-8.7880	-65.027665	0.000758	7.578484	2.567660	-0.060496
1223	6.1100e-01	-8.8441	-65.172857	0.000364	3.637672	1.232477	-0.029038
1224	6.1150e-01	-8.8746	-65.297883	0.000313	3.132440	1.061299	-0.025005
1225	6.1200e-01	-8.9163	-65.503571	0.000515	5.153369	1.746009	-0.041138
1226	6.1250e-01	-8.9548	-65.830252	0.000818	8.184763	2.773073	-0.065336
1227	6.1300e-01	-8.9885	-66.209363	0.000950	9.498367	3.218134	-0.075822
1228	6.1350e-01	-9.0334	-66.334389	0.000313	3.132440	1.061299	-0.025005
1229	6.1400e-01	-9.0784	-66.532011	0.000495	4.951276	1.677538	-0.039524
1230	6.1450e-01	-9.1153	-66.967586	0.001091	10.913017	3.697430	-0.087115
1231	6.1500e-01	-9.1602	-67.136976	0.000424	4.243951	1.437890	-0.033878
1232	6.1550e-01	-9.1955	-67.048248	-0.000222	-2.223022	-0.753180	0.017746
1233	6.1600e-01	-9.2404	-67.528186	0.001202	12.024528	4.074020	-0.095988
1234	6.1650e-01	-9.2773	-67.967794	0.001101	11.014063	3.731666	-0.087922
1235	6.1700e-01	-9.3126	-68.044423	0.000192	1.919883	0.650474	-0.015326
1236	6.1750e-01	-9.3591	-68.233979	0.000475	4.749183	1.609067	-0.037911
1237	6.1800e-01	-9.4024	-68.572759	0.000849	8.487902	2.875779	-0.067756
1238	6.1850e-01	-9.4361	-68.855076	0.000707	7.073252	2.396483	-0.056463
1239	6.1900e-01	-9.4762	-69.121260	0.000667	6.669066	2.259541	-0.053237
1240	6.1950e-01	-9.5179	-69.258386	0.000344	3.435579	1.164006	-0.027425
1241	6.2000e-01	-9.5580	-69.480206	0.000556	5.557555	1.882951	-0.044364
1242	6.2050e-01	-9.5981	-69.653629	0.000434	4.344998	1.472125	-0.034685
1243	6.2100e-01	-9.6382	-69.883516	0.000576	5.759648	1.951422	-0.045977
1244	6.2150e-01	-9.6767	-70.214230	0.000829	8.285809	2.807308	-0.066143
1245	6.2200e-01	-9.7184	-70.633672	0.001051	10.508831	3.560488	-0.083888
1246	6.2250e-01	-9.7634	-70.629639	-0.000010	-0.101046	-0.034235	0.000807
1247	6.2300e-01	-9.8003	-70.980519	0.000879	8.791041	2.978485	-0.070176
1248	6.2350e-01	-9.8388	-71.045048	0.000162	1.616743	0.547767	-0.012906
1249	6.2400e-01	-9.8741	-71.347531	0.000758	7.578484	2.567660	-0.060496
1250	6.2450e-01	-9.9142	-71.698410	0.000879	8.791041	2.978485	-0.070176
1251	6.2500e-01	-9.9607	-71.803271	0.000263	2.627208	0.890122	-0.020972
1252	6.2550e-01	-9.9960	-72.226746	0.001061	10.609878	3.594724	-0.084695
1253	6.2600e-01	-10.0281	-72.480832	0.000637	6.365927	2.156834	-0.050817
1254	6.2650e-01	-10.0778	-72.670387	0.000475	4.749183	1.609067	-0.037911
1255	6.2700e-01	-10.1179	-72.835744	0.000414	4.142905	1.403654	-0.033071
1256	6.2750e-01	-10.1468	-73.101929	0.000667	6.669066	2.259541	-0.053237
1257	6.2800e-01	-10.1997	-73.452808	0.000879	8.791041	2.978485	-0.070176
1258	6.2850e-01	-10.2494	-73.662529	0.000525	5.254416	1.780244	-0.041944
1259	6.2900e-01	-10.2751	-73.848052	0.000465	4.648137	1.574831	-0.037105
1260	6.2950e-01	-10.3200	-73.985177	0.000344	3.435579	1.164006	-0.027425
1261	6.3000e-01	-10.3521	-74.021475	0.000091	0.909418	0.308119	-0.007260
1262	6.3050e-01	-10.3890	-74.392520	0.000930	9.296274	3.149663	-0.074209
1263	6.3100e-01	-10.4355	-74.993452	0.001506	15.055922	5.101084	-0.120186
1264	6.3150e-01	-10.4805	-75.134610	0.000354	3.536626	1.198241	-0.028232
1265	6.3200e-01	-10.5093	-75.275769	0.000354	3.536626	1.198241	-0.028232
1266	6.3250e-01	-10.5542	-75.404828	0.000323	3.233487	1.095535	-0.025812
1267	6.3300e-01	-10.5960	-75.792005	0.000970	9.700460	3.286605	-0.077435
1268	6.3350e-01	-10.6313	-76.106587	0.000788	7.881623	2.670366	-0.062916
1269	6.3400e-01	-10.6730	-76.235646	0.000323	3.233487	1.095535	-0.025812
1270	6.3450e-01	-10.7195	-76.384871	0.000374	3.738719	1.266712	-0.029845
1271	6.3500e-01	-10.7516	-76.647022	0.000657	6.568019	2.225305	-0.052430
1272	6.3550e-01	-10.7949	-76.884975	0.000596	5.961741	2.019892	-0.047591
1273	6.3600e-01	-10.8318	-77.046299	0.000404	4.041858	1.369419	-0.032265
1274	6.3650e-01	-10.8751	-77.409278	0.000909	9.094181	3.081192	-0.072596
1275	6.3700e-01	-10.9200	-77.518172	0.000273	2.728254	0.924358	-0.021779
1276	6.3750e-01	-10.9521	-77.739992	0.000556	5.557555	1.882951	-0.044364
1277	6.3800e-01	-10.9938	-77.889217	0.000374	3.738719	1.266712	-0.029845
1278	6.3850e-01	-11.0387	-78.288494	0.001000	10.003599	3.389311	-0.079855
1279	6.3900e-01	-11.0740	-78.578877	0.000728	7.275345	2.464953	-0.058077
1280	6.3950e-01	-11.1189	-78.699870	0.000303	3.031394	1.027064	-0.024199
1281	6.4000e-01	-11.1655	-79.018484	0.000798	7.982670	2.704602	-0.063723
1282	6.4050e-01	-11.2056	-79.240305	0.000556	5.557555	1.882951	-0.044364
1283	6.4100e-01	-11.2328	-79.441960	0.000505	5.052323	1.711773	-0.040331
1284	6.4150e-01	-11.2729	-79.700078	0.000647	6.466973	2.191070	-0.051624
1285	6.4200e-01	-11.3163	-79.966263	0.000667	6.669066	2.259541	-0.053237
1286	6.4250e-01	-11.3548	-80.272778	0.000768	7.679530	2.601895	-0.061303
1287	6.4300e-01	-11.4045	-80.446201	0.000434	4.344998	1.472125	-0.034685
1288	6.4350e-01	-11.4414	-80.571227	0.000313	3.132440	1.061299	-0.025005
1289	6.4400e-01	-11.4815	-80.708353	0.000344	3.435579	1.164006	-0.027425
1290	6.4450e-01	-11.5136	-81.002769	0.000738	7.376391	2.499189	-0.058883
1291	6.4500e-01	-11.5601	-81.244755	0.000606	6.062787	2.054128	-0.048397
1292	6.4550e-01	-11.5970	-81.309284	0.000162	1.616743	0.547767	-0.012906
1293	6.4600e-01	-11.6403	-81.708561	0.001000	10.003599	3.389311	-0.079855
1294	6.4650e-01	-11.6756	-81.974746	0.000667	6.669066	2.259541	-0.053237
1295	6.4700e-01	-11.7157	-82.253029	0.000697	6.972205	2.362247	-0.055657
1296	6.4750e-01	-11.7622	-82.390155	0.000344	3.435579	1.164006	-0.027425
1297	6.4800e-01	-11.8136	-82.523247	0.000333	3.334533	1.129770	-0.026618
1298	6.4850e-01	-11.8441	-82.890259	0.000920	9.195227	3.115427	-0.073402
1299	6.4900e-01	-11.8745	-82.991086	0.000253	2.526161	0.855887	-0.020165
1300	6.4950e-01	-11.9243	-83.321801	0.000829	8.285809	2.807308	-0.066143
1301	6.5000e-01	-11.9580	-83.454893	0.000333	3.334533	1.129770	-0.026618
1302	6.5050e-01	-11.9965	-83.612184	0.000394	3.940812	1.335183	-0.031458
1303	6.5100e-01	-12.0334	-84.063891	0.001132	11.317203	3.834372	-0.090341
1304	6.5150e-01	-12.0815	-84.313943	0.000626	6.264880	2.122599	-0.050010
1305	6.5200e-01	-12.1232	-84.277645	-0.000091	-0.909418	-0.308119	0.007260
1306	6.5250e-01	-12.1585	-84.632558	0.000889	8.892088	3.012721	-0.070983
1307	6.5300e-01	-12.2002	-85.007636	0.000940	9.397320	3.183898	-0.075016
1308	6.5350e-01	-12.2387	-85.225423	0.000546	5.456508	1.848715	-0.043557
1309	6.5400e-01	-12.2740	-85.503707	0.000697	6.972205	2.362247	-0.055657
1310	6.5450e-01	-12.3189	-85.572270	0.000172	1.717790	0.582003	-0.013713
1311	6.5500e-01	-12.3606	-85.673097	0.000253	2.526161	0.855887	-0.020165
1312	6.5550e-01	-12.3975	-86.040109	0.000920	9.195227	3.115427	-0.073402
1313	6.5600e-01	-12.4424	-86.229665	0.000475	4.749183	1.609067	-0.037911
1314	6.5650e-01	-12.4713	-86.628941	0.001000	10.003599	3.389311	-0.079855
1315	6.5700e-01	-12.5162	-86.725736	0.000243	2.425115	0.821651	-0.019359
1316	6.5750e-01	-12.5547	-86.870927	0.000364	3.637672	1.232477	-0.029038
1317	6.5800e-01	-12.5980	-87.217774	0.000869	8.689995	2.944250	-0.069369
1318	6.5850e-01	-12.6365	-87.366998	0.000374	3.738719	1.266712	-0.029845
1319	6.5900e-01	-12.6783	-87.540422	0.000434	4.344998	1.472125	-0.034685
1320	6.5950e-01	-12.7232	-87.846937	0.000768	7.679530	2.601895	-0.061303
1321	6.6000e-01	-12.7504	-87.971963	0.000313	3.132440	1.061299	-0.025005
1322	6.6050e-01	-12.7922	-88.201850	0.000576	5.759648	1.951422	-0.045977
1323	6.6100e-01	-12.8403	-88.415604	0.000536	5.355462	1.814480	-0.042751
1324	6.6150e-01	-12.8772	-88.863278	0.001122	11.216156	3.800137	-0.089535
1325	6.6200e-01	-12.9109	-89.081065	0.000546	5.456508	1.848715	-0.043557
1326	6.6250e-01	-12.9542	-89.423879	0.000859	8.588949	2.910015	-0.068563
1327	6.6300e-01	-12.9991	-89.528739	0.000263	2.627208	0.890122	-0.020972
1328	6.6350e-01	-13.0280	-89.681997	0.000384	3.839765	1.300948	-0.030652
1329	6.6400e-01	-13.0697	-89.879619	0.000495	4.951276	1.677538	-0.039524
1330	6.6450e-01	-13.1114	-89.996579	0.000293	2.930347	0.992828	-0.023392
1331	6.6500e-01	-13.1547	-90.141770	0.000364	3.637672	1.232477	-0.029038
1332	6.6550e-01	-13.2028	-90.351491	0.000525	5.254416	1.780244	-0.041944
1333	6.6600e-01	-13.2445	-90.601544	0.000626	6.264880	2.122599	-0.050010
1334	6.6650e-01	-13.2638	-90.992754	0.000980	9.801506	3.320840	-0.078242
1335	6.6700e-01	-13.3135	-91.186343	0.000485	4.850230	1.643302	-0.038718
1336	6.6750e-01	-13.3552	-91.472693	0.000717	7.174298	2.430718	-0.057270
1337	6.6800e-01	-13.3969	-91.517057	0.000111	1.111511	0.376590	-0.008873
1338	6.6850e-01	-13.4419	-91.734844	0.000546	5.456508	1.848715	-0.043557
1339	6.6900e-01	-13.4788	-91.831639	0.000243	2.425115	0.821651	-0.019359
1340	6.6950e-01	-13.5157	-92.049426	0.000546	5.456508	1.848715	-0.043557
1341	6.7000e-01	-13.5606	-92.275279	0.000566	5.658601	1.917186	-0.045171
1342	6.7050e-01	-13.5975	-92.618093	0.000859	8.588949	2.910015	-0.068563
1343	6.7100e-01	-13.6328	-92.847979	0.000576	5.759648	1.951422	-0.045977
1344	6.7150e-01	-13.6745	-93.138363	0.000728	7.275345	2.464953	-0.058077
1345	6.7200e-01	-13.7242	-93.219025	0.000202	2.020929	0.684709	-0.016132
1346	6.7250e-01	-13.7627	-93.549739	0.000829	8.285809	2.807308	-0.066143
1347	6.7300e-01	-13.7900	-93.807857	0.000647	6.466973	2.191070	-0.051624
1348	6.7350e-01	-13.8413	-93.977247	0.000424	4.243951	1.437890	-0.033878
1349	6.7400e-01	-13.8782	-94.461219	0.001213	12.125574	4.108256	-0.096794
1350	6.7450e-01	-13.9199	-94.307961	-0.000384	-3.839765	-1.300948	0.030652
1351	6.7500e-01	-13.9536	-94.634642	0.000818	8.184763	2.773073	-0.065336
1352	6.7550e-01	-13.9937	-94.799999	0.000414	4.142905	1.403654	-0.033071
1353	6.7600e-01	-14.0306	-95.082316	0.000707	7.073252	2.396483	-0.056463
1354	6.7650e-01	-14.0755	-95.433196	0.000879	8.791041	2.978485	-0.070176
1355	6.7700e-01	-14.1205	-95.421096	-0.000030	-0.303139	-0.102706	0.002420
1356	6.7750e-01	-14.1606	-95.606619	0.000465	4.648137	1.574831	-0.037105
1357	6.7800e-01	-14.1926	-96.098657	0.001233	12.327667	4.176727	-0.098408
1358	6.7850e-01	-14.2392	-96.054293	-0.000111	-1.111511	-0.376590	0.008873
1359	6.7900e-01	-14.2761	-96.126889	0.000182	1.818836	0.616238	-0.014519
1360	6.7950e-01	-14.3178	-96.376941	0.000626	6.264880	2.122599	-0.050010
1361	6.8000e-01	-14.3611	-96.816548	0.001101	11.014063	3.731666	-0.087922
1362	6.8050e-01	-14.3932	-97.038369	0.000556	5.557555	1.882951	-0.044364
1363	6.8100e-01	-14.4429	-97.244057	0.000515	5.153369	1.746009	-0.041138
1364	6.8150e-01	-14.4782	-97.590903	0.000869	8.689995	2.944250	-0.069369
1365	6.8200e-01	-14.5167	-97.590903	-0.000000	-0.000000	-0.000000	0.000000
1366	6.8250e-01	-14.5488	-98.030511	0.001101	11.014063	3.731666	-0.087922
1367	6.8300e-01	-14.5905	-98.191835	0.000404	4.041858	1.369419	-0.032265
1368	6.8350e-01	-14.6354	-98.300729	0.000273	2.728254	0.924358	-0.021779
1369	6.8400e-01	-14.6787	-98.667741	0.000920	9.195227	3.115427	-0.073402
1370	6.8450e-01	-14.7188	-98.804866	0.000344	3.435579	1.164006	-0.027425
1371	6.8500e-01	-14.7525	-98.978289	0.000434	4.344998	1.472125	-0.034685
1372	6.8550e-01	-14.7942	-99.139613	0.000404	4.041858	1.369419	-0.032265
1373	6.8600e-01	-14.8263	-99.454195	0.000788	7.881623	2.670366	-0.062916
1374	6.8650e-01	-14.8680	-99.623585	0.000424	4.243951	1.437890	-0.033878
1375	6.8700e-01	-14.9113	-99.897836	0.000687	6.871159	2.328012	-0.054850
1376	6.8750e-01	-14.9531	-100.043027	0.000364	3.637672	1.232477	-0.029038
1377	6.8800e-01	-15.0012	-100.164020	0.000303	3.031394	1.027064	-0.024199
1378	6.8850e-01	-15.0285	-100.289046	0.000313	3.132440	1.061299	-0.025005
1379	6.8900e-01	-15.0750	-100.623794	0.000839	8.386856	2.841544	-0.066949
1380	6.8950e-01	-15.1151	-100.768985	0.000364	3.637672	1.232477	-0.029038
1381	6.9000e-01	-15.1584	-101.035170	0.000667	6.669066	2.259541	-0.053237
1382	6.9050e-01	-15.1937	-101.297321	0.000657	6.568019	2.225305	-0.052430
1383	6.9100e-01	-15.2386	-101.531241	0.000586	5.860694	1.985657	-0.046784
1384	6.9150e-01	-15.2771	-101.865988	0.000839	8.386856	2.841544	-0.066949
1385	6.9200e-01	-15.3220	-101.974882	0.000273	2.728254	0.924358	-0.021779
1386	6.9250e-01	-15.3686	-101.914385	-0.000152	-1.515697	-0.513532	0.012099
1387	6.9300e-01	-15.4022	-102.345927	0.001081	10.811971	3.663195	-0.086308
1388	6.9350e-01	-15.4375	-102.559681	0.000536	5.355462	1.814480	-0.042751
1389	6.9400e-01	-15.4744	-102.757303	0.000495	4.951276	1.677538	-0.039524
1390	6.9450e-01	-15.5193	-102.950891	0.000485	4.850230	1.643302	-0.038718
1391	6.9500e-01	-15.5514	-103.273539	0.000808	8.083716	2.738837	-0.064530
1392	6.9550e-01	-15.6076	-103.471161	0.000495	4.951276	1.677538	-0.039524
1393	6.9600e-01	-15.6365	-103.692982	0.000556	5.557555	1.882951	-0.044364
1394	6.9650e-01	-15.6750	-103.947067	0.000637	6.365927	2.156834	-0.050817
1395	6.9700e-01	-15.7183	-104.015630	0.000172	1.717790	0.582003	-0.013713
1396	6.9750e-01	-15.7504	-104.427006	0.001031	10.306738	3.492017	-0.082275
1397	6.9800e-01	-15.7937	-104.608495	0.000455	4.547090	1.540596	-0.036298
1398	6.9850e-01	-15.8434	-104.487502	-0.000303	-3.031394	-1.027064	0.024199
1399	6.9900e-01	-15.8755	-104.697223	0.000525	5.254416	1.780244	-0.041944
1400	6.9950e-01	-15.9188	-105.076334	0.000950	9.498367	3.218134	-0.075822
1401	7.0000e-01	-15.9573	-105.326387	0.000626	6.264880	2.122599	-0.050010
1402	7.0050e-01	-15.9958	-105.511909	0.000465	4.648137	1.574831	-0.037105
1403	7.0100e-01	-16.0391	-105.616770	0.000263	2.627208	0.890122	-0.020972
1404	7.0150e-01	-16.0856	-105.943451	0.000818	8.184763	2.773073	-0.065336
1405	7.0200e-01	-16.1193	-106.112841	0.000424	4.243951	1.437890	-0.033878
1406	7.0250e-01	-16.1642	-106.274165	0.000404	4.041858	1.369419	-0.032265
1407	7.0300e-01	-16.1915	-106.645210	0.000930	9.296274	3.149663	-0.074209
1408	7.0350e-01	-16.2445	-106.887196	0.000606	6.062787	2.054128	-0.048397
1409	7.0400e-01	-16.2798	-106.988023	0.000253	2.526161	0.855887	-0.020165
1410	7.0450e-01	-16.3231	-107.213877	0.000566	5.658601	1.917186	-0.045171
1411	7.0500e-01	-16.3535	-107.496194	0.000707	7.073252	2.396483	-0.056463
1412	7.0550e-01	-16.3969	-107.613153	0.000293	2.930347	0.992828	-0.023392
1413	7.0600e-01	-16.4418	-107.814808	0.000505	5.052323	1.711773	-0.040331
1414	7.0650e-01	-16.4755	-108.032596	0.000546	5.456508	1.848715	-0.043557
1415	7.0700e-01	-16.5188	-108.226184	0.000485	4.850230	1.643302	-0.038718
1416	7.0750e-01	-16.5589	-108.278615	0.000131	1.313604	0.445061	-0.010486
1417	7.0800e-01	-16.6022	-108.536733	0.000647	6.466973	2.191070	-0.051624
1418	7.0850e-01	-16.6439	-108.903745	0.000920	9.195227	3.115427	-0.073402
1419	7.0900e-01	-16.6856	-109.129599	0.000566	5.658601	1.917186	-0.045171
1420	7.0950e-01	-16.7177	-109.028771	-0.000253	-2.526161	-0.855887	0.020165
1421	7.1000e-01	-16.7642	-109.367551	0.000849	8.487902	2.875779	-0.067756
1422	7.1050e-01	-16.7979	-109.871689	0.001263	12.630807	4.279433	-0.100827
1423	7.1100e-01	-16.8396	-109.956384	0.000212	2.121976	0.718945	-0.016939
1424	7.1150e-01	-16.8781	-109.944284	-0.000030	-0.303139	-0.102706	0.002420
1425	7.1200e-01	-16.9134	-110.448422	0.001263	12.630807	4.279433	-0.100827
1426	7.1250e-01	-16.9567	-110.650077	0.000505	5.052323	1.711773	-0.040331
1427	7.1300e-01	-16.9985	-110.746871	0.000243	2.425115	0.821651	-0.019359
1428	7.1350e-01	-17.0370	-110.827533	0.000202	2.020929	0.684709	-0.016132
1429	7.1400e-01	-17.0835	-111.004989	0.000445	4.446044	1.506360	-0.035491
1430	7.1450e-01	-17.1220	-111.214711	0.000525	5.254416	1.780244	-0.041944
1431	7.1500e-01	-17.1525	-111.424432	0.000525	5.254416	1.780244	-0.041944
1432	7.1550e-01	-17.1942	-111.690616	0.000667	6.669066	2.259541	-0.053237
1433	7.1600e-01	-17.2471	-112.049562	0.000899	8.993134	3.046956	-0.071789
1434	7.1650e-01	-17.2696	-112.291548	0.000606	6.062787	2.054128	-0.048397
1435	7.1700e-01	-17.3225	-112.420607	0.000323	3.233487	1.095535	-0.025812
1436	7.1750e-01	-17.3626	-112.521434	0.000253	2.526161	0.855887	-0.020165
1437	7.1800e-01	-17.3995	-112.763420	0.000606	6.062787	2.054128	-0.048397
1438	7.1850e-01	-17.4364	-112.852149	0.000222	2.223022	0.753180	-0.017746
1439	7.1900e-01	-17.4749	-113.279657	0.001071	10.710924	3.628959	-0.085502
1440	7.1950e-01	-17.5230	-113.481312	0.000505	5.052323	1.711773	-0.040331
1441	7.2000e-01	-17.5583	-113.715232	0.000586	5.860694	1.985657	-0.046784
1442	7.2050e-01	-17.5920	-113.791861	0.000192	1.919883	0.650474	-0.015326
1443	7.2100e-01	-17.6353	-114.045946	0.000637	6.365927	2.156834	-0.050817
1444	7.2150e-01	-17.6738	-114.175005	0.000323	3.233487	1.095535	-0.025812
1445	7.2200e-01	-17.7220	-114.372627	0.000495	4.951276	1.677538	-0.039524
1446	7.2250e-01	-17.7524	-114.550083	0.000445	4.446044	1.506360	-0.035491
1447	7.2300e-01	-17.8006	-114.977592	0.001071	10.710924	3.628959	-0.085502
1448	7.2350e-01	-17.8343	-115.138915	0.000404	4.041858	1.369419	-0.032265
1449	7.2400e-01	-17.8663	-115.263942	0.000313	3.132440	1.061299	-0.025005
1450	7.2450e-01	-17.9161	-115.538192	0.000687	6.871159	2.328012	-0.054850
1451	7.2500e-01	-17.9642	-115.800344	0.000657	6.568019	2.225305	-0.052430
1452	7.2550e-01	-17.9979	-115.856807	0.000141	1.414650	0.479297	-0.011293
1453	7.2600e-01	-18.0348	-116.058462	0.000505	5.052323	1.711773	-0.040331
1454	7.2650e-01	-18.0701	-116.494037	0.001091	10.913017	3.697430	-0.087115
1455	7.2700e-01	-18.1262	-116.623096	0.000323	3.233487	1.095535	-0.025812
1456	7.2750e-01	-18.1487	-116.792486	0.000424	4.243951	1.437890	-0.033878
1457	7.2800e-01	-18.1952	-116.844916	0.000131	1.313604	0.445061	-0.010486
1458	7.2850e-01	-18.2401	-117.151432	0.000768	7.679530	2.601895	-0.061303
1459	7.2900e-01	-18.2658	-117.304689	0.000384	3.839765	1.300948	-0.030652
1460	7.2950e-01	-18.3252	-117.550708	0.000616	6.163834	2.088363	-0.049204
1461	7.3000e-01	-18.3476	-117.732198	0.000455	4.547090	1.540596	-0.036298
1462	7.3050e-01	-18.3973	-118.026614	0.000738	7.376391	2.499189	-0.058883
1463	7.3100e-01	-18.4391	-118.147607	0.000303	3.031394	1.027064	-0.024199
1464	7.3150e-01	-18.4824	-118.321030	0.000434	4.344998	1.472125	-0.034685
1465	7.3200e-01	-18.5241	-118.506553	0.000465	4.648137	1.574831	-0.037105
1466	7.3250e-01	-18.5578	-118.623513	0.000293	2.930347	0.992828	-0.023392
1467	7.3300e-01	-18.5898	-119.123617	0.001253	12.529760	4.245198	-0.100021
1468	7.3350e-01	-18.6428	-119.373669	0.000626	6.264880	2.122599	-0.050010
1469	7.3400e-01	-18.6813	-119.490629	0.000293	2.930347	0.992828	-0.023392
1470	7.3450e-01	-18.7230	-119.760846	0.000677	6.770112	2.293776	-0.054044
1471	7.3500e-01	-18.7519	-119.853608	0.000232	2.324068	0.787416	-0.018552
1472	7.3550e-01	-18.8064	-120.018965	0.000414	4.142905	1.403654	-0.033071
1473	7.3600e-01	-18.8337	-120.349679	0.000829	8.285809	2.807308	-0.066143
1474	7.3650e-01	-18.8722	-120.636029	0.000717	7.174298	2.430718	-0.057270
1475	7.3700e-01	-18.9267	-120.688459	0.000131	1.313604	0.445061	-0.010486
1476	7.3750e-01	-18.9572	-120.954644	0.000667	6.669066	2.259541	-0.053237
1477	7.3800e-01	-18.9957	-121.079670	0.000313	3.132440	1.061299	-0.025005
1478	7.3850e-01	-19.0326	-121.341821	0.000657	6.568019	2.225305	-0.052430
1479	7.3900e-01	-19.0711	-121.773363	0.001081	10.811971	3.663195	-0.086308
1480	7.3950e-01	-19.1257	-121.708833	-0.000162	-1.616743	-0.547767	0.012906
1481	7.4000e-01	-19.1626	-121.870157	0.000404	4.041858	1.369419	-0.032265
1482	7.4050e-01	-19.1995	-122.342030	0.001182	11.822435	4.005549	-0.094375
1483	7.4100e-01	-19.2315	-122.507387	0.000414	4.142905	1.403654	-0.033071
1484	7.4150e-01	-19.2781	-122.668711	0.000404	4.041858	1.369419	-0.032265
1485	7.4200e-01	-19.3230	-123.112351	0.001112	11.115110	3.765901	-0.088728
1486	7.4250e-01	-19.3583	-123.314006	0.000505	5.052323	1.711773	-0.040331
1487	7.4300e-01	-19.4000	-123.164782	-0.000374	-3.738719	-1.266712	0.029845
1488	7.4350e-01	-19.4305	-123.390635	0.000566	5.658601	1.917186	-0.045171
1489	7.4400e-01	-19.4802	-123.757647	0.000920	9.195227	3.115427	-0.073402
1490	7.4450e-01	-19.5139	-124.060130	0.000758	7.578484	2.567660	-0.060496
1491	7.4500e-01	-19.5492	-124.209354	0.000374	3.738719	1.266712	-0.029845
1492	7.4550e-01	-19.5829	-124.419075	0.000525	5.254416	1.780244	-0.041944
1493	7.4600e-01	-19.6358	-124.652995	0.000586	5.860694	1.985657	-0.046784
1494	7.4650e-01	-19.6711	-124.975643	0.000808	8.083716	2.738837	-0.064530
1495	7.4700e-01	-19.7192	-125.024040	0.000121	1.212557	0.410826	-0.009679
1496	7.4750e-01	-19.7690	-124.943378	-0.000202	-2.020929	-0.684709	0.016132
1497	7.4800e-01	-19.7930	-125.229728	0.000717	7.174298	2.430718	-0.057270
1498	7.4850e-01	-19.8331	-125.443482	0.000536	5.355462	1.814480	-0.042751
1499	7.4900e-01	-19.8748	-125.657237	0.000536	5.355462	1.814480	-0.042751
1500	7.4950e-01	-19.9198	-126.141208	0.001213	12.125574	4.108256	-0.096794
1501	7.5000e-01	-19.9599	-126.334797	0.000485	4.850230	1.643302	-0.038718
1502	7.5050e-01	-19.9567	-126.262201	0.000182	1.818836	0.616238	0.014519
1503	7.5100e-01	-19.9502	-126.209771	0.000131	1.313604	0.445061	0.010486
1504	7.5150e-01	-19.8973	-125.971818	0.000596	5.961741	2.019892	0.047591
1505	7.5200e-01	-19.8572	-126.133142	-0.000404	-4.041858	-1.369419	-0.032265
1506	7.5250e-01	-19.8251	-125.834693	0.000748	7.477438	2.533424	0.059690
1507	7.5300e-01	-19.7834	-125.887123	-0.000131	-1.313604	-0.445061	-0.010486
1508	7.5350e-01	-19.7481	-125.471714	0.001041	10.407785	3.526253	0.083082
1509	7.5400e-01	-19.7032	-125.439449	0.000081	0.808372	0.273884	0.006453
1510	7.5450e-01	-19.6615	-125.374920	0.000162	1.616743	0.547767	0.012906
1511	7.5500e-01	-19.6326	-125.068404	0.000768	7.679530	2.601895	0.061303
1512	7.5550e-01	-19.5845	-125.229728	-0.000404	-4.041858	-1.369419	-0.032265
1513	7.5600e-01	-19.5396	-125.096636	0.000333	3.334533	1.129770	0.026618
1514	7.5650e-01	-19.4978	-125.036139	0.000152	1.515697	0.513532	0.012099
1515	7.5700e-01	-19.4642	-124.697359	0.000849	8.487902	2.875779	0.067756
1516	7.5750e-01	-19.4257	-124.487638	0.000525	5.254416	1.780244	0.041944
1517	7.5800e-01	-19.3855	-124.253718	0.000586	5.860694	1.985657	0.046784
1518	7.5850e-01	-19.3454	-123.906872	0.000869	8.689995	2.944250	0.069369
1519	7.5900e-01	-19.3021	-123.979468	-0.000182	-1.818836	-0.616238	-0.014519
1520	7.5950e-01	-19.2588	-124.096427	-0.000293	-2.930347	-0.992828	-0.023392
1521	7.6000e-01	-19.2283	-123.693118	0.001010	10.104645	3.423547	0.080662
1522	7.6050e-01	-19.1914	-123.681018	0.000030	0.303139	0.102706	0.002420
1523	7.6100e-01	-19.1385	-123.503562	0.000445	4.446044	1.506360	0.035491
1524	7.6150e-01	-19.1064	-123.547926	-0.000111	-1.111511	-0.376590	-0.008873
1525	7.6200e-01	-19.0519	-123.330139	0.000546	5.456508	1.848715	0.043557
1526	7.6250e-01	-19.0262	-123.031689	0.000748	7.477438	2.533424	0.059690
1527	7.6300e-01	-18.9845	-123.027656	0.000010	0.101046	0.034235	0.000807
1528	7.6350e-01	-18.9524	-122.854233	0.000434	4.344998	1.472125	0.034685
1529	7.6400e-01	-18.8914	-122.692909	0.000404	4.041858	1.369419	0.032265
1530	7.6450e-01	-18.8706	-122.600148	0.000232	2.324068	0.787416	0.018552
1531	7.6500e-01	-18.8305	-122.430758	0.000424	4.243951	1.437890	0.033878
1532	7.6550e-01	-18.7808	-122.217003	0.000536	5.355462	1.814480	0.042751
1533	7.6600e-01	-18.7374	-122.087944	0.000323	3.233487	1.095535	0.025812
1534	7.6650e-01	-18.7070	-121.942753	0.000364	3.637672	1.232477	0.029038
1535	7.6700e-01	-18.6797	-121.668502	0.000687	6.871159	2.328012	0.054850
1536	7.6750e-01	-18.6267	-121.692701	-0.000061	-0.606279	-0.205413	-0.004840
1537	7.6800e-01	-18.5898	-121.406351	0.000717	7.174298	2.430718	0.057270
1538	7.6850e-01	-18.5465	-121.216795	0.000475	4.749183	1.609067	0.037911
1539	7.6900e-01	-18.5000	-120.986908	0.000576	5.759648	1.951422	0.045977
1540	7.6950e-01	-18.4663	-120.752989	0.000586	5.860694	1.985657	0.046784
1541	7.7000e-01	-18.4310	-120.567466	0.000465	4.648137	1.574831	0.037105
1542	7.7050e-01	-18.3797	-120.696525	-0.000323	-3.233487	-1.095535	-0.025812
1543	7.7100e-01	-18.3396	-120.260951	0.001091	10.913017	3.697430	0.087115
1544	7.7150e-01	-18.3059	-120.232719	0.000071	0.707325	0.239648	0.005646
1545	7.7200e-01	-18.2674	-120.083494	0.000374	3.738719	1.266712	0.029845
1546	7.7250e-01	-18.2209	-119.926203	0.000394	3.940812	1.335183	0.031458
1547	7.7300e-01	-18.1872	-119.825376	0.000253	2.526161	0.855887	0.020165
1548	7.7350e-01	-18.1535	-119.692284	0.000333	3.334533	1.129770	0.026618
1549	7.7400e-01	-18.1102	-119.603556	0.000222	2.223022	0.753180	0.017746
1550	7.7450e-01	-18.0717	-119.369636	0.000586	5.860694	1.985657	0.046784
1551	7.7500e-01	-18.0268	-119.232511	0.000344	3.435579	1.164006	0.027425
1552	7.7550e-01	-17.9931	-118.913896	0.000798	7.982670	2.704602	0.063723
1553	7.7600e-01	-17.9498	-118.845333	0.000172	1.717790	0.582003	0.013713
1554	7.7650e-01	-17.8984	-118.692075	0.000384	3.839765	1.300948	0.030652
1555	7.7700e-01	-17.8663	-118.437990	0.000637	6.365927	2.156834	0.050817
1556	7.7750e-01	-17.8230	-118.502520	-0.000162	-1.616743	-0.547767	-0.012906
1557	7.7800e-01	-17.7861	-118.264567	0.000596	5.961741	2.019892	0.047591
1558	7.7850e-01	-17.7476	-117.941919	0.000808	8.083716	2.738837	0.064530
1559	7.7900e-01	-17.7059	-117.768496	0.000434	4.344998	1.472125	0.034685
1560	7.7950e-01	-17.6546	-117.643470	0.000313	3.132440	1.061299	0.025005
1561	7.8000e-01	-17.6273	-117.385351	0.000647	6.466973	2.191070	0.051624
1562	7.8050e-01	-17.5872	-117.413583	-0.000071	-0.707325	-0.239648	-0.005646
1563	7.8100e-01	-17.5423	-117.324855	0.000222	2.223022	0.753180	0.017746
1564	7.8150e-01	-17.5022	-117.167564	0.000394	3.940812	1.335183	0.031458
1565	7.8200e-01	-17.4653	-116.731989	0.001091	10.913017	3.697430	0.087115
1566	7.8250e-01	-17.4300	-116.748122	-0.000040	-0.404186	-0.136942	-0.003226
1567	7.8300e-01	-17.3867	-116.490003	0.000647	6.466973	2.191070	0.051624
1568	7.8350e-01	-17.3594	-116.389176	0.000253	2.526161	0.855887	0.020165
1569	7.8400e-01	-17.2952	-116.328680	0.000152	1.515697	0.513532	0.012099
1570	7.8450e-01	-17.2664	-116.094760	0.000586	5.860694	1.985657	0.046784
1571	7.8500e-01	-17.2295	-116.030230	0.000162	1.616743	0.547767	0.012906
1572	7.8550e-01	-17.1813	-115.852774	0.000445	4.446044	1.506360	0.035491
1573	7.8600e-01	-17.1332	-115.538192	0.000788	7.881623	2.670366	0.062916
1574	7.8650e-01	-17.1075	-115.509961	0.000071	0.707325	0.239648	0.005646
1575	7.8700e-01	-17.0706	-115.058253	0.001132	11.317203	3.834372	0.090341
1576	7.8750e-01	-17.0273	-114.856599	0.000505	5.052323	1.711773	0.040331
1577	7.8800e-01	-16.9904	-114.513785	0.000859	8.588949	2.910015	0.068563
1578	7.8850e-01	-16.9439	-114.497653	0.000040	0.404186	0.136942	0.003226
1579	7.8900e-01	-16.9006	-114.356494	0.000354	3.536626	1.198241	0.028232
1580	7.8950e-01	-16.8573	-114.243568	0.000283	2.829301	0.958593	0.022585
1581	7.9000e-01	-16.8268	-114.223402	0.000051	0.505232	0.171177	0.004033
1582	7.9050e-01	-16.7835	-113.852357	0.000930	9.296274	3.149663	0.074209
1583	7.9100e-01	-16.7434	-113.703132	0.000374	3.738719	1.266712	0.029845
1584	7.9150e-01	-16.7001	-113.525676	0.000445	4.446044	1.506360	0.035491
1585	7.9200e-01	-16.6664	-113.392584	0.000333	3.334533	1.129770	0.026618
1586	7.9250e-01	-16.6359	-113.255458	0.000344	3.435579	1.164006	0.027425
1587	7.9300e-01	-16.5878	-113.130432	0.000313	3.132440	1.061299	0.025005
1588	7.9350e-01	-16.5445	-112.916678	0.000536	5.355462	1.814480	0.042751
1589	7.9400e-01	-16.5060	-112.598063	0.000798	7.982670	2.704602	0.063723
1590	7.9450e-01	-16.4578	-112.485137	0.000283	2.829301	0.958593	0.022585
1591	7.9500e-01	-16.4225	-112.291548	0.000485	4.850230	1.643302	0.038718
1592	7.9550e-01	-16.3921	-112.198787	0.000232	2.324068	0.787416	0.018552
1593	7.9600e-01	-16.3455	-112.081827	0.000293	2.930347	0.992828	0.023392
1594	7.9650e-01	-16.3086	-111.835808	0.000616	6.163834	2.088363	0.049204
1595	7.9700e-01	-16.2589	-111.771278	0.000162	1.616743	0.547767	0.012906
1596	7.9750e-01	-16.2188	-111.384101	0.000970	9.700460	3.286605	0.077435
1597	7.9800e-01	-16.1787	-111.283273	0.000253	2.526161	0.855887	0.020165
1598	7.9850e-01	-16.1530	-111.061453	0.000556	5.557555	1.882951	0.044364
1599	7.9900e-01	-16.1049	-111.000956	0.000152	1.515697	0.513532	0.012099
1600	7.9950e-01	-16.0616	-110.892063	0.000273	2.728254	0.924358	0.021779
1601	8.0000e-01	-16.0263	-110.662176	0.000576	5.759648	1.951422	0.045977
1602	8.0050e-01	-15.9798	-110.593613	0.000172	1.717790	0.582003	0.013713
1603	8.0100e-01	-15.9429	-110.166105	0.001071	10.710924	3.628959	0.085502
1604	8.0150e-01	-15.9092	-109.956384	0.000525	5.254416	1.780244	0.041944
1605	8.0200e-01	-15.8610	-109.879755	0.000192	1.919883	0.650474	0.015326
1606	8.0250e-01	-15.8322	-109.859589	0.000051	0.505232	0.171177	0.004033
1607	8.0300e-01	-15.7840	-109.371584	0.001223	12.226621	4.142491	0.097601
1608	8.0350e-01	-15.7407	-109.081201	0.000728	7.275345	2.464953	0.058077
1609	8.0400e-01	-15.7070	-109.008606	0.000182	1.818836	0.616238	0.014519
1610	8.0450e-01	-15.6541	-109.069102	-0.000152	-1.515697	-0.513532	-0.012099
1611	8.0500e-01	-15.6220	-108.847282	0.000556	5.557555	1.882951	0.044364
1612	8.0550e-01	-15.5867	-108.605296	0.000606	6.062787	2.054128	0.048397
1613	8.0600e-01	-15.5466	-108.322979	0.000707	7.073252	2.396483	0.056463
1614	8.0650e-01	-15.5065	-108.290714	0.000081	0.808372	0.273884	0.006453
1615	8.0700e-01	-15.4584	-108.089059	0.000505	5.052323	1.711773	0.040331
1616	8.0750e-01	-15.4231	-108.080993	0.000020	0.202093	0.068471	0.001613
1617	8.0800e-01	-15.3894	-107.806742	0.000687	6.871159	2.328012	0.054850
1618	8.0850e-01	-15.3397	-107.258241	0.001374	13.742318	4.656023	0.109700
1619	8.0900e-01	-15.3172	-107.326803	-0.000172	-1.717790	-0.582003	-0.013713
1620	8.0950e-01	-15.2659	-107.258241	0.000172	1.717790	0.582003	0.013713
1621	8.1000e-01	-15.2242	-107.076751	0.000455	4.547090	1.540596	0.036298
1622	8.1050e-01	-15.1793	-106.725872	0.000879	8.791041	2.978485	0.070176
1623	8.1100e-01	-15.1504	-106.427422	0.000748	7.477438	2.533424	0.059690
1624	8.1150e-01	-15.1055	-106.157205	0.000677	6.770112	2.293776	0.054044
1625	8.1200e-01	-15.0589	-106.217701	-0.000152	-1.515697	-0.513532	-0.012099
1626	8.1250e-01	-15.0236	-105.931351	0.000717	7.174298	2.430718	0.057270
1627	8.1300e-01	-14.9932	-105.790193	0.000354	3.536626	1.198241	0.028232
1628	8.1350e-01	-14.9386	-105.826491	-0.000091	-0.909418	-0.308119	-0.007260
1629	8.1400e-01	-14.9178	-105.374784	0.001132	11.317203	3.834372	0.090341
1630	8.1450e-01	-14.8712	-105.201360	0.000434	4.344998	1.472125	0.034685
1631	8.1500e-01	-14.8231	-105.076334	0.000313	3.132440	1.061299	0.025005
1632	8.1550e-01	-14.7798	-104.910977	0.000414	4.142905	1.403654	0.033071
1633	8.1600e-01	-14.7477	-104.826282	0.000212	2.121976	0.718945	0.016939
1634	8.1650e-01	-14.7028	-104.451204	0.000940	9.397320	3.183898	0.075016
1635	8.1700e-01	-14.6611	-104.378608	0.000182	1.818836	0.616238	0.014519
1636	8.1750e-01	-14.6178	-104.189053	0.000475	4.749183	1.609067	0.037911
1637	8.1800e-01	-14.5809	-103.947067	0.000606	6.062787	2.054128	0.048397
1638	8.1850e-01	-14.5392	-103.660717	0.000717	7.174298	2.430718	0.057270
1639	8.1900e-01	-14.4942	-103.503426	0.000394	3.940812	1.335183	0.031458
1640	8.1950e-01	-14.4654	-103.176745	0.000818	8.184763	2.773073	0.065336
1641	8.2000e-01	-14.4269	-102.967024	0.000525	5.254416	1.780244	0.041944
1642	8.2050e-01	-14.3852	-102.926693	0.000101	1.010465	0.342355	0.008066
1643	8.2100e-01	-14.3402	-102.757303	0.000424	4.243951	1.437890	0.033878
1644	8.2150e-01	-14.3049	-102.547582	0.000525	5.254416	1.780244	0.041944
1645	8.2200e-01	-14.2648	-102.353993	0.000485	4.850230	1.643302	0.038718
1646	8.2250e-01	-14.2279	-102.188636	0.000414	4.142905	1.403654	0.033071
1647	8.2300e-01	-14.1846	-102.196702	-0.000020	-0.202093	-0.068471	-0.001613
1648	8.2350e-01	-14.1397	-101.769194	0.001071	10.710924	3.628959	0.085502
1649	8.2400e-01	-14.1156	-101.632068	0.000344	3.435579	1.164006	0.027425
1650	8.2450e-01	-14.0643	-101.410248	0.000556	5.557555	1.882951	0.044364
1651	8.2500e-01	-14.0322	-101.075501	0.000839	8.386856	2.841544	0.066949
1652	8.2550e-01	-13.9761	-100.986772	0.000222	2.223022	0.753180	0.017746
1653	8.2600e-01	-13.9440	-100.898044	0.000222	2.223022	0.753180	0.017746
1654	8.2650e-01	-13.9071	-100.607661	0.000728	7.275345	2.464953	0.058077
1655	8.2700e-01	-13.8670	-100.438271	0.000424	4.243951	1.437890	0.033878
1656	8.2750e-01	-13.8269	-100.341477	0.000243	2.425115	0.821651	0.019359
1657	8.2800e-01	-13.7932	-100.099491	0.000606	6.062787	2.054128	0.048397
1658	8.2850e-01	-13.7451	-100.018829	0.000202	2.020929	0.684709	0.016132
1659	8.2900e-01	-13.7066	-99.671982	0.000869	8.689995	2.944250	0.069369
1660	8.2950e-01	-13.6713	-99.304970	0.000920	9.195227	3.115427	0.073402
1661	8.3000e-01	-13.6167	-99.300937	0.000010	0.101046	0.034235	0.000807
1662	8.3050e-01	-13.5798	-99.200110	0.000253	2.526161	0.855887	0.020165
1663	8.3100e-01	-13.5381	-98.913760	0.000717	7.174298	2.430718	0.057270
1664	8.3150e-01	-13.5076	-98.506417	0.001021	10.205692	3.457782	0.081469
1665	8.3200e-01	-13.4643	-98.296696	0.000525	5.254416	1.780244	0.041944
1666	8.3250e-01	-13.4210	-98.264431	0.000081	0.808372	0.273884	0.006453
1667	8.3300e-01	-13.3825	-98.207968	0.000141	1.414650	0.479297	0.011293
1668	8.3350e-01	-13.3584	-97.631234	0.001445	14.449643	4.895672	0.115347
1669	8.3400e-01	-13.3103	-97.522341	0.000273	2.728254	0.924358	0.021779
1670	8.3450e-01	-13.2654	-97.526374	-0.000010	-0.101046	-0.034235	-0.000807
1671	8.3500e-01	-13.2205	-97.276322	0.000626	6.264880	2.122599	0.050010
1672	8.3550e-01	-13.1804	-97.143229	0.000333	3.334533	1.129770	0.026618
1673	8.3600e-01	-13.1499	-96.848813	0.000738	7.376391	2.499189	0.058883
1674	8.3650e-01	-13.1034	-96.667324	0.000455	4.547090	1.540596	0.036298
1675	8.3700e-01	-13.0649	-96.675390	-0.000020	-0.202093	-0.068471	-0.001613
1676	8.3750e-01	-13.0183	-96.465669	0.000525	5.254416	1.780244	0.041944
1677	8.3800e-01	-12.9815	-96.167220	0.000748	7.477438	2.533424	0.059690
1678	8.3850e-01	-12.9349	-95.945399	0.000556	5.557555	1.882951	0.044364
1679	8.3900e-01	-12.9125	-95.352534	0.001485	14.853829	5.032613	0.118573
1680	8.3950e-01	-12.8579	-95.356567	-0.000010	-0.101046	-0.034235	-0.000807
1681	8.4000e-01	-12.8226	-95.288004	0.000172	1.717790	0.582003	0.013713
1682	8.4050e-01	-12.7905	-95.090382	0.000495	4.951276	1.677538	0.039524
1683	8.4100e-01	-12.7488	-95.021820	0.000172	1.717790	0.582003	0.013713
1684	8.4150e-01	-12.7168	-94.679006	0.000859	8.588949	2.910015	0.068563
1685	8.4200e-01	-12.6622	-94.509616	0.000424	4.243951	1.437890	0.033878
1686	8.4250e-01	-12.6173	-94.400722	0.000273	2.728254	0.924358	0.021779
1687	8.4300e-01	-12.5884	-94.021611	0.000950	9.498367	3.218134	0.075822
1688	8.4350e-01	-12.5531	-93.779625	0.000606	6.062787	2.054128	0.048397
1689	8.4400e-01	-12.5034	-93.787691	-0.000020	-0.202093	-0.068471	-0.001613
1690	8.4450e-01	-12.4665	-93.243223	0.001364	13.641271	4.621788	0.108894
1691	8.4500e-01	-12.4312	-93.267422	-0.000061	-0.606279	-0.205413	-0.004840
1692	8.4550e-01	-12.3911	-92.968972	0.000748	7.477438	2.533424	0.059690
1693	8.4600e-01	-12.3398	-92.908476	0.000152	1.515697	0.513532	0.012099
1694	8.4650e-01	-12.3013	-92.718920	0.000475	4.749183	1.609067	0.037911
1695	8.4700e-01	-12.2644	-92.404339	0.000788	7.881623	2.670366	0.062916
1696	8.4750e-01	-12.2323	-92.315610	0.000222	2.223022	0.753180	0.017746
1697	8.4800e-01	-12.1922	-92.025227	0.000728	7.275345	2.464953	0.058077
1698	8.4850e-01	-12.1440	-91.811473	0.000536	5.355462	1.814480	0.042751
1699	8.4900e-01	-12.0991	-91.525123	0.000717	7.174298	2.430718	0.057270
1700	8.4950e-01	-12.0670	-91.307336	0.000546	5.456508	1.848715	0.043557
1701	8.5000e-01	-12.0221	-91.295237	0.000030	0.303139	0.102706	0.002420
1702	8.5050e-01	-11.9868	-91.025019	0.000677	6.770112	2.293776	0.054044
1703	8.5100e-01	-11.9451	-90.887894	0.000344	3.435579	1.164006	0.027425
1704	8.5150e-01	-11.8970	-90.678172	0.000525	5.254416	1.780244	0.041944
1705	8.5200e-01	-11.8665	-90.351491	0.000818	8.184763	2.773073	0.065336
1706	8.5250e-01	-11.8184	-90.194201	0.000394	3.940812	1.335183	0.031458
1707	8.5300e-01	-11.7799	-90.165969	0.000071	0.707325	0.239648	0.005646
1708	8.5350e-01	-11.7446	-89.859453	0.000768	7.679530	2.601895	0.061303
1709	8.5400e-01	-11.7077	-89.677964	0.000455	4.547090	1.540596	0.036298
1710	8.5450e-01	-11.6692	-89.133496	0.001364	13.641271	4.621788	0.108894
1711	8.5500e-01	-11.6243	-89.044767	0.000222	2.223022	0.753180	0.017746
1712	8.5550e-01	-11.5842	-88.899576	0.000364	3.637672	1.232477	0.029038
1713	8.5600e-01	-11.5489	-88.681789	0.000546	5.456508	1.848715	0.043557
1714	8.5650e-01	-11.5120	-88.411571	0.000677	6.770112	2.293776	0.054044
1715	8.5700e-01	-11.4574	-88.254280	0.000394	3.940812	1.335183	0.031458
1716	8.5750e-01	-11.4286	-87.963897	0.000728	7.275345	2.464953	0.058077
1717	8.5800e-01	-11.3884	-87.826772	0.000344	3.435579	1.164006	0.027425
1718	8.5850e-01	-11.3532	-87.742077	0.000212	2.121976	0.718945	0.016939
1719	8.5900e-01	-11.3114	-87.487991	0.000637	6.365927	2.156834	0.050817
1720	8.5950e-01	-11.2649	-87.181476	0.000768	7.679530	2.601895	0.061303
1721	8.6000e-01	-11.2296	-86.923358	0.000647	6.466973	2.191070	0.051624
1722	8.6050e-01	-11.1895	-86.798332	0.000313	3.132440	1.061299	0.025005
1723	8.6100e-01	-11.1526	-86.520048	0.000697	6.972205	2.362247	0.055657
1724	8.6150e-01	-11.1093	-86.411154	0.000273	2.728254	0.924358	0.021779
1725	8.6200e-01	-11.0644	-86.261929	0.000374	3.738719	1.266712	0.029845
1726	8.6250e-01	-11.0259	-86.217565	0.000111	1.111511	0.376590	0.008873
1727	8.6300e-01	-10.9874	-85.741660	0.001192	11.923482	4.039785	0.095181
1728	8.6350e-01	-10.9328	-85.709395	0.000081	0.808372	0.273884	0.006453
1729	8.6400e-01	-10.9056	-85.435144	0.000687	6.871159	2.328012	0.054850
1730	8.6450e-01	-10.8639	-85.104430	0.000829	8.285809	2.807308	0.066143
1731	8.6500e-01	-10.8334	-84.854378	0.000626	6.264880	2.122599	0.050010
1732	8.6550e-01	-10.7820	-84.729352	0.000313	3.132440	1.061299	0.025005
1733	8.6600e-01	-10.7484	-84.491399	0.000596	5.961741	2.019892	0.047591
1734	8.6650e-01	-10.6922	-84.346208	0.000364	3.637672	1.232477	0.029038
1735	8.6700e-01	-10.6681	-84.092122	0.000637	6.365927	2.156834	0.050817
1736	8.6750e-01	-10.6264	-83.632349	0.001152	11.519296	3.902843	0.091955
1737	8.6800e-01	-10.5911	-83.551687	0.000202	2.020929	0.684709	0.016132
1738	8.6850e-01	-10.5430	-83.374231	0.000445	4.446044	1.506360	0.035491
1739	8.6900e-01	-10.5061	-83.200808	0.000434	4.344998	1.472125	0.034685
1740	8.6950e-01	-10.4628	-82.950756	0.000626	6.264880	2.122599	0.050010
1741	8.7000e-01	-10.4275	-82.789432	0.000404	4.041858	1.369419	0.032265
1742	8.7050e-01	-10.3890	-82.503082	0.000717	7.174298	2.430718	0.057270
1743	8.7100e-01	-10.3505	-82.228831	0.000687	6.871159	2.328012	0.054850
1744	8.7150e-01	-10.3184	-82.019110	0.000525	5.254416	1.780244	0.041944
1745	8.7200e-01	-10.2623	-82.019110	0.000000	0.000000	0.000000	0.000000
1746	8.7250e-01	-10.2270	-81.680329	0.000849	8.487902	2.875779	0.067756
1747	8.7300e-01	-10.1917	-81.373814	0.000768	7.679530	2.601895	0.061303
1748	8.7350e-01	-10.1420	-81.103596	0.000677	6.770112	2.293776	0.054044
1749	8.7400e-01	-10.1035	-81.039067	0.000162	1.616743	0.547767	0.012906
1750	8.7450e-01	-10.0634	-80.728518	0.000778	7.780577	2.636131	0.062110
1751	8.7500e-01	-10.0200	-80.518797	0.000525	5.254416	1.780244	0.041944
1752	8.7550e-01	-9.9767	-80.309076	0.000525	5.254416	1.780244	0.041944
1753	8.7600e-01	-9.9414	-80.200182	0.000273	2.728254	0.924358	0.021779
1754	8.7650e-01	-9.9061	-79.861402	0.000849	8.487902	2.875779	0.067756
1755	8.7700e-01	-9.8676	-79.599251	0.000657	6.568019	2.225305	0.052430
1756	8.7750e-01	-9.8323	-79.280636	0.000798	7.982670	2.704602	0.063723
1757	8.7800e-01	-9.7810	-79.143510	0.000344	3.435579	1.164006	0.027425
1758	8.7850e-01	-9.7457	-79.087047	0.000141	1.414650	0.479297	0.011293
1759	8.7900e-01	-9.6928	-78.695836	0.000980	9.801506	3.320840	0.078242
1760	8.7950e-01	-9.6559	-78.425619	0.000677	6.770112	2.293776	0.054044
1761	8.8000e-01	-9.6206	-78.227997	0.000495	4.951276	1.677538	0.039524
1762	8.8050e-01	-9.5885	-78.107004	0.000303	3.031394	1.027064	0.024199
1763	8.8100e-01	-9.5452	-77.977945	0.000323	3.233487	1.095535	0.025812
1764	8.8150e-01	-9.5003	-77.748058	0.000576	5.759648	1.951422	0.045977
1765	8.8200e-01	-9.4666	-77.489940	0.000647	6.466973	2.191070	0.051624
1766	8.8250e-01	-9.4297	-77.171325	0.000798	7.982670	2.704602	0.063723
1767	8.8300e-01	-9.3880	-76.945472	0.000566	5.658601	1.917186	0.045171
1768	8.8350e-01	-9.3414	-76.945472	0.000000	0.000000	0.000000	0.000000
1769	8.8400e-01	-9.3126	-76.409070	0.001344	13.439178	4.553317	0.107280
1770	8.8450e-01	-9.2693	-76.215481	0.000485	4.850230	1.643302	0.038718
1771	8.8500e-01	-9.2115	-76.070289	0.000364	3.637672	1.232477	0.029038
1772	8.8550e-01	-9.1858	-75.767807	0.000758	7.578484	2.567660	0.060496
1773	8.8600e-01	-9.1441	-75.521788	0.000616	6.163834	2.088363	0.049204
1774	8.8650e-01	-9.0976	-75.437093	0.000212	2.121976	0.718945	0.016939
1775	8.8700e-01	-9.0719	-75.199140	0.000596	5.961741	2.019892	0.047591
1776	8.8750e-01	-9.0318	-74.860360	0.000849	8.487902	2.875779	0.067756
1777	8.8800e-01	-8.9853	-74.715168	0.000364	3.637672	1.232477	0.029038
1778	8.8850e-01	-8.9404	-74.356222	0.000899	8.993134	3.046956	0.071789
1779	8.8900e-01	-8.9019	-74.287660	0.000172	1.717790	0.582003	0.013713
1780	8.8950e-01	-8.8602	-73.956946	0.000829	8.285809	2.807308	0.066143
1781	8.9000e-01	-8.8185	-73.714960	0.000606	6.062787	2.054128	0.048397
1782	8.9050e-01	-8.7896	-73.589934	0.000313	3.132440	1.061299	0.025005
1783	8.9100e-01	-8.7383	-73.436676	0.000384	3.839765	1.300948	0.030652
1784	8.9150e-01	-8.7030	-73.162425	0.000687	6.871159	2.328012	0.054850
1785	8.9200e-01	-8.6548	-72.880108	0.000707	7.073252	2.396483	0.056463
1786	8.9250e-01	-8.6179	-72.710718	0.000424	4.243951	1.437890	0.033878
1787	8.9300e-01	-8.5842	-72.662321	0.000121	1.212557	0.410826	0.009679
1788	8.9350e-01	-8.5425	-72.323541	0.000849	8.487902	2.875779	0.067756
1789	8.9400e-01	-8.5121	-71.859734	0.001162	11.620342	3.937079	0.092761
1790	8.9450e-01	-8.4591	-71.710510	0.000374	3.738719	1.266712	0.029845
1791	8.9500e-01	-8.4238	-71.432226	0.000697	6.972205	2.362247	0.055657
1792	8.9550e-01	-8.3805	-71.218472	0.000536	5.355462	1.814480	0.042751
1793	8.9600e-01	-8.3420	-71.101512	0.000293	2.930347	0.992828	0.023392
1794	8.9650e-01	-8.2843	-70.903890	0.000495	4.951276	1.677538	0.039524
1795	8.9700e-01	-8.2682	-70.633672	0.000677	6.770112	2.293776	0.054044
1796	8.9750e-01	-8.2297	-70.262627	0.000930	9.296274	3.149663	0.074209
1797	8.9800e-01	-8.1880	-70.048873	0.000536	5.355462	1.814480	0.042751
1798	8.9850e-01	-8.1495	-69.839152	0.000525	5.254416	1.780244	0.041944
1799	8.9900e-01	-8.1062	-69.714126	0.000313	3.132440	1.061299	0.025005
1800	8.9950e-01	-8.0661	-69.427776	0.000717	7.174298	2.430718	0.057270
1801	9.0000e-01	-8.0228	-69.157558	0.000677	6.770112	2.293776	0.054044
1802	9.0050e-01	-7.9843	-68.976069	0.000455	4.547090	1.540596	0.036298
1803	9.0100e-01	-7.9442	-68.621156	0.000889	8.892088	3.012721	0.070983
1804	9.0150e-01	-7.9041	-68.375137	0.000616	6.163834	2.088363	0.049204
1805	9.0200e-01	-7.8800	-68.117019	0.000647	6.466973	2.191070	0.051624
1806	9.0250e-01	-7.8206	-67.862934	0.000637	6.365927	2.156834	0.050817
1807	9.0300e-01	-7.7853	-67.858901	0.000010	0.101046	0.034235	0.000807
1808	9.0350e-01	-7.7468	-67.624981	0.000586	5.860694	1.985657	0.046784
1809	9.0400e-01	-7.7003	-67.451558	0.000434	4.344998	1.472125	0.034685
1810	9.0450e-01	-7.6698	-67.189406	0.000657	6.568019	2.225305	0.052430
1811	9.0500e-01	-7.6249	-66.842560	0.000869	8.689995	2.944250	0.069369
1812	9.0550e-01	-7.5784	-66.600574	0.000606	6.062787	2.054128	0.048397
1813	9.0600e-01	-7.5447	-66.374720	0.000566	5.658601	1.917186	0.045171
1814	9.0650e-01	-7.5078	-66.056105	0.000798	7.982670	2.704602	0.063723
1815	9.0700e-01	-7.4661	-65.729424	0.000818	8.184763	2.773073	0.065336
1816	9.0750e-01	-7.4276	-65.479372	0.000626	6.264880	2.122599	0.050010
1817	9.0800e-01	-7.3827	-65.261585	0.000546	5.456508	1.848715	0.043557
1818	9.0850e-01	-7.3506	-64.999434	0.000657	6.568019	2.225305	0.052430
1819	9.0900e-01	-7.3089	-64.854242	0.000364	3.637672	1.232477	0.029038
1820	9.0950e-01	-7.2656	-64.499329	0.000889	8.892088	3.012721	0.070983
1821	9.1000e-01	-7.2255	-64.309774	0.000475	4.749183	1.609067	0.037911
1822	9.1050e-01	-7.1950	-64.144417	0.000414	4.142905	1.403654	0.033071
1823	9.1100e-01	-7.1372	-63.785471	0.000899	8.993134	3.046956	0.071789
1824	9.1150e-01	-7.1019	-63.458790	0.000818	8.184763	2.773073	0.065336
1825	9.1200e-01	-7.0602	-63.176473	0.000707	7.073252	2.396483	0.056463
1826	9.1250e-01	-7.0169	-62.982884	0.000485	4.850230	1.643302	0.038718
1827	9.1300e-01	-6.9896	-62.845759	0.000344	3.435579	1.164006	0.027425
1828	9.1350e-01	-6.9495	-62.539243	0.000768	7.679530	2.601895	0.061303
1829	9.1400e-01	-6.9014	-62.228695	0.000778	7.780577	2.636131	0.062110
1830	9.1450e-01	-6.8629	-62.188364	0.000101	1.010465	0.342355	0.008066
1831	9.1500e-01	-6.8308	-61.740690	0.001122	11.216156	3.800137	0.089535
1832	9.1550e-01	-6.7795	-61.740690	0.000000	0.000000	0.000000	0.000000
1833	9.1600e-01	-6.7410	-61.418042	0.000808	8.083716	2.738837	0.064530
1834	9.1650e-01	-6.7057	-61.208321	0.000525	5.254416	1.780244	0.041944
1835	9.1700e-01	-6.6608	-60.845342	0.000909	9.094181	3.081192	0.072596
1836	9.1750e-01	-6.6239	-60.587224	0.000647	6.466973	2.191070	0.051624
1837	9.1800e-01	-6.5886	-60.433966	0.000384	3.839765	1.300948	0.030652
1838	9.1850e-01	-6.5501	-60.280708	0.000384	3.839765	1.300948	0.030652
1839	9.1900e-01	-6.5036	-59.873365	0.001021	10.205692	3.457782	0.081469
1840	9.1950e-01	-6.4651	-59.449890	0.001061	10.609878	3.594724	0.084695
1841	9.2000e-01	-6.4266	-59.328897	0.000303	3.031394	1.027064	0.024199
1842	9.2050e-01	-6.3897	-59.082878	0.000616	6.163834	2.088363	0.049204
1843	9.2100e-01	-6.3463	-58.857024	0.000566	5.658601	1.917186	0.045171
1844	9.2150e-01	-6.3030	-58.707800	0.000374	3.738719	1.266712	0.029845
1845	9.2200e-01	-6.2645	-58.473880	0.000586	5.860694	1.985657	0.046784
1846	9.2250e-01	-6.2228	-58.381119	0.000232	2.324068	0.787416	0.018552
1847	9.2300e-01	-6.1875	-58.042339	0.000849	8.487902	2.875779	0.067756
1848	9.2350e-01	-6.1458	-57.626929	0.001041	10.407785	3.526253	0.083082
1849	9.2400e-01	-6.1153	-57.300248	0.000818	8.184763	2.773073	0.065336
1850	9.2450e-01	-6.0624	-57.211520	0.000222	2.223022	0.753180	0.017746
1851	9.2500e-01	-6.0239	-57.042130	0.000424	4.243951	1.437890	0.033878
1852	9.2550e-01	-5.9854	-56.618655	0.001061	10.609878	3.594724	0.084695
1853	9.2600e-01	-5.9389	-56.332305	0.000717	7.174298	2.430718	0.057270
1854	9.2650e-01	-5.9084	-56.312139	0.000051	0.505232	0.171177	0.004033
1855	9.2700e-01	-5.8571	-55.993524	0.000798	7.982670	2.704602	0.063723
1856	9.2750e-01	-5.8202	-55.775737	0.000546	5.456508	1.848715	0.043557
1857	9.2800e-01	-5.7801	-55.578115	0.000495	4.951276	1.677538	0.039524
1858	9.2850e-01	-5.7415	-55.186905	0.000980	9.801506	3.320840	0.078242
1859	9.2900e-01	-5.7047	-54.775529	0.001031	10.306738	3.492017	0.082275
1860	9.2950e-01	-5.6678	-54.763429	0.000030	0.303139	0.102706	0.002420
1861	9.3000e-01	-5.6148	-54.529510	0.000586	5.860694	1.985657	0.046784
1862	9.3050e-01	-5.5811	-54.158465	0.000930	9.296274	3.149663	0.074209
1863	9.3100e-01	-5.5474	-53.823717	0.000839	8.386856	2.841544	0.066949
1864	9.3150e-01	-5.5041	-53.755155	0.000172	1.717790	0.582003	0.013713
1865	9.3200e-01	-5.4688	-53.412341	0.000859	8.588949	2.910015	0.068563
1866	9.3250e-01	-5.4239	-53.218753	0.000485	4.850230	1.643302	0.038718
1867	9.3300e-01	-5.3870	-52.819476	0.001000	10.003599	3.389311	0.079855
1868	9.3350e-01	-5.3469	-52.694450	0.000313	3.132440	1.061299	0.025005
1869	9.3400e-01	-5.3068	-52.359703	0.000839	8.386856	2.841544	0.066949
1870	9.3450e-01	-5.2603	-52.246776	0.000283	2.829301	0.958593	0.022585
1871	9.3500e-01	-5.2266	-51.899929	0.000869	8.689995	2.944250	0.069369
1872	9.3550e-01	-5.1929	-51.565182	0.000839	8.386856	2.841544	0.066949
1873	9.3600e-01	-5.1512	-51.270766	0.000738	7.376391	2.499189	0.058883
1874	9.3650e-01	-5.1015	-51.016681	0.000637	6.365927	2.156834	0.050817
1875	9.3700e-01	-5.0614	-50.794860	0.000556	5.557555	1.882951	0.044364
1876	9.3750e-01	-5.0180	-50.625470	0.000424	4.243951	1.437890	0.033878
1877	9.3800e-01	-4.9827	-50.423815	0.000505	5.052323	1.711773	0.040331
1878	9.3850e-01	-4.9410	-49.935810	0.001223	12.226621	4.142491	0.097601
1879	9.3900e-01	-4.9041	-49.834983	0.000253	2.526161	0.855887	0.020165
1880	9.3950e-01	-4.8592	-49.548633	0.000717	7.174298	2.430718	0.057270
1881	9.4000e-01	-4.8303	-49.266316	0.000707	7.073252	2.396483	0.056463
1882	9.4050e-01	-4.7838	-49.205819	0.000152	1.515697	0.513532	0.012099
1883	9.4100e-01	-4.7389	-48.721848	0.001213	12.125574	4.108256	0.096794
1884	9.4150e-01	-4.7052	-48.508093	0.000536	5.355462	1.814480	0.042751
1885	9.4200e-01	-4.6651	-48.504060	0.000010	0.101046	0.034235	0.000807
1886	9.4250e-01	-4.6186	-47.931360	0.001435	14.348596	4.861436	0.114540
1887	9.4300e-01	-4.5849	-47.624845	0.000768	7.679530	2.601895	0.061303
1888	9.4350e-01	-4.5448	-47.358660	0.000667	6.669066	2.259541	0.053237
1889	9.4400e-01	-4.5031	-46.995681	0.000909	9.094181	3.081192	0.072596
1890	9.4450e-01	-4.4710	-46.991648	0.000010	0.101046	0.034235	0.000807
1891	9.4500e-01	-4.4213	-46.628669	0.000909	9.094181	3.081192	0.072596
1892	9.4550e-01	-4.3780	-46.253591	0.000940	9.397320	3.183898	0.075016
1893	9.4600e-01	-4.3443	-46.051936	0.000505	5.052323	1.711773	0.040331
1894	9.4650e-01	-4.3074	-46.035804	0.000040	0.404186	0.136942	0.003226
1895	9.4700e-01	-4.2657	-45.563931	0.001182	11.822435	4.005549	0.094375
1896	9.4750e-01	-4.2143	-45.261449	0.000758	7.578484	2.567660	0.060496
1897	9.4800e-01	-4.1806	-45.019463	0.000606	6.062787	2.054128	0.048397
1898	9.4850e-01	-4.1469	-44.817808	0.000505	5.052323	1.711773	0.040331
1899	9.4900e-01	-4.1116	-44.414498	0.001010	10.104645	3.423547	0.080662
1900	9.4950e-01	-4.0619	-44.305605	0.000273	2.728254	0.924358	0.021779
1901	9.5000e-01	-4.0234	-43.970858	0.000839	8.386856	2.841544	0.066949
1902	9.5050e-01	-3.9849	-43.809534	0.000404	4.041858	1.369419	0.032265
1903	9.5100e-01	-3.9480	-43.503018	0.000768	7.679530	2.601895	0.061303
1904	9.5150e-01	-3.9047	-43.079543	0.001061	10.609878	3.594724	0.084695
1905	9.5200e-01	-3.8598	-42.962583	0.000293	2.930347	0.992828	0.023392
1906	9.5250e-01	-3.8277	-42.627836	0.000839	8.386856	2.841544	0.066949
1907	9.5300e-01	-3.7876	-42.418115	0.000525	5.254416	1.780244	0.041944
1908	9.5350e-01	-3.7491	-42.151930	0.000667	6.669066	2.259541	0.053237
1909	9.5400e-01	-3.7074	-41.667958	0.001213	12.125574	4.108256	0.096794
1910	9.5450e-01	-3.6689	-41.619561	0.000121	1.212557	0.410826	0.009679
1911	9.5500e-01	-3.6256	-41.268681	0.000879	8.791041	2.978485	0.070176
1912	9.5550e-01	-3.5983	-40.950067	0.000798	7.982670	2.704602	0.063723
1913	9.5600e-01	-3.5454	-40.679849	0.000677	6.770112	2.293776	0.054044
1914	9.5650e-01	-3.5069	-40.587088	0.000232	2.324068	0.787416	0.018552
1915	9.5700e-01	-3.4635	-40.341069	0.000616	6.163834	2.088363	0.049204
1916	9.5750e-01	-3.4315	-39.982123	0.000899	8.993134	3.046956	0.071789
1917	9.5800e-01	-3.3833	-39.707872	0.000687	6.871159	2.328012	0.054850
1918	9.5850e-01	-3.3432	-39.510250	0.000495	4.951276	1.677538	0.039524
1919	9.5900e-01	-3.3015	-39.356993	0.000384	3.839765	1.300948	0.030652
1920	9.5950e-01	-3.2678	-38.933517	0.001061	10.609878	3.594724	0.084695
1921	9.6000e-01	-3.2213	-38.385016	0.001374	13.742318	4.656023	0.109700
1922	9.6050e-01	-3.1780	-38.219659	0.000414	4.142905	1.403654	0.033071
1923	9.6100e-01	-3.1491	-37.973640	0.000616	6.163834	2.088363	0.049204
1924	9.6150e-01	-3.1026	-37.638893	0.000839	8.386856	2.841544	0.066949
1925	9.6200e-01	-3.0577	-37.525966	0.000283	2.829301	0.958593	0.022585
1926	9.6250e-01	-3.0304	-37.296079	0.000576	5.759648	1.951422	0.045977
1927	9.6300e-01	-2.9855	-36.900836	0.000990	9.902552	3.355076	0.079049
1928	9.6350e-01	-2.9470	-36.662883	0.000596	5.961741	2.019892	0.047591
1929	9.6400e-01	-2.8988	-36.364434	0.000748	7.477438	2.533424	0.059690
1930	9.6450e-01	-2.8652	-36.279738	0.000212	2.121976	0.718945	0.016939
1931	9.6500e-01	-2.8234	-36.005488	0.000687	6.871159	2.328012	0.054850
1932	9.6550e-01	-2.7833	-35.670741	0.000839	8.386856	2.841544	0.066949
1933	9.6600e-01	-2.7464	-35.287596	0.000960	9.599413	3.252369	0.076629
1934	9.6650e-01	-2.6983	-35.231133	0.000141	1.414650	0.479297	0.011293
1935	9.6700e-01	-2.6630	-35.065776	0.000414	4.142905	1.403654	0.033071
1936	9.6750e-01	-2.6213	-34.380149	0.001718	17.177897	5.820029	0.137125
1937	9.6800e-01	-2.5940	-34.065567	0.000788	7.881623	2.670366	0.062916
1938	9.6850e-01	-2.5475	-33.799383	0.000667	6.669066	2.259541	0.053237
1939	9.6900e-01	-2.5058	-33.734853	0.000162	1.616743	0.547767	0.012906
1940	9.6950e-01	-2.4673	-33.420272	0.000788	7.881623	2.670366	0.062916
1941	9.7000e-01	-2.4288	-32.960498	0.001152	11.519296	3.902843	0.091955
1942	9.7050e-01	-2.3871	-32.706413	0.000637	6.365927	2.156834	0.050817
1943	9.7100e-01	-2.3454	-32.311169	0.000990	9.902552	3.355076	0.079049
1944	9.7150e-01	-2.3053	-32.024819	0.000717	7.174298	2.430718	0.057270
1945	9.7200e-01	-2.2716	-31.819131	0.000515	5.153369	1.746009	0.041138
1946	9.7250e-01	-2.2219	-31.690072	0.000323	3.233487	1.095535	0.025812
1947	9.7300e-01	-2.1818	-31.496484	0.000485	4.850230	1.643302	0.038718
1948	9.7350e-01	-2.1417	-31.383557	0.000283	2.829301	0.958593	0.022585
1949	9.7400e-01	-2.1128	-31.032677	0.000879	8.791041	2.978485	0.070176
1950	9.7450e-01	-2.0614	-30.609202	0.001061	10.609878	3.594724	0.084695
1951	9.7500e-01	-2.0181	-30.113131	0.001243	12.428714	4.210962	0.099214
1952	9.7550e-01	-1.9941	-29.980038	0.000333	3.334533	1.129770	0.026618
1953	9.7600e-01	-1.9395	-29.721920	0.000647	6.466973	2.191070	0.051624
1954	9.7650e-01	-1.9090	-29.500100	0.000556	5.557555	1.882951	0.044364
1955	9.7700e-01	-1.8561	-29.108889	0.000980	9.801506	3.320840	0.078242
1956	9.7750e-01	-1.8272	-28.737844	0.000930	9.296274	3.149663	0.074209
1957	9.7800e-01	-1.7919	-28.451494	0.000717	7.174298	2.430718	0.057270
1958	9.7850e-01	-1.7502	-28.116747	0.000839	8.386856	2.841544	0.066949
1959	9.7900e-01	-1.7037	-27.842496	0.000687	6.871159	2.328012	0.054850
1960	9.7950e-01	-1.6684	-27.669073	0.000434	4.344998	1.472125	0.034685
1961	9.8000e-01	-1.6251	-27.257697	0.001031	10.306738	3.492017	0.082275
1962	9.8050e-01	-1.5898	-27.080241	0.000445	4.446044	1.506360	0.035491
1963	9.8100e-01	-1.5609	-26.862453	0.000546	5.456508	1.848715	0.043557
1964	9.8150e-01	-1.4984	-26.568037	0.000738	7.376391	2.499189	0.058883
1965	9.8200e-01	-1.4631	-26.285720	0.000707	7.073252	2.396483	0.056463
1966	9.8250e-01	-1.4278	-26.063900	0.000556	5.557555	1.882951	0.044364
1967	9.8300e-01	-1.3828	-25.704954	0.000899	8.993134	3.046956	0.071789
1968	9.8350e-01	-1.3524	-25.309710	0.000990	9.902552	3.355076	0.079049
1969	9.8400e-01	-1.3107	-25.172585	0.000344	3.435579	1.164006	0.027425
1970	9.8450e-01	-1.2673	-24.934632	0.000596	5.961741	2.019892	0.047591
1971	9.8500e-01	-1.2096	-24.696679	0.000596	5.961741	2.019892	0.047591
1972	9.8550e-01	-1.1839	-24.265138	0.001081	10.811971	3.663195	0.086308
1973	9.8600e-01	-1.1486	-24.156244	0.000273	2.728254	0.924358	0.021779
1974	9.8650e-01	-1.0973	-23.797298	0.000899	8.993134	3.046956	0.071789
1975	9.8700e-01	-1.0652	-23.599676	0.000495	4.951276	1.677538	0.039524
1976	9.8750e-01	-1.0203	-23.188300	0.001031	10.306738	3.492017	0.082275
1977	9.8800e-01	-0.9882	-22.998745	0.000475	4.749183	1.609067	0.037911
1978	9.8850e-01	-0.9401	-22.756759	0.000606	6.062787	2.054128	0.048397
1979	9.8900e-01	-0.9064	-22.216324	0.001354	13.540225	4.587552	0.108087
1980	9.8950e-01	-0.8583	-21.970305	0.000616	6.163834	2.088363	0.049204
1981	9.9000e-01	-0.8310	-21.566995	0.001010	10.104645	3.423547	0.080662
1982	9.9050e-01	-0.7797	-21.397605	0.000424	4.243951	1.437890	0.033878
1983	9.9100e-01	-0.7460	-21.091089	0.000768	7.679530	2.601895	0.061303
1984	9.9150e-01	-0.6962	-20.816838	0.000687	6.871159	2.328012	0.054850
1985	9.9200e-01	-0.6658	-20.558720	0.000647	6.466973	2.191070	0.051624
1986	9.9250e-01	-0.6240	-20.203807	0.000889	8.892088	3.012721	0.070983
1987	9.9300e-01	-0.5888	-19.925524	0.000697	6.972205	2.362247	0.055657
1988	9.9350e-01	-0.5310	-19.691604	0.000586	5.860694	1.985657	0.046784
1989	9.9400e-01	-0.5021	-19.598843	0.000232	2.324068	0.787416	0.018552
1990	9.9450e-01	-0.4765	-18.997911	0.001506	15.055922	5.101084	0.120186
1991	9.9500e-01	-0.4187	-18.792223	0.000515	5.153369	1.746009	0.041138
1992	9.9550e-01	-0.3770	-18.324383	0.001172	11.721389	3.971314	0.093568
1993	9.9600e-01	-0.3593	-18.159026	0.000414	4.142905	1.403654	0.033071
1994	9.9650e-01	-0.3112	-17.860577	0.000748	7.477438	2.533424	0.059690
1995	9.9700e-01	-0.2583	-17.662955	0.000495	4.951276	1.677538	0.039524
1996	9.9750e-01	-0.2262	-17.263679	0.001000	10.003599	3.389311	0.079855
1997	9.9800e-01	-0.1813	-17.090255	0.000434	4.344998	1.472125	0.034685
1998	9.9850e-01	-0.1556	-16.945064	0.000364	3.637672	1.232477	0.029038
1999	9.9900e-01	-0.1107	-16.690979	0.000637	6.365927	2.156834	0.050817
2000	9.9950e-01	-0.0642	-16.356231	0.000839	8.386856	2.841544	0.066949
2001	1.0000e+00	-0.0209	-15.884359	0.000839	8.386856	2.841544	0.094375

PMax (uC/cm2):	1.39e+02
Pr (uC/cm2):	8.08e+00
-Pr (uC/cm2):	-3.64e+00
PLoss (uC/cm2):	-3.60e+00
-Vc:	-1.10e+00
C (Max-Eff) (nF):	6.94e-01
K (Eff):	2.35e+03
Vert. (+/-Pr) Shift (uC/cm2):	2.22e+00
Offset (uC/cm2):	1.22e+01

A (Loop Area - uC/cm2·Volts):	-1.99e-02



Hysteresis Version: 5.48.1 - Radiant Technologies, Inc., 1999 - 9/12/24

