»»»»»»»»»»»»»»»»»»»»»»»»»»»»»»»»»»»» Hysteresis ««««««««««««««««««««««««««««««««««««
»»»  Executed Version:	5.48.1
»»»  Vision Version:	5.48.4 (R)
»»»  Vision Compiled:	9/18/24
»»»  Driver Version:	5.47.0
»»»  Windows Version:	Windows 8 or 8.1
»»»  Processor Information:	x86 (AMD or Intel) - 32 Processors
»»»  Tester Name:	PMF21124-494 (100V)
»»»  Tester S/N:	PMF21124-494
»»»  Internal Amp Type:	100V RevK 270k
»»»  Internal Amp S/N:	iAB2-596/K     
»»»  Execution Count:	1
»»»»»»»»»»»»»»»»»»»»»»»»»»»»»»»»»»»»»»»»»»««««««««««««««««««««««««««««««««««««««««««

Stored:	6/18/2025 - 13:4:58
Configured:	06/18/25 09:47:30 AM
Executed:	06/18/25 01:04:19 PM

»»»»»»»»»»»»»»»»»»»»»»»»»»»»»»»»»»» Sample Info ««««««««««««««««««««««««««««««««««««
Sample Name:	
Lot Name:	
Wafer Name:	
Die Row/Column:	0/0
Capacitor Number:	0
Sample Area (cm2):	1.00e-04
Sample Thickness (microns):	3.00e-01

Amplifier:	Internal

»»»»»»»»»»»»»»»»»»»»»»»»»»»»»»»»»»» Tester Info «««««««««««««««««««««««««««««««««««
Tester Name:	PMF21124-494 (100V)
Tester Serial Number:	PMF21124-494
Return Signal Amp. Level:	0.19 [Index: 3]

»»»»»»»»»»»»»»»»»»»»»»»»»»»»»»»» Hysteresis Info ««««««««««««««««««««««««««««««««««
Task Name:	Hyst-554
Volts:	20.00
Field:	666.67 (kV/cm)
DCBias:	0.00
DCField:	0.00 (kV/cm)
Hysteresis Period (ms):	2.00e+02
Preset:	Enabled
Preset Delay (ms):	1.00e+03
Profile:	Standard Bipolar

»»»»»»»»»»»»»»»»»»»»»»»»»»»»»»»»»»»»»» Data «««««««««««««««««««««««««««««««««««««««
Points:	2009

Valid Data

Point	Time (ms)	Drive Voltage	Measured Polarization (uC/cm2)	Capacitance (uF)	Normalized Capacitance (uF/cm2)	Dielectric Constant	Instantaneous Current (mA)
   1	0.0000e+00	0.0032	-107.623983	0.000557	5.574280	1.888617	0.000223
   2	9.9500e-02	0.0385	-107.401941	0.000557	5.574280	1.888617	0.000223
   3	1.9900e-01	0.0802	-107.151638	0.000628	6.283734	2.128987	0.000252
   4	2.9850e-01	0.1107	-106.893262	0.000649	6.486435	2.197664	0.000260
   5	3.9800e-01	0.1540	-106.602588	0.000730	7.297240	2.472372	0.000292
   6	4.9750e-01	0.1909	-106.360360	0.000608	6.081033	2.060310	0.000243
   7	5.9700e-01	0.2278	-106.029314	0.000831	8.310745	2.815757	0.000333
   8	6.9650e-01	0.2856	-105.746715	0.000709	7.094538	2.403695	0.000284
   9	7.9600e-01	0.3080	-105.512561	0.000588	5.878332	1.991633	0.000235
  10	8.9550e-01	0.3513	-105.177479	0.000841	8.412096	2.850095	0.000337
  11	9.9500e-01	0.3754	-104.955436	0.000557	5.574280	1.888617	0.000223
  12	1.0945e+00	0.4380	-104.664763	0.000730	7.297240	2.472372	0.000292
  13	1.1940e+00	0.4716	-104.366015	0.000750	7.499941	2.541049	0.000300
  14	1.2935e+00	0.5134	-104.115712	0.000628	6.283734	2.128987	0.000252
  15	1.3930e+00	0.5567	-103.865410	0.000628	6.283734	2.128987	0.000252
  16	1.4925e+00	0.5952	-103.522253	0.000861	8.614797	2.918772	0.000345
  17	1.5920e+00	0.6240	-103.275988	0.000618	6.182384	2.094648	0.000248
  18	1.6915e+00	0.6674	-102.965128	0.000780	7.803992	2.644064	0.000312
  19	1.7910e+00	0.7075	-102.698677	0.000669	6.689136	2.266341	0.000268
  20	1.8905e+00	0.7444	-102.371669	0.000821	8.209395	2.781418	0.000329
  21	1.9900e+00	0.7989	-102.125404	0.000618	6.182384	2.094648	0.000248
  22	2.0895e+00	0.8342	-101.826656	0.000750	7.499941	2.541049	0.000300
  23	2.1890e+00	0.8695	-101.535982	0.000730	7.297240	2.472372	0.000292
  24	2.2885e+00	0.9096	-101.261457	0.000689	6.891837	2.335018	0.000276
  25	2.3880e+00	0.9465	-101.003080	0.000649	6.486435	2.197664	0.000260
  26	2.4875e+00	0.9882	-100.708370	0.000740	7.398590	2.506710	0.000296
  27	2.5870e+00	1.0203	-100.417696	0.000730	7.297240	2.472372	0.000292
  28	2.6865e+00	1.0716	-100.139133	0.000699	6.993188	2.369356	0.000280
  29	2.7860e+00	1.1053	-99.836348	0.000760	7.601291	2.575387	0.000304
  30	2.8855e+00	1.1518	-99.529526	0.000770	7.702642	2.609726	0.000308
  31	2.9850e+00	1.1839	-99.250964	0.000699	6.993188	2.369356	0.000280
  32	3.0845e+00	1.2288	-98.956253	0.000740	7.398590	2.506710	0.000296
  33	3.1840e+00	1.2657	-98.693839	0.000659	6.587786	2.232002	0.000264
  34	3.2835e+00	1.3091	-98.370868	0.000811	8.108044	2.747080	0.000325
  35	3.3830e+00	1.3427	-98.116528	0.000639	6.385085	2.163325	0.000256
  36	3.4825e+00	1.3861	-97.833929	0.000709	7.094538	2.403695	0.000284
  37	3.5820e+00	1.4278	-97.519032	0.000791	7.905343	2.678403	0.000316
  38	3.6815e+00	1.4775	-97.224321	0.000740	7.398590	2.506710	0.000296
  39	3.7810e+00	1.5048	-96.925573	0.000750	7.499941	2.541049	0.000300
  40	3.8805e+00	1.5465	-96.610677	0.000791	7.905343	2.678403	0.000316
  41	3.9800e+00	1.5866	-96.348263	0.000659	6.587786	2.232002	0.000264
  42	4.0795e+00	1.6267	-96.073738	0.000689	6.891837	2.335018	0.000276
  43	4.1790e+00	1.6796	-95.754804	0.000801	8.006693	2.712741	0.000321
  44	4.2785e+00	1.7053	-95.468167	0.000720	7.195889	2.438033	0.000288
  45	4.3780e+00	1.7502	-95.161345	0.000770	7.702642	2.609726	0.000308
  46	4.4775e+00	1.7871	-94.870671	0.000730	7.297240	2.472372	0.000292
  47	4.5770e+00	1.8208	-94.612295	0.000649	6.486435	2.197664	0.000260
  48	4.6765e+00	1.8641	-94.277212	0.000841	8.412096	2.850095	0.000337
  49	4.7760e+00	1.9090	-93.962316	0.000791	7.905343	2.678403	0.000316
  50	4.8755e+00	1.9395	-93.699902	0.000659	6.587786	2.232002	0.000264
  51	4.9750e+00	1.9876	-93.380968	0.000801	8.006693	2.712741	0.000321
  52	5.0745e+00	2.0278	-93.102406	0.000699	6.993188	2.369356	0.000280
  53	5.1740e+00	2.0630	-92.827881	0.000689	6.891837	2.335018	0.000276
  54	5.2735e+00	2.1064	-92.533170	0.000740	7.398590	2.506710	0.000296
  55	5.3730e+00	2.1417	-92.181939	0.000882	8.817498	2.987449	0.000353
  56	5.4725e+00	2.1834	-91.863005	0.000801	8.006693	2.712741	0.000321
  57	5.5720e+00	2.2363	-91.588480	0.000689	6.891837	2.335018	0.000276
  58	5.6715e+00	2.2668	-91.273583	0.000791	7.905343	2.678403	0.000316
  59	5.7710e+00	2.3101	-90.995021	0.000699	6.993188	2.369356	0.000280
  60	5.8705e+00	2.3422	-90.688199	0.000770	7.702642	2.609726	0.000308
  61	5.9700e+00	2.3823	-90.417711	0.000679	6.790487	2.300679	0.000272
  62	6.0695e+00	2.4192	-90.094740	0.000811	8.108044	2.747080	0.000325
  63	6.1690e+00	2.4593	-89.804066	0.000730	7.297240	2.472372	0.000292
  64	6.2685e+00	2.5058	-89.464947	0.000851	8.513446	2.884434	0.000341
  65	6.3680e+00	2.5411	-89.218681	0.000618	6.182384	2.094648	0.000248
  66	6.4675e+00	2.5748	-88.911859	0.000770	7.702642	2.609726	0.000308
  67	6.5670e+00	2.6229	-88.592925	0.000801	8.006693	2.712741	0.000321
  68	6.6665e+00	2.6566	-88.265917	0.000821	8.209395	2.781418	0.000329
  69	6.7660e+00	2.6967	-88.003503	0.000659	6.587786	2.232002	0.000264
  70	6.8655e+00	2.7368	-87.692644	0.000780	7.803992	2.644064	0.000312
  71	6.9650e+00	2.7833	-87.410044	0.000709	7.094538	2.403695	0.000284
  72	7.0645e+00	2.8267	-87.127445	0.000709	7.094538	2.403695	0.000284
  73	7.1640e+00	2.8636	-86.764103	0.000912	9.121549	3.090465	0.000365
  74	7.2635e+00	2.8924	-86.457280	0.000770	7.702642	2.609726	0.000308
  75	7.3630e+00	2.9406	-86.174681	0.000709	7.094538	2.403695	0.000284
  76	7.4625e+00	2.9742	-85.867859	0.000770	7.702642	2.609726	0.000308
  77	7.5620e+00	3.0208	-85.569111	0.000750	7.499941	2.541049	0.000300
  78	7.6615e+00	3.0561	-85.278437	0.000730	7.297240	2.472372	0.000292
  79	7.7610e+00	3.1010	-84.967577	0.000780	7.803992	2.644064	0.000312
  80	7.8605e+00	3.1427	-84.600198	0.000922	9.222900	3.124803	0.000369
  81	7.9600e+00	3.1716	-84.357970	0.000608	6.081033	2.060310	0.000243
  82	8.0595e+00	3.2245	-84.043073	0.000791	7.905343	2.678403	0.000316
  83	8.1590e+00	3.2630	-83.712028	0.000831	8.310745	2.815757	0.000333
  84	8.2585e+00	3.3015	-83.465763	0.000618	6.182384	2.094648	0.000248
  85	8.3580e+00	3.3368	-83.167015	0.000750	7.499941	2.541049	0.000300
  86	8.4575e+00	3.3769	-82.815784	0.000882	8.817498	2.987449	0.000353
  87	8.5570e+00	3.4186	-82.508962	0.000770	7.702642	2.609726	0.000308
  88	8.6565e+00	3.4716	-82.194065	0.000791	7.905343	2.678403	0.000316
  89	8.7560e+00	3.4988	-81.903391	0.000730	7.297240	2.472372	0.000292
  90	8.8555e+00	3.5454	-81.588495	0.000791	7.905343	2.678403	0.000316
  91	8.9550e+00	3.5806	-81.301858	0.000720	7.195889	2.438033	0.000288
  92	9.0545e+00	3.6159	-80.970813	0.000831	8.310745	2.815757	0.000333
  93	9.1540e+00	3.6560	-80.696288	0.000689	6.891837	2.335018	0.000276
  94	9.2535e+00	3.6897	-80.349094	0.000872	8.716147	2.953111	0.000349
  95	9.3530e+00	3.7379	-80.086680	0.000659	6.587786	2.232002	0.000264
  96	9.4525e+00	3.7796	-79.796006	0.000730	7.297240	2.472372	0.000292
  97	9.5520e+00	3.8197	-79.428627	0.000922	9.222900	3.124803	0.000369
  98	9.6515e+00	3.8582	-79.137953	0.000730	7.297240	2.472372	0.000292
  99	9.7510e+00	3.9015	-78.831131	0.000770	7.702642	2.609726	0.000308
 100	9.8505e+00	3.9464	-78.556606	0.000689	6.891837	2.335018	0.000276
 101	9.9500e+00	3.9769	-78.209412	0.000872	8.716147	2.953111	0.000349
 102	1.0050e+01	4.0250	-77.930850	0.000699	6.993188	2.369356	0.000280
 103	1.0149e+01	4.0539	-77.595767	0.000841	8.412096	2.850095	0.000337
 104	1.0248e+01	4.1020	-77.280871	0.000791	7.905343	2.678403	0.000316
 105	1.0348e+01	4.1405	-76.982123	0.000750	7.499941	2.541049	0.000300
 106	1.0447e+01	4.1774	-76.671263	0.000780	7.803992	2.644064	0.000312
 107	1.0547e+01	4.2111	-76.320033	0.000882	8.817498	2.987449	0.000353
 108	1.0646e+01	4.2592	-76.081842	0.000598	5.979682	2.025971	0.000239
 109	1.0746e+01	4.3009	-75.722536	0.000902	9.020199	3.056126	0.000361
 110	1.0845e+01	4.3378	-75.431863	0.000730	7.297240	2.472372	0.000292
 111	1.0945e+01	4.3683	-75.125040	0.000770	7.702642	2.609726	0.000308
 112	1.1044e+01	4.4116	-74.814181	0.000780	7.803992	2.644064	0.000312
 113	1.1144e+01	4.4469	-74.503321	0.000780	7.803992	2.644064	0.000312
 114	1.1243e+01	4.4983	-74.172276	0.000831	8.310745	2.815757	0.000333
 115	1.1343e+01	4.5400	-73.877565	0.000740	7.398590	2.506710	0.000296
 116	1.1443e+01	4.5833	-73.582855	0.000740	7.398590	2.506710	0.000296
 117	1.1542e+01	4.6122	-73.251809	0.000831	8.310745	2.815757	0.000333
 118	1.1642e+01	4.6539	-72.985358	0.000669	6.689136	2.266341	0.000268
 119	1.1741e+01	4.6956	-72.642202	0.000861	8.614797	2.918772	0.000345
 120	1.1841e+01	4.7325	-72.339417	0.000760	7.601291	2.575387	0.000304
 121	1.1940e+01	4.7742	-72.040669	0.000750	7.499941	2.541049	0.000300
 122	1.2040e+01	4.8111	-71.697512	0.000861	8.614797	2.918772	0.000345
 123	1.2139e+01	4.8416	-71.374541	0.000811	8.108044	2.747080	0.000325
 124	1.2239e+01	4.8977	-71.120202	0.000639	6.385085	2.163325	0.000256
 125	1.2338e+01	4.9282	-70.833565	0.000720	7.195889	2.438033	0.000288
 126	1.2438e+01	4.9844	-70.518669	0.000791	7.905343	2.678403	0.000316
 127	1.2537e+01	5.0068	-70.183586	0.000841	8.412096	2.850095	0.000337
 128	1.2636e+01	5.0549	-69.872727	0.000780	7.803992	2.644064	0.000312
 129	1.2736e+01	5.0886	-69.610313	0.000659	6.587786	2.232002	0.000264
 130	1.2835e+01	5.1351	-69.267156	0.000861	8.614797	2.918772	0.000345
 131	1.2935e+01	5.1753	-68.976483	0.000730	7.297240	2.472372	0.000292
 132	1.3034e+01	5.2170	-68.665623	0.000780	7.803992	2.644064	0.000312
 133	1.3134e+01	5.2555	-68.374949	0.000730	7.297240	2.472372	0.000292
 134	1.3233e+01	5.2843	-68.068127	0.000770	7.702642	2.609726	0.000308
 135	1.3333e+01	5.3325	-67.745156	0.000811	8.108044	2.747080	0.000325
 136	1.3432e+01	5.3774	-67.482742	0.000659	6.587786	2.232002	0.000264
 137	1.3532e+01	5.4207	-67.131512	0.000882	8.817498	2.987449	0.000353
 138	1.3632e+01	5.4448	-66.832764	0.000750	7.499941	2.541049	0.000300
 139	1.3731e+01	5.4945	-66.534016	0.000750	7.499941	2.541049	0.000300
 140	1.3831e+01	5.5346	-66.231230	0.000760	7.601291	2.575387	0.000304
 141	1.3930e+01	5.5603	-65.936519	0.000740	7.398590	2.506710	0.000296
 142	1.4030e+01	5.6084	-65.617586	0.000801	8.006693	2.712741	0.000321
 143	1.4129e+01	5.6501	-65.310763	0.000770	7.702642	2.609726	0.000308
 144	1.4229e+01	5.6918	-65.003941	0.000770	7.702642	2.609726	0.000308
 145	1.4328e+01	5.7367	-64.660785	0.000861	8.614797	2.918772	0.000345
 146	1.4428e+01	5.7784	-64.362037	0.000750	7.499941	2.541049	0.000300
 147	1.4527e+01	5.8121	-64.022917	0.000851	8.513446	2.884434	0.000341
 148	1.4627e+01	5.8490	-63.792800	0.000578	5.776981	1.957294	0.000231
 149	1.4726e+01	5.8875	-63.490015	0.000760	7.601291	2.575387	0.000304
 150	1.4825e+01	5.9308	-63.171081	0.000801	8.006693	2.712741	0.000321
 151	1.4925e+01	5.9726	-62.860222	0.000780	7.803992	2.644064	0.000312
 152	1.5024e+01	6.0143	-62.593771	0.000669	6.689136	2.266341	0.000268
 153	1.5124e+01	6.0480	-62.234466	0.000902	9.020199	3.056126	0.000361
 154	1.5223e+01	6.0865	-61.972052	0.000659	6.587786	2.232002	0.000264
 155	1.5323e+01	6.1234	-61.665230	0.000770	7.702642	2.609726	0.000308
 156	1.5422e+01	6.1795	-61.362445	0.000760	7.601291	2.575387	0.000304
 157	1.5522e+01	6.2116	-61.055622	0.000770	7.702642	2.609726	0.000308
 158	1.5621e+01	6.2549	-60.760911	0.000740	7.398590	2.506710	0.000296
 159	1.5721e+01	6.2934	-60.421792	0.000851	8.513446	2.884434	0.000341
 160	1.5820e+01	6.3303	-60.131118	0.000730	7.297240	2.472372	0.000292
 161	1.5920e+01	6.3736	-59.828333	0.000760	7.601291	2.575387	0.000304
 162	1.6020e+01	6.3961	-59.521511	0.000770	7.702642	2.609726	0.000308
 163	1.6119e+01	6.4490	-59.198540	0.000811	8.108044	2.747080	0.000325
 164	1.6218e+01	6.4939	-58.919978	0.000699	6.993188	2.369356	0.000280
 165	1.6318e+01	6.5196	-58.657564	0.000659	6.587786	2.232002	0.000264
 166	1.6418e+01	6.5581	-58.326519	0.000831	8.310745	2.815757	0.000333
 167	1.6517e+01	6.6078	-58.003548	0.000811	8.108044	2.747080	0.000325
 168	1.6616e+01	6.6447	-57.720948	0.000709	7.094538	2.403695	0.000284
 169	1.6716e+01	6.6848	-57.422200	0.000750	7.499941	2.541049	0.000300
 170	1.6816e+01	6.7314	-57.111341	0.000780	7.803992	2.644064	0.000312
 171	1.6915e+01	6.7586	-56.857001	0.000639	6.385085	2.163325	0.000256
 172	1.7015e+01	6.8148	-56.513845	0.000861	8.614797	2.918772	0.000345
 173	1.7114e+01	6.8260	-56.247394	0.000669	6.689136	2.266341	0.000268
 174	1.7213e+01	6.8822	-55.932497	0.000791	7.905343	2.678403	0.000316
 175	1.7313e+01	6.9191	-55.625675	0.000770	7.702642	2.609726	0.000308
 176	1.7413e+01	6.9704	-55.322890	0.000760	7.601291	2.575387	0.000304
 177	1.7512e+01	7.0057	-55.016067	0.000770	7.702642	2.609726	0.000308
 178	1.7611e+01	7.0458	-54.725393	0.000730	7.297240	2.472372	0.000292
 179	1.7711e+01	7.0827	-54.450868	0.000689	6.891837	2.335018	0.000276
 180	1.7811e+01	7.1196	-54.099637	0.000882	8.817498	2.987449	0.000353
 181	1.7910e+01	7.1677	-53.841261	0.000649	6.486435	2.197664	0.000260
 182	1.8009e+01	7.2014	-53.530401	0.000780	7.803992	2.644064	0.000312
 183	1.8109e+01	7.2399	-53.227616	0.000760	7.601291	2.575387	0.000304
 184	1.8209e+01	7.2880	-52.896571	0.000831	8.310745	2.815757	0.000333
 185	1.8308e+01	7.3281	-52.642231	0.000639	6.385085	2.163325	0.000256
 186	1.8407e+01	7.3554	-52.311186	0.000831	8.310745	2.815757	0.000333
 187	1.8507e+01	7.4003	-52.040698	0.000679	6.790487	2.300679	0.000272
 188	1.8607e+01	7.4420	-51.737913	0.000760	7.601291	2.575387	0.000304
 189	1.8706e+01	7.4805	-51.431091	0.000770	7.702642	2.609726	0.000308
 190	1.8805e+01	7.5190	-51.132343	0.000750	7.499941	2.541049	0.000300
 191	1.8905e+01	7.5656	-50.825520	0.000770	7.702642	2.609726	0.000308
 192	1.9005e+01	7.6041	-50.571181	0.000639	6.385085	2.163325	0.000256
 193	1.9104e+01	7.6474	-50.236099	0.000841	8.412096	2.850095	0.000337
 194	1.9203e+01	7.6795	-49.945425	0.000730	7.297240	2.472372	0.000292
 195	1.9303e+01	7.7308	-49.650714	0.000740	7.398590	2.506710	0.000296
 196	1.9402e+01	7.7645	-49.335817	0.000791	7.905343	2.678403	0.000316
 197	1.9502e+01	7.8014	-49.061292	0.000689	6.891837	2.335018	0.000276
 198	1.9602e+01	7.8335	-48.750433	0.000780	7.803992	2.644064	0.000312
 199	1.9701e+01	7.8832	-48.435536	0.000791	7.905343	2.678403	0.000316
 200	1.9800e+01	7.9185	-48.161011	0.000689	6.891837	2.335018	0.000276
 201	1.9900e+01	7.9634	-47.846114	0.000791	7.905343	2.678403	0.000316
 202	2.0000e+01	8.0051	-47.583700	0.000659	6.587786	2.232002	0.000264
 203	2.0099e+01	8.0420	-47.252655	0.000831	8.310745	2.815757	0.000333
 204	2.0198e+01	8.0789	-46.998316	0.000639	6.385085	2.163325	0.000256
 205	2.0298e+01	8.1190	-46.663233	0.000841	8.412096	2.850095	0.000337
 206	2.0398e+01	8.1607	-46.400820	0.000659	6.587786	2.232002	0.000264
 207	2.0497e+01	8.1992	-46.073812	0.000821	8.209395	2.781418	0.000329
 208	2.0596e+01	8.2458	-45.819472	0.000639	6.385085	2.163325	0.000256
 209	2.0696e+01	8.2698	-45.476316	0.000861	8.614797	2.918772	0.000345
 210	2.0796e+01	8.3179	-45.205827	0.000679	6.790487	2.300679	0.000272
 211	2.0895e+01	8.3581	-44.911117	0.000740	7.398590	2.506710	0.000296
 212	2.0994e+01	8.4014	-44.576034	0.000841	8.412096	2.850095	0.000337
 213	2.1094e+01	8.4367	-44.281323	0.000740	7.398590	2.506710	0.000296
 214	2.1194e+01	8.4784	-44.002761	0.000699	6.993188	2.369356	0.000280
 215	2.1293e+01	8.5185	-43.667679	0.000841	8.412096	2.850095	0.000337
 216	2.1392e+01	8.5618	-43.401228	0.000669	6.689136	2.266341	0.000268
 217	2.1492e+01	8.6019	-43.082294	0.000801	8.006693	2.712741	0.000321
 218	2.1591e+01	8.6324	-42.819880	0.000659	6.587786	2.232002	0.000264
 219	2.1691e+01	8.6741	-42.517095	0.000760	7.601291	2.575387	0.000304
 220	2.1791e+01	8.7286	-42.222384	0.000740	7.398590	2.506710	0.000296
 221	2.1890e+01	8.7495	-41.915562	0.000770	7.702642	2.609726	0.000308
 222	2.1989e+01	8.7944	-41.620851	0.000740	7.398590	2.506710	0.000296
 223	2.2089e+01	8.8281	-41.318066	0.000760	7.601291	2.575387	0.000304
 224	2.2189e+01	8.8746	-40.982983	0.000841	8.412096	2.850095	0.000337
 225	2.2288e+01	8.9147	-40.724607	0.000649	6.486435	2.197664	0.000260
 226	2.2387e+01	8.9580	-40.429896	0.000740	7.398590	2.506710	0.000296
 227	2.2487e+01	8.9949	-40.119036	0.000780	7.803992	2.644064	0.000312
 228	2.2587e+01	9.0366	-39.824325	0.000740	7.398590	2.506710	0.000296
 229	2.2686e+01	9.0800	-39.537689	0.000720	7.195889	2.438033	0.000288
 230	2.2785e+01	9.1169	-39.267201	0.000679	6.790487	2.300679	0.000272
 231	2.2885e+01	9.1586	-38.964416	0.000760	7.601291	2.575387	0.000304
 232	2.2985e+01	9.1923	-38.661630	0.000760	7.601291	2.575387	0.000304
 233	2.3084e+01	9.2404	-38.354808	0.000770	7.702642	2.609726	0.000308
 234	2.3183e+01	9.2757	-38.056060	0.000750	7.499941	2.541049	0.000300
 235	2.3283e+01	9.3222	-37.777498	0.000699	6.993188	2.369356	0.000280
 236	2.3383e+01	9.3527	-37.462601	0.000791	7.905343	2.678403	0.000316
 237	2.3482e+01	9.3960	-37.163853	0.000750	7.499941	2.541049	0.000300
 238	2.3581e+01	9.4329	-36.897402	0.000669	6.689136	2.266341	0.000268
 239	2.3681e+01	9.4762	-36.582505	0.000791	7.905343	2.678403	0.000316
 240	2.3780e+01	9.5147	-36.320092	0.000659	6.587786	2.232002	0.000264
 241	2.3880e+01	9.5500	-35.993084	0.000821	8.209395	2.781418	0.000329
 242	2.3980e+01	9.5997	-35.694336	0.000750	7.499941	2.541049	0.000300
 243	2.4079e+01	9.6334	-35.439996	0.000639	6.385085	2.163325	0.000256
 244	2.4178e+01	9.6831	-35.129137	0.000780	7.803992	2.644064	0.000312
 245	2.4278e+01	9.7120	-34.814240	0.000791	7.905343	2.678403	0.000316
 246	2.4378e+01	9.7457	-34.535678	0.000699	6.993188	2.369356	0.000280
 247	2.4477e+01	9.7842	-34.220781	0.000791	7.905343	2.678403	0.000316
 248	2.4576e+01	9.8291	-33.950293	0.000679	6.790487	2.300679	0.000272
 249	2.4676e+01	9.8741	-33.635396	0.000791	7.905343	2.678403	0.000316
 250	2.4776e+01	9.9045	-33.364908	0.000679	6.790487	2.300679	0.000272
 251	2.4875e+01	9.9478	-33.090383	0.000689	6.891837	2.335018	0.000276
 252	2.4974e+01	9.9944	-32.771449	0.000801	8.006693	2.712741	0.000321
 253	2.5074e+01	10.0393	-32.436367	0.000841	8.412096	2.850095	0.000337
 254	2.5174e+01	10.0698	-32.186065	0.000628	6.283734	2.128987	0.000252
 255	2.5273e+01	10.1147	-31.871168	0.000791	7.905343	2.678403	0.000316
 256	2.5372e+01	10.1468	-31.576457	0.000740	7.398590	2.506710	0.000296
 257	2.5472e+01	10.1949	-31.314043	0.000659	6.587786	2.232002	0.000264
 258	2.5572e+01	10.2334	-31.007221	0.000770	7.702642	2.609726	0.000308
 259	2.5671e+01	10.2751	-30.752881	0.000639	6.385085	2.163325	0.000256
 260	2.5770e+01	10.3136	-30.417799	0.000841	8.412096	2.850095	0.000337
 261	2.5870e+01	10.3441	-30.143274	0.000689	6.891837	2.335018	0.000276
 262	2.5970e+01	10.3954	-29.852600	0.000730	7.297240	2.472372	0.000292
 263	2.6069e+01	10.4275	-29.553852	0.000750	7.499941	2.541049	0.000300
 264	2.6169e+01	10.4580	-29.259141	0.000740	7.398590	2.506710	0.000296
 265	2.6268e+01	10.5109	-28.960393	0.000750	7.499941	2.541049	0.000300
 266	2.6367e+01	10.5478	-28.645497	0.000791	7.905343	2.678403	0.000316
 267	2.6467e+01	10.5895	-28.370971	0.000689	6.891837	2.335018	0.000276
 268	2.6567e+01	10.6313	-28.056075	0.000791	7.905343	2.678403	0.000316
 269	2.6666e+01	10.6714	-27.753290	0.000760	7.601291	2.575387	0.000304
 270	2.6765e+01	10.7115	-27.502987	0.000628	6.283734	2.128987	0.000252
 271	2.6865e+01	10.7468	-27.212313	0.000730	7.297240	2.472372	0.000292
 272	2.6965e+01	10.7917	-26.949900	0.000659	6.587786	2.232002	0.000264
 273	2.7064e+01	10.8270	-26.626929	0.000811	8.108044	2.747080	0.000325
 274	2.7163e+01	10.8719	-26.332218	0.000740	7.398590	2.506710	0.000296
 275	2.7263e+01	10.9168	-26.045581	0.000720	7.195889	2.438033	0.000288
 276	2.7363e+01	10.9489	-25.722610	0.000811	8.108044	2.747080	0.000325
 277	2.7462e+01	10.9858	-25.444048	0.000699	6.993188	2.369356	0.000280
 278	2.7561e+01	11.0323	-25.137226	0.000770	7.702642	2.609726	0.000308
 279	2.7661e+01	11.0644	-24.870775	0.000669	6.689136	2.266341	0.000268
 280	2.7761e+01	11.1141	-24.567990	0.000760	7.601291	2.575387	0.000304
 281	2.7860e+01	11.1542	-24.277316	0.000730	7.297240	2.472372	0.000292
 282	2.7959e+01	11.1815	-23.966456	0.000780	7.803992	2.644064	0.000312
 283	2.8059e+01	11.2328	-23.724228	0.000608	6.081033	2.060310	0.000243
 284	2.8159e+01	11.2745	-23.389146	0.000841	8.412096	2.850095	0.000337
 285	2.8258e+01	11.3098	-23.114621	0.000689	6.891837	2.335018	0.000276
 286	2.8358e+01	11.3516	-22.803761	0.000780	7.803992	2.644064	0.000312
 287	2.8457e+01	11.3836	-22.537310	0.000669	6.689136	2.266341	0.000268
 288	2.8556e+01	11.4286	-22.238562	0.000750	7.499941	2.541049	0.000300
 289	2.8656e+01	11.4671	-21.931740	0.000770	7.702642	2.609726	0.000308
 290	2.8756e+01	11.4991	-21.649140	0.000709	7.094538	2.403695	0.000284
 291	2.8855e+01	11.5441	-21.362504	0.000720	7.195889	2.438033	0.000288
 292	2.8954e+01	11.5922	-21.051644	0.000780	7.803992	2.644064	0.000312
 293	2.9054e+01	11.6211	-20.785193	0.000669	6.689136	2.266341	0.000268
 294	2.9154e+01	11.6676	-20.470297	0.000791	7.905343	2.678403	0.000316
 295	2.9253e+01	11.7045	-20.199809	0.000679	6.790487	2.300679	0.000272
 296	2.9352e+01	11.7606	-19.876838	0.000811	8.108044	2.747080	0.000325
 297	2.9452e+01	11.7815	-19.590201	0.000720	7.195889	2.438033	0.000288
 298	2.9552e+01	11.8312	-19.303565	0.000720	7.195889	2.438033	0.000288
 299	2.9651e+01	11.8777	-19.012891	0.000730	7.297240	2.472372	0.000292
 300	2.9750e+01	11.9066	-18.706068	0.000770	7.702642	2.609726	0.000308
 301	2.9850e+01	11.9339	-18.435580	0.000679	6.790487	2.300679	0.000272
 302	2.9950e+01	11.9804	-18.165092	0.000679	6.790487	2.300679	0.000272
 303	3.0049e+01	12.0253	-17.874418	0.000730	7.297240	2.472372	0.000292
 304	3.0148e+01	12.0622	-17.559522	0.000791	7.905343	2.678403	0.000316
 305	3.0248e+01	12.1007	-17.248662	0.000780	7.803992	2.644064	0.000312
 306	3.0348e+01	12.1392	-16.974137	0.000689	6.891837	2.335018	0.000276
 307	3.0447e+01	12.1809	-16.675389	0.000750	7.499941	2.541049	0.000300
 308	3.0547e+01	12.2307	-16.368567	0.000770	7.702642	2.609726	0.000308
 309	3.0646e+01	12.2563	-16.073856	0.000740	7.398590	2.506710	0.000296
 310	3.0745e+01	12.2948	-15.754922	0.000801	8.006693	2.712741	0.000321
 311	3.0845e+01	12.3526	-15.456174	0.000750	7.499941	2.541049	0.000300
 312	3.0945e+01	12.3879	-15.169538	0.000720	7.195889	2.438033	0.000288
 313	3.1044e+01	12.4200	-14.854641	0.000791	7.905343	2.678403	0.000316
 314	3.1143e+01	12.4569	-14.555893	0.000750	7.499941	2.541049	0.000300
 315	3.1243e+01	12.5034	-14.245033	0.000780	7.803992	2.644064	0.000312
 316	3.1343e+01	12.5371	-13.942248	0.000760	7.601291	2.575387	0.000304
 317	3.1442e+01	12.5852	-13.627352	0.000791	7.905343	2.678403	0.000316
 318	3.1541e+01	12.6173	-13.344752	0.000709	7.094538	2.403695	0.000284
 319	3.1641e+01	12.6638	-13.029856	0.000791	7.905343	2.678403	0.000316
 320	3.1741e+01	12.7087	-12.735145	0.000740	7.398590	2.506710	0.000296
 321	3.1840e+01	12.7344	-12.440434	0.000740	7.398590	2.506710	0.000296
 322	3.1939e+01	12.7841	-12.097277	0.000861	8.614797	2.918772	0.000345
 323	3.2039e+01	12.8307	-11.778344	0.000801	8.006693	2.712741	0.000321
 324	3.2139e+01	12.8676	-11.443261	0.000841	8.412096	2.850095	0.000337
 325	3.2238e+01	12.8964	-11.160662	0.000709	7.094538	2.403695	0.000284
 326	3.2337e+01	12.9397	-10.857877	0.000760	7.601291	2.575387	0.000304
 327	3.2437e+01	12.9782	-10.559129	0.000750	7.499941	2.541049	0.000300
 328	3.2536e+01	13.0183	-10.236158	0.000811	8.108044	2.747080	0.000325
 329	3.2636e+01	13.0617	-9.929335	0.000770	7.702642	2.609726	0.000308
 330	3.2736e+01	13.1034	-9.590216	0.000851	8.513446	2.884434	0.000341
 331	3.2835e+01	13.1387	-9.267245	0.000811	8.108044	2.747080	0.000325
 332	3.2934e+01	13.1804	-8.956386	0.000780	7.803992	2.644064	0.000312
 333	3.3034e+01	13.2157	-8.617266	0.000851	8.513446	2.884434	0.000341
 334	3.3133e+01	13.2542	-8.290258	0.000821	8.209395	2.781418	0.000329
 335	3.3233e+01	13.3039	-7.963250	0.000821	8.209395	2.781418	0.000329
 336	3.3333e+01	13.3440	-7.676614	0.000720	7.195889	2.438033	0.000288
 337	3.3432e+01	13.3809	-7.317309	0.000902	9.020199	3.056126	0.000361
 338	3.3532e+01	13.4082	-6.970115	0.000872	8.716147	2.953111	0.000349
 339	3.3631e+01	13.4611	-6.630995	0.000851	8.513446	2.884434	0.000341
 340	3.3730e+01	13.4980	-6.324173	0.000770	7.702642	2.609726	0.000308
 341	3.3830e+01	13.5381	-5.976979	0.000872	8.716147	2.953111	0.000349
 342	3.3929e+01	13.5766	-5.666120	0.000780	7.803992	2.644064	0.000312
 343	3.4029e+01	13.6199	-5.306815	0.000902	9.020199	3.056126	0.000361
 344	3.4129e+01	13.6552	-4.971733	0.000841	8.412096	2.850095	0.000337
 345	3.4228e+01	13.6889	-4.604353	0.000922	9.222900	3.124803	0.000369
 346	3.4328e+01	13.7370	-4.241011	0.000912	9.121549	3.090465	0.000365
 347	3.4427e+01	13.7707	-3.881706	0.000902	9.020199	3.056126	0.000361
 348	3.4526e+01	13.8173	-3.534512	0.000872	8.716147	2.953111	0.000349
 349	3.4626e+01	13.8670	-3.146947	0.000973	9.729653	3.296496	0.000390
 350	3.4725e+01	13.8846	-2.799754	0.000872	8.716147	2.953111	0.000349
 351	3.4825e+01	13.9424	-2.448523	0.000882	8.817498	2.987449	0.000353
 352	3.4925e+01	13.9777	-2.089218	0.000902	9.020199	3.056126	0.000361
 353	3.5024e+01	14.0162	-1.725876	0.000912	9.121549	3.090465	0.000365
 354	3.5123e+01	14.0515	-1.398868	0.000821	8.209395	2.781418	0.000329
 355	3.5223e+01	14.0964	-0.954783	0.001115	11.148560	3.777235	0.000446
 356	3.5322e+01	14.1285	-0.555106	0.001003	10.033704	3.399511	0.000402
 357	3.5422e+01	14.1750	-0.195801	0.000902	9.020199	3.056126	0.000361
 358	3.5522e+01	14.2231	0.183690	0.000953	9.526952	3.227819	0.000381
 359	3.5621e+01	14.2568	0.587403	0.001014	10.135055	3.433850	0.000406
 360	3.5721e+01	14.2969	0.958820	0.000932	9.324251	3.159142	0.000373
 361	3.5820e+01	14.3402	1.382719	0.001064	10.641808	3.605542	0.000426
 362	3.5919e+01	14.3723	1.758173	0.000943	9.425601	3.193480	0.000377
 363	3.6019e+01	14.4172	2.161886	0.001014	10.135055	3.433850	0.000406
 364	3.6118e+01	14.4525	2.573674	0.001034	10.337756	3.502527	0.000414
 365	3.6218e+01	14.4991	2.945091	0.000932	9.324251	3.159142	0.000373
 366	3.6318e+01	14.5343	3.328618	0.000963	9.628302	3.262157	0.000385
 367	3.6417e+01	14.5696	3.732332	0.001014	10.135055	3.433850	0.000406
 368	3.6517e+01	14.6097	4.172380	0.001105	11.047210	3.742896	0.000442
 369	3.6616e+01	14.6563	4.559945	0.000973	9.729653	3.296496	0.000390
 370	3.6715e+01	14.6884	4.995955	0.001095	10.945859	3.708558	0.000438
 371	3.6815e+01	14.7269	5.387558	0.000983	9.831003	3.330834	0.000394
 372	3.6914e+01	14.7670	5.763011	0.000943	9.425601	3.193480	0.000377
 373	3.7014e+01	14.8007	6.211133	0.001125	11.249911	3.811573	0.000450
 374	3.7114e+01	14.8488	6.626958	0.001044	10.439107	3.536865	0.000418
 375	3.7213e+01	14.8841	7.062969	0.001095	10.945859	3.708558	0.000438
 376	3.7313e+01	14.9386	7.511091	0.001125	11.249911	3.811573	0.000450
 377	3.7412e+01	14.9739	7.898656	0.000973	9.729653	3.296496	0.000390
 378	3.7511e+01	15.0044	8.387149	0.001226	12.263416	4.154958	0.000491
 379	3.7611e+01	15.0477	8.794900	0.001024	10.236406	3.468188	0.000410
 380	3.7711e+01	15.0990	9.214762	0.001054	10.540457	3.571204	0.000422
 381	3.7810e+01	15.1263	9.662884	0.001125	11.249911	3.811573	0.000450
 382	3.7910e+01	15.1712	10.082747	0.001054	10.540457	3.571204	0.000422
 383	3.8009e+01	15.2081	10.542980	0.001155	11.553963	3.914589	0.000463
 384	3.8108e+01	15.2450	11.003213	0.001155	11.553963	3.914589	0.000463
 385	3.8208e+01	15.2899	11.435187	0.001084	10.844509	3.674219	0.000434
 386	3.8307e+01	15.3300	11.855049	0.001054	10.540457	3.571204	0.000422
 387	3.8407e+01	15.3637	12.315283	0.001155	11.553963	3.914589	0.000463
 388	3.8507e+01	15.4151	12.747256	0.001084	10.844509	3.674219	0.000434
 389	3.8606e+01	15.4520	13.183267	0.001095	10.945859	3.708558	0.000438
 390	3.8706e+01	15.4905	13.659649	0.001196	11.959365	4.051942	0.000479
 391	3.8805e+01	15.5210	14.123919	0.001166	11.655313	3.948927	0.000467
 392	3.8904e+01	15.5675	14.547819	0.001064	10.641808	3.605542	0.000426
 393	3.9004e+01	15.6108	14.999978	0.001135	11.351262	3.845912	0.000454
 394	3.9103e+01	15.6461	15.419840	0.001054	10.540457	3.571204	0.000422
 395	3.9203e+01	15.6910	15.940630	0.001307	13.074221	4.429666	0.000523
 396	3.9303e+01	15.7263	16.332233	0.000983	9.831003	3.330834	0.000394
 397	3.9402e+01	15.7696	16.804578	0.001186	11.858014	4.017604	0.000475
 398	3.9502e+01	15.8049	17.289034	0.001216	12.162066	4.120619	0.000487
 399	3.9601e+01	15.8530	17.733119	0.001115	11.148560	3.777235	0.000446
 400	3.9700e+01	15.8931	18.197389	0.001166	11.655313	3.948927	0.000467
 401	3.9800e+01	15.9364	18.665697	0.001176	11.756664	3.983266	0.000471
 402	3.9900e+01	15.9733	19.113819	0.001125	11.249911	3.811573	0.000450
 403	3.9999e+01	16.0102	19.614424	0.001257	12.567468	4.257973	0.000503
 404	4.0099e+01	16.0503	20.119066	0.001267	12.668819	4.292312	0.000507
 405	4.0198e+01	16.0872	20.555077	0.001095	10.945859	3.708558	0.000438
 406	4.0297e+01	16.1290	21.055681	0.001257	12.567468	4.257973	0.000503
 407	4.0397e+01	16.1755	21.592620	0.001348	13.479623	4.567020	0.000540
 408	4.0496e+01	16.2108	22.129560	0.001348	13.479623	4.567020	0.000540
 409	4.0596e+01	16.2493	22.618053	0.001226	12.263416	4.154958	0.000491
 410	4.0696e+01	16.2846	23.118658	0.001257	12.567468	4.257973	0.000503
 411	4.0795e+01	16.3279	23.659634	0.001358	13.580974	4.601358	0.000544
 412	4.0895e+01	16.3712	24.131979	0.001186	11.858014	4.017604	0.000475
 413	4.0994e+01	16.4097	24.693141	0.001409	14.087726	4.773051	0.000564
 414	4.1093e+01	16.4530	25.185671	0.001236	12.364767	4.189296	0.000495
 415	4.1193e+01	16.4851	25.742796	0.001399	13.986376	4.738712	0.000560
 416	4.1292e+01	16.5252	26.263587	0.001307	13.074221	4.429666	0.000523
 417	4.1392e+01	16.5669	26.820711	0.001399	13.986376	4.738712	0.000560
 418	4.1492e+01	16.6086	27.321316	0.001257	12.567468	4.257973	0.000503
 419	4.1591e+01	16.6471	27.842107	0.001307	13.074221	4.429666	0.000523
 420	4.1691e+01	16.6904	28.391157	0.001378	13.783675	4.670035	0.000552
 421	4.1790e+01	16.7225	28.907910	0.001297	12.972870	4.395327	0.000519
 422	4.1889e+01	16.7674	29.456961	0.001378	13.783675	4.670035	0.000552
 423	4.1989e+01	16.8108	29.961603	0.001267	12.668819	4.292312	0.000507
 424	4.2089e+01	16.8428	30.510653	0.001378	13.783675	4.670035	0.000552
 425	4.2188e+01	16.8862	31.043555	0.001338	13.378273	4.532681	0.000536
 426	4.2288e+01	16.9279	31.576457	0.001338	13.378273	4.532681	0.000536
 427	4.2387e+01	16.9664	32.109359	0.001338	13.378273	4.532681	0.000536
 428	4.2486e+01	17.0017	32.622075	0.001287	12.871520	4.360989	0.000515
 429	4.2586e+01	17.0466	33.159014	0.001348	13.479623	4.567020	0.000540
 430	4.2685e+01	17.0867	33.744399	0.001470	14.695830	4.979082	0.000588
 431	4.2785e+01	17.1124	34.232892	0.001226	12.263416	4.154958	0.000491
 432	4.2885e+01	17.1621	34.802129	0.001429	14.290427	4.841728	0.000572
 433	4.2984e+01	17.2086	35.290622	0.001226	12.263416	4.154958	0.000491
 434	4.3084e+01	17.2439	35.924452	0.001591	15.912036	5.391144	0.000637
 435	4.3183e+01	17.2872	36.429094	0.001267	12.668819	4.292312	0.000507
 436	4.3282e+01	17.3337	37.038702	0.001530	15.303933	5.185113	0.000613
 437	4.3382e+01	17.3674	37.555455	0.001297	12.972870	4.395327	0.000519
 438	4.3481e+01	17.3979	38.156988	0.001510	15.101232	5.116436	0.000605
 439	4.3581e+01	17.4460	38.730262	0.001439	14.391778	4.876066	0.000576
 440	4.3681e+01	17.4813	39.343906	0.001541	15.405284	5.219451	0.000617
 441	4.3780e+01	17.5246	39.901031	0.001399	13.986376	4.738712	0.000560
 442	4.3880e+01	17.5583	40.486416	0.001470	14.695830	4.979082	0.000588
 443	4.3979e+01	17.6081	41.083912	0.001500	14.999881	5.082097	0.000600
 444	4.4078e+01	17.6401	41.653148	0.001429	14.290427	4.841728	0.000572
 445	4.4178e+01	17.6802	42.258718	0.001520	15.202582	5.150774	0.000609
 446	4.4278e+01	17.7236	42.803732	0.001368	13.682324	4.635697	0.000548
 447	4.4377e+01	17.7605	43.389116	0.001470	14.695830	4.979082	0.000588
 448	4.4477e+01	17.8086	44.014872	0.001571	15.709335	5.322467	0.000629
 449	4.4576e+01	17.8391	44.608331	0.001490	14.898531	5.047759	0.000596
 450	4.4675e+01	17.8728	45.230050	0.001561	15.607985	5.288128	0.000625
 451	4.4775e+01	17.9273	45.855806	0.001571	15.709335	5.322467	0.000629
 452	4.4874e+01	17.9690	46.441191	0.001470	14.695830	4.979082	0.000588
 453	4.4974e+01	18.0027	47.018501	0.001449	14.493129	4.910405	0.000580
 454	4.5074e+01	18.0396	47.656369	0.001601	16.013387	5.425482	0.000641
 455	4.5173e+01	18.0893	48.274051	0.001551	15.506634	5.253790	0.000621
 456	4.5273e+01	18.1246	48.879621	0.001520	15.202582	5.150774	0.000609
 457	4.5372e+01	18.1583	49.509414	0.001581	15.810686	5.356805	0.000633
 458	4.5471e+01	18.2032	50.110947	0.001510	15.101232	5.116436	0.000605
 459	4.5571e+01	18.2417	50.688258	0.001449	14.493129	4.910405	0.000580
 460	4.5670e+01	18.2850	51.366497	0.001703	17.026892	5.768867	0.000682
 461	4.5770e+01	18.3155	51.976104	0.001530	15.303933	5.185113	0.000613
 462	4.5870e+01	18.3540	52.609934	0.001591	15.912036	5.391144	0.000637
 463	4.5969e+01	18.4038	53.259913	0.001632	16.317438	5.528498	0.000653
 464	4.6069e+01	18.4487	53.897781	0.001601	16.013387	5.425482	0.000641
 465	4.6168e+01	18.4776	54.571982	0.001693	16.925542	5.734529	0.000678
 466	4.6267e+01	18.5096	55.217924	0.001622	16.216088	5.494159	0.000649
 467	4.6367e+01	18.5578	55.896163	0.001703	17.026892	5.768867	0.000682
 468	4.6467e+01	18.6027	56.606699	0.001784	17.837697	6.043575	0.000714
 469	4.6566e+01	18.6300	57.212269	0.001520	15.202582	5.150774	0.000609
 470	4.6666e+01	18.6845	57.930879	0.001804	18.040398	6.112252	0.000722
 471	4.6765e+01	18.7166	58.568747	0.001601	16.013387	5.425482	0.000641
 472	4.6864e+01	18.7743	59.279283	0.001784	17.837697	6.043575	0.000714
 473	4.6964e+01	18.7968	59.917150	0.001601	16.013387	5.425482	0.000641
 474	4.7063e+01	18.8321	60.595389	0.001703	17.026892	5.768867	0.000682
 475	4.7163e+01	18.8754	61.277665	0.001713	17.128243	5.803206	0.000686
 476	4.7263e+01	18.9235	61.963978	0.001723	17.229593	5.837544	0.000690
 477	4.7362e+01	18.9572	62.634142	0.001682	16.824191	5.700190	0.000674
 478	4.7462e+01	18.9941	63.344678	0.001784	17.837697	6.043575	0.000714
 479	4.7561e+01	19.0455	64.063288	0.001804	18.040398	6.112252	0.000722
 480	4.7660e+01	19.0856	64.777861	0.001794	17.939047	6.077914	0.000718
 481	4.7760e+01	19.1144	65.468212	0.001733	17.330944	5.871883	0.000694
 482	4.7859e+01	19.1577	66.186822	0.001804	18.040398	6.112252	0.000722
 483	4.7959e+01	19.1930	66.893321	0.001774	17.736346	6.009237	0.000710
 484	4.8059e+01	19.2380	67.611931	0.001804	18.040398	6.112252	0.000722
 485	4.8158e+01	19.2797	68.383024	0.001936	19.357955	6.558653	0.000775
 486	4.8258e+01	19.3166	69.113745	0.001834	18.344449	6.215268	0.000734
 487	4.8357e+01	19.3535	69.812170	0.001753	17.533645	5.940560	0.000702
 488	4.8456e+01	19.3984	70.542891	0.001834	18.344449	6.215268	0.000734
 489	4.8556e+01	19.4385	71.253427	0.001784	17.837697	6.043575	0.000714
 490	4.8656e+01	19.4770	71.984149	0.001834	18.344449	6.215268	0.000734
 491	4.8755e+01	19.5123	72.739093	0.001895	18.952553	6.421299	0.000759
 492	4.8855e+01	19.5508	73.465778	0.001824	18.243099	6.180929	0.000730
 493	4.8954e+01	19.6005	74.248982	0.001966	19.662007	6.661668	0.000787
 494	4.9053e+01	19.6310	75.003926	0.001895	18.952553	6.421299	0.000759
 495	4.9153e+01	19.6727	75.827502	0.002068	20.675512	7.005053	0.000828
 496	4.9252e+01	19.7208	76.602632	0.001946	19.459306	6.592991	0.000779
 497	4.9352e+01	19.7529	77.393911	0.001986	19.864708	6.730345	0.000795
 498	4.9452e+01	19.7834	78.205375	0.002037	20.371460	6.902038	0.000816
 499	4.9551e+01	19.8363	78.944171	0.001855	18.547151	6.283945	0.000743
 500	4.9651e+01	19.8684	79.707189	0.001916	19.155254	6.489976	0.000767
 501	4.9750e+01	19.9166	80.538839	0.002088	20.878213	7.073730	0.000836
 502	4.9849e+01	19.9454	81.285710	0.001875	18.749852	6.352622	0.000751
 503	4.9949e+01	19.9984	82.076988	0.001986	19.864708	6.730345	0.000795
 504	5.0048e+01	19.9486	82.440330	-0.000912	-9.121549	-3.090465	0.000365
 505	5.0148e+01	19.9198	82.767338	-0.000821	-8.209395	-2.781418	0.000329
 506	5.0248e+01	19.8732	83.126643	-0.000902	-9.020199	-3.056126	0.000361
 507	5.0347e+01	19.8315	83.494023	-0.000922	-9.222900	-3.124803	0.000369
 508	5.0447e+01	19.7994	83.865439	-0.000932	-9.324251	-3.159142	0.000373
 509	5.0546e+01	19.7529	84.168224	-0.000760	-7.601291	-2.575387	0.000304
 510	5.0645e+01	19.7128	84.503307	-0.000841	-8.412096	-2.850095	0.000337
 511	5.0745e+01	19.6663	84.854538	-0.000882	-8.817498	-2.987449	0.000353
 512	5.0844e+01	19.6406	85.242103	-0.000973	-9.729653	-3.296496	0.000390
 513	5.0944e+01	19.6037	85.524702	-0.000709	-7.094538	-2.403695	0.000284
 514	5.1044e+01	19.5476	85.888044	-0.000912	-9.121549	-3.090465	0.000365
 515	5.1143e+01	19.5107	86.130272	-0.000608	-6.081033	-2.060310	0.000243
 516	5.1242e+01	19.4802	86.441132	-0.000780	-7.803992	-2.644064	0.000312
 517	5.1342e+01	19.4433	86.743917	-0.000760	-7.601291	-2.575387	0.000304
 518	5.1441e+01	19.3952	87.030554	-0.000720	-7.195889	-2.438033	0.000288
 519	5.1541e+01	19.3470	87.345450	-0.000791	-7.905343	-2.678403	0.000316
 520	5.1641e+01	19.3150	87.644198	-0.000750	-7.499941	-2.541049	0.000300
 521	5.1740e+01	19.2797	87.942946	-0.000750	-7.499941	-2.541049	0.000300
 522	5.1840e+01	19.2331	88.213434	-0.000679	-6.790487	-2.300679	0.000272
 523	5.1939e+01	19.1979	88.512182	-0.000750	-7.499941	-2.541049	0.000300
 524	5.2038e+01	19.1610	88.835153	-0.000811	-8.108044	-2.747080	0.000325
 525	5.2138e+01	19.1160	89.105641	-0.000679	-6.790487	-2.300679	0.000272
 526	5.2237e+01	19.0807	89.388241	-0.000709	-7.094538	-2.403695	0.000284
 527	5.2337e+01	19.0326	89.686989	-0.000750	-7.499941	-2.541049	0.000300
 528	5.2437e+01	18.9909	89.949403	-0.000659	-6.587786	-2.232002	0.000264
 529	5.2536e+01	18.9604	90.211817	-0.000659	-6.587786	-2.232002	0.000264
 530	5.2636e+01	18.9219	90.478268	-0.000669	-6.689136	-2.266341	0.000268
 531	5.2735e+01	18.8786	90.732607	-0.000639	-6.385085	-2.163325	0.000256
 532	5.2834e+01	18.8449	91.043467	-0.000780	-7.803992	-2.644064	0.000312
 533	5.2934e+01	18.7872	91.257435	-0.000537	-5.371579	-1.819940	0.000215
 534	5.3033e+01	18.7583	91.523886	-0.000669	-6.689136	-2.266341	0.000268
 535	5.3133e+01	18.7166	91.782262	-0.000649	-6.486435	-2.197664	0.000260
 536	5.3233e+01	18.6813	92.036602	-0.000639	-6.385085	-2.163325	0.000256
 537	5.3332e+01	18.6332	92.323239	-0.000720	-7.195889	-2.438033	0.000288
 538	5.3431e+01	18.5995	92.577578	-0.000639	-6.385085	-2.163325	0.000256
 539	5.3531e+01	18.5546	92.848066	-0.000679	-6.790487	-2.300679	0.000272
 540	5.3630e+01	18.5209	93.142777	-0.000740	-7.398590	-2.506710	0.000296
 541	5.3730e+01	18.4808	93.409228	-0.000669	-6.689136	-2.266341	0.000268
 542	5.3830e+01	18.4423	93.627233	-0.000547	-5.472930	-1.854279	0.000219
 543	5.3929e+01	18.3973	93.885610	-0.000649	-6.486435	-2.197664	0.000260
 544	5.4029e+01	18.3556	94.164173	-0.000699	-6.993188	-2.369356	0.000280
 545	5.4128e+01	18.3187	94.394289	-0.000578	-5.776981	-1.957294	0.000231
 546	5.4227e+01	18.2818	94.664777	-0.000679	-6.790487	-2.300679	0.000272
 547	5.4327e+01	18.2305	94.894894	-0.000578	-5.776981	-1.957294	0.000231
 548	5.4426e+01	18.2000	95.165382	-0.000679	-6.790487	-2.300679	0.000272
 549	5.4526e+01	18.1679	95.435870	-0.000679	-6.790487	-2.300679	0.000272
 550	5.4626e+01	18.1102	95.657913	-0.000557	-5.574280	-1.888617	0.000223
 551	5.4725e+01	18.0717	95.892067	-0.000588	-5.878332	-1.991633	0.000235
 552	5.4825e+01	18.0428	96.114109	-0.000557	-5.574280	-1.888617	0.000223
 553	5.4924e+01	18.0043	96.376523	-0.000659	-6.587786	-2.232002	0.000264
 554	5.5023e+01	17.9578	96.558194	-0.000456	-4.560775	-1.545232	0.000183
 555	5.5123e+01	17.9209	96.715642	-0.000395	-3.952671	-1.339201	0.000158
 556	5.5222e+01	17.8824	96.978056	-0.000659	-6.587786	-2.232002	0.000264
 557	5.5322e+01	17.8391	97.179913	-0.000507	-5.067527	-1.716925	0.000203
 558	5.5422e+01	17.8054	97.414067	-0.000588	-5.878332	-1.991633	0.000235
 559	5.5521e+01	17.7637	97.640146	-0.000568	-5.675631	-1.922956	0.000227
 560	5.5620e+01	17.7204	97.846040	-0.000517	-5.168878	-1.751263	0.000207
 561	5.5720e+01	17.6738	98.035786	-0.000476	-4.763476	-1.613909	0.000191
 562	5.5819e+01	17.6305	98.253791	-0.000547	-5.472930	-1.854279	0.000219
 563	5.5919e+01	17.6016	98.479871	-0.000568	-5.675631	-1.922956	0.000227
 564	5.6019e+01	17.5615	98.730173	-0.000628	-6.283734	-2.128987	0.000252
 565	5.6118e+01	17.5182	98.927993	-0.000497	-4.966177	-1.682586	0.000199
 566	5.6218e+01	17.4813	99.170221	-0.000608	-6.081033	-2.060310	0.000243
 567	5.6317e+01	17.4348	99.372078	-0.000507	-5.067527	-1.716925	0.000203
 568	5.6416e+01	17.4075	99.610269	-0.000598	-5.979682	-2.025971	0.000239
 569	5.6516e+01	17.3546	99.820200	-0.000527	-5.270229	-1.785602	0.000211
 570	5.6615e+01	17.3225	100.018019	-0.000497	-4.966177	-1.682586	0.000199
 571	5.6715e+01	17.2824	100.264285	-0.000618	-6.182384	-2.094648	0.000248
 572	5.6815e+01	17.2455	100.470179	-0.000517	-5.168878	-1.751263	0.000207
 573	5.6914e+01	17.1990	100.651850	-0.000456	-4.560775	-1.545232	0.000183
 574	5.7014e+01	17.1605	100.853706	-0.000507	-5.067527	-1.716925	0.000203
 575	5.7113e+01	17.1236	101.075749	-0.000557	-5.574280	-1.888617	0.000223
 576	5.7212e+01	17.0787	101.245309	-0.000426	-4.256723	-1.442217	0.000170
 577	5.7312e+01	17.0434	101.487537	-0.000608	-6.081033	-2.060310	0.000243
 578	5.7411e+01	16.9985	101.697468	-0.000527	-5.270229	-1.785602	0.000211
 579	5.7511e+01	16.9744	101.875102	-0.000446	-4.459424	-1.510894	0.000179
 580	5.7611e+01	16.9231	102.089070	-0.000537	-5.371579	-1.819940	0.000215
 581	5.7710e+01	16.8797	102.230370	-0.000355	-3.547269	-1.201847	0.000142
 582	5.7809e+01	16.8428	102.428189	-0.000497	-4.966177	-1.682586	0.000199
 583	5.7909e+01	16.8027	102.589675	-0.000405	-4.054022	-1.373540	0.000162
 584	5.8008e+01	16.7690	102.714826	-0.000314	-3.141867	-1.064493	0.000126
 585	5.8108e+01	16.7338	102.880349	-0.000416	-4.155373	-1.407878	0.000166
 586	5.8208e+01	16.6920	103.037797	-0.000395	-3.952671	-1.339201	0.000158
 587	5.8307e+01	16.6503	103.191208	-0.000385	-3.851321	-1.304863	0.000154
 588	5.8407e+01	16.6022	103.312322	-0.000304	-3.040516	-1.030155	0.000122
 589	5.8506e+01	16.5717	103.453622	-0.000355	-3.547269	-1.201847	0.000142
 590	5.8605e+01	16.5268	103.586847	-0.000334	-3.344568	-1.133170	0.000134
 591	5.8705e+01	16.4851	103.716036	-0.000324	-3.243218	-1.098832	0.000130
 592	5.8804e+01	16.4498	103.857335	-0.000355	-3.547269	-1.201847	0.000142
 593	5.8904e+01	16.4145	103.970375	-0.000284	-2.837815	-0.961478	0.000114
 594	5.9004e+01	16.3632	104.067266	-0.000243	-2.432413	-0.824124	0.000097
 595	5.9103e+01	16.3118	104.172232	-0.000264	-2.635114	-0.892801	0.000105
 596	5.9203e+01	16.2878	104.309495	-0.000345	-3.445919	-1.167509	0.000138
 597	5.9302e+01	16.2493	104.470980	-0.000405	-4.054022	-1.373540	0.000162
 598	5.9401e+01	16.2011	104.507314	-0.000091	-0.912155	-0.309046	0.000037
 599	5.9501e+01	16.1691	104.684948	-0.000446	-4.459424	-1.510894	0.000179
 600	5.9600e+01	16.1290	104.757617	-0.000182	-1.824310	-0.618093	0.000073
 601	5.9700e+01	16.0889	104.870656	-0.000284	-2.837815	-0.961478	0.000114
 602	5.9800e+01	16.0536	105.007919	-0.000345	-3.445919	-1.167509	0.000138
 603	5.9899e+01	16.0183	105.104810	-0.000243	-2.432413	-0.824124	0.000097
 604	5.9998e+01	15.9653	105.205739	-0.000253	-2.533764	-0.858462	0.000101
 605	6.0098e+01	15.9252	105.298593	-0.000233	-2.331063	-0.789785	0.000093
 606	6.0197e+01	15.8883	105.379336	-0.000203	-2.027011	-0.686770	0.000081
 607	6.0297e+01	15.8530	105.516598	-0.000345	-3.445919	-1.167509	0.000138
 608	6.0397e+01	15.8049	105.593304	-0.000193	-1.925660	-0.652431	0.000077
 609	6.0496e+01	15.7728	105.722492	-0.000324	-3.243218	-1.098832	0.000130
 610	6.0596e+01	15.7231	105.843606	-0.000304	-3.040516	-1.030155	0.000122
 611	6.0695e+01	15.6894	105.924349	-0.000203	-2.027011	-0.686770	0.000081
 612	6.0794e+01	15.6493	106.021240	-0.000243	-2.432413	-0.824124	0.000097
 613	6.0894e+01	15.6092	106.126206	-0.000264	-2.635114	-0.892801	0.000105
 614	6.0993e+01	15.5739	106.178688	-0.000132	-1.317557	-0.446400	0.000053
 615	6.1093e+01	15.5306	106.283654	-0.000264	-2.635114	-0.892801	0.000105
 616	6.1193e+01	15.4953	106.364397	-0.000203	-2.027011	-0.686770	0.000081
 617	6.1292e+01	15.4504	106.428991	-0.000162	-1.621609	-0.549416	0.000065
 618	6.1392e+01	15.4151	106.501659	-0.000182	-1.824310	-0.618093	0.000073
 619	6.1491e+01	15.3814	106.578365	-0.000193	-1.925660	-0.652431	0.000077
 620	6.1590e+01	15.3268	106.634885	-0.000142	-1.418908	-0.480739	0.000057
 621	6.1690e+01	15.2835	106.679293	-0.000111	-1.114856	-0.377723	0.000045
 622	6.1789e+01	15.2498	106.743887	-0.000162	-1.621609	-0.549416	0.000065
 623	6.1889e+01	15.2081	106.816556	-0.000182	-1.824310	-0.618093	0.000073
 624	6.1989e+01	15.1696	106.865002	-0.000122	-1.216207	-0.412062	0.000049
 625	6.2088e+01	15.1247	106.913447	-0.000122	-1.216207	-0.412062	0.000049
 626	6.2188e+01	15.0846	106.957856	-0.000111	-1.114856	-0.377723	0.000045
 627	6.2287e+01	15.0605	107.002264	-0.000111	-1.114856	-0.377723	0.000045
 628	6.2386e+01	15.0108	107.078970	-0.000193	-1.925660	-0.652431	0.000077
 629	6.2486e+01	14.9691	107.103193	-0.000061	-0.608103	-0.206031	0.000024
 630	6.2586e+01	14.9450	107.147601	-0.000111	-1.114856	-0.377723	0.000045
 631	6.2685e+01	14.8873	107.183935	-0.000091	-0.912155	-0.309046	0.000037
 632	6.2785e+01	14.8552	107.240455	-0.000142	-1.418908	-0.480739	0.000057
 633	6.2884e+01	14.8103	107.264678	-0.000061	-0.608103	-0.206031	0.000024
 634	6.2983e+01	14.7718	107.292938	-0.000071	-0.709454	-0.240369	0.000028
 635	6.3083e+01	14.7349	107.333309	-0.000101	-1.013505	-0.343385	0.000041
 636	6.3182e+01	14.6948	107.389829	-0.000142	-1.418908	-0.480739	0.000057
 637	6.3282e+01	14.6579	107.377718	0.000030	0.304052	0.103015	-0.000012
 638	6.3382e+01	14.6033	107.418089	-0.000101	-1.013505	-0.343385	0.000041
 639	6.3481e+01	14.5745	107.446349	-0.000071	-0.709454	-0.240369	0.000028
 640	6.3581e+01	14.5295	107.474609	-0.000071	-0.709454	-0.240369	0.000028
 641	6.3680e+01	14.5023	107.470572	0.000010	0.101351	0.034338	-0.000004
 642	6.3779e+01	14.4525	107.523055	-0.000132	-1.317557	-0.446400	0.000053
 643	6.3879e+01	14.4124	107.535166	-0.000030	-0.304052	-0.103015	0.000012
 644	6.3978e+01	14.3755	107.543240	-0.000020	-0.202701	-0.068677	0.000008
 645	6.4078e+01	14.3354	107.551315	-0.000020	-0.202701	-0.068677	0.000008
 646	6.4177e+01	14.2953	107.587649	-0.000091	-0.912155	-0.309046	0.000037
 647	6.4277e+01	14.2536	107.583612	0.000010	0.101351	0.034338	-0.000004
 648	6.4376e+01	14.2151	107.567463	0.000041	0.405402	0.137354	-0.000016
 649	6.4476e+01	14.1702	107.619946	-0.000132	-1.317557	-0.446400	0.000053
 650	6.4576e+01	14.1349	107.559389	0.000152	1.520258	0.515077	-0.000061
 651	6.4675e+01	14.0964	107.571500	-0.000030	-0.304052	-0.103015	0.000012
 652	6.4775e+01	14.0595	107.579575	-0.000020	-0.202701	-0.068677	0.000008
 653	6.4874e+01	14.0098	107.603797	-0.000061	-0.608103	-0.206031	0.000024
 654	6.4974e+01	13.9729	107.623983	-0.000051	-0.506753	-0.171692	0.000020
 655	6.5073e+01	13.9344	107.591686	0.000081	0.810804	0.274708	-0.000032
 656	6.5172e+01	13.8894	107.587649	0.000010	0.101351	0.034338	-0.000004
 657	6.5272e+01	13.8654	107.579575	0.000020	0.202701	0.068677	-0.000008
 658	6.5371e+01	13.8221	107.575537	0.000010	0.101351	0.034338	-0.000004
 659	6.5471e+01	13.7691	107.555352	0.000051	0.506753	0.171692	-0.000020
 660	6.5570e+01	13.7274	107.567463	-0.000030	-0.304052	-0.103015	0.000012
 661	6.5670e+01	13.6857	107.583612	-0.000041	-0.405402	-0.137354	0.000016
 662	6.5769e+01	13.6552	107.523055	0.000152	1.520258	0.515077	-0.000061
 663	6.5869e+01	13.6215	107.523055	-0.000000	-0.000000	-0.000000	0.000000
 664	6.5969e+01	13.5766	107.514980	0.000020	0.202701	0.068677	-0.000008
 665	6.6068e+01	13.5365	107.531129	-0.000041	-0.405402	-0.137354	0.000016
 666	6.6168e+01	13.4884	107.482683	0.000122	1.216207	0.412062	-0.000049
 667	6.6267e+01	13.4595	107.506906	-0.000061	-0.608103	-0.206031	0.000024
 668	6.6367e+01	13.4066	107.523055	-0.000041	-0.405402	-0.137354	0.000016
 669	6.6466e+01	13.3809	107.510943	0.000030	0.304052	0.103015	-0.000012
 670	6.6566e+01	13.3440	107.458461	0.000132	1.317557	0.446400	-0.000053
 671	6.6665e+01	13.3007	107.474609	-0.000041	-0.405402	-0.137354	0.000016
 672	6.6764e+01	13.2638	107.454423	0.000051	0.506753	0.171692	-0.000020
 673	6.6864e+01	13.2189	107.410015	0.000111	1.114856	0.377723	-0.000045
 674	6.6963e+01	13.1836	107.405978	0.000010	0.101351	0.034338	-0.000004
 675	6.7063e+01	13.1403	107.426163	-0.000051	-0.506753	-0.171692	0.000020
 676	6.7162e+01	13.1002	107.389829	0.000091	0.912155	0.309046	-0.000037
 677	6.7262e+01	13.0617	107.329272	0.000152	1.520258	0.515077	-0.000061
 678	6.7362e+01	13.0216	107.296975	0.000081	0.810804	0.274708	-0.000032
 679	6.7461e+01	12.9734	107.268715	0.000071	0.709454	0.240369	-0.000028
 680	6.7561e+01	12.9446	107.216232	0.000132	1.317557	0.446400	-0.000053
 681	6.7660e+01	12.9028	107.208158	0.000020	0.202701	0.068677	-0.000008
 682	6.7760e+01	12.8659	107.151638	0.000142	1.418908	0.480739	-0.000057
 683	6.7859e+01	12.8274	107.050710	0.000253	2.533764	0.858462	-0.000101
 684	6.7959e+01	12.7922	107.054747	-0.000010	-0.101351	-0.034338	0.000004
 685	6.8058e+01	12.7537	106.982078	0.000182	1.824310	0.618093	-0.000073
 686	6.8157e+01	12.7039	106.905373	0.000193	1.925660	0.652431	-0.000077
 687	6.8257e+01	12.6574	106.856927	0.000122	1.216207	0.412062	-0.000049
 688	6.8356e+01	12.6253	106.848853	0.000020	0.202701	0.068677	-0.000008
 689	6.8456e+01	12.5820	106.804445	0.000111	1.114856	0.377723	-0.000045
 690	6.8555e+01	12.5467	106.687368	0.000294	2.939166	0.995816	-0.000118
 691	6.8655e+01	12.5002	106.675256	0.000030	0.304052	0.103015	-0.000012
 692	6.8754e+01	12.4601	106.606625	0.000172	1.722959	0.583754	-0.000069
 693	6.8854e+01	12.4232	106.542031	0.000162	1.621609	0.549416	-0.000065
 694	6.8954e+01	12.3863	106.533956	0.000020	0.202701	0.068677	-0.000008
 695	6.9053e+01	12.3494	106.465325	0.000172	1.722959	0.583754	-0.000069
 696	6.9153e+01	12.3093	106.396694	0.000172	1.722959	0.583754	-0.000069
 697	6.9252e+01	12.2724	106.380545	0.000041	0.405402	0.137354	-0.000016
 698	6.9352e+01	12.2243	106.279617	0.000253	2.533764	0.858462	-0.000101
 699	6.9451e+01	12.1777	106.223097	0.000142	1.418908	0.480739	-0.000057
 700	6.9550e+01	12.1440	106.166577	0.000142	1.418908	0.480739	-0.000057
 701	6.9650e+01	12.1023	106.093909	0.000182	1.824310	0.618093	-0.000073
 702	6.9749e+01	12.0574	106.057574	0.000091	0.912155	0.309046	-0.000037
 703	6.9849e+01	12.0317	105.964720	0.000233	2.331063	0.789785	-0.000093
 704	6.9948e+01	11.9868	105.904163	0.000152	1.520258	0.515077	-0.000061
 705	7.0048e+01	11.9451	105.843606	0.000152	1.520258	0.515077	-0.000061
 706	7.0147e+01	11.9066	105.770938	0.000182	1.824310	0.618093	-0.000073
 707	7.0247e+01	11.8617	105.714418	0.000142	1.418908	0.480739	-0.000057
 708	7.0347e+01	11.8296	105.609452	0.000264	2.635114	0.892801	-0.000105
 709	7.0446e+01	11.7847	105.552932	0.000142	1.418908	0.480739	-0.000057
 710	7.0546e+01	11.7398	105.423744	0.000324	3.243218	1.098832	-0.000130
 711	7.0645e+01	11.6981	105.363187	0.000152	1.520258	0.515077	-0.000061
 712	7.0745e+01	11.6740	105.302630	0.000152	1.520258	0.515077	-0.000061
 713	7.0844e+01	11.6243	105.246110	0.000142	1.418908	0.480739	-0.000057
 714	7.0944e+01	11.5922	105.153256	0.000233	2.331063	0.789785	-0.000093
 715	7.1043e+01	11.5537	105.048290	0.000264	2.635114	0.892801	-0.000105
 716	7.1142e+01	11.5088	104.947362	0.000253	2.533764	0.858462	-0.000101
 717	7.1242e+01	11.4687	104.866619	0.000203	2.027011	0.686770	-0.000081
 718	7.1341e+01	11.4302	104.781840	0.000213	2.128362	0.721108	-0.000085
 719	7.1441e+01	11.3756	104.688985	0.000233	2.331063	0.789785	-0.000093
 720	7.1540e+01	11.3516	104.600168	0.000223	2.229712	0.755447	-0.000089
 721	7.1640e+01	11.3018	104.511351	0.000223	2.229712	0.755447	-0.000089
 722	7.1740e+01	11.2697	104.414460	0.000243	2.432413	0.824124	-0.000097
 723	7.1839e+01	11.2280	104.313532	0.000253	2.533764	0.858462	-0.000101
 724	7.1939e+01	11.1927	104.252975	0.000152	1.520258	0.515077	-0.000061
 725	7.2038e+01	11.1366	104.152046	0.000253	2.533764	0.858462	-0.000101
 726	7.2138e+01	11.1109	104.030932	0.000304	3.040516	1.030155	-0.000122
 727	7.2237e+01	11.0660	103.909818	0.000304	3.040516	1.030155	-0.000122
 728	7.2337e+01	11.0339	103.816964	0.000233	2.331063	0.789785	-0.000093
 729	7.2436e+01	10.9858	103.703924	0.000284	2.837815	0.961478	-0.000114
 730	7.2535e+01	10.9521	103.578773	0.000314	3.141867	1.064493	-0.000126
 731	7.2635e+01	10.9120	103.506105	0.000182	1.824310	0.618093	-0.000073
 732	7.2734e+01	10.8719	103.393065	0.000284	2.837815	0.961478	-0.000114
 733	7.2834e+01	10.8302	103.284062	0.000274	2.736465	0.927139	-0.000110
 734	7.2933e+01	10.7901	103.175059	0.000274	2.736465	0.927139	-0.000110
 735	7.3033e+01	10.7532	103.033760	0.000355	3.547269	1.201847	-0.000142
 736	7.3132e+01	10.7179	102.932831	0.000253	2.533764	0.858462	-0.000101
 737	7.3232e+01	10.6633	102.807680	0.000314	3.141867	1.064493	-0.000126
 738	7.3332e+01	10.6377	102.690603	0.000294	2.939166	0.995816	-0.000118
 739	7.3431e+01	10.5879	102.573526	0.000294	2.939166	0.995816	-0.000118
 740	7.3531e+01	10.5542	102.456449	0.000294	2.939166	0.995816	-0.000118
 741	7.3630e+01	10.5109	102.311112	0.000365	3.648620	1.236186	-0.000146
 742	7.3730e+01	10.4756	102.177887	0.000334	3.344568	1.133170	-0.000134
 743	7.3829e+01	10.4275	102.048699	0.000324	3.243218	1.098832	-0.000130
 744	7.3928e+01	10.3938	101.907399	0.000355	3.547269	1.201847	-0.000142
 745	7.4028e+01	10.3537	101.802433	0.000264	2.635114	0.892801	-0.000105
 746	7.4127e+01	10.3120	101.657096	0.000365	3.648620	1.236186	-0.000146
 747	7.4227e+01	10.2767	101.552131	0.000264	2.635114	0.892801	-0.000105
 748	7.4326e+01	10.2302	101.358348	0.000486	4.864826	1.648248	-0.000195
 749	7.4426e+01	10.1981	101.245309	0.000284	2.837815	0.961478	-0.000114
 750	7.4525e+01	10.1548	101.091897	0.000385	3.851321	1.304863	-0.000154
 751	7.4625e+01	10.1035	100.970783	0.000304	3.040516	1.030155	-0.000122
 752	7.4725e+01	10.0730	100.805261	0.000416	4.155373	1.407878	-0.000166
 753	7.4824e+01	10.0441	100.680110	0.000314	3.141867	1.064493	-0.000126
 754	7.4924e+01	9.9928	100.534773	0.000365	3.648620	1.236186	-0.000146
 755	7.5023e+01	9.9511	100.377324	0.000395	3.952671	1.339201	-0.000158
 756	7.5123e+01	9.9174	100.183542	0.000486	4.864826	1.648248	-0.000195
 757	7.5222e+01	9.8644	100.082614	0.000253	2.533764	0.858462	-0.000101
 758	7.5322e+01	9.8339	99.909017	0.000436	4.358074	1.476555	-0.000174
 759	7.5421e+01	9.7858	99.759643	0.000375	3.749970	1.270524	-0.000150
 760	7.5520e+01	9.7521	99.586046	0.000436	4.358074	1.476555	-0.000174
 761	7.5620e+01	9.7088	99.464932	0.000304	3.040516	1.030155	-0.000122
 762	7.5719e+01	9.6687	99.291335	0.000436	4.358074	1.476555	-0.000174
 763	7.5819e+01	9.6463	99.150035	0.000355	3.547269	1.201847	-0.000142
 764	7.5918e+01	9.5997	98.984513	0.000416	4.155373	1.407878	-0.000166
 765	7.6018e+01	9.5548	98.847250	0.000345	3.445919	1.167509	-0.000138
 766	7.6118e+01	9.5163	98.641356	0.000517	5.168878	1.751263	-0.000207
 767	7.6217e+01	9.4698	98.475833	0.000416	4.155373	1.407878	-0.000166
 768	7.6317e+01	9.4361	98.314348	0.000405	4.054022	1.373540	-0.000162
 769	7.6416e+01	9.4024	98.140751	0.000436	4.358074	1.476555	-0.000174
 770	7.6516e+01	9.3623	97.995414	0.000365	3.648620	1.236186	-0.000146
 771	7.6615e+01	9.3158	97.813743	0.000456	4.560775	1.545232	-0.000183
 772	7.6715e+01	9.2789	97.656295	0.000395	3.952671	1.339201	-0.000158
 773	7.6814e+01	9.2388	97.466550	0.000476	4.763476	1.613909	-0.000191
 774	7.6913e+01	9.2035	97.325250	0.000355	3.547269	1.201847	-0.000142
 775	7.7013e+01	9.1570	97.099170	0.000568	5.675631	1.922956	-0.000227
 776	7.7112e+01	9.1153	96.941722	0.000395	3.952671	1.339201	-0.000158
 777	7.7212e+01	9.0800	96.796385	0.000365	3.648620	1.236186	-0.000146
 778	7.7311e+01	9.0334	96.590491	0.000517	5.168878	1.751263	-0.000207
 779	7.7411e+01	9.0030	96.424969	0.000416	4.155373	1.407878	-0.000166
 780	7.7510e+01	8.9548	96.215037	0.000527	5.270229	1.785602	-0.000211
 781	7.7610e+01	8.9131	96.053552	0.000405	4.054022	1.373540	-0.000162
 782	7.7710e+01	8.8778	95.831510	0.000557	5.574280	1.888617	-0.000223
 783	7.7809e+01	8.8409	95.674061	0.000395	3.952671	1.339201	-0.000158
 784	7.7909e+01	8.8008	95.508539	0.000416	4.155373	1.407878	-0.000166
 785	7.8008e+01	8.7575	95.294571	0.000537	5.371579	1.819940	-0.000215
 786	7.8108e+01	8.7174	95.112899	0.000456	4.560775	1.545232	-0.000183
 787	7.8207e+01	8.6805	94.923154	0.000476	4.763476	1.613909	-0.000191
 788	7.8306e+01	8.6356	94.709186	0.000537	5.371579	1.819940	-0.000215
 789	7.8406e+01	8.5923	94.531552	0.000446	4.459424	1.510894	-0.000179
 790	7.8505e+01	8.5506	94.277212	0.000639	6.385085	2.163325	-0.000256
 791	7.8605e+01	8.5169	94.123801	0.000385	3.851321	1.304863	-0.000154
 792	7.8704e+01	8.4768	93.877536	0.000618	6.182384	2.094648	-0.000248
 793	7.8804e+01	8.4447	93.651456	0.000568	5.675631	1.922956	-0.000227
 794	7.8903e+01	8.3950	93.514194	0.000345	3.445919	1.167509	-0.000138
 795	7.9003e+01	8.3548	93.284077	0.000578	5.776981	1.957294	-0.000231
 796	7.9103e+01	8.3276	93.082220	0.000507	5.067527	1.716925	-0.000203
 797	7.9202e+01	8.2714	92.868252	0.000537	5.371579	1.819940	-0.000215
 798	7.9302e+01	8.2442	92.674469	0.000486	4.864826	1.648248	-0.000195
 799	7.9401e+01	8.1992	92.464538	0.000527	5.270229	1.785602	-0.000211
 800	7.9501e+01	8.1575	92.250570	0.000537	5.371579	1.819940	-0.000215
 801	7.9600e+01	8.1286	92.032565	0.000547	5.472930	1.854279	-0.000219
 802	7.9700e+01	8.0725	91.798411	0.000588	5.878332	1.991633	-0.000235
 803	7.9799e+01	8.0372	91.608666	0.000476	4.763476	1.613909	-0.000191
 804	7.9898e+01	8.0003	91.394697	0.000537	5.371579	1.819940	-0.000215
 805	7.9998e+01	7.9634	91.184766	0.000527	5.270229	1.785602	-0.000211
 806	8.0097e+01	7.9233	90.958687	0.000568	5.675631	1.922956	-0.000227
 807	8.0197e+01	7.8784	90.712421	0.000618	6.182384	2.094648	-0.000248
 808	8.0296e+01	7.8447	90.506528	0.000517	5.168878	1.751263	-0.000207
 809	8.0396e+01	7.8110	90.252188	0.000639	6.385085	2.163325	-0.000256
 810	8.0496e+01	7.7484	90.066480	0.000466	4.662125	1.579571	-0.000187
 811	8.0595e+01	7.7164	89.832326	0.000588	5.878332	1.991633	-0.000235
 812	8.0695e+01	7.6923	89.586061	0.000618	6.182384	2.094648	-0.000248
 813	8.0794e+01	7.6442	89.380167	0.000517	5.168878	1.751263	-0.000207
 814	8.0894e+01	7.6089	89.154087	0.000568	5.675631	1.922956	-0.000227
 815	8.0993e+01	7.5607	88.899748	0.000639	6.385085	2.163325	-0.000256
 816	8.1093e+01	7.5287	88.689816	0.000527	5.270229	1.785602	-0.000211
 817	8.1192e+01	7.4837	88.427403	0.000659	6.587786	2.232002	-0.000264
 818	8.1291e+01	7.4388	88.233620	0.000486	4.864826	1.648248	-0.000195
 819	8.1391e+01	7.4019	87.983318	0.000628	6.283734	2.128987	-0.000252
 820	8.1490e+01	7.3714	87.741090	0.000608	6.081033	2.060310	-0.000243
 821	8.1590e+01	7.3281	87.523084	0.000547	5.472930	1.854279	-0.000219
 822	8.1689e+01	7.2832	87.272782	0.000628	6.283734	2.128987	-0.000252
 823	8.1789e+01	7.2351	87.054776	0.000547	5.472930	1.854279	-0.000219
 824	8.1888e+01	7.2014	86.788326	0.000669	6.689136	2.266341	-0.000268
 825	8.1988e+01	7.1613	86.594543	0.000486	4.864826	1.648248	-0.000195
 826	8.2088e+01	7.1292	86.348278	0.000618	6.182384	2.094648	-0.000248
 827	8.2187e+01	7.0795	86.114124	0.000588	5.878332	1.991633	-0.000235
 828	8.2287e+01	7.0490	85.847673	0.000669	6.689136	2.266341	-0.000268
 829	8.2386e+01	7.0025	85.633705	0.000537	5.371579	1.819940	-0.000215
 830	8.2486e+01	6.9543	85.383402	0.000628	6.283734	2.128987	-0.000252
 831	8.2585e+01	6.9223	85.129063	0.000639	6.385085	2.163325	-0.000256
 832	8.2684e+01	6.8870	84.878760	0.000628	6.283734	2.128987	-0.000252
 833	8.2784e+01	6.8372	84.628458	0.000628	6.283734	2.128987	-0.000252
 834	8.2883e+01	6.8116	84.374118	0.000639	6.385085	2.163325	-0.000256
 835	8.2983e+01	6.7667	84.168224	0.000517	5.168878	1.751263	-0.000207
 836	8.3082e+01	6.7314	83.950219	0.000547	5.472930	1.854279	-0.000219
 837	8.3182e+01	6.6800	83.671657	0.000699	6.993188	2.369356	-0.000280
 838	8.3281e+01	6.6447	83.425391	0.000618	6.182384	2.094648	-0.000248
 839	8.3381e+01	6.6062	83.167015	0.000649	6.486435	2.197664	-0.000260
 840	8.3481e+01	6.5677	82.949009	0.000547	5.472930	1.854279	-0.000219
 841	8.3580e+01	6.5180	82.690633	0.000649	6.486435	2.197664	-0.000260
 842	8.3680e+01	6.4875	82.452442	0.000598	5.979682	2.025971	-0.000239
 843	8.3779e+01	6.4458	82.210214	0.000608	6.081033	2.060310	-0.000243
 844	8.3879e+01	6.4057	81.935688	0.000689	6.891837	2.335018	-0.000276
 845	8.3978e+01	6.3656	81.709609	0.000568	5.675631	1.922956	-0.000227
 846	8.4078e+01	6.3351	81.410861	0.000750	7.499941	2.541049	-0.000300
 847	8.4177e+01	6.2870	81.176707	0.000588	5.878332	1.991633	-0.000235
 848	8.4276e+01	6.2501	80.910256	0.000669	6.689136	2.266341	-0.000268
 849	8.4376e+01	6.2132	80.668028	0.000608	6.081033	2.060310	-0.000243
 850	8.4475e+01	6.1603	80.401577	0.000669	6.689136	2.266341	-0.000268
 851	8.4575e+01	6.1282	80.183571	0.000547	5.472930	1.854279	-0.000219
 852	8.4674e+01	6.0881	79.888861	0.000740	7.398590	2.506710	-0.000296
 853	8.4774e+01	6.0464	79.654707	0.000588	5.878332	1.991633	-0.000235
 854	8.4874e+01	6.0062	79.396330	0.000649	6.486435	2.197664	-0.000260
 855	8.4973e+01	5.9710	79.093545	0.000760	7.601291	2.575387	-0.000304
 856	8.5073e+01	5.9341	78.843242	0.000628	6.283734	2.128987	-0.000252
 857	8.5172e+01	5.8859	78.580829	0.000659	6.587786	2.232002	-0.000264
 858	8.5272e+01	5.8522	78.326489	0.000639	6.385085	2.163325	-0.000256
 859	8.5371e+01	5.8121	78.056001	0.000679	6.790487	2.300679	-0.000272
 860	8.5471e+01	5.7768	77.801661	0.000639	6.385085	2.163325	-0.000256
 861	8.5570e+01	5.7415	77.547322	0.000639	6.385085	2.163325	-0.000256
 862	8.5669e+01	5.6902	77.232425	0.000791	7.905343	2.678403	-0.000316
 863	8.5769e+01	5.6533	77.002308	0.000578	5.776981	1.957294	-0.000231
 864	8.5868e+01	5.6036	76.739895	0.000659	6.587786	2.232002	-0.000264
 865	8.5968e+01	5.5731	76.457295	0.000709	7.094538	2.403695	-0.000284
 866	8.6067e+01	5.5298	76.178733	0.000699	6.993188	2.369356	-0.000280
 867	8.6167e+01	5.4897	75.908245	0.000679	6.790487	2.300679	-0.000272
 868	8.6266e+01	5.4432	75.653905	0.000639	6.385085	2.163325	-0.000256
 869	8.6366e+01	5.4159	75.367269	0.000720	7.195889	2.438033	-0.000288
 870	8.6466e+01	5.3758	75.080632	0.000720	7.195889	2.438033	-0.000288
 871	8.6565e+01	5.3325	74.838404	0.000608	6.081033	2.060310	-0.000243
 872	8.6665e+01	5.2956	74.539656	0.000750	7.499941	2.541049	-0.000300
 873	8.6764e+01	5.2523	74.313576	0.000568	5.675631	1.922956	-0.000227
 874	8.6864e+01	5.2138	74.006754	0.000770	7.702642	2.609726	-0.000308
 875	8.6963e+01	5.1769	73.703969	0.000760	7.601291	2.575387	-0.000304
 876	8.7063e+01	5.1400	73.453666	0.000628	6.283734	2.128987	-0.000252
 877	8.7162e+01	5.0886	73.167030	0.000720	7.195889	2.438033	-0.000288
 878	8.7261e+01	5.0565	72.916727	0.000628	6.283734	2.128987	-0.000252
 879	8.7361e+01	5.0132	72.650276	0.000669	6.689136	2.266341	-0.000268
 880	8.7460e+01	4.9779	72.363640	0.000720	7.195889	2.438033	-0.000288
 881	8.7560e+01	4.9394	72.072966	0.000730	7.297240	2.472372	-0.000292
 882	8.7659e+01	4.9041	71.806515	0.000669	6.689136	2.266341	-0.000268
 883	8.7759e+01	4.8544	71.536027	0.000679	6.790487	2.300679	-0.000272
 884	8.7859e+01	4.8111	71.305910	0.000578	5.776981	1.957294	-0.000231
 885	8.7958e+01	4.7758	70.950642	0.000892	8.918848	3.021788	-0.000357
 886	8.8058e+01	4.7357	70.700340	0.000628	6.283734	2.128987	-0.000252
 887	8.8157e+01	4.6860	70.405629	0.000740	7.398590	2.506710	-0.000296
 888	8.8257e+01	4.6603	70.131103	0.000689	6.891837	2.335018	-0.000276
 889	8.8356e+01	4.6138	69.844467	0.000720	7.195889	2.438033	-0.000288
 890	8.8456e+01	4.5721	69.561867	0.000709	7.094538	2.403695	-0.000284
 891	8.8555e+01	4.5496	69.303491	0.000649	6.486435	2.197664	-0.000260
 892	8.8654e+01	4.4854	69.000705	0.000760	7.601291	2.575387	-0.000304
 893	8.8754e+01	4.4501	68.734255	0.000669	6.689136	2.266341	-0.000268
 894	8.8853e+01	4.4116	68.451655	0.000709	7.094538	2.403695	-0.000284
 895	8.8953e+01	4.3780	68.193278	0.000649	6.486435	2.197664	-0.000260
 896	8.9052e+01	4.3411	67.906642	0.000720	7.195889	2.438033	-0.000288
 897	8.9152e+01	4.2961	67.575597	0.000831	8.310745	2.815757	-0.000333
 898	8.9251e+01	4.2512	67.321257	0.000639	6.385085	2.163325	-0.000256
 899	8.9351e+01	4.2143	67.018472	0.000760	7.601291	2.575387	-0.000304
 900	8.9451e+01	4.1742	66.743947	0.000689	6.891837	2.335018	-0.000276
 901	8.9550e+01	4.1341	66.481533	0.000659	6.587786	2.232002	-0.000264
 902	8.9650e+01	4.0940	66.174710	0.000770	7.702642	2.609726	-0.000308
 903	8.9749e+01	4.0603	65.888074	0.000720	7.195889	2.438033	-0.000288
 904	8.9849e+01	4.0106	65.617586	0.000679	6.790487	2.300679	-0.000272
 905	8.9948e+01	3.9817	65.363246	0.000639	6.385085	2.163325	-0.000256
 906	9.0047e+01	3.9336	65.007978	0.000892	8.918848	3.021788	-0.000357
 907	9.0147e+01	3.9015	64.725379	0.000709	7.094538	2.403695	-0.000284
 908	9.0246e+01	3.8534	64.454891	0.000679	6.790487	2.300679	-0.000272
 909	9.0346e+01	3.8165	64.200551	0.000639	6.385085	2.163325	-0.000256
 910	9.0445e+01	3.7764	63.893729	0.000770	7.702642	2.609726	-0.000308
 911	9.0545e+01	3.7347	63.562684	0.000831	8.310745	2.815757	-0.000333
 912	9.0644e+01	3.6994	63.304307	0.000649	6.486435	2.197664	-0.000260
 913	9.0744e+01	3.6577	63.054005	0.000628	6.283734	2.128987	-0.000252
 914	9.0844e+01	3.6240	62.731034	0.000811	8.108044	2.747080	-0.000325
 915	9.0943e+01	3.5855	62.452471	0.000699	6.993188	2.369356	-0.000280
 916	9.1043e+01	3.5357	62.129500	0.000811	8.108044	2.747080	-0.000325
 917	9.1142e+01	3.4956	61.875161	0.000639	6.385085	2.163325	-0.000256
 918	9.1242e+01	3.4571	61.548153	0.000821	8.209395	2.781418	-0.000329
 919	9.1341e+01	3.4154	61.261516	0.000720	7.195889	2.438033	-0.000288
 920	9.1441e+01	3.3849	60.958731	0.000760	7.601291	2.575387	-0.000304
 921	9.1540e+01	3.3352	60.668057	0.000730	7.297240	2.472372	-0.000292
 922	9.1639e+01	3.3063	60.393532	0.000689	6.891837	2.335018	-0.000276
 923	9.1739e+01	3.2566	60.090747	0.000760	7.601291	2.575387	-0.000304
 924	9.1838e+01	3.2149	59.808147	0.000709	7.094538	2.403695	-0.000284
 925	9.1938e+01	3.1892	59.517474	0.000730	7.297240	2.472372	-0.000292
 926	9.2037e+01	3.1491	59.246986	0.000679	6.790487	2.300679	-0.000272
 927	9.2137e+01	3.0930	58.956312	0.000730	7.297240	2.472372	-0.000292
 928	9.2237e+01	3.0609	58.661601	0.000740	7.398590	2.506710	-0.000296
 929	9.2336e+01	3.0288	58.366890	0.000740	7.398590	2.506710	-0.000296
 930	9.2436e+01	2.9871	58.076216	0.000730	7.297240	2.472372	-0.000292
 931	9.2535e+01	2.9422	57.785542	0.000730	7.297240	2.472372	-0.000292
 932	9.2635e+01	2.8988	57.515054	0.000679	6.790487	2.300679	-0.000272
 933	9.2734e+01	2.8587	57.208232	0.000770	7.702642	2.609726	-0.000308
 934	9.2834e+01	2.8234	56.921595	0.000720	7.195889	2.438033	-0.000288
 935	9.2933e+01	2.7849	56.626884	0.000740	7.398590	2.506710	-0.000296
 936	9.3032e+01	2.7497	56.316025	0.000780	7.803992	2.644064	-0.000312
 937	9.3132e+01	2.7015	56.029388	0.000720	7.195889	2.438033	-0.000288
 938	9.3231e+01	2.6678	55.730640	0.000750	7.499941	2.541049	-0.000300
 939	9.3331e+01	2.6213	55.464189	0.000669	6.689136	2.266341	-0.000268
 940	9.3430e+01	2.5940	55.157367	0.000770	7.702642	2.609726	-0.000308
 941	9.3530e+01	2.5427	54.838433	0.000801	8.006693	2.712741	-0.000321
 942	9.3629e+01	2.5042	54.559871	0.000699	6.993188	2.369356	-0.000280
 943	9.3729e+01	2.4689	54.236900	0.000811	8.108044	2.747080	-0.000325
 944	9.3829e+01	2.4288	53.966412	0.000679	6.790487	2.300679	-0.000272
 945	9.3928e+01	2.3807	53.699961	0.000669	6.689136	2.266341	-0.000268
 946	9.4028e+01	2.3406	53.385064	0.000791	7.905343	2.678403	-0.000316
 947	9.4127e+01	2.3037	53.066131	0.000801	8.006693	2.712741	-0.000321
 948	9.4227e+01	2.2620	52.815828	0.000628	6.283734	2.128987	-0.000252
 949	9.4326e+01	2.2267	52.476709	0.000851	8.513446	2.884434	-0.000341
 950	9.4425e+01	2.1785	52.198147	0.000699	6.993188	2.369356	-0.000280
 951	9.4525e+01	2.1465	51.903436	0.000740	7.398590	2.506710	-0.000296
 952	9.4624e+01	2.0983	51.580465	0.000811	8.108044	2.747080	-0.000325
 953	9.4724e+01	2.0679	51.314014	0.000669	6.689136	2.266341	-0.000268
 954	9.4823e+01	2.0245	51.019303	0.000740	7.398590	2.506710	-0.000296
 955	9.4923e+01	1.9876	50.728629	0.000730	7.297240	2.472372	-0.000292
 956	9.5022e+01	1.9427	50.409695	0.000801	8.006693	2.712741	-0.000321
 957	9.5122e+01	1.9122	50.135170	0.000689	6.891837	2.335018	-0.000276
 958	9.5222e+01	1.8641	49.832385	0.000760	7.601291	2.575387	-0.000304
 959	9.5321e+01	1.8192	49.529600	0.000760	7.601291	2.575387	-0.000304
 960	9.5421e+01	1.7871	49.210666	0.000801	8.006693	2.712741	-0.000321
 961	9.5520e+01	1.7470	48.968438	0.000608	6.081033	2.060310	-0.000243
 962	9.5620e+01	1.7069	48.621244	0.000872	8.716147	2.953111	-0.000349
 963	9.5719e+01	1.6684	48.338645	0.000709	7.094538	2.403695	-0.000284
 964	9.5819e+01	1.6203	48.039897	0.000750	7.499941	2.541049	-0.000300
 965	9.5918e+01	1.5802	47.700777	0.000851	8.513446	2.884434	-0.000341
 966	9.6017e+01	1.5545	47.438363	0.000659	6.587786	2.232002	-0.000264
 967	9.6117e+01	1.5080	47.151727	0.000720	7.195889	2.438033	-0.000288
 968	9.6216e+01	1.4743	46.844905	0.000770	7.702642	2.609726	-0.000308
 969	9.6316e+01	1.4310	46.534045	0.000780	7.803992	2.644064	-0.000312
 970	9.6415e+01	1.3828	46.259520	0.000689	6.891837	2.335018	-0.000276
 971	9.6515e+01	1.3427	45.932512	0.000821	8.209395	2.781418	-0.000329
 972	9.6615e+01	1.2994	45.641838	0.000730	7.297240	2.472372	-0.000292
 973	9.6714e+01	1.2657	45.339053	0.000760	7.601291	2.575387	-0.000304
 974	9.6814e+01	1.2321	45.040305	0.000750	7.499941	2.541049	-0.000300
 975	9.6913e+01	1.1887	44.761742	0.000699	6.993188	2.369356	-0.000280
 976	9.7013e+01	1.1422	44.406475	0.000892	8.918848	3.021788	-0.000357
 977	9.7112e+01	1.1085	44.135986	0.000679	6.790487	2.300679	-0.000272
 978	9.7212e+01	1.0716	43.837238	0.000750	7.499941	2.541049	-0.000300
 979	9.7311e+01	1.0283	43.518305	0.000801	8.006693	2.712741	-0.000321
 980	9.7410e+01	0.9946	43.239742	0.000699	6.993188	2.369356	-0.000280
 981	9.7510e+01	0.9529	42.904660	0.000841	8.412096	2.850095	-0.000337
 982	9.7609e+01	0.9096	42.650321	0.000639	6.385085	2.163325	-0.000256
 983	9.7709e+01	0.8743	42.347535	0.000760	7.601291	2.575387	-0.000304
 984	9.7808e+01	0.8374	42.012453	0.000841	8.412096	2.850095	-0.000337
 985	9.7908e+01	0.7909	41.693519	0.000801	8.006693	2.712741	-0.000321
 986	9.8007e+01	0.7444	41.410920	0.000709	7.094538	2.403695	-0.000284
 987	9.8107e+01	0.7010	41.096023	0.000791	7.905343	2.678403	-0.000316
 988	9.8207e+01	0.6658	40.805349	0.000730	7.297240	2.472372	-0.000292
 989	9.8306e+01	0.6240	40.474304	0.000831	8.310745	2.815757	-0.000333
 990	9.8406e+01	0.5855	40.183631	0.000730	7.297240	2.472372	-0.000292
 991	9.8505e+01	0.5454	39.892957	0.000730	7.297240	2.472372	-0.000292
 992	9.8605e+01	0.5053	39.582097	0.000780	7.803992	2.644064	-0.000312
 993	9.8704e+01	0.4700	39.263164	0.000801	8.006693	2.712741	-0.000321
 994	9.8803e+01	0.4315	39.000750	0.000659	6.587786	2.232002	-0.000264
 995	9.8903e+01	0.3882	38.661630	0.000851	8.513446	2.884434	-0.000341
 996	9.9002e+01	0.3593	38.366919	0.000740	7.398590	2.506710	-0.000296
 997	9.9102e+01	0.3112	38.076246	0.000730	7.297240	2.472372	-0.000292
 998	9.9201e+01	0.2695	37.777498	0.000750	7.499941	2.541049	-0.000300
 999	9.9301e+01	0.2310	37.442415	0.000841	8.412096	2.850095	-0.000337
1000	9.9400e+01	0.1909	37.135593	0.000770	7.702642	2.609726	-0.000308
1001	9.9500e+01	0.1540	36.852994	0.000709	7.094538	2.403695	-0.000284
1002	9.9600e+01	0.1107	36.530023	0.000811	8.108044	2.747080	-0.000325
1003	9.9699e+01	0.0738	36.223200	0.000770	7.702642	2.609726	-0.000308
1004	9.9799e+01	0.0337	35.956749	0.000669	6.689136	2.266341	-0.000268
1005	9.9898e+01	0.0016	35.690298	0.000669	6.689136	2.266341	-0.000268
1006	9.9998e+01	-0.0401	35.391550	0.000750	7.499941	2.541049	-0.000300
1007	1.0010e+02	-0.0706	35.068580	0.000811	8.108044	2.747080	-0.000325
1008	1.0020e+02	-0.1235	34.749646	0.000801	8.006693	2.712741	-0.000321
1009	1.0030e+02	-0.1652	34.483195	0.000669	6.689136	2.266341	-0.000268
1010	1.0040e+02	-0.2086	34.156187	0.000821	8.209395	2.781418	-0.000329
1011	1.0050e+02	-0.2358	33.869550	0.000720	7.195889	2.438033	-0.000288
1012	1.0059e+02	-0.2727	33.558691	0.000780	7.803992	2.644064	-0.000312
1013	1.0069e+02	-0.3225	33.243794	0.000791	7.905343	2.678403	-0.000316
1014	1.0079e+02	-0.3561	32.941009	0.000760	7.601291	2.575387	-0.000304
1015	1.0089e+02	-0.4059	32.634187	0.000770	7.702642	2.609726	-0.000308
1016	1.0099e+02	-0.4396	32.331402	0.000760	7.601291	2.575387	-0.000304
1017	1.0109e+02	-0.4716	32.008431	0.000811	8.108044	2.747080	-0.000325
1018	1.0119e+02	-0.5182	31.721794	0.000720	7.195889	2.438033	-0.000288
1019	1.0129e+02	-0.5551	31.414972	0.000770	7.702642	2.609726	-0.000308
1020	1.0139e+02	-0.6048	31.116224	0.000750	7.499941	2.541049	-0.000300
1021	1.0149e+02	-0.6337	30.825550	0.000730	7.297240	2.472372	-0.000292
1022	1.0159e+02	-0.6754	30.466245	0.000902	9.020199	3.056126	-0.000361
1023	1.0169e+02	-0.7187	30.244202	0.000557	5.574280	1.888617	-0.000223
1024	1.0179e+02	-0.7540	29.864712	0.000953	9.526952	3.227819	-0.000381
1025	1.0189e+02	-0.7941	29.610372	0.000639	6.385085	2.163325	-0.000256
1026	1.0199e+02	-0.8374	29.255104	0.000892	8.918848	3.021788	-0.000357
1027	1.0209e+02	-0.8775	28.984616	0.000679	6.790487	2.300679	-0.000272
1028	1.0219e+02	-0.9160	28.661645	0.000811	8.108044	2.747080	-0.000325
1029	1.0229e+02	-0.9641	28.383083	0.000699	6.993188	2.369356	-0.000280
1030	1.0239e+02	-0.9962	28.048001	0.000841	8.412096	2.850095	-0.000337
1031	1.0248e+02	-1.0347	27.733104	0.000791	7.905343	2.678403	-0.000316
1032	1.0258e+02	-1.0732	27.466653	0.000669	6.689136	2.266341	-0.000268
1033	1.0268e+02	-1.1101	27.099274	0.000922	9.222900	3.124803	-0.000369
1034	1.0278e+02	-1.1550	26.832823	0.000669	6.689136	2.266341	-0.000268
1035	1.0288e+02	-1.2016	26.509852	0.000811	8.108044	2.747080	-0.000325
1036	1.0298e+02	-1.2385	26.259549	0.000628	6.283734	2.128987	-0.000252
1037	1.0308e+02	-1.2754	25.904281	0.000892	8.918848	3.021788	-0.000357
1038	1.0318e+02	-1.3139	25.617645	0.000720	7.195889	2.438033	-0.000288
1039	1.0328e+02	-1.3556	25.274488	0.000861	8.614797	2.918772	-0.000345
1040	1.0338e+02	-1.4021	24.999963	0.000689	6.891837	2.335018	-0.000276
1041	1.0348e+02	-1.4358	24.672955	0.000821	8.209395	2.781418	-0.000329
1042	1.0358e+02	-1.4727	24.378244	0.000740	7.398590	2.506710	-0.000296
1043	1.0368e+02	-1.5160	24.075459	0.000760	7.601291	2.575387	-0.000304
1044	1.0378e+02	-1.5336	23.752488	0.000811	8.108044	2.747080	-0.000325
1045	1.0388e+02	-1.5962	23.469889	0.000709	7.094538	2.403695	-0.000284
1046	1.0398e+02	-1.6379	23.167103	0.000760	7.601291	2.575387	-0.000304
1047	1.0408e+02	-1.6732	22.864318	0.000760	7.601291	2.575387	-0.000304
1048	1.0418e+02	-1.7101	22.541347	0.000811	8.108044	2.747080	-0.000325
1049	1.0428e+02	-1.7502	22.254711	0.000720	7.195889	2.438033	-0.000288
1050	1.0438e+02	-1.7919	21.976148	0.000699	6.993188	2.369356	-0.000280
1051	1.0447e+02	-1.8368	21.657215	0.000801	8.006693	2.712741	-0.000321
1052	1.0457e+02	-1.8641	21.354429	0.000760	7.601291	2.575387	-0.000304
1053	1.0467e+02	-1.9122	21.023384	0.000831	8.310745	2.815757	-0.000333
1054	1.0477e+02	-1.9459	20.740785	0.000709	7.094538	2.403695	-0.000284
1055	1.0487e+02	-1.9957	20.397628	0.000861	8.614797	2.918772	-0.000345
1056	1.0497e+02	-2.0261	20.123103	0.000689	6.891837	2.335018	-0.000276
1057	1.0507e+02	-2.0775	19.856652	0.000669	6.689136	2.266341	-0.000268
1058	1.0517e+02	-2.1128	19.537718	0.000801	8.006693	2.712741	-0.000321
1059	1.0527e+02	-2.1561	19.234933	0.000760	7.601291	2.575387	-0.000304
1060	1.0537e+02	-2.1994	18.928111	0.000770	7.702642	2.609726	-0.000308
1061	1.0547e+02	-2.2363	18.661660	0.000669	6.689136	2.266341	-0.000268
1062	1.0557e+02	-2.2748	18.322541	0.000851	8.513446	2.884434	-0.000341
1063	1.0567e+02	-2.3053	18.027830	0.000740	7.398590	2.506710	-0.000296
1064	1.0577e+02	-2.3534	17.757342	0.000679	6.790487	2.300679	-0.000272
1065	1.0587e+02	-2.3855	17.414185	0.000861	8.614797	2.918772	-0.000345
1066	1.0597e+02	-2.4288	17.171957	0.000608	6.081033	2.060310	-0.000243
1067	1.0607e+02	-2.4753	16.877246	0.000740	7.398590	2.506710	-0.000296
1068	1.0617e+02	-2.5251	16.538127	0.000851	8.513446	2.884434	-0.000341
1069	1.0627e+02	-2.5523	16.223230	0.000791	7.905343	2.678403	-0.000316
1070	1.0637e+02	-2.5860	15.936593	0.000720	7.195889	2.438033	-0.000288
1071	1.0647e+02	-2.6325	15.678217	0.000649	6.486435	2.197664	-0.000260
1072	1.0656e+02	-2.6662	15.310837	0.000922	9.222900	3.124803	-0.000369
1073	1.0666e+02	-2.7079	15.036312	0.000689	6.891837	2.335018	-0.000276
1074	1.0676e+02	-2.7561	14.765824	0.000679	6.790487	2.300679	-0.000272
1075	1.0686e+02	-2.7946	14.438816	0.000821	8.209395	2.781418	-0.000329
1076	1.0696e+02	-2.8331	14.160254	0.000699	6.993188	2.369356	-0.000280
1077	1.0706e+02	-2.8652	13.869580	0.000730	7.297240	2.472372	-0.000292
1078	1.0716e+02	-2.9053	13.574869	0.000740	7.398590	2.506710	-0.000296
1079	1.0726e+02	-2.9566	13.247861	0.000821	8.209395	2.781418	-0.000329
1080	1.0736e+02	-2.9887	12.985447	0.000659	6.587786	2.232002	-0.000264
1081	1.0746e+02	-3.0304	12.658439	0.000821	8.209395	2.781418	-0.000329
1082	1.0756e+02	-3.0721	12.359691	0.000750	7.499941	2.541049	-0.000300
1083	1.0766e+02	-3.1106	12.060943	0.000750	7.499941	2.541049	-0.000300
1084	1.0776e+02	-3.1523	11.802566	0.000649	6.486435	2.197664	-0.000260
1085	1.0786e+02	-3.1828	11.483633	0.000801	8.006693	2.712741	-0.000321
1086	1.0796e+02	-3.2309	11.180847	0.000760	7.601291	2.575387	-0.000304
1087	1.0806e+02	-3.2710	10.886137	0.000740	7.398590	2.506710	-0.000296
1088	1.0816e+02	-3.3095	10.579314	0.000770	7.702642	2.609726	-0.000308
1089	1.0826e+02	-3.3577	10.320938	0.000649	6.486435	2.197664	-0.000260
1090	1.0836e+02	-3.3946	9.969707	0.000882	8.817498	2.987449	-0.000353
1091	1.0845e+02	-3.4379	9.679033	0.000730	7.297240	2.472372	-0.000292
1092	1.0855e+02	-3.4619	9.420656	0.000649	6.486435	2.197664	-0.000260
1093	1.0865e+02	-3.5117	9.117871	0.000760	7.601291	2.575387	-0.000304
1094	1.0875e+02	-3.5405	8.774715	0.000861	8.614797	2.918772	-0.000345
1095	1.0885e+02	-3.5903	8.492115	0.000709	7.094538	2.403695	-0.000284
1096	1.0895e+02	-3.6368	8.221627	0.000679	6.790487	2.300679	-0.000272
1097	1.0905e+02	-3.6737	7.922879	0.000750	7.499941	2.541049	-0.000300
1098	1.0915e+02	-3.7106	7.656428	0.000669	6.689136	2.266341	-0.000268
1099	1.0925e+02	-3.7411	7.357680	0.000750	7.499941	2.541049	-0.000300
1100	1.0935e+02	-3.7876	7.062969	0.000740	7.398590	2.506710	-0.000296
1101	1.0945e+02	-3.8277	6.764221	0.000750	7.499941	2.541049	-0.000300
1102	1.0955e+02	-3.8614	6.481621	0.000709	7.094538	2.403695	-0.000284
1103	1.0965e+02	-3.9015	6.182873	0.000750	7.499941	2.541049	-0.000300
1104	1.0975e+02	-3.9448	5.888162	0.000740	7.398590	2.506710	-0.000296
1105	1.0985e+02	-3.9849	5.577303	0.000780	7.803992	2.644064	-0.000312
1106	1.0995e+02	-4.0218	5.262406	0.000791	7.905343	2.678403	-0.000316
1107	1.1005e+02	-4.0699	5.016141	0.000618	6.182384	2.094648	-0.000248
1108	1.1015e+02	-4.0956	4.721430	0.000740	7.398590	2.506710	-0.000296
1109	1.1025e+02	-4.1502	4.438831	0.000709	7.094538	2.403695	-0.000284
1110	1.1035e+02	-4.1870	4.140083	0.000750	7.499941	2.541049	-0.000300
1111	1.1044e+02	-4.2223	3.841335	0.000750	7.499941	2.541049	-0.000300
1112	1.1054e+02	-4.2608	3.542587	0.000750	7.499941	2.541049	-0.000300
1113	1.1064e+02	-4.3042	3.276136	0.000669	6.689136	2.266341	-0.000268
1114	1.1074e+02	-4.3491	2.949128	0.000821	8.209395	2.781418	-0.000329
1115	1.1084e+02	-4.3780	2.719011	0.000578	5.776981	1.957294	-0.000231
1116	1.1094e+02	-4.4309	2.379892	0.000851	8.513446	2.884434	-0.000341
1117	1.1104e+02	-4.4694	2.093255	0.000720	7.195889	2.438033	-0.000288
1118	1.1114e+02	-4.5015	1.822767	0.000679	6.790487	2.300679	-0.000272
1119	1.1124e+02	-4.5416	1.515944	0.000770	7.702642	2.609726	-0.000308
1120	1.1134e+02	-4.5769	1.261605	0.000639	6.385085	2.163325	-0.000256
1121	1.1144e+02	-4.6218	0.930560	0.000831	8.310745	2.815757	-0.000333
1122	1.1154e+02	-4.6603	0.656035	0.000689	6.891837	2.335018	-0.000276
1123	1.1164e+02	-4.6972	0.365361	0.000730	7.297240	2.472372	-0.000292
1124	1.1174e+02	-4.7357	0.066613	0.000750	7.499941	2.541049	-0.000300
1125	1.1184e+02	-4.7854	-0.220024	0.000720	7.195889	2.438033	-0.000288
1126	1.1194e+02	-4.8239	-0.506661	0.000720	7.195889	2.438033	-0.000288
1127	1.1204e+02	-4.8608	-0.789260	0.000709	7.094538	2.403695	-0.000284
1128	1.1214e+02	-4.9090	-1.067822	0.000699	6.993188	2.369356	-0.000280
1129	1.1224e+02	-4.9362	-1.386756	0.000801	8.006693	2.712741	-0.000321
1130	1.1234e+02	-4.9795	-1.677430	0.000730	7.297240	2.472372	-0.000292
1131	1.1244e+02	-5.0180	-1.960029	0.000709	7.094538	2.403695	-0.000284
1132	1.1253e+02	-5.0662	-2.262815	0.000760	7.601291	2.575387	-0.000304
1133	1.1263e+02	-5.0966	-2.517154	0.000639	6.385085	2.163325	-0.000256
1134	1.1273e+02	-5.1384	-2.803791	0.000720	7.195889	2.438033	-0.000288
1135	1.1283e+02	-5.1849	-3.122724	0.000801	8.006693	2.712741	-0.000321
1136	1.1293e+02	-5.2250	-3.409361	0.000720	7.195889	2.438033	-0.000288
1137	1.1303e+02	-5.2667	-3.675812	0.000669	6.689136	2.266341	-0.000268
1138	1.1313e+02	-5.2988	-3.958412	0.000709	7.094538	2.403695	-0.000284
1139	1.1323e+02	-5.3437	-4.253123	0.000740	7.398590	2.506710	-0.000296
1140	1.1333e+02	-5.3790	-4.547833	0.000740	7.398590	2.506710	-0.000296
1141	1.1343e+02	-5.4191	-4.830433	0.000709	7.094538	2.403695	-0.000284
1142	1.1353e+02	-5.4576	-5.133218	0.000760	7.601291	2.575387	-0.000304
1143	1.1363e+02	-5.5057	-5.440040	0.000770	7.702642	2.609726	-0.000308
1144	1.1373e+02	-5.5378	-5.686306	0.000618	6.182384	2.094648	-0.000248
1145	1.1383e+02	-5.5875	-5.985054	0.000750	7.499941	2.541049	-0.000300
1146	1.1393e+02	-5.6212	-6.275728	0.000730	7.297240	2.472372	-0.000292
1147	1.1403e+02	-5.6629	-6.554290	0.000699	6.993188	2.369356	-0.000280
1148	1.1413e+02	-5.6966	-6.849001	0.000740	7.398590	2.506710	-0.000296
1149	1.1423e+02	-5.7367	-7.151786	0.000760	7.601291	2.575387	-0.000304
1150	1.1433e+02	-5.7801	-7.450534	0.000750	7.499941	2.541049	-0.000300
1151	1.1442e+02	-5.8153	-7.696799	0.000618	6.182384	2.094648	-0.000248
1152	1.1452e+02	-5.8538	-7.999584	0.000760	7.601291	2.575387	-0.000304
1153	1.1462e+02	-5.9004	-8.294295	0.000740	7.398590	2.506710	-0.000296
1154	1.1472e+02	-5.9453	-8.576895	0.000709	7.094538	2.403695	-0.000284
1155	1.1482e+02	-5.9774	-8.855457	0.000699	6.993188	2.369356	-0.000280
1156	1.1492e+02	-6.0127	-9.162280	0.000770	7.702642	2.609726	-0.000308
1157	1.1502e+02	-6.0624	-9.444879	0.000709	7.094538	2.403695	-0.000284
1158	1.1512e+02	-6.0961	-9.719404	0.000689	6.891837	2.335018	-0.000276
1159	1.1522e+02	-6.1330	-10.006041	0.000720	7.195889	2.438033	-0.000288
1160	1.1532e+02	-6.1747	-10.284603	0.000699	6.993188	2.369356	-0.000280
1161	1.1542e+02	-6.2052	-10.595463	0.000780	7.803992	2.644064	-0.000312
1162	1.1552e+02	-6.2533	-10.882099	0.000720	7.195889	2.438033	-0.000288
1163	1.1562e+02	-6.2918	-11.136439	0.000639	6.385085	2.163325	-0.000256
1164	1.1572e+02	-6.3303	-11.455373	0.000801	8.006693	2.712741	-0.000321
1165	1.1582e+02	-6.3848	-11.697601	0.000608	6.081033	2.060310	-0.000243
1166	1.1592e+02	-6.4105	-12.000386	0.000760	7.601291	2.575387	-0.000304
1167	1.1602e+02	-6.4554	-12.214354	0.000537	5.371579	1.819940	-0.000215
1168	1.1612e+02	-6.4907	-12.537325	0.000811	8.108044	2.747080	-0.000325
1169	1.1622e+02	-6.5324	-12.811850	0.000689	6.891837	2.335018	-0.000276
1170	1.1632e+02	-6.5790	-13.110598	0.000750	7.499941	2.541049	-0.000300
1171	1.1642e+02	-6.6159	-13.393198	0.000709	7.094538	2.403695	-0.000284
1172	1.1651e+02	-6.6495	-13.683872	0.000730	7.297240	2.472372	-0.000292
1173	1.1661e+02	-6.6864	-13.922063	0.000598	5.979682	2.025971	-0.000239
1174	1.1671e+02	-6.7346	-14.212736	0.000730	7.297240	2.472372	-0.000292
1175	1.1681e+02	-6.7763	-14.487262	0.000689	6.891837	2.335018	-0.000276
1176	1.1691e+02	-6.8068	-14.781973	0.000740	7.398590	2.506710	-0.000296
1177	1.1701e+02	-6.8453	-15.052461	0.000679	6.790487	2.300679	-0.000272
1178	1.1711e+02	-6.8918	-15.355246	0.000760	7.601291	2.575387	-0.000304
1179	1.1721e+02	-6.9303	-15.637845	0.000709	7.094538	2.403695	-0.000284
1180	1.1731e+02	-6.9752	-15.896222	0.000649	6.486435	2.197664	-0.000260
1181	1.1741e+02	-7.0121	-16.182859	0.000720	7.195889	2.438033	-0.000288
1182	1.1751e+02	-7.0458	-16.457384	0.000689	6.891837	2.335018	-0.000276
1183	1.1761e+02	-7.0971	-16.784392	0.000821	8.209395	2.781418	-0.000329
1184	1.1771e+02	-7.1356	-17.010471	0.000568	5.675631	1.922956	-0.000227
1185	1.1781e+02	-7.1645	-17.317294	0.000770	7.702642	2.609726	-0.000308
1186	1.1791e+02	-7.2142	-17.636227	0.000801	8.006693	2.712741	-0.000321
1187	1.1801e+02	-7.2479	-17.846159	0.000527	5.270229	1.785602	-0.000211
1188	1.1811e+02	-7.2848	-18.140869	0.000740	7.398590	2.506710	-0.000296
1189	1.1821e+02	-7.3313	-18.455766	0.000791	7.905343	2.678403	-0.000316
1190	1.1831e+02	-7.3634	-18.726254	0.000679	6.790487	2.300679	-0.000272
1191	1.1841e+02	-7.4035	-19.016928	0.000730	7.297240	2.472372	-0.000292
1192	1.1850e+02	-7.4452	-19.275305	0.000649	6.486435	2.197664	-0.000260
1193	1.1860e+02	-7.4886	-19.565978	0.000730	7.297240	2.472372	-0.000292
1194	1.1870e+02	-7.5206	-19.840504	0.000689	6.891837	2.335018	-0.000276
1195	1.1880e+02	-7.5656	-20.127140	0.000720	7.195889	2.438033	-0.000288
1196	1.1890e+02	-7.6073	-20.369368	0.000608	6.081033	2.060310	-0.000243
1197	1.1900e+02	-7.6426	-20.668116	0.000750	7.499941	2.541049	-0.000300
1198	1.1910e+02	-7.6923	-20.926493	0.000649	6.486435	2.197664	-0.000260
1199	1.1920e+02	-7.7260	-21.201018	0.000689	6.891837	2.335018	-0.000276
1200	1.1930e+02	-7.7709	-21.431135	0.000578	5.776981	1.957294	-0.000231
1201	1.1940e+02	-7.8126	-21.786403	0.000892	8.918848	3.021788	-0.000357
1202	1.1950e+02	-7.8447	-22.056891	0.000679	6.790487	2.300679	-0.000272
1203	1.1960e+02	-7.8912	-22.315268	0.000649	6.486435	2.197664	-0.000260
1204	1.1970e+02	-7.9201	-22.553459	0.000598	5.979682	2.025971	-0.000239
1205	1.1980e+02	-7.9634	-22.823947	0.000679	6.790487	2.300679	-0.000272
1206	1.1990e+02	-8.0164	-23.146918	0.000811	8.108044	2.747080	-0.000325
1207	1.2000e+02	-8.0500	-23.461814	0.000791	7.905343	2.678403	-0.000316
1208	1.2010e+02	-8.0901	-23.679820	0.000547	5.472930	1.854279	-0.000219
1209	1.2020e+02	-8.1303	-23.922048	0.000608	6.081033	2.060310	-0.000243
1210	1.2030e+02	-8.1655	-24.196573	0.000689	6.891837	2.335018	-0.000276
1211	1.2039e+02	-8.2057	-24.523581	0.000821	8.209395	2.781418	-0.000329
1212	1.2049e+02	-8.2425	-24.757735	0.000588	5.878332	1.991633	-0.000235
1213	1.2059e+02	-8.2907	-25.052446	0.000740	7.398590	2.506710	-0.000296
1214	1.2069e+02	-8.3276	-25.302748	0.000628	6.283734	2.128987	-0.000252
1215	1.2079e+02	-8.3613	-25.569199	0.000669	6.689136	2.266341	-0.000268
1216	1.2089e+02	-8.4078	-25.851799	0.000709	7.094538	2.403695	-0.000284
1217	1.2099e+02	-8.4367	-26.069804	0.000547	5.472930	1.854279	-0.000219
1218	1.2109e+02	-8.4896	-26.376626	0.000770	7.702642	2.609726	-0.000308
1219	1.2119e+02	-8.5313	-26.659226	0.000709	7.094538	2.403695	-0.000284
1220	1.2129e+02	-8.5618	-26.905491	0.000618	6.182384	2.094648	-0.000248
1221	1.2139e+02	-8.5955	-27.180016	0.000689	6.891837	2.335018	-0.000276
1222	1.2149e+02	-8.6388	-27.422245	0.000608	6.081033	2.060310	-0.000243
1223	1.2159e+02	-8.6805	-27.700807	0.000699	6.993188	2.369356	-0.000280
1224	1.2169e+02	-8.7270	-27.959184	0.000649	6.486435	2.197664	-0.000260
1225	1.2179e+02	-8.7575	-28.233709	0.000689	6.891837	2.335018	-0.000276
1226	1.2189e+02	-8.7928	-28.520345	0.000720	7.195889	2.438033	-0.000288
1227	1.2199e+02	-8.8393	-28.746425	0.000568	5.675631	1.922956	-0.000227
1228	1.2209e+02	-8.8826	-29.020950	0.000689	6.891837	2.335018	-0.000276
1229	1.2219e+02	-8.9324	-29.299513	0.000699	6.993188	2.369356	-0.000280
1230	1.2229e+02	-8.9645	-29.574038	0.000689	6.891837	2.335018	-0.000276
1231	1.2239e+02	-9.0078	-29.804155	0.000578	5.776981	1.957294	-0.000231
1232	1.2248e+02	-9.0575	-30.062531	0.000649	6.486435	2.197664	-0.000260
1233	1.2258e+02	-9.0800	-30.393576	0.000831	8.310745	2.815757	-0.000333
1234	1.2268e+02	-9.1153	-30.635805	0.000608	6.081033	2.060310	-0.000243
1235	1.2278e+02	-9.1666	-30.894181	0.000649	6.486435	2.197664	-0.000260
1236	1.2288e+02	-9.2035	-31.148521	0.000639	6.385085	2.163325	-0.000256
1237	1.2298e+02	-9.2484	-31.427083	0.000699	6.993188	2.369356	-0.000280
1238	1.2308e+02	-9.2853	-31.661237	0.000588	5.878332	1.991633	-0.000235
1239	1.2318e+02	-9.3174	-31.959985	0.000750	7.499941	2.541049	-0.000300
1240	1.2328e+02	-9.3655	-32.206250	0.000618	6.182384	2.094648	-0.000248
1241	1.2338e+02	-9.4024	-32.472701	0.000669	6.689136	2.266341	-0.000268
1242	1.2348e+02	-9.4409	-32.739152	0.000669	6.689136	2.266341	-0.000268
1243	1.2358e+02	-9.4874	-32.981380	0.000608	6.081033	2.060310	-0.000243
1244	1.2368e+02	-9.5211	-33.219571	0.000598	5.979682	2.025971	-0.000239
1245	1.2378e+02	-9.5660	-33.510245	0.000730	7.297240	2.472372	-0.000292
1246	1.2388e+02	-9.5981	-33.768622	0.000649	6.486435	2.197664	-0.000260
1247	1.2398e+02	-9.6479	-34.026999	0.000649	6.486435	2.197664	-0.000260
1248	1.2408e+02	-9.6783	-34.257115	0.000578	5.776981	1.957294	-0.000231
1249	1.2418e+02	-9.7249	-34.531641	0.000689	6.891837	2.335018	-0.000276
1250	1.2428e+02	-9.7585	-34.798091	0.000669	6.689136	2.266341	-0.000268
1251	1.2438e+02	-9.8003	-35.068580	0.000679	6.790487	2.300679	-0.000272
1252	1.2447e+02	-9.8436	-35.294659	0.000568	5.675631	1.922956	-0.000227
1253	1.2457e+02	-9.8773	-35.561110	0.000669	6.689136	2.266341	-0.000268
1254	1.2467e+02	-9.9222	-35.803338	0.000608	6.081033	2.060310	-0.000243
1255	1.2477e+02	-9.9671	-36.106123	0.000760	7.601291	2.575387	-0.000304
1256	1.2487e+02	-10.0072	-36.324129	0.000547	5.472930	1.854279	-0.000219
1257	1.2497e+02	-10.0441	-36.594617	0.000679	6.790487	2.300679	-0.000272
1258	1.2507e+02	-10.0794	-36.844919	0.000628	6.283734	2.128987	-0.000252
1259	1.2517e+02	-10.1243	-37.107333	0.000659	6.587786	2.232002	-0.000264
1260	1.2527e+02	-10.1580	-37.361673	0.000639	6.385085	2.163325	-0.000256
1261	1.2537e+02	-10.1917	-37.607938	0.000618	6.182384	2.094648	-0.000248
1262	1.2547e+02	-10.2350	-37.858240	0.000628	6.283734	2.128987	-0.000252
1263	1.2557e+02	-10.2815	-38.104506	0.000618	6.182384	2.094648	-0.000248
1264	1.2567e+02	-10.3152	-38.370957	0.000669	6.689136	2.266341	-0.000268
1265	1.2577e+02	-10.3585	-38.661630	0.000730	7.297240	2.472372	-0.000292
1266	1.2587e+02	-10.3970	-38.899821	0.000598	5.979682	2.025971	-0.000239
1267	1.2597e+02	-10.4291	-39.109752	0.000527	5.270229	1.785602	-0.000211
1268	1.2607e+02	-10.4805	-39.384278	0.000689	6.891837	2.335018	-0.000276
1269	1.2617e+02	-10.5190	-39.598246	0.000537	5.371579	1.819940	-0.000215
1270	1.2627e+02	-10.5639	-39.872771	0.000689	6.891837	2.335018	-0.000276
1271	1.2636e+02	-10.5879	-40.139222	0.000669	6.689136	2.266341	-0.000268
1272	1.2646e+02	-10.6409	-40.389524	0.000628	6.283734	2.128987	-0.000252
1273	1.2656e+02	-10.6858	-40.655975	0.000669	6.689136	2.266341	-0.000268
1274	1.2666e+02	-10.7147	-40.902241	0.000618	6.182384	2.094648	-0.000248
1275	1.2676e+02	-10.7564	-41.168692	0.000669	6.689136	2.266341	-0.000268
1276	1.2686e+02	-10.7997	-41.410920	0.000608	6.081033	2.060310	-0.000243
1277	1.2696e+02	-10.8366	-41.649111	0.000598	5.979682	2.025971	-0.000239
1278	1.2706e+02	-10.8719	-41.891339	0.000608	6.081033	2.060310	-0.000243
1279	1.2716e+02	-10.9136	-42.125493	0.000588	5.878332	1.991633	-0.000235
1280	1.2726e+02	-10.9585	-42.387907	0.000659	6.587786	2.232002	-0.000264
1281	1.2736e+02	-10.9970	-42.609949	0.000557	5.574280	1.888617	-0.000223
1282	1.2746e+02	-11.0387	-42.896586	0.000720	7.195889	2.438033	-0.000288
1283	1.2756e+02	-11.0772	-43.154962	0.000649	6.486435	2.197664	-0.000260
1284	1.2766e+02	-11.1205	-43.360856	0.000517	5.168878	1.751263	-0.000207
1285	1.2776e+02	-11.1526	-43.663642	0.000760	7.601291	2.575387	-0.000304
1286	1.2786e+02	-11.2088	-43.930093	0.000669	6.689136	2.266341	-0.000268
1287	1.2796e+02	-11.2296	-44.135986	0.000517	5.168878	1.751263	-0.000207
1288	1.2806e+02	-11.2778	-44.386289	0.000628	6.283734	2.128987	-0.000252
1289	1.2816e+02	-11.3211	-44.644666	0.000649	6.486435	2.197664	-0.000260
1290	1.2826e+02	-11.3564	-44.874782	0.000578	5.776981	1.957294	-0.000231
1291	1.2835e+02	-11.3820	-45.133159	0.000649	6.486435	2.197664	-0.000260
1292	1.2845e+02	-11.4430	-45.375387	0.000608	6.081033	2.060310	-0.000243
1293	1.2855e+02	-11.4671	-45.605504	0.000578	5.776981	1.957294	-0.000231
1294	1.2865e+02	-11.5120	-45.871955	0.000669	6.689136	2.266341	-0.000268
1295	1.2875e+02	-11.5553	-46.126294	0.000639	6.385085	2.163325	-0.000256
1296	1.2885e+02	-11.5858	-46.348337	0.000557	5.574280	1.888617	-0.000223
1297	1.2895e+02	-11.6275	-46.570379	0.000557	5.574280	1.888617	-0.000223
1298	1.2905e+02	-11.6676	-46.828756	0.000649	6.486435	2.197664	-0.000260
1299	1.2915e+02	-11.7205	-47.115393	0.000720	7.195889	2.438033	-0.000288
1300	1.2925e+02	-11.7510	-47.333398	0.000547	5.472930	1.854279	-0.000219
1301	1.2935e+02	-11.7895	-47.587738	0.000639	6.385085	2.163325	-0.000256
1302	1.2945e+02	-11.8360	-47.825929	0.000598	5.979682	2.025971	-0.000239
1303	1.2955e+02	-11.8713	-48.072194	0.000618	6.182384	2.094648	-0.000248
1304	1.2965e+02	-11.9098	-48.318459	0.000618	6.182384	2.094648	-0.000248
1305	1.2975e+02	-11.9483	-48.584910	0.000669	6.689136	2.266341	-0.000268
1306	1.2985e+02	-11.9804	-48.810990	0.000568	5.675631	1.922956	-0.000227
1307	1.2995e+02	-12.0414	-49.061292	0.000628	6.283734	2.128987	-0.000252
1308	1.3005e+02	-12.0670	-49.319669	0.000649	6.486435	2.197664	-0.000260
1309	1.3015e+02	-12.1104	-49.569971	0.000628	6.283734	2.128987	-0.000252
1310	1.3025e+02	-12.1537	-49.824311	0.000639	6.385085	2.163325	-0.000256
1311	1.3034e+02	-12.1825	-50.042316	0.000547	5.472930	1.854279	-0.000219
1312	1.3044e+02	-12.2323	-50.304730	0.000659	6.587786	2.232002	-0.000264
1313	1.3054e+02	-12.2692	-50.526772	0.000557	5.574280	1.888617	-0.000223
1314	1.3064e+02	-12.3157	-50.789186	0.000659	6.587786	2.232002	-0.000264
1315	1.3074e+02	-12.3494	-50.999117	0.000527	5.270229	1.785602	-0.000211
1316	1.3084e+02	-12.3879	-51.273642	0.000689	6.891837	2.335018	-0.000276
1317	1.3094e+02	-12.4312	-51.527982	0.000639	6.385085	2.163325	-0.000256
1318	1.3104e+02	-12.4713	-51.745987	0.000547	5.472930	1.854279	-0.000219
1319	1.3114e+02	-12.5098	-52.008401	0.000659	6.587786	2.232002	-0.000264
1320	1.3124e+02	-12.5467	-52.262741	0.000639	6.385085	2.163325	-0.000256
1321	1.3134e+02	-12.5868	-52.492857	0.000578	5.776981	1.957294	-0.000231
1322	1.3144e+02	-12.6221	-52.731048	0.000598	5.979682	2.025971	-0.000239
1323	1.3154e+02	-12.6686	-52.965202	0.000588	5.878332	1.991633	-0.000235
1324	1.3164e+02	-12.7087	-53.203393	0.000598	5.979682	2.025971	-0.000239
1325	1.3174e+02	-12.7520	-53.449659	0.000618	6.182384	2.094648	-0.000248
1326	1.3184e+02	-12.7777	-53.724184	0.000689	6.891837	2.335018	-0.000276
1327	1.3194e+02	-12.8323	-53.970449	0.000618	6.182384	2.094648	-0.000248
1328	1.3204e+02	-12.8724	-54.200566	0.000578	5.776981	1.957294	-0.000231
1329	1.3214e+02	-12.9044	-54.414534	0.000537	5.371579	1.819940	-0.000215
1330	1.3224e+02	-12.9462	-54.660799	0.000618	6.182384	2.094648	-0.000248
1331	1.3234e+02	-12.9815	-54.903027	0.000608	6.081033	2.060310	-0.000243
1332	1.3243e+02	-13.0183	-55.129107	0.000568	5.675631	1.922956	-0.000227
1333	1.3253e+02	-13.0697	-55.395558	0.000669	6.689136	2.266341	-0.000268
1334	1.3263e+02	-13.1018	-55.621638	0.000568	5.675631	1.922956	-0.000227
1335	1.3273e+02	-13.1499	-55.871940	0.000628	6.283734	2.128987	-0.000252
1336	1.3283e+02	-13.1884	-56.106094	0.000588	5.878332	1.991633	-0.000235
1337	1.3293e+02	-13.2365	-56.356396	0.000628	6.283734	2.128987	-0.000252
1338	1.3303e+02	-13.2606	-56.574402	0.000547	5.472930	1.854279	-0.000219
1339	1.3313e+02	-13.3007	-56.844890	0.000679	6.790487	2.300679	-0.000272
1340	1.3323e+02	-13.3424	-57.050784	0.000517	5.168878	1.751263	-0.000207
1341	1.3333e+02	-13.3793	-57.305123	0.000639	6.385085	2.163325	-0.000256
1342	1.3343e+02	-13.4306	-57.515054	0.000527	5.270229	1.785602	-0.000211
1343	1.3353e+02	-13.4675	-57.785542	0.000679	6.790487	2.300679	-0.000272
1344	1.3363e+02	-13.5028	-58.007585	0.000557	5.574280	1.888617	-0.000223
1345	1.3373e+02	-13.5461	-58.269999	0.000659	6.587786	2.232002	-0.000264
1346	1.3383e+02	-13.5862	-58.520301	0.000628	6.283734	2.128987	-0.000252
1347	1.3393e+02	-13.6183	-58.754455	0.000588	5.878332	1.991633	-0.000235
1348	1.3403e+02	-13.6729	-58.992646	0.000598	5.979682	2.025971	-0.000239
1349	1.3413e+02	-13.7001	-59.202577	0.000527	5.270229	1.785602	-0.000211
1350	1.3423e+02	-13.7451	-59.456917	0.000639	6.385085	2.163325	-0.000256
1351	1.3432e+02	-13.7836	-59.747590	0.000730	7.297240	2.472372	-0.000292
1352	1.3442e+02	-13.8221	-59.925224	0.000446	4.459424	1.510894	-0.000179
1353	1.3452e+02	-13.8638	-60.203787	0.000699	6.993188	2.369356	-0.000280
1354	1.3462e+02	-13.9039	-60.429866	0.000568	5.675631	1.922956	-0.000227
1355	1.3472e+02	-13.9424	-60.659983	0.000578	5.776981	1.957294	-0.000231
1356	1.3482e+02	-13.9825	-60.918360	0.000649	6.486435	2.197664	-0.000260
1357	1.3492e+02	-14.0178	-61.104068	0.000466	4.662125	1.579571	-0.000187
1358	1.3502e+02	-14.0515	-61.346296	0.000608	6.081033	2.060310	-0.000243
1359	1.3512e+02	-14.1044	-61.661193	0.000791	7.905343	2.678403	-0.000316
1360	1.3522e+02	-14.1429	-61.850938	0.000476	4.763476	1.613909	-0.000191
1361	1.3532e+02	-14.1814	-62.089129	0.000598	5.979682	2.025971	-0.000239
1362	1.3542e+02	-14.2247	-62.331357	0.000608	6.081033	2.060310	-0.000243
1363	1.3552e+02	-14.2664	-62.613957	0.000709	7.094538	2.403695	-0.000284
1364	1.3562e+02	-14.3065	-62.807739	0.000486	4.864826	1.648248	-0.000195
1365	1.3572e+02	-14.3467	-63.041893	0.000588	5.878332	1.991633	-0.000235
1366	1.3582e+02	-14.3819	-63.259898	0.000547	5.472930	1.854279	-0.000219
1367	1.3592e+02	-14.4237	-63.506164	0.000618	6.182384	2.094648	-0.000248
1368	1.3602e+02	-14.4670	-63.756466	0.000628	6.283734	2.128987	-0.000252
1369	1.3612e+02	-14.4975	-63.982546	0.000568	5.675631	1.922956	-0.000227
1370	1.3622e+02	-14.5536	-64.212662	0.000578	5.776981	1.957294	-0.000231
1371	1.3631e+02	-14.5729	-64.462965	0.000628	6.283734	2.128987	-0.000252
1372	1.3641e+02	-14.6162	-64.664822	0.000507	5.067527	1.716925	-0.000203
1373	1.3651e+02	-14.6675	-64.943384	0.000699	6.993188	2.369356	-0.000280
1374	1.3661e+02	-14.7012	-65.173501	0.000578	5.776981	1.957294	-0.000231
1375	1.3671e+02	-14.7397	-65.391506	0.000547	5.472930	1.854279	-0.000219
1376	1.3681e+02	-14.7670	-65.637771	0.000618	6.182384	2.094648	-0.000248
1377	1.3691e+02	-14.8119	-65.871925	0.000588	5.878332	1.991633	-0.000235
1378	1.3701e+02	-14.8648	-66.126265	0.000639	6.385085	2.163325	-0.000256
1379	1.3711e+02	-14.8873	-66.340233	0.000537	5.371579	1.819940	-0.000215
1380	1.3721e+02	-14.9370	-66.574387	0.000588	5.878332	1.991633	-0.000235
1381	1.3731e+02	-14.9739	-66.816615	0.000608	6.081033	2.060310	-0.000243
1382	1.3741e+02	-15.0220	-67.042695	0.000568	5.675631	1.922956	-0.000227
1383	1.3751e+02	-15.0605	-67.260700	0.000547	5.472930	1.854279	-0.000219
1384	1.3761e+02	-15.0894	-67.470631	0.000527	5.270229	1.785602	-0.000211
1385	1.3771e+02	-15.1375	-67.733045	0.000659	6.587786	2.232002	-0.000264
1386	1.3781e+02	-15.1825	-67.995459	0.000659	6.587786	2.232002	-0.000264
1387	1.3791e+02	-15.2178	-68.173093	0.000446	4.459424	1.510894	-0.000179
1388	1.3801e+02	-15.2627	-68.427432	0.000639	6.385085	2.163325	-0.000256
1389	1.3811e+02	-15.3044	-68.653512	0.000568	5.675631	1.922956	-0.000227
1390	1.3821e+02	-15.3381	-68.887666	0.000588	5.878332	1.991633	-0.000235
1391	1.3831e+02	-15.3766	-69.089522	0.000507	5.067527	1.716925	-0.000203
1392	1.3840e+02	-15.4151	-69.323676	0.000588	5.878332	1.991633	-0.000235
1393	1.3850e+02	-15.4536	-69.537645	0.000537	5.371579	1.819940	-0.000215
1394	1.3860e+02	-15.4937	-69.767761	0.000578	5.776981	1.957294	-0.000231
1395	1.3870e+02	-15.5354	-70.046324	0.000699	6.993188	2.369356	-0.000280
1396	1.3880e+02	-15.5803	-70.264329	0.000547	5.472930	1.854279	-0.000219
1397	1.3890e+02	-15.6252	-70.474260	0.000527	5.270229	1.785602	-0.000211
1398	1.3900e+02	-15.6461	-70.732637	0.000649	6.486435	2.197664	-0.000260
1399	1.3910e+02	-15.7006	-70.958716	0.000568	5.675631	1.922956	-0.000227
1400	1.3920e+02	-15.7391	-71.180759	0.000557	5.574280	1.888617	-0.000223
1401	1.3930e+02	-15.7808	-71.431061	0.000628	6.283734	2.128987	-0.000252
1402	1.3940e+02	-15.8129	-71.661178	0.000578	5.776981	1.957294	-0.000231
1403	1.3950e+02	-15.8466	-71.907443	0.000618	6.182384	2.094648	-0.000248
1404	1.3960e+02	-15.8899	-72.105263	0.000497	4.966177	1.682586	-0.000199
1405	1.3970e+02	-15.9429	-72.315194	0.000527	5.270229	1.785602	-0.000211
1406	1.3980e+02	-15.9685	-72.545311	0.000578	5.776981	1.957294	-0.000231
1407	1.3990e+02	-16.0183	-72.783502	0.000598	5.979682	2.025971	-0.000239
1408	1.4000e+02	-16.0568	-72.997470	0.000537	5.371579	1.819940	-0.000215
1409	1.4010e+02	-16.1001	-73.227587	0.000578	5.776981	1.957294	-0.000231
1410	1.4020e+02	-16.1354	-73.461740	0.000588	5.878332	1.991633	-0.000235
1411	1.4029e+02	-16.1755	-73.683783	0.000557	5.574280	1.888617	-0.000223
1412	1.4039e+02	-16.2140	-73.921974	0.000598	5.979682	2.025971	-0.000239
1413	1.4049e+02	-16.2509	-74.135942	0.000537	5.371579	1.819940	-0.000215
1414	1.4059e+02	-16.2974	-74.398356	0.000659	6.587786	2.232002	-0.000264
1415	1.4069e+02	-16.3359	-74.648658	0.000628	6.283734	2.128987	-0.000252
1416	1.4079e+02	-16.3712	-74.846478	0.000497	4.966177	1.682586	-0.000199
1417	1.4089e+02	-16.4129	-75.104855	0.000649	6.486435	2.197664	-0.000260
1418	1.4099e+02	-16.4514	-75.282489	0.000446	4.459424	1.510894	-0.000179
1419	1.4109e+02	-16.4995	-75.540865	0.000649	6.486435	2.197664	-0.000260
1420	1.4119e+02	-16.5300	-75.779056	0.000598	5.979682	2.025971	-0.000239
1421	1.4129e+02	-16.5733	-76.009173	0.000578	5.776981	1.957294	-0.000231
1422	1.4139e+02	-16.6199	-76.231216	0.000557	5.574280	1.888617	-0.000223
1423	1.4149e+02	-16.6487	-76.461332	0.000578	5.776981	1.957294	-0.000231
1424	1.4159e+02	-16.6840	-76.735858	0.000689	6.891837	2.335018	-0.000276
1425	1.4169e+02	-16.7289	-76.913492	0.000446	4.459424	1.510894	-0.000179
1426	1.4179e+02	-16.7739	-77.183980	0.000679	6.790487	2.300679	-0.000272
1427	1.4189e+02	-16.8027	-77.414096	0.000578	5.776981	1.957294	-0.000231
1428	1.4199e+02	-16.8557	-77.636139	0.000557	5.574280	1.888617	-0.000223
1429	1.4209e+02	-16.8910	-77.874330	0.000598	5.979682	2.025971	-0.000239
1430	1.4219e+02	-16.9295	-78.096372	0.000557	5.574280	1.888617	-0.000223
1431	1.4228e+02	-16.9632	-78.338600	0.000608	6.081033	2.060310	-0.000243
1432	1.4238e+02	-17.0145	-78.548531	0.000527	5.270229	1.785602	-0.000211
1433	1.4248e+02	-17.0482	-78.782685	0.000588	5.878332	1.991633	-0.000235
1434	1.4258e+02	-17.0883	-79.073359	0.000730	7.297240	2.472372	-0.000292
1435	1.4268e+02	-17.1428	-79.242919	0.000426	4.256723	1.442217	-0.000170
1436	1.4278e+02	-17.1733	-79.485147	0.000608	6.081033	2.060310	-0.000243
1437	1.4288e+02	-17.2118	-79.723338	0.000598	5.979682	2.025971	-0.000239
1438	1.4298e+02	-17.2391	-79.961529	0.000598	5.979682	2.025971	-0.000239
1439	1.4308e+02	-17.3017	-80.183571	0.000557	5.574280	1.888617	-0.000223
1440	1.4318e+02	-17.3402	-80.409651	0.000568	5.675631	1.922956	-0.000227
1441	1.4328e+02	-17.3658	-80.676102	0.000669	6.689136	2.266341	-0.000268
1442	1.4338e+02	-17.4059	-80.910256	0.000588	5.878332	1.991633	-0.000235
1443	1.4348e+02	-17.4557	-81.148447	0.000598	5.979682	2.025971	-0.000239
1444	1.4358e+02	-17.5006	-81.358378	0.000527	5.270229	1.785602	-0.000211
1445	1.4368e+02	-17.5359	-81.620792	0.000659	6.587786	2.232002	-0.000264
1446	1.4378e+02	-17.5680	-81.858983	0.000598	5.979682	2.025971	-0.000239
1447	1.4388e+02	-17.6145	-82.109285	0.000628	6.283734	2.128987	-0.000252
1448	1.4398e+02	-17.6466	-82.327291	0.000547	5.472930	1.854279	-0.000219
1449	1.4408e+02	-17.6915	-82.593741	0.000669	6.689136	2.266341	-0.000268
1450	1.4418e+02	-17.7220	-82.795598	0.000507	5.067527	1.716925	-0.000203
1451	1.4428e+02	-17.7653	-83.041864	0.000618	6.182384	2.094648	-0.000248
1452	1.4437e+02	-17.8054	-83.324463	0.000709	7.094538	2.403695	-0.000284
1453	1.4447e+02	-17.8551	-83.590914	0.000669	6.689136	2.266341	-0.000268
1454	1.4457e+02	-17.8856	-83.792771	0.000507	5.067527	1.716925	-0.000203
1455	1.4467e+02	-17.9257	-84.039036	0.000618	6.182384	2.094648	-0.000248
1456	1.4477e+02	-17.9754	-84.297413	0.000649	6.486435	2.197664	-0.000260
1457	1.4487e+02	-18.0075	-84.535604	0.000598	5.979682	2.025971	-0.000239
1458	1.4497e+02	-18.0412	-84.781869	0.000618	6.182384	2.094648	-0.000248
1459	1.4507e+02	-18.0797	-84.983726	0.000507	5.067527	1.716925	-0.000203
1460	1.4517e+02	-18.1246	-85.258251	0.000689	6.891837	2.335018	-0.000276
1461	1.4527e+02	-18.1647	-85.492405	0.000588	5.878332	1.991633	-0.000235
1462	1.4537e+02	-18.2145	-85.783079	0.000730	7.297240	2.472372	-0.000292
1463	1.4547e+02	-18.2417	-86.069715	0.000720	7.195889	2.438033	-0.000288
1464	1.4557e+02	-18.2818	-86.263498	0.000486	4.864826	1.648248	-0.000195
1465	1.4567e+02	-18.3284	-86.546097	0.000709	7.094538	2.403695	-0.000284
1466	1.4577e+02	-18.3717	-86.804474	0.000649	6.486435	2.197664	-0.000260
1467	1.4587e+02	-18.3957	-87.006331	0.000507	5.067527	1.716925	-0.000203
1468	1.4597e+02	-18.4439	-87.276819	0.000679	6.790487	2.300679	-0.000272
1469	1.4607e+02	-18.4840	-87.559418	0.000709	7.094538	2.403695	-0.000284
1470	1.4617e+02	-18.5305	-87.821832	0.000659	6.587786	2.232002	-0.000264
1471	1.4626e+02	-18.5594	-88.092320	0.000679	6.790487	2.300679	-0.000272
1472	1.4636e+02	-18.6075	-88.342623	0.000628	6.283734	2.128987	-0.000252
1473	1.4646e+02	-18.6460	-88.592925	0.000628	6.283734	2.128987	-0.000252
1474	1.4656e+02	-18.6813	-88.863413	0.000679	6.790487	2.300679	-0.000272
1475	1.4666e+02	-18.7230	-89.125827	0.000659	6.587786	2.232002	-0.000264
1476	1.4676e+02	-18.7679	-89.436687	0.000780	7.803992	2.644064	-0.000312
1477	1.4686e+02	-18.8016	-89.670840	0.000588	5.878332	1.991633	-0.000235
1478	1.4696e+02	-18.8545	-89.929217	0.000649	6.486435	2.197664	-0.000260
1479	1.4706e+02	-18.8882	-90.211817	0.000709	7.094538	2.403695	-0.000284
1480	1.4716e+02	-18.9235	-90.514602	0.000760	7.601291	2.575387	-0.000304
1481	1.4726e+02	-18.9684	-90.748756	0.000588	5.878332	1.991633	-0.000235
1482	1.4736e+02	-19.0118	-91.035392	0.000720	7.195889	2.438033	-0.000288
1483	1.4746e+02	-19.0390	-91.309918	0.000689	6.891837	2.335018	-0.000276
1484	1.4756e+02	-19.0856	-91.608666	0.000750	7.499941	2.541049	-0.000300
1485	1.4766e+02	-19.1225	-91.846857	0.000598	5.979682	2.025971	-0.000239
1486	1.4776e+02	-19.1481	-92.149642	0.000760	7.601291	2.575387	-0.000304
1487	1.4786e+02	-19.2011	-92.420130	0.000679	6.790487	2.300679	-0.000272
1488	1.4796e+02	-19.2492	-92.686581	0.000669	6.689136	2.266341	-0.000268
1489	1.4806e+02	-19.2909	-92.961106	0.000689	6.891837	2.335018	-0.000276
1490	1.4816e+02	-19.3166	-93.259854	0.000750	7.499941	2.541049	-0.000300
1491	1.4825e+02	-19.3663	-93.542454	0.000709	7.094538	2.403695	-0.000284
1492	1.4835e+02	-19.4032	-93.825053	0.000709	7.094538	2.403695	-0.000284
1493	1.4845e+02	-19.4337	-94.164173	0.000851	8.513446	2.884434	-0.000341
1494	1.4855e+02	-19.4802	-94.398326	0.000588	5.878332	1.991633	-0.000235
1495	1.4865e+02	-19.5299	-94.676889	0.000699	6.993188	2.369356	-0.000280
1496	1.4875e+02	-19.5588	-95.032157	0.000892	8.918848	3.021788	-0.000357
1497	1.4885e+02	-19.6037	-95.274385	0.000608	6.081033	2.060310	-0.000243
1498	1.4895e+02	-19.6358	-95.597356	0.000811	8.108044	2.747080	-0.000325
1499	1.4905e+02	-19.6727	-95.867844	0.000679	6.790487	2.300679	-0.000272
1500	1.4915e+02	-19.7144	-96.166592	0.000750	7.499941	2.541049	-0.000300
1501	1.4925e+02	-19.7609	-96.481488	0.000791	7.905343	2.678403	-0.000316
1502	1.4935e+02	-19.7946	-96.764088	0.000709	7.094538	2.403695	-0.000284
1503	1.4945e+02	-19.8412	-97.087059	0.000811	8.108044	2.747080	-0.000325
1504	1.4955e+02	-19.8813	-97.385807	0.000750	7.499941	2.541049	-0.000300
1505	1.4965e+02	-19.9117	-97.696666	0.000780	7.803992	2.644064	-0.000312
1506	1.4975e+02	-19.9567	-98.031749	0.000841	8.412096	2.850095	-0.000337
1507	1.4985e+02	-19.9952	-98.334534	0.000760	7.601291	2.575387	-0.000304
1508	1.4995e+02	-19.9567	-98.286088	0.000122	1.216207	0.412062	0.000049
1509	1.5005e+02	-19.9133	-98.278014	0.000020	0.202701	0.068677	0.000008
1510	1.5015e+02	-19.8732	-98.257828	0.000051	0.506753	0.171692	0.000020
1511	1.5025e+02	-19.8460	-98.185160	0.000182	1.824310	0.618093	0.000073
1512	1.5034e+02	-19.7962	-98.181123	0.000010	0.101351	0.034338	0.000004
1513	1.5044e+02	-19.7658	-98.060009	0.000304	3.040516	1.030155	0.000122
1514	1.5054e+02	-19.7192	-98.023674	0.000091	0.912155	0.309046	0.000037
1515	1.5064e+02	-19.6711	-97.959080	0.000162	1.621609	0.549416	0.000065
1516	1.5074e+02	-19.6454	-97.882375	0.000193	1.925660	0.652431	0.000077
1517	1.5084e+02	-19.6085	-97.866226	0.000041	0.405402	0.137354	0.000016
1518	1.5094e+02	-19.5604	-97.737038	0.000324	3.243218	1.098832	0.000130
1519	1.5104e+02	-19.5187	-97.656295	0.000203	2.027011	0.686770	0.000081
1520	1.5114e+02	-19.4882	-97.559404	0.000243	2.432413	0.824124	0.000097
1521	1.5124e+02	-19.4417	-97.462512	0.000243	2.432413	0.824124	0.000097
1522	1.5134e+02	-19.4032	-97.377733	0.000213	2.128362	0.721108	0.000085
1523	1.5144e+02	-19.3599	-97.272767	0.000264	2.635114	0.892801	0.000105
1524	1.5154e+02	-19.3230	-97.212210	0.000152	1.520258	0.515077	0.000061
1525	1.5164e+02	-19.2797	-97.095133	0.000294	2.939166	0.995816	0.000118
1526	1.5174e+02	-19.2380	-96.969982	0.000314	3.141867	1.064493	0.000126
1527	1.5184e+02	-19.2075	-96.909425	0.000152	1.520258	0.515077	0.000061
1528	1.5194e+02	-19.1577	-96.764088	0.000365	3.648620	1.236186	0.000146
1529	1.5204e+02	-19.1144	-96.671234	0.000233	2.331063	0.789785	0.000093
1530	1.5214e+02	-19.0759	-96.566268	0.000264	2.635114	0.892801	0.000105
1531	1.5224e+02	-19.0422	-96.457266	0.000274	2.736465	0.927139	0.000110
1532	1.5233e+02	-19.0086	-96.283669	0.000436	4.358074	1.476555	0.000174
1533	1.5243e+02	-18.9652	-96.174666	0.000274	2.736465	0.927139	0.000110
1534	1.5253e+02	-18.9267	-96.097961	0.000193	1.925660	0.652431	0.000077
1535	1.5263e+02	-18.8866	-95.944549	0.000385	3.851321	1.304863	0.000154
1536	1.5273e+02	-18.8513	-95.843621	0.000253	2.533764	0.858462	0.000101
1537	1.5283e+02	-18.8064	-95.686173	0.000395	3.952671	1.339201	0.000158
1538	1.5293e+02	-18.7663	-95.593319	0.000233	2.331063	0.789785	0.000093
1539	1.5303e+02	-18.7230	-95.476242	0.000294	2.939166	0.995816	0.000118
1540	1.5313e+02	-18.6925	-95.326868	0.000375	3.749970	1.270524	0.000150
1541	1.5323e+02	-18.6412	-95.149234	0.000446	4.459424	1.510894	0.000179
1542	1.5333e+02	-18.6059	-95.044268	0.000264	2.635114	0.892801	0.000105
1543	1.5343e+02	-18.5690	-94.927191	0.000294	2.939166	0.995816	0.000118
1544	1.5353e+02	-18.5337	-94.793966	0.000334	3.344568	1.133170	0.000134
1545	1.5363e+02	-18.4824	-94.620369	0.000436	4.358074	1.476555	0.000174
1546	1.5373e+02	-18.4503	-94.487143	0.000334	3.344568	1.133170	0.000134
1547	1.5383e+02	-18.4054	-94.321621	0.000416	4.155373	1.407878	0.000166
1548	1.5393e+02	-18.3637	-94.220692	0.000253	2.533764	0.858462	0.000101
1549	1.5403e+02	-18.3252	-94.055170	0.000416	4.155373	1.407878	0.000166
1550	1.5413e+02	-18.2866	-93.934056	0.000304	3.040516	1.030155	0.000122
1551	1.5422e+02	-18.2465	-93.788719	0.000365	3.648620	1.236186	0.000146
1552	1.5432e+02	-18.2016	-93.631271	0.000395	3.952671	1.339201	0.000158
1553	1.5442e+02	-18.1760	-93.469785	0.000405	4.054022	1.373540	0.000162
1554	1.5452e+02	-18.1310	-93.304263	0.000416	4.155373	1.407878	0.000166
1555	1.5462e+02	-18.0861	-93.211408	0.000233	2.331063	0.789785	0.000093
1556	1.5472e+02	-18.0492	-93.021663	0.000476	4.763476	1.613909	0.000191
1557	1.5482e+02	-18.0075	-92.856141	0.000416	4.155373	1.407878	0.000166
1558	1.5492e+02	-17.9674	-92.698692	0.000395	3.952671	1.339201	0.000158
1559	1.5502e+02	-17.9257	-92.537207	0.000405	4.054022	1.373540	0.000162
1560	1.5512e+02	-17.8840	-92.375721	0.000405	4.054022	1.373540	0.000162
1561	1.5522e+02	-17.8471	-92.206162	0.000426	4.256723	1.442217	0.000170
1562	1.5532e+02	-17.8118	-92.040639	0.000416	4.155373	1.407878	0.000166
1563	1.5542e+02	-17.7685	-91.923562	0.000294	2.939166	0.995816	0.000118
1564	1.5552e+02	-17.7300	-91.705557	0.000547	5.472930	1.854279	0.000219
1565	1.5562e+02	-17.6883	-91.616740	0.000223	2.229712	0.755447	0.000089
1566	1.5572e+02	-17.6498	-91.479477	0.000345	3.445919	1.167509	0.000138
1567	1.5582e+02	-17.6097	-91.289732	0.000476	4.763476	1.613909	0.000191
1568	1.5592e+02	-17.5712	-91.156506	0.000334	3.344568	1.133170	0.000134
1569	1.5602e+02	-17.5246	-90.974835	0.000456	4.560775	1.545232	0.000183
1570	1.5612e+02	-17.4861	-90.853721	0.000304	3.040516	1.030155	0.000122
1571	1.5622e+02	-17.4524	-90.623604	0.000578	5.776981	1.957294	0.000231
1572	1.5631e+02	-17.4091	-90.458082	0.000416	4.155373	1.407878	0.000166
1573	1.5641e+02	-17.3722	-90.288522	0.000426	4.256723	1.442217	0.000170
1574	1.5651e+02	-17.3257	-90.139148	0.000375	3.749970	1.270524	0.000150
1575	1.5661e+02	-17.2936	-89.949403	0.000476	4.763476	1.613909	0.000191
1576	1.5671e+02	-17.2551	-89.800029	0.000375	3.749970	1.270524	0.000150
1577	1.5681e+02	-17.2102	-89.670840	0.000324	3.243218	1.098832	0.000130
1578	1.5691e+02	-17.1701	-89.456872	0.000537	5.371579	1.819940	0.000215
1579	1.5701e+02	-17.1412	-89.279238	0.000446	4.459424	1.510894	0.000179
1580	1.5711e+02	-17.0867	-89.125827	0.000385	3.851321	1.304863	0.000154
1581	1.5721e+02	-17.0498	-88.976453	0.000375	3.749970	1.270524	0.000150
1582	1.5731e+02	-17.0097	-88.754411	0.000557	5.574280	1.888617	0.000223
1583	1.5741e+02	-16.9632	-88.621185	0.000334	3.344568	1.133170	0.000134
1584	1.5751e+02	-16.9343	-88.447588	0.000436	4.358074	1.476555	0.000174
1585	1.5761e+02	-16.8974	-88.245732	0.000507	5.067527	1.716925	0.000203
1586	1.5771e+02	-16.8444	-88.092320	0.000385	3.851321	1.304863	0.000154
1587	1.5781e+02	-16.8156	-87.926798	0.000416	4.155373	1.407878	0.000166
1588	1.5791e+02	-16.7787	-87.745127	0.000456	4.560775	1.545232	0.000183
1589	1.5801e+02	-16.7305	-87.555381	0.000476	4.763476	1.613909	0.000191
1590	1.5811e+02	-16.6824	-87.410044	0.000365	3.648620	1.236186	0.000146
1591	1.5821e+02	-16.6487	-87.220299	0.000476	4.763476	1.613909	0.000191
1592	1.5830e+02	-16.6102	-87.066888	0.000385	3.851321	1.304863	0.000154
1593	1.5840e+02	-16.5733	-86.856957	0.000527	5.270229	1.785602	0.000211
1594	1.5850e+02	-16.5284	-86.687397	0.000426	4.256723	1.442217	0.000170
1595	1.5860e+02	-16.4931	-86.509763	0.000446	4.459424	1.510894	0.000179
1596	1.5870e+02	-16.4466	-86.336166	0.000436	4.358074	1.476555	0.000174
1597	1.5880e+02	-16.4113	-86.158532	0.000446	4.459424	1.510894	0.000179
1598	1.5890e+02	-16.3776	-85.960713	0.000497	4.966177	1.682586	0.000199
1599	1.5900e+02	-16.3247	-85.775004	0.000466	4.662125	1.579571	0.000187
1600	1.5910e+02	-16.2942	-85.649853	0.000314	3.141867	1.064493	0.000126
1601	1.5920e+02	-16.2509	-85.460108	0.000476	4.763476	1.613909	0.000191
1602	1.5930e+02	-16.2220	-85.238065	0.000557	5.574280	1.888617	0.000223
1603	1.5940e+02	-16.1659	-85.088691	0.000375	3.749970	1.270524	0.000150
1604	1.5950e+02	-16.1354	-84.923169	0.000416	4.155373	1.407878	0.000166
1605	1.5960e+02	-16.1001	-84.709201	0.000537	5.371579	1.819940	0.000215
1606	1.5970e+02	-16.0503	-84.523492	0.000466	4.662125	1.579571	0.000187
1607	1.5980e+02	-16.0118	-84.329710	0.000486	4.864826	1.648248	0.000195
1608	1.5990e+02	-15.9653	-84.135927	0.000486	4.864826	1.648248	0.000195
1609	1.6000e+02	-15.9397	-83.954256	0.000456	4.560775	1.545232	0.000183
1610	1.6010e+02	-15.8996	-83.792771	0.000405	4.054022	1.373540	0.000162
1611	1.6019e+02	-15.8610	-83.615137	0.000446	4.459424	1.510894	0.000179
1612	1.6029e+02	-15.8129	-83.393094	0.000557	5.574280	1.888617	0.000223
1613	1.6039e+02	-15.7857	-83.215460	0.000446	4.459424	1.510894	0.000179
1614	1.6049e+02	-15.7327	-83.070124	0.000365	3.648620	1.236186	0.000146
1615	1.6059e+02	-15.7054	-82.835970	0.000588	5.878332	1.991633	0.000235
1616	1.6069e+02	-15.6637	-82.710818	0.000314	3.141867	1.064493	0.000126
1617	1.6079e+02	-15.6188	-82.480702	0.000578	5.776981	1.957294	0.000231
1618	1.6089e+02	-15.5835	-82.299031	0.000456	4.560775	1.545232	0.000183
1619	1.6099e+02	-15.5402	-82.085062	0.000537	5.371579	1.819940	0.000215
1620	1.6109e+02	-15.5017	-81.943763	0.000355	3.547269	1.201847	0.000142
1621	1.6119e+02	-15.4648	-81.729794	0.000537	5.371579	1.819940	0.000215
1622	1.6129e+02	-15.4231	-81.628866	0.000253	2.533764	0.858462	0.000101
1623	1.6139e+02	-15.3702	-81.326081	0.000760	7.601291	2.575387	0.000304
1624	1.6149e+02	-15.3381	-81.164595	0.000405	4.054022	1.373540	0.000162
1625	1.6159e+02	-15.2964	-80.946590	0.000547	5.472930	1.854279	0.000219
1626	1.6169e+02	-15.2579	-80.785105	0.000405	4.054022	1.373540	0.000162
1627	1.6179e+02	-15.2161	-80.591322	0.000486	4.864826	1.648248	0.000195
1628	1.6189e+02	-15.1776	-80.413688	0.000446	4.459424	1.510894	0.000179
1629	1.6199e+02	-15.1407	-80.215869	0.000497	4.966177	1.682586	0.000199
1630	1.6209e+02	-15.0974	-80.046309	0.000426	4.256723	1.442217	0.000170
1631	1.6219e+02	-15.0621	-79.848489	0.000497	4.966177	1.682586	0.000199
1632	1.6228e+02	-15.0220	-79.666818	0.000456	4.560775	1.545232	0.000183
1633	1.6238e+02	-14.9787	-79.477073	0.000476	4.763476	1.613909	0.000191
1634	1.6248e+02	-14.9354	-79.238882	0.000598	5.979682	2.025971	0.000239
1635	1.6258e+02	-14.8921	-79.037025	0.000507	5.067527	1.716925	0.000203
1636	1.6268e+02	-14.8568	-78.911874	0.000314	3.141867	1.064493	0.000126
1637	1.6278e+02	-14.8263	-78.705980	0.000517	5.168878	1.751263	0.000207
1638	1.6288e+02	-14.7798	-78.532383	0.000436	4.358074	1.476555	0.000174
1639	1.6298e+02	-14.7429	-78.322452	0.000527	5.270229	1.785602	0.000211
1640	1.6308e+02	-14.7076	-78.185189	0.000345	3.445919	1.167509	0.000138
1641	1.6318e+02	-14.6531	-77.979295	0.000517	5.168878	1.751263	0.000207
1642	1.6328e+02	-14.6258	-77.801661	0.000446	4.459424	1.510894	0.000179
1643	1.6338e+02	-14.5889	-77.567508	0.000588	5.878332	1.991633	0.000235
1644	1.6348e+02	-14.5392	-77.353539	0.000537	5.371579	1.819940	0.000215
1645	1.6358e+02	-14.5055	-77.204165	0.000375	3.749970	1.270524	0.000150
1646	1.6368e+02	-14.4606	-76.982123	0.000557	5.574280	1.888617	0.000223
1647	1.6378e+02	-14.4172	-76.828712	0.000385	3.851321	1.304863	0.000154
1648	1.6388e+02	-14.3787	-76.582446	0.000618	6.182384	2.094648	0.000248
1649	1.6398e+02	-14.3402	-76.364441	0.000547	5.472930	1.854279	0.000219
1650	1.6408e+02	-14.3114	-76.243327	0.000304	3.040516	1.030155	0.000122
1651	1.6418e+02	-14.2664	-76.013210	0.000578	5.776981	1.957294	0.000231
1652	1.6427e+02	-14.2183	-75.839613	0.000436	4.358074	1.476555	0.000174
1653	1.6437e+02	-14.1878	-75.645831	0.000486	4.864826	1.648248	0.000195
1654	1.6447e+02	-14.1429	-75.423788	0.000557	5.574280	1.888617	0.000223
1655	1.6457e+02	-14.0948	-75.234043	0.000476	4.763476	1.613909	0.000191
1656	1.6467e+02	-14.0643	-75.020075	0.000537	5.371579	1.819940	0.000215
1657	1.6477e+02	-14.0290	-74.838404	0.000456	4.560775	1.545232	0.000183
1658	1.6487e+02	-13.9921	-74.660770	0.000446	4.459424	1.510894	0.000179
1659	1.6497e+02	-13.9360	-74.450839	0.000527	5.270229	1.785602	0.000211
1660	1.6507e+02	-13.9039	-74.240908	0.000527	5.270229	1.785602	0.000211
1661	1.6517e+02	-13.8718	-74.030977	0.000527	5.270229	1.785602	0.000211
1662	1.6527e+02	-13.8237	-73.845268	0.000466	4.662125	1.579571	0.000187
1663	1.6537e+02	-13.7852	-73.639374	0.000517	5.168878	1.751263	0.000207
1664	1.6547e+02	-13.7419	-73.490000	0.000375	3.749970	1.270524	0.000150
1665	1.6557e+02	-13.6985	-73.255847	0.000588	5.878332	1.991633	0.000235
1666	1.6567e+02	-13.6713	-73.102435	0.000385	3.851321	1.304863	0.000154
1667	1.6577e+02	-13.6183	-72.884430	0.000547	5.472930	1.854279	0.000219
1668	1.6587e+02	-13.5879	-72.686610	0.000497	4.966177	1.682586	0.000199
1669	1.6597e+02	-13.5445	-72.444382	0.000608	6.081033	2.060310	0.000243
1670	1.6607e+02	-13.5141	-72.242525	0.000507	5.067527	1.716925	0.000203
1671	1.6616e+02	-13.4659	-72.093151	0.000375	3.749970	1.270524	0.000150
1672	1.6626e+02	-13.4226	-71.907443	0.000466	4.662125	1.579571	0.000187
1673	1.6636e+02	-13.3857	-71.669252	0.000598	5.979682	2.025971	0.000239
1674	1.6646e+02	-13.3472	-71.471433	0.000497	4.966177	1.682586	0.000199
1675	1.6656e+02	-13.2959	-71.277650	0.000486	4.864826	1.648248	0.000195
1676	1.6666e+02	-13.2654	-71.104053	0.000436	4.358074	1.476555	0.000174
1677	1.6676e+02	-13.2301	-70.906234	0.000497	4.966177	1.682586	0.000199
1678	1.6686e+02	-13.1900	-70.655931	0.000628	6.283734	2.128987	0.000252
1679	1.6696e+02	-13.1547	-70.482334	0.000436	4.358074	1.476555	0.000174
1680	1.6706e+02	-13.1034	-70.284515	0.000497	4.966177	1.682586	0.000199
1681	1.6716e+02	-13.0649	-70.062472	0.000557	5.574280	1.888617	0.000223
1682	1.6726e+02	-13.0312	-69.880801	0.000456	4.560775	1.545232	0.000183
1683	1.6736e+02	-12.9782	-69.695093	0.000466	4.662125	1.579571	0.000187
1684	1.6746e+02	-12.9478	-69.477087	0.000547	5.472930	1.854279	0.000219
1685	1.6756e+02	-12.9093	-69.263119	0.000537	5.371579	1.819940	0.000215
1686	1.6766e+02	-12.8659	-69.077411	0.000466	4.662125	1.579571	0.000187
1687	1.6776e+02	-12.8226	-68.883629	0.000486	4.864826	1.648248	0.000195
1688	1.6786e+02	-12.7889	-68.657549	0.000568	5.675631	1.922956	0.000227
1689	1.6796e+02	-12.7440	-68.459729	0.000497	4.966177	1.682586	0.000199
1690	1.6806e+02	-12.7087	-68.278058	0.000456	4.560775	1.545232	0.000183
1691	1.6816e+02	-12.6718	-68.084276	0.000486	4.864826	1.648248	0.000195
1692	1.6825e+02	-12.6285	-67.862233	0.000557	5.574280	1.888617	0.000223
1693	1.6835e+02	-12.5900	-67.688636	0.000436	4.358074	1.476555	0.000174
1694	1.6845e+02	-12.5515	-67.458520	0.000578	5.776981	1.957294	0.000231
1695	1.6855e+02	-12.5162	-67.236477	0.000557	5.574280	1.888617	0.000223
1696	1.6865e+02	-12.4681	-67.046732	0.000476	4.763476	1.613909	0.000191
1697	1.6875e+02	-12.4280	-66.856986	0.000476	4.763476	1.613909	0.000191
1698	1.6885e+02	-12.3943	-66.651092	0.000517	5.168878	1.751263	0.000207
1699	1.6895e+02	-12.3542	-66.453273	0.000497	4.966177	1.682586	0.000199
1700	1.6905e+02	-12.3157	-66.247379	0.000517	5.168878	1.751263	0.000207
1701	1.6915e+02	-12.2676	-66.013225	0.000588	5.878332	1.991633	0.000235
1702	1.6925e+02	-12.2355	-65.843665	0.000426	4.256723	1.442217	0.000170
1703	1.6935e+02	-12.1954	-65.629697	0.000537	5.371579	1.819940	0.000215
1704	1.6945e+02	-12.1553	-65.423803	0.000517	5.168878	1.751263	0.000207
1705	1.6955e+02	-12.0991	-65.197724	0.000568	5.675631	1.922956	0.000227
1706	1.6965e+02	-12.0702	-65.016052	0.000456	4.560775	1.545232	0.000183
1707	1.6975e+02	-12.0301	-64.761713	0.000639	6.385085	2.163325	0.000256
1708	1.6985e+02	-11.9868	-64.580042	0.000456	4.560775	1.545232	0.000183
1709	1.6995e+02	-11.9483	-64.362037	0.000547	5.472930	1.854279	0.000219
1710	1.7005e+02	-11.9066	-64.172291	0.000476	4.763476	1.613909	0.000191
1711	1.7015e+02	-11.8633	-63.954286	0.000547	5.472930	1.854279	0.000219
1712	1.7024e+02	-11.8344	-63.764540	0.000476	4.763476	1.613909	0.000191
1713	1.7034e+02	-11.7975	-63.538461	0.000568	5.675631	1.922956	0.000227
1714	1.7044e+02	-11.7478	-63.304307	0.000588	5.878332	1.991633	0.000235
1715	1.7054e+02	-11.7077	-63.114562	0.000476	4.763476	1.613909	0.000191
1716	1.7064e+02	-11.6724	-62.892519	0.000557	5.574280	1.888617	0.000223
1717	1.7074e+02	-11.6403	-62.682588	0.000527	5.270229	1.785602	0.000211
1718	1.7084e+02	-11.5906	-62.440360	0.000608	6.081033	2.060310	0.000243
1719	1.7094e+02	-11.5521	-62.250615	0.000476	4.763476	1.613909	0.000191
1720	1.7104e+02	-11.5136	-62.060869	0.000476	4.763476	1.613909	0.000191
1721	1.7114e+02	-11.4767	-61.846901	0.000537	5.371579	1.819940	0.000215
1722	1.7124e+02	-11.4302	-61.584487	0.000659	6.587786	2.232002	0.000264
1723	1.7134e+02	-11.3965	-61.402816	0.000456	4.560775	1.545232	0.000183
1724	1.7144e+02	-11.3564	-61.136365	0.000669	6.689136	2.266341	0.000268
1725	1.7154e+02	-11.3114	-60.938545	0.000497	4.966177	1.682586	0.000199
1726	1.7164e+02	-11.2762	-60.716503	0.000557	5.574280	1.888617	0.000223
1727	1.7174e+02	-11.2377	-60.514646	0.000507	5.067527	1.716925	0.000203
1728	1.7184e+02	-11.1927	-60.324901	0.000476	4.763476	1.613909	0.000191
1729	1.7194e+02	-11.1606	-60.086710	0.000598	5.979682	2.025971	0.000239
1730	1.7204e+02	-11.1125	-59.892927	0.000486	4.864826	1.648248	0.000195
1731	1.7213e+02	-11.0772	-59.642625	0.000628	6.283734	2.128987	0.000252
1732	1.7223e+02	-11.0387	-59.420582	0.000557	5.574280	1.888617	0.000223
1733	1.7233e+02	-11.0002	-59.206614	0.000537	5.371579	1.819940	0.000215
1734	1.7243e+02	-10.9585	-58.960349	0.000618	6.182384	2.094648	0.000248
1735	1.7253e+02	-10.9232	-58.746381	0.000537	5.371579	1.819940	0.000215
1736	1.7263e+02	-10.8751	-58.516264	0.000578	5.776981	1.957294	0.000231
1737	1.7273e+02	-10.8366	-58.314407	0.000507	5.067527	1.716925	0.000203
1738	1.7283e+02	-10.7933	-58.080253	0.000588	5.878332	1.991633	0.000235
1739	1.7293e+02	-10.7564	-57.854174	0.000568	5.675631	1.922956	0.000227
1740	1.7303e+02	-10.7131	-57.664428	0.000476	4.763476	1.613909	0.000191
1741	1.7313e+02	-10.6794	-57.434312	0.000578	5.776981	1.957294	0.000231
1742	1.7323e+02	-10.6441	-57.204195	0.000578	5.776981	1.957294	0.000231
1743	1.7333e+02	-10.5976	-56.998301	0.000517	5.168878	1.751263	0.000207
1744	1.7343e+02	-10.5639	-56.776258	0.000557	5.574280	1.888617	0.000223
1745	1.7353e+02	-10.5174	-56.558253	0.000547	5.472930	1.854279	0.000219
1746	1.7363e+02	-10.4724	-56.311988	0.000618	6.182384	2.094648	0.000248
1747	1.7373e+02	-10.4371	-56.106094	0.000517	5.168878	1.751263	0.000207
1748	1.7383e+02	-10.4034	-55.871940	0.000588	5.878332	1.991633	0.000235
1749	1.7393e+02	-10.3569	-55.649898	0.000557	5.574280	1.888617	0.000223
1750	1.7403e+02	-10.3264	-55.399595	0.000628	6.283734	2.128987	0.000252
1751	1.7413e+02	-10.2767	-55.209850	0.000476	4.763476	1.613909	0.000191
1752	1.7422e+02	-10.2398	-54.943399	0.000669	6.689136	2.266341	0.000268
1753	1.7432e+02	-10.1997	-54.753653	0.000476	4.763476	1.613909	0.000191
1754	1.7442e+02	-10.1660	-54.547760	0.000517	5.168878	1.751263	0.000207
1755	1.7452e+02	-10.1259	-54.325717	0.000557	5.574280	1.888617	0.000223
1756	1.7462e+02	-10.0810	-54.075415	0.000628	6.283734	2.128987	0.000252
1757	1.7472e+02	-10.0329	-53.833186	0.000608	6.081033	2.060310	0.000243
1758	1.7482e+02	-9.9976	-53.599033	0.000588	5.878332	1.991633	0.000235
1759	1.7492e+02	-9.9639	-53.381027	0.000547	5.472930	1.854279	0.000219
1760	1.7502e+02	-9.9222	-53.142836	0.000598	5.979682	2.025971	0.000239
1761	1.7512e+02	-9.8724	-52.916757	0.000568	5.675631	1.922956	0.000227
1762	1.7522e+02	-9.8420	-52.694714	0.000557	5.574280	1.888617	0.000223
1763	1.7532e+02	-9.7987	-52.468635	0.000568	5.675631	1.922956	0.000227
1764	1.7542e+02	-9.7553	-52.238518	0.000578	5.776981	1.957294	0.000231
1765	1.7552e+02	-9.7184	-51.996290	0.000608	6.081033	2.060310	0.000243
1766	1.7562e+02	-9.6767	-51.762136	0.000588	5.878332	1.991633	0.000235
1767	1.7572e+02	-9.6382	-51.511833	0.000628	6.283734	2.128987	0.000252
1768	1.7582e+02	-9.6029	-51.285754	0.000568	5.675631	1.922956	0.000227
1769	1.7592e+02	-9.5676	-51.063711	0.000557	5.574280	1.888617	0.000223
1770	1.7602e+02	-9.5227	-50.829558	0.000588	5.878332	1.991633	0.000235
1771	1.7612e+02	-9.4858	-50.595404	0.000588	5.878332	1.991633	0.000235
1772	1.7621e+02	-9.4473	-50.357213	0.000598	5.979682	2.025971	0.000239
1773	1.7631e+02	-9.4008	-50.106910	0.000628	6.283734	2.128987	0.000252
1774	1.7641e+02	-9.3639	-49.896979	0.000527	5.270229	1.785602	0.000211
1775	1.7651e+02	-9.3270	-49.683011	0.000537	5.371579	1.819940	0.000215
1776	1.7661e+02	-9.2789	-49.448857	0.000588	5.878332	1.991633	0.000235
1777	1.7671e+02	-9.2452	-49.230852	0.000547	5.472930	1.854279	0.000219
1778	1.7681e+02	-9.2003	-48.928067	0.000760	7.601291	2.575387	0.000304
1779	1.7691e+02	-9.1586	-48.738321	0.000476	4.763476	1.613909	0.000191
1780	1.7701e+02	-9.1233	-48.483982	0.000639	6.385085	2.163325	0.000256
1781	1.7711e+02	-9.0848	-48.245791	0.000598	5.979682	2.025971	0.000239
1782	1.7721e+02	-9.0431	-47.999525	0.000618	6.182384	2.094648	0.000248
1783	1.7731e+02	-8.9965	-47.745186	0.000639	6.385085	2.163325	0.000256
1784	1.7741e+02	-8.9580	-47.535255	0.000527	5.270229	1.785602	0.000211
1785	1.7751e+02	-8.9211	-47.297064	0.000598	5.979682	2.025971	0.000239
1786	1.7761e+02	-8.8826	-47.022539	0.000689	6.891837	2.335018	0.000276
1787	1.7771e+02	-8.8313	-46.808570	0.000537	5.371579	1.819940	0.000215
1788	1.7781e+02	-8.7992	-46.598639	0.000527	5.270229	1.785602	0.000211
1789	1.7791e+02	-8.7607	-46.316040	0.000709	7.094538	2.403695	0.000284
1790	1.7801e+02	-8.7286	-46.150517	0.000416	4.155373	1.407878	0.000166
1791	1.7810e+02	-8.6837	-45.880029	0.000679	6.790487	2.300679	0.000272
1792	1.7820e+02	-8.6340	-45.613578	0.000669	6.689136	2.266341	0.000268
1793	1.7830e+02	-8.6003	-45.427870	0.000466	4.662125	1.579571	0.000187
1794	1.7840e+02	-8.5714	-45.173530	0.000639	6.385085	2.163325	0.000256
1795	1.7850e+02	-8.5281	-44.911117	0.000659	6.587786	2.232002	0.000264
1796	1.7860e+02	-8.4816	-44.652740	0.000649	6.486435	2.197664	0.000260
1797	1.7870e+02	-8.4351	-44.426660	0.000568	5.675631	1.922956	0.000227
1798	1.7880e+02	-8.4062	-44.224803	0.000507	5.067527	1.716925	0.000203
1799	1.7890e+02	-8.3661	-43.950278	0.000689	6.891837	2.335018	0.000276
1800	1.7900e+02	-8.3276	-43.740347	0.000527	5.270229	1.785602	0.000211
1801	1.7910e+02	-8.2843	-43.494082	0.000618	6.182384	2.094648	0.000248
1802	1.7920e+02	-8.2393	-43.223594	0.000679	6.790487	2.300679	0.000272
1803	1.7930e+02	-8.2073	-42.973291	0.000628	6.283734	2.128987	0.000252
1804	1.7940e+02	-8.1688	-42.743175	0.000578	5.776981	1.957294	0.000231
1805	1.7950e+02	-8.1319	-42.492872	0.000628	6.283734	2.128987	0.000252
1806	1.7960e+02	-8.0869	-42.282941	0.000527	5.270229	1.785602	0.000211
1807	1.7970e+02	-8.0565	-42.040713	0.000608	6.081033	2.060310	0.000243
1808	1.7980e+02	-8.0067	-41.774262	0.000669	6.689136	2.266341	0.000268
1809	1.7990e+02	-7.9682	-41.519922	0.000639	6.385085	2.163325	0.000256
1810	1.8000e+02	-7.9233	-41.305954	0.000537	5.371579	1.819940	0.000215
1811	1.8009e+02	-7.8848	-41.043540	0.000659	6.587786	2.232002	0.000264
1812	1.8019e+02	-7.8431	-40.797275	0.000618	6.182384	2.094648	0.000248
1813	1.8029e+02	-7.8094	-40.542936	0.000639	6.385085	2.163325	0.000256
1814	1.8039e+02	-7.7661	-40.312819	0.000578	5.776981	1.957294	0.000231
1815	1.8049e+02	-7.7308	-40.050405	0.000659	6.587786	2.232002	0.000264
1816	1.8059e+02	-7.6987	-39.852585	0.000497	4.966177	1.682586	0.000199
1817	1.8069e+02	-7.6522	-39.602283	0.000628	6.283734	2.128987	0.000252
1818	1.8079e+02	-7.6057	-39.351981	0.000628	6.283734	2.128987	0.000252
1819	1.8089e+02	-7.5688	-39.101678	0.000628	6.283734	2.128987	0.000252
1820	1.8099e+02	-7.5351	-38.875599	0.000568	5.675631	1.922956	0.000227
1821	1.8109e+02	-7.4886	-38.597036	0.000699	6.993188	2.369356	0.000280
1822	1.8119e+02	-7.4452	-38.379031	0.000547	5.472930	1.854279	0.000219
1823	1.8129e+02	-7.4051	-38.104506	0.000689	6.891837	2.335018	0.000276
1824	1.8139e+02	-7.3731	-37.862278	0.000608	6.081033	2.060310	0.000243
1825	1.8149e+02	-7.3378	-37.624087	0.000598	5.979682	2.025971	0.000239
1826	1.8159e+02	-7.2880	-37.373784	0.000628	6.283734	2.128987	0.000252
1827	1.8169e+02	-7.2495	-37.143667	0.000578	5.776981	1.957294	0.000231
1828	1.8179e+02	-7.1934	-36.909513	0.000588	5.878332	1.991633	0.000235
1829	1.8189e+02	-7.1757	-36.667285	0.000608	6.081033	2.060310	0.000243
1830	1.8199e+02	-7.1372	-36.360463	0.000770	7.702642	2.609726	0.000308
1831	1.8209e+02	-7.0875	-36.146495	0.000537	5.371579	1.819940	0.000215
1832	1.8218e+02	-7.0506	-35.884081	0.000659	6.587786	2.232002	0.000264
1833	1.8228e+02	-7.0169	-35.653964	0.000578	5.776981	1.957294	0.000231
1834	1.8238e+02	-6.9640	-35.367328	0.000720	7.195889	2.438033	0.000288
1835	1.8248e+02	-6.9335	-35.125099	0.000608	6.081033	2.060310	0.000243
1836	1.8258e+02	-6.9078	-34.911131	0.000537	5.371579	1.819940	0.000215
1837	1.8268e+02	-6.8517	-34.640643	0.000679	6.790487	2.300679	0.000272
1838	1.8278e+02	-6.8132	-34.394378	0.000618	6.182384	2.094648	0.000248
1839	1.8288e+02	-6.7650	-34.168298	0.000568	5.675631	1.922956	0.000227
1840	1.8298e+02	-6.7185	-33.881662	0.000720	7.195889	2.438033	0.000288
1841	1.8308e+02	-6.6961	-33.639434	0.000608	6.081033	2.060310	0.000243
1842	1.8318e+02	-6.6431	-33.405280	0.000588	5.878332	1.991633	0.000235
1843	1.8328e+02	-6.6094	-33.130754	0.000689	6.891837	2.335018	0.000276
1844	1.8338e+02	-6.5693	-32.900638	0.000578	5.776981	1.957294	0.000231
1845	1.8348e+02	-6.5260	-32.630150	0.000679	6.790487	2.300679	0.000272
1846	1.8358e+02	-6.4907	-32.351587	0.000699	6.993188	2.369356	0.000280
1847	1.8368e+02	-6.4570	-32.129545	0.000557	5.574280	1.888617	0.000223
1848	1.8378e+02	-6.4153	-31.883279	0.000618	6.182384	2.094648	0.000248
1849	1.8388e+02	-6.3752	-31.612791	0.000679	6.790487	2.300679	0.000272
1850	1.8398e+02	-6.3383	-31.406897	0.000517	5.168878	1.751263	0.000207
1851	1.8407e+02	-6.2934	-31.152558	0.000639	6.385085	2.163325	0.000256
1852	1.8417e+02	-6.2581	-30.922441	0.000578	5.776981	1.957294	0.000231
1853	1.8427e+02	-6.2116	-30.623693	0.000750	7.499941	2.541049	0.000300
1854	1.8437e+02	-6.1795	-30.373391	0.000628	6.283734	2.128987	0.000252
1855	1.8447e+02	-6.1330	-30.143274	0.000578	5.776981	1.957294	0.000231
1856	1.8457e+02	-6.0913	-29.888934	0.000639	6.385085	2.163325	0.000256
1857	1.8467e+02	-6.0592	-29.614409	0.000689	6.891837	2.335018	0.000276
1858	1.8477e+02	-6.0207	-29.364107	0.000628	6.283734	2.128987	0.000252
1859	1.8487e+02	-5.9838	-29.101693	0.000659	6.587786	2.232002	0.000264
1860	1.8497e+02	-5.9405	-28.879651	0.000557	5.574280	1.888617	0.000223
1861	1.8507e+02	-5.9004	-28.584940	0.000740	7.398590	2.506710	0.000296
1862	1.8517e+02	-5.8619	-28.362897	0.000557	5.574280	1.888617	0.000223
1863	1.8527e+02	-5.8218	-28.084335	0.000699	6.993188	2.369356	0.000280
1864	1.8537e+02	-5.7752	-27.850181	0.000588	5.878332	1.991633	0.000235
1865	1.8547e+02	-5.7367	-27.559507	0.000730	7.297240	2.472372	0.000292
1866	1.8557e+02	-5.6982	-27.337465	0.000557	5.574280	1.888617	0.000223
1867	1.8567e+02	-5.6597	-27.046791	0.000730	7.297240	2.472372	0.000292
1868	1.8577e+02	-5.6244	-26.800526	0.000618	6.182384	2.094648	0.000248
1869	1.8587e+02	-5.5843	-26.513889	0.000720	7.195889	2.438033	0.000288
1870	1.8597e+02	-5.5410	-26.251475	0.000659	6.587786	2.232002	0.000264
1871	1.8606e+02	-5.5105	-26.017321	0.000588	5.878332	1.991633	0.000235
1872	1.8616e+02	-5.4608	-25.738759	0.000699	6.993188	2.369356	0.000280
1873	1.8626e+02	-5.4159	-25.464234	0.000689	6.891837	2.335018	0.000276
1874	1.8636e+02	-5.3774	-25.250265	0.000537	5.371579	1.819940	0.000215
1875	1.8646e+02	-5.3357	-24.991889	0.000649	6.486435	2.197664	0.000260
1876	1.8656e+02	-5.2940	-24.709289	0.000709	7.094538	2.403695	0.000284
1877	1.8666e+02	-5.2619	-24.467061	0.000608	6.081033	2.060310	0.000243
1878	1.8676e+02	-5.2218	-24.200610	0.000669	6.689136	2.266341	0.000268
1879	1.8686e+02	-5.1817	-23.938196	0.000659	6.587786	2.232002	0.000264
1880	1.8696e+02	-5.1448	-23.687894	0.000628	6.283734	2.128987	0.000252
1881	1.8706e+02	-5.1031	-23.364923	0.000811	8.108044	2.747080	0.000325
1882	1.8716e+02	-5.0662	-23.130769	0.000588	5.878332	1.991633	0.000235
1883	1.8726e+02	-5.0261	-22.888541	0.000608	6.081033	2.060310	0.000243
1884	1.8736e+02	-4.9811	-22.638239	0.000628	6.283734	2.128987	0.000252
1885	1.8746e+02	-4.9458	-22.319305	0.000801	8.006693	2.712741	0.000321
1886	1.8756e+02	-4.9073	-22.044780	0.000689	6.891837	2.335018	0.000276
1887	1.8766e+02	-4.8688	-21.786403	0.000649	6.486435	2.197664	0.000260
1888	1.8776e+02	-4.8207	-21.519952	0.000669	6.689136	2.266341	0.000268
1889	1.8786e+02	-4.7822	-21.233315	0.000720	7.195889	2.438033	0.000288
1890	1.8796e+02	-4.7421	-20.958790	0.000689	6.891837	2.335018	0.000276
1891	1.8806e+02	-4.7052	-20.700413	0.000649	6.486435	2.197664	0.000260
1892	1.8815e+02	-4.6667	-20.442037	0.000649	6.486435	2.197664	0.000260
1893	1.8825e+02	-4.6170	-20.155400	0.000720	7.195889	2.438033	0.000288
1894	1.8835e+02	-4.5737	-19.888949	0.000669	6.689136	2.266341	0.000268
1895	1.8845e+02	-4.5368	-19.622498	0.000669	6.689136	2.266341	0.000268
1896	1.8855e+02	-4.5015	-19.392382	0.000578	5.776981	1.957294	0.000231
1897	1.8865e+02	-4.4630	-19.097671	0.000740	7.398590	2.506710	0.000296
1898	1.8875e+02	-4.4309	-18.831220	0.000669	6.689136	2.266341	0.000268
1899	1.8885e+02	-4.3796	-18.556694	0.000689	6.891837	2.335018	0.000276
1900	1.8895e+02	-4.3427	-18.286206	0.000679	6.790487	2.300679	0.000272
1901	1.8905e+02	-4.3074	-17.983421	0.000760	7.601291	2.575387	0.000304
1902	1.8915e+02	-4.2624	-17.712933	0.000679	6.790487	2.300679	0.000272
1903	1.8925e+02	-4.2255	-17.418222	0.000740	7.398590	2.506710	0.000296
1904	1.8935e+02	-4.1870	-17.163883	0.000639	6.385085	2.163325	0.000256
1905	1.8945e+02	-4.1437	-16.901469	0.000659	6.587786	2.232002	0.000264
1906	1.8955e+02	-4.1004	-16.626944	0.000689	6.891837	2.335018	0.000276
1907	1.8965e+02	-4.0683	-16.360493	0.000669	6.689136	2.266341	0.000268
1908	1.8975e+02	-4.0282	-16.069819	0.000730	7.297240	2.472372	0.000292
1909	1.8985e+02	-3.9897	-15.791256	0.000699	6.993188	2.369356	0.000280
1910	1.8995e+02	-3.9448	-15.528843	0.000659	6.587786	2.232002	0.000264
1911	1.9004e+02	-3.9063	-15.222020	0.000770	7.702642	2.609726	0.000308
1912	1.9014e+02	-3.8486	-14.931347	0.000730	7.297240	2.472372	0.000292
1913	1.9024e+02	-3.8245	-14.668933	0.000659	6.587786	2.232002	0.000264
1914	1.9034e+02	-3.7860	-14.382296	0.000720	7.195889	2.438033	0.000288
1915	1.9044e+02	-3.7443	-14.107771	0.000689	6.891837	2.335018	0.000276
1916	1.9054e+02	-3.7010	-13.817097	0.000730	7.297240	2.472372	0.000292
1917	1.9064e+02	-3.6609	-13.546609	0.000679	6.790487	2.300679	0.000272
1918	1.9074e+02	-3.6304	-13.288232	0.000649	6.486435	2.197664	0.000260
1919	1.9084e+02	-3.5871	-12.977373	0.000780	7.803992	2.644064	0.000312
1920	1.9094e+02	-3.5470	-12.731108	0.000618	6.182384	2.094648	0.000248
1921	1.9104e+02	-3.5133	-12.416211	0.000791	7.905343	2.678403	0.000316
1922	1.9114e+02	-3.4651	-12.178020	0.000598	5.979682	2.025971	0.000239
1923	1.9124e+02	-3.4250	-11.867161	0.000780	7.803992	2.644064	0.000312
1924	1.9134e+02	-3.3769	-11.596672	0.000679	6.790487	2.300679	0.000272
1925	1.9144e+02	-3.3448	-11.301961	0.000740	7.398590	2.506710	0.000296
1926	1.9154e+02	-3.2967	-11.051659	0.000628	6.283734	2.128987	0.000252
1927	1.9164e+02	-3.2710	-10.801357	0.000628	6.283734	2.128987	0.000252
1928	1.9174e+02	-3.2309	-10.454163	0.000872	8.716147	2.953111	0.000349
1929	1.9184e+02	-3.1924	-10.151378	0.000760	7.601291	2.575387	0.000304
1930	1.9194e+02	-3.1459	-9.921261	0.000578	5.776981	1.957294	0.000231
1931	1.9203e+02	-3.1058	-9.618476	0.000760	7.601291	2.575387	0.000304
1932	1.9213e+02	-3.0721	-9.335876	0.000709	7.094538	2.403695	0.000284
1933	1.9223e+02	-3.0320	-9.045203	0.000730	7.297240	2.472372	0.000292
1934	1.9233e+02	-2.9903	-8.746455	0.000750	7.499941	2.541049	0.000300
1935	1.9243e+02	-2.9518	-8.459818	0.000720	7.195889	2.438033	0.000288
1936	1.9253e+02	-2.9133	-8.161070	0.000750	7.499941	2.541049	0.000300
1937	1.9263e+02	-2.8652	-7.870396	0.000730	7.297240	2.472372	0.000292
1938	1.9273e+02	-2.8315	-7.624131	0.000618	6.182384	2.094648	0.000248
1939	1.9283e+02	-2.7914	-7.325383	0.000750	7.499941	2.541049	0.000300
1940	1.9293e+02	-2.7529	-7.022598	0.000760	7.601291	2.575387	0.000304
1941	1.9303e+02	-2.7063	-6.731924	0.000730	7.297240	2.472372	0.000292
1942	1.9313e+02	-2.6662	-6.469510	0.000659	6.587786	2.232002	0.000264
1943	1.9323e+02	-2.6277	-6.146539	0.000811	8.108044	2.747080	0.000325
1944	1.9333e+02	-2.5860	-5.912385	0.000588	5.878332	1.991633	0.000235
1945	1.9343e+02	-2.5555	-5.553080	0.000902	9.020199	3.056126	0.000361
1946	1.9353e+02	-2.5138	-5.298741	0.000639	6.385085	2.163325	0.000256
1947	1.9363e+02	-2.4817	-5.004030	0.000740	7.398590	2.506710	0.000296
1948	1.9373e+02	-2.4352	-4.721430	0.000709	7.094538	2.403695	0.000284
1949	1.9383e+02	-2.4015	-4.426719	0.000740	7.398590	2.506710	0.000296
1950	1.9393e+02	-2.3454	-4.140083	0.000720	7.195889	2.438033	0.000288
1951	1.9403e+02	-2.3037	-3.821149	0.000801	8.006693	2.712741	0.000321
1952	1.9412e+02	-2.2684	-3.554698	0.000669	6.689136	2.266341	0.000268
1953	1.9422e+02	-2.2347	-3.259987	0.000740	7.398590	2.506710	0.000296
1954	1.9432e+02	-2.1914	-2.945091	0.000791	7.905343	2.678403	0.000316
1955	1.9442e+02	-2.1529	-2.686714	0.000649	6.486435	2.197664	0.000260
1956	1.9452e+02	-2.1192	-2.404114	0.000709	7.094538	2.403695	0.000284
1957	1.9462e+02	-2.0727	-2.085181	0.000801	8.006693	2.712741	0.000321
1958	1.9472e+02	-2.0310	-1.834878	0.000628	6.283734	2.128987	0.000252
1959	1.9482e+02	-1.9925	-1.511907	0.000811	8.108044	2.747080	0.000325
1960	1.9492e+02	-1.9572	-1.184899	0.000821	8.209395	2.781418	0.000329
1961	1.9502e+02	-1.9106	-0.906337	0.000699	6.993188	2.369356	0.000280
1962	1.9512e+02	-1.8721	-0.611626	0.000740	7.398590	2.506710	0.000296
1963	1.9522e+02	-1.8304	-0.320952	0.000730	7.297240	2.472372	0.000292
1964	1.9532e+02	-1.7967	-0.046427	0.000689	6.891837	2.335018	0.000276
1965	1.9542e+02	-1.7550	0.256358	0.000760	7.601291	2.575387	0.000304
1966	1.9552e+02	-1.7213	0.526846	0.000679	6.790487	2.300679	0.000272
1967	1.9562e+02	-1.6700	0.821557	0.000740	7.398590	2.506710	0.000296
1968	1.9572e+02	-1.6363	1.132417	0.000780	7.803992	2.644064	0.000312
1969	1.9582e+02	-1.5994	1.406942	0.000689	6.891837	2.335018	0.000276
1970	1.9592e+02	-1.5593	1.750098	0.000861	8.614797	2.918772	0.000345
1971	1.9601e+02	-1.5176	2.016549	0.000669	6.689136	2.266341	0.000268
1972	1.9611e+02	-1.4759	2.319334	0.000760	7.601291	2.575387	0.000304
1973	1.9621e+02	-1.4294	2.626157	0.000770	7.702642	2.609726	0.000308
1974	1.9631e+02	-1.3957	2.908756	0.000709	7.094538	2.403695	0.000284
1975	1.9641e+02	-1.3524	3.211541	0.000760	7.601291	2.575387	0.000304
1976	1.9651e+02	-1.3171	3.469918	0.000649	6.486435	2.197664	0.000260
1977	1.9661e+02	-1.2770	3.784815	0.000791	7.905343	2.678403	0.000316
1978	1.9671e+02	-1.2353	4.091637	0.000770	7.702642	2.609726	0.000308
1979	1.9681e+02	-1.1919	4.329828	0.000598	5.979682	2.025971	0.000239
1980	1.9691e+02	-1.1567	4.689133	0.000902	9.020199	3.056126	0.000361
1981	1.9701e+02	-1.1214	4.979807	0.000730	7.297240	2.472372	0.000292
1982	1.9711e+02	-1.0684	5.294704	0.000791	7.905343	2.678403	0.000316
1983	1.9721e+02	-1.0411	5.589414	0.000740	7.398590	2.506710	0.000296
1984	1.9731e+02	-0.9946	5.867977	0.000699	6.993188	2.369356	0.000280
1985	1.9741e+02	-0.9609	6.162688	0.000740	7.398590	2.506710	0.000296
1986	1.9751e+02	-0.9224	6.445287	0.000709	7.094538	2.403695	0.000284
1987	1.9761e+02	-0.8775	6.756147	0.000780	7.803992	2.644064	0.000312
1988	1.9771e+02	-0.8342	7.062969	0.000770	7.702642	2.609726	0.000308
1989	1.9781e+02	-0.7909	7.365754	0.000760	7.601291	2.575387	0.000304
1990	1.9791e+02	-0.7588	7.660465	0.000740	7.398590	2.506710	0.000296
1991	1.9800e+02	-0.7187	7.939027	0.000699	6.993188	2.369356	0.000280
1992	1.9810e+02	-0.6802	8.229701	0.000730	7.297240	2.472372	0.000292
1993	1.9820e+02	-0.6401	8.524412	0.000740	7.398590	2.506710	0.000296
1994	1.9830e+02	-0.5968	8.843346	0.000801	8.006693	2.712741	0.000321
1995	1.9840e+02	-0.5486	9.166317	0.000811	8.108044	2.747080	0.000325
1996	1.9850e+02	-0.5166	9.452953	0.000720	7.195889	2.438033	0.000288
1997	1.9860e+02	-0.4700	9.723441	0.000679	6.790487	2.300679	0.000272
1998	1.9870e+02	-0.4476	9.993930	0.000679	6.790487	2.300679	0.000272
1999	1.9880e+02	-0.3962	10.333049	0.000851	8.513446	2.884434	0.000341
2000	1.9890e+02	-0.3610	10.615648	0.000709	7.094538	2.403695	0.000284
2001	1.9900e+02	-0.3257	10.926508	0.000780	7.803992	2.644064	0.000312
2002	1.9910e+02	-0.2791	11.229293	0.000760	7.601291	2.575387	0.000304
2003	1.9920e+02	-0.2342	11.519967	0.000730	7.297240	2.472372	0.000292
2004	1.9930e+02	-0.2037	11.826789	0.000770	7.702642	2.609726	0.000308
2005	1.9940e+02	-0.1636	12.129574	0.000760	7.601291	2.575387	0.000304
2006	1.9950e+02	-0.1315	12.420248	0.000730	7.297240	2.472372	0.000292
2007	1.9960e+02	-0.0786	12.714959	0.000740	7.398590	2.506710	0.000296
2008	1.9970e+02	-0.0353	13.005633	0.000730	7.297240	2.472372	0.000292
2009	1.9980e+02	0.0016	13.348789	0.000730	7.297240	2.472372	0.000345

PMax (uC/cm2):	1.90e+02
Pr (uC/cm2):	1.43e+02
-Pr (uC/cm2):	1.21e+02
PLoss (uC/cm2):	1.21e+02
C (Max-Eff) (nF):	9.49e-01
K (Eff):	3.21e+03
Vert. (+/-Pr) Shift (uC/cm2):	1.32e+02
Offset (uC/cm2):	1.08e+02

A (Loop Area - uC/cm2·Volts):	-7.23e+00



Hysteresis Version: 5.48.1 - Radiant Technologies, Inc., 1999 - 9/12/24

