»»»»»»»»»»»»»»»»»»»»»»»»»»»»»»»»»»»» Hysteresis ««««««««««««««««««««««««««««««««««««
»»»  Executed Version:	5.48.1
»»»  Vision Version:	5.48.4 (R)
»»»  Vision Compiled:	9/18/24
»»»  Driver Version:	5.47.0
»»»  Windows Version:	Windows 8 or 8.1
»»»  Processor Information:	x86 (AMD or Intel) - 32 Processors
»»»  Tester Name:	PMF21124-494 (100V)
»»»  Tester S/N:	PMF21124-494
»»»  Internal Amp Type:	100V RevK 270k
»»»  Internal Amp S/N:	iAB2-596/K     
»»»  Execution Count:	1
»»»»»»»»»»»»»»»»»»»»»»»»»»»»»»»»»»»»»»»»»»««««««««««««««««««««««««««««««««««««««««««

Stored:	6/18/2025 - 13:11:32
Configured:	06/18/25 09:47:30 AM
Executed:	06/18/25 01:11:02 PM

»»»»»»»»»»»»»»»»»»»»»»»»»»»»»»»»»»» Sample Info ««««««««««««««««««««««««««««««««««««
Sample Name:	
Lot Name:	
Wafer Name:	
Die Row/Column:	0/0
Capacitor Number:	0
Sample Area (cm2):	1.00e-04
Sample Thickness (microns):	3.00e-01

Amplifier:	Internal

»»»»»»»»»»»»»»»»»»»»»»»»»»»»»»»»»»» Tester Info «««««««««««««««««««««««««««««««««««
Tester Name:	PMF21124-494 (100V)
Tester Serial Number:	PMF21124-494
Return Signal Amp. Level:	0.19 [Index: 3]

»»»»»»»»»»»»»»»»»»»»»»»»»»»»»»»» Hysteresis Info ««««««««««««««««««««««««««««««««««
Task Name:	Hyst-554
Volts:	20.00
Field:	666.67 (kV/cm)
DCBias:	0.00
DCField:	0.00 (kV/cm)
Hysteresis Period (ms):	2.00e+02
Preset:	Enabled
Preset Delay (ms):	1.00e+03
Profile:	Standard Bipolar

»»»»»»»»»»»»»»»»»»»»»»»»»»»»»»»»»»»»»» Data «««««««««««««««««««««««««««««««««««««««
Points:	2009

Valid Data

Point	Time (ms)	Drive Voltage	Measured Polarization (uC/cm2)	Capacitance (uF)	Normalized Capacitance (uF/cm2)	Dielectric Constant	Instantaneous Current (mA)
   1	0.0000e+00	0.0000	-8.221627	0.000405	4.054347	1.373650	0.000162
   2	9.9500e-02	0.0241	-8.060142	0.000405	4.054347	1.373650	0.000162
   3	1.9900e-01	0.0738	-7.842136	0.000547	5.473369	1.854428	0.000219
   4	2.9850e-01	0.1139	-7.620094	0.000557	5.574727	1.888769	0.000223
   5	3.9800e-01	0.1524	-7.414200	0.000517	5.169293	1.751404	0.000207
   6	4.9750e-01	0.2005	-7.212343	0.000507	5.067934	1.717063	0.000203
   7	5.9700e-01	0.2246	-6.998375	0.000537	5.372010	1.820086	0.000215
   8	6.9650e-01	0.2663	-6.792481	0.000517	5.169293	1.751404	0.000207
   9	7.9600e-01	0.3064	-6.562364	0.000578	5.777445	1.957451	0.000231
  10	8.9550e-01	0.3561	-6.299950	0.000659	6.588314	2.232181	0.000264
  11	9.9500e-01	0.3962	-6.118279	0.000456	4.561141	1.545356	0.000183
  12	1.0945e+00	0.4299	-5.888162	0.000578	5.777445	1.957451	0.000231
  13	1.1940e+00	0.4716	-5.629786	0.000649	6.486956	2.197840	0.000260
  14	1.2935e+00	0.5150	-5.399669	0.000578	5.777445	1.957451	0.000231
  15	1.3930e+00	0.5519	-5.213961	0.000466	4.662499	1.579698	0.000187
  16	1.4925e+00	0.5888	-4.943473	0.000679	6.791032	2.300864	0.000272
  17	1.5920e+00	0.6289	-4.781987	0.000405	4.054347	1.373650	0.000162
  18	1.6915e+00	0.6722	-4.519573	0.000659	6.588314	2.232181	0.000264
  19	1.7910e+00	0.7059	-4.362125	0.000395	3.952989	1.339309	0.000158
  20	1.8905e+00	0.7492	-4.103748	0.000649	6.486956	2.197840	0.000260
  21	1.9900e+00	0.7813	-3.893817	0.000527	5.270651	1.785745	0.000211
  22	2.0895e+00	0.8310	-3.651589	0.000608	6.081521	2.060475	0.000243
  23	2.1890e+00	0.8727	-3.433584	0.000547	5.473369	1.854428	0.000219
  24	2.2885e+00	0.9096	-3.259987	0.000436	4.358423	1.476674	0.000174
  25	2.3880e+00	0.9513	-2.989499	0.000679	6.791032	2.300864	0.000272
  26	2.4875e+00	0.9930	-2.751308	0.000598	5.980162	2.026134	0.000239
  27	2.5870e+00	1.0347	-2.561563	0.000476	4.763858	1.614039	0.000191
  28	2.6865e+00	1.0668	-2.327409	0.000588	5.878804	1.991793	0.000235
  29	2.7860e+00	1.1037	-2.117478	0.000527	5.270651	1.785745	0.000211
  30	2.8855e+00	1.1518	-1.879287	0.000598	5.980162	2.026134	0.000239
  31	2.9850e+00	1.1855	-1.645133	0.000588	5.878804	1.991793	0.000235
  32	3.0845e+00	1.2304	-1.419053	0.000568	5.676086	1.923110	0.000227
  33	3.1840e+00	1.2738	-1.217196	0.000507	5.067934	1.717063	0.000203
  34	3.2835e+00	1.3219	-0.938634	0.000699	6.993749	2.369546	0.000280
  35	3.3830e+00	1.3443	-0.761000	0.000446	4.459782	1.511015	0.000179
  36	3.4825e+00	1.3877	-0.502623	0.000649	6.486956	2.197840	0.000260
  37	3.5820e+00	1.4278	-0.268470	0.000588	5.878804	1.991793	0.000235
  38	3.6815e+00	1.4631	-0.050464	0.000547	5.473369	1.854428	0.000219
  39	3.7810e+00	1.5080	0.167541	0.000547	5.473369	1.854428	0.000219
  40	3.8805e+00	1.5481	0.393621	0.000568	5.676086	1.923110	0.000227
  41	3.9800e+00	1.5802	0.615663	0.000557	5.574727	1.888769	0.000223
  42	4.0795e+00	1.6235	0.805409	0.000476	4.763858	1.614039	0.000191
  43	4.1790e+00	1.6668	1.075897	0.000679	6.791032	2.300864	0.000272
  44	4.2785e+00	1.7101	1.289865	0.000537	5.372010	1.820086	0.000215
  45	4.3780e+00	1.7486	1.544204	0.000639	6.385597	2.163499	0.000256
  46	4.4775e+00	1.7775	1.778358	0.000588	5.878804	1.991793	0.000235
  47	4.5770e+00	1.8304	1.976178	0.000497	4.966575	1.682721	0.000199
  48	4.6765e+00	1.8625	2.222443	0.000618	6.182880	2.094816	0.000248
  49	4.7760e+00	1.8962	2.468709	0.000618	6.182880	2.094816	0.000248
  50	4.8755e+00	1.9491	2.658454	0.000476	4.763858	1.614039	0.000191
  51	4.9750e+00	1.9876	2.884533	0.000568	5.676086	1.923110	0.000227
  52	5.0745e+00	2.0261	3.110613	0.000568	5.676086	1.923110	0.000227
  53	5.1740e+00	2.0614	3.401287	0.000730	7.297825	2.472570	0.000292
  54	5.2735e+00	2.0983	3.599107	0.000497	4.966575	1.682721	0.000199
  55	5.3730e+00	2.1417	3.784815	0.000466	4.662499	1.579698	0.000187
  56	5.4725e+00	2.1866	4.063377	0.000699	6.993749	2.369546	0.000280
  57	5.5720e+00	2.2235	4.301568	0.000598	5.980162	2.026134	0.000239
  58	5.6715e+00	2.2652	4.547833	0.000618	6.182880	2.094816	0.000248
  59	5.7710e+00	2.3021	4.725467	0.000446	4.459782	1.511015	0.000179
  60	5.8705e+00	2.3422	4.975770	0.000628	6.284238	2.129158	0.000252
  61	5.9700e+00	2.3807	5.217998	0.000608	6.081521	2.060475	0.000243
  62	6.0695e+00	2.4256	5.464263	0.000618	6.182880	2.094816	0.000248
  63	6.1690e+00	2.4705	5.694380	0.000578	5.777445	1.957451	0.000231
  64	6.2685e+00	2.5026	5.920460	0.000568	5.676086	1.923110	0.000227
  65	6.3680e+00	2.5427	6.134428	0.000537	5.372010	1.820086	0.000215
  66	6.4675e+00	2.5828	6.376656	0.000608	6.081521	2.060475	0.000243
  67	6.5670e+00	2.6277	6.618884	0.000608	6.081521	2.060475	0.000243
  68	6.6665e+00	2.6630	6.857075	0.000598	5.980162	2.026134	0.000239
  69	6.7660e+00	2.6999	7.062969	0.000517	5.169293	1.751404	0.000207
  70	6.8655e+00	2.7432	7.280974	0.000547	5.473369	1.854428	0.000219
  71	6.9650e+00	2.7882	7.539351	0.000649	6.486956	2.197840	0.000260
  72	7.0645e+00	2.8218	7.761393	0.000557	5.574727	1.888769	0.000223
  73	7.1640e+00	2.8603	7.959213	0.000497	4.966575	1.682721	0.000199
  74	7.2635e+00	2.9069	8.193367	0.000588	5.878804	1.991793	0.000235
  75	7.3630e+00	2.9374	8.415409	0.000557	5.574727	1.888769	0.000223
  76	7.4625e+00	2.9662	8.673786	0.000649	6.486956	2.197840	0.000260
  77	7.5620e+00	3.0208	8.924089	0.000628	6.284238	2.129158	0.000252
  78	7.6615e+00	3.0561	9.138057	0.000537	5.372010	1.820086	0.000215
  79	7.7610e+00	3.1026	9.376248	0.000598	5.980162	2.026134	0.000239
  80	7.8605e+00	3.1427	9.610402	0.000588	5.878804	1.991793	0.000235
  81	7.9600e+00	3.1748	9.876853	0.000669	6.689673	2.266523	0.000268
  82	8.0595e+00	3.2149	10.078709	0.000507	5.067934	1.717063	0.000203
  83	8.1590e+00	3.2630	10.329012	0.000628	6.284238	2.129158	0.000252
  84	8.2585e+00	3.3031	10.555091	0.000568	5.676086	1.923110	0.000227
  85	8.3580e+00	3.3352	10.785208	0.000578	5.777445	1.957451	0.000231
  86	8.4575e+00	3.3721	11.007251	0.000557	5.574727	1.888769	0.000223
  87	8.5570e+00	3.4138	11.229293	0.000557	5.574727	1.888769	0.000223
  88	8.6565e+00	3.4603	11.479595	0.000628	6.284238	2.129158	0.000252
  89	8.7560e+00	3.5004	11.705675	0.000568	5.676086	1.923110	0.000227
  90	8.8555e+00	3.5341	11.911569	0.000517	5.169293	1.751404	0.000207
  91	8.9550e+00	3.5742	12.178020	0.000669	6.689673	2.266523	0.000268
  92	9.0545e+00	3.6111	12.400062	0.000557	5.574727	1.888769	0.000223
  93	9.1540e+00	3.6560	12.605956	0.000517	5.169293	1.751404	0.000207
  94	9.2535e+00	3.7058	12.852222	0.000618	6.182880	2.094816	0.000248
  95	9.3530e+00	3.7379	13.110598	0.000649	6.486956	2.197840	0.000260
  96	9.4525e+00	3.7780	13.312455	0.000507	5.067934	1.717063	0.000203
  97	9.5520e+00	3.8101	13.534498	0.000557	5.574727	1.888769	0.000223
  98	9.6515e+00	3.8662	13.736354	0.000507	5.067934	1.717063	0.000203
  99	9.7510e+00	3.9015	14.006842	0.000679	6.791032	2.300864	0.000272
 100	9.8505e+00	3.9336	14.216774	0.000527	5.270651	1.785745	0.000211
 101	9.9500e+00	3.9801	14.467076	0.000628	6.284238	2.129158	0.000252
 102	1.0050e+01	4.0058	14.693156	0.000568	5.676086	1.923110	0.000227
 103	1.0149e+01	4.0491	14.923272	0.000578	5.777445	1.957451	0.000231
 104	1.0248e+01	4.1020	15.189723	0.000669	6.689673	2.266523	0.000268
 105	1.0348e+01	4.1405	15.395617	0.000517	5.169293	1.751404	0.000207
 106	1.0447e+01	4.1694	15.678217	0.000710	7.095108	2.403888	0.000284
 107	1.0547e+01	4.2175	15.867962	0.000476	4.763858	1.614039	0.000191
 108	1.0646e+01	4.2689	16.122302	0.000639	6.385597	2.163499	0.000256
 109	1.0746e+01	4.2929	16.356455	0.000588	5.878804	1.991793	0.000235
 110	1.0845e+01	4.3346	16.606758	0.000628	6.284238	2.129158	0.000252
 111	1.0945e+01	4.3812	16.861097	0.000639	6.385597	2.163499	0.000256
 112	1.1044e+01	4.4165	17.058917	0.000497	4.966575	1.682721	0.000199
 113	1.1144e+01	4.4566	17.301145	0.000608	6.081521	2.060475	0.000243
 114	1.1243e+01	4.4951	17.543373	0.000608	6.081521	2.060475	0.000243
 115	1.1343e+01	4.5432	17.761379	0.000547	5.473369	1.854428	0.000219
 116	1.1443e+01	4.5737	18.007644	0.000618	6.182880	2.094816	0.000248
 117	1.1542e+01	4.6122	18.257946	0.000628	6.284238	2.129158	0.000252
 118	1.1642e+01	4.6555	18.496137	0.000598	5.980162	2.026134	0.000239
 119	1.1741e+01	4.6972	18.738366	0.000608	6.081521	2.060475	0.000243
 120	1.1841e+01	4.7309	18.936185	0.000497	4.966575	1.682721	0.000199
 121	1.1940e+01	4.7742	19.198599	0.000659	6.588314	2.232181	0.000264
 122	1.2040e+01	4.8175	19.408530	0.000527	5.270651	1.785745	0.000211
 123	1.2139e+01	4.8560	19.642684	0.000588	5.878804	1.991793	0.000235
 124	1.2239e+01	4.8945	19.913172	0.000679	6.791032	2.300864	0.000272
 125	1.2338e+01	4.9410	20.119066	0.000517	5.169293	1.751404	0.000207
 126	1.2438e+01	4.9715	20.353220	0.000588	5.878804	1.991793	0.000235
 127	1.2537e+01	5.0132	20.587374	0.000588	5.878804	1.991793	0.000235
 128	1.2636e+01	5.0565	20.825565	0.000598	5.980162	2.026134	0.000239
 129	1.2736e+01	5.0934	21.047607	0.000557	5.574727	1.888769	0.000223
 130	1.2835e+01	5.1416	21.322132	0.000689	6.892390	2.335205	0.000276
 131	1.2935e+01	5.1801	21.511878	0.000476	4.763858	1.614039	0.000191
 132	1.3034e+01	5.2122	21.810626	0.000750	7.500542	2.541253	0.000300
 133	1.3134e+01	5.2539	22.020557	0.000527	5.270651	1.785745	0.000211
 134	1.3233e+01	5.2876	22.250674	0.000578	5.777445	1.957451	0.000231
 135	1.3333e+01	5.3261	22.460605	0.000527	5.270651	1.785745	0.000211
 136	1.3432e+01	5.3710	22.702833	0.000608	6.081521	2.060475	0.000243
 137	1.3532e+01	5.4079	22.941024	0.000598	5.980162	2.026134	0.000239
 138	1.3632e+01	5.4512	23.207475	0.000669	6.689673	2.266523	0.000268
 139	1.3731e+01	5.4961	23.433554	0.000568	5.676086	1.923110	0.000227
 140	1.3831e+01	5.5330	23.671745	0.000598	5.980162	2.026134	0.000239
 141	1.3930e+01	5.5731	23.877639	0.000517	5.169293	1.751404	0.000207
 142	1.4030e+01	5.6132	24.099682	0.000557	5.574727	1.888769	0.000223
 143	1.4129e+01	5.6597	24.382281	0.000710	7.095108	2.403888	0.000284
 144	1.4229e+01	5.7014	24.644695	0.000659	6.588314	2.232181	0.000264
 145	1.4328e+01	5.7303	24.842515	0.000497	4.966575	1.682721	0.000199
 146	1.4428e+01	5.7768	25.092817	0.000628	6.284238	2.129158	0.000252
 147	1.4527e+01	5.8089	25.343120	0.000628	6.284238	2.129158	0.000252
 148	1.4627e+01	5.8587	25.565162	0.000557	5.574727	1.888769	0.000223
 149	1.4726e+01	5.8891	25.831613	0.000669	6.689673	2.266523	0.000268
 150	1.4825e+01	5.9228	26.033470	0.000507	5.067934	1.717063	0.000203
 151	1.4925e+01	5.9742	26.287809	0.000639	6.385597	2.163499	0.000256
 152	1.5024e+01	6.0127	26.526000	0.000598	5.980162	2.026134	0.000239
 153	1.5124e+01	6.0560	26.748043	0.000557	5.574727	1.888769	0.000223
 154	1.5223e+01	6.0881	27.006420	0.000649	6.486956	2.197840	0.000260
 155	1.5323e+01	6.1346	27.240573	0.000588	5.878804	1.991793	0.000235
 156	1.5422e+01	6.1699	27.462616	0.000557	5.574727	1.888769	0.000223
 157	1.5522e+01	6.2052	27.729067	0.000669	6.689673	2.266523	0.000268
 158	1.5621e+01	6.2437	27.943035	0.000537	5.372010	1.820086	0.000215
 159	1.5721e+01	6.2950	28.225635	0.000710	7.095108	2.403888	0.000284
 160	1.5820e+01	6.3287	28.435566	0.000527	5.270651	1.785745	0.000211
 161	1.5920e+01	6.3688	28.669719	0.000588	5.878804	1.991793	0.000235
 162	1.6020e+01	6.4057	28.903873	0.000588	5.878804	1.991793	0.000235
 163	1.6119e+01	6.4458	29.166287	0.000659	6.588314	2.232181	0.000264
 164	1.6218e+01	6.4971	29.364107	0.000497	4.966575	1.682721	0.000199
 165	1.6318e+01	6.5324	29.561926	0.000497	4.966575	1.682721	0.000199
 166	1.6418e+01	6.5645	29.868749	0.000770	7.703260	2.609935	0.000308
 167	1.6517e+01	6.6110	30.086754	0.000547	5.473369	1.854428	0.000219
 168	1.6616e+01	6.6576	30.328982	0.000608	6.081521	2.060475	0.000243
 169	1.6716e+01	6.6784	30.546988	0.000547	5.473369	1.854428	0.000219
 170	1.6816e+01	6.7346	30.833624	0.000720	7.196466	2.438229	0.000288
 171	1.6915e+01	6.7699	31.039518	0.000517	5.169293	1.751404	0.000207
 172	1.7015e+01	6.8052	31.301932	0.000659	6.588314	2.232181	0.000264
 173	1.7114e+01	6.8453	31.544160	0.000608	6.081521	2.060475	0.000243
 174	1.7213e+01	6.8838	31.786388	0.000608	6.081521	2.060475	0.000243
 175	1.7313e+01	6.9158	32.004394	0.000547	5.473369	1.854428	0.000219
 176	1.7413e+01	6.9672	32.230473	0.000568	5.676086	1.923110	0.000227
 177	1.7512e+01	7.0137	32.488850	0.000649	6.486956	2.197840	0.000260
 178	1.7611e+01	7.0458	32.686670	0.000497	4.966575	1.682721	0.000199
 179	1.7711e+01	7.0843	32.941009	0.000639	6.385597	2.163499	0.000256
 180	1.7811e+01	7.1196	33.191311	0.000628	6.284238	2.129158	0.000252
 181	1.7910e+01	7.1629	33.473911	0.000710	7.095108	2.403888	0.000284
 182	1.8009e+01	7.2046	33.691916	0.000547	5.473369	1.854428	0.000219
 183	1.8109e+01	7.2463	33.913959	0.000557	5.574727	1.888769	0.000223
 184	1.8209e+01	7.2704	34.168298	0.000639	6.385597	2.163499	0.000256
 185	1.8308e+01	7.3233	34.402452	0.000588	5.878804	1.991793	0.000235
 186	1.8407e+01	7.3666	34.652755	0.000628	6.284238	2.129158	0.000252
 187	1.8507e+01	7.3987	34.878834	0.000568	5.676086	1.923110	0.000227
 188	1.8607e+01	7.4404	35.108951	0.000578	5.777445	1.957451	0.000231
 189	1.8706e+01	7.4805	35.363290	0.000639	6.385597	2.163499	0.000256
 190	1.8805e+01	7.5206	35.593407	0.000578	5.777445	1.957451	0.000231
 191	1.8905e+01	7.5672	35.831598	0.000598	5.980162	2.026134	0.000239
 192	1.9005e+01	7.6137	36.061715	0.000578	5.777445	1.957451	0.000231
 193	1.9104e+01	7.6410	36.299906	0.000598	5.980162	2.026134	0.000239
 194	1.9203e+01	7.6923	36.538097	0.000598	5.980162	2.026134	0.000239
 195	1.9303e+01	7.7228	36.780325	0.000608	6.081521	2.060475	0.000243
 196	1.9402e+01	7.7613	37.030628	0.000628	6.284238	2.129158	0.000252
 197	1.9502e+01	7.8062	37.236521	0.000517	5.169293	1.751404	0.000207
 198	1.9602e+01	7.8479	37.466638	0.000578	5.777445	1.957451	0.000231
 199	1.9701e+01	7.8928	37.725015	0.000649	6.486956	2.197840	0.000260
 200	1.9800e+01	7.9281	37.930909	0.000517	5.169293	1.751404	0.000207
 201	1.9900e+01	7.9586	38.213508	0.000710	7.095108	2.403888	0.000284
 202	2.0000e+01	8.0067	38.419402	0.000517	5.169293	1.751404	0.000207
 203	2.0099e+01	8.0484	38.685853	0.000669	6.689673	2.266523	0.000268
 204	2.0198e+01	8.0805	38.895784	0.000527	5.270651	1.785745	0.000211
 205	2.0298e+01	8.1270	39.125901	0.000578	5.777445	1.957451	0.000231
 206	2.0398e+01	8.1543	39.351981	0.000568	5.676086	1.923110	0.000227
 207	2.0497e+01	8.2073	39.630543	0.000699	6.993749	2.369546	0.000280
 208	2.0596e+01	8.2345	39.820288	0.000476	4.763858	1.614039	0.000191
 209	2.0696e+01	8.2794	40.106925	0.000720	7.196466	2.438229	0.000288
 210	2.0796e+01	8.3212	40.324930	0.000547	5.473369	1.854428	0.000219
 211	2.0895e+01	8.3532	40.563121	0.000598	5.980162	2.026134	0.000239
 212	2.0994e+01	8.3933	40.813424	0.000628	6.284238	2.129158	0.000252
 213	2.1094e+01	8.4383	41.027392	0.000537	5.372010	1.820086	0.000215
 214	2.1194e+01	8.4800	41.293843	0.000669	6.689673	2.266523	0.000268
 215	2.1293e+01	8.5201	41.519922	0.000568	5.676086	1.923110	0.000227
 216	2.1392e+01	8.5602	41.762151	0.000608	6.081521	2.060475	0.000243
 217	2.1492e+01	8.5907	41.996305	0.000588	5.878804	1.991793	0.000235
 218	2.1591e+01	8.6356	42.206236	0.000527	5.270651	1.785745	0.000211
 219	2.1691e+01	8.6757	42.444427	0.000598	5.980162	2.026134	0.000239
 220	2.1791e+01	8.7222	42.682618	0.000598	5.980162	2.026134	0.000239
 221	2.1890e+01	8.7479	42.896586	0.000537	5.372010	1.820086	0.000215
 222	2.1989e+01	8.7944	43.187260	0.000730	7.297825	2.472570	0.000292
 223	2.2089e+01	8.8377	43.356819	0.000426	4.257065	1.442333	0.000170
 224	2.2189e+01	8.8778	43.659604	0.000760	7.601901	2.575594	0.000304
 225	2.2288e+01	8.9163	43.889721	0.000578	5.777445	1.957451	0.000231
 226	2.2387e+01	8.9564	44.055244	0.000416	4.155706	1.407991	0.000166
 227	2.2487e+01	8.9981	44.317658	0.000659	6.588314	2.232181	0.000264
 228	2.2587e+01	9.0447	44.616406	0.000750	7.500542	2.541253	0.000300
 229	2.2686e+01	9.0703	44.794040	0.000446	4.459782	1.511015	0.000179
 230	2.2785e+01	9.1169	45.060491	0.000669	6.689673	2.266523	0.000268
 231	2.2885e+01	9.1554	45.278496	0.000547	5.473369	1.854428	0.000219
 232	2.2985e+01	9.1971	45.528798	0.000628	6.284238	2.129158	0.000252
 233	2.3084e+01	9.2340	45.730655	0.000507	5.067934	1.717063	0.000203
 234	2.3183e+01	9.2805	45.968846	0.000598	5.980162	2.026134	0.000239
 235	2.3283e+01	9.3078	46.182814	0.000537	5.372010	1.820086	0.000215
 236	2.3383e+01	9.3591	46.408894	0.000568	5.676086	1.923110	0.000227
 237	2.3482e+01	9.3928	46.630936	0.000557	5.574727	1.888769	0.000223
 238	2.3581e+01	9.4393	46.885276	0.000639	6.385597	2.163499	0.000256
 239	2.3681e+01	9.4666	47.131541	0.000618	6.182880	2.094816	0.000248
 240	2.3780e+01	9.5227	47.349547	0.000547	5.473369	1.854428	0.000219
 241	2.3880e+01	9.5468	47.599849	0.000628	6.284238	2.129158	0.000252
 242	2.3980e+01	9.6013	47.793631	0.000487	4.865217	1.648380	0.000195
 243	2.4079e+01	9.6302	48.052008	0.000649	6.486956	2.197840	0.000260
 244	2.4178e+01	9.6687	48.245791	0.000487	4.865217	1.648380	0.000195
 245	2.4278e+01	9.7072	48.508204	0.000659	6.588314	2.232181	0.000264
 246	2.4378e+01	9.7618	48.718136	0.000527	5.270651	1.785745	0.000211
 247	2.4477e+01	9.8003	48.988624	0.000679	6.791032	2.300864	0.000272
 248	2.4576e+01	9.8372	49.178369	0.000476	4.763858	1.614039	0.000191
 249	2.4676e+01	9.8741	49.440783	0.000659	6.588314	2.232181	0.000264
 250	2.4776e+01	9.9190	49.658788	0.000547	5.473369	1.854428	0.000219
 251	2.4875e+01	9.9527	49.913128	0.000639	6.385597	2.163499	0.000256
 252	2.4974e+01	9.9880	50.070576	0.000395	3.952989	1.339309	0.000158
 253	2.5074e+01	10.0329	50.320878	0.000628	6.284238	2.129158	0.000252
 254	2.5174e+01	10.0810	50.550995	0.000578	5.777445	1.957451	0.000231
 255	2.5273e+01	10.1147	50.793223	0.000608	6.081521	2.060475	0.000243
 256	2.5372e+01	10.1532	51.011229	0.000547	5.473369	1.854428	0.000219
 257	2.5472e+01	10.1917	51.225197	0.000537	5.372010	1.820086	0.000215
 258	2.5572e+01	10.2286	51.479536	0.000639	6.385597	2.163499	0.000256
 259	2.5671e+01	10.2719	51.745987	0.000669	6.689673	2.266523	0.000268
 260	2.5770e+01	10.3168	51.963993	0.000547	5.473369	1.854428	0.000219
 261	2.5870e+01	10.3617	52.165849	0.000507	5.067934	1.717063	0.000203
 262	2.5970e+01	10.3826	52.420189	0.000639	6.385597	2.163499	0.000256
 263	2.6069e+01	10.4291	52.630120	0.000527	5.270651	1.785745	0.000211
 264	2.6169e+01	10.4740	52.819865	0.000476	4.763858	1.614039	0.000191
 265	2.6268e+01	10.4981	53.054019	0.000588	5.878804	1.991793	0.000235
 266	2.6367e+01	10.5526	53.284136	0.000578	5.777445	1.957451	0.000231
 267	2.6467e+01	10.5799	53.506179	0.000557	5.574727	1.888769	0.000223
 268	2.6567e+01	10.6280	53.736295	0.000578	5.777445	1.957451	0.000231
 269	2.6666e+01	10.6778	53.958338	0.000557	5.574727	1.888769	0.000223
 270	2.6765e+01	10.7099	54.200566	0.000608	6.081521	2.060475	0.000243
 271	2.6865e+01	10.7548	54.422608	0.000557	5.574727	1.888769	0.000223
 272	2.6965e+01	10.7965	54.632539	0.000527	5.270651	1.785745	0.000211
 273	2.7064e+01	10.8254	54.907065	0.000689	6.892390	2.335205	0.000276
 274	2.7163e+01	10.8687	55.104884	0.000497	4.966575	1.682721	0.000199
 275	2.7263e+01	10.9168	55.351150	0.000618	6.182880	2.094816	0.000248
 276	2.7363e+01	10.9473	55.581266	0.000578	5.777445	1.957451	0.000231
 277	2.7462e+01	10.9874	55.791197	0.000527	5.270651	1.785745	0.000211
 278	2.7561e+01	11.0259	56.025351	0.000588	5.878804	1.991793	0.000235
 279	2.7661e+01	11.0740	56.231245	0.000517	5.169293	1.751404	0.000207
 280	2.7761e+01	11.1125	56.457325	0.000568	5.676086	1.923110	0.000227
 281	2.7860e+01	11.1446	56.707627	0.000628	6.284238	2.129158	0.000252
 282	2.7959e+01	11.1767	56.917558	0.000527	5.270651	1.785745	0.000211
 283	2.8059e+01	11.2280	57.155749	0.000598	5.980162	2.026134	0.000239
 284	2.8159e+01	11.2665	57.393940	0.000598	5.980162	2.026134	0.000239
 285	2.8258e+01	11.3082	57.571574	0.000446	4.459782	1.511015	0.000179
 286	2.8358e+01	11.3483	57.821877	0.000628	6.284238	2.129158	0.000252
 287	2.8457e+01	11.3981	58.084290	0.000659	6.588314	2.232181	0.000264
 288	2.8556e+01	11.4221	58.253850	0.000426	4.257065	1.442333	0.000170
 289	2.8656e+01	11.4574	58.548561	0.000740	7.399184	2.506911	0.000296
 290	2.8756e+01	11.4911	58.726195	0.000446	4.459782	1.511015	0.000179
 291	2.8855e+01	11.5489	58.964386	0.000598	5.980162	2.026134	0.000239
 292	2.8954e+01	11.5810	59.198540	0.000588	5.878804	1.991793	0.000235
 293	2.9054e+01	11.6307	59.432694	0.000588	5.878804	1.991793	0.000235
 294	2.9154e+01	11.6628	59.634551	0.000507	5.067934	1.717063	0.000203
 295	2.9253e+01	11.7077	59.872742	0.000598	5.980162	2.026134	0.000239
 296	2.9352e+01	11.7526	60.062487	0.000476	4.763858	1.614039	0.000191
 297	2.9452e+01	11.7799	60.268381	0.000517	5.169293	1.751404	0.000207
 298	2.9552e+01	11.8280	60.514646	0.000618	6.182880	2.094816	0.000248
 299	2.9651e+01	11.8617	60.768986	0.000639	6.385597	2.163499	0.000256
 300	2.9750e+01	11.9162	60.974880	0.000517	5.169293	1.751404	0.000207
 301	2.9850e+01	11.9419	61.229219	0.000639	6.385597	2.163499	0.000256
 302	2.9950e+01	11.9868	61.427039	0.000497	4.966575	1.682721	0.000199
 303	3.0049e+01	12.0269	61.677341	0.000628	6.284238	2.129158	0.000252
 304	3.0148e+01	12.0654	61.883235	0.000517	5.169293	1.751404	0.000207
 305	3.0248e+01	12.1039	62.121426	0.000598	5.980162	2.026134	0.000239
 306	3.0348e+01	12.1473	62.327320	0.000517	5.169293	1.751404	0.000207
 307	3.0447e+01	12.1809	62.569548	0.000608	6.081521	2.060475	0.000243
 308	3.0547e+01	12.2259	62.747182	0.000446	4.459782	1.511015	0.000179
 309	3.0646e+01	12.2579	63.013633	0.000669	6.689673	2.266523	0.000268
 310	3.0745e+01	12.3013	63.203379	0.000476	4.763858	1.614039	0.000191
 311	3.0845e+01	12.3462	63.465792	0.000659	6.588314	2.232181	0.000264
 312	3.0945e+01	12.3879	63.659575	0.000487	4.865217	1.648380	0.000195
 313	3.1044e+01	12.4184	63.946212	0.000720	7.196466	2.438229	0.000288
 314	3.1143e+01	12.4649	64.135957	0.000476	4.763858	1.614039	0.000191
 315	3.1243e+01	12.4938	64.378185	0.000608	6.081521	2.060475	0.000243
 316	3.1343e+01	12.5435	64.576005	0.000497	4.966575	1.682721	0.000199
 317	3.1442e+01	12.5852	64.826307	0.000628	6.284238	2.129158	0.000252
 318	3.1541e+01	12.6285	65.064498	0.000598	5.980162	2.026134	0.000239
 319	3.1641e+01	12.6526	65.258281	0.000487	4.865217	1.648380	0.000195
 320	3.1741e+01	12.7023	65.492435	0.000588	5.878804	1.991793	0.000235
 321	3.1840e+01	12.7424	65.750811	0.000649	6.486956	2.197840	0.000260
 322	3.1939e+01	12.7841	65.948631	0.000497	4.966575	1.682721	0.000199
 323	3.2039e+01	12.8210	66.174710	0.000568	5.676086	1.923110	0.000227
 324	3.2139e+01	12.8595	66.416939	0.000608	6.081521	2.060475	0.000243
 325	3.2238e+01	12.9044	66.614758	0.000497	4.966575	1.682721	0.000199
 326	3.2337e+01	12.9430	66.836801	0.000557	5.574727	1.888769	0.000223
 327	3.2437e+01	12.9831	67.074992	0.000598	5.980162	2.026134	0.000239
 328	3.2536e+01	13.0216	67.280886	0.000517	5.169293	1.751404	0.000207
 329	3.2636e+01	13.0536	67.535225	0.000639	6.385597	2.163499	0.000256
 330	3.2736e+01	13.1034	67.720933	0.000466	4.662499	1.579698	0.000187
 331	3.2835e+01	13.1435	67.959124	0.000598	5.980162	2.026134	0.000239
 332	3.2934e+01	13.1852	68.189241	0.000578	5.777445	1.957451	0.000231
 333	3.3034e+01	13.2253	68.419358	0.000578	5.777445	1.957451	0.000231
 334	3.3133e+01	13.2574	68.621215	0.000507	5.067934	1.717063	0.000203
 335	3.3233e+01	13.2895	68.863443	0.000608	6.081521	2.060475	0.000243
 336	3.3333e+01	13.3344	69.093560	0.000578	5.777445	1.957451	0.000231
 337	3.3432e+01	13.3761	69.327713	0.000588	5.878804	1.991793	0.000235
 338	3.3532e+01	13.4130	69.533607	0.000517	5.169293	1.751404	0.000207
 339	3.3631e+01	13.4515	69.791984	0.000649	6.486956	2.197840	0.000260
 340	3.3730e+01	13.4996	70.009989	0.000547	5.473369	1.854428	0.000219
 341	3.3830e+01	13.5317	70.207809	0.000497	4.966575	1.682721	0.000199
 342	3.3929e+01	13.5798	70.437926	0.000578	5.777445	1.957451	0.000231
 343	3.4029e+01	13.6264	70.708414	0.000679	6.791032	2.300864	0.000272
 344	3.4129e+01	13.6520	70.898159	0.000476	4.763858	1.614039	0.000191
 345	3.4228e+01	13.6953	71.172684	0.000689	6.892390	2.335205	0.000276
 346	3.4328e+01	13.7322	71.326096	0.000385	3.851630	1.304968	0.000154
 347	3.4427e+01	13.7836	71.600621	0.000689	6.892390	2.335205	0.000276
 348	3.4526e+01	13.8140	71.834775	0.000588	5.878804	1.991793	0.000235
 349	3.4626e+01	13.8509	72.060854	0.000568	5.676086	1.923110	0.000227
 350	3.4725e+01	13.8830	72.242525	0.000456	4.561141	1.545356	0.000183
 351	3.4825e+01	13.9328	72.476679	0.000588	5.878804	1.991793	0.000235
 352	3.4925e+01	13.9713	72.722945	0.000618	6.182880	2.094816	0.000248
 353	3.5024e+01	14.0178	72.961136	0.000598	5.980162	2.026134	0.000239
 354	3.5123e+01	14.0627	73.167030	0.000517	5.169293	1.751404	0.000207
 355	3.5223e+01	14.0852	73.401183	0.000588	5.878804	1.991793	0.000235
 356	3.5322e+01	14.1461	73.586892	0.000466	4.662499	1.579698	0.000187
 357	3.5422e+01	14.1750	73.812971	0.000568	5.676086	1.923110	0.000227
 358	3.5522e+01	14.2087	74.047125	0.000588	5.878804	1.991793	0.000235
 359	3.5621e+01	14.2648	74.305502	0.000649	6.486956	2.197840	0.000260
 360	3.5721e+01	14.3001	74.483136	0.000446	4.459782	1.511015	0.000179
 361	3.5820e+01	14.3402	74.749587	0.000669	6.689673	2.266523	0.000268
 362	3.5919e+01	14.3771	74.979703	0.000578	5.777445	1.957451	0.000231
 363	3.6019e+01	14.4156	75.157337	0.000446	4.459782	1.511015	0.000179
 364	3.6118e+01	14.4573	75.423788	0.000669	6.689673	2.266523	0.000268
 365	3.6218e+01	14.4975	75.605460	0.000456	4.561141	1.545356	0.000183
 366	3.6318e+01	14.5360	75.859799	0.000639	6.385597	2.163499	0.000256
 367	3.6417e+01	14.5745	76.073767	0.000537	5.372010	1.820086	0.000215
 368	3.6517e+01	14.6242	76.259476	0.000466	4.662499	1.579698	0.000187
 369	3.6616e+01	14.6531	76.493629	0.000588	5.878804	1.991793	0.000235
 370	3.6715e+01	14.6916	76.711635	0.000547	5.473369	1.854428	0.000219
 371	3.6815e+01	14.7365	76.929640	0.000547	5.473369	1.854428	0.000219
 372	3.6914e+01	14.7718	77.167831	0.000598	5.980162	2.026134	0.000239
 373	3.7014e+01	14.8055	77.381799	0.000537	5.372010	1.820086	0.000215
 374	3.7114e+01	14.8536	77.599805	0.000547	5.473369	1.854428	0.000219
 375	3.7213e+01	14.8953	77.862218	0.000659	6.588314	2.232181	0.000264
 376	3.7313e+01	14.9338	78.056001	0.000487	4.865217	1.648380	0.000195
 377	3.7412e+01	14.9739	78.282081	0.000568	5.676086	1.923110	0.000227
 378	3.7511e+01	15.0092	78.487974	0.000517	5.169293	1.751404	0.000207
 379	3.7611e+01	15.0413	78.762500	0.000689	6.892390	2.335205	0.000276
 380	3.7711e+01	15.0910	78.956282	0.000487	4.865217	1.648380	0.000195
 381	3.7810e+01	15.1311	79.194473	0.000598	5.980162	2.026134	0.000239
 382	3.7910e+01	15.1696	79.404404	0.000527	5.270651	1.785745	0.000211
 383	3.8009e+01	15.2065	79.618372	0.000537	5.372010	1.820086	0.000215
 384	3.8108e+01	15.2450	79.836378	0.000547	5.473369	1.854428	0.000219
 385	3.8208e+01	15.2915	80.062457	0.000568	5.676086	1.923110	0.000227
 386	3.8307e+01	15.3220	80.296611	0.000588	5.878804	1.991793	0.000235
 387	3.8407e+01	15.3653	80.510579	0.000537	5.372010	1.820086	0.000215
 388	3.8507e+01	15.4151	80.728585	0.000547	5.473369	1.854428	0.000219
 389	3.8606e+01	15.4456	80.938516	0.000527	5.270651	1.785745	0.000211
 390	3.8706e+01	15.4905	81.160558	0.000557	5.574727	1.888769	0.000223
 391	3.8805e+01	15.5242	81.427009	0.000669	6.689673	2.266523	0.000268
 392	3.8904e+01	15.5755	81.616755	0.000476	4.763858	1.614039	0.000191
 393	3.9004e+01	15.6060	81.838797	0.000557	5.574727	1.888769	0.000223
 394	3.9103e+01	15.6509	82.072951	0.000588	5.878804	1.991793	0.000235
 395	3.9203e+01	15.6958	82.278845	0.000517	5.169293	1.751404	0.000207
 396	3.9303e+01	15.7295	82.492813	0.000537	5.372010	1.820086	0.000215
 397	3.9402e+01	15.7680	82.710818	0.000547	5.473369	1.854428	0.000219
 398	3.9502e+01	15.8081	82.908638	0.000497	4.966575	1.682721	0.000199
 399	3.9601e+01	15.8450	83.122606	0.000537	5.372010	1.820086	0.000215
 400	3.9700e+01	15.8883	83.364834	0.000608	6.081521	2.060475	0.000243
 401	3.9800e+01	15.9204	83.582840	0.000547	5.473369	1.854428	0.000219
 402	3.9900e+01	15.9717	83.821031	0.000598	5.980162	2.026134	0.000239
 403	3.9999e+01	16.0135	84.006739	0.000466	4.662499	1.579698	0.000187
 404	4.0099e+01	16.0455	84.244930	0.000598	5.980162	2.026134	0.000239
 405	4.0198e+01	16.0889	84.462935	0.000547	5.473369	1.854428	0.000219
 406	4.0297e+01	16.1274	84.672866	0.000527	5.270651	1.785745	0.000211
 407	4.0397e+01	16.1642	84.927206	0.000639	6.385597	2.163499	0.000256
 408	4.0496e+01	16.2076	85.084654	0.000395	3.952989	1.339309	0.000158
 409	4.0596e+01	16.2429	85.326882	0.000608	6.081521	2.060475	0.000243
 410	4.0696e+01	16.2878	85.544888	0.000547	5.473369	1.854428	0.000219
 411	4.0795e+01	16.3343	85.775004	0.000578	5.777445	1.957451	0.000231
 412	4.0895e+01	16.3696	85.984936	0.000527	5.270651	1.785745	0.000211
 413	4.0994e+01	16.4065	86.206978	0.000557	5.574727	1.888769	0.000223
 414	4.1093e+01	16.4466	86.429020	0.000557	5.574727	1.888769	0.000223
 415	4.1193e+01	16.4915	86.622803	0.000487	4.865217	1.648380	0.000195
 416	4.1292e+01	16.5284	86.816585	0.000487	4.865217	1.648380	0.000195
 417	4.1392e+01	16.5653	87.026517	0.000527	5.270651	1.785745	0.000211
 418	4.1492e+01	16.6086	87.268745	0.000608	6.081521	2.060475	0.000243
 419	4.1591e+01	16.6439	87.515010	0.000618	6.182880	2.094816	0.000248
 420	4.1691e+01	16.6872	87.684570	0.000426	4.257065	1.442333	0.000170
 421	4.1790e+01	16.7225	87.922761	0.000598	5.980162	2.026134	0.000239
 422	4.1889e+01	16.7674	88.112506	0.000476	4.763858	1.614039	0.000191
 423	4.1989e+01	16.7995	88.302251	0.000476	4.763858	1.614039	0.000191
 424	4.2089e+01	16.8493	88.568702	0.000669	6.689673	2.266523	0.000268
 425	4.2188e+01	16.8862	88.754411	0.000466	4.662499	1.579698	0.000187
 426	4.2288e+01	16.9214	88.984527	0.000578	5.777445	1.957451	0.000231
 427	4.2387e+01	16.9648	89.194458	0.000527	5.270651	1.785745	0.000211
 428	4.2486e+01	17.0049	89.388241	0.000487	4.865217	1.648380	0.000195
 429	4.2586e+01	17.0353	89.634506	0.000618	6.182880	2.094816	0.000248
 430	4.2685e+01	17.0851	89.848474	0.000537	5.372010	1.820086	0.000215
 431	4.2785e+01	17.1236	90.038220	0.000476	4.763858	1.614039	0.000191
 432	4.2885e+01	17.1717	90.268337	0.000578	5.777445	1.957451	0.000231
 433	4.2984e+01	17.2102	90.462119	0.000487	4.865217	1.648380	0.000195
 434	4.3084e+01	17.2407	90.680124	0.000547	5.473369	1.854428	0.000219
 435	4.3183e+01	17.2824	90.886018	0.000517	5.169293	1.751404	0.000207
 436	4.3282e+01	17.3289	91.120172	0.000588	5.878804	1.991793	0.000235
 437	4.3382e+01	17.3594	91.366437	0.000618	6.182880	2.094816	0.000248
 438	4.3481e+01	17.4059	91.548109	0.000456	4.561141	1.545356	0.000183
 439	4.3581e+01	17.4348	91.774188	0.000568	5.676086	1.923110	0.000227
 440	4.3681e+01	17.4845	91.996231	0.000557	5.574727	1.888769	0.000223
 441	4.3780e+01	17.5230	92.202125	0.000517	5.169293	1.751404	0.000207
 442	4.3880e+01	17.5551	92.403981	0.000507	5.067934	1.717063	0.000203
 443	4.3979e+01	17.6081	92.638135	0.000588	5.878804	1.991793	0.000235
 444	4.4078e+01	17.6401	92.799621	0.000405	4.054347	1.373650	0.000162
 445	4.4178e+01	17.6802	93.049923	0.000628	6.284238	2.129158	0.000252
 446	4.4278e+01	17.7107	93.271966	0.000557	5.574727	1.888769	0.000223
 447	4.4377e+01	17.7540	93.465748	0.000487	4.865217	1.648380	0.000195
 448	4.4477e+01	17.8038	93.724125	0.000649	6.486956	2.197840	0.000260
 449	4.4576e+01	17.8487	93.885610	0.000405	4.054347	1.373650	0.000162
 450	4.4675e+01	17.8840	94.139950	0.000639	6.385597	2.163499	0.000256
 451	4.4775e+01	17.9257	94.329695	0.000476	4.763858	1.614039	0.000191
 452	4.4874e+01	17.9578	94.551738	0.000557	5.574727	1.888769	0.000223
 453	4.4974e+01	17.9931	94.737446	0.000466	4.662499	1.579698	0.000187
 454	4.5074e+01	18.0428	94.971600	0.000588	5.878804	1.991793	0.000235
 455	4.5173e+01	18.0765	95.181531	0.000527	5.270651	1.785745	0.000211
 456	4.5273e+01	18.1214	95.383388	0.000507	5.067934	1.717063	0.000203
 457	4.5372e+01	18.1599	95.625616	0.000608	6.081521	2.060475	0.000243
 458	4.5471e+01	18.2016	95.807287	0.000456	4.561141	1.545356	0.000183
 459	4.5571e+01	18.2401	96.017218	0.000527	5.270651	1.785745	0.000211
 460	4.5670e+01	18.2834	96.259446	0.000608	6.081521	2.060475	0.000243
 461	4.5770e+01	18.3268	96.445154	0.000466	4.662499	1.579698	0.000187
 462	4.5870e+01	18.3604	96.659122	0.000537	5.372010	1.820086	0.000215
 463	4.5969e+01	18.3957	96.897313	0.000598	5.980162	2.026134	0.000239
 464	4.6069e+01	18.4439	97.115319	0.000547	5.473369	1.854428	0.000219
 465	4.6168e+01	18.4743	97.309101	0.000487	4.865217	1.648380	0.000195
 466	4.6267e+01	18.5128	97.527107	0.000547	5.473369	1.854428	0.000219
 467	4.6367e+01	18.5562	97.757223	0.000578	5.777445	1.957451	0.000231
 468	4.6467e+01	18.5979	97.963117	0.000517	5.169293	1.751404	0.000207
 469	4.6566e+01	18.6476	98.140751	0.000446	4.459782	1.511015	0.000179
 470	4.6666e+01	18.6765	98.366831	0.000568	5.676086	1.923110	0.000227
 471	4.6765e+01	18.7182	98.600985	0.000588	5.878804	1.991793	0.000235
 472	4.6864e+01	18.7663	98.827064	0.000568	5.676086	1.923110	0.000227
 473	4.6964e+01	18.7968	99.012773	0.000466	4.662499	1.579698	0.000187
 474	4.7063e+01	18.8337	99.194444	0.000456	4.561141	1.545356	0.000183
 475	4.7163e+01	18.8786	99.485117	0.000730	7.297825	2.472570	0.000292
 476	4.7263e+01	18.9267	99.666789	0.000456	4.561141	1.545356	0.000183
 477	4.7362e+01	18.9492	99.888831	0.000557	5.574727	1.888769	0.000223
 478	4.7462e+01	18.9973	100.090688	0.000507	5.067934	1.717063	0.000203
 479	4.7561e+01	19.0310	100.312730	0.000557	5.574727	1.888769	0.000223
 480	4.7660e+01	19.0759	100.530736	0.000547	5.473369	1.854428	0.000219
 481	4.7760e+01	19.1160	100.756815	0.000568	5.676086	1.923110	0.000227
 482	4.7859e+01	19.1545	100.974821	0.000547	5.473369	1.854428	0.000219
 483	4.7959e+01	19.1882	101.217049	0.000608	6.081521	2.060475	0.000243
 484	4.8059e+01	19.2348	101.426980	0.000527	5.270651	1.785745	0.000211
 485	4.8158e+01	19.2781	101.649022	0.000557	5.574727	1.888769	0.000223
 486	4.8258e+01	19.3085	101.875102	0.000568	5.676086	1.923110	0.000227
 487	4.8357e+01	19.3535	102.060810	0.000466	4.662499	1.579698	0.000187
 488	4.8456e+01	19.3872	102.299001	0.000598	5.980162	2.026134	0.000239
 489	4.8556e+01	19.4337	102.512969	0.000537	5.372010	1.820086	0.000215
 490	4.8656e+01	19.4738	102.690603	0.000446	4.459782	1.511015	0.000179
 491	4.8755e+01	19.5123	102.973203	0.000710	7.095108	2.403888	0.000284
 492	4.8855e+01	19.5636	103.195245	0.000557	5.574727	1.888769	0.000223
 493	4.8954e+01	19.5861	103.393065	0.000497	4.966575	1.682721	0.000199
 494	4.9053e+01	19.6358	103.598959	0.000517	5.169293	1.751404	0.000207
 495	4.9153e+01	19.6823	103.849261	0.000628	6.284238	2.129158	0.000252
 496	4.9252e+01	19.7048	104.043044	0.000487	4.865217	1.648380	0.000195
 497	4.9352e+01	19.7465	104.240863	0.000497	4.966575	1.682721	0.000199
 498	4.9452e+01	19.7802	104.479054	0.000598	5.980162	2.026134	0.000239
 499	4.9551e+01	19.8379	104.713208	0.000588	5.878804	1.991793	0.000235
 500	4.9651e+01	19.8748	104.947362	0.000588	5.878804	1.991793	0.000235
 501	4.9750e+01	19.9101	105.165367	0.000547	5.473369	1.854428	0.000219
 502	4.9849e+01	19.9502	105.399521	0.000588	5.878804	1.991793	0.000235
 503	4.9949e+01	19.9936	105.613489	0.000537	5.372010	1.820086	0.000215
 504	5.0048e+01	19.9502	105.512561	0.000253	2.533967	0.858531	-0.000101
 505	5.0148e+01	19.9021	105.395484	0.000294	2.939402	0.995896	-0.000118
 506	5.0248e+01	19.8652	105.177479	0.000547	5.473369	1.854428	-0.000219
 507	5.0347e+01	19.8379	105.088662	0.000223	2.229891	0.755508	-0.000089
 508	5.0447e+01	19.7930	104.898916	0.000476	4.763858	1.614039	-0.000191
 509	5.0546e+01	19.7561	104.830285	0.000172	1.723098	0.583801	-0.000069
 510	5.0645e+01	19.7192	104.693023	0.000345	3.446195	1.167603	-0.000138
 511	5.0745e+01	19.6727	104.523463	0.000426	4.257065	1.442333	-0.000170
 512	5.0844e+01	19.6358	104.390237	0.000334	3.344836	1.133261	-0.000134
 513	5.0944e+01	19.5925	104.261049	0.000324	3.243478	1.098920	-0.000130
 514	5.1044e+01	19.5492	104.091489	0.000426	4.257065	1.442333	-0.000170
 515	5.1143e+01	19.5139	103.998635	0.000233	2.331250	0.789849	-0.000093
 516	5.1242e+01	19.4818	103.788704	0.000527	5.270651	1.785745	-0.000211
 517	5.1342e+01	19.4289	103.687776	0.000253	2.533967	0.858531	-0.000101
 518	5.1441e+01	19.3984	103.518216	0.000426	4.257065	1.442333	-0.000170
 519	5.1541e+01	19.3567	103.356731	0.000405	4.054347	1.373650	-0.000162
 520	5.1641e+01	19.3262	103.183134	0.000436	4.358423	1.476674	-0.000174
 521	5.1740e+01	19.2861	103.078168	0.000264	2.635326	0.892873	-0.000105
 522	5.1840e+01	19.2315	102.900534	0.000446	4.459782	1.511015	-0.000179
 523	5.1939e+01	19.1914	102.751160	0.000375	3.750271	1.270626	-0.000150
 524	5.2038e+01	19.1577	102.605823	0.000365	3.648913	1.236285	-0.000146
 525	5.2138e+01	19.1225	102.424152	0.000456	4.561141	1.545356	-0.000183
 526	5.2237e+01	19.0775	102.303038	0.000304	3.040760	1.030238	-0.000122
 527	5.2337e+01	19.0422	102.109256	0.000487	4.865217	1.648380	-0.000195
 528	5.2437e+01	19.0005	101.939696	0.000426	4.257065	1.442333	-0.000170
 529	5.2536e+01	18.9588	101.818582	0.000304	3.040760	1.030238	-0.000122
 530	5.2636e+01	18.9123	101.669208	0.000375	3.750271	1.270626	-0.000150
 531	5.2735e+01	18.8786	101.487537	0.000456	4.561141	1.545356	-0.000183
 532	5.2834e+01	18.8401	101.354311	0.000334	3.344836	1.133261	-0.000134
 533	5.2934e+01	18.7968	101.188789	0.000416	4.155706	1.407991	-0.000166
 534	5.3033e+01	18.7567	101.007118	0.000456	4.561141	1.545356	-0.000183
 535	5.3133e+01	18.7246	100.877929	0.000324	3.243478	1.098920	-0.000130
 536	5.3233e+01	18.6765	100.667998	0.000527	5.270651	1.785745	-0.000211
 537	5.3332e+01	18.6364	100.522661	0.000365	3.648913	1.236285	-0.000146
 538	5.3431e+01	18.6027	100.409622	0.000284	2.838043	0.961555	-0.000114
 539	5.3531e+01	18.5546	100.227950	0.000456	4.561141	1.545356	-0.000183
 540	5.3630e+01	18.5209	100.042242	0.000466	4.662499	1.579698	-0.000187
 541	5.3730e+01	18.4856	99.876720	0.000416	4.155706	1.407991	-0.000166
 542	5.3830e+01	18.4358	99.707160	0.000426	4.257065	1.442333	-0.000170
 543	5.3929e+01	18.3989	99.525489	0.000456	4.561141	1.545356	-0.000183
 544	5.4029e+01	18.3572	99.392263	0.000334	3.344836	1.133261	-0.000134
 545	5.4128e+01	18.3300	99.222704	0.000426	4.257065	1.442333	-0.000170
 546	5.4227e+01	18.2738	99.093515	0.000324	3.243478	1.098920	-0.000130
 547	5.4327e+01	18.2498	98.907807	0.000466	4.662499	1.579698	-0.000187
 548	5.4426e+01	18.1952	98.742284	0.000416	4.155706	1.407991	-0.000166
 549	5.4526e+01	18.1503	98.560613	0.000456	4.561141	1.545356	-0.000183
 550	5.4626e+01	18.1086	98.382979	0.000446	4.459782	1.511015	-0.000179
 551	5.4725e+01	18.0765	98.249754	0.000334	3.344836	1.133261	-0.000134
 552	5.4825e+01	18.0476	98.080194	0.000426	4.257065	1.442333	-0.000170
 553	5.4924e+01	18.0027	97.894486	0.000466	4.662499	1.579698	-0.000187
 554	5.5023e+01	17.9562	97.733001	0.000405	4.054347	1.373650	-0.000162
 555	5.5123e+01	17.9305	97.579589	0.000385	3.851630	1.304968	-0.000154
 556	5.5222e+01	17.8872	97.393881	0.000466	4.662499	1.579698	-0.000187
 557	5.5322e+01	17.8407	97.244507	0.000375	3.750271	1.270626	-0.000150
 558	5.5422e+01	17.8054	97.066873	0.000446	4.459782	1.511015	-0.000179
 559	5.5521e+01	17.7589	96.848868	0.000547	5.473369	1.854428	-0.000219
 560	5.5620e+01	17.7220	96.707568	0.000355	3.547554	1.201944	-0.000142
 561	5.5720e+01	17.6883	96.550120	0.000395	3.952989	1.339309	-0.000158
 562	5.5819e+01	17.6450	96.368449	0.000456	4.561141	1.545356	-0.000183
 563	5.5919e+01	17.6016	96.206963	0.000405	4.054347	1.373650	-0.000162
 564	5.6019e+01	17.5696	96.029329	0.000446	4.459782	1.511015	-0.000179
 565	5.6118e+01	17.5230	95.879955	0.000375	3.750271	1.270626	-0.000150
 566	5.6218e+01	17.4829	95.722507	0.000395	3.952989	1.339309	-0.000158
 567	5.6317e+01	17.4444	95.500464	0.000557	5.574727	1.888769	-0.000223
 568	5.6416e+01	17.4043	95.322830	0.000446	4.459782	1.511015	-0.000179
 569	5.6516e+01	17.3642	95.173456	0.000375	3.750271	1.270626	-0.000150
 570	5.6615e+01	17.3241	94.987748	0.000466	4.662499	1.579698	-0.000187
 571	5.6715e+01	17.2856	94.789929	0.000497	4.966575	1.682721	-0.000199
 572	5.6815e+01	17.2439	94.644592	0.000365	3.648913	1.236285	-0.000146
 573	5.6914e+01	17.2038	94.410438	0.000588	5.878804	1.991793	-0.000235
 574	5.7014e+01	17.1605	94.248952	0.000405	4.054347	1.373650	-0.000162
 575	5.7113e+01	17.1268	94.103615	0.000365	3.648913	1.236285	-0.000146
 576	5.7212e+01	17.0787	93.909833	0.000487	4.865217	1.648380	-0.000195
 577	5.7312e+01	17.0466	93.756422	0.000385	3.851630	1.304968	-0.000154
 578	5.7411e+01	17.0113	93.522268	0.000588	5.878804	1.991793	-0.000235
 579	5.7511e+01	16.9664	93.376931	0.000365	3.648913	1.236285	-0.000146
 580	5.7611e+01	16.9263	93.215446	0.000405	4.054347	1.373650	-0.000162
 581	5.7710e+01	16.8829	93.049923	0.000416	4.155706	1.407991	-0.000166
 582	5.7809e+01	16.8348	92.835955	0.000537	5.372010	1.820086	-0.000215
 583	5.7909e+01	16.8043	92.654284	0.000456	4.561141	1.545356	-0.000183
 584	5.8008e+01	16.7546	92.472613	0.000456	4.561141	1.545356	-0.000183
 585	5.8108e+01	16.7257	92.274793	0.000497	4.966575	1.682721	-0.000199
 586	5.8208e+01	16.6856	92.117345	0.000395	3.952989	1.339309	-0.000158
 587	5.8307e+01	16.6391	91.923562	0.000487	4.865217	1.648380	-0.000195
 588	5.8407e+01	16.6022	91.745928	0.000446	4.459782	1.511015	-0.000179
 589	5.8506e+01	16.5685	91.556183	0.000476	4.763858	1.614039	-0.000191
 590	5.8605e+01	16.5268	91.390660	0.000416	4.155706	1.407991	-0.000166
 591	5.8705e+01	16.4723	91.152469	0.000598	5.980162	2.026134	-0.000239
 592	5.8804e+01	16.4450	91.031355	0.000304	3.040760	1.030238	-0.000122
 593	5.8904e+01	16.4017	90.813350	0.000547	5.473369	1.854428	-0.000219
 594	5.9004e+01	16.3696	90.623604	0.000476	4.763858	1.614039	-0.000191
 595	5.9103e+01	16.3263	90.413673	0.000527	5.270651	1.785745	-0.000211
 596	5.9203e+01	16.2862	90.260262	0.000385	3.851630	1.304968	-0.000154
 597	5.9302e+01	16.2525	90.082628	0.000446	4.459782	1.511015	-0.000179
 598	5.9401e+01	16.2044	89.860586	0.000557	5.574727	1.888769	-0.000223
 599	5.9501e+01	16.1675	89.674878	0.000466	4.662499	1.579698	-0.000187
 600	5.9600e+01	16.1274	89.468984	0.000517	5.169293	1.751404	-0.000207
 601	5.9700e+01	16.0808	89.291350	0.000446	4.459782	1.511015	-0.000179
 602	5.9800e+01	16.0552	89.105641	0.000466	4.662499	1.579698	-0.000187
 603	5.9899e+01	16.0102	88.940119	0.000416	4.155706	1.407991	-0.000166
 604	5.9998e+01	15.9685	88.774596	0.000416	4.155706	1.407991	-0.000166
 605	6.0098e+01	15.9300	88.576777	0.000497	4.966575	1.682721	-0.000199
 606	6.0197e+01	15.8931	88.387031	0.000476	4.763858	1.614039	-0.000191
 607	6.0297e+01	15.8450	88.221509	0.000416	4.155706	1.407991	-0.000166
 608	6.0397e+01	15.8129	88.011578	0.000527	5.270651	1.785745	-0.000211
 609	6.0496e+01	15.7792	87.825869	0.000466	4.662499	1.579698	-0.000187
 610	6.0596e+01	15.7327	87.619975	0.000517	5.169293	1.751404	-0.000207
 611	6.0695e+01	15.6942	87.478676	0.000355	3.547554	1.201944	-0.000142
 612	6.0794e+01	15.6573	87.244522	0.000588	5.878804	1.991793	-0.000235
 613	6.0894e+01	15.6140	87.070925	0.000436	4.358423	1.476674	-0.000174
 614	6.0993e+01	15.5659	86.828697	0.000608	6.081521	2.060475	-0.000243
 615	6.1093e+01	15.5226	86.679323	0.000375	3.750271	1.270626	-0.000150
 616	6.1193e+01	15.4937	86.533986	0.000365	3.648913	1.236285	-0.000146
 617	6.1292e+01	15.4488	86.279646	0.000639	6.385597	2.163499	-0.000256
 618	6.1392e+01	15.4087	86.134310	0.000365	3.648913	1.236285	-0.000146
 619	6.1491e+01	15.3734	85.928416	0.000517	5.169293	1.751404	-0.000207
 620	6.1590e+01	15.3284	85.742707	0.000466	4.662499	1.579698	-0.000187
 621	6.1690e+01	15.2915	85.532776	0.000527	5.270651	1.785745	-0.000211
 622	6.1789e+01	15.2482	85.334957	0.000497	4.966575	1.682721	-0.000199
 623	6.1889e+01	15.2178	85.120988	0.000537	5.372010	1.820086	-0.000215
 624	6.1989e+01	15.1696	84.963540	0.000395	3.952989	1.339309	-0.000158
 625	6.2088e+01	15.1359	84.753609	0.000527	5.270651	1.785745	-0.000211
 626	6.2188e+01	15.0926	84.584049	0.000426	4.257065	1.442333	-0.000170
 627	6.2287e+01	15.0493	84.422564	0.000405	4.054347	1.373650	-0.000162
 628	6.2386e+01	15.0124	84.164187	0.000649	6.486956	2.197840	-0.000260
 629	6.2486e+01	14.9691	84.002702	0.000405	4.054347	1.373650	-0.000162
 630	6.2586e+01	14.9354	83.825068	0.000446	4.459782	1.511015	-0.000179
 631	6.2685e+01	14.8953	83.598988	0.000568	5.676086	1.923110	-0.000227
 632	6.2785e+01	14.8440	83.457689	0.000355	3.547554	1.201944	-0.000142
 633	6.2884e+01	14.8151	83.223535	0.000588	5.878804	1.991793	-0.000235
 634	6.2983e+01	14.7734	83.001492	0.000557	5.574727	1.888769	-0.000223
 635	6.3083e+01	14.7333	82.803673	0.000497	4.966575	1.682721	-0.000199
 636	6.3182e+01	14.6851	82.613927	0.000476	4.763858	1.614039	-0.000191
 637	6.3282e+01	14.6499	82.403996	0.000527	5.270651	1.785745	-0.000211
 638	6.3382e+01	14.6097	82.266734	0.000345	3.446195	1.167603	-0.000138
 639	6.3481e+01	14.5680	82.032580	0.000588	5.878804	1.991793	-0.000235
 640	6.3581e+01	14.5376	81.858983	0.000436	4.358423	1.476674	-0.000174
 641	6.3680e+01	14.4958	81.616755	0.000608	6.081521	2.060475	-0.000243
 642	6.3779e+01	14.4557	81.459306	0.000395	3.952989	1.339309	-0.000158
 643	6.3879e+01	14.4172	81.269561	0.000476	4.763858	1.614039	-0.000191
 644	6.3978e+01	14.3675	81.055593	0.000537	5.372010	1.820086	-0.000215
 645	6.4078e+01	14.3402	80.881996	0.000436	4.358423	1.476674	-0.000174
 646	6.4177e+01	14.2937	80.647842	0.000588	5.878804	1.991793	-0.000235
 647	6.4277e+01	14.2552	80.490394	0.000395	3.952989	1.339309	-0.000158
 648	6.4376e+01	14.2279	80.284500	0.000517	5.169293	1.751404	-0.000207
 649	6.4476e+01	14.1750	80.106866	0.000446	4.459782	1.511015	-0.000179
 650	6.4576e+01	14.1429	79.892898	0.000537	5.372010	1.820086	-0.000215
 651	6.4675e+01	14.0948	79.687004	0.000517	5.169293	1.751404	-0.000207
 652	6.4775e+01	14.0547	79.489184	0.000497	4.966575	1.682721	-0.000199
 653	6.4874e+01	14.0146	79.307513	0.000456	4.561141	1.545356	-0.000183
 654	6.4974e+01	13.9809	79.085471	0.000557	5.574727	1.888769	-0.000223
 655	6.5073e+01	13.9440	78.919948	0.000416	4.155706	1.407991	-0.000166
 656	6.5172e+01	13.8927	78.705980	0.000537	5.372010	1.820086	-0.000215
 657	6.5272e+01	13.8542	78.500086	0.000517	5.169293	1.751404	-0.000207
 658	6.5371e+01	13.8108	78.322452	0.000446	4.459782	1.511015	-0.000179
 659	6.5471e+01	13.7772	78.132707	0.000476	4.763858	1.614039	-0.000191
 660	6.5570e+01	13.7435	77.918738	0.000537	5.372010	1.820086	-0.000215
 661	6.5670e+01	13.6937	77.733030	0.000466	4.662499	1.579698	-0.000187
 662	6.5769e+01	13.6697	77.543285	0.000476	4.763858	1.614039	-0.000191
 663	6.5869e+01	13.6167	77.337391	0.000517	5.169293	1.751404	-0.000207
 664	6.5969e+01	13.5782	77.131497	0.000517	5.169293	1.751404	-0.000207
 665	6.6068e+01	13.5333	76.941751	0.000476	4.763858	1.614039	-0.000191
 666	6.6168e+01	13.5060	76.723746	0.000547	5.473369	1.854428	-0.000219
 667	6.6267e+01	13.4531	76.538038	0.000466	4.662499	1.579698	-0.000187
 668	6.6367e+01	13.4226	76.344255	0.000487	4.865217	1.648380	-0.000195
 669	6.6466e+01	13.3809	76.150473	0.000487	4.865217	1.648380	-0.000195
 670	6.6566e+01	13.3408	75.924393	0.000568	5.676086	1.923110	-0.000227
 671	6.6665e+01	13.3007	75.730611	0.000487	4.865217	1.648380	-0.000195
 672	6.6764e+01	13.2574	75.536828	0.000487	4.865217	1.648380	-0.000195
 673	6.6864e+01	13.2173	75.351120	0.000466	4.662499	1.579698	-0.000187
 674	6.6963e+01	13.1804	75.169449	0.000456	4.561141	1.545356	-0.000183
 675	6.7063e+01	13.1403	74.959518	0.000527	5.270651	1.785745	-0.000211
 676	6.7162e+01	13.0970	74.765735	0.000487	4.865217	1.648380	-0.000195
 677	6.7262e+01	13.0585	74.531581	0.000588	5.878804	1.991793	-0.000235
 678	6.7362e+01	13.0264	74.325688	0.000517	5.169293	1.751404	-0.000207
 679	6.7461e+01	12.9750	74.119794	0.000517	5.169293	1.751404	-0.000207
 680	6.7561e+01	12.9349	73.934085	0.000466	4.662499	1.579698	-0.000187
 681	6.7660e+01	12.9012	73.748377	0.000466	4.662499	1.579698	-0.000187
 682	6.7760e+01	12.8611	73.554595	0.000487	4.865217	1.648380	-0.000195
 683	6.7859e+01	12.8194	73.360812	0.000487	4.865217	1.648380	-0.000195
 684	6.7959e+01	12.7825	73.183178	0.000446	4.459782	1.511015	-0.000179
 685	6.8058e+01	12.7408	73.013618	0.000426	4.257065	1.442333	-0.000170
 686	6.8157e+01	12.6975	72.755242	0.000649	6.486956	2.197840	-0.000260
 687	6.8257e+01	12.6622	72.565496	0.000476	4.763858	1.614039	-0.000191
 688	6.8356e+01	12.6237	72.363640	0.000507	5.067934	1.717063	-0.000203
 689	6.8456e+01	12.5884	72.173894	0.000476	4.763858	1.614039	-0.000191
 690	6.8555e+01	12.5435	71.947815	0.000568	5.676086	1.923110	-0.000227
 691	6.8655e+01	12.5018	71.729809	0.000547	5.473369	1.854428	-0.000219
 692	6.8754e+01	12.4569	71.556212	0.000436	4.358423	1.476674	-0.000174
 693	6.8854e+01	12.4232	71.382616	0.000436	4.358423	1.476674	-0.000174
 694	6.8954e+01	12.3895	71.140387	0.000608	6.081521	2.060475	-0.000243
 695	6.9053e+01	12.3510	70.934493	0.000517	5.169293	1.751404	-0.000207
 696	6.9153e+01	12.3141	70.748785	0.000466	4.662499	1.579698	-0.000187
 697	6.9252e+01	12.2692	70.575188	0.000436	4.358423	1.476674	-0.000174
 698	6.9352e+01	12.2307	70.324886	0.000628	6.284238	2.129158	-0.000252
 699	6.9451e+01	12.1858	70.118992	0.000517	5.169293	1.751404	-0.000207
 700	6.9550e+01	12.1392	69.925210	0.000487	4.865217	1.648380	-0.000195
 701	6.9650e+01	12.1023	69.678944	0.000618	6.182880	2.094816	-0.000248
 702	6.9749e+01	12.0638	69.521496	0.000395	3.952989	1.339309	-0.000158
 703	6.9849e+01	12.0301	69.335788	0.000466	4.662499	1.579698	-0.000187
 704	6.9948e+01	11.9852	69.097597	0.000598	5.980162	2.026134	-0.000239
 705	7.0048e+01	11.9403	68.875554	0.000557	5.574727	1.888769	-0.000223
 706	7.0147e+01	11.8970	68.714069	0.000405	4.054347	1.373650	-0.000162
 707	7.0247e+01	11.8697	68.427432	0.000720	7.196466	2.438229	-0.000288
 708	7.0347e+01	11.8392	68.269984	0.000395	3.952989	1.339309	-0.000158
 709	7.0446e+01	11.7943	68.088313	0.000456	4.561141	1.545356	-0.000183
 710	7.0546e+01	11.7398	67.882419	0.000517	5.169293	1.751404	-0.000207
 711	7.0645e+01	11.7093	67.664414	0.000547	5.473369	1.854428	-0.000219
 712	7.0745e+01	11.6708	67.434297	0.000578	5.777445	1.957451	-0.000231
 713	7.0844e+01	11.6291	67.252626	0.000456	4.561141	1.545356	-0.000183
 714	7.0944e+01	11.5906	67.050769	0.000507	5.067934	1.717063	-0.000203
 715	7.1043e+01	11.5425	66.869098	0.000456	4.561141	1.545356	-0.000183
 716	7.1142e+01	11.5088	66.614758	0.000639	6.385597	2.163499	-0.000256
 717	7.1242e+01	11.4703	66.433087	0.000456	4.561141	1.545356	-0.000183
 718	7.1341e+01	11.4302	66.202970	0.000578	5.777445	1.957451	-0.000231
 719	7.1441e+01	11.3901	66.033411	0.000426	4.257065	1.442333	-0.000170
 720	7.1540e+01	11.3483	65.775034	0.000649	6.486956	2.197840	-0.000260
 721	7.1640e+01	11.3130	65.609511	0.000416	4.155706	1.407991	-0.000166
 722	7.1740e+01	11.2601	65.383432	0.000568	5.676086	1.923110	-0.000227
 723	7.1839e+01	11.2296	65.169464	0.000537	5.372010	1.820086	-0.000215
 724	7.1939e+01	11.1863	64.983755	0.000466	4.662499	1.579698	-0.000187
 725	7.2038e+01	11.1542	64.761713	0.000557	5.574727	1.888769	-0.000223
 726	7.2138e+01	11.1109	64.547745	0.000537	5.372010	1.820086	-0.000215
 727	7.2237e+01	11.0628	64.345888	0.000507	5.067934	1.717063	-0.000203
 728	7.2337e+01	11.0307	64.160180	0.000466	4.662499	1.579698	-0.000187
 729	7.2436e+01	10.9858	63.942174	0.000547	5.473369	1.854428	-0.000219
 730	7.2535e+01	10.9601	63.708021	0.000588	5.878804	1.991793	-0.000235
 731	7.2635e+01	10.9136	63.518275	0.000476	4.763858	1.614039	-0.000191
 732	7.2734e+01	10.8639	63.292196	0.000568	5.676086	1.923110	-0.000227
 733	7.2834e+01	10.8302	63.078227	0.000537	5.372010	1.820086	-0.000215
 734	7.2933e+01	10.7901	62.876371	0.000507	5.067934	1.717063	-0.000203
 735	7.3033e+01	10.7516	62.698737	0.000446	4.459782	1.511015	-0.000179
 736	7.3132e+01	10.7131	62.440360	0.000649	6.486956	2.197840	-0.000260
 737	7.3232e+01	10.6730	62.262726	0.000446	4.459782	1.511015	-0.000179
 738	7.3332e+01	10.6361	62.024535	0.000598	5.980162	2.026134	-0.000239
 739	7.3431e+01	10.5927	61.810567	0.000537	5.372010	1.820086	-0.000215
 740	7.3531e+01	10.5510	61.632933	0.000446	4.459782	1.511015	-0.000179
 741	7.3630e+01	10.5093	61.386667	0.000618	6.182880	2.094816	-0.000248
 742	7.3730e+01	10.4708	61.184811	0.000507	5.067934	1.717063	-0.000203
 743	7.3829e+01	10.4323	60.970842	0.000537	5.372010	1.820086	-0.000215
 744	7.3928e+01	10.3890	60.768986	0.000507	5.067934	1.717063	-0.000203
 745	7.4028e+01	10.3441	60.530795	0.000598	5.980162	2.026134	-0.000239
 746	7.4127e+01	10.3136	60.316826	0.000537	5.372010	1.820086	-0.000215
 747	7.4227e+01	10.2783	60.119007	0.000497	4.966575	1.682721	-0.000199
 748	7.4326e+01	10.2350	59.921187	0.000497	4.966575	1.682721	-0.000199
 749	7.4426e+01	10.1885	59.687033	0.000588	5.878804	1.991793	-0.000235
 750	7.4525e+01	10.1548	59.452879	0.000588	5.878804	1.991793	-0.000235
 751	7.4625e+01	10.1195	59.246986	0.000517	5.169293	1.751404	-0.000207
 752	7.4725e+01	10.0714	59.024943	0.000557	5.574727	1.888769	-0.000223
 753	7.4824e+01	10.0297	58.806938	0.000547	5.473369	1.854428	-0.000219
 754	7.4924e+01	9.9944	58.621229	0.000466	4.662499	1.579698	-0.000187
 755	7.5023e+01	9.9543	58.415336	0.000517	5.169293	1.751404	-0.000207
 756	7.5123e+01	9.9077	58.169070	0.000618	6.182880	2.094816	-0.000248
 757	7.5222e+01	9.8741	57.983362	0.000466	4.662499	1.579698	-0.000187
 758	7.5322e+01	9.8227	57.716911	0.000669	6.689673	2.266523	-0.000268
 759	7.5421e+01	9.7954	57.519091	0.000497	4.966575	1.682721	-0.000199
 760	7.5520e+01	9.7602	57.329346	0.000476	4.763858	1.614039	-0.000191
 761	7.5620e+01	9.7281	57.070969	0.000649	6.486956	2.197840	-0.000260
 762	7.5719e+01	9.6655	56.881224	0.000476	4.763858	1.614039	-0.000191
 763	7.5819e+01	9.6382	56.647070	0.000588	5.878804	1.991793	-0.000235
 764	7.5918e+01	9.5901	56.437139	0.000527	5.270651	1.785745	-0.000211
 765	7.6018e+01	9.5564	56.211059	0.000568	5.676086	1.923110	-0.000227
 766	7.6118e+01	9.5099	55.976906	0.000588	5.878804	1.991793	-0.000235
 767	7.6217e+01	9.4730	55.775049	0.000507	5.067934	1.717063	-0.000203
 768	7.6317e+01	9.4345	55.577229	0.000497	4.966575	1.682721	-0.000199
 769	7.6416e+01	9.3944	55.359224	0.000547	5.473369	1.854428	-0.000219
 770	7.6516e+01	9.3559	55.145256	0.000537	5.372010	1.820086	-0.000215
 771	7.6615e+01	9.3174	54.894953	0.000628	6.284238	2.129158	-0.000252
 772	7.6715e+01	9.2805	54.672911	0.000557	5.574727	1.888769	-0.000223
 773	7.6814e+01	9.2259	54.458943	0.000537	5.372010	1.820086	-0.000215
 774	7.6913e+01	9.1890	54.257086	0.000507	5.067934	1.717063	-0.000203
 775	7.7013e+01	9.1586	54.026969	0.000578	5.777445	1.957451	-0.000231
 776	7.7112e+01	9.1185	53.813001	0.000537	5.372010	1.820086	-0.000215
 777	7.7212e+01	9.0832	53.542513	0.000679	6.791032	2.300864	-0.000272
 778	7.7311e+01	9.0399	53.368916	0.000436	4.358423	1.476674	-0.000174
 779	7.7411e+01	8.9965	53.167059	0.000507	5.067934	1.717063	-0.000203
 780	7.7510e+01	8.9645	52.945017	0.000557	5.574727	1.888769	-0.000223
 781	7.7610e+01	8.9195	52.710863	0.000588	5.878804	1.991793	-0.000235
 782	7.7710e+01	8.8762	52.488820	0.000557	5.574727	1.888769	-0.000223
 783	7.7809e+01	8.8409	52.250629	0.000598	5.980162	2.026134	-0.000239
 784	7.7909e+01	8.7976	52.052810	0.000497	4.966575	1.682721	-0.000199
 785	7.8008e+01	8.7559	51.842879	0.000527	5.270651	1.785745	-0.000211
 786	7.8108e+01	8.7190	51.616799	0.000568	5.676086	1.923110	-0.000227
 787	7.8207e+01	8.6821	51.362459	0.000639	6.385597	2.163499	-0.000256
 788	7.8306e+01	8.6500	51.205011	0.000395	3.952989	1.339309	-0.000158
 789	7.8406e+01	8.6019	50.987006	0.000547	5.473369	1.854428	-0.000219
 790	7.8505e+01	8.5506	50.744778	0.000608	6.081521	2.060475	-0.000243
 791	7.8605e+01	8.5217	50.506587	0.000598	5.980162	2.026134	-0.000239
 792	7.8704e+01	8.4752	50.316841	0.000476	4.763858	1.614039	-0.000191
 793	7.8804e+01	8.4351	50.062502	0.000639	6.385597	2.163499	-0.000256
 794	7.8903e+01	8.4014	49.820274	0.000608	6.081521	2.060475	-0.000243
 795	7.9003e+01	8.3597	49.654751	0.000416	4.155706	1.407991	-0.000166
 796	7.9103e+01	8.3196	49.436746	0.000547	5.473369	1.854428	-0.000219
 797	7.9202e+01	8.2859	49.206629	0.000578	5.777445	1.957451	-0.000231
 798	7.9302e+01	8.2377	48.956327	0.000628	6.284238	2.129158	-0.000252
 799	7.9401e+01	8.1960	48.762544	0.000487	4.865217	1.648380	-0.000195
 800	7.9501e+01	8.1559	48.504167	0.000649	6.486956	2.197840	-0.000260
 801	7.9600e+01	8.1110	48.318459	0.000466	4.662499	1.579698	-0.000187
 802	7.9700e+01	8.0741	48.043934	0.000689	6.892390	2.335205	-0.000276
 803	7.9799e+01	8.0340	47.854188	0.000476	4.763858	1.614039	-0.000191
 804	7.9898e+01	8.0035	47.644257	0.000527	5.270651	1.785745	-0.000211
 805	7.9998e+01	7.9634	47.393955	0.000628	6.284238	2.129158	-0.000252
 806	8.0097e+01	7.9217	47.192098	0.000507	5.067934	1.717063	-0.000203
 807	8.0197e+01	7.8864	46.974093	0.000547	5.473369	1.854428	-0.000219
 808	8.0296e+01	7.8415	46.731865	0.000608	6.081521	2.060475	-0.000243
 809	8.0396e+01	7.7966	46.497711	0.000588	5.878804	1.991793	-0.000235
 810	8.0496e+01	7.7549	46.291817	0.000517	5.169293	1.751404	-0.000207
 811	8.0595e+01	7.7308	46.098034	0.000487	4.865217	1.648380	-0.000195
 812	8.0695e+01	7.6859	45.892141	0.000517	5.169293	1.751404	-0.000207
 813	8.0794e+01	7.6394	45.613578	0.000699	6.993749	2.369546	-0.000280
 814	8.0894e+01	7.5993	45.399610	0.000537	5.372010	1.820086	-0.000215
 815	8.0993e+01	7.5688	45.149308	0.000628	6.284238	2.129158	-0.000252
 816	8.1093e+01	7.5239	44.951488	0.000497	4.966575	1.682721	-0.000199
 817	8.1192e+01	7.4870	44.753668	0.000497	4.966575	1.682721	-0.000199
 818	8.1291e+01	7.4356	44.515477	0.000598	5.980162	2.026134	-0.000239
 819	8.1391e+01	7.4003	44.313620	0.000507	5.067934	1.717063	-0.000203
 820	8.1490e+01	7.3602	44.079467	0.000588	5.878804	1.991793	-0.000235
 821	8.1590e+01	7.3217	43.849350	0.000578	5.777445	1.957451	-0.000231
 822	8.1689e+01	7.2912	43.611159	0.000598	5.980162	2.026134	-0.000239
 823	8.1789e+01	7.2463	43.393153	0.000547	5.473369	1.854428	-0.000219
 824	8.1888e+01	7.1982	43.167074	0.000568	5.676086	1.923110	-0.000227
 825	8.1988e+01	7.1661	42.957143	0.000527	5.270651	1.785745	-0.000211
 826	8.2088e+01	7.1260	42.739137	0.000547	5.473369	1.854428	-0.000219
 827	8.2187e+01	7.0859	42.553429	0.000466	4.662499	1.579698	-0.000187
 828	8.2287e+01	7.0490	42.303127	0.000628	6.284238	2.129158	-0.000252
 829	8.2386e+01	6.9993	42.068973	0.000588	5.878804	1.991793	-0.000235
 830	8.2486e+01	6.9656	41.850968	0.000547	5.473369	1.854428	-0.000219
 831	8.2585e+01	6.9223	41.616814	0.000588	5.878804	1.991793	-0.000235
 832	8.2684e+01	6.8838	41.398808	0.000547	5.473369	1.854428	-0.000219
 833	8.2784e+01	6.8421	41.164655	0.000588	5.878804	1.991793	-0.000235
 834	8.2883e+01	6.8084	40.966835	0.000497	4.966575	1.682721	-0.000199
 835	8.2983e+01	6.7667	40.740755	0.000568	5.676086	1.923110	-0.000227
 836	8.3082e+01	6.7282	40.490453	0.000628	6.284238	2.129158	-0.000252
 837	8.3182e+01	6.6832	40.264373	0.000568	5.676086	1.923110	-0.000227
 838	8.3281e+01	6.6463	40.090776	0.000436	4.358423	1.476674	-0.000174
 839	8.3381e+01	6.6094	39.844511	0.000618	6.182880	2.094816	-0.000248
 840	8.3481e+01	6.5677	39.626506	0.000547	5.473369	1.854428	-0.000219
 841	8.3580e+01	6.5260	39.376203	0.000628	6.284238	2.129158	-0.000252
 842	8.3680e+01	6.4939	39.138012	0.000598	5.980162	2.026134	-0.000239
 843	8.3779e+01	6.4538	38.968453	0.000426	4.257065	1.442333	-0.000170
 844	8.3879e+01	6.4137	38.730262	0.000598	5.980162	2.026134	-0.000239
 845	8.3978e+01	6.3752	38.492071	0.000598	5.980162	2.026134	-0.000239
 846	8.4078e+01	6.3335	38.338660	0.000385	3.851630	1.304968	-0.000154
 847	8.4177e+01	6.2854	38.023763	0.000791	7.905977	2.678618	-0.000316
 848	8.4276e+01	6.2469	37.850166	0.000436	4.358423	1.476674	-0.000174
 849	8.4376e+01	6.2116	37.632161	0.000547	5.473369	1.854428	-0.000219
 850	8.4475e+01	6.1731	37.393970	0.000598	5.980162	2.026134	-0.000239
 851	8.4575e+01	6.1234	37.139630	0.000639	6.385597	2.163499	-0.000256
 852	8.4674e+01	6.0881	36.933736	0.000517	5.169293	1.751404	-0.000207
 853	8.4774e+01	6.0447	36.723805	0.000527	5.270651	1.785745	-0.000211
 854	8.4874e+01	6.0095	36.461391	0.000659	6.588314	2.232181	-0.000264
 855	8.4973e+01	5.9726	36.271646	0.000476	4.763858	1.614039	-0.000191
 856	8.5073e+01	5.9373	36.017306	0.000639	6.385597	2.163499	-0.000256
 857	8.5172e+01	5.8827	35.843710	0.000436	4.358423	1.476674	-0.000174
 858	8.5272e+01	5.8554	35.605519	0.000598	5.980162	2.026134	-0.000239
 859	8.5371e+01	5.8137	35.351179	0.000639	6.385597	2.163499	-0.000256
 860	8.5471e+01	5.7736	35.137211	0.000537	5.372010	1.820086	-0.000215
 861	8.5570e+01	5.7383	34.915168	0.000557	5.574727	1.888769	-0.000223
 862	8.5669e+01	5.6918	34.676977	0.000598	5.980162	2.026134	-0.000239
 863	8.5769e+01	5.6485	34.471083	0.000517	5.169293	1.751404	-0.000207
 864	8.5868e+01	5.6180	34.216744	0.000639	6.385597	2.163499	-0.000256
 865	8.5968e+01	5.5683	34.035073	0.000456	4.561141	1.545356	-0.000183
 866	8.6067e+01	5.5314	33.788808	0.000618	6.182880	2.094816	-0.000248
 867	8.6167e+01	5.5089	33.570802	0.000547	5.473369	1.854428	-0.000219
 868	8.6266e+01	5.4464	33.304351	0.000669	6.689673	2.266523	-0.000268
 869	8.6366e+01	5.4175	33.106532	0.000497	4.966575	1.682721	-0.000199
 870	8.6466e+01	5.3710	32.868341	0.000598	5.980162	2.026134	-0.000239
 871	8.6565e+01	5.3309	32.654372	0.000537	5.372010	1.820086	-0.000215
 872	8.6665e+01	5.2972	32.424256	0.000578	5.777445	1.957451	-0.000231
 873	8.6764e+01	5.2458	32.161842	0.000659	6.588314	2.232181	-0.000264
 874	8.6864e+01	5.2170	31.964022	0.000497	4.966575	1.682721	-0.000199
 875	8.6963e+01	5.1704	31.717757	0.000618	6.182880	2.094816	-0.000248
 876	8.7063e+01	5.1351	31.483603	0.000588	5.878804	1.991793	-0.000235
 877	8.7162e+01	5.0870	31.249449	0.000588	5.878804	1.991793	-0.000235
 878	8.7261e+01	5.0501	31.043555	0.000517	5.169293	1.751404	-0.000207
 879	8.7361e+01	5.0036	30.785179	0.000649	6.486956	2.197840	-0.000260
 880	8.7460e+01	4.9747	30.575248	0.000527	5.270651	1.785745	-0.000211
 881	8.7560e+01	4.9314	30.349168	0.000568	5.676086	1.923110	-0.000227
 882	8.7659e+01	4.8913	30.110977	0.000598	5.980162	2.026134	-0.000239
 883	8.7759e+01	4.8560	29.925269	0.000466	4.662499	1.579698	-0.000187
 884	8.7859e+01	4.8175	29.662855	0.000659	6.588314	2.232181	-0.000264
 885	8.7958e+01	4.7838	29.448887	0.000537	5.372010	1.820086	-0.000215
 886	8.8058e+01	4.7277	29.238956	0.000527	5.270651	1.785745	-0.000211
 887	8.8157e+01	4.6908	29.004802	0.000588	5.878804	1.991793	-0.000235
 888	8.8257e+01	4.6507	28.766611	0.000598	5.980162	2.026134	-0.000239
 889	8.8356e+01	4.6170	28.492085	0.000689	6.892390	2.335205	-0.000276
 890	8.8456e+01	4.5881	28.318489	0.000436	4.358423	1.476674	-0.000174
 891	8.8555e+01	4.5368	28.072223	0.000618	6.182880	2.094816	-0.000248
 892	8.8654e+01	4.5015	27.825958	0.000618	6.182880	2.094816	-0.000248
 893	8.8754e+01	4.4566	27.620064	0.000517	5.169293	1.751404	-0.000207
 894	8.8853e+01	4.4148	27.402059	0.000547	5.473369	1.854428	-0.000219
 895	8.8953e+01	4.3876	27.107348	0.000740	7.399184	2.506911	-0.000296
 896	8.9052e+01	4.3394	26.941825	0.000416	4.155706	1.407991	-0.000166
 897	8.9152e+01	4.2913	26.703634	0.000598	5.980162	2.026134	-0.000239
 898	8.9251e+01	4.2608	26.485629	0.000547	5.473369	1.854428	-0.000219
 899	8.9351e+01	4.2223	26.215141	0.000679	6.791032	2.300864	-0.000272
 900	8.9451e+01	4.1758	25.952727	0.000659	6.588314	2.232181	-0.000264
 901	8.9550e+01	4.1309	25.775093	0.000446	4.459782	1.511015	-0.000179
 902	8.9650e+01	4.0908	25.508642	0.000669	6.689673	2.266523	-0.000268
 903	8.9749e+01	4.0571	25.286600	0.000557	5.574727	1.888769	-0.000223
 904	8.9849e+01	4.0154	25.084743	0.000507	5.067934	1.717063	-0.000203
 905	8.9948e+01	3.9833	24.854626	0.000578	5.777445	1.957451	-0.000231
 906	9.0047e+01	3.9352	24.580101	0.000689	6.892390	2.335205	-0.000276
 907	9.0147e+01	3.8887	24.345947	0.000588	5.878804	1.991793	-0.000235
 908	9.0246e+01	3.8598	24.144090	0.000507	5.067934	1.717063	-0.000203
 909	9.0346e+01	3.8068	23.922048	0.000557	5.574727	1.888769	-0.000223
 910	9.0445e+01	3.7796	23.647523	0.000689	6.892390	2.335205	-0.000276
 911	9.0545e+01	3.7330	23.469889	0.000446	4.459782	1.511015	-0.000179
 912	9.0644e+01	3.6978	23.199401	0.000679	6.791032	2.300864	-0.000272
 913	9.0744e+01	3.6705	22.973321	0.000568	5.676086	1.923110	-0.000227
 914	9.0844e+01	3.6175	22.731093	0.000608	6.081521	2.060475	-0.000243
 915	9.0943e+01	3.5758	22.500976	0.000578	5.777445	1.957451	-0.000231
 916	9.1043e+01	3.5405	22.282971	0.000547	5.473369	1.854428	-0.000219
 917	9.1142e+01	3.5020	22.028631	0.000639	6.385597	2.163499	-0.000256
 918	9.1242e+01	3.4539	21.798514	0.000578	5.777445	1.957451	-0.000231
 919	9.1341e+01	3.4186	21.552249	0.000618	6.182880	2.094816	-0.000248
 920	9.1441e+01	3.3673	21.362504	0.000476	4.763858	1.614039	-0.000191
 921	9.1540e+01	3.3368	21.059719	0.000760	7.601901	2.575594	-0.000304
 922	9.1639e+01	3.3047	20.857862	0.000507	5.067934	1.717063	-0.000203
 923	9.1739e+01	3.2486	20.583337	0.000689	6.892390	2.335205	-0.000276
 924	9.1838e+01	3.2229	20.373406	0.000527	5.270651	1.785745	-0.000211
 925	9.1938e+01	3.1780	20.131177	0.000608	6.081521	2.060475	-0.000243
 926	9.2037e+01	3.1363	19.921246	0.000527	5.270651	1.785745	-0.000211
 927	9.2137e+01	3.1058	19.638647	0.000710	7.095108	2.403888	-0.000284
 928	9.2237e+01	3.0625	19.396419	0.000608	6.081521	2.060475	-0.000243
 929	9.2336e+01	3.0144	19.186488	0.000527	5.270651	1.785745	-0.000211
 930	9.2436e+01	2.9726	18.968482	0.000547	5.473369	1.854428	-0.000219
 931	9.2535e+01	2.9454	18.730291	0.000598	5.980162	2.026134	-0.000239
 932	9.2635e+01	2.9101	18.508249	0.000557	5.574727	1.888769	-0.000223
 933	9.2734e+01	2.8571	18.278132	0.000578	5.777445	1.957451	-0.000231
 934	9.2834e+01	2.8138	18.043978	0.000588	5.878804	1.991793	-0.000235
 935	9.2933e+01	2.7833	17.761379	0.000710	7.095108	2.403888	-0.000284
 936	9.3032e+01	2.7352	17.555485	0.000517	5.169293	1.751404	-0.000207
 937	9.3132e+01	2.6967	17.329405	0.000568	5.676086	1.923110	-0.000227
 938	9.3231e+01	2.6694	17.042769	0.000720	7.196466	2.438229	-0.000288
 939	9.3331e+01	2.6261	16.836875	0.000517	5.169293	1.751404	-0.000207
 940	9.3430e+01	2.5812	16.570424	0.000669	6.689673	2.266523	-0.000268
 941	9.3530e+01	2.5443	16.364530	0.000517	5.169293	1.751404	-0.000207
 942	9.3629e+01	2.5122	16.102116	0.000659	6.588314	2.232181	-0.000264
 943	9.3729e+01	2.4625	15.847776	0.000639	6.385597	2.163499	-0.000256
 944	9.3829e+01	2.4304	15.658031	0.000476	4.763858	1.614039	-0.000191
 945	9.3928e+01	2.3903	15.399654	0.000649	6.486956	2.197840	-0.000260
 946	9.4028e+01	2.3486	15.141278	0.000649	6.486956	2.197840	-0.000260
 947	9.4127e+01	2.3037	14.931347	0.000527	5.270651	1.785745	-0.000211
 948	9.4227e+01	2.2716	14.685081	0.000618	6.182880	2.094816	-0.000248
 949	9.4326e+01	2.2251	14.467076	0.000547	5.473369	1.854428	-0.000219
 950	9.4425e+01	2.1882	14.240996	0.000568	5.676086	1.923110	-0.000227
 951	9.4525e+01	2.1465	13.974545	0.000669	6.689673	2.266523	-0.000268
 952	9.4624e+01	2.1031	13.752503	0.000557	5.574727	1.888769	-0.000223
 953	9.4724e+01	2.0663	13.518349	0.000588	5.878804	1.991793	-0.000235
 954	9.4823e+01	2.0294	13.284195	0.000588	5.878804	1.991793	-0.000235
 955	9.4923e+01	1.9844	13.025818	0.000649	6.486956	2.197840	-0.000260
 956	9.5022e+01	1.9395	12.856259	0.000426	4.257065	1.442333	-0.000170
 957	9.5122e+01	1.9026	12.561548	0.000740	7.399184	2.506911	-0.000296
 958	9.5222e+01	1.8673	12.363728	0.000497	4.966575	1.682721	-0.000199
 959	9.5321e+01	1.8288	12.097277	0.000669	6.689673	2.266523	-0.000268
 960	9.5421e+01	1.7887	11.867161	0.000578	5.777445	1.957451	-0.000231
 961	9.5520e+01	1.7470	11.616858	0.000628	6.284238	2.129158	-0.000252
 962	9.5620e+01	1.7037	11.362519	0.000639	6.385597	2.163499	-0.000256
 963	9.5719e+01	1.6620	11.156625	0.000517	5.169293	1.751404	-0.000207
 964	9.5819e+01	1.6299	10.918434	0.000598	5.980162	2.026134	-0.000239
 965	9.5918e+01	1.5882	10.680243	0.000598	5.980162	2.026134	-0.000239
 966	9.6017e+01	1.5465	10.417829	0.000659	6.588314	2.232181	-0.000264
 967	9.6117e+01	1.5176	10.236158	0.000456	4.561141	1.545356	-0.000183
 968	9.6216e+01	1.4679	9.965670	0.000679	6.791032	2.300864	-0.000272
 969	9.6316e+01	1.4294	9.731516	0.000588	5.878804	1.991793	-0.000235
 970	9.6415e+01	1.3893	9.501399	0.000578	5.777445	1.957451	-0.000231
 971	9.6515e+01	1.3492	9.251097	0.000628	6.284238	2.129158	-0.000252
 972	9.6615e+01	1.3058	9.025017	0.000568	5.676086	1.923110	-0.000227
 973	9.6714e+01	1.2609	8.770677	0.000639	6.385597	2.163499	-0.000256
 974	9.6814e+01	1.2240	8.544598	0.000568	5.676086	1.923110	-0.000227
 975	9.6913e+01	1.1887	8.294295	0.000628	6.284238	2.129158	-0.000252
 976	9.7013e+01	1.1470	8.088401	0.000517	5.169293	1.751404	-0.000207
 977	9.7112e+01	1.1069	7.842136	0.000618	6.182880	2.094816	-0.000248
 978	9.7212e+01	1.0652	7.567611	0.000689	6.892390	2.335205	-0.000276
 979	9.7311e+01	1.0347	7.321346	0.000618	6.182880	2.094816	-0.000248
 980	9.7410e+01	0.9914	7.107377	0.000537	5.372010	1.820086	-0.000215
 981	9.7510e+01	0.9513	6.901484	0.000517	5.169293	1.751404	-0.000207
 982	9.7609e+01	0.9064	6.602735	0.000750	7.500542	2.541253	-0.000300
 983	9.7709e+01	0.8759	6.429139	0.000436	4.358423	1.476674	-0.000174
 984	9.7808e+01	0.8214	6.154613	0.000689	6.892390	2.335205	-0.000276
 985	9.7908e+01	0.7861	5.944682	0.000527	5.270651	1.785745	-0.000211
 986	9.8007e+01	0.7492	5.686306	0.000649	6.486956	2.197840	-0.000260
 987	9.8107e+01	0.7139	5.452152	0.000588	5.878804	1.991793	-0.000235
 988	9.8207e+01	0.6706	5.238184	0.000537	5.372010	1.820086	-0.000215
 989	9.8306e+01	0.6240	5.032290	0.000517	5.169293	1.751404	-0.000207
 990	9.8406e+01	0.5968	4.737579	0.000740	7.399184	2.506911	-0.000296
 991	9.8505e+01	0.5486	4.531685	0.000517	5.169293	1.751404	-0.000207
 992	9.8605e+01	0.5069	4.297531	0.000588	5.878804	1.991793	-0.000235
 993	9.8704e+01	0.4700	4.018969	0.000699	6.993749	2.369546	-0.000280
 994	9.8803e+01	0.4347	3.813075	0.000517	5.169293	1.751404	-0.000207
 995	9.8903e+01	0.3818	3.599107	0.000537	5.372010	1.820086	-0.000215
 996	9.9002e+01	0.3529	3.348804	0.000628	6.284238	2.129158	-0.000252
 997	9.9102e+01	0.3128	3.086390	0.000659	6.588314	2.232181	-0.000264
 998	9.9201e+01	0.2663	2.896645	0.000476	4.763858	1.614039	-0.000191
 999	9.9301e+01	0.2310	2.654417	0.000608	6.081521	2.060475	-0.000243
1000	9.9400e+01	0.1845	2.416226	0.000598	5.980162	2.026134	-0.000239
1001	9.9500e+01	0.1572	2.178035	0.000598	5.980162	2.026134	-0.000239
1002	9.9600e+01	0.1107	1.935807	0.000608	6.081521	2.060475	-0.000243
1003	9.9699e+01	0.0706	1.697616	0.000598	5.980162	2.026134	-0.000239
1004	9.9799e+01	0.0353	1.463462	0.000588	5.878804	1.991793	-0.000235
1005	9.9898e+01	0.0032	1.269679	0.000487	4.865217	1.648380	-0.000195
1006	9.9998e+01	-0.0369	1.031488	0.000598	5.980162	2.026134	-0.000239
1007	1.0010e+02	-0.0914	0.789260	0.000608	6.081521	2.060475	-0.000243
1008	1.0020e+02	-0.1123	0.571255	0.000547	5.473369	1.854428	-0.000219
1009	1.0030e+02	-0.1604	0.349212	0.000557	5.574727	1.888769	-0.000223
1010	1.0040e+02	-0.2005	0.115058	0.000588	5.878804	1.991793	-0.000235
1011	1.0050e+02	-0.2390	-0.131207	0.000618	6.182880	2.094816	-0.000248
1012	1.0059e+02	-0.2807	-0.361324	0.000578	5.777445	1.957451	-0.000231
1013	1.0069e+02	-0.3144	-0.583366	0.000557	5.574727	1.888769	-0.000223
1014	1.0079e+02	-0.3577	-0.857891	0.000689	6.892390	2.335205	-0.000276
1015	1.0089e+02	-0.3946	-1.039562	0.000456	4.561141	1.545356	-0.000183
1016	1.0099e+02	-0.4380	-1.261605	0.000557	5.574727	1.888769	-0.000223
1017	1.0109e+02	-0.4829	-1.495759	0.000588	5.878804	1.991793	-0.000235
1018	1.0119e+02	-0.5101	-1.733950	0.000598	5.980162	2.026134	-0.000239
1019	1.0129e+02	-0.5535	-1.947918	0.000537	5.372010	1.820086	-0.000215
1020	1.0139e+02	-0.5984	-2.206295	0.000649	6.486956	2.197840	-0.000260
1021	1.0149e+02	-0.6385	-2.404114	0.000497	4.966575	1.682721	-0.000199
1022	1.0159e+02	-0.6834	-2.682677	0.000699	6.993749	2.369546	-0.000280
1023	1.0169e+02	-0.7155	-2.908756	0.000568	5.676086	1.923110	-0.000227
1024	1.0179e+02	-0.7556	-3.146947	0.000598	5.980162	2.026134	-0.000239
1025	1.0189e+02	-0.8005	-3.328618	0.000456	4.561141	1.545356	-0.000183
1026	1.0199e+02	-0.8374	-3.627366	0.000750	7.500542	2.541253	-0.000300
1027	1.0209e+02	-0.8759	-3.833260	0.000517	5.169293	1.751404	-0.000207
1028	1.0219e+02	-0.9160	-4.063377	0.000578	5.777445	1.957451	-0.000231
1029	1.0229e+02	-0.9545	-4.321754	0.000649	6.486956	2.197840	-0.000260
1030	1.0239e+02	-0.9994	-4.535722	0.000537	5.372010	1.820086	-0.000215
1031	1.0248e+02	-1.0379	-4.806210	0.000679	6.791032	2.300864	-0.000272
1032	1.0258e+02	-1.0748	-5.032290	0.000568	5.676086	1.923110	-0.000227
1033	1.0268e+02	-1.1214	-5.246258	0.000537	5.372010	1.820086	-0.000215
1034	1.0278e+02	-1.1631	-5.484449	0.000598	5.980162	2.026134	-0.000239
1035	1.0288e+02	-1.2048	-5.714566	0.000578	5.777445	1.957451	-0.000231
1036	1.0298e+02	-1.2288	-5.960831	0.000618	6.182880	2.094816	-0.000248
1037	1.0308e+02	-1.2706	-6.186911	0.000568	5.676086	1.923110	-0.000227
1038	1.0318e+02	-1.3187	-6.412990	0.000568	5.676086	1.923110	-0.000227
1039	1.0328e+02	-1.3588	-6.667330	0.000639	6.385597	2.163499	-0.000256
1040	1.0338e+02	-1.4069	-6.885335	0.000547	5.473369	1.854428	-0.000219
1041	1.0348e+02	-1.4342	-7.111415	0.000568	5.676086	1.923110	-0.000227
1042	1.0358e+02	-1.4759	-7.337494	0.000568	5.676086	1.923110	-0.000227
1043	1.0368e+02	-1.5160	-7.603945	0.000669	6.689673	2.266523	-0.000268
1044	1.0378e+02	-1.5593	-7.789653	0.000466	4.662499	1.579698	-0.000187
1045	1.0388e+02	-1.5898	-8.052067	0.000659	6.588314	2.232181	-0.000264
1046	1.0398e+02	-1.6395	-8.286221	0.000588	5.878804	1.991793	-0.000235
1047	1.0408e+02	-1.6796	-8.552672	0.000669	6.689673	2.266523	-0.000268
1048	1.0418e+02	-1.7165	-8.750492	0.000497	4.966575	1.682721	-0.000199
1049	1.0428e+02	-1.7534	-8.968497	0.000547	5.473369	1.854428	-0.000219
1050	1.0438e+02	-1.7999	-9.194577	0.000568	5.676086	1.923110	-0.000227
1051	1.0447e+02	-1.8320	-9.432768	0.000598	5.980162	2.026134	-0.000239
1052	1.0457e+02	-1.8705	-9.662884	0.000578	5.777445	1.957451	-0.000231
1053	1.0467e+02	-1.9187	-9.925298	0.000659	6.588314	2.232181	-0.000264
1054	1.0477e+02	-1.9572	-10.151378	0.000568	5.676086	1.923110	-0.000227
1055	1.0487e+02	-1.9957	-10.385532	0.000588	5.878804	1.991793	-0.000235
1056	1.0497e+02	-2.0342	-10.615648	0.000578	5.777445	1.957451	-0.000231
1057	1.0507e+02	-2.0759	-10.849802	0.000588	5.878804	1.991793	-0.000235
1058	1.0517e+02	-2.1112	-11.015325	0.000416	4.155706	1.407991	-0.000166
1059	1.0527e+02	-2.1481	-11.281776	0.000669	6.689673	2.266523	-0.000268
1060	1.0537e+02	-2.1978	-11.536115	0.000639	6.385597	2.163499	-0.000256
1061	1.0547e+02	-2.2347	-11.766232	0.000578	5.777445	1.957451	-0.000231
1062	1.0557e+02	-2.2780	-11.972126	0.000517	5.169293	1.751404	-0.000207
1063	1.0567e+02	-2.3149	-12.214354	0.000608	6.081521	2.060475	-0.000243
1064	1.0577e+02	-2.3534	-12.468694	0.000639	6.385597	2.163499	-0.000256
1065	1.0587e+02	-2.3839	-12.682662	0.000537	5.372010	1.820086	-0.000215
1066	1.0597e+02	-2.4432	-12.941039	0.000649	6.486956	2.197840	-0.000260
1067	1.0607e+02	-2.4641	-13.179230	0.000598	5.980162	2.026134	-0.000239
1068	1.0617e+02	-2.5154	-13.393198	0.000537	5.372010	1.820086	-0.000215
1069	1.0627e+02	-2.5475	-13.595055	0.000507	5.067934	1.717063	-0.000203
1070	1.0637e+02	-2.5973	-13.829208	0.000588	5.878804	1.991793	-0.000235
1071	1.0647e+02	-2.6325	-14.087585	0.000649	6.486956	2.197840	-0.000260
1072	1.0656e+02	-2.6678	-14.297516	0.000527	5.270651	1.785745	-0.000211
1073	1.0666e+02	-2.7128	-14.547819	0.000628	6.284238	2.129158	-0.000252
1074	1.0676e+02	-2.7464	-14.761787	0.000537	5.372010	1.820086	-0.000215
1075	1.0686e+02	-2.7930	-14.999978	0.000598	5.980162	2.026134	-0.000239
1076	1.0696e+02	-2.8234	-15.258355	0.000649	6.486956	2.197840	-0.000260
1077	1.0706e+02	-2.8587	-15.452137	0.000487	4.865217	1.648380	-0.000195
1078	1.0716e+02	-2.9149	-15.698402	0.000618	6.182880	2.094816	-0.000248
1079	1.0726e+02	-2.9486	-15.968890	0.000679	6.791032	2.300864	-0.000272
1080	1.0736e+02	-2.9791	-16.154599	0.000466	4.662499	1.579698	-0.000187
1081	1.0746e+02	-3.0288	-16.356455	0.000507	5.067934	1.717063	-0.000203
1082	1.0756e+02	-3.0689	-16.643092	0.000720	7.196466	2.438229	-0.000288
1083	1.0766e+02	-3.1090	-16.881283	0.000598	5.980162	2.026134	-0.000239
1084	1.0776e+02	-3.1571	-17.095251	0.000537	5.372010	1.820086	-0.000215
1085	1.0786e+02	-3.1860	-17.329405	0.000588	5.878804	1.991793	-0.000235
1086	1.0796e+02	-3.2293	-17.563559	0.000588	5.878804	1.991793	-0.000235
1087	1.0806e+02	-3.2678	-17.777527	0.000537	5.372010	1.820086	-0.000215
1088	1.0816e+02	-3.3079	-18.027830	0.000628	6.284238	2.129158	-0.000252
1089	1.0826e+02	-3.3384	-18.257946	0.000578	5.777445	1.957451	-0.000231
1090	1.0836e+02	-3.3849	-18.463840	0.000517	5.169293	1.751404	-0.000207
1091	1.0845e+02	-3.4218	-18.726254	0.000659	6.588314	2.232181	-0.000264
1092	1.0855e+02	-3.4748	-18.936185	0.000527	5.270651	1.785745	-0.000211
1093	1.0865e+02	-3.5085	-19.190525	0.000639	6.385597	2.163499	-0.000256
1094	1.0875e+02	-3.5454	-19.392382	0.000507	5.067934	1.717063	-0.000203
1095	1.0885e+02	-3.5887	-19.650758	0.000649	6.486956	2.197840	-0.000260
1096	1.0895e+02	-3.6224	-19.872801	0.000557	5.574727	1.888769	-0.000223
1097	1.0905e+02	-3.6609	-20.151363	0.000699	6.993749	2.369546	-0.000280
1098	1.0915e+02	-3.6994	-20.316886	0.000416	4.155706	1.407991	-0.000166
1099	1.0925e+02	-3.7395	-20.551039	0.000588	5.878804	1.991793	-0.000235
1100	1.0935e+02	-3.7908	-20.781156	0.000578	5.777445	1.957451	-0.000231
1101	1.0945e+02	-3.8229	-21.047607	0.000669	6.689673	2.266523	-0.000268
1102	1.0955e+02	-3.8710	-21.257538	0.000527	5.270651	1.785745	-0.000211
1103	1.0965e+02	-3.9015	-21.548212	0.000730	7.297825	2.472570	-0.000292
1104	1.0975e+02	-3.9480	-21.762180	0.000537	5.372010	1.820086	-0.000215
1105	1.0985e+02	-3.9785	-21.988260	0.000568	5.676086	1.923110	-0.000227
1106	1.0995e+02	-4.0282	-22.202228	0.000537	5.372010	1.820086	-0.000215
1107	1.1005e+02	-4.0667	-22.432345	0.000578	5.777445	1.957451	-0.000231
1108	1.1015e+02	-4.0972	-22.642276	0.000527	5.270651	1.785745	-0.000211
1109	1.1025e+02	-4.1437	-22.876430	0.000588	5.878804	1.991793	-0.000235
1110	1.1035e+02	-4.1854	-23.118658	0.000608	6.081521	2.060475	-0.000243
1111	1.1044e+02	-4.2288	-23.348775	0.000578	5.777445	1.957451	-0.000231
1112	1.1054e+02	-4.2624	-23.595040	0.000618	6.182880	2.094816	-0.000248
1113	1.1064e+02	-4.3074	-23.780748	0.000466	4.662499	1.579698	-0.000187
1114	1.1074e+02	-4.3427	-24.055273	0.000689	6.892390	2.335205	-0.000276
1115	1.1084e+02	-4.3924	-24.249056	0.000487	4.865217	1.648380	-0.000195
1116	1.1094e+02	-4.4309	-24.487247	0.000598	5.980162	2.026134	-0.000239
1117	1.1104e+02	-4.4662	-24.725438	0.000598	5.980162	2.026134	-0.000239
1118	1.1114e+02	-4.4983	-24.878849	0.000385	3.851630	1.304968	-0.000154
1119	1.1124e+02	-4.5448	-25.157411	0.000699	6.993749	2.369546	-0.000280
1120	1.1134e+02	-4.5913	-25.407714	0.000628	6.284238	2.129158	-0.000252
1121	1.1144e+02	-4.6170	-25.617645	0.000527	5.270651	1.785745	-0.000211
1122	1.1154e+02	-4.6571	-25.867947	0.000628	6.284238	2.129158	-0.000252
1123	1.1164e+02	-4.7068	-26.073841	0.000517	5.169293	1.751404	-0.000207
1124	1.1174e+02	-4.7437	-26.307995	0.000588	5.878804	1.991793	-0.000235
1125	1.1184e+02	-4.7742	-26.517926	0.000527	5.270651	1.785745	-0.000211
1126	1.1194e+02	-4.8255	-26.764191	0.000618	6.182880	2.094816	-0.000248
1127	1.1204e+02	-4.8624	-26.998345	0.000588	5.878804	1.991793	-0.000235
1128	1.1214e+02	-4.9009	-27.228462	0.000578	5.777445	1.957451	-0.000231
1129	1.1224e+02	-4.9378	-27.442430	0.000537	5.372010	1.820086	-0.000215
1130	1.1234e+02	-4.9811	-27.628138	0.000466	4.662499	1.579698	-0.000187
1131	1.1244e+02	-5.0277	-27.878441	0.000628	6.284238	2.129158	-0.000252
1132	1.1253e+02	-5.0581	-28.076260	0.000497	4.966575	1.682721	-0.000199
1133	1.1263e+02	-5.0886	-28.314451	0.000598	5.980162	2.026134	-0.000239
1134	1.1273e+02	-5.1416	-28.556680	0.000608	6.081521	2.060475	-0.000243
1135	1.1283e+02	-5.1785	-28.790834	0.000588	5.878804	1.991793	-0.000235
1136	1.1293e+02	-5.2234	-29.033062	0.000608	6.081521	2.060475	-0.000243
1137	1.1303e+02	-5.2571	-29.238956	0.000517	5.169293	1.751404	-0.000207
1138	1.1313e+02	-5.2956	-29.460998	0.000557	5.574727	1.888769	-0.000223
1139	1.1323e+02	-5.3437	-29.674966	0.000537	5.372010	1.820086	-0.000215
1140	1.1333e+02	-5.3726	-29.921232	0.000618	6.182880	2.094816	-0.000248
1141	1.1343e+02	-5.4207	-30.139237	0.000547	5.473369	1.854428	-0.000219
1142	1.1353e+02	-5.4528	-30.361279	0.000557	5.574727	1.888769	-0.000223
1143	1.1363e+02	-5.4977	-30.591396	0.000578	5.777445	1.957451	-0.000231
1144	1.1373e+02	-5.5474	-30.837661	0.000618	6.182880	2.094816	-0.000248
1145	1.1383e+02	-5.5795	-31.043555	0.000517	5.169293	1.751404	-0.000207
1146	1.1393e+02	-5.6244	-31.233301	0.000476	4.763858	1.614039	-0.000191
1147	1.1403e+02	-5.6645	-31.495714	0.000659	6.588314	2.232181	-0.000264
1148	1.1413e+02	-5.6982	-31.641051	0.000365	3.648913	1.236285	-0.000146
1149	1.1423e+02	-5.7255	-31.919614	0.000699	6.993749	2.369546	-0.000280
1150	1.1433e+02	-5.7784	-32.105322	0.000466	4.662499	1.579698	-0.000187
1151	1.1442e+02	-5.8218	-32.347550	0.000608	6.081521	2.060475	-0.000243
1152	1.1452e+02	-5.8554	-32.585741	0.000598	5.980162	2.026134	-0.000239
1153	1.1462e+02	-5.8988	-32.807784	0.000557	5.574727	1.888769	-0.000223
1154	1.1472e+02	-5.9341	-33.017715	0.000527	5.270651	1.785745	-0.000211
1155	1.1482e+02	-5.9774	-33.227646	0.000527	5.270651	1.785745	-0.000211
1156	1.1492e+02	-6.0159	-33.473911	0.000618	6.182880	2.094816	-0.000248
1157	1.1502e+02	-6.0656	-33.699991	0.000568	5.676086	1.923110	-0.000227
1158	1.1512e+02	-6.0993	-33.905884	0.000517	5.169293	1.751404	-0.000207
1159	1.1522e+02	-6.1378	-34.103704	0.000497	4.966575	1.682721	-0.000199
1160	1.1532e+02	-6.1763	-34.329784	0.000568	5.676086	1.923110	-0.000227
1161	1.1542e+02	-6.2116	-34.572012	0.000608	6.081521	2.060475	-0.000243
1162	1.1552e+02	-6.2517	-34.769832	0.000497	4.966575	1.682721	-0.000199
1163	1.1562e+02	-6.3062	-34.971688	0.000507	5.067934	1.717063	-0.000203
1164	1.1572e+02	-6.3335	-35.201805	0.000578	5.777445	1.957451	-0.000231
1165	1.1582e+02	-6.3720	-35.439996	0.000598	5.980162	2.026134	-0.000239
1166	1.1592e+02	-6.4137	-35.666076	0.000568	5.676086	1.923110	-0.000227
1167	1.1602e+02	-6.4490	-35.839673	0.000436	4.358423	1.476674	-0.000174
1168	1.1612e+02	-6.5004	-36.077864	0.000598	5.980162	2.026134	-0.000239
1169	1.1622e+02	-6.5308	-36.295869	0.000547	5.473369	1.854428	-0.000219
1170	1.1632e+02	-6.5774	-36.461391	0.000416	4.155706	1.407991	-0.000166
1171	1.1642e+02	-6.6110	-36.711694	0.000628	6.284238	2.129158	-0.000252
1172	1.1651e+02	-6.6528	-36.929699	0.000547	5.473369	1.854428	-0.000219
1173	1.1661e+02	-6.6848	-37.103296	0.000436	4.358423	1.476674	-0.000174
1174	1.1671e+02	-6.7330	-37.381858	0.000699	6.993749	2.369546	-0.000280
1175	1.1681e+02	-6.7715	-37.575641	0.000487	4.865217	1.648380	-0.000195
1176	1.1691e+02	-6.8116	-37.801720	0.000568	5.676086	1.923110	-0.000227
1177	1.1701e+02	-6.8485	-37.991466	0.000476	4.763858	1.614039	-0.000191
1178	1.1711e+02	-6.8966	-38.181211	0.000476	4.763858	1.614039	-0.000191
1179	1.1721e+02	-6.9319	-38.447662	0.000669	6.689673	2.266523	-0.000268
1180	1.1731e+02	-6.9656	-38.649519	0.000507	5.067934	1.717063	-0.000203
1181	1.1741e+02	-7.0217	-38.907896	0.000649	6.486956	2.197840	-0.000260
1182	1.1751e+02	-7.0506	-39.041121	0.000334	3.344836	1.133261	-0.000134
1183	1.1761e+02	-7.0987	-39.275275	0.000588	5.878804	1.991793	-0.000235
1184	1.1771e+02	-7.1308	-39.501355	0.000568	5.676086	1.923110	-0.000227
1185	1.1781e+02	-7.1757	-39.731471	0.000578	5.777445	1.957451	-0.000231
1186	1.1791e+02	-7.2078	-39.909105	0.000446	4.459782	1.511015	-0.000179
1187	1.1801e+02	-7.2543	-40.139222	0.000578	5.777445	1.957451	-0.000231
1188	1.1811e+02	-7.2832	-40.333005	0.000487	4.865217	1.648380	-0.000195
1189	1.1821e+02	-7.3313	-40.595418	0.000659	6.588314	2.232181	-0.000264
1190	1.1831e+02	-7.3682	-40.773052	0.000446	4.459782	1.511015	-0.000179
1191	1.1841e+02	-7.4083	-41.003169	0.000578	5.777445	1.957451	-0.000231
1192	1.1850e+02	-7.4420	-41.180803	0.000446	4.459782	1.511015	-0.000179
1193	1.1860e+02	-7.4837	-41.410920	0.000578	5.777445	1.957451	-0.000231
1194	1.1870e+02	-7.5351	-41.616814	0.000517	5.169293	1.751404	-0.000207
1195	1.1880e+02	-7.5704	-41.859042	0.000608	6.081521	2.060475	-0.000243
1196	1.1890e+02	-7.6105	-42.077047	0.000547	5.473369	1.854428	-0.000219
1197	1.1900e+02	-7.6506	-42.274867	0.000497	4.966575	1.682721	-0.000199
1198	1.1910e+02	-7.6875	-42.472687	0.000497	4.966575	1.682721	-0.000199
1199	1.1920e+02	-7.7276	-42.682618	0.000527	5.270651	1.785745	-0.000211
1200	1.1930e+02	-7.7709	-42.908697	0.000568	5.676086	1.923110	-0.000227
1201	1.1940e+02	-7.8190	-43.114591	0.000517	5.169293	1.751404	-0.000207
1202	1.1950e+02	-7.8431	-43.316448	0.000507	5.067934	1.717063	-0.000203
1203	1.1960e+02	-7.8928	-43.562713	0.000618	6.182880	2.094816	-0.000248
1204	1.1970e+02	-7.9233	-43.748421	0.000466	4.662499	1.579698	-0.000187
1205	1.1980e+02	-7.9746	-43.954315	0.000517	5.169293	1.751404	-0.000207
1206	1.1990e+02	-8.0131	-44.172321	0.000547	5.473369	1.854428	-0.000219
1207	1.2000e+02	-8.0468	-44.390326	0.000547	5.473369	1.854428	-0.000219
1208	1.2010e+02	-8.0918	-44.576034	0.000466	4.662499	1.579698	-0.000187
1209	1.2020e+02	-8.1174	-44.826337	0.000628	6.284238	2.129158	-0.000252
1210	1.2030e+02	-8.1639	-45.012045	0.000466	4.662499	1.579698	-0.000187
1211	1.2039e+02	-8.2089	-45.250236	0.000598	5.980162	2.026134	-0.000239
1212	1.2049e+02	-8.2442	-45.387499	0.000345	3.446195	1.167603	-0.000138
1213	1.2059e+02	-8.2794	-45.662024	0.000689	6.892390	2.335205	-0.000276
1214	1.2069e+02	-8.3228	-45.827546	0.000416	4.155706	1.407991	-0.000166
1215	1.2079e+02	-8.3661	-46.081886	0.000639	6.385597	2.163499	-0.000256
1216	1.2089e+02	-8.4142	-46.247408	0.000416	4.155706	1.407991	-0.000166
1217	1.2099e+02	-8.4431	-46.441191	0.000487	4.865217	1.648380	-0.000195
1218	1.2109e+02	-8.4848	-46.695531	0.000639	6.385597	2.163499	-0.000256
1219	1.2119e+02	-8.5265	-46.865090	0.000426	4.257065	1.442333	-0.000170
1220	1.2129e+02	-8.5698	-47.079058	0.000537	5.372010	1.820086	-0.000215
1221	1.2139e+02	-8.6019	-47.345509	0.000669	6.689673	2.266523	-0.000268
1222	1.2149e+02	-8.6452	-47.519106	0.000436	4.358423	1.476674	-0.000174
1223	1.2159e+02	-8.6837	-47.720963	0.000507	5.067934	1.717063	-0.000203
1224	1.2169e+02	-8.7270	-47.947043	0.000568	5.676086	1.923110	-0.000227
1225	1.2179e+02	-8.7687	-48.152937	0.000517	5.169293	1.751404	-0.000207
1226	1.2189e+02	-8.8024	-48.338645	0.000466	4.662499	1.579698	-0.000187
1227	1.2199e+02	-8.8425	-48.552613	0.000537	5.372010	1.820086	-0.000215
1228	1.2209e+02	-8.8858	-48.738321	0.000466	4.662499	1.579698	-0.000187
1229	1.2219e+02	-8.9243	-48.996698	0.000649	6.486956	2.197840	-0.000260
1230	1.2229e+02	-8.9612	-49.150109	0.000385	3.851630	1.304968	-0.000154
1231	1.2239e+02	-9.0014	-49.376189	0.000568	5.676086	1.923110	-0.000227
1232	1.2248e+02	-9.0447	-49.586120	0.000527	5.270651	1.785745	-0.000211
1233	1.2258e+02	-9.0784	-49.824311	0.000598	5.980162	2.026134	-0.000239
1234	1.2268e+02	-9.1185	-49.961573	0.000345	3.446195	1.167603	-0.000138
1235	1.2278e+02	-9.1554	-50.199764	0.000598	5.980162	2.026134	-0.000239
1236	1.2288e+02	-9.2067	-50.397584	0.000497	4.966575	1.682721	-0.000199
1237	1.2298e+02	-9.2420	-50.643849	0.000618	6.182880	2.094816	-0.000248
1238	1.2308e+02	-9.2773	-50.825520	0.000456	4.561141	1.545356	-0.000183
1239	1.2318e+02	-9.3238	-51.071786	0.000618	6.182880	2.094816	-0.000248
1240	1.2328e+02	-9.3591	-51.269605	0.000497	4.966575	1.682721	-0.000199
1241	1.2338e+02	-9.4088	-51.451276	0.000456	4.561141	1.545356	-0.000183
1242	1.2348e+02	-9.4441	-51.641022	0.000476	4.763858	1.614039	-0.000191
1243	1.2358e+02	-9.4810	-51.854990	0.000537	5.372010	1.820086	-0.000215
1244	1.2368e+02	-9.5307	-52.052810	0.000497	4.966575	1.682721	-0.000199
1245	1.2378e+02	-9.5564	-52.291001	0.000598	5.980162	2.026134	-0.000239
1246	1.2388e+02	-9.6078	-52.484783	0.000487	4.865217	1.648380	-0.000195
1247	1.2398e+02	-9.6430	-52.682603	0.000497	4.966575	1.682721	-0.000199
1248	1.2408e+02	-9.6783	-52.896571	0.000537	5.372010	1.820086	-0.000215
1249	1.2418e+02	-9.7184	-53.102465	0.000517	5.169293	1.751404	-0.000207
1250	1.2428e+02	-9.7634	-53.328545	0.000568	5.676086	1.923110	-0.000227
1251	1.2438e+02	-9.8067	-53.522327	0.000487	4.865217	1.648380	-0.000195
1252	1.2447e+02	-9.8372	-53.679775	0.000395	3.952989	1.339309	-0.000158
1253	1.2457e+02	-9.8773	-53.885669	0.000517	5.169293	1.751404	-0.000207
1254	1.2467e+02	-9.9061	-54.140009	0.000639	6.385597	2.163499	-0.000256
1255	1.2477e+02	-9.9671	-54.293420	0.000385	3.851630	1.304968	-0.000154
1256	1.2487e+02	-9.9928	-54.547760	0.000639	6.385597	2.163499	-0.000256
1257	1.2497e+02	-10.0409	-54.709245	0.000405	4.054347	1.373650	-0.000162
1258	1.2507e+02	-10.0858	-54.983770	0.000689	6.892390	2.335205	-0.000276
1259	1.2517e+02	-10.1211	-55.149293	0.000416	4.155706	1.407991	-0.000166
1260	1.2527e+02	-10.1548	-55.355187	0.000517	5.169293	1.751404	-0.000207
1261	1.2537e+02	-10.1901	-55.589341	0.000588	5.878804	1.991793	-0.000235
1262	1.2547e+02	-10.2446	-55.746789	0.000395	3.952989	1.339309	-0.000158
1263	1.2557e+02	-10.2815	-55.956720	0.000527	5.270651	1.785745	-0.000211
1264	1.2567e+02	-10.3232	-56.190874	0.000588	5.878804	1.991793	-0.000235
1265	1.2577e+02	-10.3521	-56.348322	0.000395	3.952989	1.339309	-0.000158
1266	1.2587e+02	-10.3938	-56.578439	0.000578	5.777445	1.957451	-0.000231
1267	1.2597e+02	-10.4291	-56.780296	0.000507	5.067934	1.717063	-0.000203
1268	1.2607e+02	-10.4772	-56.998301	0.000547	5.473369	1.854428	-0.000219
1269	1.2617e+02	-10.5157	-57.188046	0.000476	4.763858	1.614039	-0.000191
1270	1.2627e+02	-10.5607	-57.397977	0.000527	5.270651	1.785745	-0.000211
1271	1.2636e+02	-10.5831	-57.611946	0.000537	5.372010	1.820086	-0.000215
1272	1.2646e+02	-10.6409	-57.825914	0.000537	5.372010	1.820086	-0.000215
1273	1.2656e+02	-10.6730	-58.007585	0.000456	4.561141	1.545356	-0.000183
1274	1.2666e+02	-10.7163	-58.173107	0.000416	4.155706	1.407991	-0.000166
1275	1.2676e+02	-10.7612	-58.443596	0.000679	6.791032	2.300864	-0.000272
1276	1.2686e+02	-10.7997	-58.617192	0.000436	4.358423	1.476674	-0.000174
1277	1.2696e+02	-10.8398	-58.827123	0.000527	5.270651	1.785745	-0.000211
1278	1.2706e+02	-10.8735	-59.012832	0.000466	4.662499	1.579698	-0.000187
1279	1.2716e+02	-10.9216	-59.234874	0.000557	5.574727	1.888769	-0.000223
1280	1.2726e+02	-10.9537	-59.444805	0.000527	5.270651	1.785745	-0.000211
1281	1.2736e+02	-10.9826	-59.614365	0.000426	4.257065	1.442333	-0.000170
1282	1.2746e+02	-11.0339	-59.808147	0.000487	4.865217	1.648380	-0.000195
1283	1.2756e+02	-11.0836	-60.018078	0.000527	5.270651	1.785745	-0.000211
1284	1.2766e+02	-11.1125	-60.280492	0.000659	6.588314	2.232181	-0.000264
1285	1.2776e+02	-11.1542	-60.433903	0.000385	3.851630	1.304968	-0.000154
1286	1.2786e+02	-11.1911	-60.603463	0.000426	4.257065	1.442333	-0.000170
1287	1.2796e+02	-11.2377	-60.845691	0.000608	6.081521	2.060475	-0.000243
1288	1.2806e+02	-11.2713	-61.007177	0.000405	4.054347	1.373650	-0.000162
1289	1.2816e+02	-11.3147	-61.164625	0.000395	3.952989	1.339309	-0.000158
1290	1.2826e+02	-11.3612	-61.459336	0.000740	7.399184	2.506911	-0.000296
1291	1.2835e+02	-11.3949	-61.657156	0.000497	4.966575	1.682721	-0.000199
1292	1.2845e+02	-11.4366	-61.838827	0.000456	4.561141	1.545356	-0.000183
1293	1.2855e+02	-11.4735	-62.016461	0.000446	4.459782	1.511015	-0.000179
1294	1.2865e+02	-11.5056	-62.230429	0.000537	5.372010	1.820086	-0.000215
1295	1.2875e+02	-11.5585	-62.399989	0.000426	4.257065	1.442333	-0.000170
1296	1.2885e+02	-11.5954	-62.565511	0.000416	4.155706	1.407991	-0.000166
1297	1.2895e+02	-11.6323	-62.844073	0.000699	6.993749	2.369546	-0.000280
1298	1.2905e+02	-11.6756	-63.013633	0.000426	4.257065	1.442333	-0.000170
1299	1.2915e+02	-11.7125	-63.183193	0.000426	4.257065	1.442333	-0.000170
1300	1.2925e+02	-11.7462	-63.381013	0.000497	4.966575	1.682721	-0.000199
1301	1.2935e+02	-11.7911	-63.578832	0.000497	4.966575	1.682721	-0.000199
1302	1.2945e+02	-11.8264	-63.829135	0.000628	6.284238	2.129158	-0.000252
1303	1.2955e+02	-11.8729	-64.022917	0.000487	4.865217	1.648380	-0.000195
1304	1.2965e+02	-11.9114	-64.220737	0.000497	4.966575	1.682721	-0.000199
1305	1.2975e+02	-11.9547	-64.406445	0.000466	4.662499	1.579698	-0.000187
1306	1.2985e+02	-11.9900	-64.576005	0.000426	4.257065	1.442333	-0.000170
1307	1.2995e+02	-12.0398	-64.785936	0.000527	5.270651	1.785745	-0.000211
1308	1.3005e+02	-12.0654	-64.995867	0.000527	5.270651	1.785745	-0.000211
1309	1.3015e+02	-12.1136	-65.181575	0.000466	4.662499	1.579698	-0.000187
1310	1.3025e+02	-12.1456	-65.383432	0.000507	5.067934	1.717063	-0.000203
1311	1.3034e+02	-12.1890	-65.609511	0.000568	5.676086	1.923110	-0.000227
1312	1.3044e+02	-12.2371	-65.766960	0.000395	3.952989	1.339309	-0.000158
1313	1.3054e+02	-12.2644	-65.916334	0.000375	3.750271	1.270626	-0.000150
1314	1.3064e+02	-12.3061	-66.186822	0.000679	6.791032	2.300864	-0.000272
1315	1.3074e+02	-12.3430	-66.364456	0.000446	4.459782	1.511015	-0.000179
1316	1.3084e+02	-12.3879	-66.582461	0.000547	5.473369	1.854428	-0.000219
1317	1.3094e+02	-12.4296	-66.756058	0.000436	4.358423	1.476674	-0.000174
1318	1.3104e+02	-12.4761	-66.974063	0.000547	5.473369	1.854428	-0.000219
1319	1.3114e+02	-12.5130	-67.155734	0.000456	4.561141	1.545356	-0.000183
1320	1.3124e+02	-12.5483	-67.313183	0.000395	3.952989	1.339309	-0.000158
1321	1.3134e+02	-12.5836	-67.531188	0.000547	5.473369	1.854428	-0.000219
1322	1.3144e+02	-12.6253	-67.729008	0.000497	4.966575	1.682721	-0.000199
1323	1.3154e+02	-12.6750	-67.914716	0.000466	4.662499	1.579698	-0.000187
1324	1.3164e+02	-12.7087	-68.100424	0.000466	4.662499	1.579698	-0.000187
1325	1.3174e+02	-12.7424	-68.249798	0.000375	3.750271	1.270626	-0.000150
1326	1.3184e+02	-12.7922	-68.463766	0.000537	5.372010	1.820086	-0.000215
1327	1.3194e+02	-12.8258	-68.677735	0.000537	5.372010	1.820086	-0.000215
1328	1.3204e+02	-12.8676	-68.867480	0.000476	4.763858	1.614039	-0.000191
1329	1.3214e+02	-12.9012	-69.065300	0.000497	4.966575	1.682721	-0.000199
1330	1.3224e+02	-12.9510	-69.202562	0.000345	3.446195	1.167603	-0.000138
1331	1.3234e+02	-12.9815	-69.404419	0.000507	5.067934	1.717063	-0.000203
1332	1.3243e+02	-13.0312	-69.614350	0.000527	5.270651	1.785745	-0.000211
1333	1.3253e+02	-13.0665	-69.791984	0.000446	4.459782	1.511015	-0.000179
1334	1.3263e+02	-13.1130	-69.993841	0.000507	5.067934	1.717063	-0.000203
1335	1.3273e+02	-13.1467	-70.207809	0.000537	5.372010	1.820086	-0.000215
1336	1.3283e+02	-13.1900	-70.349109	0.000355	3.547554	1.201944	-0.000142
1337	1.3293e+02	-13.2317	-70.526743	0.000446	4.459782	1.511015	-0.000179
1338	1.3303e+02	-13.2574	-70.748785	0.000557	5.574727	1.888769	-0.000223
1339	1.3313e+02	-13.3039	-70.966791	0.000547	5.473369	1.854428	-0.000219
1340	1.3323e+02	-13.3472	-71.148462	0.000456	4.561141	1.545356	-0.000183
1341	1.3333e+02	-13.3889	-71.330133	0.000456	4.561141	1.545356	-0.000183
1342	1.3343e+02	-13.4258	-71.491618	0.000405	4.054347	1.373650	-0.000162
1343	1.3353e+02	-13.4675	-71.709624	0.000547	5.473369	1.854428	-0.000219
1344	1.3363e+02	-13.5044	-71.887258	0.000446	4.459782	1.511015	-0.000179
1345	1.3373e+02	-13.5445	-72.060854	0.000436	4.358423	1.476674	-0.000174
1346	1.3383e+02	-13.5798	-72.226377	0.000416	4.155706	1.407991	-0.000166
1347	1.3393e+02	-13.6199	-72.432271	0.000517	5.169293	1.751404	-0.000207
1348	1.3403e+02	-13.6665	-72.674499	0.000608	6.081521	2.060475	-0.000243
1349	1.3413e+02	-13.7098	-72.856170	0.000456	4.561141	1.545356	-0.000183
1350	1.3423e+02	-13.7403	-72.993433	0.000345	3.446195	1.167603	-0.000138
1351	1.3432e+02	-13.7980	-73.183178	0.000476	4.763858	1.614039	-0.000191
1352	1.3442e+02	-13.8237	-73.348701	0.000416	4.155706	1.407991	-0.000166
1353	1.3452e+02	-13.8606	-73.522297	0.000436	4.358423	1.476674	-0.000174
1354	1.3462e+02	-13.9039	-73.736266	0.000537	5.372010	1.820086	-0.000215
1355	1.3472e+02	-13.9456	-73.942160	0.000517	5.169293	1.751404	-0.000207
1356	1.3482e+02	-13.9761	-74.099608	0.000395	3.952989	1.339309	-0.000158
1357	1.3492e+02	-14.0290	-74.313576	0.000537	5.372010	1.820086	-0.000215
1358	1.3502e+02	-14.0627	-74.475062	0.000405	4.054347	1.373650	-0.000162
1359	1.3512e+02	-14.1028	-74.672881	0.000497	4.966575	1.682721	-0.000199
1360	1.3522e+02	-14.1509	-74.878775	0.000517	5.169293	1.751404	-0.000207
1361	1.3532e+02	-14.1862	-75.048335	0.000426	4.257065	1.442333	-0.000170
1362	1.3542e+02	-14.2311	-75.238080	0.000476	4.763858	1.614039	-0.000191
1363	1.3552e+02	-14.2680	-75.448011	0.000527	5.270651	1.785745	-0.000211
1364	1.3562e+02	-14.3017	-75.605460	0.000395	3.952989	1.339309	-0.000158
1365	1.3572e+02	-14.3467	-75.803279	0.000497	4.966575	1.682721	-0.000199
1366	1.3582e+02	-14.3836	-75.984950	0.000456	4.561141	1.545356	-0.000183
1367	1.3592e+02	-14.4221	-76.174696	0.000476	4.763858	1.614039	-0.000191
1368	1.3602e+02	-14.4622	-76.364441	0.000476	4.763858	1.614039	-0.000191
1369	1.3612e+02	-14.4991	-76.554186	0.000476	4.763858	1.614039	-0.000191
1370	1.3622e+02	-14.5440	-76.743932	0.000476	4.763858	1.614039	-0.000191
1371	1.3631e+02	-14.5809	-76.877157	0.000334	3.344836	1.133261	-0.000134
1372	1.3641e+02	-14.6242	-77.107274	0.000578	5.777445	1.957451	-0.000231
1373	1.3651e+02	-14.6659	-77.317205	0.000527	5.270651	1.785745	-0.000211
1374	1.3661e+02	-14.7012	-77.494839	0.000446	4.459782	1.511015	-0.000179
1375	1.3671e+02	-14.7413	-77.668436	0.000436	4.358423	1.476674	-0.000174
1376	1.3681e+02	-14.7830	-77.837996	0.000426	4.257065	1.442333	-0.000170
1377	1.3691e+02	-14.8183	-78.051964	0.000537	5.372010	1.820086	-0.000215
1378	1.3701e+02	-14.8600	-78.257858	0.000517	5.169293	1.751404	-0.000207
1379	1.3711e+02	-14.9017	-78.391083	0.000334	3.344836	1.133261	-0.000134
1380	1.3721e+02	-14.9354	-78.609089	0.000547	5.473369	1.854428	-0.000219
1381	1.3731e+02	-14.9771	-78.794797	0.000466	4.662499	1.579698	-0.000187
1382	1.3741e+02	-15.0172	-78.984542	0.000476	4.763858	1.614039	-0.000191
1383	1.3751e+02	-15.0605	-79.170250	0.000466	4.662499	1.579698	-0.000187
1384	1.3761e+02	-15.0926	-79.372107	0.000507	5.067934	1.717063	-0.000203
1385	1.3771e+02	-15.1472	-79.525518	0.000385	3.851630	1.304968	-0.000154
1386	1.3781e+02	-15.1809	-79.670855	0.000365	3.648913	1.236285	-0.000146
1387	1.3791e+02	-15.2194	-79.917121	0.000618	6.182880	2.094816	-0.000248
1388	1.3801e+02	-15.2514	-80.090717	0.000436	4.358423	1.476674	-0.000174
1389	1.3811e+02	-15.3028	-80.296611	0.000517	5.169293	1.751404	-0.000207
1390	1.3821e+02	-15.3413	-80.458097	0.000405	4.054347	1.373650	-0.000162
1391	1.3831e+02	-15.3798	-80.603434	0.000365	3.648913	1.236285	-0.000146
1392	1.3840e+02	-15.4183	-80.797216	0.000487	4.865217	1.648380	-0.000195
1393	1.3850e+02	-15.4600	-81.015221	0.000547	5.473369	1.854428	-0.000219
1394	1.3860e+02	-15.4873	-81.180744	0.000416	4.155706	1.407991	-0.000166
1395	1.3870e+02	-15.5450	-81.378564	0.000497	4.966575	1.682721	-0.000199
1396	1.3880e+02	-15.5787	-81.556198	0.000446	4.459782	1.511015	-0.000179
1397	1.3890e+02	-15.6252	-81.774203	0.000547	5.473369	1.854428	-0.000219
1398	1.3900e+02	-15.6589	-81.963948	0.000476	4.763858	1.614039	-0.000191
1399	1.3910e+02	-15.7038	-82.137545	0.000436	4.358423	1.476674	-0.000174
1400	1.3920e+02	-15.7343	-82.335365	0.000497	4.966575	1.682721	-0.000199
1401	1.3930e+02	-15.7712	-82.504925	0.000426	4.257065	1.442333	-0.000170
1402	1.3940e+02	-15.8161	-82.662373	0.000395	3.952989	1.339309	-0.000158
1403	1.3950e+02	-15.8594	-82.888452	0.000568	5.676086	1.923110	-0.000227
1404	1.3960e+02	-15.8963	-83.102421	0.000537	5.372010	1.820086	-0.000215
1405	1.3970e+02	-15.9348	-83.247757	0.000365	3.648913	1.236285	-0.000146
1406	1.3980e+02	-15.9750	-83.437503	0.000476	4.763858	1.614039	-0.000191
1407	1.3990e+02	-16.0086	-83.619174	0.000456	4.561141	1.545356	-0.000183
1408	1.4000e+02	-16.0600	-83.792771	0.000436	4.358423	1.476674	-0.000174
1409	1.4010e+02	-16.1001	-84.018850	0.000568	5.676086	1.923110	-0.000227
1410	1.4020e+02	-16.1354	-84.200522	0.000456	4.561141	1.545356	-0.000183
1411	1.4029e+02	-16.1771	-84.382193	0.000456	4.561141	1.545356	-0.000183
1412	1.4039e+02	-16.2140	-84.580012	0.000497	4.966575	1.682721	-0.000199
1413	1.4049e+02	-16.2557	-84.781869	0.000507	5.067934	1.717063	-0.000203
1414	1.4059e+02	-16.2958	-84.979689	0.000497	4.966575	1.682721	-0.000199
1415	1.4069e+02	-16.3407	-85.185583	0.000517	5.169293	1.751404	-0.000207
1416	1.4079e+02	-16.3808	-85.347068	0.000405	4.054347	1.373650	-0.000162
1417	1.4089e+02	-16.4129	-85.524702	0.000446	4.459782	1.511015	-0.000179
1418	1.4099e+02	-16.4482	-85.718485	0.000487	4.865217	1.648380	-0.000195
1419	1.4109e+02	-16.4931	-85.888044	0.000426	4.257065	1.442333	-0.000170
1420	1.4119e+02	-16.5300	-86.146421	0.000649	6.486956	2.197840	-0.000260
1421	1.4129e+02	-16.5701	-86.303869	0.000395	3.952989	1.339309	-0.000158
1422	1.4139e+02	-16.6182	-86.497652	0.000487	4.865217	1.648380	-0.000195
1423	1.4149e+02	-16.6551	-86.699509	0.000507	5.067934	1.717063	-0.000203
1424	1.4159e+02	-16.6953	-86.889254	0.000476	4.763858	1.614039	-0.000191
1425	1.4169e+02	-16.7305	-87.115334	0.000568	5.676086	1.923110	-0.000227
1426	1.4179e+02	-16.7755	-87.292967	0.000446	4.459782	1.511015	-0.000179
1427	1.4189e+02	-16.8124	-87.462527	0.000426	4.257065	1.442333	-0.000170
1428	1.4199e+02	-16.8509	-87.652273	0.000476	4.763858	1.614039	-0.000191
1429	1.4209e+02	-16.8894	-87.874315	0.000557	5.574727	1.888769	-0.000223
1430	1.4219e+02	-16.9391	-88.031763	0.000395	3.952989	1.339309	-0.000158
1431	1.4228e+02	-16.9728	-88.261880	0.000578	5.777445	1.957451	-0.000231
1432	1.4238e+02	-17.0049	-88.447588	0.000466	4.662499	1.579698	-0.000187
1433	1.4248e+02	-17.0498	-88.653482	0.000517	5.169293	1.751404	-0.000207
1434	1.4258e+02	-17.0947	-88.831116	0.000446	4.459782	1.511015	-0.000179
1435	1.4268e+02	-17.1380	-89.077381	0.000618	6.182880	2.094816	-0.000248
1436	1.4278e+02	-17.1653	-89.230793	0.000385	3.851630	1.304968	-0.000154
1437	1.4288e+02	-17.2022	-89.444761	0.000537	5.372010	1.820086	-0.000215
1438	1.4298e+02	-17.2503	-89.650655	0.000517	5.169293	1.751404	-0.000207
1439	1.4308e+02	-17.3000	-89.848474	0.000497	4.966575	1.682721	-0.000199
1440	1.4318e+02	-17.3337	-90.022071	0.000436	4.358423	1.476674	-0.000174
1441	1.4328e+02	-17.3803	-90.284485	0.000659	6.588314	2.232181	-0.000264
1442	1.4338e+02	-17.4107	-90.478268	0.000487	4.865217	1.648380	-0.000195
1443	1.4348e+02	-17.4428	-90.668013	0.000476	4.763858	1.614039	-0.000191
1444	1.4358e+02	-17.4861	-90.906204	0.000598	5.980162	2.026134	-0.000239
1445	1.4368e+02	-17.5295	-91.104024	0.000497	4.966575	1.682721	-0.000199
1446	1.4378e+02	-17.5663	-91.253398	0.000375	3.750271	1.270626	-0.000150
1447	1.4388e+02	-17.6097	-91.479477	0.000568	5.676086	1.923110	-0.000227
1448	1.4398e+02	-17.6401	-91.705557	0.000568	5.676086	1.923110	-0.000227
1449	1.4408e+02	-17.6883	-91.935674	0.000578	5.777445	1.957451	-0.000231
1450	1.4418e+02	-17.7252	-92.109270	0.000436	4.358423	1.476674	-0.000174
1451	1.4428e+02	-17.7621	-92.315164	0.000517	5.169293	1.751404	-0.000207
1452	1.4437e+02	-17.8086	-92.492798	0.000446	4.459782	1.511015	-0.000179
1453	1.4447e+02	-17.8439	-92.690618	0.000497	4.966575	1.682721	-0.000199
1454	1.4457e+02	-17.8856	-92.948995	0.000649	6.486956	2.197840	-0.000260
1455	1.4467e+02	-17.9177	-93.146814	0.000497	4.966575	1.682721	-0.000199
1456	1.4477e+02	-17.9690	-93.348671	0.000507	5.067934	1.717063	-0.000203
1457	1.4487e+02	-18.0075	-93.574751	0.000568	5.676086	1.923110	-0.000227
1458	1.4497e+02	-18.0396	-93.808905	0.000588	5.878804	1.991793	-0.000235
1459	1.4507e+02	-18.0941	-94.030947	0.000557	5.574727	1.888769	-0.000223
1460	1.4517e+02	-18.1342	-94.184358	0.000385	3.851630	1.304968	-0.000154
1461	1.4527e+02	-18.1679	-94.422549	0.000598	5.980162	2.026134	-0.000239
1462	1.4537e+02	-18.2048	-94.672852	0.000628	6.284238	2.129158	-0.000252
1463	1.4547e+02	-18.2465	-94.870671	0.000497	4.966575	1.682721	-0.000199
1464	1.4557e+02	-18.2963	-95.088677	0.000547	5.473369	1.854428	-0.000219
1465	1.4567e+02	-18.3268	-95.286496	0.000497	4.966575	1.682721	-0.000199
1466	1.4577e+02	-18.3749	-95.496427	0.000527	5.270651	1.785745	-0.000211
1467	1.4587e+02	-18.4054	-95.742693	0.000618	6.182880	2.094816	-0.000248
1468	1.4597e+02	-18.4519	-95.912252	0.000426	4.257065	1.442333	-0.000170
1469	1.4607e+02	-18.4952	-96.194852	0.000710	7.095108	2.403888	-0.000284
1470	1.4617e+02	-18.5257	-96.408820	0.000537	5.372010	1.820086	-0.000215
1471	1.4626e+02	-18.5674	-96.622788	0.000537	5.372010	1.820086	-0.000215
1472	1.4636e+02	-18.6091	-96.889239	0.000669	6.689673	2.266523	-0.000268
1473	1.4646e+02	-18.6476	-97.091096	0.000507	5.067934	1.717063	-0.000203
1474	1.4656e+02	-18.6829	-97.321213	0.000578	5.777445	1.957451	-0.000231
1475	1.4666e+02	-18.7150	-97.595738	0.000689	6.892390	2.335205	-0.000276
1476	1.4676e+02	-18.7599	-97.761260	0.000416	4.155706	1.407991	-0.000166
1477	1.4686e+02	-18.7984	-98.043860	0.000710	7.095108	2.403888	-0.000284
1478	1.4696e+02	-18.8433	-98.245717	0.000507	5.067934	1.717063	-0.000203
1479	1.4706e+02	-18.8834	-98.455648	0.000527	5.270651	1.785745	-0.000211
1480	1.4716e+02	-18.9235	-98.705950	0.000628	6.284238	2.129158	-0.000252
1481	1.4726e+02	-18.9604	-98.976438	0.000679	6.791032	2.300864	-0.000272
1482	1.4736e+02	-19.0005	-99.194444	0.000547	5.473369	1.854428	-0.000219
1483	1.4746e+02	-19.0358	-99.448783	0.000639	6.385597	2.163499	-0.000256
1484	1.4756e+02	-19.0888	-99.715234	0.000669	6.689673	2.266523	-0.000268
1485	1.4766e+02	-19.1241	-99.904980	0.000476	4.763858	1.614039	-0.000191
1486	1.4776e+02	-19.1513	-100.155282	0.000628	6.284238	2.129158	-0.000252
1487	1.4786e+02	-19.2027	-100.389436	0.000588	5.878804	1.991793	-0.000235
1488	1.4796e+02	-19.2460	-100.659924	0.000679	6.791032	2.300864	-0.000272
1489	1.4806e+02	-19.2861	-100.873892	0.000537	5.372010	1.820086	-0.000215
1490	1.4816e+02	-19.3214	-101.136306	0.000659	6.588314	2.232181	-0.000264
1491	1.4825e+02	-19.3551	-101.398720	0.000659	6.588314	2.232181	-0.000264
1492	1.4835e+02	-19.3984	-101.661134	0.000659	6.588314	2.232181	-0.000264
1493	1.4845e+02	-19.4433	-101.915473	0.000639	6.385597	2.163499	-0.000256
1494	1.4855e+02	-19.4834	-102.133478	0.000547	5.473369	1.854428	-0.000219
1495	1.4865e+02	-19.5235	-102.408004	0.000689	6.892390	2.335205	-0.000276
1496	1.4875e+02	-19.5620	-102.630046	0.000557	5.574727	1.888769	-0.000223
1497	1.4885e+02	-19.6069	-102.916683	0.000720	7.196466	2.438229	-0.000288
1498	1.4895e+02	-19.6358	-103.179097	0.000659	6.588314	2.232181	-0.000264
1499	1.4905e+02	-19.6711	-103.425362	0.000618	6.182880	2.094816	-0.000248
1500	1.4915e+02	-19.7305	-103.716036	0.000730	7.297825	2.472570	-0.000292
1501	1.4925e+02	-19.7577	-103.954227	0.000598	5.980162	2.026134	-0.000239
1502	1.4935e+02	-19.8059	-104.257012	0.000760	7.601901	2.575594	-0.000304
1503	1.4945e+02	-19.8428	-104.531537	0.000689	6.892390	2.335205	-0.000276
1504	1.4955e+02	-19.8780	-104.765691	0.000588	5.878804	1.991793	-0.000235
1505	1.4965e+02	-19.9294	-105.036179	0.000679	6.791032	2.300864	-0.000272
1506	1.4975e+02	-19.9615	-105.322816	0.000720	7.196466	2.438229	-0.000288
1507	1.4985e+02	-20.0016	-105.613489	0.000730	7.297825	2.472570	-0.000292
1508	1.4995e+02	-19.9647	-105.589267	0.000061	0.608152	0.206048	0.000024
1509	1.5005e+02	-19.9230	-105.585230	0.000010	0.101359	0.034341	0.000004
1510	1.5015e+02	-19.8764	-105.536784	0.000122	1.216304	0.412095	0.000049
1511	1.5025e+02	-19.8412	-105.528710	0.000020	0.202717	0.068683	0.000008
1512	1.5034e+02	-19.7994	-105.488338	0.000101	1.013587	0.343413	0.000041
1513	1.5044e+02	-19.7674	-105.456041	0.000081	0.810869	0.274730	0.000032
1514	1.5054e+02	-19.7240	-105.363187	0.000233	2.331250	0.789849	0.000093
1515	1.5064e+02	-19.6823	-105.343001	0.000051	0.506793	0.171706	0.000020
1516	1.5074e+02	-19.6374	-105.318779	0.000061	0.608152	0.206048	0.000024
1517	1.5084e+02	-19.6117	-105.229962	0.000223	2.229891	0.755508	0.000089
1518	1.5094e+02	-19.5508	-105.205739	0.000061	0.608152	0.206048	0.000024
1519	1.5104e+02	-19.5235	-105.108848	0.000243	2.432608	0.824190	0.000097
1520	1.5114e+02	-19.4834	-105.032142	0.000193	1.925815	0.652484	0.000077
1521	1.5124e+02	-19.4433	-104.995808	0.000091	0.912228	0.309071	0.000037
1522	1.5134e+02	-19.4064	-104.886805	0.000274	2.736684	0.927214	0.000110
1523	1.5144e+02	-19.3663	-104.797988	0.000223	2.229891	0.755508	0.000089
1524	1.5154e+02	-19.3134	-104.741468	0.000142	1.419022	0.480778	0.000057
1525	1.5164e+02	-19.2829	-104.684948	0.000142	1.419022	0.480778	0.000057
1526	1.5174e+02	-19.2476	-104.579983	0.000264	2.635326	0.892873	0.000105
1527	1.5184e+02	-19.2059	-104.507314	0.000182	1.824456	0.618143	0.000073
1528	1.5194e+02	-19.1561	-104.430609	0.000193	1.925815	0.652484	0.000077
1529	1.5204e+02	-19.1241	-104.366015	0.000162	1.621739	0.549460	0.000065
1530	1.5214e+02	-19.0840	-104.216641	0.000375	3.750271	1.270626	0.000150
1531	1.5224e+02	-19.0310	-104.148009	0.000172	1.723098	0.583801	0.000069
1532	1.5233e+02	-18.9973	-104.047081	0.000253	2.533967	0.858531	0.000101
1533	1.5243e+02	-18.9668	-103.954227	0.000233	2.331250	0.789849	0.000093
1534	1.5253e+02	-18.9235	-103.825038	0.000324	3.243478	1.098920	0.000130
1535	1.5263e+02	-18.8802	-103.764481	0.000152	1.520380	0.515119	0.000061
1536	1.5273e+02	-18.8465	-103.611070	0.000385	3.851630	1.304968	0.000154
1537	1.5283e+02	-18.8064	-103.566662	0.000111	1.114945	0.377754	0.000045
1538	1.5293e+02	-18.7679	-103.397102	0.000426	4.257065	1.442333	0.000170
1539	1.5303e+02	-18.7230	-103.324434	0.000182	1.824456	0.618143	0.000073
1540	1.5313e+02	-18.6909	-103.203319	0.000304	3.040760	1.030238	0.000122
1541	1.5323e+02	-18.6476	-103.102391	0.000253	2.533967	0.858531	0.000101
1542	1.5333e+02	-18.6107	-103.001463	0.000253	2.533967	0.858531	0.000101
1543	1.5343e+02	-18.5658	-102.860163	0.000355	3.547554	1.201944	0.000142
1544	1.5353e+02	-18.5241	-102.755197	0.000264	2.635326	0.892873	0.000105
1545	1.5363e+02	-18.4888	-102.646195	0.000274	2.736684	0.927214	0.000110
1546	1.5373e+02	-18.4423	-102.549303	0.000243	2.432608	0.824190	0.000097
1547	1.5383e+02	-18.4022	-102.403967	0.000365	3.648913	1.236285	0.000146
1548	1.5393e+02	-18.3653	-102.299001	0.000264	2.635326	0.892873	0.000105
1549	1.5403e+02	-18.3284	-102.157701	0.000355	3.547554	1.201944	0.000142
1550	1.5413e+02	-18.2802	-102.028513	0.000324	3.243478	1.098920	0.000130
1551	1.5422e+02	-18.2514	-101.943733	0.000213	2.128532	0.721166	0.000085
1552	1.5432e+02	-18.2064	-101.826656	0.000294	2.939402	0.995896	0.000118
1553	1.5442e+02	-18.1695	-101.673245	0.000385	3.851630	1.304968	0.000154
1554	1.5452e+02	-18.1230	-101.531945	0.000355	3.547554	1.201944	0.000142
1555	1.5462e+02	-18.0941	-101.426980	0.000264	2.635326	0.892873	0.000105
1556	1.5472e+02	-18.0508	-101.289717	0.000345	3.446195	1.167603	0.000138
1557	1.5482e+02	-18.0187	-101.217049	0.000182	1.824456	0.618143	0.000073
1558	1.5492e+02	-17.9626	-101.075749	0.000355	3.547554	1.201944	0.000142
1559	1.5502e+02	-17.9305	-100.914263	0.000405	4.054347	1.373650	0.000162
1560	1.5512e+02	-17.8952	-100.752778	0.000405	4.054347	1.373650	0.000162
1561	1.5522e+02	-17.8455	-100.704332	0.000122	1.216304	0.412095	0.000049
1562	1.5532e+02	-17.8086	-100.518624	0.000466	4.662499	1.579698	0.000187
1563	1.5542e+02	-17.7637	-100.381362	0.000345	3.446195	1.167603	0.000138
1564	1.5552e+02	-17.7268	-100.240062	0.000355	3.547554	1.201944	0.000142
1565	1.5562e+02	-17.6899	-100.147208	0.000233	2.331250	0.789849	0.000093
1566	1.5572e+02	-17.6482	-99.985722	0.000405	4.054347	1.373650	0.000162
1567	1.5582e+02	-17.6049	-99.892868	0.000233	2.331250	0.789849	0.000093
1568	1.5592e+02	-17.5728	-99.666789	0.000568	5.676086	1.923110	0.000227
1569	1.5602e+02	-17.5295	-99.586046	0.000203	2.027174	0.686825	0.000081
1570	1.5612e+02	-17.4893	-99.440709	0.000365	3.648913	1.236285	0.000146
1571	1.5622e+02	-17.4541	-99.319595	0.000304	3.040760	1.030238	0.000122
1572	1.5631e+02	-17.4107	-99.194444	0.000314	3.142119	1.064579	0.000126
1573	1.5641e+02	-17.3690	-99.089478	0.000264	2.635326	0.892873	0.000105
1574	1.5651e+02	-17.3305	-98.915881	0.000436	4.358423	1.476674	0.000174
1575	1.5661e+02	-17.2888	-98.778619	0.000345	3.446195	1.167603	0.000138
1576	1.5671e+02	-17.2599	-98.637319	0.000355	3.547554	1.201944	0.000142
1577	1.5681e+02	-17.2182	-98.504093	0.000334	3.344836	1.133261	0.000134
1578	1.5691e+02	-17.1637	-98.374905	0.000324	3.243478	1.098920	0.000130
1579	1.5701e+02	-17.1332	-98.245717	0.000324	3.243478	1.098920	0.000130
1580	1.5711e+02	-17.0883	-98.080194	0.000416	4.155706	1.407991	0.000166
1581	1.5721e+02	-17.0562	-97.967154	0.000284	2.838043	0.961555	0.000114
1582	1.5731e+02	-17.0049	-97.801632	0.000416	4.155706	1.407991	0.000166
1583	1.5741e+02	-16.9728	-97.660332	0.000355	3.547554	1.201944	0.000142
1584	1.5751e+02	-16.9247	-97.535181	0.000314	3.142119	1.064579	0.000126
1585	1.5761e+02	-16.8942	-97.377733	0.000395	3.952989	1.339309	0.000158
1586	1.5771e+02	-16.8444	-97.232396	0.000365	3.648913	1.236285	0.000146
1587	1.5781e+02	-16.8059	-97.091096	0.000355	3.547554	1.201944	0.000142
1588	1.5791e+02	-16.7723	-96.969982	0.000304	3.040760	1.030238	0.000122
1589	1.5801e+02	-16.7305	-96.860979	0.000274	2.736684	0.927214	0.000110
1590	1.5811e+02	-16.6872	-96.667197	0.000487	4.865217	1.648380	0.000195
1591	1.5821e+02	-16.6503	-96.578380	0.000223	2.229891	0.755508	0.000089
1592	1.5830e+02	-16.6134	-96.380560	0.000497	4.966575	1.682721	0.000199
1593	1.5840e+02	-16.5749	-96.227149	0.000385	3.851630	1.304968	0.000154
1594	1.5850e+02	-16.5316	-96.110072	0.000294	2.939402	0.995896	0.000118
1595	1.5860e+02	-16.4867	-95.980884	0.000324	3.243478	1.098920	0.000130
1596	1.5870e+02	-16.4546	-95.819398	0.000405	4.054347	1.373650	0.000162
1597	1.5880e+02	-16.4081	-95.682136	0.000345	3.446195	1.167603	0.000138
1598	1.5890e+02	-16.3680	-95.561021	0.000304	3.040760	1.030238	0.000122
1599	1.5900e+02	-16.3359	-95.403573	0.000395	3.952989	1.339309	0.000158
1600	1.5910e+02	-16.2990	-95.282459	0.000304	3.040760	1.030238	0.000122
1601	1.5920e+02	-16.2637	-95.129048	0.000385	3.851630	1.304968	0.000154
1602	1.5930e+02	-16.2140	-94.963525	0.000416	4.155706	1.407991	0.000166
1603	1.5940e+02	-16.1771	-94.834337	0.000324	3.243478	1.098920	0.000130
1604	1.5950e+02	-16.1354	-94.648629	0.000466	4.662499	1.579698	0.000187
1605	1.5960e+02	-16.1033	-94.555775	0.000233	2.331250	0.789849	0.000093
1606	1.5970e+02	-16.0584	-94.386215	0.000426	4.257065	1.442333	0.000170
1607	1.5980e+02	-16.0118	-94.248952	0.000345	3.446195	1.167603	0.000138
1608	1.5990e+02	-15.9846	-94.103615	0.000365	3.648913	1.236285	0.000146
1609	1.6000e+02	-15.9300	-93.934056	0.000426	4.257065	1.442333	0.000170
1610	1.6010e+02	-15.8899	-93.816979	0.000294	2.939402	0.995896	0.000118
1611	1.6019e+02	-15.8530	-93.671642	0.000365	3.648913	1.236285	0.000146
1612	1.6029e+02	-15.8113	-93.510157	0.000405	4.054347	1.373650	0.000162
1613	1.6039e+02	-15.7744	-93.364820	0.000365	3.648913	1.236285	0.000146
1614	1.6049e+02	-15.7375	-93.199297	0.000416	4.155706	1.407991	0.000166
1615	1.6059e+02	-15.6942	-93.066072	0.000334	3.344836	1.133261	0.000134
1616	1.6069e+02	-15.6573	-92.920735	0.000365	3.648913	1.236285	0.000146
1617	1.6079e+02	-15.6140	-92.743101	0.000446	4.459782	1.511015	0.000179
1618	1.6089e+02	-15.5659	-92.638135	0.000264	2.635326	0.892873	0.000105
1619	1.6099e+02	-15.5322	-92.444353	0.000487	4.865217	1.648380	0.000195
1620	1.6109e+02	-15.4953	-92.286904	0.000395	3.952989	1.339309	0.000158
1621	1.6119e+02	-15.4680	-92.165790	0.000304	3.040760	1.030238	0.000122
1622	1.6129e+02	-15.4119	-92.004305	0.000405	4.054347	1.373650	0.000162
1623	1.6139e+02	-15.3766	-91.883191	0.000304	3.040760	1.030238	0.000122
1624	1.6149e+02	-15.3445	-91.685371	0.000497	4.966575	1.682721	0.000199
1625	1.6159e+02	-15.2964	-91.568294	0.000294	2.939402	0.995896	0.000118
1626	1.6169e+02	-15.2546	-91.390660	0.000446	4.459782	1.511015	0.000179
1627	1.6179e+02	-15.2145	-91.225138	0.000416	4.155706	1.407991	0.000166
1628	1.6189e+02	-15.1809	-91.108061	0.000294	2.939402	0.995896	0.000118
1629	1.6199e+02	-15.1456	-90.926390	0.000456	4.561141	1.545356	0.000183
1630	1.6209e+02	-15.1006	-90.817387	0.000274	2.736684	0.927214	0.000110
1631	1.6219e+02	-15.0589	-90.623604	0.000487	4.865217	1.648380	0.000195
1632	1.6228e+02	-15.0188	-90.458082	0.000416	4.155706	1.407991	0.000166
1633	1.6238e+02	-14.9707	-90.252188	0.000517	5.169293	1.751404	0.000207
1634	1.6248e+02	-14.9354	-90.139148	0.000284	2.838043	0.961555	0.000114
1635	1.6258e+02	-14.8985	-90.018034	0.000304	3.040760	1.030238	0.000122
1636	1.6268e+02	-14.8696	-89.852512	0.000416	4.155706	1.407991	0.000166
1637	1.6278e+02	-14.8215	-89.674878	0.000446	4.459782	1.511015	0.000179
1638	1.6288e+02	-14.7750	-89.513392	0.000405	4.054347	1.373650	0.000162
1639	1.6298e+02	-14.7333	-89.368055	0.000365	3.648913	1.236285	0.000146
1640	1.6308e+02	-14.6980	-89.214644	0.000385	3.851630	1.304968	0.000154
1641	1.6318e+02	-14.6563	-89.077381	0.000345	3.446195	1.167603	0.000138
1642	1.6328e+02	-14.6178	-88.911859	0.000416	4.155706	1.407991	0.000166
1643	1.6338e+02	-14.5809	-88.742299	0.000426	4.257065	1.442333	0.000170
1644	1.6348e+02	-14.5472	-88.588888	0.000385	3.851630	1.304968	0.000154
1645	1.6358e+02	-14.5007	-88.455663	0.000334	3.344836	1.133261	0.000134
1646	1.6368e+02	-14.4590	-88.282066	0.000436	4.358423	1.476674	0.000174
1647	1.6378e+02	-14.4188	-88.116543	0.000416	4.155706	1.407991	0.000166
1648	1.6388e+02	-14.3787	-87.926798	0.000476	4.763858	1.614039	0.000191
1649	1.6398e+02	-14.3370	-87.801647	0.000314	3.142119	1.064579	0.000126
1650	1.6408e+02	-14.3065	-87.636124	0.000416	4.155706	1.407991	0.000166
1651	1.6418e+02	-14.2616	-87.474639	0.000405	4.054347	1.373650	0.000162
1652	1.6427e+02	-14.2167	-87.305079	0.000426	4.257065	1.442333	0.000170
1653	1.6437e+02	-14.1814	-87.151668	0.000385	3.851630	1.304968	0.000154
1654	1.6447e+02	-14.1541	-86.982108	0.000426	4.257065	1.442333	0.000170
1655	1.6457e+02	-14.1044	-86.816585	0.000416	4.155706	1.407991	0.000166
1656	1.6467e+02	-14.0627	-86.671249	0.000365	3.648913	1.236285	0.000146
1657	1.6477e+02	-14.0322	-86.529949	0.000355	3.547554	1.201944	0.000142
1658	1.6487e+02	-13.9809	-86.356352	0.000436	4.358423	1.476674	0.000174
1659	1.6497e+02	-13.9472	-86.162569	0.000487	4.865217	1.648380	0.000195
1660	1.6507e+02	-13.9055	-86.033381	0.000324	3.243478	1.098920	0.000130
1661	1.6517e+02	-13.8638	-85.843636	0.000476	4.763858	1.614039	0.000191
1662	1.6527e+02	-13.8333	-85.694262	0.000375	3.750271	1.270626	0.000150
1663	1.6537e+02	-13.7820	-85.496442	0.000497	4.966575	1.682721	0.000199
1664	1.6547e+02	-13.7403	-85.355142	0.000355	3.547554	1.201944	0.000142
1665	1.6557e+02	-13.7098	-85.209805	0.000365	3.648913	1.236285	0.000146
1666	1.6567e+02	-13.6649	-85.028134	0.000456	4.561141	1.545356	0.000183
1667	1.6577e+02	-13.6183	-84.898946	0.000324	3.243478	1.098920	0.000130
1668	1.6587e+02	-13.5862	-84.717275	0.000456	4.561141	1.545356	0.000183
1669	1.6597e+02	-13.5397	-84.531567	0.000466	4.662499	1.579698	0.000187
1670	1.6607e+02	-13.5060	-84.370081	0.000405	4.054347	1.373650	0.000162
1671	1.6616e+02	-13.4707	-84.192447	0.000446	4.459782	1.511015	0.000179
1672	1.6626e+02	-13.4338	-84.055185	0.000345	3.446195	1.167603	0.000138
1673	1.6636e+02	-13.3873	-83.865439	0.000476	4.763858	1.614039	0.000191
1674	1.6646e+02	-13.3408	-83.675694	0.000476	4.763858	1.614039	0.000191
1675	1.6656e+02	-13.2975	-83.538431	0.000345	3.446195	1.167603	0.000138
1676	1.6666e+02	-13.2670	-83.372909	0.000416	4.155706	1.407991	0.000166
1677	1.6676e+02	-13.2333	-83.187200	0.000466	4.662499	1.579698	0.000187
1678	1.6686e+02	-13.1788	-83.029752	0.000395	3.952989	1.339309	0.000158
1679	1.6696e+02	-13.1547	-82.831933	0.000497	4.966575	1.682721	0.000199
1680	1.6706e+02	-13.1098	-82.662373	0.000426	4.257065	1.442333	0.000170
1681	1.6716e+02	-13.0729	-82.500887	0.000405	4.054347	1.373650	0.000162
1682	1.6726e+02	-13.0264	-82.335365	0.000416	4.155706	1.407991	0.000166
1683	1.6736e+02	-12.9847	-82.161768	0.000436	4.358423	1.476674	0.000174
1684	1.6746e+02	-12.9510	-82.028542	0.000334	3.344836	1.133261	0.000134
1685	1.6756e+02	-12.9077	-81.838797	0.000476	4.763858	1.614039	0.000191
1686	1.6766e+02	-12.8756	-81.640977	0.000497	4.966575	1.682721	0.000199
1687	1.6776e+02	-12.8226	-81.499678	0.000355	3.547554	1.201944	0.000142
1688	1.6786e+02	-12.7938	-81.338192	0.000405	4.054347	1.373650	0.000162
1689	1.6796e+02	-12.7488	-81.156521	0.000456	4.561141	1.545356	0.000183
1690	1.6806e+02	-12.7151	-80.962739	0.000487	4.865217	1.648380	0.000195
1691	1.6816e+02	-12.6670	-80.785105	0.000446	4.459782	1.511015	0.000179
1692	1.6825e+02	-12.6221	-80.647842	0.000345	3.446195	1.167603	0.000138
1693	1.6835e+02	-12.5980	-80.450022	0.000497	4.966575	1.682721	0.000199
1694	1.6845e+02	-12.5419	-80.308723	0.000355	3.547554	1.201944	0.000142
1695	1.6855e+02	-12.5018	-80.159349	0.000375	3.750271	1.270626	0.000150
1696	1.6865e+02	-12.4793	-79.925195	0.000588	5.878804	1.991793	0.000235
1697	1.6875e+02	-12.4312	-79.787932	0.000345	3.446195	1.167603	0.000138
1698	1.6885e+02	-12.4023	-79.614335	0.000436	4.358423	1.476674	0.000174
1699	1.6895e+02	-12.3446	-79.440738	0.000436	4.358423	1.476674	0.000174
1700	1.6905e+02	-12.3077	-79.263105	0.000446	4.459782	1.511015	0.000179
1701	1.6915e+02	-12.2820	-79.065285	0.000497	4.966575	1.682721	0.000199
1702	1.6925e+02	-12.2339	-78.919948	0.000365	3.648913	1.236285	0.000146
1703	1.6935e+02	-12.1906	-78.734240	0.000466	4.662499	1.579698	0.000187
1704	1.6945e+02	-12.1585	-78.584866	0.000375	3.750271	1.270626	0.000150
1705	1.6955e+02	-12.1136	-78.370898	0.000537	5.372010	1.820086	0.000215
1706	1.6965e+02	-12.0799	-78.213449	0.000395	3.952989	1.339309	0.000158
1707	1.6975e+02	-12.0253	-78.043890	0.000426	4.257065	1.442333	0.000170
1708	1.6985e+02	-11.9852	-77.866256	0.000446	4.459782	1.511015	0.000179
1709	1.6995e+02	-11.9612	-77.700733	0.000416	4.155706	1.407991	0.000166
1710	1.7005e+02	-11.9082	-77.539248	0.000405	4.054347	1.373650	0.000162
1711	1.7015e+02	-11.8777	-77.361614	0.000446	4.459782	1.511015	0.000179
1712	1.7024e+02	-11.8360	-77.179942	0.000456	4.561141	1.545356	0.000183
1713	1.7034e+02	-11.7863	-77.018457	0.000405	4.054347	1.373650	0.000162
1714	1.7044e+02	-11.7446	-76.832749	0.000466	4.662499	1.579698	0.000187
1715	1.7054e+02	-11.7045	-76.622818	0.000527	5.270651	1.785745	0.000211
1716	1.7064e+02	-11.6708	-76.457295	0.000416	4.155706	1.407991	0.000166
1717	1.7074e+02	-11.6323	-76.315995	0.000355	3.547554	1.201944	0.000142
1718	1.7084e+02	-11.5874	-76.142399	0.000436	4.358423	1.476674	0.000174
1719	1.7094e+02	-11.5569	-75.879985	0.000659	6.588314	2.232181	0.000264
1720	1.7104e+02	-11.5184	-75.770982	0.000274	2.736684	0.927214	0.000110
1721	1.7114e+02	-11.4719	-75.528754	0.000608	6.081521	2.060475	0.000243
1722	1.7124e+02	-11.4366	-75.375343	0.000385	3.851630	1.304968	0.000154
1723	1.7134e+02	-11.3917	-75.258266	0.000294	2.939402	0.995896	0.000118
1724	1.7144e+02	-11.3516	-75.016038	0.000608	6.081521	2.060475	0.000243
1725	1.7154e+02	-11.3195	-74.862627	0.000385	3.851630	1.304968	0.000154
1726	1.7164e+02	-11.2810	-74.668844	0.000487	4.865217	1.648380	0.000195
1727	1.7174e+02	-11.2328	-74.487173	0.000456	4.561141	1.545356	0.000183
1728	1.7184e+02	-11.1911	-74.329725	0.000395	3.952989	1.339309	0.000158
1729	1.7194e+02	-11.1542	-74.160165	0.000426	4.257065	1.442333	0.000170
1730	1.7204e+02	-11.1093	-73.950234	0.000527	5.270651	1.785745	0.000211
1731	1.7213e+02	-11.0692	-73.804897	0.000365	3.648913	1.236285	0.000146
1732	1.7223e+02	-11.0403	-73.611114	0.000487	4.865217	1.648380	0.000195
1733	1.7233e+02	-10.9938	-73.429443	0.000456	4.561141	1.545356	0.000183
1734	1.7243e+02	-10.9537	-73.271995	0.000395	3.952989	1.339309	0.000158
1735	1.7253e+02	-10.9200	-73.074175	0.000497	4.966575	1.682721	0.000199
1736	1.7263e+02	-10.8751	-72.908653	0.000416	4.155706	1.407991	0.000166
1737	1.7273e+02	-10.8350	-72.698722	0.000527	5.270651	1.785745	0.000211
1738	1.7283e+02	-10.7933	-72.525125	0.000436	4.358423	1.476674	0.000174
1739	1.7293e+02	-10.7564	-72.347491	0.000446	4.459782	1.511015	0.000179
1740	1.7303e+02	-10.7227	-72.202154	0.000365	3.648913	1.236285	0.000146
1741	1.7313e+02	-10.6858	-71.996260	0.000517	5.169293	1.751404	0.000207
1742	1.7323e+02	-10.6425	-71.818626	0.000446	4.459782	1.511015	0.000179
1743	1.7333e+02	-10.5976	-71.616769	0.000507	5.067934	1.717063	0.000203
1744	1.7343e+02	-10.5639	-71.479507	0.000345	3.446195	1.167603	0.000138
1745	1.7353e+02	-10.5141	-71.277650	0.000507	5.067934	1.717063	0.000203
1746	1.7363e+02	-10.4837	-71.112127	0.000416	4.155706	1.407991	0.000166
1747	1.7373e+02	-10.4371	-70.877974	0.000588	5.878804	1.991793	0.000235
1748	1.7383e+02	-10.3938	-70.736674	0.000355	3.547554	1.201944	0.000142
1749	1.7393e+02	-10.3633	-70.591337	0.000365	3.648913	1.236285	0.000146
1750	1.7403e+02	-10.3216	-70.385443	0.000517	5.169293	1.751404	0.000207
1751	1.7413e+02	-10.2847	-70.244143	0.000355	3.547554	1.201944	0.000142
1752	1.7422e+02	-10.2430	-69.977692	0.000669	6.689673	2.266523	0.000268
1753	1.7432e+02	-10.1981	-69.824281	0.000385	3.851630	1.304968	0.000154
1754	1.7442e+02	-10.1548	-69.666833	0.000395	3.952989	1.339309	0.000158
1755	1.7452e+02	-10.1195	-69.460939	0.000517	5.169293	1.751404	0.000207
1756	1.7462e+02	-10.0794	-69.287342	0.000436	4.358423	1.476674	0.000174
1757	1.7472e+02	-10.0393	-69.093560	0.000487	4.865217	1.648380	0.000195
1758	1.7482e+02	-9.9992	-68.875554	0.000547	5.473369	1.854428	0.000219
1759	1.7492e+02	-9.9543	-68.714069	0.000405	4.054347	1.373650	0.000162
1760	1.7502e+02	-9.9142	-68.524323	0.000476	4.763858	1.614039	0.000191
1761	1.7512e+02	-9.8901	-68.362838	0.000405	4.054347	1.373650	0.000162
1762	1.7522e+02	-9.8404	-68.205390	0.000395	3.952989	1.339309	0.000158
1763	1.7532e+02	-9.8003	-68.023719	0.000456	4.561141	1.545356	0.000183
1764	1.7542e+02	-9.7666	-67.846085	0.000446	4.459782	1.511015	0.000179
1765	1.7552e+02	-9.7249	-67.640191	0.000517	5.169293	1.751404	0.000207
1766	1.7562e+02	-9.6671	-67.434297	0.000517	5.169293	1.751404	0.000207
1767	1.7572e+02	-9.6430	-67.272811	0.000405	4.054347	1.373650	0.000162
1768	1.7582e+02	-9.5949	-67.070955	0.000507	5.067934	1.717063	0.000203
1769	1.7592e+02	-9.5596	-66.953878	0.000294	2.939402	0.995896	0.000118
1770	1.7602e+02	-9.5211	-66.691464	0.000659	6.588314	2.232181	0.000264
1771	1.7612e+02	-9.4778	-66.554201	0.000345	3.446195	1.167603	0.000138
1772	1.7621e+02	-9.4393	-66.356382	0.000497	4.966575	1.682721	0.000199
1773	1.7631e+02	-9.3976	-66.182785	0.000436	4.358423	1.476674	0.000174
1774	1.7641e+02	-9.3575	-65.993039	0.000476	4.763858	1.614039	0.000191
1775	1.7651e+02	-9.3238	-65.815405	0.000446	4.459782	1.511015	0.000179
1776	1.7661e+02	-9.2821	-65.613549	0.000507	5.067934	1.717063	0.000203
1777	1.7671e+02	-9.2372	-65.452063	0.000405	4.054347	1.373650	0.000162
1778	1.7681e+02	-9.2019	-65.238095	0.000537	5.372010	1.820086	0.000215
1779	1.7691e+02	-9.1666	-65.028164	0.000527	5.270651	1.785745	0.000211
1780	1.7701e+02	-9.1313	-64.894938	0.000334	3.344836	1.133261	0.000134
1781	1.7711e+02	-9.0912	-64.644636	0.000628	6.284238	2.129158	0.000252
1782	1.7721e+02	-9.0479	-64.511411	0.000334	3.344836	1.133261	0.000134
1783	1.7731e+02	-9.0046	-64.277257	0.000588	5.878804	1.991793	0.000235
1784	1.7741e+02	-8.9564	-64.095586	0.000456	4.561141	1.545356	0.000183
1785	1.7751e+02	-8.9292	-63.913914	0.000456	4.561141	1.545356	0.000183
1786	1.7761e+02	-8.8923	-63.724169	0.000476	4.763858	1.614039	0.000191
1787	1.7771e+02	-8.8441	-63.554609	0.000426	4.257065	1.442333	0.000170
1788	1.7781e+02	-8.8056	-63.320455	0.000588	5.878804	1.991793	0.000235
1789	1.7791e+02	-8.7639	-63.167044	0.000385	3.851630	1.304968	0.000154
1790	1.7801e+02	-8.7238	-62.969225	0.000497	4.966575	1.682721	0.000199
1791	1.7810e+02	-8.6821	-62.771405	0.000497	4.966575	1.682721	0.000199
1792	1.7820e+02	-8.6436	-62.613957	0.000395	3.952989	1.339309	0.000158
1793	1.7830e+02	-8.6099	-62.387877	0.000568	5.676086	1.923110	0.000227
1794	1.7840e+02	-8.5682	-62.206206	0.000456	4.561141	1.545356	0.000183
1795	1.7850e+02	-8.5169	-61.992238	0.000537	5.372010	1.820086	0.000215
1796	1.7860e+02	-8.4880	-61.802492	0.000476	4.763858	1.614039	0.000191
1797	1.7870e+02	-8.4431	-61.628896	0.000436	4.358423	1.476674	0.000174
1798	1.7880e+02	-8.4078	-61.402816	0.000568	5.676086	1.923110	0.000227
1799	1.7890e+02	-8.3741	-61.253442	0.000375	3.750271	1.270626	0.000150
1800	1.7900e+02	-8.3228	-61.075808	0.000446	4.459782	1.511015	0.000179
1801	1.7910e+02	-8.2891	-60.886063	0.000476	4.763858	1.614039	0.000191
1802	1.7920e+02	-8.2442	-60.708429	0.000446	4.459782	1.511015	0.000179
1803	1.7930e+02	-8.2073	-60.534832	0.000436	4.358423	1.476674	0.000174
1804	1.7940e+02	-8.1671	-60.312789	0.000557	5.574727	1.888769	0.000223
1805	1.7950e+02	-8.1254	-60.094784	0.000547	5.473369	1.854428	0.000219
1806	1.7960e+02	-8.0821	-59.921187	0.000436	4.358423	1.476674	0.000174
1807	1.7970e+02	-8.0436	-59.715293	0.000517	5.169293	1.751404	0.000207
1808	1.7980e+02	-8.0035	-59.497288	0.000547	5.473369	1.854428	0.000219
1809	1.7990e+02	-7.9650	-59.339840	0.000395	3.952989	1.339309	0.000158
1810	1.8000e+02	-7.9233	-59.150094	0.000476	4.763858	1.614039	0.000191
1811	1.8009e+02	-7.8880	-58.944200	0.000517	5.169293	1.751404	0.000207
1812	1.8019e+02	-7.8543	-58.758492	0.000466	4.662499	1.579698	0.000187
1813	1.8029e+02	-7.8110	-58.548561	0.000527	5.270651	1.785745	0.000211
1814	1.8039e+02	-7.7709	-58.391113	0.000395	3.952989	1.339309	0.000158
1815	1.8049e+02	-7.7260	-58.152922	0.000598	5.980162	2.026134	0.000239
1816	1.8059e+02	-7.6923	-57.979325	0.000436	4.358423	1.476674	0.000174
1817	1.8069e+02	-7.6506	-57.797654	0.000456	4.561141	1.545356	0.000183
1818	1.8079e+02	-7.6089	-57.599834	0.000497	4.966575	1.682721	0.000199
1819	1.8089e+02	-7.5640	-57.393940	0.000517	5.169293	1.751404	0.000207
1820	1.8099e+02	-7.5351	-57.151712	0.000608	6.081521	2.060475	0.000243
1821	1.8109e+02	-7.4854	-56.978115	0.000436	4.358423	1.476674	0.000174
1822	1.8119e+02	-7.4388	-56.784333	0.000487	4.865217	1.648380	0.000195
1823	1.8129e+02	-7.4116	-56.606699	0.000446	4.459782	1.511015	0.000179
1824	1.8139e+02	-7.3634	-56.364471	0.000608	6.081521	2.060475	0.000243
1825	1.8149e+02	-7.3249	-56.215097	0.000375	3.750271	1.270626	0.000150
1826	1.8159e+02	-7.2880	-55.956720	0.000649	6.486956	2.197840	0.000260
1827	1.8169e+02	-7.2495	-55.819457	0.000345	3.446195	1.167603	0.000138
1828	1.8179e+02	-7.2014	-55.540895	0.000699	6.993749	2.369546	0.000280
1829	1.8189e+02	-7.1693	-55.383447	0.000395	3.952989	1.339309	0.000158
1830	1.8199e+02	-7.1244	-55.177553	0.000517	5.169293	1.751404	0.000207
1831	1.8209e+02	-7.0843	-54.939362	0.000598	5.980162	2.026134	0.000239
1832	1.8218e+02	-7.0490	-54.753653	0.000466	4.662499	1.579698	0.000187
1833	1.8228e+02	-7.0153	-54.612354	0.000355	3.547554	1.201944	0.000142
1834	1.8238e+02	-6.9704	-54.333791	0.000699	6.993749	2.369546	0.000280
1835	1.8248e+02	-6.9303	-54.164232	0.000426	4.257065	1.442333	0.000170
1836	1.8258e+02	-6.8902	-53.970449	0.000487	4.865217	1.648380	0.000195
1837	1.8268e+02	-6.8581	-53.760518	0.000527	5.270651	1.785745	0.000211
1838	1.8278e+02	-6.8180	-53.530401	0.000578	5.777445	1.957451	0.000231
1839	1.8288e+02	-6.7779	-53.344693	0.000466	4.662499	1.579698	0.000187
1840	1.8298e+02	-6.7217	-53.146873	0.000497	4.966575	1.682721	0.000199
1841	1.8308e+02	-6.6880	-52.977314	0.000426	4.257065	1.442333	0.000170
1842	1.8318e+02	-6.6624	-52.718937	0.000649	6.486956	2.197840	0.000260
1843	1.8328e+02	-6.6110	-52.541303	0.000446	4.459782	1.511015	0.000179
1844	1.8338e+02	-6.5709	-52.343483	0.000497	4.966575	1.682721	0.000199
1845	1.8348e+02	-6.5244	-52.133552	0.000527	5.270651	1.785745	0.000211
1846	1.8358e+02	-6.4891	-51.907473	0.000568	5.676086	1.923110	0.000227
1847	1.8368e+02	-6.4554	-51.721765	0.000466	4.662499	1.579698	0.000187
1848	1.8378e+02	-6.4185	-51.548168	0.000436	4.358423	1.476674	0.000174
1849	1.8388e+02	-6.3736	-51.334199	0.000537	5.372010	1.820086	0.000215
1850	1.8398e+02	-6.3335	-51.144454	0.000476	4.763858	1.614039	0.000191
1851	1.8407e+02	-6.2934	-50.922412	0.000557	5.574727	1.888769	0.000223
1852	1.8417e+02	-6.2581	-50.659998	0.000659	6.588314	2.232181	0.000264
1853	1.8427e+02	-6.2196	-50.470252	0.000476	4.763858	1.614039	0.000191
1854	1.8437e+02	-6.1667	-50.304730	0.000416	4.155706	1.407991	0.000166
1855	1.8447e+02	-6.1314	-50.050390	0.000639	6.385597	2.163499	0.000256
1856	1.8457e+02	-6.1057	-49.880831	0.000426	4.257065	1.442333	0.000170
1857	1.8467e+02	-6.0640	-49.678974	0.000507	5.067934	1.717063	0.000203
1858	1.8477e+02	-6.0111	-49.424634	0.000639	6.385597	2.163499	0.000256
1859	1.8487e+02	-5.9710	-49.230852	0.000487	4.865217	1.648380	0.000195
1860	1.8497e+02	-5.9389	-49.028995	0.000507	5.067934	1.717063	0.000203
1861	1.8507e+02	-5.9036	-48.806953	0.000557	5.574727	1.888769	0.000223
1862	1.8517e+02	-5.8587	-48.572799	0.000588	5.878804	1.991793	0.000235
1863	1.8527e+02	-5.8218	-48.427462	0.000365	3.648913	1.236285	0.000146
1864	1.8537e+02	-5.7817	-48.213494	0.000537	5.372010	1.820086	0.000215
1865	1.8547e+02	-5.7399	-47.991451	0.000557	5.574727	1.888769	0.000223
1866	1.8557e+02	-5.6966	-47.769409	0.000557	5.574727	1.888769	0.000223
1867	1.8567e+02	-5.6533	-47.567552	0.000507	5.067934	1.717063	0.000203
1868	1.8577e+02	-5.6180	-47.361658	0.000517	5.169293	1.751404	0.000207
1869	1.8587e+02	-5.5827	-47.127504	0.000588	5.878804	1.991793	0.000235
1870	1.8597e+02	-5.5442	-46.925647	0.000507	5.067934	1.717063	0.000203
1871	1.8606e+02	-5.5057	-46.743976	0.000456	4.561141	1.545356	0.000183
1872	1.8616e+02	-5.4544	-46.525971	0.000547	5.473369	1.854428	0.000219
1873	1.8626e+02	-5.4239	-46.303928	0.000557	5.574727	1.888769	0.000223
1874	1.8636e+02	-5.3886	-46.110146	0.000487	4.865217	1.648380	0.000195
1875	1.8646e+02	-5.3373	-45.896178	0.000537	5.372010	1.820086	0.000215
1876	1.8656e+02	-5.2988	-45.666061	0.000578	5.777445	1.957451	0.000231
1877	1.8666e+02	-5.2635	-45.488427	0.000446	4.459782	1.511015	0.000179
1878	1.8676e+02	-5.2234	-45.250236	0.000598	5.980162	2.026134	0.000239
1879	1.8686e+02	-5.1785	-45.056453	0.000487	4.865217	1.648380	0.000195
1880	1.8696e+02	-5.1400	-44.846522	0.000527	5.270651	1.785745	0.000211
1881	1.8706e+02	-5.1031	-44.632554	0.000537	5.372010	1.820086	0.000215
1882	1.8716e+02	-5.0710	-44.410512	0.000557	5.574727	1.888769	0.000223
1883	1.8726e+02	-5.0229	-44.172321	0.000598	5.980162	2.026134	0.000239
1884	1.8736e+02	-4.9763	-43.970464	0.000507	5.067934	1.717063	0.000203
1885	1.8746e+02	-4.9362	-43.780719	0.000476	4.763858	1.614039	0.000191
1886	1.8756e+02	-4.9009	-43.574825	0.000517	5.169293	1.751404	0.000207
1887	1.8766e+02	-4.8656	-43.324522	0.000628	6.284238	2.129158	0.000252
1888	1.8776e+02	-4.8271	-43.122665	0.000507	5.067934	1.717063	0.000203
1889	1.8786e+02	-4.7854	-42.884474	0.000598	5.980162	2.026134	0.000239
1890	1.8796e+02	-4.7469	-42.694729	0.000476	4.763858	1.614039	0.000191
1891	1.8806e+02	-4.6988	-42.448464	0.000618	6.182880	2.094816	0.000248
1892	1.8815e+02	-4.6571	-42.258718	0.000476	4.763858	1.614039	0.000191
1893	1.8825e+02	-4.6202	-42.060899	0.000497	4.966575	1.682721	0.000199
1894	1.8835e+02	-4.5817	-41.830782	0.000578	5.777445	1.957451	0.000231
1895	1.8845e+02	-4.5432	-41.588554	0.000608	6.081521	2.060475	0.000243
1896	1.8855e+02	-4.5031	-41.386697	0.000507	5.067934	1.717063	0.000203
1897	1.8865e+02	-4.4566	-41.209063	0.000446	4.459782	1.511015	0.000179
1898	1.8875e+02	-4.4325	-40.970872	0.000598	5.980162	2.026134	0.000239
1899	1.8885e+02	-4.3812	-40.736718	0.000588	5.878804	1.991793	0.000235
1900	1.8895e+02	-4.3459	-40.555047	0.000456	4.561141	1.545356	0.000183
1901	1.8905e+02	-4.3042	-40.304745	0.000628	6.284238	2.129158	0.000252
1902	1.8915e+02	-4.2576	-40.046368	0.000649	6.486956	2.197840	0.000260
1903	1.8925e+02	-4.2239	-39.860660	0.000466	4.662499	1.579698	0.000187
1904	1.8935e+02	-4.1854	-39.662840	0.000497	4.966575	1.682721	0.000199
1905	1.8945e+02	-4.1373	-39.465020	0.000497	4.966575	1.682721	0.000199
1906	1.8955e+02	-4.1004	-39.303535	0.000405	4.054347	1.373650	0.000162
1907	1.8965e+02	-4.0619	-39.041121	0.000659	6.588314	2.232181	0.000264
1908	1.8975e+02	-4.0314	-38.802930	0.000598	5.980162	2.026134	0.000239
1909	1.8985e+02	-3.9817	-38.605110	0.000497	4.966575	1.682721	0.000199
1910	1.8995e+02	-3.9528	-38.370957	0.000588	5.878804	1.991793	0.000235
1911	1.9004e+02	-3.9063	-38.140840	0.000578	5.777445	1.957451	0.000231
1912	1.9014e+02	-3.8694	-37.918797	0.000557	5.574727	1.888769	0.000223
1913	1.9024e+02	-3.8293	-37.773461	0.000365	3.648913	1.236285	0.000146
1914	1.9034e+02	-3.7812	-37.482787	0.000730	7.297825	2.472570	0.000292
1915	1.9044e+02	-3.7379	-37.309190	0.000436	4.358423	1.476674	0.000174
1916	1.9054e+02	-3.7026	-37.075036	0.000588	5.878804	1.991793	0.000235
1917	1.9064e+02	-3.6657	-36.848956	0.000568	5.676086	1.923110	0.000227
1918	1.9074e+02	-3.6352	-36.622877	0.000568	5.676086	1.923110	0.000227
1919	1.9084e+02	-3.5839	-36.396797	0.000568	5.676086	1.923110	0.000227
1920	1.9094e+02	-3.5502	-36.215126	0.000456	4.561141	1.545356	0.000183
1921	1.9104e+02	-3.5052	-35.985009	0.000578	5.777445	1.957451	0.000231
1922	1.9114e+02	-3.4635	-35.791227	0.000487	4.865217	1.648380	0.000195
1923	1.9124e+02	-3.4331	-35.540924	0.000628	6.284238	2.129158	0.000252
1924	1.9134e+02	-3.3833	-35.310808	0.000578	5.777445	1.957451	0.000231
1925	1.9144e+02	-3.3577	-35.096840	0.000537	5.372010	1.820086	0.000215
1926	1.9154e+02	-3.3015	-34.927280	0.000426	4.257065	1.442333	0.000170
1927	1.9164e+02	-3.2630	-34.648717	0.000699	6.993749	2.369546	0.000280
1928	1.9174e+02	-3.2277	-34.430712	0.000547	5.473369	1.854428	0.000219
1929	1.9184e+02	-3.1940	-34.240967	0.000476	4.763858	1.614039	0.000191
1930	1.9194e+02	-3.1459	-33.994701	0.000618	6.182880	2.094816	0.000248
1931	1.9203e+02	-3.1138	-33.804956	0.000476	4.763858	1.614039	0.000191
1932	1.9213e+02	-3.0641	-33.574839	0.000578	5.777445	1.957451	0.000231
1933	1.9223e+02	-3.0288	-33.344723	0.000578	5.777445	1.957451	0.000231
1934	1.9233e+02	-2.9919	-33.130754	0.000537	5.372010	1.820086	0.000215
1935	1.9243e+02	-2.9518	-32.904675	0.000568	5.676086	1.923110	0.000227
1936	1.9253e+02	-2.9133	-32.710892	0.000487	4.865217	1.648380	0.000195
1937	1.9263e+02	-2.8587	-32.472701	0.000598	5.980162	2.026134	0.000239
1938	1.9273e+02	-2.8251	-32.266807	0.000517	5.169293	1.751404	0.000207
1939	1.9283e+02	-2.7833	-32.020542	0.000618	6.182880	2.094816	0.000248
1940	1.9293e+02	-2.7497	-31.810611	0.000527	5.270651	1.785745	0.000211
1941	1.9303e+02	-2.7112	-31.612791	0.000497	4.966575	1.682721	0.000199
1942	1.9313e+02	-2.6710	-31.394786	0.000547	5.473369	1.854428	0.000219
1943	1.9323e+02	-2.6197	-31.152558	0.000608	6.081521	2.060475	0.000243
1944	1.9333e+02	-2.5940	-30.930515	0.000557	5.574727	1.888769	0.000223
1945	1.9343e+02	-2.5539	-30.708473	0.000557	5.574727	1.888769	0.000223
1946	1.9353e+02	-2.5106	-30.510653	0.000497	4.966575	1.682721	0.000199
1947	1.9363e+02	-2.4673	-30.276499	0.000588	5.878804	1.991793	0.000235
1948	1.9373e+02	-2.4288	-30.030234	0.000618	6.182880	2.094816	0.000248
1949	1.9383e+02	-2.3951	-29.796080	0.000588	5.878804	1.991793	0.000235
1950	1.9393e+02	-2.3550	-29.557889	0.000598	5.980162	2.026134	0.000239
1951	1.9403e+02	-2.3053	-29.360070	0.000497	4.966575	1.682721	0.000199
1952	1.9412e+02	-2.2828	-29.138027	0.000557	5.574727	1.888769	0.000223
1953	1.9422e+02	-2.2315	-28.907910	0.000578	5.777445	1.957451	0.000231
1954	1.9432e+02	-2.1834	-28.693942	0.000537	5.372010	1.820086	0.000215
1955	1.9442e+02	-2.1497	-28.459788	0.000588	5.878804	1.991793	0.000235
1956	1.9452e+02	-2.1096	-28.229672	0.000578	5.777445	1.957451	0.000231
1957	1.9462e+02	-2.0711	-27.995518	0.000588	5.878804	1.991793	0.000235
1958	1.9472e+02	-2.0374	-27.805772	0.000476	4.763858	1.614039	0.000191
1959	1.9482e+02	-1.9860	-27.559507	0.000618	6.182880	2.094816	0.000248
1960	1.9492e+02	-1.9524	-27.345539	0.000537	5.372010	1.820086	0.000215
1961	1.9502e+02	-1.9122	-27.107348	0.000598	5.980162	2.026134	0.000239
1962	1.9512e+02	-1.8737	-26.897417	0.000527	5.270651	1.785745	0.000211
1963	1.9522e+02	-1.8336	-26.675374	0.000557	5.574727	1.888769	0.000223
1964	1.9532e+02	-1.7951	-26.421035	0.000639	6.385597	2.163499	0.000256
1965	1.9542e+02	-1.7550	-26.227252	0.000487	4.865217	1.648380	0.000195
1966	1.9552e+02	-1.7101	-25.964838	0.000659	6.588314	2.232181	0.000264
1967	1.9562e+02	-1.6748	-25.726647	0.000598	5.980162	2.026134	0.000239
1968	1.9572e+02	-1.6379	-25.532865	0.000487	4.865217	1.648380	0.000195
1969	1.9582e+02	-1.5978	-25.302748	0.000578	5.777445	1.957451	0.000231
1970	1.9592e+02	-1.5609	-25.076669	0.000568	5.676086	1.923110	0.000227
1971	1.9601e+02	-1.5080	-24.858663	0.000547	5.473369	1.854428	0.000219
1972	1.9611e+02	-1.4759	-24.600287	0.000649	6.486956	2.197840	0.000260
1973	1.9621e+02	-1.4358	-24.406504	0.000487	4.865217	1.648380	0.000195
1974	1.9631e+02	-1.3989	-24.196573	0.000527	5.270651	1.785745	0.000211
1975	1.9641e+02	-1.3588	-23.938196	0.000649	6.486956	2.197840	0.000260
1976	1.9651e+02	-1.3251	-23.712117	0.000568	5.676086	1.923110	0.000227
1977	1.9661e+02	-1.2770	-23.498149	0.000537	5.372010	1.820086	0.000215
1978	1.9671e+02	-1.2337	-23.251883	0.000618	6.182880	2.094816	0.000248
1979	1.9681e+02	-1.2000	-23.029841	0.000557	5.574727	1.888769	0.000223
1980	1.9691e+02	-1.1518	-22.783576	0.000618	6.182880	2.094816	0.000248
1981	1.9701e+02	-1.1165	-22.593830	0.000476	4.763858	1.614039	0.000191
1982	1.9711e+02	-1.0764	-22.303156	0.000730	7.297825	2.472570	0.000292
1983	1.9721e+02	-1.0444	-22.125522	0.000446	4.459782	1.511015	0.000179
1984	1.9731e+02	-0.9946	-21.871183	0.000639	6.385597	2.163499	0.000256
1985	1.9741e+02	-0.9577	-21.685475	0.000466	4.662499	1.579698	0.000187
1986	1.9751e+02	-0.9160	-21.447284	0.000598	5.980162	2.026134	0.000239
1987	1.9761e+02	-0.8759	-21.209093	0.000598	5.980162	2.026134	0.000239
1988	1.9771e+02	-0.8374	-20.950716	0.000649	6.486956	2.197840	0.000260
1989	1.9781e+02	-0.7957	-20.756933	0.000487	4.865217	1.648380	0.000195
1990	1.9791e+02	-0.7508	-20.482408	0.000689	6.892390	2.335205	0.000276
1991	1.9800e+02	-0.7219	-20.272477	0.000527	5.270651	1.785745	0.000211
1992	1.9810e+02	-0.6690	-20.018138	0.000639	6.385597	2.163499	0.000256
1993	1.9820e+02	-0.6433	-19.771872	0.000618	6.182880	2.094816	0.000248
1994	1.9830e+02	-0.5936	-19.606350	0.000416	4.155706	1.407991	0.000166
1995	1.9840e+02	-0.5615	-19.295490	0.000780	7.804618	2.644276	0.000312
1996	1.9850e+02	-0.5246	-19.089596	0.000517	5.169293	1.751404	0.000207
1997	1.9860e+02	-0.4716	-18.855442	0.000588	5.878804	1.991793	0.000235
1998	1.9870e+02	-0.4380	-18.609177	0.000618	6.182880	2.094816	0.000248
1999	1.9880e+02	-0.4091	-18.383098	0.000568	5.676086	1.923110	0.000227
2000	1.9890e+02	-0.3577	-18.136832	0.000618	6.182880	2.094816	0.000248
2001	1.9900e+02	-0.3225	-17.934976	0.000507	5.067934	1.717063	0.000203
2002	1.9910e+02	-0.2872	-17.676599	0.000649	6.486956	2.197840	0.000260
2003	1.9920e+02	-0.2358	-17.418222	0.000649	6.486956	2.197840	0.000260
2004	1.9930e+02	-0.1957	-17.188105	0.000578	5.777445	1.957451	0.000231
2005	1.9940e+02	-0.1556	-16.974137	0.000537	5.372010	1.820086	0.000215
2006	1.9950e+02	-0.1091	-16.776318	0.000497	4.966575	1.682721	0.000199
2007	1.9960e+02	-0.0802	-16.481607	0.000740	7.399184	2.506911	0.000296
2008	1.9970e+02	-0.0337	-16.275713	0.000517	5.169293	1.751404	0.000207
2009	1.9980e+02	-0.0112	-16.041559	0.000517	5.169293	1.751404	0.000235

PMax (uC/cm2):	1.14e+02
Pr (uC/cm2):	9.48e+00
-Pr (uC/cm2):	-7.81e+00
PLoss (uC/cm2):	-7.82e+00
-Vc:	-1.63e+00
C (Max-Eff) (nF):	5.69e-01
K (Eff):	1.93e+03
Vert. (+/-Pr) Shift (uC/cm2):	8.34e-01
Offset (uC/cm2):	8.23e+00

A (Loop Area - uC/cm2·Volts):	3.76e-02



Hysteresis Version: 5.48.1 - Radiant Technologies, Inc., 1999 - 9/12/24

