»»»»»»»»»»»»»»»»»»»»»»»»»»»»»»»»»»»» Hysteresis ««««««««««««««««««««««««««««««««««««
»»»  Executed Version:	5.48.1
»»»  Vision Version:	5.48.4 (R)
»»»  Vision Compiled:	9/18/24
»»»  Driver Version:	5.47.0
»»»  Windows Version:	Windows 8 or 8.1
»»»  Processor Information:	x86 (AMD or Intel) - 32 Processors
»»»  Tester Name:	PMF21124-494 (100V)
»»»  Tester S/N:	PMF21124-494
»»»  Internal Amp Type:	100V RevK 270k
»»»  Internal Amp S/N:	iAB2-596/K     
»»»  Execution Count:	1
»»»»»»»»»»»»»»»»»»»»»»»»»»»»»»»»»»»»»»»»»»««««««««««««««««««««««««««««««««««««««««««

Stored:	6/18/2025 - 13:40:34
Configured:	06/18/25 09:47:30 AM
Executed:	06/18/25 01:40:04 PM

»»»»»»»»»»»»»»»»»»»»»»»»»»»»»»»»»»» Sample Info ««««««««««««««««««««««««««««««««««««
Sample Name:	
Lot Name:	
Wafer Name:	
Die Row/Column:	0/0
Capacitor Number:	0
Sample Area (cm2):	1.00e-04
Sample Thickness (microns):	3.00e-01

Amplifier:	Internal

»»»»»»»»»»»»»»»»»»»»»»»»»»»»»»»»»»» Tester Info «««««««««««««««««««««««««««««««««««
Tester Name:	PMF21124-494 (100V)
Tester Serial Number:	PMF21124-494
Return Signal Amp. Level:	0.19 [Index: 3]

»»»»»»»»»»»»»»»»»»»»»»»»»»»»»»»» Hysteresis Info ««««««««««««««««««««««««««««««««««
Task Name:	Hyst-554
Volts:	20.00
Field:	666.67 (kV/cm)
DCBias:	0.00
DCField:	0.00 (kV/cm)
Hysteresis Period (ms):	1.00e+00
Preset:	Enabled
Preset Delay (ms):	1.00e+03
Profile:	Standard Bipolar

»»»»»»»»»»»»»»»»»»»»»»»»»»»»»»»»»»»»»» Data «««««««««««««««««««««««««««««««««««««««
Points:	2001

Valid Data

Point	Time (ms)	Drive Voltage	Measured Polarization (uC/cm2)	Capacitance (uF)	Normalized Capacitance (uF/cm2)	Dielectric Constant	Instantaneous Current (mA)
   1	0.0000e+00	0.0128	-6.384395	0.000283	2.829528	0.958670	0.022585
   2	5.0000e-04	0.0305	-6.271468	0.000283	2.829528	0.958670	0.022585
   3	1.0000e-03	0.0497	-6.202906	0.000172	1.717928	0.582050	0.013713
   4	1.5000e-03	0.0979	-6.146442	0.000141	1.414764	0.479335	0.011293
   5	2.0000e-03	0.1348	-5.936721	0.000525	5.254838	1.780387	0.041944
   6	2.5000e-03	0.1684	-5.666504	0.000677	6.770657	2.293961	0.054044
   7	3.0000e-03	0.2118	-5.472915	0.000485	4.850620	1.643434	0.038718
   8	3.5000e-03	0.2519	-5.359988	0.000283	2.829528	0.958670	0.022585
   9	4.0000e-03	0.2936	-5.113969	0.000616	6.164329	2.088531	0.049204
  10	4.5000e-03	0.3257	-4.956678	0.000394	3.941128	1.335290	0.031458
  11	5.0000e-03	0.3722	-4.779222	0.000445	4.446401	1.506482	0.035491
  12	5.5000e-03	0.4059	-4.581600	0.000495	4.951674	1.677673	0.039524
  13	6.0000e-03	0.4556	-4.311382	0.000677	6.770657	2.293961	0.054044
  14	6.5000e-03	0.4941	-4.117794	0.000485	4.850620	1.643434	0.038718
  15	7.0000e-03	0.5326	-3.883874	0.000586	5.861165	1.985817	0.046784
  16	7.5000e-03	0.5727	-3.774980	0.000273	2.728474	0.924432	0.021779
  17	8.0000e-03	0.6096	-3.492663	0.000707	7.073820	2.396675	0.056463
  18	8.5000e-03	0.6417	-3.214380	0.000697	6.972766	2.362437	0.055657
  19	9.0000e-03	0.6914	-3.161949	0.000131	1.313709	0.445097	0.010486
  20	9.5000e-03	0.7299	-2.956261	0.000515	5.153783	1.746149	0.041138
  21	1.0000e-02	0.7700	-2.734441	0.000556	5.558002	1.883102	0.044364
  22	1.0500e-02	0.8085	-2.508587	0.000566	5.659056	1.917340	0.045171
  23	1.1000e-02	0.8535	-2.351296	0.000394	3.941128	1.335290	0.031458
  24	1.1500e-02	0.8903	-2.181906	0.000424	4.244292	1.438005	0.033878
  25	1.2000e-02	0.9305	-1.992351	0.000475	4.749565	1.609196	0.037911
  26	1.2500e-02	0.9690	-1.722133	0.000677	6.770657	2.293961	0.054044
  27	1.3000e-02	1.0107	-1.524511	0.000495	4.951674	1.677673	0.039524
  28	1.3500e-02	1.0572	-1.282525	0.000606	6.063275	2.054293	0.048397
  29	1.4000e-02	1.0893	-1.137334	0.000364	3.637965	1.232576	0.029038
  30	1.4500e-02	1.1278	-0.935679	0.000505	5.052729	1.711911	0.040331
  31	1.5000e-02	1.1679	-0.717892	0.000546	5.456947	1.848864	0.043557
  32	1.5500e-02	1.2128	-0.463806	0.000637	6.366438	2.157008	0.050817
  33	1.6000e-02	1.2497	-0.387177	0.000192	1.920037	0.650526	0.015326
  34	1.6500e-02	1.2946	-0.217787	0.000424	4.244292	1.438005	0.033878
  35	1.7000e-02	1.3267	0.100827	0.000798	7.983312	2.704819	0.063723
  36	1.7500e-02	1.3668	0.354913	0.000637	6.366438	2.157008	0.050817
  37	1.8000e-02	1.4053	0.536402	0.000455	4.547456	1.540720	0.036298
  38	1.8500e-02	1.4566	0.709825	0.000435	4.345347	1.472243	0.034685
  39	1.9000e-02	1.4919	0.750156	0.000101	1.010546	0.342382	0.008066
  40	1.9500e-02	1.5224	1.052639	0.000758	7.579093	2.567866	0.060496
  41	2.0000e-02	1.5657	1.310757	0.000647	6.467493	2.191246	0.051624
  42	2.0500e-02	1.6026	1.512412	0.000505	5.052729	1.711911	0.040331
  43	2.1000e-02	1.6572	1.746332	0.000586	5.861165	1.985817	0.046784
  44	2.1500e-02	1.6941	1.875391	0.000323	3.233746	1.095623	0.025812
  45	2.2000e-02	1.7326	2.077046	0.000505	5.052729	1.711911	0.040331
  46	2.2500e-02	1.7727	2.290800	0.000536	5.355893	1.814626	0.042751
  47	2.3000e-02	1.8128	2.597315	0.000768	7.680148	2.602105	0.061303
  48	2.3500e-02	1.8497	2.758639	0.000404	4.042183	1.369529	0.032265
  49	2.4000e-02	1.8930	2.911897	0.000384	3.840074	1.301052	0.030652
  50	2.4500e-02	1.9283	3.069188	0.000394	3.941128	1.335290	0.031458
  51	2.5000e-02	1.9636	3.323273	0.000637	6.366438	2.157008	0.050817
  52	2.5500e-02	2.0053	3.589458	0.000667	6.669602	2.259722	0.053237
  53	2.6000e-02	2.0502	3.779013	0.000475	4.749565	1.609196	0.037911
  54	2.6500e-02	2.0871	3.924205	0.000364	3.637965	1.232576	0.029038
  55	2.7000e-02	2.1272	4.178290	0.000637	6.366438	2.157008	0.050817
  56	2.7500e-02	2.1673	4.262985	0.000212	2.122146	0.719003	0.016939
  57	2.8000e-02	2.2154	4.561435	0.000748	7.478039	2.533628	0.059690
  58	2.8500e-02	2.2427	4.811487	0.000627	6.265384	2.122769	0.050010
  59	2.9000e-02	2.2860	5.025241	0.000536	5.355893	1.814626	0.042751
  60	2.9500e-02	2.3261	5.271260	0.000616	6.164329	2.088531	0.049204
  61	3.0000e-02	2.3630	5.472915	0.000505	5.052729	1.711911	0.040331
  62	3.0500e-02	2.4112	5.634239	0.000404	4.042183	1.369529	0.032265
  63	3.1000e-02	2.4497	5.856059	0.000556	5.558002	1.883102	0.044364
  64	3.1500e-02	2.4930	6.114177	0.000647	6.467493	2.191246	0.051624
  65	3.2000e-02	2.5267	6.259369	0.000364	3.637965	1.232576	0.029038
  66	3.2500e-02	2.5764	6.448925	0.000475	4.749565	1.609196	0.037911
  67	3.3000e-02	2.6117	6.525554	0.000192	1.920037	0.650526	0.015326
  68	3.3500e-02	2.6502	6.880466	0.000889	8.892803	3.012963	0.070983
  69	3.4000e-02	2.6887	7.037757	0.000394	3.941128	1.335290	0.031458
  70	3.4500e-02	2.7352	7.275710	0.000596	5.962220	2.020055	0.047591
  71	3.5000e-02	2.7801	7.481398	0.000515	5.153783	1.746149	0.041138
  72	3.5500e-02	2.8042	7.719351	0.000596	5.962220	2.020055	0.047591
  73	3.6000e-02	2.8443	7.941171	0.000556	5.558002	1.883102	0.044364
  74	3.6500e-02	2.8924	8.118627	0.000445	4.446401	1.506482	0.035491
  75	3.7000e-02	2.9357	8.340448	0.000556	5.558002	1.883102	0.044364
  76	3.7500e-02	2.9678	8.493706	0.000384	3.840074	1.301052	0.030652
  77	3.8000e-02	3.0111	8.784089	0.000728	7.275930	2.465152	0.058077
  78	3.8500e-02	3.0464	8.921214	0.000344	3.435856	1.164099	0.027425
  79	3.9000e-02	3.0994	9.243862	0.000808	8.084366	2.739057	0.064530
  80	3.9500e-02	3.1170	9.433418	0.000475	4.749565	1.609196	0.037911
  81	4.0000e-02	3.1764	9.675404	0.000606	6.063275	2.054293	0.048397
  82	4.0500e-02	3.2149	9.885125	0.000525	5.254838	1.780387	0.041944
  83	4.1000e-02	3.2518	10.018217	0.000333	3.334801	1.129861	0.026618
  84	4.1500e-02	3.2951	10.260203	0.000606	6.063275	2.054293	0.048397
  85	4.2000e-02	3.3352	10.498156	0.000596	5.962220	2.020055	0.047591
  86	4.2500e-02	3.3721	10.687711	0.000475	4.749565	1.609196	0.037911
  87	4.3000e-02	3.4042	10.897432	0.000525	5.254838	1.780387	0.041944
  88	4.3500e-02	3.4475	11.099087	0.000505	5.052729	1.711911	0.040331
  89	4.4000e-02	3.4892	11.320908	0.000556	5.558002	1.883102	0.044364
  90	4.4500e-02	3.5245	11.574993	0.000637	6.366438	2.157008	0.050817
  91	4.5000e-02	3.5550	11.724218	0.000374	3.739019	1.266814	0.029845
  92	4.5500e-02	3.5983	11.986369	0.000657	6.568547	2.225484	0.052430
  93	4.6000e-02	3.6448	12.196090	0.000525	5.254838	1.780387	0.041944
  94	4.6500e-02	3.6962	12.494539	0.000748	7.478039	2.533628	0.059690
  95	4.7000e-02	3.7266	12.595367	0.000253	2.526364	0.855955	0.020165
  96	4.7500e-02	3.7683	12.809121	0.000536	5.355893	1.814626	0.042751
  97	4.8000e-02	3.8117	13.111604	0.000758	7.579093	2.567866	0.060496
  98	4.8500e-02	3.8470	13.297126	0.000465	4.648511	1.574958	0.037105
  99	4.9000e-02	3.8871	13.587509	0.000728	7.275930	2.465152	0.058077
 100	4.9500e-02	3.9256	13.732701	0.000364	3.637965	1.232576	0.029038
 101	5.0000e-02	3.9657	13.946455	0.000536	5.355893	1.814626	0.042751
 102	5.0500e-02	3.9961	14.099713	0.000384	3.840074	1.301052	0.030652
 103	5.1000e-02	4.0555	14.297335	0.000495	4.951674	1.677673	0.039524
 104	5.1500e-02	4.0780	14.551420	0.000637	6.366438	2.157008	0.050817
 105	5.2000e-02	4.1277	14.789373	0.000596	5.962220	2.020055	0.047591
 106	5.2500e-02	4.1790	14.942630	0.000384	3.840074	1.301052	0.030652
 107	5.3000e-02	4.2063	15.196716	0.000637	6.366438	2.157008	0.050817
 108	5.3500e-02	4.2400	15.430635	0.000586	5.861165	1.985817	0.046784
 109	5.4000e-02	4.2945	15.656489	0.000566	5.659056	1.917340	0.045171
 110	5.4500e-02	4.3362	15.757316	0.000253	2.526364	0.855955	0.020165
 111	5.5000e-02	4.3667	15.987203	0.000576	5.760111	1.951578	0.045977
 112	5.5500e-02	4.4148	16.245321	0.000647	6.467493	2.191246	0.051624
 113	5.6000e-02	4.4485	16.507473	0.000657	6.568547	2.225484	0.052430
 114	5.6500e-02	4.4935	16.826087	0.000798	7.983312	2.704819	0.063723
 115	5.7000e-02	4.5336	17.043875	0.000546	5.456947	1.848864	0.043557
 116	5.7500e-02	4.5705	17.160835	0.000293	2.930583	0.992908	0.023392
 117	5.8000e-02	4.6090	17.374589	0.000536	5.355893	1.814626	0.042751
 118	5.8500e-02	4.6459	17.604475	0.000576	5.760111	1.951578	0.045977
 119	5.9000e-02	4.6876	17.757733	0.000384	3.840074	1.301052	0.030652
 120	5.9500e-02	4.7261	17.991653	0.000586	5.861165	1.985817	0.046784
 121	6.0000e-02	4.7662	18.229606	0.000596	5.962220	2.020055	0.047591
 122	6.0500e-02	4.8079	18.511923	0.000707	7.073820	2.396675	0.056463
 123	6.1000e-02	4.8464	18.620816	0.000273	2.728474	0.924432	0.021779
 124	6.1500e-02	4.8881	18.882968	0.000657	6.568547	2.225484	0.052430
 125	6.2000e-02	4.9362	19.096722	0.000536	5.355893	1.814626	0.042751
 126	6.2500e-02	4.9683	19.326609	0.000576	5.760111	1.951578	0.045977
 127	6.3000e-02	5.0132	19.588760	0.000657	6.568547	2.225484	0.052430
 128	6.3500e-02	5.0485	19.766216	0.000445	4.446401	1.506482	0.035491
 129	6.4000e-02	5.0966	20.016268	0.000627	6.265384	2.122769	0.050010
 130	6.4500e-02	5.1303	20.213890	0.000495	4.951674	1.677673	0.039524
 131	6.5000e-02	5.1753	20.411512	0.000495	4.951674	1.677673	0.039524
 132	6.5500e-02	5.2138	20.609134	0.000495	4.951674	1.677673	0.039524
 133	6.6000e-02	5.2539	20.899517	0.000728	7.275930	2.465152	0.058077
 134	6.6500e-02	5.2795	21.189900	0.000728	7.275930	2.465152	0.058077
 135	6.7000e-02	5.3325	21.443985	0.000637	6.366438	2.157008	0.050817
 136	6.7500e-02	5.3694	21.597243	0.000384	3.840074	1.301052	0.030652
 137	6.8000e-02	5.4031	21.915858	0.000798	7.983312	2.704819	0.063723
 138	6.8500e-02	5.4480	22.073149	0.000394	3.941128	1.335290	0.031458
 139	6.9000e-02	5.4913	22.246572	0.000435	4.345347	1.472243	0.034685
 140	6.9500e-02	5.5282	22.516789	0.000677	6.770657	2.293961	0.054044
 141	7.0000e-02	5.5699	22.690213	0.000435	4.345347	1.472243	0.034685
 142	7.0500e-02	5.6164	22.980596	0.000728	7.275930	2.465152	0.058077
 143	7.1000e-02	5.6437	23.174185	0.000485	4.850620	1.643434	0.038718
 144	7.1500e-02	5.6918	23.416170	0.000606	6.063275	2.054293	0.048397
 145	7.2000e-02	5.7223	23.742851	0.000819	8.185421	2.773296	0.065336
 146	7.2500e-02	5.7704	23.815447	0.000182	1.818982	0.616288	0.014519
 147	7.3000e-02	5.7961	24.009036	0.000485	4.850620	1.643434	0.038718
 148	7.3500e-02	5.8522	24.319585	0.000778	7.781202	2.636343	0.062110
 149	7.4000e-02	5.8907	24.501074	0.000455	4.547456	1.540720	0.036298
 150	7.4500e-02	5.9357	24.698696	0.000495	4.951674	1.677673	0.039524
 151	7.5000e-02	5.9694	24.880185	0.000455	4.547456	1.540720	0.036298
 152	7.5500e-02	5.9998	25.122171	0.000606	6.063275	2.054293	0.048397
 153	7.6000e-02	6.0464	25.436753	0.000788	7.882257	2.670581	0.062916
 154	7.6500e-02	6.0977	25.638408	0.000505	5.052729	1.711911	0.040331
 155	7.7000e-02	6.1362	25.908625	0.000677	6.770657	2.293961	0.054044
 156	7.7500e-02	6.1651	26.061883	0.000384	3.840074	1.301052	0.030652
 157	7.8000e-02	6.2052	26.267571	0.000515	5.153783	1.746149	0.041138
 158	7.8500e-02	6.2501	26.570054	0.000758	7.579093	2.567866	0.060496
 159	7.9000e-02	6.2854	26.747510	0.000445	4.446401	1.506482	0.035491
 160	7.9500e-02	6.3351	26.904801	0.000394	3.941128	1.335290	0.031458
 161	8.0000e-02	6.3736	27.098390	0.000485	4.850620	1.643434	0.038718
 162	8.0500e-02	6.4153	27.308111	0.000525	5.254838	1.780387	0.041944
 163	8.1000e-02	6.4522	27.699321	0.000980	9.802294	3.321107	0.078242
 164	8.1500e-02	6.4795	27.848546	0.000374	3.739019	1.266814	0.029845
 165	8.2000e-02	6.5244	28.142962	0.000738	7.376984	2.499390	0.058883
 166	8.2500e-02	6.5661	28.272021	0.000323	3.233746	1.095623	0.025812
 167	8.3000e-02	6.6159	28.518040	0.000616	6.164329	2.088531	0.049204
 168	8.3500e-02	6.6479	28.780192	0.000657	6.568547	2.225484	0.052430
 169	8.4000e-02	6.6945	29.002012	0.000556	5.558002	1.883102	0.044364
 170	8.4500e-02	6.7282	29.187535	0.000465	4.648511	1.574958	0.037105
 171	8.5000e-02	6.7683	29.381123	0.000485	4.850620	1.643434	0.038718
 172	8.5500e-02	6.8084	29.590844	0.000525	5.254838	1.780387	0.041944
 173	8.6000e-02	6.8404	29.857029	0.000667	6.669602	2.259722	0.053237
 174	8.6500e-02	6.8918	30.050618	0.000485	4.850620	1.643434	0.038718
 175	8.7000e-02	6.9271	30.288571	0.000596	5.962220	2.020055	0.047591
 176	8.7500e-02	6.9704	30.635417	0.000869	8.690694	2.944487	0.069369
 177	8.8000e-02	7.0073	30.824973	0.000475	4.749565	1.609196	0.037911
 178	8.8500e-02	7.0346	31.103256	0.000697	6.972766	2.362437	0.055657
 179	8.9000e-02	7.0907	31.292812	0.000475	4.749565	1.609196	0.037911
 180	8.9500e-02	7.1372	31.458169	0.000414	4.143238	1.403767	0.033071
 181	9.0000e-02	7.1581	31.728387	0.000677	6.770657	2.293961	0.054044
 182	9.0500e-02	7.2110	31.897777	0.000424	4.244292	1.438005	0.033878
 183	9.1000e-02	7.2527	32.151862	0.000637	6.366438	2.157008	0.050817
 184	9.1500e-02	7.2800	32.446278	0.000738	7.376984	2.499390	0.058883
 185	9.2000e-02	7.3313	32.716496	0.000677	6.770657	2.293961	0.054044
 186	9.2500e-02	7.3698	32.906051	0.000475	4.749565	1.609196	0.037911
 187	9.3000e-02	7.4164	33.043177	0.000344	3.435856	1.164099	0.027425
 188	9.3500e-02	7.4468	33.277097	0.000586	5.861165	1.985817	0.046784
 189	9.4000e-02	7.4886	33.587645	0.000778	7.781202	2.636343	0.062110
 190	9.4500e-02	7.5190	33.801399	0.000536	5.355893	1.814626	0.042751
 191	9.5000e-02	7.5607	34.095816	0.000738	7.376984	2.499390	0.058883
 192	9.5500e-02	7.6105	34.305537	0.000525	5.254838	1.780387	0.041944
 193	9.6000e-02	7.6474	34.503159	0.000495	4.951674	1.677673	0.039524
 194	9.6500e-02	7.6827	34.664482	0.000404	4.042183	1.369529	0.032265
 195	9.7000e-02	7.7212	34.870171	0.000515	5.153783	1.746149	0.041138
 196	9.7500e-02	7.7645	35.091991	0.000556	5.558002	1.883102	0.044364
 197	9.8000e-02	7.8078	35.394473	0.000758	7.579093	2.567866	0.060496
 198	9.8500e-02	7.8495	35.588062	0.000485	4.850620	1.643434	0.038718
 199	9.9000e-02	7.8864	35.765518	0.000445	4.446401	1.506482	0.035491
 200	9.9500e-02	7.9249	36.100266	0.000839	8.387530	2.841772	0.066949
 201	1.0000e-01	7.9714	36.245457	0.000364	3.637965	1.232576	0.029038
 202	1.0050e-01	8.0083	36.539873	0.000738	7.376984	2.499390	0.058883
 203	1.0100e-01	8.0516	36.729429	0.000475	4.749565	1.609196	0.037911
 204	1.0150e-01	8.0950	36.983514	0.000637	6.366438	2.157008	0.050817
 205	1.0200e-01	8.1222	37.169037	0.000465	4.648511	1.574958	0.037105
 206	1.0250e-01	8.1623	37.491685	0.000808	8.084366	2.739057	0.064530
 207	1.0300e-01	8.2105	37.717538	0.000566	5.659056	1.917340	0.045171
 208	1.0350e-01	8.2442	37.939359	0.000556	5.558002	1.883102	0.044364
 209	1.0400e-01	8.2907	38.080517	0.000354	3.536910	1.198338	0.028232
 210	1.0450e-01	8.3340	38.257973	0.000445	4.446401	1.506482	0.035491
 211	1.0500e-01	8.3661	38.556423	0.000748	7.478039	2.533628	0.059690
 212	1.0550e-01	8.4126	38.822607	0.000667	6.669602	2.259722	0.053237
 213	1.0600e-01	8.4447	39.048461	0.000566	5.659056	1.917340	0.045171
 214	1.0650e-01	8.4832	39.282380	0.000586	5.861165	1.985817	0.046784
 215	1.0700e-01	8.5265	39.544532	0.000657	6.568547	2.225484	0.052430
 216	1.0750e-01	8.5714	39.758286	0.000536	5.355893	1.814626	0.042751
 217	1.0800e-01	8.6115	39.919610	0.000404	4.042183	1.369529	0.032265
 218	1.0850e-01	8.6468	40.181761	0.000657	6.568547	2.225484	0.052430
 219	1.0900e-01	8.6982	40.464078	0.000707	7.073820	2.396675	0.056463
 220	1.0950e-01	8.7367	40.661700	0.000495	4.951674	1.677673	0.039524
 221	1.1000e-01	8.7687	40.859322	0.000495	4.951674	1.677673	0.039524
 222	1.1050e-01	8.8008	41.101308	0.000606	6.063275	2.054293	0.048397
 223	1.1100e-01	8.8473	41.375559	0.000687	6.871711	2.328199	0.054850
 224	1.1150e-01	8.8891	41.649809	0.000687	6.871711	2.328199	0.054850
 225	1.1200e-01	8.9356	41.754670	0.000263	2.627419	0.890194	0.020972
 226	1.1250e-01	8.9741	42.016821	0.000657	6.568547	2.225484	0.052430
 227	1.1300e-01	9.0158	42.230575	0.000536	5.355893	1.814626	0.042751
 228	1.1350e-01	9.0431	42.424164	0.000485	4.850620	1.643434	0.038718
 229	1.1400e-01	9.0912	42.706481	0.000707	7.073820	2.396675	0.056463
 230	1.1450e-01	9.1281	42.879904	0.000435	4.345347	1.472243	0.034685
 231	1.1500e-01	9.1682	43.174321	0.000738	7.376984	2.499390	0.058883
 232	1.1550e-01	9.2099	43.404207	0.000576	5.760111	1.951578	0.045977
 233	1.1600e-01	9.2452	43.561498	0.000394	3.941128	1.335290	0.031458
 234	1.1650e-01	9.2821	43.868013	0.000768	7.680148	2.602105	0.061303
 235	1.1700e-01	9.3334	44.069668	0.000505	5.052729	1.711911	0.040331
 236	1.1750e-01	9.3671	44.315687	0.000616	6.164329	2.088531	0.049204
 237	1.1800e-01	9.4056	44.569773	0.000637	6.366438	2.157008	0.050817
 238	1.1850e-01	9.4393	44.896454	0.000819	8.185421	2.773296	0.065336
 239	1.1900e-01	9.4955	45.057778	0.000404	4.042183	1.369529	0.032265
 240	1.1950e-01	9.5324	45.255399	0.000495	4.951674	1.677673	0.039524
 241	1.2000e-01	9.5676	45.493352	0.000596	5.962220	2.020055	0.047591
 242	1.2050e-01	9.6094	45.642577	0.000374	3.739019	1.266814	0.029845
 243	1.2100e-01	9.6495	45.832133	0.000475	4.749565	1.609196	0.037911
 244	1.2150e-01	9.6880	46.070085	0.000596	5.962220	2.020055	0.047591
 245	1.2200e-01	9.7313	46.364502	0.000738	7.376984	2.499390	0.058883
 246	1.2250e-01	9.7730	46.658918	0.000738	7.376984	2.499390	0.058883
 247	1.2300e-01	9.8163	46.929135	0.000677	6.770657	2.293961	0.054044
 248	1.2350e-01	9.8436	47.025930	0.000243	2.425310	0.821717	0.019359
 249	1.2400e-01	9.8837	47.340511	0.000788	7.882257	2.670581	0.062916
 250	1.2450e-01	9.9206	47.598630	0.000647	6.467493	2.191246	0.051624
 251	1.2500e-01	9.9655	47.804318	0.000515	5.153783	1.746149	0.041138
 252	1.2550e-01	10.0120	48.010006	0.000515	5.153783	1.746149	0.041138
 253	1.2600e-01	10.0537	48.231826	0.000556	5.558002	1.883102	0.044364
 254	1.2650e-01	10.0858	48.522209	0.000728	7.275930	2.465152	0.058077
 255	1.2700e-01	10.1259	48.647235	0.000313	3.132692	1.061385	0.025005
 256	1.2750e-01	10.1692	48.913420	0.000667	6.669602	2.259722	0.053237
 257	1.2800e-01	10.2158	49.090876	0.000445	4.446401	1.506482	0.035491
 258	1.2850e-01	10.2494	49.413524	0.000808	8.084366	2.739057	0.064530
 259	1.2900e-01	10.2960	49.627278	0.000536	5.355893	1.814626	0.042751
 260	1.2950e-01	10.3329	49.917661	0.000728	7.275930	2.465152	0.058077
 261	1.3000e-01	10.3649	50.034621	0.000293	2.930583	0.992908	0.023392
 262	1.3050e-01	10.4099	50.260475	0.000566	5.659056	1.917340	0.045171
 263	1.3100e-01	10.4452	50.466163	0.000515	5.153783	1.746149	0.041138
 264	1.3150e-01	10.5061	50.683950	0.000546	5.456947	1.848864	0.043557
 265	1.3200e-01	10.5302	50.929969	0.000616	6.164329	2.088531	0.049204
 266	1.3250e-01	10.5719	51.208253	0.000697	6.972766	2.362437	0.055657
 267	1.3300e-01	10.6088	51.413941	0.000515	5.153783	1.746149	0.041138
 268	1.3350e-01	10.6489	51.643828	0.000576	5.760111	1.951578	0.045977
 269	1.3400e-01	10.6874	51.926145	0.000707	7.073820	2.396675	0.056463
 270	1.3450e-01	10.7275	52.139899	0.000536	5.355893	1.814626	0.042751
 271	1.3500e-01	10.7660	52.337521	0.000495	4.951674	1.677673	0.039524
 272	1.3550e-01	10.8109	52.615804	0.000697	6.972766	2.362437	0.055657
 273	1.3600e-01	10.8542	52.833592	0.000546	5.456947	1.848864	0.043557
 274	1.3650e-01	10.8943	53.023147	0.000475	4.749565	1.609196	0.037911
 275	1.3700e-01	10.9296	53.115909	0.000232	2.324255	0.787479	0.018552
 276	1.3750e-01	10.9697	53.503086	0.000970	9.701239	3.286869	0.077435
 277	1.3800e-01	11.0115	53.732973	0.000576	5.760111	1.951578	0.045977
 278	1.3850e-01	11.0516	53.958826	0.000566	5.659056	1.917340	0.045171
 279	1.3900e-01	11.0949	54.124183	0.000414	4.143238	1.403767	0.033071
 280	1.3950e-01	11.1334	54.402467	0.000697	6.972766	2.362437	0.055657
 281	1.4000e-01	11.1703	54.608155	0.000515	5.153783	1.746149	0.041138
 282	1.4050e-01	11.2168	54.854174	0.000616	6.164329	2.088531	0.049204
 283	1.4100e-01	11.2537	55.071961	0.000546	5.456947	1.848864	0.043557
 284	1.4150e-01	11.2938	55.293782	0.000556	5.558002	1.883102	0.044364
 285	1.4200e-01	11.3227	55.459139	0.000414	4.143238	1.403767	0.033071
 286	1.4250e-01	11.3676	55.769687	0.000778	7.781202	2.636343	0.062110
 287	1.4300e-01	11.4077	55.995541	0.000566	5.659056	1.917340	0.045171
 288	1.4350e-01	11.4446	56.168964	0.000435	4.345347	1.472243	0.034685
 289	1.4400e-01	11.4863	56.431116	0.000657	6.568547	2.225484	0.052430
 290	1.4450e-01	11.5328	56.757797	0.000819	8.185421	2.773296	0.065336
 291	1.4500e-01	11.5665	56.923154	0.000414	4.143238	1.403767	0.033071
 292	1.4550e-01	11.6162	57.201437	0.000697	6.972766	2.362437	0.055657
 293	1.4600e-01	11.6483	57.350662	0.000374	3.739019	1.266814	0.029845
 294	1.4650e-01	11.6933	57.584582	0.000586	5.861165	1.985817	0.046784
 295	1.4700e-01	11.7350	57.822535	0.000596	5.962220	2.020055	0.047591
 296	1.4750e-01	11.7687	58.096785	0.000687	6.871711	2.328199	0.054850
 297	1.4800e-01	11.8120	58.177447	0.000202	2.021092	0.684764	0.016132
 298	1.4850e-01	11.8489	58.516228	0.000849	8.488584	2.876010	0.067756
 299	1.4900e-01	11.8890	58.673518	0.000394	3.941128	1.335290	0.031458
 300	1.4950e-01	11.9339	58.649320	-0.000061	-0.606327	-0.205429	-0.004840
 301	1.5000e-01	11.9676	59.161523	0.001283	12.833931	4.348254	0.102441
 302	1.5050e-01	12.0061	59.480138	0.000798	7.983312	2.704819	0.063723
 303	1.5100e-01	12.0478	59.710025	0.000576	5.760111	1.951578	0.045977
 304	1.5150e-01	12.0879	59.895547	0.000465	4.648511	1.574958	0.037105
 305	1.5200e-01	12.1376	60.117368	0.000556	5.558002	1.883102	0.044364
 306	1.5250e-01	12.1729	60.319023	0.000505	5.052729	1.711911	0.040331
 307	1.5300e-01	12.2146	60.597306	0.000697	6.972766	2.362437	0.055657
 308	1.5350e-01	12.2419	60.734432	0.000344	3.435856	1.164099	0.027425
 309	1.5400e-01	12.2884	60.996583	0.000657	6.568547	2.225484	0.052430
 310	1.5450e-01	12.3317	61.262768	0.000667	6.669602	2.259722	0.053237
 311	1.5500e-01	12.3654	61.476522	0.000536	5.355893	1.814626	0.042751
 312	1.5550e-01	12.4136	61.690276	0.000536	5.355893	1.814626	0.042751
 313	1.5600e-01	12.4472	61.863699	0.000435	4.345347	1.472243	0.034685
 314	1.5650e-01	12.4873	62.154083	0.000728	7.275930	2.465152	0.058077
 315	1.5700e-01	12.5258	62.383969	0.000576	5.760111	1.951578	0.045977
 316	1.5750e-01	12.5740	62.605790	0.000556	5.558002	1.883102	0.044364
 317	1.5800e-01	12.6125	62.795345	0.000475	4.749565	1.609196	0.037911
 318	1.5850e-01	12.6494	63.045397	0.000627	6.265384	2.122769	0.050010
 319	1.5900e-01	12.6734	63.226887	0.000455	4.547456	1.540720	0.036298
 320	1.5950e-01	12.7296	63.489038	0.000657	6.568547	2.225484	0.052430
 321	1.6000e-01	12.7665	63.634230	0.000364	3.637965	1.232576	0.029038
 322	1.6050e-01	12.8066	63.900414	0.000667	6.669602	2.259722	0.053237
 323	1.6100e-01	12.8547	64.182731	0.000707	7.073820	2.396675	0.056463
 324	1.6150e-01	12.8948	64.444883	0.000657	6.568547	2.225484	0.052430
 325	1.6200e-01	12.9253	64.678802	0.000586	5.861165	1.985817	0.046784
 326	1.6250e-01	12.9670	64.864325	0.000465	4.648511	1.574958	0.037105
 327	1.6300e-01	13.0055	65.025649	0.000404	4.042183	1.369529	0.032265
 328	1.6350e-01	13.0504	65.307966	0.000707	7.073820	2.396675	0.056463
 329	1.6400e-01	13.0905	65.602382	0.000738	7.376984	2.499390	0.058883
 330	1.6450e-01	13.1274	65.763706	0.000404	4.042183	1.369529	0.032265
 331	1.6500e-01	13.1627	65.989559	0.000566	5.659056	1.917340	0.045171
 332	1.6550e-01	13.2028	66.207347	0.000546	5.456947	1.848864	0.043557
 333	1.6600e-01	13.2445	66.417068	0.000525	5.254838	1.780387	0.041944
 334	1.6650e-01	13.2863	66.594524	0.000445	4.446401	1.506482	0.035491
 335	1.6700e-01	13.3280	66.860709	0.000667	6.669602	2.259722	0.053237
 336	1.6750e-01	13.3697	67.078496	0.000546	5.456947	1.848864	0.043557
 337	1.6800e-01	13.4018	67.401144	0.000808	8.084366	2.739057	0.064530
 338	1.6850e-01	13.4403	67.671361	0.000677	6.770657	2.293961	0.054044
 339	1.6900e-01	13.4884	67.812520	0.000354	3.536910	1.198338	0.028232
 340	1.6950e-01	13.5253	68.082738	0.000677	6.770657	2.293961	0.054044
 341	1.7000e-01	13.5654	68.227929	0.000364	3.637965	1.232576	0.029038
 342	1.7050e-01	13.6023	68.461849	0.000586	5.861165	1.985817	0.046784
 343	1.7100e-01	13.6392	68.715934	0.000637	6.366438	2.157008	0.050817
 344	1.7150e-01	13.6825	68.970019	0.000637	6.366438	2.157008	0.050817
 345	1.7200e-01	13.7338	69.179740	0.000525	5.254838	1.780387	0.041944
 346	1.7250e-01	13.7755	69.393495	0.000536	5.355893	1.814626	0.042751
 347	1.7300e-01	13.8124	69.542719	0.000374	3.739019	1.266814	0.029845
 348	1.7350e-01	13.8445	69.857301	0.000788	7.882257	2.670581	0.062916
 349	1.7400e-01	13.8894	70.038790	0.000455	4.547456	1.540720	0.036298
 350	1.7450e-01	13.9231	70.212214	0.000435	4.345347	1.472243	0.034685
 351	1.7500e-01	13.9681	70.401769	0.000475	4.749565	1.609196	0.037911
 352	1.7550e-01	14.0130	70.655854	0.000637	6.366438	2.157008	0.050817
 353	1.7600e-01	14.0515	70.817178	0.000404	4.042183	1.369529	0.032265
 354	1.7650e-01	14.0852	71.095462	0.000697	6.972766	2.362437	0.055657
 355	1.7700e-01	14.1205	71.313249	0.000546	5.456947	1.848864	0.043557
 356	1.7750e-01	14.1670	71.607666	0.000738	7.376984	2.499390	0.058883
 357	1.7800e-01	14.2103	71.797221	0.000475	4.749565	1.609196	0.037911
 358	1.7850e-01	14.2504	72.031141	0.000586	5.861165	1.985817	0.046784
 359	1.7900e-01	14.2857	72.309425	0.000697	6.972766	2.362437	0.055657
 360	1.7950e-01	14.3290	72.515113	0.000515	5.153783	1.746149	0.041138
 361	1.8000e-01	14.3611	72.704669	0.000475	4.749565	1.609196	0.037911
 362	1.8050e-01	14.4140	72.902290	0.000495	4.951674	1.677673	0.039524
 363	1.8100e-01	14.4477	73.176541	0.000687	6.871711	2.328199	0.054850
 364	1.8150e-01	14.4830	73.358030	0.000455	4.547456	1.540720	0.036298
 365	1.8200e-01	14.5215	73.624215	0.000667	6.669602	2.259722	0.053237
 366	1.8250e-01	14.5552	73.898466	0.000687	6.871711	2.328199	0.054850
 367	1.8300e-01	14.6097	74.168683	0.000677	6.770657	2.293961	0.054044
 368	1.8350e-01	14.6466	74.245312	0.000192	1.920037	0.650526	0.015326
 369	1.8400e-01	14.6851	74.519563	0.000687	6.871711	2.328199	0.054850
 370	1.8450e-01	14.7220	74.757516	0.000596	5.962220	2.020055	0.047591
 371	1.8500e-01	14.7686	74.918840	0.000404	4.042183	1.369529	0.032265
 372	1.8550e-01	14.8039	75.152759	0.000586	5.861165	1.985817	0.046784
 373	1.8600e-01	14.8424	75.362480	0.000525	5.254838	1.780387	0.041944
 374	1.8650e-01	14.8905	75.600433	0.000596	5.962220	2.020055	0.047591
 375	1.8700e-01	14.9290	75.818221	0.000546	5.456947	1.848864	0.043557
 376	1.8750e-01	14.9771	76.040041	0.000556	5.558002	1.883102	0.044364
 377	1.8800e-01	15.0108	76.306226	0.000667	6.669602	2.259722	0.053237
 378	1.8850e-01	15.0477	76.612741	0.000768	7.680148	2.602105	0.061303
 379	1.8900e-01	15.0846	76.640973	0.000071	0.707382	0.239668	0.005646
 380	1.8950e-01	15.1167	76.923290	0.000707	7.073820	2.396675	0.056463
 381	1.9000e-01	15.1600	77.128978	0.000515	5.153783	1.746149	0.041138
 382	1.9050e-01	15.2145	77.427427	0.000748	7.478039	2.533628	0.059690
 383	1.9100e-01	15.2498	77.564552	0.000344	3.435856	1.164099	0.027425
 384	1.9150e-01	15.2819	77.798472	0.000586	5.861165	1.985817	0.046784
 385	1.9200e-01	15.3365	78.004160	0.000515	5.153783	1.746149	0.041138
 386	1.9250e-01	15.3653	78.242113	0.000596	5.962220	2.020055	0.047591
 387	1.9300e-01	15.4071	78.536529	0.000738	7.376984	2.499390	0.058883
 388	1.9350e-01	15.4536	78.697853	0.000404	4.042183	1.369529	0.032265
 389	1.9400e-01	15.4792	78.960004	0.000657	6.568547	2.225484	0.052430
 390	1.9450e-01	15.5242	79.109229	0.000374	3.739019	1.266814	0.029845
 391	1.9500e-01	15.5675	79.387513	0.000697	6.972766	2.362437	0.055657
 392	1.9550e-01	15.6044	79.637565	0.000627	6.265384	2.122769	0.050010
 393	1.9600e-01	15.6477	79.831154	0.000485	4.850620	1.643434	0.038718
 394	1.9650e-01	15.6830	80.052974	0.000556	5.558002	1.883102	0.044364
 395	1.9700e-01	15.7279	80.198166	0.000364	3.637965	1.232576	0.029038
 396	1.9750e-01	15.7680	80.456284	0.000647	6.467493	2.191246	0.051624
 397	1.9800e-01	15.8033	80.613575	0.000394	3.941128	1.335290	0.031458
 398	1.9850e-01	15.8546	80.863627	0.000627	6.265384	2.122769	0.050010
 399	1.9900e-01	15.8915	81.117712	0.000637	6.366438	2.157008	0.050817
 400	1.9950e-01	15.9268	81.295169	0.000445	4.446401	1.506482	0.035491
 401	2.0000e-01	15.9669	81.516989	0.000556	5.558002	1.883102	0.044364
 402	2.0050e-01	16.0151	81.831571	0.000788	7.882257	2.670581	0.062916
 403	2.0100e-01	16.0455	82.033226	0.000505	5.052729	1.711911	0.040331
 404	2.0150e-01	16.0808	82.295377	0.000657	6.568547	2.225484	0.052430
 405	2.0200e-01	16.1354	82.408304	0.000283	2.829528	0.958670	0.022585
 406	2.0250e-01	16.1610	82.622058	0.000536	5.355893	1.814626	0.042751
 407	2.0300e-01	16.2028	82.920507	0.000748	7.478039	2.533628	0.059690
 408	2.0350e-01	16.2509	83.110063	0.000475	4.749565	1.609196	0.037911
 409	2.0400e-01	16.2814	83.348016	0.000596	5.962220	2.020055	0.047591
 410	2.0450e-01	16.3263	83.618233	0.000677	6.770657	2.293961	0.054044
 411	2.0500e-01	16.3776	83.823921	0.000515	5.153783	1.746149	0.041138
 412	2.0550e-01	16.4017	84.110271	0.000717	7.174875	2.430913	0.057270
 413	2.0600e-01	16.4434	84.324026	0.000536	5.355893	1.814626	0.042751
 414	2.0650e-01	16.4867	84.473250	0.000374	3.739019	1.266814	0.029845
 415	2.0700e-01	16.5268	84.695071	0.000556	5.558002	1.883102	0.044364
 416	2.0750e-01	16.5637	84.928990	0.000586	5.861165	1.985817	0.046784
 417	2.0800e-01	16.6134	85.078215	0.000374	3.739019	1.266814	0.029845
 418	2.0850e-01	16.6407	85.328267	0.000627	6.265384	2.122769	0.050010
 419	2.0900e-01	16.6888	85.501690	0.000435	4.345347	1.472243	0.034685
 420	2.0950e-01	16.7257	85.820305	0.000798	7.983312	2.704819	0.063723
 421	2.1000e-01	16.7610	86.009861	0.000475	4.749565	1.609196	0.037911
 422	2.1050e-01	16.8059	86.114721	0.000263	2.627419	0.890194	0.020972
 423	2.1100e-01	16.8493	86.433336	0.000798	7.983312	2.704819	0.063723
 424	2.1150e-01	16.8910	86.719686	0.000717	7.174875	2.430913	0.057270
 425	2.1200e-01	16.9247	86.828580	0.000273	2.728474	0.924432	0.021779
 426	2.1250e-01	16.9648	87.179459	0.000879	8.791748	2.978725	0.070176
 427	2.1300e-01	17.0097	87.264154	0.000212	2.122146	0.719003	0.016939
 428	2.1350e-01	17.0434	87.502107	0.000596	5.962220	2.020055	0.047591
 429	2.1400e-01	17.0803	87.788457	0.000717	7.174875	2.430913	0.057270
 430	2.1450e-01	17.1396	87.945748	0.000394	3.941128	1.335290	0.031458
 431	2.1500e-01	17.1653	88.179668	0.000586	5.861165	1.985817	0.046784
 432	2.1550e-01	17.2070	88.389389	0.000525	5.254838	1.780387	0.041944
 433	2.1600e-01	17.2487	88.582978	0.000485	4.850620	1.643434	0.038718
 434	2.1650e-01	17.2776	88.816897	0.000586	5.861165	1.985817	0.046784
 435	2.1700e-01	17.3241	88.994354	0.000445	4.446401	1.506482	0.035491
 436	2.1750e-01	17.3674	89.325068	0.000829	8.286475	2.807534	0.066143
 437	2.1800e-01	17.4027	89.381531	0.000141	1.414764	0.479335	0.011293
 438	2.1850e-01	17.4476	89.736444	0.000889	8.892803	3.012963	0.070983
 439	2.1900e-01	17.4845	89.954231	0.000546	5.456947	1.848864	0.043557
 440	2.1950e-01	17.5214	90.135721	0.000455	4.547456	1.540720	0.036298
 441	2.2000e-01	17.5647	90.369640	0.000586	5.861165	1.985817	0.046784
 442	2.2050e-01	17.6081	90.534997	0.000414	4.143238	1.403767	0.033071
 443	2.2100e-01	17.6514	90.776983	0.000606	6.063275	2.054293	0.048397
 444	2.2150e-01	17.6867	91.079466	0.000758	7.579093	2.567866	0.060496
 445	2.2200e-01	17.7300	91.224657	0.000364	3.637965	1.232576	0.029038
 446	2.2250e-01	17.7685	91.430345	0.000515	5.153783	1.746149	0.041138
 447	2.2300e-01	17.8054	91.632000	0.000505	5.052729	1.711911	0.040331
 448	2.2350e-01	17.8423	91.873986	0.000606	6.063275	2.054293	0.048397
 449	2.2400e-01	17.8856	92.059509	0.000465	4.648511	1.574958	0.037105
 450	2.2450e-01	17.9273	92.249064	0.000475	4.749565	1.609196	0.037911
 451	2.2500e-01	17.9690	92.583812	0.000839	8.387530	2.841772	0.066949
 452	2.2550e-01	18.0107	92.716904	0.000333	3.334801	1.129861	0.026618
 453	2.2600e-01	18.0572	92.866128	0.000374	3.739019	1.266814	0.029845
 454	2.2650e-01	18.0909	93.003254	0.000344	3.435856	1.164099	0.027425
 455	2.2700e-01	18.1246	93.333968	0.000829	8.286475	2.807534	0.066143
 456	2.2750e-01	18.1711	93.495292	0.000404	4.042183	1.369529	0.032265
 457	2.2800e-01	18.2113	93.838105	0.000859	8.589639	2.910248	0.068563
 458	2.2850e-01	18.2465	94.039760	0.000505	5.052729	1.711911	0.040331
 459	2.2900e-01	18.2866	94.229316	0.000475	4.749565	1.609196	0.037911
 460	2.2950e-01	18.3300	94.471302	0.000606	6.063275	2.054293	0.048397
 461	2.3000e-01	18.3685	94.769751	0.000748	7.478039	2.533628	0.059690
 462	2.3050e-01	18.4086	94.846380	0.000192	1.920037	0.650526	0.015326
 463	2.3100e-01	18.4519	95.128697	0.000707	7.073820	2.396675	0.056463
 464	2.3150e-01	18.4920	95.241623	0.000283	2.829528	0.958670	0.022585
 465	2.3200e-01	18.5273	95.580404	0.000849	8.488584	2.876010	0.067756
 466	2.3250e-01	18.5642	95.769959	0.000475	4.749565	1.609196	0.037911
 467	2.3300e-01	18.6043	95.931283	0.000404	4.042183	1.369529	0.032265
 468	2.3350e-01	18.6460	96.197468	0.000667	6.669602	2.259722	0.053237
 469	2.3400e-01	18.6941	96.366858	0.000424	4.244292	1.438005	0.033878
 470	2.3450e-01	18.7294	96.572546	0.000515	5.153783	1.746149	0.041138
 471	2.3500e-01	18.7663	96.810499	0.000596	5.962220	2.020055	0.047591
 472	2.3550e-01	18.8177	97.028286	0.000546	5.456947	1.848864	0.043557
 473	2.3600e-01	18.8497	97.258173	0.000576	5.760111	1.951578	0.045977
 474	2.3650e-01	18.8947	97.475960	0.000546	5.456947	1.848864	0.043557
 475	2.3700e-01	18.9316	97.717946	0.000606	6.063275	2.054293	0.048397
 476	2.3750e-01	18.9684	97.883303	0.000414	4.143238	1.403767	0.033071
 477	2.3800e-01	19.0182	98.129322	0.000616	6.164329	2.088531	0.049204
 478	2.3850e-01	19.0567	98.314845	0.000465	4.648511	1.574958	0.037105
 479	2.3900e-01	19.0936	98.496334	0.000455	4.547456	1.540720	0.036298
 480	2.3950e-01	19.1385	98.714121	0.000546	5.456947	1.848864	0.043557
 481	2.4000e-01	19.1577	98.980306	0.000667	6.669602	2.259722	0.053237
 482	2.4050e-01	19.2123	99.210193	0.000576	5.760111	1.951578	0.045977
 483	2.4100e-01	19.2508	99.484443	0.000687	6.871711	2.328199	0.054850
 484	2.4150e-01	19.2845	99.569138	0.000212	2.122146	0.719003	0.016939
 485	2.4200e-01	19.3326	99.811124	0.000606	6.063275	2.054293	0.048397
 486	2.4250e-01	19.3711	100.028912	0.000546	5.456947	1.848864	0.043557
 487	2.4300e-01	19.4112	100.238633	0.000525	5.254838	1.780387	0.041944
 488	2.4350e-01	19.4465	100.488685	0.000627	6.265384	2.122769	0.050010
 489	2.4400e-01	19.4898	100.637909	0.000374	3.739019	1.266814	0.029845
 490	2.4450e-01	19.5267	100.859730	0.000556	5.558002	1.883102	0.044364
 491	2.4500e-01	19.5604	101.053319	0.000485	4.850620	1.643434	0.038718
 492	2.4550e-01	19.6037	101.351768	0.000748	7.478039	2.533628	0.059690
 493	2.4600e-01	19.6454	101.513092	0.000404	4.042183	1.369529	0.032265
 494	2.4650e-01	19.6871	101.698614	0.000465	4.648511	1.574958	0.037105
 495	2.4700e-01	19.7305	101.976898	0.000697	6.972766	2.362437	0.055657
 496	2.4750e-01	19.7690	102.158388	0.000455	4.547456	1.540720	0.036298
 497	2.4800e-01	19.8075	102.339877	0.000455	4.547456	1.540720	0.036298
 498	2.4850e-01	19.8556	102.513300	0.000435	4.345347	1.472243	0.034685
 499	2.4900e-01	19.8845	102.819816	0.000768	7.680148	2.602105	0.061303
 500	2.4950e-01	19.9374	103.061802	0.000606	6.063275	2.054293	0.048397
 501	2.5000e-01	19.9727	103.275556	0.000536	5.355893	1.814626	0.042751
 502	2.5050e-01	19.9743	103.299755	0.000061	0.606327	0.205429	0.004840
 503	2.5100e-01	19.9406	103.279589	0.000051	0.505273	0.171191	-0.004033
 504	2.5150e-01	19.9053	103.170695	0.000273	2.728474	0.924432	-0.021779
 505	2.5200e-01	19.8732	103.086000	0.000212	2.122146	0.719003	-0.016939
 506	2.5250e-01	19.8203	103.005338	0.000202	2.021092	0.684764	-0.016132
 507	2.5300e-01	19.7946	102.880312	0.000313	3.132692	1.061385	-0.025005
 508	2.5350e-01	19.7465	102.606062	0.000687	6.871711	2.328199	-0.054850
 509	2.5400e-01	19.7048	102.521366	0.000212	2.122146	0.719003	-0.016939
 510	2.5450e-01	19.6679	102.408440	0.000283	2.829528	0.958670	-0.022585
 511	2.5500e-01	19.6294	102.198719	0.000525	5.254838	1.780387	-0.041944
 512	2.5550e-01	19.5845	102.005130	0.000485	4.850620	1.643434	-0.038718
 513	2.5600e-01	19.5524	101.964799	0.000101	1.010546	0.342382	-0.008066
 514	2.5650e-01	19.5107	101.868004	0.000243	2.425310	0.821717	-0.019359
 515	2.5700e-01	19.4642	101.545357	0.000808	8.084366	2.739057	-0.064530
 516	2.5750e-01	19.4305	101.488893	0.000141	1.414764	0.479335	-0.011293
 517	2.5800e-01	19.3839	101.254974	0.000586	5.861165	1.985817	-0.046784
 518	2.5850e-01	19.3503	101.125914	0.000323	3.233746	1.095623	-0.025812
 519	2.5900e-01	19.3069	100.972657	0.000384	3.840074	1.301052	-0.030652
 520	2.5950e-01	19.2716	100.855697	0.000293	2.930583	0.992908	-0.023392
 521	2.6000e-01	19.2315	100.694373	0.000404	4.042183	1.369529	-0.032265
 522	2.6050e-01	19.1882	100.520950	0.000435	4.345347	1.472243	-0.034685
 523	2.6100e-01	19.1481	100.331394	0.000475	4.749565	1.609196	-0.037911
 524	2.6150e-01	19.1144	100.222500	0.000273	2.728474	0.924432	-0.021779
 525	2.6200e-01	19.0791	99.964382	0.000647	6.467493	2.191246	-0.051624
 526	2.6250e-01	19.0358	99.730462	0.000586	5.861165	1.985817	-0.046784
 527	2.6300e-01	18.9941	99.593337	0.000344	3.435856	1.164099	-0.027425
 528	2.6350e-01	18.9508	99.512675	0.000202	2.021092	0.684764	-0.016132
 529	2.6400e-01	18.9059	99.335219	0.000445	4.446401	1.506482	-0.035491
 530	2.6450e-01	18.8674	99.101299	0.000586	5.861165	1.985817	-0.046784
 531	2.6500e-01	18.8241	99.089200	0.000030	0.303164	0.102715	-0.002420
 532	2.6550e-01	18.7936	98.818982	0.000677	6.770657	2.293961	-0.054044
 533	2.6600e-01	18.7599	98.883512	-0.000162	-1.616873	-0.547811	0.012906
 534	2.6650e-01	18.7118	98.516500	0.000920	9.195966	3.115678	-0.073402
 535	2.6700e-01	18.6685	98.371308	0.000364	3.637965	1.232576	-0.029038
 536	2.6750e-01	18.6348	98.193852	0.000445	4.446401	1.506482	-0.035491
 537	2.6800e-01	18.5898	97.972031	0.000556	5.558002	1.883102	-0.044364
 538	2.6850e-01	18.5481	97.782476	0.000475	4.749565	1.609196	-0.037911
 539	2.6900e-01	18.5128	97.588887	0.000485	4.850620	1.643434	-0.038718
 540	2.6950e-01	18.4711	97.330769	0.000647	6.467493	2.191246	-0.051624
 541	2.7000e-01	18.4278	97.350934	-0.000051	-0.505273	-0.171191	0.004033
 542	2.7050e-01	18.3861	97.149279	0.000505	5.052729	1.711911	-0.040331
 543	2.7100e-01	18.3460	96.935525	0.000536	5.355893	1.814626	-0.042751
 544	2.7150e-01	18.3171	96.741936	0.000485	4.850620	1.643434	-0.038718
 545	2.7200e-01	18.2658	96.503983	0.000596	5.962220	2.020055	-0.047591
 546	2.7250e-01	18.2385	96.330560	0.000435	4.345347	1.472243	-0.034685
 547	2.7300e-01	18.1952	96.286196	0.000111	1.111600	0.376620	-0.008873
 548	2.7350e-01	18.1583	96.052276	0.000586	5.861165	1.985817	-0.046784
 549	2.7400e-01	18.1118	95.870787	0.000455	4.547456	1.540720	-0.036298
 550	2.7450e-01	18.0749	95.717529	0.000384	3.840074	1.301052	-0.030652
 551	2.7500e-01	18.0300	95.479576	0.000596	5.962220	2.020055	-0.047591
 552	2.7550e-01	17.9963	95.382782	0.000243	2.425310	0.821717	-0.019359
 553	2.7600e-01	17.9433	95.136763	0.000616	6.164329	2.088531	-0.049204
 554	2.7650e-01	17.9113	94.890744	0.000616	6.164329	2.088531	-0.049204
 555	2.7700e-01	17.8728	94.797983	0.000232	2.324255	0.787479	-0.018552
 556	2.7750e-01	17.8359	94.620526	0.000445	4.446401	1.506482	-0.035491
 557	2.7800e-01	17.7893	94.378540	0.000606	6.063275	2.054293	-0.048397
 558	2.7850e-01	17.7492	94.184952	0.000485	4.850620	1.643434	-0.038718
 559	2.7900e-01	17.7075	94.031694	0.000384	3.840074	1.301052	-0.030652
 560	2.7950e-01	17.6754	93.826006	0.000515	5.153783	1.746149	-0.041138
 561	2.8000e-01	17.6305	93.680814	0.000364	3.637965	1.232576	-0.029038
 562	2.8050e-01	17.5872	93.559821	0.000303	3.031637	1.027147	-0.024199
 563	2.8100e-01	17.5599	93.402531	0.000394	3.941128	1.335290	-0.031458
 564	2.8150e-01	17.5102	93.249273	0.000384	3.840074	1.301052	-0.030652
 565	2.8200e-01	17.4701	93.027452	0.000556	5.558002	1.883102	-0.044364
 566	2.8250e-01	17.4332	92.797566	0.000576	5.760111	1.951578	-0.045977
 567	2.8300e-01	17.3835	92.640275	0.000394	3.941128	1.335290	-0.031458
 568	2.8350e-01	17.3482	92.406355	0.000586	5.861165	1.985817	-0.046784
 569	2.8400e-01	17.3097	92.325693	0.000202	2.021092	0.684764	-0.016132
 570	2.8450e-01	17.2728	92.099840	0.000566	5.659056	1.917340	-0.045171
 571	2.8500e-01	17.2311	91.942549	0.000394	3.941128	1.335290	-0.031458
 572	2.8550e-01	17.1861	91.732828	0.000525	5.254838	1.780387	-0.041944
 573	2.8600e-01	17.1476	91.535206	0.000495	4.951674	1.677673	-0.039524
 574	2.8650e-01	17.1172	91.450511	0.000212	2.122146	0.719003	-0.016939
 575	2.8700e-01	17.0787	91.309352	0.000354	3.536910	1.198338	-0.028232
 576	2.8750e-01	17.0370	91.006870	0.000758	7.579093	2.567866	-0.060496
 577	2.8800e-01	16.9936	90.837480	0.000424	4.244292	1.438005	-0.033878
 578	2.8850e-01	16.9519	90.708421	0.000323	3.233746	1.095623	-0.025812
 579	2.8900e-01	16.9086	90.418038	0.000728	7.275930	2.465152	-0.058077
 580	2.8950e-01	16.8717	90.272846	0.000364	3.637965	1.232576	-0.029038
 581	2.9000e-01	16.8284	90.087323	0.000465	4.648511	1.574958	-0.037105
 582	2.9050e-01	16.7883	89.934066	0.000384	3.840074	1.301052	-0.030652
 583	2.9100e-01	16.7450	89.696113	0.000596	5.962220	2.020055	-0.047591
 584	2.9150e-01	16.7065	89.550921	0.000364	3.637965	1.232576	-0.029038
 585	2.9200e-01	16.6728	89.276671	0.000687	6.871711	2.328199	-0.054850
 586	2.9250e-01	16.6327	89.143578	0.000333	3.334801	1.129861	-0.026618
 587	2.9300e-01	16.5846	88.901592	0.000606	6.063275	2.054293	-0.048397
 588	2.9350e-01	16.5477	88.720103	0.000455	4.547456	1.540720	-0.036298
 589	2.9400e-01	16.5108	88.615242	0.000263	2.627419	0.890194	-0.020972
 590	2.9450e-01	16.4658	88.413588	0.000505	5.052729	1.711911	-0.040331
 591	2.9500e-01	16.4257	88.336959	0.000192	1.920037	0.650526	-0.015326
 592	2.9550e-01	16.3953	88.062708	0.000687	6.871711	2.328199	-0.054850
 593	2.9600e-01	16.3455	87.816689	0.000616	6.164329	2.088531	-0.049204
 594	2.9650e-01	16.3183	87.643266	0.000435	4.345347	1.472243	-0.034685
 595	2.9700e-01	16.2653	87.485975	0.000394	3.941128	1.335290	-0.031458
 596	2.9750e-01	16.2364	87.272221	0.000536	5.355893	1.814626	-0.042751
 597	2.9800e-01	16.1899	87.058466	0.000536	5.355893	1.814626	-0.042751
 598	2.9850e-01	16.1450	86.945540	0.000283	2.829528	0.958670	-0.022585
 599	2.9900e-01	16.1065	86.683388	0.000657	6.568547	2.225484	-0.052430
 600	2.9950e-01	16.0712	86.530131	0.000384	3.840074	1.301052	-0.030652
 601	3.0000e-01	16.0359	86.388972	0.000354	3.536910	1.198338	-0.028232
 602	3.0050e-01	15.9910	86.191350	0.000495	4.951674	1.677673	-0.039524
 603	3.0100e-01	15.9429	85.957431	0.000586	5.861165	1.985817	-0.046784
 604	3.0150e-01	15.9076	85.848537	0.000273	2.728474	0.924432	-0.021779
 605	3.0200e-01	15.8691	85.594452	0.000637	6.366438	2.157008	-0.050817
 606	3.0250e-01	15.8354	85.425061	0.000424	4.244292	1.438005	-0.033878
 607	3.0300e-01	15.7953	85.102414	0.000808	8.084366	2.739057	-0.064530
 608	3.0350e-01	15.7471	84.912858	0.000475	4.749565	1.609196	-0.037911
 609	3.0400e-01	15.7135	84.820097	0.000232	2.324255	0.787479	-0.018552
 610	3.0450e-01	15.6814	84.574078	0.000616	6.164329	2.088531	-0.049204
 611	3.0500e-01	15.6236	84.396621	0.000445	4.446401	1.506482	-0.035491
 612	3.0550e-01	15.5883	84.215132	0.000455	4.547456	1.540720	-0.036298
 613	3.0600e-01	15.5611	83.989278	0.000566	5.659056	1.917340	-0.045171
 614	3.0650e-01	15.5242	83.872319	0.000293	2.930583	0.992908	-0.023392
 615	3.0700e-01	15.4776	83.626300	0.000616	6.164329	2.088531	-0.049204
 616	3.0750e-01	15.4343	83.469009	0.000394	3.941128	1.335290	-0.031458
 617	3.0800e-01	15.3910	83.287519	0.000455	4.547456	1.540720	-0.036298
 618	3.0850e-01	15.3493	83.122162	0.000414	4.143238	1.403767	-0.033071
 619	3.0900e-01	15.3076	82.997136	0.000313	3.132692	1.061385	-0.025005
 620	3.0950e-01	15.2691	82.726919	0.000677	6.770657	2.293961	-0.054044
 621	3.1000e-01	15.2290	82.609959	0.000293	2.930583	0.992908	-0.023392
 622	3.1050e-01	15.1937	82.408304	0.000505	5.052729	1.711911	-0.040331
 623	3.1100e-01	15.1504	82.138086	0.000677	6.770657	2.293961	-0.054044
 624	3.1150e-01	15.1039	81.936431	0.000505	5.052729	1.711911	-0.040331
 625	3.1200e-01	15.0782	81.702511	0.000586	5.861165	1.985817	-0.046784
 626	3.1250e-01	15.0252	81.464559	0.000596	5.962220	2.020055	-0.047591
 627	3.1300e-01	14.9900	81.347599	0.000293	2.930583	0.992908	-0.023392
 628	3.1350e-01	14.9466	81.270970	0.000192	1.920037	0.650526	-0.015326
 629	3.1400e-01	14.9162	81.020918	0.000627	6.265384	2.122769	-0.050010
 630	3.1450e-01	14.8841	80.883792	0.000344	3.435856	1.164099	-0.027425
 631	3.1500e-01	14.8359	80.581310	0.000758	7.579093	2.567866	-0.060496
 632	3.1550e-01	14.7910	80.307059	0.000687	6.871711	2.328199	-0.054850
 633	3.1600e-01	14.7477	80.173967	0.000333	3.334801	1.129861	-0.026618
 634	3.1650e-01	14.7204	80.052974	0.000303	3.031637	1.027147	-0.024199
 635	3.1700e-01	14.6595	79.754525	0.000748	7.478039	2.533628	-0.059690
 636	3.1750e-01	14.6370	79.581102	0.000435	4.345347	1.472243	-0.034685
 637	3.1800e-01	14.5953	79.395579	0.000465	4.648511	1.574958	-0.037105
 638	3.1850e-01	14.5520	79.290719	0.000263	2.627419	0.890194	-0.020972
 639	3.1900e-01	14.5071	79.089064	0.000505	5.052729	1.711911	-0.040331
 640	3.1950e-01	14.4686	78.879342	0.000525	5.254838	1.780387	-0.041944
 641	3.2000e-01	14.4349	78.625257	0.000637	6.366438	2.157008	-0.050817
 642	3.2050e-01	14.3836	78.427635	0.000495	4.951674	1.677673	-0.039524
 643	3.2100e-01	14.3515	78.250179	0.000445	4.446401	1.506482	-0.035491
 644	3.2150e-01	14.3146	78.004160	0.000616	6.164329	2.088531	-0.049204
 645	3.2200e-01	14.2664	77.778307	0.000566	5.659056	1.917340	-0.045171
 646	3.2250e-01	14.2328	77.616983	0.000404	4.042183	1.369529	-0.032265
 647	3.2300e-01	14.1862	77.439526	0.000445	4.446401	1.506482	-0.035491
 648	3.2350e-01	14.1509	77.209640	0.000576	5.760111	1.951578	-0.045977
 649	3.2400e-01	14.1108	77.012018	0.000495	4.951674	1.677673	-0.039524
 650	3.2450e-01	14.0595	76.850694	0.000404	4.042183	1.369529	-0.032265
 651	3.2500e-01	14.0322	76.608708	0.000606	6.063275	2.054293	-0.048397
 652	3.2550e-01	13.9889	76.439318	0.000424	4.244292	1.438005	-0.033878
 653	3.2600e-01	13.9520	76.265895	0.000435	4.345347	1.472243	-0.034685
 654	3.2650e-01	13.9103	76.116670	0.000374	3.739019	1.266814	-0.029845
 655	3.2700e-01	13.8686	75.886783	0.000576	5.760111	1.951578	-0.045977
 656	3.2750e-01	13.8269	75.668996	0.000546	5.456947	1.848864	-0.043557
 657	3.2800e-01	13.7916	75.499606	0.000424	4.244292	1.438005	-0.033878
 658	3.2850e-01	13.7515	75.249554	0.000627	6.265384	2.122769	-0.050010
 659	3.2900e-01	13.7034	75.084197	0.000414	4.143238	1.403767	-0.033071
 660	3.2950e-01	13.6665	74.858343	0.000566	5.659056	1.917340	-0.045171
 661	3.3000e-01	13.6296	74.688953	0.000424	4.244292	1.438005	-0.033878
 662	3.3050e-01	13.5846	74.503430	0.000465	4.648511	1.574958	-0.037105
 663	3.3100e-01	13.5477	74.305809	0.000495	4.951674	1.677673	-0.039524
 664	3.3150e-01	13.5189	74.148518	0.000394	3.941128	1.335290	-0.031458
 665	3.3200e-01	13.4756	73.926697	0.000556	5.558002	1.883102	-0.044364
 666	3.3250e-01	13.4114	73.765373	0.000404	4.042183	1.369529	-0.032265
 667	3.3300e-01	13.3841	73.547586	0.000546	5.456947	1.848864	-0.043557
 668	3.3350e-01	13.3504	73.281402	0.000667	6.669602	2.259722	-0.053237
 669	3.3400e-01	13.3087	73.043449	0.000596	5.962220	2.020055	-0.047591
 670	3.3450e-01	13.2750	72.833728	0.000525	5.254838	1.780387	-0.041944
 671	3.3500e-01	13.2205	72.628040	0.000515	5.153783	1.746149	-0.041138
 672	3.3550e-01	13.1900	72.507047	0.000303	3.031637	1.027147	-0.024199
 673	3.3600e-01	13.1499	72.269094	0.000596	5.962220	2.020055	-0.047591
 674	3.3650e-01	13.1114	72.067439	0.000505	5.052729	1.711911	-0.040331
 675	3.3700e-01	13.0617	71.793188	0.000687	6.871711	2.328199	-0.054850
 676	3.3750e-01	13.0264	71.656063	0.000344	3.435856	1.164099	-0.027425
 677	3.3800e-01	12.9831	71.539103	0.000293	2.930583	0.992908	-0.023392
 678	3.3850e-01	12.9478	71.200323	0.000849	8.488584	2.876010	-0.067756
 679	3.3900e-01	12.9093	70.978502	0.000556	5.558002	1.883102	-0.044364
 680	3.3950e-01	12.8772	70.817178	0.000404	4.042183	1.369529	-0.032265
 681	3.4000e-01	12.8371	70.603424	0.000536	5.355893	1.814626	-0.042751
 682	3.4050e-01	12.8002	70.530828	0.000182	1.818982	0.616288	-0.014519
 683	3.4100e-01	12.7456	70.280776	0.000627	6.265384	2.122769	-0.050010
 684	3.4150e-01	12.7135	70.054923	0.000566	5.659056	1.917340	-0.045171
 685	3.4200e-01	12.6750	69.857301	0.000495	4.951674	1.677673	-0.039524
 686	3.4250e-01	12.6253	69.655646	0.000505	5.052729	1.711911	-0.040331
 687	3.4300e-01	12.5900	69.462057	0.000485	4.850620	1.643434	-0.038718
 688	3.4350e-01	12.5531	69.224104	0.000596	5.962220	2.020055	-0.047591
 689	3.4400e-01	12.5146	69.284601	-0.000152	-1.515819	-0.513573	0.012099
 690	3.4450e-01	12.4697	68.816761	0.001172	11.722331	3.971633	-0.093568
 691	3.4500e-01	12.4296	68.707868	0.000273	2.728474	0.924432	-0.021779
 692	3.4550e-01	12.3879	68.449749	0.000647	6.467493	2.191246	-0.051624
 693	3.4600e-01	12.3478	68.316657	0.000333	3.334801	1.129861	-0.026618
 694	3.4650e-01	12.3157	67.957711	0.000899	8.993857	3.047201	-0.071789
 695	3.4700e-01	12.2740	67.784288	0.000435	4.345347	1.472243	-0.034685
 696	3.4750e-01	12.2323	67.538269	0.000616	6.164329	2.088531	-0.049204
 697	3.4800e-01	12.1986	67.376945	0.000404	4.042183	1.369529	-0.032265
 698	3.4850e-01	12.1537	67.203522	0.000435	4.345347	1.472243	-0.034685
 699	3.4900e-01	12.1136	66.953470	0.000627	6.265384	2.122769	-0.050010
 700	3.4950e-01	12.0735	66.723583	0.000576	5.760111	1.951578	-0.045977
 701	3.5000e-01	12.0221	66.546127	0.000445	4.446401	1.506482	-0.035491
 702	3.5050e-01	11.9932	66.352538	0.000485	4.850620	1.643434	-0.038718
 703	3.5100e-01	11.9435	66.175082	0.000445	4.446401	1.506482	-0.035491
 704	3.5150e-01	11.9162	65.953261	0.000556	5.558002	1.883102	-0.044364
 705	3.5200e-01	11.8665	65.795971	0.000394	3.941128	1.335290	-0.031458
 706	3.5250e-01	11.8264	65.586249	0.000525	5.254838	1.780387	-0.041944
 707	3.5300e-01	11.7911	65.324098	0.000657	6.568547	2.225484	-0.052430
 708	3.5350e-01	11.7510	65.227304	0.000243	2.425310	0.821717	-0.019359
 709	3.5400e-01	11.7109	65.005483	0.000556	5.558002	1.883102	-0.044364
 710	3.5450e-01	11.6708	64.783663	0.000556	5.558002	1.883102	-0.044364
 711	3.5500e-01	11.6307	64.456982	0.000819	8.185421	2.773296	-0.065336
 712	3.5550e-01	11.5890	64.287592	0.000424	4.244292	1.438005	-0.033878
 713	3.5600e-01	11.5537	64.102069	0.000465	4.648511	1.574958	-0.037105
 714	3.5650e-01	11.5056	63.872183	0.000576	5.760111	1.951578	-0.045977
 715	3.5700e-01	11.4671	63.618097	0.000637	6.366438	2.157008	-0.050817
 716	3.5750e-01	11.4318	63.513237	0.000263	2.627419	0.890194	-0.020972
 717	3.5800e-01	11.3981	63.299483	0.000536	5.355893	1.814626	-0.042751
 718	3.5850e-01	11.3516	63.005066	0.000738	7.376984	2.499390	-0.058883
 719	3.5900e-01	11.3066	62.839709	0.000414	4.143238	1.403767	-0.033071
 720	3.5950e-01	11.2713	62.601757	0.000596	5.962220	2.020055	-0.047591
 721	3.6000e-01	11.2280	62.480764	0.000303	3.031637	1.027147	-0.024199
 722	3.6050e-01	11.1927	62.242811	0.000596	5.962220	2.020055	-0.047591
 723	3.6100e-01	11.1398	62.033090	0.000525	5.254838	1.780387	-0.041944
 724	3.6150e-01	11.1157	61.899997	0.000333	3.334801	1.129861	-0.026618
 725	3.6200e-01	11.0724	61.633813	0.000667	6.669602	2.259722	-0.053237
 726	3.6250e-01	11.0275	61.444257	0.000475	4.749565	1.609196	-0.037911
 727	3.6300e-01	10.9906	61.246635	0.000495	4.951674	1.677673	-0.039524
 728	3.6350e-01	10.9553	60.972385	0.000687	6.871711	2.328199	-0.054850
 729	3.6400e-01	10.9168	60.726366	0.000616	6.164329	2.088531	-0.049204
 730	3.6450e-01	10.8687	60.536810	0.000475	4.749565	1.609196	-0.037911
 731	3.6500e-01	10.8334	60.294824	0.000606	6.063275	2.054293	-0.048397
 732	3.6550e-01	10.7853	60.137533	0.000394	3.941128	1.335290	-0.031458
 733	3.6600e-01	10.7500	59.931845	0.000515	5.153783	1.746149	-0.041138
 734	3.6650e-01	10.7066	59.766488	0.000414	4.143238	1.403767	-0.033071
 735	3.6700e-01	10.6714	59.464006	0.000758	7.579093	2.567866	-0.060496
 736	3.6750e-01	10.6280	59.238152	0.000566	5.659056	1.917340	-0.045171
 737	3.6800e-01	10.5976	59.040530	0.000495	4.951674	1.677673	-0.039524
 738	3.6850e-01	10.5510	58.927604	0.000283	2.829528	0.958670	-0.022585
 739	3.6900e-01	10.5125	58.697717	0.000576	5.760111	1.951578	-0.045977
 740	3.6950e-01	10.4660	58.439599	0.000647	6.467493	2.191246	-0.051624
 741	3.7000e-01	10.4339	58.274242	0.000414	4.143238	1.403767	-0.033071
 742	3.7050e-01	10.3922	57.971759	0.000758	7.579093	2.567866	-0.060496
 743	3.7100e-01	10.3473	57.737840	0.000586	5.861165	1.985817	-0.046784
 744	3.7150e-01	10.3120	57.673310	0.000162	1.616873	0.547811	-0.012906
 745	3.7200e-01	10.2703	57.463589	0.000525	5.254838	1.780387	-0.041944
 746	3.7250e-01	10.2302	57.217570	0.000616	6.164329	2.088531	-0.049204
 747	3.7300e-01	10.1917	56.907021	0.000778	7.781202	2.636343	-0.062110
 748	3.7350e-01	10.1500	56.749730	0.000394	3.941128	1.335290	-0.031458
 749	3.7400e-01	10.1051	56.499678	0.000627	6.265384	2.122769	-0.050010
 750	3.7450e-01	10.0746	56.302056	0.000495	4.951674	1.677673	-0.039524
 751	3.7500e-01	10.0281	56.177030	0.000313	3.132692	1.061385	-0.025005
 752	3.7550e-01	9.9880	55.987475	0.000475	4.749565	1.609196	-0.037911
 753	3.7600e-01	9.9462	55.737423	0.000627	6.265384	2.122769	-0.050010
 754	3.7650e-01	9.9126	55.547867	0.000475	4.749565	1.609196	-0.037911
 755	3.7700e-01	9.8676	55.386543	0.000404	4.042183	1.369529	-0.032265
 756	3.7750e-01	9.8259	55.124392	0.000657	6.568547	2.225484	-0.052430
 757	3.7800e-01	9.7826	54.862240	0.000657	6.568547	2.225484	-0.052430
 758	3.7850e-01	9.7489	54.600089	0.000657	6.568547	2.225484	-0.052430
 759	3.7900e-01	9.7024	54.398434	0.000505	5.052729	1.711911	-0.040331
 760	3.7950e-01	9.6671	54.144349	0.000637	6.366438	2.157008	-0.050817
 761	3.8000e-01	9.6318	53.991091	0.000384	3.840074	1.301052	-0.030652
 762	3.8050e-01	9.5853	53.813635	0.000445	4.446401	1.506482	-0.035491
 763	3.8100e-01	9.5452	53.559549	0.000637	6.366438	2.157008	-0.050817
 764	3.8150e-01	9.5163	53.317564	0.000606	6.063275	2.054293	-0.048397
 765	3.8200e-01	9.4714	53.111875	0.000515	5.153783	1.746149	-0.041138
 766	3.8250e-01	9.4297	52.942485	0.000424	4.244292	1.438005	-0.033878
 767	3.8300e-01	9.3864	52.724698	0.000546	5.456947	1.848864	-0.043557
 768	3.8350e-01	9.3382	52.559341	0.000414	4.143238	1.403767	-0.033071
 769	3.8400e-01	9.3078	52.228627	0.000829	8.286475	2.807534	-0.066143
 770	3.8450e-01	9.2693	52.095535	0.000333	3.334801	1.129861	-0.026618
 771	3.8500e-01	9.2340	51.837416	0.000647	6.467493	2.191246	-0.051624
 772	3.8550e-01	9.1810	51.571232	0.000667	6.669602	2.259722	-0.053237
 773	3.8600e-01	9.1505	51.357478	0.000536	5.355893	1.814626	-0.042751
 774	3.8650e-01	9.1088	51.188087	0.000424	4.244292	1.438005	-0.033878
 775	3.8700e-01	9.0832	51.014664	0.000435	4.345347	1.472243	-0.034685
 776	3.8750e-01	9.0334	50.776711	0.000596	5.962220	2.020055	-0.047591
 777	3.8800e-01	8.9965	50.534725	0.000606	6.063275	2.054293	-0.048397
 778	3.8850e-01	8.9484	50.252409	0.000707	7.073820	2.396675	-0.056463
 779	3.8900e-01	8.9067	50.147548	0.000263	2.627419	0.890194	-0.020972
 780	3.8950e-01	8.8634	49.909595	0.000596	5.962220	2.020055	-0.047591
 781	3.9000e-01	8.8361	49.691808	0.000546	5.456947	1.848864	-0.043557
 782	3.9050e-01	8.7880	49.530484	0.000404	4.042183	1.369529	-0.032265
 783	3.9100e-01	8.7447	49.336895	0.000485	4.850620	1.643434	-0.038718
 784	3.9150e-01	8.7062	49.123141	0.000536	5.355893	1.814626	-0.042751
 785	3.9200e-01	8.6709	48.873089	0.000627	6.265384	2.122769	-0.050010
 786	3.9250e-01	8.6308	48.631103	0.000606	6.063275	2.054293	-0.048397
 787	3.9300e-01	8.5875	48.413316	0.000546	5.456947	1.848864	-0.043557
 788	3.9350e-01	8.5522	48.243925	0.000424	4.244292	1.438005	-0.033878
 789	3.9400e-01	8.5105	48.062436	0.000455	4.547456	1.540720	-0.036298
 790	3.9450e-01	8.4687	47.719623	0.000859	8.589639	2.910248	-0.068563
 791	3.9500e-01	8.4174	47.501835	0.000546	5.456947	1.848864	-0.043557
 792	3.9550e-01	8.3917	47.312280	0.000475	4.749565	1.609196	-0.037911
 793	3.9600e-01	8.3452	47.118691	0.000485	4.850620	1.643434	-0.038718
 794	3.9650e-01	8.3115	46.945268	0.000435	4.345347	1.472243	-0.034685
 795	3.9700e-01	8.2682	46.723447	0.000556	5.558002	1.883102	-0.044364
 796	3.9750e-01	8.2281	46.424998	0.000748	7.478039	2.533628	-0.059690
 797	3.9800e-01	8.1912	46.130582	0.000738	7.376984	2.499390	-0.058883
 798	3.9850e-01	8.1383	46.066052	0.000162	1.616873	0.547811	-0.012906
 799	3.9900e-01	8.1094	45.723239	0.000859	8.589639	2.910248	-0.068563
 800	3.9950e-01	8.0629	45.598213	0.000313	3.132692	1.061385	-0.025005
 801	4.0000e-01	8.0260	45.469154	0.000323	3.233746	1.095623	-0.025812
 802	4.0050e-01	7.9811	45.162638	0.000768	7.680148	2.602105	-0.061303
 803	4.0100e-01	7.9458	44.924685	0.000596	5.962220	2.020055	-0.047591
 804	4.0150e-01	7.9008	44.791593	0.000333	3.334801	1.129861	-0.026618
 805	4.0200e-01	7.8623	44.477011	0.000788	7.882257	2.670581	-0.062916
 806	4.0250e-01	7.8287	44.299555	0.000445	4.446401	1.506482	-0.035491
 807	4.0300e-01	7.7805	44.021271	0.000697	6.972766	2.362437	-0.055657
 808	4.0350e-01	7.7517	43.863980	0.000394	3.941128	1.335290	-0.031458
 809	4.0400e-01	7.7099	43.621994	0.000606	6.063275	2.054293	-0.048397
 810	4.0450e-01	7.6602	43.311446	0.000778	7.781202	2.636343	-0.062110
 811	4.0500e-01	7.6265	43.194486	0.000293	2.930583	0.992908	-0.023392
 812	4.0550e-01	7.5912	43.004930	0.000475	4.749565	1.609196	-0.037911
 813	4.0600e-01	7.5479	42.762944	0.000606	6.063275	2.054293	-0.048397
 814	4.0650e-01	7.5158	42.476594	0.000717	7.174875	2.430913	-0.057270
 815	4.0700e-01	7.4757	42.270906	0.000515	5.153783	1.746149	-0.041138
 816	4.0750e-01	7.4228	42.073285	0.000495	4.951674	1.677673	-0.039524
 817	4.0800e-01	7.3987	41.879696	0.000485	4.850620	1.643434	-0.038718
 818	4.0850e-01	7.3538	41.649809	0.000576	5.760111	1.951578	-0.045977
 819	4.0900e-01	7.3073	41.492518	0.000394	3.941128	1.335290	-0.031458
 820	4.0950e-01	7.2736	41.238433	0.000637	6.366438	2.157008	-0.050817
 821	4.1000e-01	7.2335	40.952083	0.000717	7.174875	2.430913	-0.057270
 822	4.1050e-01	7.1870	40.823024	0.000323	3.233746	1.095623	-0.025812
 823	4.1100e-01	7.1517	40.556840	0.000667	6.669602	2.259722	-0.053237
 824	4.1150e-01	7.1116	40.375350	0.000455	4.547456	1.540720	-0.036298
 825	4.1200e-01	7.0731	40.060768	0.000788	7.882257	2.670581	-0.062916
 826	4.1250e-01	7.0330	39.899444	0.000404	4.042183	1.369529	-0.032265
 827	4.1300e-01	6.9896	39.621161	0.000697	6.972766	2.362437	-0.055657
 828	4.1350e-01	6.9495	39.435638	0.000465	4.648511	1.574958	-0.037105
 829	4.1400e-01	6.9014	39.157354	0.000697	6.972766	2.362437	-0.055657
 830	4.1450e-01	6.8773	39.076692	0.000202	2.021092	0.684764	-0.016132
 831	4.1500e-01	6.8196	38.822607	0.000637	6.366438	2.157008	-0.050817
 832	4.1550e-01	6.7875	38.544323	0.000697	6.972766	2.362437	-0.055657
 833	4.1600e-01	6.7506	38.326536	0.000546	5.456947	1.848864	-0.043557
 834	4.1650e-01	6.7137	38.072451	0.000637	6.366438	2.157008	-0.050817
 835	4.1700e-01	6.6704	37.850630	0.000556	5.558002	1.883102	-0.044364
 836	4.1750e-01	6.6207	37.713505	0.000344	3.435856	1.164099	-0.027425
 837	4.1800e-01	6.5870	37.451354	0.000657	6.568547	2.225484	-0.052430
 838	4.1850e-01	6.5405	37.302129	0.000374	3.739019	1.266814	-0.029845
 839	4.1900e-01	6.4987	37.035944	0.000667	6.669602	2.259722	-0.053237
 840	4.1950e-01	6.4683	36.721363	0.000788	7.882257	2.670581	-0.062916
 841	4.2000e-01	6.4250	36.527774	0.000485	4.850620	1.643434	-0.038718
 842	4.2050e-01	6.3977	36.439046	0.000222	2.223201	0.753241	-0.017746
 843	4.2100e-01	6.3447	36.164795	0.000687	6.871711	2.328199	-0.054850
 844	4.2150e-01	6.3078	35.947008	0.000546	5.456947	1.848864	-0.043557
 845	4.2200e-01	6.2677	35.680823	0.000667	6.669602	2.259722	-0.053237
 846	4.2250e-01	6.2324	35.495301	0.000465	4.648511	1.574958	-0.037105
 847	4.2300e-01	6.1972	35.168620	0.000819	8.185421	2.773296	-0.065336
 848	4.2350e-01	6.1554	34.942766	0.000566	5.659056	1.917340	-0.045171
 849	4.2400e-01	6.1218	34.708847	0.000586	5.861165	1.985817	-0.046784
 850	4.2450e-01	6.0800	34.523324	0.000465	4.648511	1.574958	-0.037105
 851	4.2500e-01	6.0319	34.366033	0.000394	3.941128	1.335290	-0.031458
 852	4.2550e-01	5.9966	34.136147	0.000576	5.760111	1.951578	-0.045977
 853	4.2600e-01	5.9485	33.914326	0.000556	5.558002	1.883102	-0.044364
 854	4.2650e-01	5.9116	33.765101	0.000374	3.739019	1.266814	-0.029845
 855	4.2700e-01	5.8747	33.470685	0.000738	7.376984	2.499390	-0.058883
 856	4.2750e-01	5.8314	33.196435	0.000687	6.871711	2.328199	-0.054850
 857	4.2800e-01	5.7849	33.164170	0.000081	0.808437	0.273906	-0.006453
 858	4.2850e-01	5.7448	32.845555	0.000798	7.983312	2.704819	-0.063723
 859	4.2900e-01	5.7079	32.551139	0.000738	7.376984	2.499390	-0.058883
 860	4.2950e-01	5.6790	32.317219	0.000586	5.861165	1.985817	-0.046784
 861	4.3000e-01	5.6260	32.063134	0.000637	6.366438	2.157008	-0.050817
 862	4.3050e-01	5.5972	31.893744	0.000424	4.244292	1.438005	-0.033878
 863	4.3100e-01	5.5474	31.667890	0.000566	5.659056	1.917340	-0.045171
 864	4.3150e-01	5.5041	31.470268	0.000495	4.951674	1.677673	-0.039524
 865	4.3200e-01	5.4672	31.232316	0.000596	5.962220	2.020055	-0.047591
 866	4.3250e-01	5.4239	31.002429	0.000576	5.760111	1.951578	-0.045977
 867	4.3300e-01	5.3790	30.800774	0.000505	5.052729	1.711911	-0.040331
 868	4.3350e-01	5.3517	30.522490	0.000697	6.972766	2.362437	-0.055657
 869	4.3400e-01	5.3148	30.304703	0.000546	5.456947	1.848864	-0.043557
 870	4.3450e-01	5.2683	30.103048	0.000505	5.052729	1.711911	-0.040331
 871	4.3500e-01	5.2218	29.929625	0.000435	4.345347	1.472243	-0.034685
 872	4.3550e-01	5.1929	29.760235	0.000424	4.244292	1.438005	-0.033878
 873	4.3600e-01	5.1448	29.477918	0.000707	7.073820	2.396675	-0.056463
 874	4.3650e-01	5.1079	29.239965	0.000596	5.962220	2.020055	-0.047591
 875	4.3700e-01	5.0678	29.010078	0.000576	5.760111	1.951578	-0.045977
 876	4.3750e-01	5.0212	28.780192	0.000576	5.760111	1.951578	-0.045977
 877	4.3800e-01	4.9860	28.534173	0.000616	6.164329	2.088531	-0.049204
 878	4.3850e-01	4.9458	28.288154	0.000616	6.164329	2.088531	-0.049204
 879	4.3900e-01	4.9073	28.042135	0.000616	6.164329	2.088531	-0.049204
 880	4.3950e-01	4.8656	27.872744	0.000424	4.244292	1.438005	-0.033878
 881	4.4000e-01	4.8303	27.642858	0.000576	5.760111	1.951578	-0.045977
 882	4.4050e-01	4.7999	27.445236	0.000495	4.951674	1.677673	-0.039524
 883	4.4100e-01	4.7533	27.251647	0.000485	4.850620	1.643434	-0.038718
 884	4.4150e-01	4.7132	26.904801	0.000869	8.690694	2.944487	-0.069369
 885	4.4200e-01	4.6699	26.678947	0.000566	5.659056	1.917340	-0.045171
 886	4.4250e-01	4.6314	26.473259	0.000515	5.153783	1.746149	-0.041138
 887	4.4300e-01	4.5961	26.324035	0.000374	3.739019	1.266814	-0.029845
 888	4.4350e-01	4.5512	26.082049	0.000606	6.063275	2.054293	-0.048397
 889	4.4400e-01	4.5143	25.856195	0.000566	5.659056	1.917340	-0.045171
 890	4.4450e-01	4.4678	25.529514	0.000819	8.185421	2.773296	-0.065336
 891	4.4500e-01	4.4277	25.368190	0.000404	4.042183	1.369529	-0.032265
 892	4.4550e-01	4.3844	25.142337	0.000566	5.659056	1.917340	-0.045171
 893	4.4600e-01	4.3443	24.944715	0.000495	4.951674	1.677673	-0.039524
 894	4.4650e-01	4.3042	24.702729	0.000606	6.063275	2.054293	-0.048397
 895	4.4700e-01	4.2689	24.488975	0.000536	5.355893	1.814626	-0.042751
 896	4.4750e-01	4.2400	24.214724	0.000687	6.871711	2.328199	-0.054850
 897	4.4800e-01	4.1903	24.013069	0.000505	5.052729	1.711911	-0.040331
 898	4.4850e-01	4.1389	23.879977	0.000333	3.334801	1.129861	-0.026618
 899	4.4900e-01	4.1020	23.529097	0.000879	8.791748	2.978725	-0.070176
 900	4.4950e-01	4.0667	23.335509	0.000485	4.850620	1.643434	-0.038718
 901	4.5000e-01	4.0346	23.158052	0.000445	4.446401	1.506482	-0.035491
 902	4.5050e-01	3.9897	22.871702	0.000717	7.174875	2.430913	-0.057270
 903	4.5100e-01	3.9544	22.666014	0.000515	5.153783	1.746149	-0.041138
 904	4.5150e-01	3.9047	22.432094	0.000586	5.861165	1.985817	-0.046784
 905	4.5200e-01	3.8710	22.149778	0.000707	7.073820	2.396675	-0.056463
 906	4.5250e-01	3.8229	22.020718	0.000323	3.233746	1.095623	-0.025812
 907	4.5300e-01	3.7908	21.774699	0.000616	6.164329	2.088531	-0.049204
 908	4.5350e-01	3.7571	21.488349	0.000717	7.174875	2.430913	-0.057270
 909	4.5400e-01	3.7138	21.286694	0.000505	5.052729	1.711911	-0.040331
 910	4.5450e-01	3.6689	21.068907	0.000546	5.456947	1.848864	-0.043557
 911	4.5500e-01	3.6224	20.855153	0.000536	5.355893	1.814626	-0.042751
 912	4.5550e-01	3.5823	20.669630	0.000465	4.648511	1.574958	-0.037105
 913	4.5600e-01	3.5534	20.407479	0.000657	6.568547	2.225484	-0.052430
 914	4.5650e-01	3.5101	20.068699	0.000849	8.488584	2.876010	-0.067756
 915	4.5700e-01	3.4684	19.939639	0.000323	3.233746	1.095623	-0.025812
 916	4.5750e-01	3.4298	19.717819	0.000556	5.558002	1.883102	-0.044364
 917	4.5800e-01	3.3962	19.459701	0.000647	6.467493	2.191246	-0.051624
 918	4.5850e-01	3.3528	19.254013	0.000515	5.153783	1.746149	-0.041138
 919	4.5900e-01	3.3079	18.975729	0.000697	6.972766	2.362437	-0.055657
 920	4.5950e-01	3.2662	18.766008	0.000525	5.254838	1.780387	-0.041944
 921	4.6000e-01	3.2406	18.495790	0.000677	6.770657	2.293961	-0.054044
 922	4.6050e-01	3.1988	18.407062	0.000222	2.223201	0.753241	-0.017746
 923	4.6100e-01	3.1443	18.225573	0.000455	4.547456	1.540720	-0.036298
 924	4.6150e-01	3.1058	17.915024	0.000778	7.781202	2.636343	-0.062110
 925	4.6200e-01	3.0721	17.608508	0.000768	7.680148	2.602105	-0.061303
 926	4.6250e-01	3.0304	17.443151	0.000414	4.143238	1.403767	-0.033071
 927	4.6300e-01	2.9839	17.172934	0.000677	6.770657	2.293961	-0.054044
 928	4.6350e-01	2.9406	16.963213	0.000525	5.254838	1.780387	-0.041944
 929	4.6400e-01	2.9101	16.733326	0.000576	5.760111	1.951578	-0.045977
 930	4.6450e-01	2.8555	16.426811	0.000768	7.680148	2.602105	-0.061303
 931	4.6500e-01	2.8283	16.305818	0.000303	3.031637	1.027147	-0.024199
 932	4.6550e-01	2.7978	16.019468	0.000717	7.174875	2.430913	-0.057270
 933	4.6600e-01	2.7448	15.797647	0.000556	5.558002	1.883102	-0.044364
 934	4.6650e-01	2.7063	15.595992	0.000505	5.052729	1.711911	-0.040331
 935	4.6700e-01	2.6743	15.349973	0.000616	6.164329	2.088531	-0.049204
 936	4.6750e-01	2.6406	15.176550	0.000435	4.345347	1.472243	-0.034685
 937	4.6800e-01	2.5908	14.914399	0.000657	6.568547	2.225484	-0.052430
 938	4.6850e-01	2.5507	14.611916	0.000758	7.579093	2.567866	-0.060496
 939	4.6900e-01	2.5042	14.414294	0.000495	4.951674	1.677673	-0.039524
 940	4.6950e-01	2.4641	14.228772	0.000465	4.648511	1.574958	-0.037105
 941	4.7000e-01	2.4320	13.986786	0.000606	6.063275	2.054293	-0.048397
 942	4.7050e-01	2.3903	13.781098	0.000515	5.153783	1.746149	-0.041138
 943	4.7100e-01	2.3470	13.579443	0.000505	5.052729	1.711911	-0.040331
 944	4.7150e-01	2.3101	13.325358	0.000637	6.366438	2.157008	-0.050817
 945	4.7200e-01	2.2652	13.151935	0.000435	4.345347	1.472243	-0.034685
 946	4.7250e-01	2.2315	12.998677	0.000384	3.840074	1.301052	-0.030652
 947	4.7300e-01	2.1882	12.639731	0.000899	8.993857	3.047201	-0.071789
 948	4.7350e-01	2.1481	12.442109	0.000495	4.951674	1.677673	-0.039524
 949	4.7400e-01	2.1080	12.131561	0.000778	7.781202	2.636343	-0.062110
 950	4.7450e-01	2.0743	11.877475	0.000637	6.366438	2.157008	-0.050817
 951	4.7500e-01	2.0245	11.671787	0.000515	5.153783	1.746149	-0.041138
 952	4.7550e-01	1.9973	11.462066	0.000525	5.254838	1.780387	-0.041944
 953	4.7600e-01	1.9572	11.288643	0.000435	4.345347	1.472243	-0.034685
 954	4.7650e-01	1.9090	10.953896	0.000839	8.387530	2.841772	-0.066949
 955	4.7700e-01	1.8721	10.780473	0.000435	4.345347	1.472243	-0.034685
 956	4.7750e-01	1.8224	10.550586	0.000576	5.760111	1.951578	-0.045977
 957	4.7800e-01	1.7887	10.316666	0.000586	5.861165	1.985817	-0.046784
 958	4.7850e-01	1.7518	10.098879	0.000546	5.456947	1.848864	-0.043557
 959	4.7900e-01	1.7101	9.913356	0.000465	4.648511	1.574958	-0.037105
 960	4.7950e-01	1.6588	9.731867	0.000455	4.547456	1.540720	-0.036298
 961	4.8000e-01	1.6251	9.437451	0.000738	7.376984	2.499390	-0.058883
 962	4.8050e-01	1.5994	9.114803	0.000808	8.084366	2.739057	-0.064530
 963	4.8100e-01	1.5513	8.933313	0.000455	4.547456	1.540720	-0.036298
 964	4.8150e-01	1.5112	8.699394	0.000586	5.861165	1.985817	-0.046784
 965	4.8200e-01	1.4647	8.489673	0.000525	5.254838	1.780387	-0.041944
 966	4.8250e-01	1.4262	8.275918	0.000536	5.355893	1.814626	-0.042751
 967	4.8300e-01	1.3909	8.082330	0.000485	4.850620	1.643434	-0.038718
 968	4.8350e-01	1.3572	7.872608	0.000525	5.254838	1.780387	-0.041944
 969	4.8400e-01	1.3107	7.553994	0.000798	7.983312	2.704819	-0.063723
 970	4.8450e-01	1.2738	7.271677	0.000707	7.073820	2.396675	-0.056463
 971	4.8500e-01	1.2288	7.057923	0.000536	5.355893	1.814626	-0.042751
 972	4.8550e-01	1.1952	6.856268	0.000505	5.052729	1.711911	-0.040331
 973	4.8600e-01	1.1454	6.682844	0.000435	4.345347	1.472243	-0.034685
 974	4.8650e-01	1.1053	6.396494	0.000717	7.174875	2.430913	-0.057270
 975	4.8700e-01	1.0764	6.202906	0.000485	4.850620	1.643434	-0.038718
 976	4.8750e-01	1.0315	5.944787	0.000647	6.467493	2.191246	-0.051624
 977	4.8800e-01	0.9866	5.714901	0.000576	5.760111	1.951578	-0.045977
 978	4.8850e-01	0.9529	5.436617	0.000697	6.972766	2.362437	-0.055657
 979	4.8900e-01	0.9128	5.263194	0.000435	4.345347	1.472243	-0.034685
 980	4.8950e-01	0.8711	5.037340	0.000566	5.659056	1.917340	-0.045171
 981	4.9000e-01	0.8262	4.787288	0.000627	6.265384	2.122769	-0.050010
 982	4.9050e-01	0.7909	4.569501	0.000546	5.456947	1.848864	-0.043557
 983	4.9100e-01	0.7492	4.299283	0.000677	6.770657	2.293961	-0.054044
 984	4.9150e-01	0.7107	4.097628	0.000505	5.052729	1.711911	-0.040331
 985	4.9200e-01	0.6625	3.827411	0.000677	6.770657	2.293961	-0.054044
 986	4.9250e-01	0.6273	3.670120	0.000394	3.941128	1.335290	-0.031458
 987	4.9300e-01	0.5920	3.420068	0.000627	6.265384	2.122769	-0.050010
 988	4.9350e-01	0.5503	3.161949	0.000647	6.467493	2.191246	-0.051624
 989	4.9400e-01	0.5101	2.972394	0.000475	4.749565	1.609196	-0.037911
 990	4.9450e-01	0.4732	2.803004	0.000424	4.244292	1.438005	-0.033878
 991	4.9500e-01	0.4251	2.593282	0.000525	5.254838	1.780387	-0.041944
 992	4.9550e-01	0.3930	2.242403	0.000879	8.791748	2.978725	-0.070176
 993	4.9600e-01	0.3529	1.992351	0.000627	6.265384	2.122769	-0.050010
 994	4.9650e-01	0.3096	1.847159	0.000364	3.637965	1.232576	-0.029038
 995	4.9700e-01	0.2711	1.629372	0.000546	5.456947	1.848864	-0.043557
 996	4.9750e-01	0.2374	1.347055	0.000707	7.073820	2.396675	-0.056463
 997	4.9800e-01	0.1925	1.101036	0.000616	6.164329	2.088531	-0.049204
 998	4.9850e-01	0.1492	0.879215	0.000556	5.558002	1.883102	-0.044364
 999	4.9900e-01	0.1107	0.721925	0.000394	3.941128	1.335290	-0.031458
1000	4.9950e-01	0.0706	0.604965	0.000293	2.930583	0.992908	-0.023392
1001	5.0000e-01	0.0289	0.237953	0.000920	9.195966	3.115678	-0.073402
1002	5.0050e-01	-0.0128	-0.004033	0.000606	6.063275	2.054293	-0.048397
1003	5.0100e-01	-0.0529	-0.201655	0.000495	4.951674	1.677673	-0.039524
1004	5.0150e-01	-0.0786	-0.391211	0.000475	4.749565	1.609196	-0.037911
1005	5.0200e-01	-0.1299	-0.681594	0.000728	7.275930	2.465152	-0.058077
1006	5.0250e-01	-0.1636	-0.850984	0.000424	4.244292	1.438005	-0.033878
1007	5.0300e-01	-0.1957	-1.101036	0.000627	6.265384	2.122769	-0.050010
1008	5.0350e-01	-0.2326	-1.399485	0.000748	7.478039	2.533628	-0.059690
1009	5.0400e-01	-0.2807	-1.520478	0.000303	3.031637	1.027147	-0.024199
1010	5.0450e-01	-0.3321	-1.746332	0.000566	5.659056	1.917340	-0.045171
1011	5.0500e-01	-0.3658	-1.895556	0.000374	3.739019	1.266814	-0.029845
1012	5.0550e-01	-0.4043	-2.258535	0.000909	9.094912	3.081440	-0.072596
1013	5.0600e-01	-0.4412	-2.492455	0.000586	5.861165	1.985817	-0.046784
1014	5.0650e-01	-0.4893	-2.702176	0.000525	5.254838	1.780387	-0.041944
1015	5.0700e-01	-0.5358	-3.004658	0.000758	7.579093	2.567866	-0.060496
1016	5.0750e-01	-0.5647	-3.174049	0.000424	4.244292	1.438005	-0.033878
1017	5.0800e-01	-0.6048	-3.403935	0.000576	5.760111	1.951578	-0.045977
1018	5.0850e-01	-0.6481	-3.633822	0.000576	5.760111	1.951578	-0.045977
1019	5.0900e-01	-0.6802	-3.851609	0.000546	5.456947	1.848864	-0.043557
1020	5.0950e-01	-0.7331	-4.049231	0.000495	4.951674	1.677673	-0.039524
1021	5.1000e-01	-0.7652	-4.287184	0.000596	5.962220	2.020055	-0.047591
1022	5.1050e-01	-0.8069	-4.529170	0.000606	6.063275	2.054293	-0.048397
1023	5.1100e-01	-0.8406	-4.738891	0.000525	5.254838	1.780387	-0.041944
1024	5.1150e-01	-0.8791	-4.968777	0.000576	5.760111	1.951578	-0.045977
1025	5.1200e-01	-0.9144	-5.226896	0.000647	6.467493	2.191246	-0.051624
1026	5.1250e-01	-0.9625	-5.432584	0.000515	5.153783	1.746149	-0.041138
1027	5.1300e-01	-1.0075	-5.682636	0.000627	6.265384	2.122769	-0.050010
1028	5.1350e-01	-1.0492	-5.884291	0.000505	5.052729	1.711911	-0.040331
1029	5.1400e-01	-1.0877	-6.025449	0.000354	3.536910	1.198338	-0.028232
1030	5.1450e-01	-1.1214	-6.348097	0.000808	8.084366	2.739057	-0.064530
1031	5.1500e-01	-1.1727	-6.650580	0.000758	7.579093	2.567866	-0.060496
1032	5.1550e-01	-1.2064	-6.868367	0.000546	5.456947	1.848864	-0.043557
1033	5.1600e-01	-1.2417	-7.037757	0.000424	4.244292	1.438005	-0.033878
1034	5.1650e-01	-1.2850	-7.279743	0.000606	6.063275	2.054293	-0.048397
1035	5.1700e-01	-1.3299	-7.562060	0.000707	7.073820	2.396675	-0.056463
1036	5.1750e-01	-1.3668	-7.747582	0.000465	4.648511	1.574958	-0.037105
1037	5.1800e-01	-1.3973	-7.937138	0.000475	4.749565	1.609196	-0.037911
1038	5.1850e-01	-1.4470	-8.158958	0.000556	5.558002	1.883102	-0.044364
1039	5.1900e-01	-1.4855	-8.364647	0.000515	5.153783	1.746149	-0.041138
1040	5.1950e-01	-1.5320	-8.650997	0.000717	7.174875	2.430913	-0.057270
1041	5.2000e-01	-1.5609	-8.888949	0.000596	5.962220	2.020055	-0.047591
1042	5.2050e-01	-1.6026	-9.082538	0.000485	4.850620	1.643434	-0.038718
1043	5.2100e-01	-1.6443	-9.304358	0.000556	5.558002	1.883102	-0.044364
1044	5.2150e-01	-1.6796	-9.598775	0.000738	7.376984	2.499390	-0.058883
1045	5.2200e-01	-1.7246	-9.780264	0.000455	4.547456	1.540720	-0.036298
1046	5.2250e-01	-1.7631	-9.989985	0.000525	5.254838	1.780387	-0.041944
1047	5.2300e-01	-1.8032	-10.215839	0.000566	5.659056	1.917340	-0.045171
1048	5.2350e-01	-1.8577	-10.433626	0.000546	5.456947	1.848864	-0.043557
1049	5.2400e-01	-1.8850	-10.691744	0.000647	6.467493	2.191246	-0.051624
1050	5.2450e-01	-1.9219	-10.933730	0.000606	6.063275	2.054293	-0.048397
1051	5.2500e-01	-1.9684	-11.159584	0.000566	5.659056	1.917340	-0.045171
1052	5.2550e-01	-2.0069	-11.337040	0.000445	4.446401	1.506482	-0.035491
1053	5.2600e-01	-2.0470	-11.611291	0.000687	6.871711	2.328199	-0.054850
1054	5.2650e-01	-2.0855	-11.825045	0.000536	5.355893	1.814626	-0.042751
1055	5.2700e-01	-2.1272	-12.050899	0.000566	5.659056	1.917340	-0.045171
1056	5.2750e-01	-2.1593	-12.264653	0.000536	5.355893	1.814626	-0.042751
1057	5.2800e-01	-2.2058	-12.502606	0.000596	5.962220	2.020055	-0.047591
1058	5.2850e-01	-2.2411	-12.752658	0.000627	6.265384	2.122769	-0.050010
1059	5.2900e-01	-2.2796	-12.982544	0.000576	5.760111	1.951578	-0.045977
1060	5.2950e-01	-2.3181	-13.224530	0.000606	6.063275	2.054293	-0.048397
1061	5.3000e-01	-2.3630	-13.430218	0.000515	5.153783	1.746149	-0.041138
1062	5.3050e-01	-2.4047	-13.648006	0.000546	5.456947	1.848864	-0.043557
1063	5.3100e-01	-2.4481	-13.861760	0.000536	5.355893	1.814626	-0.042751
1064	5.3150e-01	-2.4866	-14.071481	0.000525	5.254838	1.780387	-0.041944
1065	5.3200e-01	-2.5299	-14.382030	0.000778	7.781202	2.636343	-0.062110
1066	5.3250e-01	-2.5604	-14.611916	0.000576	5.760111	1.951578	-0.045977
1067	5.3300e-01	-2.6101	-14.753075	0.000354	3.536910	1.198338	-0.028232
1068	5.3350e-01	-2.6358	-15.003127	0.000627	6.265384	2.122769	-0.050010
1069	5.3400e-01	-2.6839	-15.212848	0.000525	5.254838	1.780387	-0.041944
1070	5.3450e-01	-2.7304	-15.422569	0.000525	5.254838	1.780387	-0.041944
1071	5.3500e-01	-2.7673	-15.660522	0.000596	5.962220	2.020055	-0.047591
1072	5.3550e-01	-2.8074	-15.983170	0.000808	8.084366	2.739057	-0.064530
1073	5.3600e-01	-2.8443	-16.136428	0.000384	3.840074	1.301052	-0.030652
1074	5.3650e-01	-2.8892	-16.285652	0.000374	3.739019	1.266814	-0.029845
1075	5.3700e-01	-2.9165	-16.592168	0.000768	7.680148	2.602105	-0.061303
1076	5.3750e-01	-2.9662	-16.878518	0.000717	7.174875	2.430913	-0.057270
1077	5.3800e-01	-3.0111	-17.156801	0.000697	6.972766	2.362437	-0.055657
1078	5.3850e-01	-3.0368	-17.382655	0.000566	5.659056	1.917340	-0.045171
1079	5.3900e-01	-3.0801	-17.507681	0.000313	3.132692	1.061385	-0.025005
1080	5.3950e-01	-3.1347	-17.737568	0.000576	5.760111	1.951578	-0.045977
1081	5.4000e-01	-3.1571	-17.935189	0.000495	4.951674	1.677673	-0.039524
1082	5.4050e-01	-3.2020	-18.112646	0.000445	4.446401	1.506482	-0.035491
1083	5.4100e-01	-3.2470	-18.459492	0.000869	8.690694	2.944487	-0.069369
1084	5.4150e-01	-3.2823	-18.705511	0.000616	6.164329	2.088531	-0.049204
1085	5.4200e-01	-3.3224	-18.911199	0.000515	5.153783	1.746149	-0.041138
1086	5.4250e-01	-3.3641	-19.056391	0.000364	3.637965	1.232576	-0.029038
1087	5.4300e-01	-3.3978	-19.262079	0.000515	5.153783	1.746149	-0.041138
1088	5.4350e-01	-3.4475	-19.536330	0.000687	6.871711	2.328199	-0.054850
1089	5.4400e-01	-3.4812	-19.766216	0.000576	5.760111	1.951578	-0.045977
1090	5.4450e-01	-3.5213	-19.996103	0.000576	5.760111	1.951578	-0.045977
1091	5.4500e-01	-3.5614	-20.242122	0.000616	6.164329	2.088531	-0.049204
1092	5.4550e-01	-3.6079	-20.431678	0.000475	4.749565	1.609196	-0.037911
1093	5.4600e-01	-3.6432	-20.738193	0.000768	7.680148	2.602105	-0.061303
1094	5.4650e-01	-3.6962	-20.859186	0.000303	3.031637	1.027147	-0.024199
1095	5.4700e-01	-3.7202	-21.109238	0.000627	6.265384	2.122769	-0.050010
1096	5.4750e-01	-3.7571	-21.327025	0.000546	5.456947	1.848864	-0.043557
1097	5.4800e-01	-3.8068	-21.516581	0.000475	4.749565	1.609196	-0.037911
1098	5.4850e-01	-3.8293	-21.726302	0.000525	5.254838	1.780387	-0.041944
1099	5.4900e-01	-3.8822	-22.004586	0.000697	6.972766	2.362437	-0.055657
1100	5.4950e-01	-3.9143	-22.274804	0.000677	6.770657	2.293961	-0.054044
1101	5.5000e-01	-3.9625	-22.424028	0.000374	3.739019	1.266814	-0.029845
1102	5.5050e-01	-4.0074	-22.702312	0.000697	6.972766	2.362437	-0.055657
1103	5.5100e-01	-4.0427	-22.940265	0.000596	5.962220	2.020055	-0.047591
1104	5.5150e-01	-4.0828	-23.121754	0.000455	4.547456	1.540720	-0.036298
1105	5.5200e-01	-4.1277	-23.299211	0.000445	4.446401	1.506482	-0.035491
1106	5.5250e-01	-4.1710	-23.589594	0.000728	7.275930	2.465152	-0.058077
1107	5.5300e-01	-4.2031	-23.843679	0.000637	6.366438	2.157008	-0.050817
1108	5.5350e-01	-4.2480	-24.069532	0.000566	5.659056	1.917340	-0.045171
1109	5.5400e-01	-4.2833	-24.299419	0.000576	5.760111	1.951578	-0.045977
1110	5.5450e-01	-4.3218	-24.456710	0.000394	3.941128	1.335290	-0.031458
1111	5.5500e-01	-4.3651	-24.702729	0.000616	6.164329	2.088531	-0.049204
1112	5.5550e-01	-4.4084	-24.924549	0.000556	5.558002	1.883102	-0.044364
1113	5.5600e-01	-4.4517	-25.174601	0.000627	6.265384	2.122769	-0.050010
1114	5.5650e-01	-4.4838	-25.335925	0.000404	4.042183	1.369529	-0.032265
1115	5.5700e-01	-4.5255	-25.598077	0.000657	6.568547	2.225484	-0.052430
1116	5.5750e-01	-4.5656	-25.827963	0.000576	5.760111	1.951578	-0.045977
1117	5.5800e-01	-4.6025	-26.033651	0.000515	5.153783	1.746149	-0.041138
1118	5.5850e-01	-4.6426	-26.239340	0.000515	5.153783	1.746149	-0.041138
1119	5.5900e-01	-4.6860	-26.525690	0.000717	7.174875	2.430913	-0.057270
1120	5.5950e-01	-4.7261	-26.682980	0.000394	3.941128	1.335290	-0.031458
1121	5.6000e-01	-4.7630	-26.937066	0.000637	6.366438	2.157008	-0.050817
1122	5.6050e-01	-4.8047	-27.154853	0.000546	5.456947	1.848864	-0.043557
1123	5.6100e-01	-4.8464	-27.332309	0.000445	4.446401	1.506482	-0.035491
1124	5.6150e-01	-4.8801	-27.602527	0.000677	6.770657	2.293961	-0.054044
1125	5.6200e-01	-4.9298	-27.804182	0.000505	5.052729	1.711911	-0.040331
1126	5.6250e-01	-4.9619	-28.021969	0.000546	5.456947	1.848864	-0.043557
1127	5.6300e-01	-5.0052	-28.267988	0.000616	6.164329	2.088531	-0.049204
1128	5.6350e-01	-5.0549	-28.388981	0.000303	3.031637	1.027147	-0.024199
1129	5.6400e-01	-5.0966	-28.626934	0.000596	5.962220	2.020055	-0.047591
1130	5.6450e-01	-5.1223	-28.957648	0.000829	8.286475	2.807534	-0.066143
1131	5.6500e-01	-5.1576	-29.086707	0.000323	3.233746	1.095623	-0.025812
1132	5.6550e-01	-5.2025	-29.373057	0.000717	7.174875	2.430913	-0.057270
1133	5.6600e-01	-5.2555	-29.639242	0.000667	6.669602	2.259722	-0.053237
1134	5.6650e-01	-5.2827	-29.792499	0.000384	3.840074	1.301052	-0.030652
1135	5.6700e-01	-5.3293	-30.042551	0.000627	6.265384	2.122769	-0.050010
1136	5.6750e-01	-5.3742	-30.224041	0.000455	4.547456	1.540720	-0.036298
1137	5.6800e-01	-5.4015	-30.461994	0.000596	5.962220	2.020055	-0.047591
1138	5.6850e-01	-5.4528	-30.643483	0.000455	4.547456	1.540720	-0.036298
1139	5.6900e-01	-5.4833	-30.877403	0.000586	5.861165	1.985817	-0.046784
1140	5.6950e-01	-5.5330	-31.151654	0.000687	6.871711	2.328199	-0.054850
1141	5.7000e-01	-5.5667	-31.345242	0.000485	4.850620	1.643434	-0.038718
1142	5.7050e-01	-5.6020	-31.696122	0.000879	8.791748	2.978725	-0.070176
1143	5.7100e-01	-5.6581	-31.849380	0.000384	3.840074	1.301052	-0.030652
1144	5.7150e-01	-5.6870	-32.047001	0.000495	4.951674	1.677673	-0.039524
1145	5.7200e-01	-5.7255	-32.284954	0.000596	5.962220	2.020055	-0.047591
1146	5.7250e-01	-5.7640	-32.559205	0.000687	6.871711	2.328199	-0.054850
1147	5.7300e-01	-5.7961	-32.676165	0.000293	2.930583	0.992908	-0.023392
1148	5.7350e-01	-5.8442	-32.926217	0.000627	6.265384	2.122769	-0.050010
1149	5.7400e-01	-5.8827	-33.079475	0.000384	3.840074	1.301052	-0.030652
1150	5.7450e-01	-5.9196	-33.385990	0.000768	7.680148	2.602105	-0.061303
1151	5.7500e-01	-5.9694	-33.672340	0.000717	7.174875	2.430913	-0.057270
1152	5.7550e-01	-6.0079	-33.793333	0.000303	3.031637	1.027147	-0.024199
1153	5.7600e-01	-6.0415	-33.857863	0.000162	1.616873	0.547811	-0.012906
1154	5.7650e-01	-6.0945	-33.986922	0.000323	3.233746	1.095623	-0.025812
1155	5.7700e-01	-6.1282	-34.450728	0.001162	11.621276	3.937395	-0.092761
1156	5.7750e-01	-6.1570	-34.636251	0.000465	4.648511	1.574958	-0.037105
1157	5.7800e-01	-6.2100	-34.858071	0.000556	5.558002	1.883102	-0.044364
1158	5.7850e-01	-6.2533	-35.112156	0.000637	6.366438	2.157008	-0.050817
1159	5.7900e-01	-6.2806	-35.293646	0.000455	4.547456	1.540720	-0.036298
1160	5.7950e-01	-6.3287	-35.531599	0.000596	5.962220	2.020055	-0.047591
1161	5.8000e-01	-6.3688	-35.753419	0.000556	5.558002	1.883102	-0.044364
1162	5.8050e-01	-6.4041	-35.967173	0.000536	5.355893	1.814626	-0.042751
1163	5.8100e-01	-6.4522	-36.338218	0.000930	9.297021	3.149916	-0.074209
1164	5.8150e-01	-6.4795	-36.451145	0.000283	2.829528	0.958670	-0.022585
1165	5.8200e-01	-6.5244	-36.620535	0.000424	4.244292	1.438005	-0.033878
1166	5.8250e-01	-6.5613	-36.814124	0.000485	4.850620	1.643434	-0.038718
1167	5.8300e-01	-6.6030	-36.991580	0.000445	4.446401	1.506482	-0.035491
1168	5.8350e-01	-6.6463	-37.245666	0.000637	6.366438	2.157008	-0.050817
1169	5.8400e-01	-6.6784	-37.439254	0.000485	4.850620	1.643434	-0.038718
1170	5.8450e-01	-6.7185	-37.697373	0.000647	6.467493	2.191246	-0.051624
1171	5.8500e-01	-6.7570	-37.931292	0.000586	5.861165	1.985817	-0.046784
1172	5.8550e-01	-6.7971	-38.185378	0.000637	6.366438	2.157008	-0.050817
1173	5.8600e-01	-6.8437	-38.322503	0.000344	3.435856	1.164099	-0.027425
1174	5.8650e-01	-6.8870	-38.629018	0.000768	7.680148	2.602105	-0.061303
1175	5.8700e-01	-6.9239	-38.770177	0.000354	3.536910	1.198338	-0.028232
1176	5.8750e-01	-6.9624	-39.016196	0.000616	6.164329	2.088531	-0.049204
1177	5.8800e-01	-7.0057	-39.205752	0.000475	4.749565	1.609196	-0.037911
1178	5.8850e-01	-7.0458	-39.403373	0.000495	4.951674	1.677673	-0.039524
1179	5.8900e-01	-7.0827	-39.621161	0.000546	5.456947	1.848864	-0.043557
1180	5.8950e-01	-7.1180	-39.899444	0.000697	6.972766	2.362437	-0.055657
1181	5.9000e-01	-7.1597	-40.068835	0.000424	4.244292	1.438005	-0.033878
1182	5.9050e-01	-7.1934	-40.306787	0.000596	5.962220	2.020055	-0.047591
1183	5.9100e-01	-7.2431	-40.512475	0.000515	5.153783	1.746149	-0.041138
1184	5.9150e-01	-7.2848	-40.730263	0.000546	5.456947	1.848864	-0.043557
1185	5.9200e-01	-7.3265	-40.927885	0.000495	4.951674	1.677673	-0.039524
1186	5.9250e-01	-7.3570	-41.121473	0.000485	4.850620	1.643434	-0.038718
1187	5.9300e-01	-7.4067	-41.331194	0.000525	5.254838	1.780387	-0.041944
1188	5.9350e-01	-7.4372	-41.585280	0.000637	6.366438	2.157008	-0.050817
1189	5.9400e-01	-7.4854	-41.778868	0.000485	4.850620	1.643434	-0.038718
1190	5.9450e-01	-7.5271	-41.915994	0.000344	3.435856	1.164099	-0.027425
1191	5.9500e-01	-7.5591	-42.170079	0.000637	6.366438	2.157008	-0.050817
1192	5.9550e-01	-7.6009	-42.496760	0.000819	8.185421	2.773296	-0.065336
1193	5.9600e-01	-7.6410	-42.654051	0.000394	3.941128	1.335290	-0.031458
1194	5.9650e-01	-7.6795	-42.896037	0.000606	6.063275	2.054293	-0.048397
1195	5.9700e-01	-7.7180	-43.065427	0.000424	4.244292	1.438005	-0.033878
1196	5.9750e-01	-7.7677	-43.246916	0.000455	4.547456	1.540720	-0.036298
1197	5.9800e-01	-7.8014	-43.509068	0.000657	6.568547	2.225484	-0.052430
1198	5.9850e-01	-7.8463	-43.698623	0.000475	4.749565	1.609196	-0.037911
1199	5.9900e-01	-7.8816	-43.924477	0.000566	5.659056	1.917340	-0.045171
1200	5.9950e-01	-7.9249	-44.057569	0.000333	3.334801	1.129861	-0.026618
1201	6.0000e-01	-7.9682	-44.372151	0.000788	7.882257	2.670581	-0.062916
1202	6.0050e-01	-8.0035	-44.460879	0.000222	2.223201	0.753241	-0.017746
1203	6.0100e-01	-8.0452	-44.848056	0.000970	9.701239	3.286869	-0.077435
1204	6.0150e-01	-8.0821	-44.993248	0.000364	3.637965	1.232576	-0.029038
1205	6.0200e-01	-8.1190	-45.243300	0.000627	6.265384	2.122769	-0.050010
1206	6.0250e-01	-8.1559	-45.477220	0.000586	5.861165	1.985817	-0.046784
1207	6.0300e-01	-8.1992	-45.654676	0.000445	4.446401	1.506482	-0.035491
1208	6.0350e-01	-8.2393	-45.888596	0.000586	5.861165	1.985817	-0.046784
1209	6.0400e-01	-8.2810	-46.158814	0.000677	6.770657	2.293961	-0.054044
1210	6.0450e-01	-8.3324	-46.320137	0.000404	4.042183	1.369529	-0.032265
1211	6.0500e-01	-8.3693	-46.420965	0.000253	2.526364	0.855955	-0.020165
1212	6.0550e-01	-8.4062	-46.699249	0.000697	6.972766	2.362437	-0.055657
1213	6.0600e-01	-8.4383	-46.929135	0.000576	5.760111	1.951578	-0.045977
1214	6.0650e-01	-8.4912	-47.118691	0.000475	4.749565	1.609196	-0.037911
1215	6.0700e-01	-8.5345	-47.304214	0.000465	4.648511	1.574958	-0.037105
1216	6.0750e-01	-8.5650	-47.522001	0.000546	5.456947	1.848864	-0.043557
1217	6.0800e-01	-8.5987	-47.711556	0.000475	4.749565	1.609196	-0.037911
1218	6.0850e-01	-8.6404	-47.925311	0.000536	5.355893	1.814626	-0.042751
1219	6.0900e-01	-8.6773	-48.175363	0.000627	6.265384	2.122769	-0.050010
1220	6.0950e-01	-8.7254	-48.332654	0.000394	3.941128	1.335290	-0.031458
1221	6.1000e-01	-8.7655	-48.598838	0.000667	6.669602	2.259722	-0.053237
1222	6.1050e-01	-8.8024	-48.840824	0.000606	6.063275	2.054293	-0.048397
1223	6.1100e-01	-8.8457	-49.123141	0.000707	7.073820	2.396675	-0.056463
1224	6.1150e-01	-8.8858	-49.296564	0.000435	4.345347	1.472243	-0.034685
1225	6.1200e-01	-8.9276	-49.465954	0.000424	4.244292	1.438005	-0.033878
1226	6.1250e-01	-8.9612	-49.611146	0.000364	3.637965	1.232576	-0.029038
1227	6.1300e-01	-9.0030	-49.853132	0.000606	6.063275	2.054293	-0.048397
1228	6.1350e-01	-9.0479	-50.014456	0.000404	4.042183	1.369529	-0.032265
1229	6.1400e-01	-9.0880	-50.268541	0.000637	6.366438	2.157008	-0.050817
1230	6.1450e-01	-9.1217	-50.437931	0.000424	4.244292	1.438005	-0.033878
1231	6.1500e-01	-9.1570	-50.861406	0.001061	10.610731	3.595013	-0.084695
1232	6.1550e-01	-9.2099	-50.978366	0.000293	2.930583	0.992908	-0.023392
1233	6.1600e-01	-9.2484	-51.095326	0.000293	2.930583	0.992908	-0.023392
1234	6.1650e-01	-9.2789	-51.288915	0.000485	4.850620	1.643434	-0.038718
1235	6.1700e-01	-9.3270	-51.470404	0.000455	4.547456	1.540720	-0.036298
1236	6.1750e-01	-9.3607	-51.688192	0.000546	5.456947	1.848864	-0.043557
1237	6.1800e-01	-9.4056	-51.889847	0.000505	5.052729	1.711911	-0.040331
1238	6.1850e-01	-9.4457	-52.160064	0.000677	6.770657	2.293961	-0.054044
1239	6.1900e-01	-9.4858	-52.373818	0.000536	5.355893	1.814626	-0.042751
1240	6.1950e-01	-9.5227	-52.539175	0.000414	4.143238	1.403767	-0.033071
1241	6.2000e-01	-9.5580	-52.837625	0.000748	7.478039	2.533628	-0.059690
1242	6.2050e-01	-9.5997	-52.994916	0.000394	3.941128	1.335290	-0.031458
1243	6.2100e-01	-9.6463	-53.257067	0.000657	6.568547	2.225484	-0.052430
1244	6.2150e-01	-9.6751	-53.450656	0.000485	4.850620	1.643434	-0.038718
1245	6.2200e-01	-9.7152	-53.624079	0.000435	4.345347	1.472243	-0.034685
1246	6.2250e-01	-9.7585	-53.817668	0.000485	4.850620	1.643434	-0.038718
1247	6.2300e-01	-9.8003	-53.966892	0.000374	3.739019	1.266814	-0.029845
1248	6.2350e-01	-9.8404	-54.208878	0.000606	6.063275	2.054293	-0.048397
1249	6.2400e-01	-9.8757	-54.410533	0.000505	5.052729	1.711911	-0.040331
1250	6.2450e-01	-9.9286	-54.652519	0.000606	6.063275	2.054293	-0.048397
1251	6.2500e-01	-9.9591	-54.874340	0.000556	5.558002	1.883102	-0.044364
1252	6.2550e-01	-10.0024	-55.015498	0.000354	3.536910	1.198338	-0.028232
1253	6.2600e-01	-10.0457	-55.196987	0.000455	4.547456	1.540720	-0.036298
1254	6.2650e-01	-10.0810	-55.455106	0.000647	6.467493	2.191246	-0.051624
1255	6.2700e-01	-10.1179	-55.640628	0.000465	4.648511	1.574958	-0.037105
1256	6.2750e-01	-10.1628	-55.846316	0.000515	5.153783	1.746149	-0.041138
1257	6.2800e-01	-10.2045	-56.003607	0.000394	3.941128	1.335290	-0.031458
1258	6.2850e-01	-10.2430	-56.257692	0.000637	6.366438	2.157008	-0.050817
1259	6.2900e-01	-10.2912	-56.471447	0.000536	5.355893	1.814626	-0.042751
1260	6.2950e-01	-10.3248	-56.713433	0.000606	6.063275	2.054293	-0.048397
1261	6.3000e-01	-10.3698	-56.854591	0.000354	3.536910	1.198338	-0.028232
1262	6.3050e-01	-10.4034	-57.052213	0.000495	4.951674	1.677673	-0.039524
1263	6.3100e-01	-10.4403	-57.257901	0.000515	5.153783	1.746149	-0.041138
1264	6.3150e-01	-10.4885	-57.487787	0.000576	5.760111	1.951578	-0.045977
1265	6.3200e-01	-10.5141	-57.778171	0.000728	7.275930	2.465152	-0.058077
1266	6.3250e-01	-10.5623	-57.979826	0.000505	5.052729	1.711911	-0.040331
1267	6.3300e-01	-10.6008	-58.100818	0.000303	3.031637	1.027147	-0.024199
1268	6.3350e-01	-10.6329	-58.367003	0.000667	6.669602	2.259722	-0.053237
1269	6.3400e-01	-10.6890	-58.508161	0.000354	3.536910	1.198338	-0.028232
1270	6.3450e-01	-10.7291	-58.653353	0.000364	3.637965	1.232576	-0.029038
1271	6.3500e-01	-10.7660	-58.883240	0.000576	5.760111	1.951578	-0.045977
1272	6.3550e-01	-10.8013	-59.105060	0.000556	5.558002	1.883102	-0.044364
1273	6.3600e-01	-10.8414	-59.367211	0.000657	6.568547	2.225484	-0.052430
1274	6.3650e-01	-10.8751	-59.580966	0.000536	5.355893	1.814626	-0.042751
1275	6.3700e-01	-10.9248	-59.810852	0.000576	5.760111	1.951578	-0.045977
1276	6.3750e-01	-10.9505	-60.040739	0.000576	5.760111	1.951578	-0.045977
1277	6.3800e-01	-11.0050	-60.242394	0.000505	5.052729	1.711911	-0.040331
1278	6.3850e-01	-11.0403	-60.379519	0.000344	3.435856	1.164099	-0.027425
1279	6.3900e-01	-11.0788	-60.589240	0.000525	5.254838	1.780387	-0.041944
1280	6.3950e-01	-11.1221	-60.815094	0.000566	5.659056	1.917340	-0.045171
1281	6.4000e-01	-11.1639	-60.972385	0.000394	3.941128	1.335290	-0.031458
1282	6.4050e-01	-11.1959	-61.093378	0.000303	3.031637	1.027147	-0.024199
1283	6.4100e-01	-11.2473	-61.303099	0.000525	5.254838	1.780387	-0.041944
1284	6.4150e-01	-11.2906	-61.561217	0.000647	6.467493	2.191246	-0.051624
1285	6.4200e-01	-11.3243	-61.803203	0.000606	6.063275	2.054293	-0.048397
1286	6.4250e-01	-11.3692	-61.992759	0.000475	4.749565	1.609196	-0.037911
1287	6.4300e-01	-11.4093	-62.170215	0.000445	4.446401	1.506482	-0.035491
1288	6.4350e-01	-11.4382	-62.363804	0.000485	4.850620	1.643434	-0.038718
1289	6.4400e-01	-11.4783	-62.609823	0.000616	6.164329	2.088531	-0.049204
1290	6.4450e-01	-11.5296	-62.783246	0.000435	4.345347	1.472243	-0.034685
1291	6.4500e-01	-11.5537	-63.013133	0.000576	5.760111	1.951578	-0.045977
1292	6.4550e-01	-11.5986	-63.247052	0.000586	5.861165	1.985817	-0.046784
1293	6.4600e-01	-11.6419	-63.364012	0.000293	2.930583	0.992908	-0.023392
1294	6.4650e-01	-11.6820	-63.610031	0.000616	6.164329	2.088531	-0.049204
1295	6.4700e-01	-11.7253	-63.767322	0.000394	3.941128	1.335290	-0.031458
1296	6.4750e-01	-11.7638	-63.973010	0.000515	5.153783	1.746149	-0.041138
1297	6.4800e-01	-11.8104	-64.170632	0.000495	4.951674	1.677673	-0.039524
1298	6.4850e-01	-11.8408	-64.352121	0.000455	4.547456	1.540720	-0.036298
1299	6.4900e-01	-11.8761	-64.606207	0.000637	6.366438	2.157008	-0.050817
1300	6.4950e-01	-11.9178	-64.807861	0.000505	5.052729	1.711911	-0.040331
1301	6.5000e-01	-11.9563	-65.013549	0.000515	5.153783	1.746149	-0.041138
1302	6.5050e-01	-12.0077	-65.223271	0.000525	5.254838	1.780387	-0.041944
1303	6.5100e-01	-12.0382	-65.525753	0.000758	7.579093	2.567866	-0.060496
1304	6.5150e-01	-12.0767	-65.650779	0.000313	3.132692	1.061385	-0.025005
1305	6.5200e-01	-12.1296	-65.804037	0.000384	3.840074	1.301052	-0.030652
1306	6.5250e-01	-12.1633	-65.941162	0.000344	3.435856	1.164099	-0.027425
1307	6.5300e-01	-12.2130	-66.118618	0.000445	4.446401	1.506482	-0.035491
1308	6.5350e-01	-12.2499	-66.501763	0.000960	9.600185	3.252631	-0.076629
1309	6.5400e-01	-12.2852	-66.715517	0.000536	5.355893	1.814626	-0.042751
1310	6.5450e-01	-12.3189	-66.808278	0.000232	2.324255	0.787479	-0.018552
1311	6.5500e-01	-12.3622	-67.005900	0.000495	4.951674	1.677673	-0.039524
1312	6.5550e-01	-12.4023	-67.118827	0.000283	2.829528	0.958670	-0.022585
1313	6.5600e-01	-12.4392	-67.477773	0.000899	8.993857	3.047201	-0.071789
1314	6.5650e-01	-12.4857	-67.626997	0.000374	3.739019	1.266814	-0.029845
1315	6.5700e-01	-12.5275	-67.820586	0.000485	4.850620	1.643434	-0.038718
1316	6.5750e-01	-12.5692	-67.985943	0.000414	4.143238	1.403767	-0.033071
1317	6.5800e-01	-12.5996	-68.248095	0.000657	6.568547	2.225484	-0.052430
1318	6.5850e-01	-12.6494	-68.473948	0.000566	5.659056	1.917340	-0.045171
1319	6.5900e-01	-12.6815	-68.615107	0.000354	3.536910	1.198338	-0.028232
1320	6.5950e-01	-12.7216	-68.740133	0.000313	3.132692	1.061385	-0.025005
1321	6.6000e-01	-12.7713	-68.913556	0.000435	4.345347	1.472243	-0.034685
1322	6.6050e-01	-12.8066	-69.183773	0.000677	6.770657	2.293961	-0.054044
1323	6.6100e-01	-12.8419	-69.389461	0.000515	5.153783	1.746149	-0.041138
1324	6.6150e-01	-12.8788	-69.655646	0.000667	6.669602	2.259722	-0.053237
1325	6.6200e-01	-12.9237	-69.792771	0.000344	3.435856	1.164099	-0.027425
1326	6.6250e-01	-12.9686	-70.014592	0.000556	5.558002	1.883102	-0.044364
1327	6.6300e-01	-13.0023	-70.143651	0.000323	3.233746	1.095623	-0.025812
1328	6.6350e-01	-13.0296	-70.421935	0.000697	6.972766	2.362437	-0.055657
1329	6.6400e-01	-13.0809	-70.575192	0.000384	3.840074	1.301052	-0.030652
1330	6.6450e-01	-13.1258	-70.813145	0.000596	5.962220	2.020055	-0.047591
1331	6.6500e-01	-13.1643	-70.881708	0.000172	1.717928	0.582050	-0.013713
1332	6.6550e-01	-13.2044	-71.059164	0.000445	4.446401	1.506482	-0.035491
1333	6.6600e-01	-13.2462	-71.289051	0.000576	5.760111	1.951578	-0.045977
1334	6.6650e-01	-13.2911	-71.543136	0.000637	6.366438	2.157008	-0.050817
1335	6.6700e-01	-13.3183	-71.680261	0.000344	3.435856	1.164099	-0.027425
1336	6.6750e-01	-13.3536	-71.982744	0.000758	7.579093	2.567866	-0.060496
1337	6.6800e-01	-13.3921	-72.119869	0.000344	3.435856	1.164099	-0.027425
1338	6.6850e-01	-13.4354	-72.309425	0.000475	4.749565	1.609196	-0.037911
1339	6.6900e-01	-13.4900	-72.470749	0.000404	4.042183	1.369529	-0.032265
1340	6.6950e-01	-13.5221	-72.644172	0.000435	4.345347	1.472243	-0.034685
1341	6.7000e-01	-13.5622	-72.870026	0.000566	5.659056	1.917340	-0.045171
1342	6.7050e-01	-13.5927	-73.136210	0.000667	6.669602	2.259722	-0.053237
1343	6.7100e-01	-13.6408	-73.329799	0.000485	4.850620	1.643434	-0.038718
1344	6.7150e-01	-13.6777	-73.527421	0.000495	4.951674	1.677673	-0.039524
1345	6.7200e-01	-13.7194	-73.708910	0.000455	4.547456	1.540720	-0.036298
1346	6.7250e-01	-13.7675	-73.910565	0.000505	5.052729	1.711911	-0.040331
1347	6.7300e-01	-13.8092	-73.979128	0.000172	1.717928	0.582050	-0.013713
1348	6.7350e-01	-13.8413	-74.184816	0.000515	5.153783	1.746149	-0.041138
1349	6.7400e-01	-13.8894	-74.471166	0.000717	7.174875	2.430913	-0.057270
1350	6.7450e-01	-13.9247	-74.664754	0.000485	4.850620	1.643434	-0.038718
1351	6.7500e-01	-13.9681	-74.870442	0.000515	5.153783	1.746149	-0.041138
1352	6.7550e-01	-14.0033	-75.047899	0.000445	4.446401	1.506482	-0.035491
1353	6.7600e-01	-14.0370	-75.229388	0.000455	4.547456	1.540720	-0.036298
1354	6.7650e-01	-14.0804	-75.604466	0.000940	9.398076	3.184154	-0.075016
1355	6.7700e-01	-14.1172	-75.640764	0.000091	0.909491	0.308144	-0.007260
1356	6.7750e-01	-14.1590	-75.842419	0.000505	5.052729	1.711911	-0.040331
1357	6.7800e-01	-14.2071	-75.959379	0.000293	2.930583	0.992908	-0.023392
1358	6.7850e-01	-14.2376	-76.177166	0.000546	5.456947	1.848864	-0.043557
1359	6.7900e-01	-14.2841	-76.350590	0.000435	4.345347	1.472243	-0.034685
1360	6.7950e-01	-14.3306	-76.544178	0.000485	4.850620	1.643434	-0.038718
1361	6.8000e-01	-14.3627	-76.790197	0.000616	6.164329	2.088531	-0.049204
1362	6.8050e-01	-14.4060	-77.020084	0.000576	5.760111	1.951578	-0.045977
1363	6.8100e-01	-14.4381	-77.193507	0.000435	4.345347	1.472243	-0.034685
1364	6.8150e-01	-14.4798	-77.350798	0.000394	3.941128	1.335290	-0.031458
1365	6.8200e-01	-14.5183	-77.532288	0.000455	4.547456	1.540720	-0.036298
1366	6.8250e-01	-14.5664	-77.746042	0.000536	5.355893	1.814626	-0.042751
1367	6.8300e-01	-14.6130	-77.879134	0.000333	3.334801	1.129861	-0.026618
1368	6.8350e-01	-14.6418	-78.048524	0.000424	4.244292	1.438005	-0.033878
1369	6.8400e-01	-14.6868	-78.298576	0.000627	6.265384	2.122769	-0.050010
1370	6.8450e-01	-14.7204	-78.423602	0.000313	3.132692	1.061385	-0.025005
1371	6.8500e-01	-14.7622	-78.685754	0.000657	6.568547	2.225484	-0.052430
1372	6.8550e-01	-14.7974	-78.879342	0.000485	4.850620	1.643434	-0.038718
1373	6.8600e-01	-14.8392	-79.048733	0.000424	4.244292	1.438005	-0.033878
1374	6.8650e-01	-14.8953	-79.181825	0.000333	3.334801	1.129861	-0.026618
1375	6.8700e-01	-14.9178	-79.464142	0.000707	7.073820	2.396675	-0.056463
1376	6.8750e-01	-14.9595	-79.593201	0.000323	3.233746	1.095623	-0.025812
1377	6.8800e-01	-15.0012	-79.883584	0.000728	7.275930	2.465152	-0.058077
1378	6.8850e-01	-15.0365	-80.117504	0.000586	5.861165	1.985817	-0.046784
1379	6.8900e-01	-15.0894	-80.250596	0.000333	3.334801	1.129861	-0.026618
1380	6.8950e-01	-15.1103	-80.391754	0.000354	3.536910	1.198338	-0.028232
1381	6.9000e-01	-15.1744	-80.520814	0.000323	3.233746	1.095623	-0.025812
1382	6.9050e-01	-15.2017	-80.718435	0.000495	4.951674	1.677673	-0.039524
1383	6.9100e-01	-15.2450	-81.016885	0.000748	7.478039	2.533628	-0.059690
1384	6.9150e-01	-15.2835	-81.218540	0.000505	5.052729	1.711911	-0.040331
1385	6.9200e-01	-15.3268	-81.315334	0.000243	2.425310	0.821717	-0.019359
1386	6.9250e-01	-15.3589	-81.573452	0.000647	6.467493	2.191246	-0.051624
1387	6.9300e-01	-15.4038	-81.734776	0.000404	4.042183	1.369529	-0.032265
1388	6.9350e-01	-15.4439	-81.879968	0.000364	3.637965	1.232576	-0.029038
1389	6.9400e-01	-15.4873	-82.045325	0.000414	4.143238	1.403767	-0.033071
1390	6.9450e-01	-15.5161	-82.263112	0.000546	5.456947	1.848864	-0.043557
1391	6.9500e-01	-15.5514	-82.497032	0.000586	5.861165	1.985817	-0.046784
1392	6.9550e-01	-15.5964	-82.730952	0.000586	5.861165	1.985817	-0.046784
1393	6.9600e-01	-15.6413	-82.924540	0.000485	4.850620	1.643434	-0.038718
1394	6.9650e-01	-15.6766	-83.025368	0.000253	2.526364	0.855955	-0.020165
1395	6.9700e-01	-15.7199	-83.259288	0.000586	5.861165	1.985817	-0.046784
1396	6.9750e-01	-15.7616	-83.477075	0.000546	5.456947	1.848864	-0.043557
1397	6.9800e-01	-15.8017	-83.630333	0.000384	3.840074	1.301052	-0.030652
1398	6.9850e-01	-15.8450	-83.848120	0.000546	5.456947	1.848864	-0.043557
1399	6.9900e-01	-15.8819	-84.090106	0.000606	6.063275	2.054293	-0.048397
1400	6.9950e-01	-15.9124	-84.150602	0.000152	1.515819	0.513573	-0.012099
1401	7.0000e-01	-15.9605	-84.291761	0.000354	3.536910	1.198338	-0.028232
1402	7.0050e-01	-16.0006	-84.521647	0.000576	5.760111	1.951578	-0.045977
1403	7.0100e-01	-16.0455	-84.767666	0.000616	6.164329	2.088531	-0.049204
1404	7.0150e-01	-16.0840	-84.872527	0.000263	2.627419	0.890194	-0.020972
1405	7.0200e-01	-16.1177	-85.066116	0.000485	4.850620	1.643434	-0.038718
1406	7.0250e-01	-16.1707	-85.320201	0.000637	6.366438	2.157008	-0.050817
1407	7.0300e-01	-16.2044	-85.457326	0.000344	3.435856	1.164099	-0.027425
1408	7.0350e-01	-16.2348	-85.711411	0.000637	6.366438	2.157008	-0.050817
1409	7.0400e-01	-16.2782	-85.909033	0.000495	4.951674	1.677673	-0.039524
1410	7.0450e-01	-16.3183	-86.050192	0.000354	3.536910	1.198338	-0.028232
1411	7.0500e-01	-16.3648	-86.239747	0.000475	4.749565	1.609196	-0.037911
1412	7.0550e-01	-16.3969	-86.401071	0.000404	4.042183	1.369529	-0.032265
1413	7.0600e-01	-16.4370	-86.655157	0.000637	6.366438	2.157008	-0.050817
1414	7.0650e-01	-16.4819	-86.840679	0.000465	4.648511	1.574958	-0.037105
1415	7.0700e-01	-16.5140	-87.050400	0.000525	5.254838	1.780387	-0.041944
1416	7.0750e-01	-16.5589	-87.203658	0.000384	3.840074	1.301052	-0.030652
1417	7.0800e-01	-16.6006	-87.377081	0.000435	4.345347	1.472243	-0.034685
1418	7.0850e-01	-16.6471	-87.538405	0.000404	4.042183	1.369529	-0.032265
1419	7.0900e-01	-16.6808	-87.768292	0.000576	5.760111	1.951578	-0.045977
1420	7.0950e-01	-16.7209	-87.961881	0.000485	4.850620	1.643434	-0.038718
1421	7.1000e-01	-16.7610	-88.167569	0.000515	5.153783	1.746149	-0.041138
1422	7.1050e-01	-16.8027	-88.320826	0.000384	3.840074	1.301052	-0.030652
1423	7.1100e-01	-16.8460	-88.550713	0.000576	5.760111	1.951578	-0.045977
1424	7.1150e-01	-16.8749	-88.655573	0.000263	2.627419	0.890194	-0.020972
1425	7.1200e-01	-16.9150	-88.877394	0.000556	5.558002	1.883102	-0.044364
1426	7.1250e-01	-16.9632	-89.070983	0.000485	4.850620	1.643434	-0.038718
1427	7.1300e-01	-17.0065	-89.220207	0.000374	3.739019	1.266814	-0.029845
1428	7.1350e-01	-17.0466	-89.369432	0.000374	3.739019	1.266814	-0.029845
1429	7.1400e-01	-17.0947	-89.679981	0.000778	7.781202	2.636343	-0.062110
1430	7.1450e-01	-17.1236	-89.732411	0.000131	1.313709	0.445097	-0.010486
1431	7.1500e-01	-17.1637	-89.982463	0.000627	6.265384	2.122769	-0.050010
1432	7.1550e-01	-17.2086	-90.196217	0.000536	5.355893	1.814626	-0.042751
1433	7.1600e-01	-17.2343	-90.333342	0.000344	3.435856	1.164099	-0.027425
1434	7.1650e-01	-17.2792	-90.502733	0.000424	4.244292	1.438005	-0.033878
1435	7.1700e-01	-17.3145	-90.760851	0.000647	6.467493	2.191246	-0.051624
1436	7.1750e-01	-17.3610	-90.881844	0.000303	3.031637	1.027147	-0.024199
1437	7.1800e-01	-17.3963	-91.143995	0.000657	6.568547	2.225484	-0.052430
1438	7.1850e-01	-17.4444	-91.373882	0.000576	5.760111	1.951578	-0.045977
1439	7.1900e-01	-17.4845	-91.466643	0.000232	2.324255	0.787479	-0.018552
1440	7.1950e-01	-17.5214	-91.644100	0.000445	4.446401	1.506482	-0.035491
1441	7.2000e-01	-17.5631	-91.857854	0.000536	5.355893	1.814626	-0.042751
1442	7.2050e-01	-17.6000	-92.055476	0.000495	4.951674	1.677673	-0.039524
1443	7.2100e-01	-17.6305	-92.249064	0.000485	4.850620	1.643434	-0.038718
1444	7.2150e-01	-17.6819	-92.418454	0.000424	4.244292	1.438005	-0.033878
1445	7.2200e-01	-17.7284	-92.680606	0.000657	6.568547	2.225484	-0.052430
1446	7.2250e-01	-17.7653	-92.781433	0.000253	2.526364	0.855955	-0.020165
1447	7.2300e-01	-17.7990	-92.894360	0.000283	2.829528	0.958670	-0.022585
1448	7.2350e-01	-17.8391	-93.176677	0.000707	7.073820	2.396675	-0.056463
1449	7.2400e-01	-17.8872	-93.430762	0.000637	6.366438	2.157008	-0.050817
1450	7.2450e-01	-17.9305	-93.519490	0.000222	2.223201	0.753241	-0.017746
1451	7.2500e-01	-17.9562	-93.660649	0.000354	3.536910	1.198338	-0.028232
1452	7.2550e-01	-17.9963	-93.866337	0.000515	5.153783	1.746149	-0.041138
1453	7.2600e-01	-18.0396	-94.027661	0.000404	4.042183	1.369529	-0.032265
1454	7.2650e-01	-18.0845	-94.217216	0.000475	4.749565	1.609196	-0.037911
1455	7.2700e-01	-18.1166	-94.374507	0.000394	3.941128	1.335290	-0.031458
1456	7.2750e-01	-18.1615	-94.656824	0.000707	7.073820	2.396675	-0.056463
1457	7.2800e-01	-18.1968	-94.757652	0.000253	2.526364	0.855955	-0.020165
1458	7.2850e-01	-18.2321	-94.939141	0.000455	4.547456	1.540720	-0.036298
1459	7.2900e-01	-18.2818	-95.213392	0.000687	6.871711	2.328199	-0.054850
1460	7.2950e-01	-18.3187	-95.346484	0.000333	3.334801	1.129861	-0.026618
1461	7.3000e-01	-18.3620	-95.604602	0.000647	6.467493	2.191246	-0.051624
1462	7.3050e-01	-18.3989	-95.648966	0.000111	1.111600	0.376620	-0.008873
1463	7.3100e-01	-18.4487	-95.899019	0.000627	6.265384	2.122769	-0.050010
1464	7.3150e-01	-18.4872	-96.157137	0.000647	6.467493	2.191246	-0.051624
1465	7.3200e-01	-18.5209	-96.330560	0.000435	4.345347	1.472243	-0.034685
1466	7.3250e-01	-18.5610	-96.447520	0.000293	2.930583	0.992908	-0.023392
1467	7.3300e-01	-18.5979	-96.600778	0.000384	3.840074	1.301052	-0.030652
1468	7.3350e-01	-18.6492	-96.943591	0.000859	8.589639	2.910248	-0.068563
1469	7.3400e-01	-18.6765	-97.004088	0.000152	1.515819	0.513573	-0.012099
1470	7.3450e-01	-18.7246	-97.270272	0.000667	6.669602	2.259722	-0.053237
1471	7.3500e-01	-18.7615	-97.500159	0.000576	5.760111	1.951578	-0.045977
1472	7.3550e-01	-18.8128	-97.681648	0.000455	4.547456	1.540720	-0.036298
1473	7.3600e-01	-18.8481	-97.754244	0.000182	1.818982	0.616288	-0.014519
1474	7.3650e-01	-18.8834	-97.984131	0.000576	5.760111	1.951578	-0.045977
1475	7.3700e-01	-18.9283	-98.173686	0.000475	4.749565	1.609196	-0.037911
1476	7.3750e-01	-18.9684	-98.399540	0.000566	5.659056	1.917340	-0.045171
1477	7.3800e-01	-19.0102	-98.447937	0.000121	1.212655	0.410859	-0.009679
1478	7.3850e-01	-19.0342	-98.742353	0.000738	7.376984	2.499390	-0.058883
1479	7.3900e-01	-19.0743	-99.032736	0.000728	7.275930	2.465152	-0.058077
1480	7.3950e-01	-19.1144	-99.129531	0.000243	2.425310	0.821717	-0.019359
1481	7.4000e-01	-19.1577	-99.286821	0.000394	3.941128	1.335290	-0.031458
1482	7.4050e-01	-19.1979	-99.476377	0.000475	4.749565	1.609196	-0.037911
1483	7.4100e-01	-19.2428	-99.617535	0.000354	3.536910	1.198338	-0.028232
1484	7.4150e-01	-19.2861	-99.835323	0.000546	5.456947	1.848864	-0.043557
1485	7.4200e-01	-19.3230	-100.166037	0.000829	8.286475	2.807534	-0.066143
1486	7.4250e-01	-19.3599	-100.258798	0.000232	2.324255	0.787479	-0.018552
1487	7.4300e-01	-19.3968	-100.436254	0.000445	4.446401	1.506482	-0.035491
1488	7.4350e-01	-19.4353	-100.650009	0.000536	5.355893	1.814626	-0.042751
1489	7.4400e-01	-19.4850	-100.831498	0.000455	4.547456	1.540720	-0.036298
1490	7.4450e-01	-19.5251	-101.069451	0.000596	5.962220	2.020055	-0.047591
1491	7.4500e-01	-19.5604	-101.234808	0.000414	4.143238	1.403767	-0.033071
1492	7.4550e-01	-19.6005	-101.408231	0.000435	4.345347	1.472243	-0.034685
1493	7.4600e-01	-19.6342	-101.597787	0.000475	4.749565	1.609196	-0.037911
1494	7.4650e-01	-19.6855	-101.783309	0.000465	4.648511	1.574958	-0.037105
1495	7.4700e-01	-19.7128	-101.920435	0.000344	3.435856	1.164099	-0.027425
1496	7.4750e-01	-19.7674	-102.243083	0.000808	8.084366	2.739057	-0.064530
1497	7.4800e-01	-19.8139	-102.364076	0.000303	3.031637	1.027147	-0.024199
1498	7.4850e-01	-19.8508	-102.618161	0.000637	6.366438	2.157008	-0.050817
1499	7.4900e-01	-19.8813	-102.735121	0.000293	2.930583	0.992908	-0.023392
1500	7.4950e-01	-19.9246	-102.912577	0.000445	4.446401	1.506482	-0.035491
1501	7.5000e-01	-19.9502	-103.186828	0.000687	6.871711	2.328199	-0.054850
1502	7.5050e-01	-19.9631	-103.251357	0.000162	1.616873	0.547811	-0.012906
1503	7.5100e-01	-19.9374	-103.299755	-0.000121	-1.212655	-0.410859	-0.009679
1504	7.5150e-01	-19.8973	-103.243291	0.000141	1.414764	0.479335	0.011293
1505	7.5200e-01	-19.8620	-103.231192	0.000030	0.303164	0.102715	0.002420
1506	7.5250e-01	-19.8139	-103.094066	0.000344	3.435856	1.164099	0.027425
1507	7.5300e-01	-19.7850	-103.045669	0.000121	1.212655	0.410859	0.009679
1508	7.5350e-01	-19.7353	-102.835948	0.000525	5.254838	1.780387	0.041944
1509	7.5400e-01	-19.6984	-102.779485	0.000141	1.414764	0.479335	0.011293
1510	7.5450e-01	-19.6647	-102.690757	0.000222	2.223201	0.753241	0.017746
1511	7.5500e-01	-19.6262	-102.589929	0.000253	2.526364	0.855955	0.020165
1512	7.5550e-01	-19.5732	-102.489102	0.000253	2.526364	0.855955	0.020165
1513	7.5600e-01	-19.5347	-102.392307	0.000243	2.425310	0.821717	0.019359
1514	7.5650e-01	-19.5011	-102.243083	0.000374	3.739019	1.266814	0.029845
1515	7.5700e-01	-19.4674	-102.105957	0.000344	3.435856	1.164099	0.027425
1516	7.5750e-01	-19.4144	-101.936567	0.000424	4.244292	1.438005	0.033878
1517	7.5800e-01	-19.3904	-101.896236	0.000101	1.010546	0.342382	0.008066
1518	7.5850e-01	-19.3454	-101.646184	0.000627	6.265384	2.122769	0.050010
1519	7.5900e-01	-19.3037	-101.589721	0.000141	1.414764	0.479335	0.011293
1520	7.5950e-01	-19.2572	-101.553423	0.000091	0.909491	0.308144	0.007260
1521	7.6000e-01	-19.2203	-101.392099	0.000404	4.042183	1.369529	0.032265
1522	7.6050e-01	-19.1850	-101.327569	0.000162	1.616873	0.547811	0.012906
1523	7.6100e-01	-19.1385	-101.133981	0.000485	4.850620	1.643434	0.038718
1524	7.6150e-01	-19.1032	-101.021054	0.000283	2.829528	0.958670	0.022585
1525	7.6200e-01	-19.0727	-100.883928	0.000344	3.435856	1.164099	0.027425
1526	7.6250e-01	-19.0278	-100.758902	0.000313	3.132692	1.061385	0.025005
1527	7.6300e-01	-18.9893	-100.678240	0.000202	2.021092	0.684764	0.016132
1528	7.6350e-01	-18.9396	-100.601612	0.000192	1.920037	0.650526	0.015326
1529	7.6400e-01	-18.9043	-100.416089	0.000465	4.648511	1.574958	0.037105
1530	7.6450e-01	-18.8578	-100.242666	0.000435	4.345347	1.472243	0.034685
1531	7.6500e-01	-18.8225	-100.210401	0.000081	0.808437	0.273906	0.006453
1532	7.6550e-01	-18.7888	-100.004713	0.000515	5.153783	1.746149	0.041138
1533	7.6600e-01	-18.7535	-99.867588	0.000344	3.435856	1.164099	0.027425
1534	7.6650e-01	-18.7118	-99.730462	0.000344	3.435856	1.164099	0.027425
1535	7.6700e-01	-18.6604	-99.609469	0.000303	3.031637	1.027147	0.024199
1536	7.6750e-01	-18.6203	-99.488476	0.000303	3.031637	1.027147	0.024199
1537	7.6800e-01	-18.5882	-99.423947	0.000162	1.616873	0.547811	0.012906
1538	7.6850e-01	-18.5449	-99.242457	0.000455	4.547456	1.540720	0.036298
1539	7.6900e-01	-18.5064	-99.133564	0.000273	2.728474	0.924432	0.021779
1540	7.6950e-01	-18.4615	-98.976273	0.000394	3.941128	1.335290	0.031458
1541	7.7000e-01	-18.4246	-98.766552	0.000525	5.254838	1.780387	0.041944
1542	7.7050e-01	-18.3861	-98.677824	0.000222	2.223201	0.753241	0.017746
1543	7.7100e-01	-18.3412	-98.597162	0.000202	2.021092	0.684764	0.016132
1544	7.7150e-01	-18.3043	-98.460036	0.000344	3.435856	1.164099	0.027425
1545	7.7200e-01	-18.2578	-98.274514	0.000465	4.648511	1.574958	0.037105
1546	7.7250e-01	-18.2257	-98.189819	0.000212	2.122146	0.719003	0.016939
1547	7.7300e-01	-18.1808	-98.036561	0.000384	3.840074	1.301052	0.030652
1548	7.7350e-01	-18.1423	-97.871204	0.000414	4.143238	1.403767	0.033071
1549	7.7400e-01	-18.1070	-97.766343	0.000263	2.627419	0.890194	0.020972
1550	7.7450e-01	-18.0621	-97.673582	0.000232	2.324255	0.787479	0.018552
1551	7.7500e-01	-18.0300	-97.387232	0.000717	7.174875	2.430913	0.057270
1552	7.7550e-01	-17.9818	-97.310603	0.000192	1.920037	0.650526	0.015326
1553	7.7600e-01	-17.9401	-97.112981	0.000495	4.951674	1.677673	0.039524
1554	7.7650e-01	-17.9081	-97.052485	0.000152	1.515819	0.513573	0.012099
1555	7.7700e-01	-17.8695	-96.911326	0.000354	3.536910	1.198338	0.028232
1556	7.7750e-01	-17.8198	-96.721771	0.000475	4.749565	1.609196	0.037911
1557	7.7800e-01	-17.7861	-96.604811	0.000293	2.930583	0.992908	0.023392
1558	7.7850e-01	-17.7460	-96.451553	0.000384	3.840074	1.301052	0.030652
1559	7.7900e-01	-17.7107	-96.310395	0.000354	3.536910	1.198338	0.028232
1560	7.7950e-01	-17.6610	-96.270064	0.000101	1.010546	0.342382	0.008066
1561	7.8000e-01	-17.6289	-96.011945	0.000647	6.467493	2.191246	0.051624
1562	7.8050e-01	-17.5856	-95.882886	0.000323	3.233746	1.095623	0.025812
1563	7.8100e-01	-17.5439	-95.749794	0.000333	3.334801	1.129861	0.026618
1564	7.8150e-01	-17.5054	-95.608635	0.000354	3.536910	1.198338	0.028232
1565	7.8200e-01	-17.4589	-95.459411	0.000374	3.739019	1.266814	0.029845
1566	7.8250e-01	-17.4236	-95.354550	0.000263	2.627419	0.890194	0.020972
1567	7.8300e-01	-17.3915	-95.221458	0.000333	3.334801	1.129861	0.026618
1568	7.8350e-01	-17.3434	-95.064167	0.000394	3.941128	1.335290	0.031458
1569	7.8400e-01	-17.3081	-94.898810	0.000414	4.143238	1.403767	0.033071
1570	7.8450e-01	-17.2631	-94.693122	0.000515	5.153783	1.746149	0.041138
1571	7.8500e-01	-17.2295	-94.580195	0.000283	2.829528	0.958670	0.022585
1572	7.8550e-01	-17.1797	-94.426938	0.000384	3.840074	1.301052	0.030652
1573	7.8600e-01	-17.1460	-94.225283	0.000505	5.052729	1.711911	0.040331
1574	7.8650e-01	-17.1011	-94.116389	0.000273	2.728474	0.924432	0.021779
1575	7.8700e-01	-17.0626	-94.015562	0.000253	2.526364	0.855955	0.020165
1576	7.8750e-01	-17.0209	-93.834072	0.000455	4.547456	1.540720	0.036298
1577	7.8800e-01	-16.9824	-93.717112	0.000293	2.930583	0.992908	0.023392
1578	7.8850e-01	-16.9455	-93.624351	0.000232	2.324255	0.787479	0.018552
1579	7.8900e-01	-16.9070	-93.346067	0.000697	6.972766	2.362437	0.055657
1580	7.8950e-01	-16.8685	-93.237173	0.000273	2.728474	0.924432	0.021779
1581	7.9000e-01	-16.8204	-93.023419	0.000536	5.355893	1.814626	0.042751
1582	7.9050e-01	-16.7883	-92.983088	0.000101	1.010546	0.342382	0.008066
1583	7.9100e-01	-16.7450	-92.781433	0.000505	5.052729	1.711911	0.040331
1584	7.9150e-01	-16.7065	-92.563646	0.000546	5.456947	1.848864	0.043557
1585	7.9200e-01	-16.6680	-92.454752	0.000273	2.728474	0.924432	0.021779
1586	7.9250e-01	-16.6150	-92.325693	0.000323	3.233746	1.095623	0.025812
1587	7.9300e-01	-16.5862	-92.164369	0.000404	4.042183	1.369529	0.032265
1588	7.9350e-01	-16.5445	-92.015145	0.000374	3.739019	1.266814	0.029845
1589	7.9400e-01	-16.4995	-91.938516	0.000192	1.920037	0.650526	0.015326
1590	7.9450e-01	-16.4674	-91.797357	0.000354	3.536910	1.198338	0.028232
1591	7.9500e-01	-16.4257	-91.579570	0.000546	5.456947	1.848864	0.043557
1592	7.9550e-01	-16.3888	-91.394047	0.000465	4.648511	1.574958	0.037105
1593	7.9600e-01	-16.3455	-91.168194	0.000566	5.659056	1.917340	0.045171
1594	7.9650e-01	-16.2958	-91.047201	0.000303	3.031637	1.027147	0.024199
1595	7.9700e-01	-16.2637	-90.970572	0.000192	1.920037	0.650526	0.015326
1596	7.9750e-01	-16.2124	-90.837480	0.000333	3.334801	1.129861	0.026618
1597	7.9800e-01	-16.1883	-90.623726	0.000536	5.355893	1.814626	0.042751
1598	7.9850e-01	-16.1370	-90.494666	0.000323	3.233746	1.095623	0.025812
1599	7.9900e-01	-16.1001	-90.305111	0.000475	4.749565	1.609196	0.037911
1600	7.9950e-01	-16.0648	-90.204283	0.000253	2.526364	0.855955	0.020165
1601	8.0000e-01	-16.0311	-90.046992	0.000394	3.941128	1.335290	0.031458
1602	8.0050e-01	-15.9862	-89.821139	0.000566	5.659056	1.917340	0.045171
1603	8.0100e-01	-15.9413	-89.696113	0.000313	3.132692	1.061385	0.025005
1604	8.0150e-01	-15.9028	-89.530756	0.000414	4.143238	1.403767	0.033071
1605	8.0200e-01	-15.8610	-89.405730	0.000313	3.132692	1.061385	0.025005
1606	8.0250e-01	-15.8242	-89.171810	0.000586	5.861165	1.985817	0.046784
1607	8.0300e-01	-15.7921	-89.075016	0.000243	2.425310	0.821717	0.019359
1608	8.0350e-01	-15.7471	-88.982254	0.000232	2.324255	0.787479	0.018552
1609	8.0400e-01	-15.7038	-88.752368	0.000576	5.760111	1.951578	0.045977
1610	8.0450e-01	-15.6573	-88.643474	0.000273	2.728474	0.924432	0.021779
1611	8.0500e-01	-15.6236	-88.502316	0.000354	3.536910	1.198338	0.028232
1612	8.0550e-01	-15.5915	-88.304694	0.000495	4.951674	1.677673	0.039524
1613	8.0600e-01	-15.5498	-88.123204	0.000455	4.547456	1.540720	0.036298
1614	8.0650e-01	-15.5065	-88.034476	0.000222	2.223201	0.753241	0.017746
1615	8.0700e-01	-15.4632	-87.857020	0.000445	4.446401	1.506482	0.035491
1616	8.0750e-01	-15.4215	-87.534372	0.000808	8.084366	2.739057	0.064530
1617	8.0800e-01	-15.3846	-87.498074	0.000091	0.909491	0.308144	0.007260
1618	8.0850e-01	-15.3557	-87.328684	0.000424	4.244292	1.438005	0.033878
1619	8.0900e-01	-15.2996	-87.203658	0.000313	3.132692	1.061385	0.025005
1620	8.0950e-01	-15.2627	-87.090731	0.000283	2.829528	0.958670	0.022585
1621	8.1000e-01	-15.2354	-86.885043	0.000515	5.153783	1.746149	0.041138
1622	8.1050e-01	-15.1825	-86.699521	0.000465	4.648511	1.574958	0.037105
1623	8.1100e-01	-15.1440	-86.534164	0.000414	4.143238	1.403767	0.033071
1624	8.1150e-01	-15.1119	-86.413171	0.000303	3.031637	1.027147	0.024199
1625	8.1200e-01	-15.0686	-86.280078	0.000333	3.334801	1.129861	0.026618
1626	8.1250e-01	-15.0252	-86.074390	0.000515	5.153783	1.746149	0.041138
1627	8.1300e-01	-14.9851	-85.985662	0.000222	2.223201	0.753241	0.017746
1628	8.1350e-01	-14.9402	-85.775941	0.000525	5.254838	1.780387	0.041944
1629	8.1400e-01	-14.9033	-85.654948	0.000303	3.031637	1.027147	0.024199
1630	8.1450e-01	-14.8664	-85.489591	0.000414	4.143238	1.403767	0.033071
1631	8.1500e-01	-14.8231	-85.308102	0.000455	4.547456	1.540720	0.036298
1632	8.1550e-01	-14.7894	-85.122579	0.000465	4.648511	1.574958	0.037105
1633	8.1600e-01	-14.7461	-84.941090	0.000455	4.547456	1.540720	0.036298
1634	8.1650e-01	-14.7060	-84.812031	0.000323	3.233746	1.095623	0.025812
1635	8.1700e-01	-14.6675	-84.602309	0.000525	5.254838	1.780387	0.041944
1636	8.1750e-01	-14.6178	-84.481316	0.000303	3.031637	1.027147	0.024199
1637	8.1800e-01	-14.5841	-84.303860	0.000445	4.446401	1.506482	0.035491
1638	8.1850e-01	-14.5392	-84.219165	0.000212	2.122146	0.719003	0.016939
1639	8.1900e-01	-14.5119	-83.916683	0.000758	7.579093	2.567866	0.060496
1640	8.1950e-01	-14.4654	-83.755359	0.000404	4.042183	1.369529	0.032265
1641	8.2000e-01	-14.4253	-83.622266	0.000333	3.334801	1.129861	0.026618
1642	8.2050e-01	-14.3868	-83.473042	0.000374	3.739019	1.266814	0.029845
1643	8.2100e-01	-14.3450	-83.356082	0.000293	2.930583	0.992908	0.023392
1644	8.2150e-01	-14.3065	-83.130228	0.000566	5.659056	1.917340	0.045171
1645	8.2200e-01	-14.2664	-82.981004	0.000374	3.739019	1.266814	0.029845
1646	8.2250e-01	-14.2183	-82.868077	0.000283	2.829528	0.958670	0.022585
1647	8.2300e-01	-14.1782	-82.702720	0.000414	4.143238	1.403767	0.033071
1648	8.2350e-01	-14.1429	-82.492999	0.000525	5.254838	1.780387	0.041944
1649	8.2400e-01	-14.1124	-82.339741	0.000384	3.840074	1.301052	0.030652
1650	8.2450e-01	-14.0659	-82.162285	0.000445	4.446401	1.506482	0.035491
1651	8.2500e-01	-14.0242	-82.089689	0.000182	1.818982	0.616288	0.014519
1652	8.2550e-01	-13.9825	-81.863835	0.000566	5.659056	1.917340	0.045171
1653	8.2600e-01	-13.9440	-81.714611	0.000374	3.739019	1.266814	0.029845
1654	8.2650e-01	-13.9023	-81.504890	0.000525	5.254838	1.780387	0.041944
1655	8.2700e-01	-13.8622	-81.319367	0.000465	4.648511	1.574958	0.037105
1656	8.2750e-01	-13.8205	-81.186275	0.000333	3.334801	1.129861	0.026618
1657	8.2800e-01	-13.7788	-81.077381	0.000273	2.728474	0.924432	0.021779
1658	8.2850e-01	-13.7403	-80.871693	0.000515	5.153783	1.746149	0.041138
1659	8.2900e-01	-13.7018	-80.657939	0.000536	5.355893	1.814626	0.042751
1660	8.2950e-01	-13.6713	-80.456284	0.000505	5.052729	1.711911	0.040331
1661	8.3000e-01	-13.6183	-80.278828	0.000445	4.446401	1.506482	0.035491
1662	8.3050e-01	-13.5830	-80.129603	0.000374	3.739019	1.266814	0.029845
1663	8.3100e-01	-13.5397	-80.004577	0.000313	3.132692	1.061385	0.025005
1664	8.3150e-01	-13.5012	-79.815021	0.000475	4.749565	1.609196	0.037911
1665	8.3200e-01	-13.4691	-79.613366	0.000505	5.052729	1.711911	0.040331
1666	8.3250e-01	-13.4194	-79.552870	0.000152	1.515819	0.513573	0.012099
1667	8.3300e-01	-13.3873	-79.322983	0.000576	5.760111	1.951578	0.045977
1668	8.3350e-01	-13.3440	-79.085030	0.000596	5.962220	2.020055	0.047591
1669	8.3400e-01	-13.2959	-78.972104	0.000283	2.829528	0.958670	0.022585
1670	8.3450e-01	-13.2670	-78.847078	0.000313	3.132692	1.061385	0.025005
1671	8.3500e-01	-13.2205	-78.601059	0.000616	6.164329	2.088531	0.049204
1672	8.3550e-01	-13.1884	-78.415536	0.000465	4.648511	1.574958	0.037105
1673	8.3600e-01	-13.1467	-78.266311	0.000374	3.739019	1.266814	0.029845
1674	8.3650e-01	-13.0921	-78.072723	0.000485	4.850620	1.643434	0.038718
1675	8.3700e-01	-13.0697	-77.903333	0.000424	4.244292	1.438005	0.033878
1676	8.3750e-01	-13.0344	-77.697645	0.000515	5.153783	1.746149	0.041138
1677	8.3800e-01	-12.9798	-77.621016	0.000192	1.920037	0.650526	0.015326
1678	8.3850e-01	-12.9349	-77.447592	0.000435	4.345347	1.472243	0.034685
1679	8.3900e-01	-12.9044	-77.145110	0.000758	7.579093	2.567866	0.060496
1680	8.3950e-01	-12.8595	-77.052349	0.000232	2.324255	0.787479	0.018552
1681	8.4000e-01	-12.8226	-76.899091	0.000384	3.840074	1.301052	0.030652
1682	8.4050e-01	-12.7825	-76.701469	0.000495	4.951674	1.677673	0.039524
1683	8.4100e-01	-12.7472	-76.580476	0.000303	3.031637	1.027147	0.024199
1684	8.4150e-01	-12.7087	-76.366722	0.000536	5.355893	1.814626	0.042751
1685	8.4200e-01	-12.6734	-76.197332	0.000424	4.244292	1.438005	0.033878
1686	8.4250e-01	-12.6301	-76.019876	0.000445	4.446401	1.506482	0.035491
1687	8.4300e-01	-12.5820	-75.886783	0.000333	3.334801	1.129861	0.026618
1688	8.4350e-01	-12.5387	-75.773857	0.000283	2.829528	0.958670	0.022585
1689	8.4400e-01	-12.5034	-75.576235	0.000495	4.951674	1.677673	0.039524
1690	8.4450e-01	-12.4681	-75.390712	0.000465	4.648511	1.574958	0.037105
1691	8.4500e-01	-12.4280	-75.225355	0.000414	4.143238	1.403767	0.033071
1692	8.4550e-01	-12.3911	-75.064031	0.000404	4.042183	1.369529	0.032265
1693	8.4600e-01	-12.3590	-74.555861	0.001273	12.732877	4.314015	0.101634
1694	8.4650e-01	-12.3061	-74.672821	-0.000293	-2.930583	-0.992908	-0.023392
1695	8.4700e-01	-12.2708	-74.523596	0.000374	3.739019	1.266814	0.029845
1696	8.4750e-01	-12.2210	-74.366305	0.000394	3.941128	1.335290	0.031458
1697	8.4800e-01	-12.1841	-74.160617	0.000515	5.153783	1.746149	0.041138
1698	8.4850e-01	-12.1424	-73.946863	0.000536	5.355893	1.814626	0.042751
1699	8.4900e-01	-12.0943	-73.854102	0.000232	2.324255	0.787479	0.018552
1700	8.4950e-01	-12.0638	-73.628248	0.000566	5.659056	1.917340	0.045171
1701	8.5000e-01	-12.0317	-73.535487	0.000232	2.324255	0.787479	0.018552
1702	8.5050e-01	-11.9804	-73.257203	0.000697	6.972766	2.362437	0.055657
1703	8.5100e-01	-11.9435	-73.164442	0.000232	2.324255	0.787479	0.018552
1704	8.5150e-01	-11.9002	-72.986985	0.000445	4.446401	1.506482	0.035491
1705	8.5200e-01	-11.8697	-72.769198	0.000546	5.456947	1.848864	0.043557
1706	8.5250e-01	-11.8184	-72.595775	0.000435	4.345347	1.472243	0.034685
1707	8.5300e-01	-11.7831	-72.446550	0.000374	3.739019	1.266814	0.029845
1708	8.5350e-01	-11.7446	-72.285226	0.000404	4.042183	1.369529	0.032265
1709	8.5400e-01	-11.7013	-72.063406	0.000556	5.558002	1.883102	0.044364
1710	8.5450e-01	-11.6692	-71.849652	0.000536	5.355893	1.814626	0.042751
1711	8.5500e-01	-11.6195	-71.736725	0.000283	2.829528	0.958670	0.022585
1712	8.5550e-01	-11.5777	-71.547169	0.000475	4.749565	1.609196	0.037911
1713	8.5600e-01	-11.5360	-71.397945	0.000374	3.739019	1.266814	0.029845
1714	8.5650e-01	-11.5088	-71.107561	0.000728	7.275930	2.465152	0.058077
1715	8.5700e-01	-11.4590	-70.938171	0.000424	4.244292	1.438005	0.033878
1716	8.5750e-01	-11.4237	-70.780880	0.000394	3.941128	1.335290	0.031458
1717	8.5800e-01	-11.3901	-70.643755	0.000344	3.435856	1.164099	0.027425
1718	8.5850e-01	-11.3403	-70.486464	0.000394	3.941128	1.335290	0.031458
1719	8.5900e-01	-11.2954	-70.296909	0.000475	4.749565	1.609196	0.037911
1720	8.5950e-01	-11.2601	-70.119452	0.000445	4.446401	1.506482	0.035491
1721	8.6000e-01	-11.2200	-69.937963	0.000455	4.547456	1.540720	0.036298
1722	8.6050e-01	-11.1799	-69.764540	0.000435	4.345347	1.472243	0.034685
1723	8.6100e-01	-11.1414	-69.498355	0.000667	6.669602	2.259722	0.053237
1724	8.6150e-01	-11.1013	-69.377362	0.000303	3.031637	1.027147	0.024199
1725	8.6200e-01	-11.0580	-69.268468	0.000273	2.728474	0.924432	0.021779
1726	8.6250e-01	-11.0307	-69.018416	0.000627	6.265384	2.122769	0.050010
1727	8.6300e-01	-10.9810	-68.889357	0.000323	3.233746	1.095623	0.025812
1728	8.6350e-01	-10.9489	-68.619140	0.000677	6.770657	2.293961	0.054044
1729	8.6400e-01	-10.9008	-68.494114	0.000313	3.132692	1.061385	0.025005
1730	8.6450e-01	-10.8607	-68.352955	0.000354	3.536910	1.198338	0.028232
1731	8.6500e-01	-10.8254	-68.171466	0.000455	4.547456	1.540720	0.036298
1732	8.6550e-01	-10.7820	-67.901248	0.000677	6.770657	2.293961	0.054044
1733	8.6600e-01	-10.7452	-67.739924	0.000404	4.042183	1.369529	0.032265
1734	8.6650e-01	-10.7050	-67.667328	0.000182	1.818982	0.616288	0.014519
1735	8.6700e-01	-10.6633	-67.397111	0.000677	6.770657	2.293961	0.054044
1736	8.6750e-01	-10.6200	-67.235787	0.000404	4.042183	1.369529	0.032265
1737	8.6800e-01	-10.5927	-67.009933	0.000566	5.659056	1.917340	0.045171
1738	8.6850e-01	-10.5478	-66.848609	0.000404	4.042183	1.369529	0.032265
1739	8.6900e-01	-10.5093	-66.723583	0.000313	3.132692	1.061385	0.025005
1740	8.6950e-01	-10.4660	-66.485630	0.000596	5.962220	2.020055	0.047591
1741	8.7000e-01	-10.4147	-66.275909	0.000525	5.254838	1.780387	0.041944
1742	8.7050e-01	-10.3794	-66.118618	0.000394	3.941128	1.335290	0.031458
1743	8.7100e-01	-10.3473	-65.933096	0.000465	4.648511	1.574958	0.037105
1744	8.7150e-01	-10.3040	-65.711276	0.000556	5.558002	1.883102	0.044364
1745	8.7200e-01	-10.2639	-65.549952	0.000404	4.042183	1.369529	0.032265
1746	8.7250e-01	-10.2254	-65.416859	0.000333	3.334801	1.129861	0.026618
1747	8.7300e-01	-10.1805	-65.126476	0.000728	7.275930	2.465152	0.058077
1748	8.7350e-01	-10.1452	-64.953053	0.000435	4.345347	1.472243	0.034685
1749	8.7400e-01	-10.1067	-64.852226	0.000253	2.526364	0.855955	0.020165
1750	8.7450e-01	-10.0634	-64.638471	0.000536	5.355893	1.814626	0.042751
1751	8.7500e-01	-10.0232	-64.404552	0.000586	5.861165	1.985817	0.046784
1752	8.7550e-01	-9.9912	-64.166599	0.000596	5.962220	2.020055	0.047591
1753	8.7600e-01	-9.9398	-64.114168	0.000131	1.313709	0.445097	0.010486
1754	8.7650e-01	-9.9061	-63.892348	0.000556	5.558002	1.883102	0.044364
1755	8.7700e-01	-9.8692	-63.678594	0.000536	5.355893	1.814626	0.042751
1756	8.7750e-01	-9.8323	-63.525336	0.000384	3.840074	1.301052	0.030652
1757	8.7800e-01	-9.7826	-63.359979	0.000414	4.143238	1.403767	0.033071
1758	8.7850e-01	-9.7345	-63.222854	0.000344	3.435856	1.164099	0.027425
1759	8.7900e-01	-9.7056	-63.021199	0.000505	5.052729	1.711911	0.040331
1760	8.7950e-01	-9.6591	-62.811478	0.000525	5.254838	1.780387	0.041944
1761	8.8000e-01	-9.6286	-62.678385	0.000333	3.334801	1.129861	0.026618
1762	8.8050e-01	-9.5901	-62.412201	0.000667	6.669602	2.259722	0.053237
1763	8.8100e-01	-9.5452	-62.198447	0.000536	5.355893	1.814626	0.042751
1764	8.8150e-01	-9.4938	-62.041156	0.000394	3.941128	1.335290	0.031458
1765	8.8200e-01	-9.4586	-61.891931	0.000374	3.739019	1.266814	0.029845
1766	8.8250e-01	-9.4249	-61.678177	0.000536	5.355893	1.814626	0.042751
1767	8.8300e-01	-9.3799	-61.504754	0.000435	4.345347	1.472243	0.034685
1768	8.8350e-01	-9.3479	-61.258735	0.000616	6.164329	2.088531	0.049204
1769	8.8400e-01	-9.3094	-61.178073	0.000202	2.021092	0.684764	0.016132
1770	8.8450e-01	-9.2709	-60.899789	0.000697	6.972766	2.362437	0.055657
1771	8.8500e-01	-9.2195	-60.734432	0.000414	4.143238	1.403767	0.033071
1772	8.8550e-01	-9.1842	-60.556976	0.000445	4.446401	1.506482	0.035491
1773	8.8600e-01	-9.1425	-60.379519	0.000445	4.446401	1.506482	0.035491
1774	8.8650e-01	-9.1040	-60.117368	0.000657	6.568547	2.225484	0.052430
1775	8.8700e-01	-9.0655	-59.972176	0.000364	3.637965	1.232576	0.029038
1776	8.8750e-01	-9.0222	-59.818918	0.000384	3.840074	1.301052	0.030652
1777	8.8800e-01	-8.9837	-59.572899	0.000616	6.164329	2.088531	0.049204
1778	8.8850e-01	-8.9388	-59.395443	0.000445	4.446401	1.506482	0.035491
1779	8.8900e-01	-8.9083	-59.246218	0.000374	3.739019	1.266814	0.029845
1780	8.8950e-01	-8.8522	-59.068762	0.000445	4.446401	1.506482	0.035491
1781	8.9000e-01	-8.8169	-58.826776	0.000606	6.063275	2.054293	0.048397
1782	8.9050e-01	-8.7912	-58.689651	0.000344	3.435856	1.164099	0.027425
1783	8.9100e-01	-8.7399	-58.479930	0.000525	5.254838	1.780387	0.041944
1784	8.9150e-01	-8.6998	-58.294407	0.000465	4.648511	1.574958	0.037105
1785	8.9200e-01	-8.6580	-58.149216	0.000364	3.637965	1.232576	0.029038
1786	8.9250e-01	-8.6228	-57.846733	0.000758	7.579093	2.567866	0.060496
1787	8.9300e-01	-8.5810	-57.624913	0.000556	5.558002	1.883102	0.044364
1788	8.9350e-01	-8.5281	-57.463589	0.000404	4.042183	1.369529	0.032265
1789	8.9400e-01	-8.5008	-57.274033	0.000475	4.749565	1.609196	0.037911
1790	8.9450e-01	-8.4639	-57.144974	0.000323	3.233746	1.095623	0.025812
1791	8.9500e-01	-8.4286	-57.007849	0.000344	3.435856	1.164099	0.027425
1792	8.9550e-01	-8.3805	-56.709399	0.000748	7.478039	2.533628	0.059690
1793	8.9600e-01	-8.3404	-56.620671	0.000222	2.223201	0.753241	0.017746
1794	8.9650e-01	-8.3035	-56.382718	0.000596	5.962220	2.020055	0.047591
1795	8.9700e-01	-8.2634	-56.177030	0.000515	5.153783	1.746149	0.041138
1796	8.9750e-01	-8.2201	-56.084269	0.000232	2.324255	0.787479	0.018552
1797	8.9800e-01	-8.1816	-55.862449	0.000556	5.558002	1.883102	0.044364
1798	8.9850e-01	-8.1415	-55.543834	0.000798	7.983312	2.704819	0.063723
1799	8.9900e-01	-8.1030	-55.402675	0.000354	3.536910	1.198338	0.028232
1800	8.9950e-01	-8.0581	-55.176822	0.000566	5.659056	1.917340	0.045171
1801	9.0000e-01	-8.0292	-54.975167	0.000505	5.052729	1.711911	0.040331
1802	9.0050e-01	-7.9843	-54.773512	0.000505	5.052729	1.711911	0.040331
1803	9.0100e-01	-7.9490	-54.592023	0.000455	4.547456	1.540720	0.036298
1804	9.0150e-01	-7.9025	-54.410533	0.000455	4.547456	1.540720	0.036298
1805	9.0200e-01	-7.8704	-54.144349	0.000667	6.669602	2.259722	0.053237
1806	9.0250e-01	-7.8254	-53.987058	0.000394	3.941128	1.335290	0.031458
1807	9.0300e-01	-7.7773	-53.821701	0.000414	4.143238	1.403767	0.033071
1808	9.0350e-01	-7.7452	-53.672476	0.000374	3.739019	1.266814	0.029845
1809	9.0400e-01	-7.7083	-53.410325	0.000657	6.568547	2.225484	0.052430
1810	9.0450e-01	-7.6618	-53.228835	0.000455	4.547456	1.540720	0.036298
1811	9.0500e-01	-7.6217	-53.091710	0.000344	3.435856	1.164099	0.027425
1812	9.0550e-01	-7.5864	-52.845691	0.000616	6.164329	2.088531	0.049204
1813	9.0600e-01	-7.5399	-52.680334	0.000414	4.143238	1.403767	0.033071
1814	9.0650e-01	-7.5046	-52.535142	0.000364	3.637965	1.232576	0.029038
1815	9.0700e-01	-7.4661	-52.281057	0.000637	6.366438	2.157008	0.050817
1816	9.0750e-01	-7.4228	-52.075369	0.000515	5.153783	1.746149	0.041138
1817	9.0800e-01	-7.3811	-51.897913	0.000445	4.446401	1.506482	0.035491
1818	9.0850e-01	-7.3378	-51.760787	0.000344	3.435856	1.164099	0.027425
1819	9.0900e-01	-7.3105	-51.442173	0.000798	7.983312	2.704819	0.063723
1820	9.0950e-01	-7.2575	-51.204220	0.000596	5.962220	2.020055	0.047591
1821	9.1000e-01	-7.2239	-51.099359	0.000263	2.627419	0.890194	0.020972
1822	9.1050e-01	-7.1805	-50.825109	0.000687	6.871711	2.328199	0.054850
1823	9.1100e-01	-7.1404	-50.776711	0.000121	1.212655	0.410859	0.009679
1824	9.1150e-01	-7.1035	-50.558924	0.000546	5.456947	1.848864	0.043557
1825	9.1200e-01	-7.0602	-50.365335	0.000485	4.850620	1.643434	0.038718
1826	9.1250e-01	-7.0201	-50.195945	0.000424	4.244292	1.438005	0.033878
1827	9.1300e-01	-6.9768	-49.966059	0.000576	5.760111	1.951578	0.045977
1828	9.1350e-01	-6.9383	-49.699874	0.000667	6.669602	2.259722	0.053237
1829	9.1400e-01	-6.9062	-49.498219	0.000505	5.052729	1.711911	0.040331
1830	9.1450e-01	-6.8709	-49.272366	0.000566	5.659056	1.917340	0.045171
1831	9.1500e-01	-6.8212	-48.977949	0.000738	7.376984	2.499390	0.058883
1832	9.1550e-01	-6.7923	-48.901321	0.000192	1.920037	0.650526	0.015326
1833	9.1600e-01	-6.7458	-48.764195	0.000344	3.435856	1.164099	0.027425
1834	9.1650e-01	-6.6961	-48.582706	0.000455	4.547456	1.540720	0.036298
1835	9.1700e-01	-6.6608	-48.352819	0.000576	5.760111	1.951578	0.045977
1836	9.1750e-01	-6.6223	-48.215694	0.000344	3.435856	1.164099	0.027425
1837	9.1800e-01	-6.5741	-47.989840	0.000566	5.659056	1.917340	0.045171
1838	9.1850e-01	-6.5276	-47.642994	0.000869	8.690694	2.944487	0.069369
1839	9.1900e-01	-6.4987	-47.530067	0.000283	2.829528	0.958670	0.022585
1840	9.1950e-01	-6.4570	-47.308247	0.000556	5.558002	1.883102	0.044364
1841	9.2000e-01	-6.4314	-47.038029	0.000677	6.770657	2.293961	0.054044
1842	9.2050e-01	-6.3800	-46.913003	0.000313	3.132692	1.061385	0.025005
1843	9.2100e-01	-6.3431	-46.695216	0.000546	5.456947	1.848864	0.043557
1844	9.2150e-01	-6.3127	-46.554057	0.000354	3.536910	1.198338	0.028232
1845	9.2200e-01	-6.2661	-46.304005	0.000627	6.265384	2.122769	0.050010
1846	9.2250e-01	-6.2260	-46.126549	0.000445	4.446401	1.506482	0.035491
1847	9.2300e-01	-6.1859	-45.904728	0.000556	5.558002	1.883102	0.044364
1848	9.2350e-01	-6.1442	-45.711140	0.000485	4.850620	1.643434	0.038718
1849	9.2400e-01	-6.1025	-45.493352	0.000546	5.456947	1.848864	0.043557
1850	9.2450e-01	-6.0640	-45.319929	0.000435	4.345347	1.472243	0.034685
1851	9.2500e-01	-6.0191	-45.154572	0.000414	4.143238	1.403767	0.033071
1852	9.2550e-01	-5.9822	-45.005347	0.000374	3.739019	1.266814	0.029845
1853	9.2600e-01	-5.9437	-44.767394	0.000596	5.962220	2.020055	0.047591
1854	9.2650e-01	-5.9068	-44.589938	0.000445	4.446401	1.506482	0.035491
1855	9.2700e-01	-5.8635	-44.251158	0.000849	8.488584	2.876010	0.067756
1856	9.2750e-01	-5.8186	-44.081768	0.000424	4.244292	1.438005	0.033878
1857	9.2800e-01	-5.7945	-43.932543	0.000374	3.739019	1.266814	0.029845
1858	9.2850e-01	-5.7512	-43.686524	0.000616	6.164329	2.088531	0.049204
1859	9.2900e-01	-5.7127	-43.448571	0.000596	5.962220	2.020055	0.047591
1860	9.2950e-01	-5.6662	-43.242883	0.000515	5.153783	1.746149	0.041138
1861	9.3000e-01	-5.6244	-43.081559	0.000404	4.042183	1.369529	0.032265
1862	9.3050e-01	-5.5859	-42.859739	0.000556	5.558002	1.883102	0.044364
1863	9.3100e-01	-5.5458	-42.625819	0.000586	5.861165	1.985817	0.046784
1864	9.3150e-01	-5.5073	-42.440297	0.000465	4.648511	1.574958	0.037105
1865	9.3200e-01	-5.4720	-42.230575	0.000525	5.254838	1.780387	0.041944
1866	9.3250e-01	-5.4319	-42.153947	0.000192	1.920037	0.650526	0.015326
1867	9.3300e-01	-5.3806	-41.940192	0.000536	5.355893	1.814626	0.042751
1868	9.3350e-01	-5.3485	-41.601412	0.000849	8.488584	2.876010	0.067756
1869	9.3400e-01	-5.3052	-41.492518	0.000273	2.728474	0.924432	0.021779
1870	9.3450e-01	-5.2731	-41.214235	0.000697	6.972766	2.362437	0.055657
1871	9.3500e-01	-5.2282	-40.992414	0.000556	5.558002	1.883102	0.044364
1872	9.3550e-01	-5.1849	-40.754461	0.000596	5.962220	2.020055	0.047591
1873	9.3600e-01	-5.1560	-40.568939	0.000465	4.648511	1.574958	0.037105
1874	9.3650e-01	-5.1015	-40.379383	0.000475	4.749565	1.609196	0.037911
1875	9.3700e-01	-5.0694	-40.149497	0.000576	5.760111	1.951578	0.045977
1876	9.3750e-01	-5.0277	-39.947842	0.000505	5.052729	1.711911	0.040331
1877	9.3800e-01	-4.9876	-39.774418	0.000435	4.345347	1.472243	0.034685
1878	9.3850e-01	-4.9426	-39.605028	0.000424	4.244292	1.438005	0.033878
1879	9.3900e-01	-4.8977	-39.375142	0.000576	5.760111	1.951578	0.045977
1880	9.3950e-01	-4.8592	-39.205752	0.000424	4.244292	1.438005	0.033878
1881	9.4000e-01	-4.8255	-38.987964	0.000546	5.456947	1.848864	0.043557
1882	9.4050e-01	-4.7806	-38.754044	0.000586	5.861165	1.985817	0.046784
1883	9.4100e-01	-4.7501	-38.487860	0.000667	6.669602	2.259722	0.053237
1884	9.4150e-01	-4.7052	-38.257973	0.000576	5.760111	1.951578	0.045977
1885	9.4200e-01	-4.6651	-38.213609	0.000111	1.111600	0.376620	0.008873
1886	9.4250e-01	-4.6314	-37.995822	0.000546	5.456947	1.848864	0.043557
1887	9.4300e-01	-4.5801	-37.697373	0.000748	7.478039	2.533628	0.059690
1888	9.4350e-01	-4.5352	-37.548148	0.000374	3.739019	1.266814	0.029845
1889	9.4400e-01	-4.4999	-37.310195	0.000596	5.962220	2.020055	0.047591
1890	9.4450e-01	-4.4646	-37.031911	0.000697	6.972766	2.362437	0.055657
1891	9.4500e-01	-4.4245	-36.910918	0.000303	3.031637	1.027147	0.024199
1892	9.4550e-01	-4.3876	-36.644734	0.000667	6.669602	2.259722	0.053237
1893	9.4600e-01	-4.3523	-36.483410	0.000404	4.042183	1.369529	0.032265
1894	9.4650e-01	-4.3042	-36.269656	0.000536	5.355893	1.814626	0.042751
1895	9.4700e-01	-4.2608	-36.100266	0.000424	4.244292	1.438005	0.033878
1896	9.4750e-01	-4.2272	-35.926842	0.000435	4.345347	1.472243	0.034685
1897	9.4800e-01	-4.1870	-35.616294	0.000778	7.781202	2.636343	0.062110
1898	9.4850e-01	-4.1325	-35.459003	0.000394	3.941128	1.335290	0.031458
1899	9.4900e-01	-4.1100	-35.208951	0.000627	6.265384	2.122769	0.050010
1900	9.4950e-01	-4.0603	-34.975031	0.000586	5.861165	1.985817	0.046784
1901	9.5000e-01	-4.0298	-34.769343	0.000515	5.153783	1.746149	0.041138
1902	9.5050e-01	-3.9833	-34.478960	0.000728	7.275930	2.465152	0.058077
1903	9.5100e-01	-3.9416	-34.341835	0.000344	3.435856	1.164099	0.027425
1904	9.5150e-01	-3.9095	-34.156312	0.000465	4.648511	1.574958	0.037105
1905	9.5200e-01	-3.8630	-33.926425	0.000576	5.760111	1.951578	0.045977
1906	9.5250e-01	-3.8293	-33.700572	0.000566	5.659056	1.917340	0.045171
1907	9.5300e-01	-3.7908	-33.470685	0.000576	5.760111	1.951578	0.045977
1908	9.5350e-01	-3.7427	-33.341626	0.000323	3.233746	1.095623	0.025812
1909	9.5400e-01	-3.7010	-33.148037	0.000485	4.850620	1.643434	0.038718
1910	9.5450e-01	-3.6641	-32.881853	0.000667	6.669602	2.259722	0.053237
1911	9.5500e-01	-3.6320	-32.740694	0.000354	3.536910	1.198338	0.028232
1912	9.5550e-01	-3.5790	-32.502742	0.000596	5.962220	2.020055	0.047591
1913	9.5600e-01	-3.5405	-32.200259	0.000758	7.579093	2.567866	0.060496
1914	9.5650e-01	-3.5036	-31.994571	0.000515	5.153783	1.746149	0.041138
1915	9.5700e-01	-3.4748	-31.861479	0.000333	3.334801	1.129861	0.026618
1916	9.5750e-01	-3.4266	-31.599328	0.000657	6.568547	2.225484	0.052430
1917	9.5800e-01	-3.3833	-31.345242	0.000637	6.366438	2.157008	0.050817
1918	9.5850e-01	-3.3512	-31.171819	0.000435	4.345347	1.472243	0.034685
1919	9.5900e-01	-3.3063	-30.974197	0.000495	4.951674	1.677673	0.039524
1920	9.5950e-01	-3.2678	-30.756410	0.000546	5.456947	1.848864	0.043557
1921	9.6000e-01	-3.2245	-30.514424	0.000606	6.063275	2.054293	0.048397
1922	9.6050e-01	-3.1844	-30.248240	0.000667	6.669602	2.259722	0.053237
1923	9.6100e-01	-3.1491	-30.143379	0.000263	2.627419	0.890194	0.020972
1924	9.6150e-01	-3.1074	-30.030452	0.000283	2.829528	0.958670	0.022585
1925	9.6200e-01	-3.0593	-29.663440	0.000920	9.195966	3.115678	0.073402
1926	9.6250e-01	-3.0240	-29.554547	0.000273	2.728474	0.924432	0.021779
1927	9.6300e-01	-2.9903	-29.264163	0.000728	7.275930	2.465152	0.058077
1928	9.6350e-01	-2.9454	-29.066542	0.000495	4.951674	1.677673	0.039524
1929	9.6400e-01	-2.9021	-28.901185	0.000414	4.143238	1.403767	0.033071
1930	9.6450e-01	-2.8620	-28.614835	0.000717	7.174875	2.430913	0.057270
1931	9.6500e-01	-2.8299	-28.380915	0.000586	5.861165	1.985817	0.046784
1932	9.6550e-01	-2.7882	-28.179260	0.000505	5.052729	1.711911	0.040331
1933	9.6600e-01	-2.7464	-27.993737	0.000465	4.648511	1.574958	0.037105
1934	9.6650e-01	-2.6999	-27.759818	0.000586	5.861165	1.985817	0.046784
1935	9.6700e-01	-2.6662	-27.489600	0.000677	6.770657	2.293961	0.054044
1936	9.6750e-01	-2.6181	-27.283912	0.000515	5.153783	1.746149	0.041138
1937	9.6800e-01	-2.5828	-27.150820	0.000333	3.334801	1.129861	0.026618
1938	9.6850e-01	-2.5459	-26.852370	0.000748	7.478039	2.533628	0.059690
1939	9.6900e-01	-2.5042	-26.614418	0.000596	5.962220	2.020055	0.047591
1940	9.6950e-01	-2.4593	-26.396630	0.000546	5.456947	1.848864	0.043557
1941	9.7000e-01	-2.4224	-26.203042	0.000485	4.850620	1.643434	0.038718
1942	9.7050e-01	-2.3807	-25.989287	0.000536	5.355893	1.814626	0.042751
1943	9.7100e-01	-2.3422	-25.880394	0.000273	2.728474	0.924432	0.021779
1944	9.7150e-01	-2.2973	-25.650507	0.000576	5.760111	1.951578	0.045977
1945	9.7200e-01	-2.2588	-25.452885	0.000495	4.951674	1.677673	0.039524
1946	9.7250e-01	-2.2299	-25.122171	0.000829	8.286475	2.807534	0.066143
1947	9.7300e-01	-2.1850	-24.940682	0.000455	4.547456	1.540720	0.036298
1948	9.7350e-01	-2.1465	-24.714828	0.000566	5.659056	1.917340	0.045171
1949	9.7400e-01	-2.0967	-24.541405	0.000435	4.345347	1.472243	0.034685
1950	9.7450e-01	-2.0711	-24.291353	0.000627	6.265384	2.122769	0.050010
1951	9.7500e-01	-2.0229	-24.093731	0.000495	4.951674	1.677673	0.039524
1952	9.7550e-01	-1.9812	-23.823513	0.000677	6.770657	2.293961	0.054044
1953	9.7600e-01	-1.9443	-23.658156	0.000414	4.143238	1.403767	0.033071
1954	9.7650e-01	-1.9010	-23.504899	0.000384	3.840074	1.301052	0.030652
1955	9.7700e-01	-1.8673	-23.238714	0.000667	6.669602	2.259722	0.053237
1956	9.7750e-01	-1.8256	-22.944298	0.000738	7.376984	2.499390	0.058883
1957	9.7800e-01	-1.7903	-22.778941	0.000414	4.143238	1.403767	0.033071
1958	9.7850e-01	-1.7422	-22.492591	0.000717	7.174875	2.430913	0.057270
1959	9.7900e-01	-1.7005	-22.335300	0.000394	3.941128	1.335290	0.031458
1960	9.7950e-01	-1.6620	-22.069116	0.000667	6.669602	2.259722	0.053237
1961	9.8000e-01	-1.6251	-21.863428	0.000515	5.153783	1.746149	0.041138
1962	9.8050e-01	-1.5866	-21.685971	0.000445	4.446401	1.506482	0.035491
1963	9.8100e-01	-1.5465	-21.468184	0.000546	5.456947	1.848864	0.043557
1964	9.8150e-01	-1.5080	-21.226198	0.000606	6.063275	2.054293	0.048397
1965	9.8200e-01	-1.4615	-20.939848	0.000717	7.174875	2.430913	0.057270
1966	9.8250e-01	-1.4262	-20.770458	0.000424	4.244292	1.438005	0.033878
1967	9.8300e-01	-1.3877	-20.536538	0.000586	5.861165	1.985817	0.046784
1968	9.8350e-01	-1.3395	-20.375214	0.000404	4.042183	1.369529	0.032265
1969	9.8400e-01	-1.3026	-20.133228	0.000606	6.063275	2.054293	0.048397
1970	9.8450e-01	-1.2545	-19.838812	0.000738	7.376984	2.499390	0.058883
1971	9.8500e-01	-1.2321	-19.637157	0.000505	5.052729	1.711911	0.040331
1972	9.8550e-01	-1.1839	-19.383072	0.000637	6.366438	2.157008	0.050817
1973	9.8600e-01	-1.1406	-19.258046	0.000313	3.132692	1.061385	0.025005
1974	9.8650e-01	-1.0989	-19.028159	0.000576	5.760111	1.951578	0.045977
1975	9.8700e-01	-1.0684	-18.806339	0.000556	5.558002	1.883102	0.044364
1976	9.8750e-01	-1.0251	-18.604684	0.000505	5.052729	1.711911	0.040331
1977	9.8800e-01	-0.9850	-18.326400	0.000697	6.972766	2.362437	0.055657
1978	9.8850e-01	-0.9481	-18.189275	0.000344	3.435856	1.164099	0.027425
1979	9.8900e-01	-0.9128	-17.939223	0.000627	6.265384	2.122769	0.050010
1980	9.8950e-01	-0.8743	-17.741601	0.000495	4.951674	1.677673	0.039524
1981	9.9000e-01	-0.8262	-17.515747	0.000566	5.659056	1.917340	0.045171
1982	9.9050e-01	-0.7925	-17.322158	0.000485	4.850620	1.643434	0.038718
1983	9.9100e-01	-0.7396	-17.055974	0.000667	6.669602	2.259722	0.053237
1984	9.9150e-01	-0.7123	-16.862385	0.000485	4.850620	1.643434	0.038718
1985	9.9200e-01	-0.6609	-16.620399	0.000606	6.063275	2.054293	0.048397
1986	9.9250e-01	-0.6273	-16.390513	0.000576	5.760111	1.951578	0.045977
1987	9.9300e-01	-0.5839	-16.120295	0.000677	6.770657	2.293961	0.054044
1988	9.9350e-01	-0.5374	-15.971070	0.000374	3.739019	1.266814	0.029845
1989	9.9400e-01	-0.5069	-15.664555	0.000768	7.680148	2.602105	0.061303
1990	9.9450e-01	-0.4652	-15.470966	0.000485	4.850620	1.643434	0.038718
1991	9.9500e-01	-0.4235	-15.192682	0.000697	6.972766	2.362437	0.055657
1992	9.9550e-01	-0.3834	-14.995061	0.000495	4.951674	1.677673	0.039524
1993	9.9600e-01	-0.3513	-14.882134	0.000283	2.829528	0.958670	0.022585
1994	9.9650e-01	-0.2968	-14.595784	0.000717	7.174875	2.430913	0.057270
1995	9.9700e-01	-0.2583	-14.321533	0.000687	6.871711	2.328199	0.054850
1996	9.9750e-01	-0.2246	-14.188441	0.000333	3.334801	1.129861	0.026618
1997	9.9800e-01	-0.1845	-13.902091	0.000717	7.174875	2.430913	0.057270
1998	9.9850e-01	-0.1492	-13.696403	0.000515	5.153783	1.746149	0.041138
1999	9.9900e-01	-0.1107	-13.510880	0.000465	4.648511	1.574958	0.037105
2000	9.9950e-01	-0.0529	-13.276961	0.000586	5.861165	1.985817	0.046784
2001	1.0000e+00	-0.0417	-13.155968	0.000586	5.861165	1.985817	0.024199

PMax (uC/cm2):	1.10e+02
Pr (uC/cm2):	6.40e+00
-Pr (uC/cm2):	-6.83e+00
PLoss (uC/cm2):	-6.77e+00
-Vc:	-1.12e+00
C (Max-Eff) (nF):	5.49e-01
K (Eff):	1.86e+03
Vert. (+/-Pr) Shift (uC/cm2):	-2.15e-01
Offset (uC/cm2):	6.33e+00

A (Loop Area - uC/cm2·Volts):	-2.10e-01



Hysteresis Version: 5.48.1 - Radiant Technologies, Inc., 1999 - 9/12/24

