»»»»»»»»»»»»»»»»»»»»»»»»»»»»»»»»»»»» Hysteresis ««««««««««««««««««««««««««««««««««««
»»»  Executed Version:	5.48.1
»»»  Vision Version:	5.48.4 (R)
»»»  Vision Compiled:	9/18/24
»»»  Driver Version:	5.47.0
»»»  Windows Version:	Windows 8 or 8.1
»»»  Processor Information:	x86 (AMD or Intel) - 32 Processors
»»»  Tester Name:	PMF21124-494 (100V)
»»»  Tester S/N:	PMF21124-494
»»»  Internal Amp Type:	100V RevK 270k
»»»  Internal Amp S/N:	iAB2-596/K     
»»»  Execution Count:	1
»»»»»»»»»»»»»»»»»»»»»»»»»»»»»»»»»»»»»»»»»»««««««««««««««««««««««««««««««««««««««««««

Stored:	6/18/2025 - 13:41:34
Configured:	06/18/25 09:47:30 AM
Executed:	06/18/25 01:40:50 PM

»»»»»»»»»»»»»»»»»»»»»»»»»»»»»»»»»»» Sample Info ««««««««««««««««««««««««««««««««««««
Sample Name:	
Lot Name:	
Wafer Name:	
Die Row/Column:	0/0
Capacitor Number:	0
Sample Area (cm2):	1.00e-04
Sample Thickness (microns):	3.00e-01

Amplifier:	Internal

»»»»»»»»»»»»»»»»»»»»»»»»»»»»»»»»»»» Tester Info «««««««««««««««««««««««««««««««««««
Tester Name:	PMF21124-494 (100V)
Tester Serial Number:	PMF21124-494
Return Signal Amp. Level:	0.19 [Index: 3]

»»»»»»»»»»»»»»»»»»»»»»»»»»»»»»»» Hysteresis Info ««««««««««««««««««««««««««««««««««
Task Name:	Hyst-554
Volts:	20.00
Field:	666.67 (kV/cm)
DCBias:	0.00
DCField:	0.00 (kV/cm)
Hysteresis Period (ms):	2.00e+02
Preset:	Enabled
Preset Delay (ms):	1.00e+03
Profile:	Standard Bipolar

»»»»»»»»»»»»»»»»»»»»»»»»»»»»»»»»»»»»»» Data «««««««««««««««««««««««««««««««««««««««
Points:	2009

Valid Data

Point	Time (ms)	Drive Voltage	Measured Polarization (uC/cm2)	Capacitance (uF)	Normalized Capacitance (uF/cm2)	Dielectric Constant	Instantaneous Current (mA)
   1	0.0000e+00	0.0016	-6.176818	0.000456	4.561324	1.545418	0.000183
   2	9.9500e-02	0.0305	-5.995147	0.000456	4.561324	1.545418	0.000183
   3	1.9900e-01	0.0722	-5.760993	0.000588	5.879039	1.991872	0.000235
   4	2.9850e-01	0.1155	-5.587396	0.000436	4.358598	1.476733	0.000174
   5	3.9800e-01	0.1476	-5.337093	0.000628	6.284490	2.129243	0.000252
   6	4.9750e-01	0.1909	-5.143311	0.000487	4.865412	1.648446	0.000195
   7	5.9700e-01	0.2278	-4.909157	0.000588	5.879039	1.991872	0.000235
   8	6.9650e-01	0.2663	-4.731523	0.000446	4.459961	1.511076	0.000179
   9	7.9600e-01	0.3032	-4.481221	0.000628	6.284490	2.129243	0.000252
  10	8.9550e-01	0.3513	-4.271290	0.000527	5.270863	1.785817	0.000211
  11	9.9500e-01	0.3850	-4.045210	0.000568	5.676314	1.923187	0.000227
  12	1.0945e+00	0.4235	-3.827205	0.000547	5.473588	1.854502	0.000219
  13	1.1940e+00	0.4700	-3.597088	0.000578	5.777677	1.957530	0.000231
  14	1.2935e+00	0.5085	-3.391194	0.000517	5.169500	1.751474	0.000207
  15	1.3930e+00	0.5503	-3.217597	0.000436	4.358598	1.476733	0.000174
  16	1.4925e+00	0.5855	-2.926923	0.000730	7.298118	2.472669	0.000292
  17	1.5920e+00	0.6353	-2.716992	0.000527	5.270863	1.785817	0.000211
  18	1.6915e+00	0.6577	-2.474764	0.000608	6.081765	2.060558	0.000243
  19	1.7910e+00	0.7059	-2.252722	0.000557	5.574951	1.888845	0.000223
  20	1.8905e+00	0.7492	-2.071051	0.000456	4.561324	1.545418	0.000183
  21	1.9900e+00	0.7877	-1.796525	0.000689	6.892667	2.335299	0.000276
  22	2.0895e+00	0.8406	-1.614854	0.000456	4.561324	1.545418	0.000183
  23	2.1890e+00	0.8679	-1.396849	0.000547	5.473588	1.854502	0.000219
  24	2.2885e+00	0.9048	-1.110212	0.000720	7.196755	2.438327	0.000288
  25	2.3880e+00	0.9497	-0.908356	0.000507	5.068137	1.717131	0.000203
  26	2.4875e+00	0.9866	-0.674202	0.000588	5.879039	1.991872	0.000235
  27	2.5870e+00	1.0219	-0.448122	0.000568	5.676314	1.923187	0.000227
  28	2.6865e+00	1.0604	-0.250302	0.000497	4.966775	1.682789	0.000199
  29	2.7860e+00	1.1101	0.008074	0.000649	6.487216	2.197928	0.000260
  30	2.8855e+00	1.1470	0.242228	0.000588	5.879039	1.991872	0.000235
  31	2.9850e+00	1.1871	0.452159	0.000527	5.270863	1.785817	0.000211
  32	3.0845e+00	1.2256	0.670165	0.000547	5.473588	1.854502	0.000219
  33	3.1840e+00	1.2673	0.972950	0.000760	7.602206	2.575697	0.000304
  34	3.2835e+00	1.3026	1.178844	0.000517	5.169500	1.751474	0.000207
  35	3.3830e+00	1.3492	1.388775	0.000527	5.270863	1.785817	0.000211
  36	3.4825e+00	1.3925	1.606780	0.000547	5.473588	1.854502	0.000219
  37	3.5820e+00	1.4230	1.853045	0.000618	6.183128	2.094900	0.000248
  38	3.6815e+00	1.4599	2.067013	0.000537	5.372226	1.820159	0.000215
  39	3.7810e+00	1.5112	2.272907	0.000517	5.169500	1.751474	0.000207
  40	3.8805e+00	1.5417	2.535321	0.000659	6.588579	2.232271	0.000264
  41	3.9800e+00	1.5818	2.765438	0.000578	5.777677	1.957530	0.000231
  42	4.0795e+00	1.6203	2.975369	0.000527	5.270863	1.785817	0.000211
  43	4.1790e+00	1.6684	3.209523	0.000588	5.879039	1.991872	0.000235
  44	4.2785e+00	1.7021	3.415417	0.000517	5.169500	1.751474	0.000207
  45	4.3780e+00	1.7454	3.706091	0.000730	7.298118	2.472669	0.000292
  46	4.4775e+00	1.7855	3.924096	0.000547	5.473588	1.854502	0.000219
  47	4.5770e+00	1.8272	4.146138	0.000557	5.574951	1.888845	0.000223
  48	4.6765e+00	1.8577	4.360107	0.000537	5.372226	1.820159	0.000215
  49	4.7760e+00	1.9042	4.630595	0.000679	6.791304	2.300956	0.000272
  50	4.8755e+00	1.9379	4.840526	0.000527	5.270863	1.785817	0.000211
  51	4.9750e+00	1.9860	5.094865	0.000639	6.385853	2.163586	0.000256
  52	5.0745e+00	2.0213	5.320945	0.000568	5.676314	1.923187	0.000227
  53	5.1740e+00	2.0614	5.526839	0.000517	5.169500	1.751474	0.000207
  54	5.2735e+00	2.0999	5.752918	0.000568	5.676314	1.923187	0.000227
  55	5.3730e+00	2.1368	6.015332	0.000659	6.588579	2.232271	0.000264
  56	5.4725e+00	2.1769	6.229300	0.000537	5.372226	1.820159	0.000215
  57	5.5720e+00	2.2219	6.487677	0.000649	6.487216	2.197928	0.000260
  58	5.6715e+00	2.2636	6.721831	0.000588	5.879039	1.991872	0.000235
  59	5.7710e+00	2.3005	6.955985	0.000588	5.879039	1.991872	0.000235
  60	5.8705e+00	2.3486	7.169953	0.000537	5.372226	1.820159	0.000215
  61	5.9700e+00	2.3823	7.412181	0.000608	6.081765	2.060558	0.000243
  62	6.0695e+00	2.4112	7.666521	0.000639	6.385853	2.163586	0.000256
  63	6.1690e+00	2.4545	7.920860	0.000639	6.385853	2.163586	0.000256
  64	6.2685e+00	2.5074	8.118680	0.000497	4.966775	1.682789	0.000199
  65	6.3680e+00	2.5379	8.373020	0.000639	6.385853	2.163586	0.000256
  66	6.4675e+00	2.5860	8.603136	0.000578	5.777677	1.957530	0.000231
  67	6.5670e+00	2.6245	8.829216	0.000568	5.676314	1.923187	0.000227
  68	6.6665e+00	2.6678	9.047221	0.000547	5.473588	1.854502	0.000219
  69	6.7660e+00	2.7015	9.285412	0.000598	5.980402	2.026215	0.000239
  70	6.8655e+00	2.7416	9.559937	0.000689	6.892667	2.335299	0.000276
  71	6.9650e+00	2.7737	9.790054	0.000578	5.777677	1.957530	0.000231
  72	7.0645e+00	2.8218	10.004022	0.000537	5.372226	1.820159	0.000215
  73	7.1640e+00	2.8523	10.282585	0.000699	6.994030	2.369641	0.000280
  74	7.2635e+00	2.9005	10.508664	0.000568	5.676314	1.923187	0.000227
  75	7.3630e+00	2.9325	10.738781	0.000578	5.777677	1.957530	0.000231
  76	7.4625e+00	2.9839	11.013306	0.000689	6.892667	2.335299	0.000276
  77	7.5620e+00	3.0224	11.154606	0.000355	3.547696	1.201992	0.000142
  78	7.6615e+00	3.0705	11.445280	0.000730	7.298118	2.472669	0.000292
  79	7.7610e+00	3.1010	11.671359	0.000568	5.676314	1.923187	0.000227
  80	7.8605e+00	3.1347	11.945885	0.000689	6.892667	2.335299	0.000276
  81	7.9600e+00	3.1732	12.147741	0.000507	5.068137	1.717131	0.000203
  82	8.0595e+00	3.2197	12.377858	0.000578	5.777677	1.957530	0.000231
  83	8.1590e+00	3.2534	12.607975	0.000578	5.777677	1.957530	0.000231
  84	8.2585e+00	3.3047	12.870389	0.000659	6.588579	2.232271	0.000264
  85	8.3580e+00	3.3368	13.108580	0.000598	5.980402	2.026215	0.000239
  86	8.4575e+00	3.3689	13.362919	0.000639	6.385853	2.163586	0.000256
  87	8.5570e+00	3.4202	13.601110	0.000598	5.980402	2.026215	0.000239
  88	8.6565e+00	3.4587	13.851413	0.000628	6.284490	2.129243	0.000252
  89	8.7560e+00	3.4972	14.105752	0.000639	6.385853	2.163586	0.000256
  90	8.8555e+00	3.5373	14.319720	0.000537	5.372226	1.820159	0.000215
  91	8.9550e+00	3.5742	14.565986	0.000618	6.183128	2.094900	0.000248
  92	9.0545e+00	3.6079	14.804177	0.000598	5.980402	2.026215	0.000239
  93	9.1540e+00	3.6657	15.046405	0.000608	6.081765	2.060558	0.000243
  94	9.2535e+00	3.6945	15.280559	0.000588	5.879039	1.991872	0.000235
  95	9.3530e+00	3.7363	15.526824	0.000618	6.183128	2.094900	0.000248
  96	9.4525e+00	3.7716	15.797312	0.000679	6.791304	2.300956	0.000272
  97	9.5520e+00	3.8229	16.039540	0.000608	6.081765	2.060558	0.000243
  98	9.6515e+00	3.8550	16.265620	0.000568	5.676314	1.923187	0.000227
  99	9.7510e+00	3.8935	16.536108	0.000679	6.791304	2.300956	0.000272
 100	9.8505e+00	3.9304	16.762188	0.000568	5.676314	1.923187	0.000227
 101	9.9500e+00	3.9753	17.004416	0.000608	6.081765	2.060558	0.000243
 102	1.0050e+01	4.0154	17.254718	0.000628	6.284490	2.129243	0.000252
 103	1.0149e+01	4.0635	17.517132	0.000659	6.588579	2.232271	0.000264
 104	1.0248e+01	4.0908	17.706877	0.000476	4.764049	1.614104	0.000191
 105	1.0348e+01	4.1309	17.965254	0.000649	6.487216	2.197928	0.000260
 106	1.0447e+01	4.1774	18.219594	0.000639	6.385853	2.163586	0.000256
 107	1.0547e+01	4.2143	18.445673	0.000568	5.676314	1.923187	0.000227
 108	1.0646e+01	4.2432	18.704050	0.000649	6.487216	2.197928	0.000260
 109	1.0746e+01	4.2929	18.938204	0.000588	5.879039	1.991872	0.000235
 110	1.0845e+01	4.3346	19.192543	0.000639	6.385853	2.163586	0.000256
 111	1.0945e+01	4.3699	19.442846	0.000628	6.284490	2.129243	0.000252
 112	1.1044e+01	4.4100	19.697185	0.000639	6.385853	2.163586	0.000256
 113	1.1144e+01	4.4598	19.923265	0.000568	5.676314	1.923187	0.000227
 114	1.1243e+01	4.4967	20.177604	0.000639	6.385853	2.163586	0.000256
 115	1.1343e+01	4.5416	20.415795	0.000598	5.980402	2.026215	0.000239
 116	1.1443e+01	4.5737	20.690321	0.000689	6.892667	2.335299	0.000276
 117	1.1542e+01	4.6122	20.944660	0.000639	6.385853	2.163586	0.000256
 118	1.1642e+01	4.6507	21.178814	0.000588	5.879039	1.991872	0.000235
 119	1.1741e+01	4.6892	21.408931	0.000578	5.777677	1.957530	0.000231
 120	1.1841e+01	4.7325	21.622899	0.000537	5.372226	1.820159	0.000215
 121	1.1940e+01	4.7726	21.905499	0.000710	7.095392	2.403984	0.000284
 122	1.2040e+01	4.8111	22.139652	0.000588	5.879039	1.991872	0.000235
 123	1.2139e+01	4.8576	22.402066	0.000659	6.588579	2.232271	0.000264
 124	1.2239e+01	4.8945	22.636220	0.000588	5.879039	1.991872	0.000235
 125	1.2338e+01	4.9346	22.898634	0.000659	6.588579	2.232271	0.000264
 126	1.2438e+01	4.9667	23.161048	0.000659	6.588579	2.232271	0.000264
 127	1.2537e+01	5.0084	23.415387	0.000639	6.385853	2.163586	0.000256
 128	1.2636e+01	5.0581	23.617244	0.000507	5.068137	1.717131	0.000203
 129	1.2736e+01	5.0950	23.895806	0.000699	6.994030	2.369641	0.000280
 130	1.2835e+01	5.1400	24.146109	0.000628	6.284490	2.129243	0.000252
 131	1.2935e+01	5.1624	24.368151	0.000557	5.574951	1.888845	0.000223
 132	1.3034e+01	5.2057	24.662862	0.000740	7.399481	2.507012	0.000296
 133	1.3134e+01	5.2507	24.901053	0.000598	5.980402	2.026215	0.000239
 134	1.3233e+01	5.2859	25.135207	0.000588	5.879039	1.991872	0.000235
 135	1.3333e+01	5.3341	25.385510	0.000628	6.284490	2.129243	0.000252
 136	1.3432e+01	5.3694	25.664072	0.000699	6.994030	2.369641	0.000280
 137	1.3532e+01	5.4063	25.922449	0.000649	6.487216	2.197928	0.000260
 138	1.3632e+01	5.4512	26.144491	0.000557	5.574951	1.888845	0.000223
 139	1.3731e+01	5.4977	26.398831	0.000639	6.385853	2.163586	0.000256
 140	1.3831e+01	5.5282	26.641059	0.000608	6.081765	2.060558	0.000243
 141	1.3930e+01	5.5715	26.907510	0.000669	6.689941	2.266613	0.000268
 142	1.4030e+01	5.6052	27.117441	0.000527	5.270863	1.785817	0.000211
 143	1.4129e+01	5.6485	27.420226	0.000760	7.602206	2.575697	0.000304
 144	1.4229e+01	5.6934	27.662454	0.000608	6.081765	2.060558	0.000243
 145	1.4328e+01	5.7303	27.920831	0.000649	6.487216	2.197928	0.000260
 146	1.4428e+01	5.7608	28.167096	0.000618	6.183128	2.094900	0.000248
 147	1.4527e+01	5.8105	28.381064	0.000537	5.372226	1.820159	0.000215
 148	1.4627e+01	5.8378	28.647515	0.000669	6.689941	2.266613	0.000268
 149	1.4726e+01	5.8859	28.905892	0.000649	6.487216	2.197928	0.000260
 150	1.4825e+01	5.9228	29.140046	0.000588	5.879039	1.991872	0.000235
 151	1.4925e+01	5.9629	29.386311	0.000618	6.183128	2.094900	0.000248
 152	1.5024e+01	6.0079	29.685059	0.000750	7.500843	2.541355	0.000300
 153	1.5124e+01	6.0512	29.911139	0.000568	5.676314	1.923187	0.000227
 154	1.5223e+01	6.0800	30.173553	0.000659	6.588579	2.232271	0.000264
 155	1.5323e+01	6.1314	30.440003	0.000669	6.689941	2.266613	0.000268
 156	1.5422e+01	6.1651	30.682232	0.000608	6.081765	2.060558	0.000243
 157	1.5522e+01	6.2132	30.948683	0.000669	6.689941	2.266613	0.000268
 158	1.5621e+01	6.2517	31.203022	0.000639	6.385853	2.163586	0.000256
 159	1.5721e+01	6.2982	31.433139	0.000578	5.777677	1.957530	0.000231
 160	1.5820e+01	6.3303	31.731887	0.000750	7.500843	2.541355	0.000300
 161	1.5920e+01	6.3672	31.949892	0.000547	5.473588	1.854502	0.000219
 162	1.6020e+01	6.4105	32.216343	0.000669	6.689941	2.266613	0.000268
 163	1.6119e+01	6.4474	32.454534	0.000598	5.980402	2.026215	0.000239
 164	1.6218e+01	6.4891	32.704837	0.000628	6.284490	2.129243	0.000252
 165	1.6318e+01	6.5212	32.938990	0.000588	5.879039	1.991872	0.000235
 166	1.6418e+01	6.5693	33.209479	0.000679	6.791304	2.300956	0.000272
 167	1.6517e+01	6.5982	33.455744	0.000618	6.183128	2.094900	0.000248
 168	1.6616e+01	6.6367	33.730269	0.000689	6.892667	2.335299	0.000276
 169	1.6716e+01	6.6848	33.960386	0.000578	5.777677	1.957530	0.000231
 170	1.6816e+01	6.7217	34.234911	0.000689	6.892667	2.335299	0.000276
 171	1.6915e+01	6.7602	34.465028	0.000578	5.777677	1.957530	0.000231
 172	1.7015e+01	6.8003	34.735516	0.000679	6.791304	2.300956	0.000272
 173	1.7114e+01	6.8421	34.961595	0.000568	5.676314	1.923187	0.000227
 174	1.7213e+01	6.8806	35.219972	0.000649	6.487216	2.197928	0.000260
 175	1.7313e+01	6.9175	35.446052	0.000568	5.676314	1.923187	0.000227
 176	1.7413e+01	6.9608	35.748837	0.000760	7.602206	2.575697	0.000304
 177	1.7512e+01	7.0073	35.966842	0.000547	5.473588	1.854502	0.000219
 178	1.7611e+01	7.0458	36.196959	0.000578	5.777677	1.957530	0.000231
 179	1.7711e+01	7.0747	36.503781	0.000770	7.703569	2.610040	0.000308
 180	1.7811e+01	7.1276	36.746009	0.000608	6.081765	2.060558	0.000243
 181	1.7910e+01	7.1677	36.992275	0.000618	6.183128	2.094900	0.000248
 182	1.8009e+01	7.1934	37.226429	0.000588	5.879039	1.991872	0.000235
 183	1.8109e+01	7.2479	37.521140	0.000740	7.399481	2.507012	0.000296
 184	1.8209e+01	7.2848	37.751256	0.000578	5.777677	1.957530	0.000231
 185	1.8308e+01	7.3201	38.013670	0.000659	6.588579	2.232271	0.000264
 186	1.8407e+01	7.3602	38.251861	0.000598	5.980402	2.026215	0.000239
 187	1.8507e+01	7.4019	38.538498	0.000720	7.196755	2.438327	0.000288
 188	1.8607e+01	7.4420	38.784763	0.000618	6.183128	2.094900	0.000248
 189	1.8706e+01	7.4805	39.043140	0.000649	6.487216	2.197928	0.000260
 190	1.8805e+01	7.5206	39.273256	0.000578	5.777677	1.957530	0.000231
 191	1.8905e+01	7.5543	39.527596	0.000639	6.385853	2.163586	0.000256
 192	1.9005e+01	7.5928	39.777898	0.000628	6.284490	2.129243	0.000252
 193	1.9104e+01	7.6426	40.064535	0.000720	7.196755	2.438327	0.000288
 194	1.9203e+01	7.6763	40.302726	0.000598	5.980402	2.026215	0.000239
 195	1.9303e+01	7.7228	40.585326	0.000710	7.095392	2.403984	0.000284
 196	1.9402e+01	7.7565	40.799294	0.000537	5.372226	1.820159	0.000215
 197	1.9502e+01	7.7982	41.065745	0.000669	6.689941	2.266613	0.000268
 198	1.9602e+01	7.8319	41.316047	0.000628	6.284490	2.129243	0.000252
 199	1.9701e+01	7.8816	41.554238	0.000598	5.980402	2.026215	0.000239
 200	1.9800e+01	7.9217	41.836838	0.000710	7.095392	2.403984	0.000284
 201	1.9900e+01	7.9586	42.075029	0.000598	5.980402	2.026215	0.000239
 202	2.0000e+01	8.0067	42.321294	0.000618	6.183128	2.094900	0.000248
 203	2.0099e+01	8.0452	42.559485	0.000598	5.980402	2.026215	0.000239
 204	2.0198e+01	8.0757	42.850159	0.000730	7.298118	2.472669	0.000292
 205	2.0298e+01	8.1062	43.104498	0.000639	6.385853	2.163586	0.000256
 206	2.0398e+01	8.1607	43.318466	0.000537	5.372226	1.820159	0.000215
 207	2.0497e+01	8.1992	43.576843	0.000649	6.487216	2.197928	0.000260
 208	2.0596e+01	8.2329	43.810997	0.000588	5.879039	1.991872	0.000235
 209	2.0696e+01	8.2762	44.073411	0.000659	6.588579	2.232271	0.000264
 210	2.0796e+01	8.3179	44.315639	0.000608	6.081765	2.060558	0.000243
 211	2.0895e+01	8.3564	44.569979	0.000639	6.385853	2.163586	0.000256
 212	2.0994e+01	8.4030	44.820281	0.000628	6.284490	2.129243	0.000252
 213	2.1094e+01	8.4286	45.074621	0.000639	6.385853	2.163586	0.000256
 214	2.1194e+01	8.4832	45.320886	0.000618	6.183128	2.094900	0.000248
 215	2.1293e+01	8.5169	45.583300	0.000659	6.588579	2.232271	0.000264
 216	2.1392e+01	8.5522	45.817453	0.000588	5.879039	1.991872	0.000235
 217	2.1492e+01	8.6003	46.043533	0.000568	5.676314	1.923187	0.000227
 218	2.1591e+01	8.6244	46.314021	0.000679	6.791304	2.300956	0.000272
 219	2.1691e+01	8.6789	46.584509	0.000679	6.791304	2.300956	0.000272
 220	2.1791e+01	8.7206	46.802515	0.000547	5.473588	1.854502	0.000219
 221	2.1890e+01	8.7527	47.089151	0.000720	7.196755	2.438327	0.000288
 222	2.1989e+01	8.7880	47.319268	0.000578	5.777677	1.957530	0.000231
 223	2.2089e+01	8.8313	47.557459	0.000598	5.980402	2.026215	0.000239
 224	2.2189e+01	8.8746	47.844096	0.000720	7.196755	2.438327	0.000288
 225	2.2288e+01	8.9163	48.062101	0.000547	5.473588	1.854502	0.000219
 226	2.2387e+01	8.9484	48.336626	0.000689	6.892667	2.335299	0.000276
 227	2.2487e+01	8.9949	48.607114	0.000679	6.791304	2.300956	0.000272
 228	2.2587e+01	9.0415	48.817045	0.000527	5.270863	1.785817	0.000211
 229	2.2686e+01	9.0703	49.067348	0.000628	6.284490	2.129243	0.000252
 230	2.2785e+01	9.1201	49.297464	0.000578	5.777677	1.957530	0.000231
 231	2.2885e+01	9.1570	49.543730	0.000618	6.183128	2.094900	0.000248
 232	2.2985e+01	9.2003	49.854589	0.000780	7.804932	2.644382	0.000312
 233	2.3084e+01	9.2372	50.064520	0.000527	5.270863	1.785817	0.000211
 234	2.3183e+01	9.2725	50.339046	0.000689	6.892667	2.335299	0.000276
 235	2.3283e+01	9.3190	50.540902	0.000507	5.068137	1.717131	0.000203
 236	2.3383e+01	9.3623	50.807353	0.000669	6.689941	2.266613	0.000268
 237	2.3482e+01	9.3912	51.033433	0.000568	5.676314	1.923187	0.000227
 238	2.3581e+01	9.4313	51.311995	0.000699	6.994030	2.369641	0.000280
 239	2.3681e+01	9.4746	51.525963	0.000537	5.372226	1.820159	0.000215
 240	2.3780e+01	9.5131	51.788377	0.000659	6.588579	2.232271	0.000264
 241	2.3880e+01	9.5564	52.046754	0.000649	6.487216	2.197928	0.000260
 242	2.3980e+01	9.5933	52.309168	0.000659	6.588579	2.232271	0.000264
 243	2.4079e+01	9.6350	52.543322	0.000588	5.879039	1.991872	0.000235
 244	2.4178e+01	9.6783	52.761327	0.000547	5.473588	1.854502	0.000219
 245	2.4278e+01	9.7056	53.015667	0.000639	6.385853	2.163586	0.000256
 246	2.4378e+01	9.7602	53.310377	0.000740	7.399481	2.507012	0.000296
 247	2.4477e+01	9.7954	53.520308	0.000527	5.270863	1.785817	0.000211
 248	2.4576e+01	9.8275	53.758499	0.000598	5.980402	2.026215	0.000239
 249	2.4676e+01	9.8708	54.008802	0.000628	6.284490	2.129243	0.000252
 250	2.4776e+01	9.9045	54.267179	0.000649	6.487216	2.197928	0.000260
 251	2.4875e+01	9.9495	54.529592	0.000659	6.588579	2.232271	0.000264
 252	2.4974e+01	9.9863	54.763746	0.000588	5.879039	1.991872	0.000235
 253	2.5074e+01	10.0361	55.014049	0.000628	6.284490	2.129243	0.000252
 254	2.5174e+01	10.0714	55.236091	0.000557	5.574951	1.888845	0.000223
 255	2.5273e+01	10.1163	55.498505	0.000659	6.588579	2.232271	0.000264
 256	2.5372e+01	10.1452	55.736696	0.000598	5.980402	2.026215	0.000239
 257	2.5472e+01	10.1901	55.966813	0.000578	5.777677	1.957530	0.000231
 258	2.5572e+01	10.2318	56.265561	0.000750	7.500843	2.541355	0.000300
 259	2.5671e+01	10.2623	56.503752	0.000598	5.980402	2.026215	0.000239
 260	2.5770e+01	10.3104	56.750017	0.000618	6.183128	2.094900	0.000248
 261	2.5870e+01	10.3505	56.984171	0.000588	5.879039	1.991872	0.000235
 262	2.5970e+01	10.3874	57.234473	0.000628	6.284490	2.129243	0.000252
 263	2.6069e+01	10.4243	57.484776	0.000628	6.284490	2.129243	0.000252
 264	2.6169e+01	10.4692	57.727004	0.000608	6.081765	2.060558	0.000243
 265	2.6268e+01	10.5045	57.977306	0.000628	6.284490	2.129243	0.000252
 266	2.6367e+01	10.5478	58.187237	0.000527	5.270863	1.785817	0.000211
 267	2.6467e+01	10.5879	58.465800	0.000699	6.994030	2.369641	0.000280
 268	2.6567e+01	10.6329	58.728214	0.000659	6.588579	2.232271	0.000264
 269	2.6666e+01	10.6633	58.986590	0.000649	6.487216	2.197928	0.000260
 270	2.6765e+01	10.7163	59.192484	0.000517	5.169500	1.751474	0.000207
 271	2.6865e+01	10.7532	59.458935	0.000669	6.689941	2.266613	0.000268
 272	2.6965e+01	10.7901	59.689052	0.000578	5.777677	1.957530	0.000231
 273	2.7064e+01	10.8286	59.927243	0.000598	5.980402	2.026215	0.000239
 274	2.7163e+01	10.8623	60.205805	0.000699	6.994030	2.369641	0.000280
 275	2.7263e+01	10.9056	60.480330	0.000689	6.892667	2.335299	0.000276
 276	2.7363e+01	10.9489	60.674113	0.000487	4.865412	1.648446	0.000195
 277	2.7462e+01	10.9874	60.960750	0.000720	7.196755	2.438327	0.000288
 278	2.7561e+01	11.0259	61.207015	0.000618	6.183128	2.094900	0.000248
 279	2.7661e+01	11.0708	61.453280	0.000618	6.183128	2.094900	0.000248
 280	2.7761e+01	11.1109	61.699545	0.000618	6.183128	2.094900	0.000248
 281	2.7860e+01	11.1446	61.957922	0.000649	6.487216	2.197928	0.000260
 282	2.7959e+01	11.1895	62.163816	0.000517	5.169500	1.751474	0.000207
 283	2.8059e+01	11.2216	62.393933	0.000578	5.777677	1.957530	0.000231
 284	2.8159e+01	11.2649	62.656347	0.000659	6.588579	2.232271	0.000264
 285	2.8258e+01	11.3050	62.890501	0.000588	5.879039	1.991872	0.000235
 286	2.8358e+01	11.3499	63.156951	0.000669	6.689941	2.266613	0.000268
 287	2.8457e+01	11.3868	63.431477	0.000689	6.892667	2.335299	0.000276
 288	2.8556e+01	11.4237	63.617185	0.000466	4.662686	1.579761	0.000187
 289	2.8656e+01	11.4622	63.928044	0.000780	7.804932	2.644382	0.000312
 290	2.8756e+01	11.5072	64.150087	0.000557	5.574951	1.888845	0.000223
 291	2.8855e+01	11.5425	64.420575	0.000679	6.791304	2.300956	0.000272
 292	2.8954e+01	11.5890	64.602246	0.000456	4.561324	1.545418	0.000183
 293	2.9054e+01	11.6227	64.880808	0.000699	6.994030	2.369641	0.000280
 294	2.9154e+01	11.6596	65.147259	0.000669	6.689941	2.266613	0.000268
 295	2.9253e+01	11.7045	65.393525	0.000618	6.183128	2.094900	0.000248
 296	2.9352e+01	11.7478	65.664013	0.000679	6.791304	2.300956	0.000272
 297	2.9452e+01	11.7847	65.918352	0.000639	6.385853	2.163586	0.000256
 298	2.9552e+01	11.8264	66.132321	0.000537	5.372226	1.820159	0.000215
 299	2.9651e+01	11.8617	66.394734	0.000659	6.588579	2.232271	0.000264
 300	2.9750e+01	11.9130	66.624851	0.000578	5.777677	1.957530	0.000231
 301	2.9850e+01	11.9355	66.863042	0.000598	5.980402	2.026215	0.000239
 302	2.9950e+01	11.9868	67.113345	0.000628	6.284490	2.129243	0.000252
 303	3.0049e+01	12.0205	67.343461	0.000578	5.777677	1.957530	0.000231
 304	3.0148e+01	12.0702	67.617986	0.000689	6.892667	2.335299	0.000276
 305	3.0248e+01	12.0975	67.860215	0.000608	6.081765	2.060558	0.000243
 306	3.0348e+01	12.1537	68.102443	0.000608	6.081765	2.060558	0.000243
 307	3.0447e+01	12.1809	68.344671	0.000608	6.081765	2.060558	0.000243
 308	3.0547e+01	12.2291	68.599010	0.000639	6.385853	2.163586	0.000256
 309	3.0646e+01	12.2579	68.833164	0.000588	5.879039	1.991872	0.000235
 310	3.0745e+01	12.2868	69.099615	0.000669	6.689941	2.266613	0.000268
 311	3.0845e+01	12.3446	69.353955	0.000639	6.385853	2.163586	0.000256
 312	3.0945e+01	12.3799	69.571960	0.000547	5.473588	1.854502	0.000219
 313	3.1044e+01	12.4184	69.822263	0.000628	6.284490	2.129243	0.000252
 314	3.1143e+01	12.4569	70.084676	0.000659	6.588579	2.232271	0.000264
 315	3.1243e+01	12.4986	70.355165	0.000679	6.791304	2.300956	0.000272
 316	3.1343e+01	12.5499	70.593356	0.000598	5.980402	2.026215	0.000239
 317	3.1442e+01	12.5804	70.827509	0.000588	5.879039	1.991872	0.000235
 318	3.1541e+01	12.6301	71.077812	0.000628	6.284490	2.129243	0.000252
 319	3.1641e+01	12.6670	71.328114	0.000628	6.284490	2.129243	0.000252
 320	3.1741e+01	12.7087	71.570342	0.000608	6.081765	2.060558	0.000243
 321	3.1840e+01	12.7456	71.804496	0.000588	5.879039	1.991872	0.000235
 322	3.1939e+01	12.7761	72.074984	0.000679	6.791304	2.300956	0.000272
 323	3.2039e+01	12.8307	72.288953	0.000537	5.372226	1.820159	0.000215
 324	3.2139e+01	12.8611	72.571552	0.000710	7.095392	2.403984	0.000284
 325	3.2238e+01	12.8996	72.809743	0.000598	5.980402	2.026215	0.000239
 326	3.2337e+01	12.9381	73.047934	0.000598	5.980402	2.026215	0.000239
 327	3.2437e+01	12.9815	73.306311	0.000649	6.487216	2.197928	0.000260
 328	3.2536e+01	13.0103	73.556613	0.000628	6.284490	2.129243	0.000252
 329	3.2636e+01	13.0520	73.810953	0.000639	6.385853	2.163586	0.000256
 330	3.2736e+01	13.0986	74.049144	0.000598	5.980402	2.026215	0.000239
 331	3.2835e+01	13.1371	74.287335	0.000598	5.980402	2.026215	0.000239
 332	3.2934e+01	13.1724	74.525526	0.000598	5.980402	2.026215	0.000239
 333	3.3034e+01	13.2157	74.755642	0.000578	5.777677	1.957530	0.000231
 334	3.3133e+01	13.2622	75.074576	0.000801	8.007657	2.713068	0.000321
 335	3.3233e+01	13.2863	75.256247	0.000456	4.561324	1.545418	0.000183
 336	3.3333e+01	13.3376	75.478290	0.000557	5.574951	1.888845	0.000223
 337	3.3432e+01	13.3761	75.716481	0.000598	5.980402	2.026215	0.000239
 338	3.3532e+01	13.4178	75.999080	0.000710	7.095392	2.403984	0.000284
 339	3.3631e+01	13.4499	76.249383	0.000628	6.284490	2.129243	0.000252
 340	3.3730e+01	13.4948	76.499685	0.000628	6.284490	2.129243	0.000252
 341	3.3830e+01	13.5269	76.737876	0.000598	5.980402	2.026215	0.000239
 342	3.3929e+01	13.5734	76.980104	0.000608	6.081765	2.060558	0.000243
 343	3.4029e+01	13.6183	77.246555	0.000669	6.689941	2.266613	0.000268
 344	3.4129e+01	13.6568	77.484746	0.000598	5.980402	2.026215	0.000239
 345	3.4228e+01	13.7001	77.726974	0.000608	6.081765	2.060558	0.000243
 346	3.4328e+01	13.7403	77.981314	0.000639	6.385853	2.163586	0.000256
 347	3.4427e+01	13.7723	78.219505	0.000598	5.980402	2.026215	0.000239
 348	3.4526e+01	13.8124	78.461733	0.000608	6.081765	2.060558	0.000243
 349	3.4626e+01	13.8590	78.679738	0.000547	5.473588	1.854502	0.000219
 350	3.4725e+01	13.8927	78.938115	0.000649	6.487216	2.197928	0.000260
 351	3.4825e+01	13.9328	79.196492	0.000649	6.487216	2.197928	0.000260
 352	3.4925e+01	13.9632	79.434683	0.000598	5.980402	2.026215	0.000239
 353	3.5024e+01	14.0130	79.713245	0.000699	6.994030	2.369641	0.000280
 354	3.5123e+01	14.0499	79.890879	0.000446	4.459961	1.511076	0.000179
 355	3.5223e+01	14.0932	80.161367	0.000679	6.791304	2.300956	0.000272
 356	3.5322e+01	14.1221	80.435892	0.000689	6.892667	2.335299	0.000276
 357	3.5422e+01	14.1766	80.686195	0.000628	6.284490	2.129243	0.000252
 358	3.5522e+01	14.2087	80.912274	0.000568	5.676314	1.923187	0.000227
 359	3.5621e+01	14.2536	81.186800	0.000689	6.892667	2.335299	0.000276
 360	3.5721e+01	14.2937	81.404805	0.000547	5.473588	1.854502	0.000219
 361	3.5820e+01	14.3306	81.679330	0.000689	6.892667	2.335299	0.000276
 362	3.5919e+01	14.3627	81.861001	0.000456	4.561324	1.545418	0.000183
 363	3.6019e+01	14.4172	82.159749	0.000750	7.500843	2.541355	0.000300
 364	3.6118e+01	14.4509	82.397940	0.000598	5.980402	2.026215	0.000239
 365	3.6218e+01	14.4926	82.591723	0.000487	4.865412	1.648446	0.000195
 366	3.6318e+01	14.5279	82.882397	0.000730	7.298118	2.472669	0.000292
 367	3.6417e+01	14.5632	83.124625	0.000608	6.081765	2.060558	0.000243
 368	3.6517e+01	14.6162	83.366853	0.000608	6.081765	2.060558	0.000243
 369	3.6616e+01	14.6531	83.605044	0.000598	5.980402	2.026215	0.000239
 370	3.6715e+01	14.6964	83.835161	0.000578	5.777677	1.957530	0.000231
 371	3.6815e+01	14.7124	84.093537	0.000649	6.487216	2.197928	0.000260
 372	3.6914e+01	14.7750	84.323654	0.000578	5.777677	1.957530	0.000231
 373	3.7014e+01	14.8119	84.586068	0.000659	6.588579	2.232271	0.000264
 374	3.7114e+01	14.8472	84.791962	0.000517	5.169500	1.751474	0.000207
 375	3.7213e+01	14.8937	85.042264	0.000628	6.284490	2.129243	0.000252
 376	3.7313e+01	14.9226	85.336975	0.000740	7.399481	2.507012	0.000296
 377	3.7412e+01	14.9643	85.522683	0.000466	4.662686	1.579761	0.000187
 378	3.7511e+01	14.9996	85.793172	0.000679	6.791304	2.300956	0.000272
 379	3.7611e+01	15.0461	86.019251	0.000568	5.676314	1.923187	0.000227
 380	3.7711e+01	15.0830	86.253405	0.000588	5.879039	1.991872	0.000235
 381	3.7810e+01	15.1279	86.451225	0.000497	4.966775	1.682789	0.000199
 382	3.7910e+01	15.1600	86.733824	0.000710	7.095392	2.403984	0.000284
 383	3.8009e+01	15.2097	86.951830	0.000547	5.473588	1.854502	0.000219
 384	3.8108e+01	15.2498	87.190021	0.000598	5.980402	2.026215	0.000239
 385	3.8208e+01	15.2819	87.444360	0.000639	6.385853	2.163586	0.000256
 386	3.8307e+01	15.3300	87.710811	0.000669	6.689941	2.266613	0.000268
 387	3.8407e+01	15.3734	87.940928	0.000578	5.777677	1.957530	0.000231
 388	3.8507e+01	15.4087	88.199304	0.000649	6.487216	2.197928	0.000260
 389	3.8606e+01	15.4504	88.461718	0.000659	6.588579	2.232271	0.000264
 390	3.8706e+01	15.4857	88.655501	0.000487	4.865412	1.648446	0.000195
 391	3.8805e+01	15.5290	88.889655	0.000588	5.879039	1.991872	0.000235
 392	3.8904e+01	15.5627	89.152069	0.000659	6.588579	2.232271	0.000264
 393	3.9004e+01	15.6076	89.390260	0.000598	5.980402	2.026215	0.000239
 394	3.9103e+01	15.6461	89.632488	0.000608	6.081765	2.060558	0.000243
 395	3.9203e+01	15.6910	89.846456	0.000537	5.372226	1.820159	0.000215
 396	3.9303e+01	15.7151	90.125018	0.000699	6.994030	2.369641	0.000280
 397	3.9402e+01	15.7600	90.326875	0.000507	5.068137	1.717131	0.000203
 398	3.9502e+01	15.8033	90.577177	0.000628	6.284490	2.129243	0.000252
 399	3.9601e+01	15.8434	90.831517	0.000639	6.385853	2.163586	0.000256
 400	3.9700e+01	15.8915	91.053559	0.000557	5.574951	1.888845	0.000223
 401	3.9800e+01	15.9316	91.307899	0.000639	6.385853	2.163586	0.000256
 402	3.9900e+01	15.9717	91.542053	0.000588	5.879039	1.991872	0.000235
 403	3.9999e+01	16.0102	91.780244	0.000598	5.980402	2.026215	0.000239
 404	4.0099e+01	16.0503	92.018435	0.000598	5.980402	2.026215	0.000239
 405	4.0198e+01	16.0840	92.264700	0.000618	6.183128	2.094900	0.000248
 406	4.0297e+01	16.1225	92.458483	0.000487	4.865412	1.648446	0.000195
 407	4.0397e+01	16.1675	92.757231	0.000750	7.500843	2.541355	0.000300
 408	4.0496e+01	16.2011	92.946976	0.000476	4.764049	1.614104	0.000191
 409	4.0596e+01	16.2380	93.201316	0.000639	6.385853	2.163586	0.000256
 410	4.0696e+01	16.2830	93.439507	0.000598	5.980402	2.026215	0.000239
 411	4.0795e+01	16.3231	93.653475	0.000537	5.372226	1.820159	0.000215
 412	4.0895e+01	16.3616	93.936074	0.000710	7.095392	2.403984	0.000284
 413	4.0994e+01	16.4033	94.146005	0.000527	5.270863	1.785817	0.000211
 414	4.1093e+01	16.4418	94.392271	0.000618	6.183128	2.094900	0.000248
 415	4.1193e+01	16.4771	94.614313	0.000557	5.574951	1.888845	0.000223
 416	4.1292e+01	16.5268	94.860578	0.000618	6.183128	2.094900	0.000248
 417	4.1392e+01	16.5637	95.090695	0.000578	5.777677	1.957530	0.000231
 418	4.1492e+01	16.6086	95.365220	0.000689	6.892667	2.335299	0.000276
 419	4.1591e+01	16.6311	95.571114	0.000517	5.169500	1.751474	0.000207
 420	4.1691e+01	16.6792	95.801231	0.000578	5.777677	1.957530	0.000231
 421	4.1790e+01	16.7257	96.055571	0.000639	6.385853	2.163586	0.000256
 422	4.1889e+01	16.7690	96.273576	0.000547	5.473588	1.854502	0.000219
 423	4.1989e+01	16.7947	96.540027	0.000669	6.689941	2.266613	0.000268
 424	4.2089e+01	16.8316	96.782255	0.000608	6.081765	2.060558	0.000243
 425	4.2188e+01	16.8813	96.992186	0.000527	5.270863	1.785817	0.000211
 426	4.2288e+01	16.9198	97.242489	0.000628	6.284490	2.129243	0.000252
 427	4.2387e+01	16.9712	97.468568	0.000568	5.676314	1.923187	0.000227
 428	4.2486e+01	16.9985	97.706759	0.000598	5.980402	2.026215	0.000239
 429	4.2586e+01	17.0353	97.928802	0.000557	5.574951	1.888845	0.000223
 430	4.2685e+01	17.0803	98.195253	0.000669	6.689941	2.266613	0.000268
 431	4.2785e+01	17.1188	98.417295	0.000557	5.574951	1.888845	0.000223
 432	4.2885e+01	17.1589	98.679709	0.000659	6.588579	2.232271	0.000264
 433	4.2984e+01	17.2054	98.909826	0.000578	5.777677	1.957530	0.000231
 434	4.3084e+01	17.2407	99.127831	0.000547	5.473588	1.854502	0.000219
 435	4.3183e+01	17.2824	99.382170	0.000639	6.385853	2.163586	0.000256
 436	4.3282e+01	17.3177	99.628436	0.000618	6.183128	2.094900	0.000248
 437	4.3382e+01	17.3594	99.850478	0.000557	5.574951	1.888845	0.000223
 438	4.3481e+01	17.4027	100.076558	0.000568	5.676314	1.923187	0.000227
 439	4.3581e+01	17.4348	100.310712	0.000588	5.879039	1.991872	0.000235
 440	4.3681e+01	17.4845	100.581200	0.000679	6.791304	2.300956	0.000272
 441	4.3780e+01	17.5198	100.831502	0.000628	6.284490	2.129243	0.000252
 442	4.3880e+01	17.5583	101.049508	0.000547	5.473588	1.854502	0.000219
 443	4.3979e+01	17.5936	101.303847	0.000639	6.385853	2.163586	0.000256
 444	4.4078e+01	17.6401	101.521852	0.000547	5.473588	1.854502	0.000219
 445	4.4178e+01	17.6819	101.747932	0.000568	5.676314	1.923187	0.000227
 446	4.4278e+01	17.7188	101.990160	0.000608	6.081765	2.060558	0.000243
 447	4.4377e+01	17.7573	102.224314	0.000588	5.879039	1.991872	0.000235
 448	4.4477e+01	17.7974	102.446356	0.000557	5.574951	1.888845	0.000223
 449	4.4576e+01	17.8391	102.684547	0.000598	5.980402	2.026215	0.000239
 450	4.4675e+01	17.8776	102.906590	0.000557	5.574951	1.888845	0.000223
 451	4.4775e+01	17.9257	103.181115	0.000689	6.892667	2.335299	0.000276
 452	4.4874e+01	17.9546	103.407195	0.000568	5.676314	1.923187	0.000227
 453	4.4974e+01	18.0027	103.673646	0.000669	6.689941	2.266613	0.000268
 454	4.5074e+01	18.0300	103.863391	0.000476	4.764049	1.614104	0.000191
 455	4.5173e+01	18.0765	104.089471	0.000568	5.676314	1.923187	0.000227
 456	4.5273e+01	18.1150	104.363996	0.000689	6.892667	2.335299	0.000276
 457	4.5372e+01	18.1599	104.590076	0.000568	5.676314	1.923187	0.000227
 458	4.5471e+01	18.1984	104.828267	0.000598	5.980402	2.026215	0.000239
 459	4.5571e+01	18.2385	105.034160	0.000517	5.169500	1.751474	0.000207
 460	4.5670e+01	18.2770	105.288500	0.000639	6.385853	2.163586	0.000256
 461	4.5770e+01	18.3203	105.546877	0.000649	6.487216	2.197928	0.000260
 462	4.5870e+01	18.3540	105.789105	0.000608	6.081765	2.060558	0.000243
 463	4.5969e+01	18.3893	106.047482	0.000649	6.487216	2.197928	0.000260
 464	4.6069e+01	18.4358	106.241264	0.000487	4.865412	1.648446	0.000195
 465	4.6168e+01	18.4759	106.499641	0.000649	6.487216	2.197928	0.000260
 466	4.6267e+01	18.5161	106.725720	0.000568	5.676314	1.923187	0.000227
 467	4.6367e+01	18.5642	106.980060	0.000639	6.385853	2.163586	0.000256
 468	4.6467e+01	18.5882	107.210177	0.000578	5.777677	1.957530	0.000231
 469	4.6566e+01	18.6284	107.432219	0.000557	5.574951	1.888845	0.000223
 470	4.6666e+01	18.6765	107.698670	0.000669	6.689941	2.266613	0.000268
 471	4.6765e+01	18.7118	107.908601	0.000527	5.270863	1.785817	0.000211
 472	4.6864e+01	18.7631	108.183126	0.000689	6.892667	2.335299	0.000276
 473	4.6964e+01	18.8016	108.360760	0.000446	4.459961	1.511076	0.000179
 474	4.7063e+01	18.8369	108.602988	0.000608	6.081765	2.060558	0.000243
 475	4.7163e+01	18.8690	108.861365	0.000649	6.487216	2.197928	0.000260
 476	4.7263e+01	18.9171	109.091482	0.000578	5.777677	1.957530	0.000231
 477	4.7362e+01	18.9444	109.305450	0.000537	5.372226	1.820159	0.000215
 478	4.7462e+01	18.9941	109.588050	0.000710	7.095392	2.403984	0.000284
 479	4.7561e+01	19.0342	109.830278	0.000608	6.081765	2.060558	0.000243
 480	4.7660e+01	19.0759	110.056357	0.000568	5.676314	1.923187	0.000227
 481	4.7760e+01	19.1176	110.294548	0.000598	5.980402	2.026215	0.000239
 482	4.7859e+01	19.1513	110.536777	0.000608	6.081765	2.060558	0.000243
 483	4.7959e+01	19.1962	110.758819	0.000557	5.574951	1.888845	0.000223
 484	4.8059e+01	19.2444	111.017196	0.000649	6.487216	2.197928	0.000260
 485	4.8158e+01	19.2733	111.227127	0.000527	5.270863	1.785817	0.000211
 486	4.8258e+01	19.3085	111.465318	0.000598	5.980402	2.026215	0.000239
 487	4.8357e+01	19.3454	111.731769	0.000669	6.689941	2.266613	0.000268
 488	4.8456e+01	19.3952	111.945737	0.000537	5.372226	1.820159	0.000215
 489	4.8556e+01	19.4433	112.167779	0.000557	5.574951	1.888845	0.000223
 490	4.8656e+01	19.4658	112.369636	0.000507	5.068137	1.717131	0.000203
 491	4.8755e+01	19.5043	112.660310	0.000730	7.298118	2.472669	0.000292
 492	4.8855e+01	19.5476	112.862167	0.000507	5.068137	1.717131	0.000203
 493	4.8954e+01	19.5877	113.120543	0.000649	6.487216	2.197928	0.000260
 494	4.9053e+01	19.6182	113.330474	0.000527	5.270863	1.785817	0.000211
 495	4.9153e+01	19.6647	113.605000	0.000689	6.892667	2.335299	0.000276
 496	4.9252e+01	19.7064	113.839154	0.000588	5.879039	1.991872	0.000235
 497	4.9352e+01	19.7577	114.077345	0.000598	5.980402	2.026215	0.000239
 498	4.9452e+01	19.7930	114.319573	0.000608	6.081765	2.060558	0.000243
 499	4.9551e+01	19.8315	114.545652	0.000568	5.676314	1.923187	0.000227
 500	4.9651e+01	19.8764	114.808066	0.000659	6.588579	2.232271	0.000264
 501	4.9750e+01	19.9085	115.005886	0.000497	4.966775	1.682789	0.000199
 502	4.9849e+01	19.9486	115.207743	0.000507	5.068137	1.717131	0.000203
 503	4.9949e+01	19.9791	115.494379	0.000720	7.196755	2.438327	0.000288
 504	5.0048e+01	19.9518	115.389414	0.000264	2.635431	0.892908	-0.000105
 505	5.0148e+01	19.9149	115.211780	0.000446	4.459961	1.511076	-0.000179
 506	5.0248e+01	19.8700	115.066443	0.000365	3.649059	1.236335	-0.000146
 507	5.0347e+01	19.8315	114.884772	0.000456	4.561324	1.545418	-0.000183
 508	5.0447e+01	19.7898	114.751546	0.000334	3.344971	1.133307	-0.000134
 509	5.0546e+01	19.7481	114.586024	0.000416	4.155873	1.408048	-0.000166
 510	5.0645e+01	19.7144	114.404353	0.000456	4.561324	1.545418	-0.000183
 511	5.0745e+01	19.6743	114.291313	0.000284	2.838157	0.961594	-0.000114
 512	5.0844e+01	19.6262	114.097530	0.000487	4.865412	1.648446	-0.000195
 513	5.0944e+01	19.5845	113.972379	0.000314	3.142245	1.064621	-0.000126
 514	5.1044e+01	19.5508	113.778597	0.000487	4.865412	1.648446	-0.000195
 515	5.1143e+01	19.5091	113.609037	0.000426	4.257235	1.442390	-0.000170
 516	5.1242e+01	19.4738	113.431403	0.000446	4.459961	1.511076	-0.000179
 517	5.1342e+01	19.4337	113.257806	0.000436	4.358598	1.476733	-0.000174
 518	5.1441e+01	19.3952	113.092283	0.000416	4.155873	1.408048	-0.000166
 519	5.1541e+01	19.3487	112.922724	0.000426	4.257235	1.442390	-0.000170
 520	5.1641e+01	19.3102	112.769313	0.000385	3.851784	1.305020	-0.000154
 521	5.1740e+01	19.2749	112.595716	0.000436	4.358598	1.476733	-0.000174
 522	5.1840e+01	19.2315	112.405970	0.000476	4.764049	1.614104	-0.000191
 523	5.1939e+01	19.1930	112.216225	0.000476	4.764049	1.614104	-0.000191
 524	5.2038e+01	19.1545	112.030517	0.000466	4.662686	1.579761	-0.000187
 525	5.2138e+01	19.1144	111.828660	0.000507	5.068137	1.717131	-0.000203
 526	5.2237e+01	19.0775	111.695434	0.000334	3.344971	1.133307	-0.000134
 527	5.2337e+01	19.0326	111.497615	0.000497	4.966775	1.682789	-0.000199
 528	5.2437e+01	18.9989	111.319981	0.000446	4.459961	1.511076	-0.000179
 529	5.2536e+01	18.9572	111.150421	0.000426	4.257235	1.442390	-0.000170
 530	5.2636e+01	18.9171	110.997010	0.000385	3.851784	1.305020	-0.000154
 531	5.2735e+01	18.8738	110.779005	0.000547	5.473588	1.854502	-0.000219
 532	5.2834e+01	18.8305	110.589259	0.000476	4.764049	1.614104	-0.000191
 533	5.2934e+01	18.7920	110.423737	0.000416	4.155873	1.408048	-0.000166
 534	5.3033e+01	18.7551	110.225917	0.000497	4.966775	1.682789	-0.000199
 535	5.3133e+01	18.7150	110.024060	0.000507	5.068137	1.717131	-0.000203
 536	5.3233e+01	18.6797	109.878723	0.000365	3.649059	1.236335	-0.000146
 537	5.3332e+01	18.6284	109.632458	0.000618	6.183128	2.094900	-0.000248
 538	5.3431e+01	18.5963	109.491158	0.000355	3.547696	1.201992	-0.000142
 539	5.3531e+01	18.5626	109.297376	0.000487	4.865412	1.648446	-0.000195
 540	5.3630e+01	18.5112	109.103593	0.000487	4.865412	1.648446	-0.000195
 541	5.3730e+01	18.4679	108.929996	0.000436	4.358598	1.476733	-0.000174
 542	5.3830e+01	18.4471	108.699880	0.000578	5.777677	1.957530	-0.000231
 543	5.3929e+01	18.3957	108.506097	0.000487	4.865412	1.648446	-0.000195
 544	5.4029e+01	18.3444	108.324426	0.000456	4.561324	1.545418	-0.000183
 545	5.4128e+01	18.3139	108.122569	0.000507	5.068137	1.717131	-0.000203
 546	5.4227e+01	18.2818	107.916675	0.000517	5.169500	1.751474	-0.000207
 547	5.4327e+01	18.2369	107.771339	0.000365	3.649059	1.236335	-0.000146
 548	5.4426e+01	18.1984	107.577556	0.000487	4.865412	1.648446	-0.000195
 549	5.4526e+01	18.1551	107.387811	0.000476	4.764049	1.614104	-0.000191
 550	5.4626e+01	18.1150	107.161731	0.000568	5.676314	1.923187	-0.000227
 551	5.4725e+01	18.0749	107.000246	0.000405	4.054510	1.373705	-0.000162
 552	5.4825e+01	18.0444	106.790315	0.000527	5.270863	1.785817	-0.000211
 553	5.4924e+01	17.9947	106.600569	0.000476	4.764049	1.614104	-0.000191
 554	5.5023e+01	17.9578	106.386601	0.000537	5.372226	1.820159	-0.000215
 555	5.5123e+01	17.9145	106.188781	0.000497	4.966775	1.682789	-0.000199
 556	5.5222e+01	17.8728	105.994999	0.000487	4.865412	1.648446	-0.000195
 557	5.5322e+01	17.8278	105.805253	0.000476	4.764049	1.614104	-0.000191
 558	5.5422e+01	17.7893	105.635694	0.000426	4.257235	1.442390	-0.000170
 559	5.5521e+01	17.7621	105.393466	0.000608	6.081765	2.060558	-0.000243
 560	5.5620e+01	17.7123	105.199683	0.000487	4.865412	1.648446	-0.000195
 561	5.5720e+01	17.6770	105.034160	0.000416	4.155873	1.408048	-0.000166
 562	5.5819e+01	17.6353	104.840378	0.000487	4.865412	1.648446	-0.000195
 563	5.5919e+01	17.5968	104.634484	0.000517	5.169500	1.751474	-0.000207
 564	5.6019e+01	17.5615	104.436664	0.000497	4.966775	1.682789	-0.000199
 565	5.6118e+01	17.5278	104.222696	0.000537	5.372226	1.820159	-0.000215
 566	5.6218e+01	17.4845	103.996617	0.000568	5.676314	1.923187	-0.000227
 567	5.6317e+01	17.4476	103.794760	0.000507	5.068137	1.717131	-0.000203
 568	5.6416e+01	17.4011	103.621163	0.000436	4.358598	1.476733	-0.000174
 569	5.6516e+01	17.3674	103.403158	0.000547	5.473588	1.854502	-0.000219
 570	5.6615e+01	17.3209	103.253784	0.000375	3.750422	1.270677	-0.000150
 571	5.6715e+01	17.2760	103.031741	0.000557	5.574951	1.888845	-0.000223
 572	5.6815e+01	17.2407	102.837959	0.000487	4.865412	1.648446	-0.000195
 573	5.6914e+01	17.1990	102.628028	0.000527	5.270863	1.785817	-0.000211
 574	5.7014e+01	17.1589	102.430208	0.000497	4.966775	1.682789	-0.000199
 575	5.7113e+01	17.1220	102.224314	0.000517	5.169500	1.751474	-0.000207
 576	5.7212e+01	17.0851	101.994197	0.000578	5.777677	1.957530	-0.000231
 577	5.7312e+01	17.0386	101.808489	0.000466	4.662686	1.579761	-0.000187
 578	5.7411e+01	17.0001	101.594521	0.000537	5.372226	1.820159	-0.000215
 579	5.7511e+01	16.9632	101.408813	0.000466	4.662686	1.579761	-0.000187
 580	5.7611e+01	16.9311	101.198882	0.000527	5.270863	1.785817	-0.000211
 581	5.7710e+01	16.8749	100.972802	0.000568	5.676314	1.923187	-0.000227
 582	5.7809e+01	16.8348	100.774982	0.000497	4.966775	1.682789	-0.000199
 583	5.7909e+01	16.8027	100.569088	0.000517	5.169500	1.751474	-0.000207
 584	5.8008e+01	16.7739	100.391454	0.000446	4.459961	1.511076	-0.000179
 585	5.8108e+01	16.7209	100.145189	0.000618	6.183128	2.094900	-0.000248
 586	5.8208e+01	16.6872	99.906998	0.000598	5.980402	2.026215	-0.000239
 587	5.8307e+01	16.6439	99.721290	0.000466	4.662686	1.579761	-0.000187
 588	5.8407e+01	16.6038	99.515396	0.000517	5.169500	1.751474	-0.000207
 589	5.8506e+01	16.5573	99.345836	0.000426	4.257235	1.442390	-0.000170
 590	5.8605e+01	16.5252	99.115720	0.000578	5.777677	1.957530	-0.000231
 591	5.8705e+01	16.4771	98.905788	0.000527	5.270863	1.785817	-0.000211
 592	5.8804e+01	16.4434	98.764489	0.000355	3.547696	1.201992	-0.000142
 593	5.8904e+01	16.4065	98.485926	0.000699	6.994030	2.369641	-0.000280
 594	5.9004e+01	16.3664	98.271958	0.000537	5.372226	1.820159	-0.000215
 595	5.9103e+01	16.3231	98.053953	0.000547	5.473588	1.854502	-0.000219
 596	5.9203e+01	16.2846	97.876319	0.000446	4.459961	1.511076	-0.000179
 597	5.9302e+01	16.2445	97.686573	0.000476	4.764049	1.614104	-0.000191
 598	5.9401e+01	16.2028	97.460494	0.000568	5.676314	1.923187	-0.000227
 599	5.9501e+01	16.1578	97.266711	0.000487	4.865412	1.648446	-0.000195
 600	5.9600e+01	16.1257	97.044669	0.000557	5.574951	1.888845	-0.000223
 601	5.9700e+01	16.0808	96.850886	0.000487	4.865412	1.648446	-0.000195
 602	5.9800e+01	16.0391	96.640955	0.000527	5.270863	1.785817	-0.000211
 603	5.9899e+01	16.0102	96.443136	0.000497	4.966775	1.682789	-0.000199
 604	5.9998e+01	15.9653	96.233205	0.000527	5.270863	1.785817	-0.000211
 605	6.0098e+01	15.9188	96.007125	0.000568	5.676314	1.923187	-0.000227
 606	6.0197e+01	15.8851	95.813342	0.000487	4.865412	1.648446	-0.000195
 607	6.0297e+01	15.8514	95.591300	0.000557	5.574951	1.888845	-0.000223
 608	6.0397e+01	15.8049	95.349072	0.000608	6.081765	2.060558	-0.000243
 609	6.0496e+01	15.7632	95.143178	0.000517	5.169500	1.751474	-0.000207
 610	6.0596e+01	15.7247	94.965544	0.000446	4.459961	1.511076	-0.000179
 611	6.0695e+01	15.6846	94.739464	0.000568	5.676314	1.923187	-0.000227
 612	6.0794e+01	15.6557	94.537608	0.000507	5.068137	1.717131	-0.000203
 613	6.0894e+01	15.6108	94.327677	0.000527	5.270863	1.785817	-0.000211
 614	6.0993e+01	15.5611	94.109671	0.000547	5.473588	1.854502	-0.000219
 615	6.1093e+01	15.5226	93.899740	0.000527	5.270863	1.785817	-0.000211
 616	6.1193e+01	15.4841	93.665586	0.000588	5.879039	1.991872	-0.000235
 617	6.1292e+01	15.4504	93.471804	0.000487	4.865412	1.648446	-0.000195
 618	6.1392e+01	15.4119	93.253798	0.000547	5.473588	1.854502	-0.000219
 619	6.1491e+01	15.3669	93.076164	0.000446	4.459961	1.511076	-0.000179
 620	6.1590e+01	15.3333	92.846048	0.000578	5.777677	1.957530	-0.000231
 621	6.1690e+01	15.2932	92.611894	0.000588	5.879039	1.991872	-0.000235
 622	6.1789e+01	15.2418	92.446371	0.000416	4.155873	1.408048	-0.000166
 623	6.1889e+01	15.2081	92.196069	0.000628	6.284490	2.129243	-0.000252
 624	6.1989e+01	15.1632	91.953841	0.000608	6.081765	2.060558	-0.000243
 625	6.2088e+01	15.1215	91.747947	0.000517	5.169500	1.751474	-0.000207
 626	6.2188e+01	15.0926	91.554164	0.000487	4.865412	1.648446	-0.000195
 627	6.2287e+01	15.0445	91.412865	0.000355	3.547696	1.201992	-0.000142
 628	6.2386e+01	15.0124	91.154488	0.000649	6.487216	2.197928	-0.000260
 629	6.2486e+01	14.9707	90.936482	0.000547	5.473588	1.854502	-0.000219
 630	6.2586e+01	14.9258	90.714440	0.000557	5.574951	1.888845	-0.000223
 631	6.2685e+01	14.8889	90.508546	0.000517	5.169500	1.751474	-0.000207
 632	6.2785e+01	14.8504	90.314764	0.000487	4.865412	1.648446	-0.000195
 633	6.2884e+01	14.8039	90.084647	0.000578	5.777677	1.957530	-0.000231
 634	6.2983e+01	14.7718	89.874716	0.000527	5.270863	1.785817	-0.000211
 635	6.3083e+01	14.7333	89.620376	0.000639	6.385853	2.163586	-0.000256
 636	6.3182e+01	14.6916	89.442742	0.000446	4.459961	1.511076	-0.000179
 637	6.3282e+01	14.6466	89.252997	0.000476	4.764049	1.614104	-0.000191
 638	6.3382e+01	14.6033	89.030954	0.000557	5.574951	1.888845	-0.000223
 639	6.3481e+01	14.5712	88.804875	0.000568	5.676314	1.923187	-0.000227
 640	6.3581e+01	14.5440	88.598981	0.000517	5.169500	1.751474	-0.000207
 641	6.3680e+01	14.4894	88.376938	0.000557	5.574951	1.888845	-0.000223
 642	6.3779e+01	14.4590	88.175082	0.000507	5.068137	1.717131	-0.000203
 643	6.3879e+01	14.4028	87.940928	0.000588	5.879039	1.991872	-0.000235
 644	6.3978e+01	14.3691	87.735034	0.000517	5.169500	1.751474	-0.000207
 645	6.4078e+01	14.3354	87.533177	0.000507	5.068137	1.717131	-0.000203
 646	6.4177e+01	14.2953	87.339395	0.000487	4.865412	1.648446	-0.000195
 647	6.4277e+01	14.2488	87.089092	0.000628	6.284490	2.129243	-0.000252
 648	6.4376e+01	14.2167	86.842827	0.000618	6.183128	2.094900	-0.000248
 649	6.4476e+01	14.1750	86.657119	0.000466	4.662686	1.579761	-0.000187
 650	6.4576e+01	14.1285	86.427002	0.000578	5.777677	1.957530	-0.000231
 651	6.4675e+01	14.0884	86.229182	0.000497	4.966775	1.682789	-0.000199
 652	6.4775e+01	14.0499	86.027325	0.000507	5.068137	1.717131	-0.000203
 653	6.4874e+01	14.0114	85.833543	0.000487	4.865412	1.648446	-0.000195
 654	6.4974e+01	13.9697	85.599389	0.000588	5.879039	1.991872	-0.000235
 655	6.5073e+01	13.9360	85.389458	0.000527	5.270863	1.785817	-0.000211
 656	6.5172e+01	13.9007	85.147230	0.000608	6.081765	2.060558	-0.000243
 657	6.5272e+01	13.8558	84.921150	0.000568	5.676314	1.923187	-0.000227
 658	6.5371e+01	13.8060	84.723331	0.000497	4.966775	1.682789	-0.000199
 659	6.5471e+01	13.7739	84.517437	0.000517	5.169500	1.751474	-0.000207
 660	6.5570e+01	13.7306	84.299431	0.000547	5.473588	1.854502	-0.000219
 661	6.5670e+01	13.6937	84.085463	0.000537	5.372226	1.820159	-0.000215
 662	6.5769e+01	13.6520	83.855346	0.000578	5.777677	1.957530	-0.000231
 663	6.5869e+01	13.6151	83.665601	0.000476	4.764049	1.614104	-0.000191
 664	6.5969e+01	13.5798	83.423373	0.000608	6.081765	2.060558	-0.000243
 665	6.6068e+01	13.5397	83.225553	0.000497	4.966775	1.682789	-0.000199
 666	6.6168e+01	13.4964	83.023696	0.000507	5.068137	1.717131	-0.000203
 667	6.6267e+01	13.4547	82.773394	0.000628	6.284490	2.129243	-0.000252
 668	6.6367e+01	13.4146	82.559426	0.000537	5.372226	1.820159	-0.000215
 669	6.6466e+01	13.3793	82.365643	0.000487	4.865412	1.648446	-0.000195
 670	6.6566e+01	13.3408	82.147638	0.000547	5.473588	1.854502	-0.000219
 671	6.6665e+01	13.2927	81.925596	0.000557	5.574951	1.888845	-0.000223
 672	6.6764e+01	13.2606	81.699516	0.000568	5.676314	1.923187	-0.000227
 673	6.6864e+01	13.2109	81.477473	0.000557	5.574951	1.888845	-0.000223
 674	6.6963e+01	13.1820	81.263505	0.000537	5.372226	1.820159	-0.000215
 675	6.7063e+01	13.1419	81.029351	0.000588	5.879039	1.991872	-0.000235
 676	6.7162e+01	13.0954	80.855755	0.000436	4.358598	1.476733	-0.000174
 677	6.7262e+01	13.0552	80.605452	0.000628	6.284490	2.129243	-0.000252
 678	6.7362e+01	13.0183	80.383410	0.000557	5.574951	1.888845	-0.000223
 679	6.7461e+01	12.9750	80.165404	0.000547	5.473588	1.854502	-0.000219
 680	6.7561e+01	12.9365	79.943362	0.000557	5.574951	1.888845	-0.000223
 681	6.7660e+01	12.8964	79.721319	0.000557	5.574951	1.888845	-0.000223
 682	6.7760e+01	12.8515	79.547723	0.000436	4.358598	1.476733	-0.000174
 683	6.7859e+01	12.8210	79.317606	0.000578	5.777677	1.957530	-0.000231
 684	6.7959e+01	12.7873	79.075378	0.000608	6.081765	2.060558	-0.000243
 685	6.8058e+01	12.7424	78.909855	0.000416	4.155873	1.408048	-0.000166
 686	6.8157e+01	12.6943	78.651478	0.000649	6.487216	2.197928	-0.000260
 687	6.8257e+01	12.6654	78.421362	0.000578	5.777677	1.957530	-0.000231
 688	6.8356e+01	12.6205	78.199319	0.000557	5.574951	1.888845	-0.000223
 689	6.8456e+01	12.5788	77.969203	0.000578	5.777677	1.957530	-0.000231
 690	6.8555e+01	12.5451	77.779457	0.000476	4.764049	1.614104	-0.000191
 691	6.8655e+01	12.5098	77.488783	0.000730	7.298118	2.472669	-0.000292
 692	6.8754e+01	12.4713	77.311149	0.000446	4.459961	1.511076	-0.000179
 693	6.8854e+01	12.4280	77.089107	0.000557	5.574951	1.888845	-0.000223
 694	6.8954e+01	12.3799	76.854953	0.000588	5.879039	1.991872	-0.000235
 695	6.9053e+01	12.3414	76.645022	0.000527	5.270863	1.785817	-0.000211
 696	6.9153e+01	12.2980	76.418942	0.000568	5.676314	1.923187	-0.000227
 697	6.9252e+01	12.2628	76.192863	0.000568	5.676314	1.923187	-0.000227
 698	6.9352e+01	12.2275	75.982932	0.000527	5.270863	1.785817	-0.000211
 699	6.9451e+01	12.1777	75.748778	0.000588	5.879039	1.991872	-0.000235
 700	6.9550e+01	12.1505	75.502513	0.000618	6.183128	2.094900	-0.000248
 701	6.9650e+01	12.1023	75.248173	0.000639	6.385853	2.163586	-0.000256
 702	6.9749e+01	12.0654	75.078613	0.000426	4.257235	1.442390	-0.000170
 703	6.9849e+01	12.0253	74.864645	0.000537	5.372226	1.820159	-0.000215
 704	6.9948e+01	11.9900	74.650677	0.000537	5.372226	1.820159	-0.000215
 705	7.0048e+01	11.9547	74.424597	0.000568	5.676314	1.923187	-0.000227
 706	7.0147e+01	11.9098	74.194481	0.000578	5.777677	1.957530	-0.000231
 707	7.0247e+01	11.8697	73.960327	0.000588	5.879039	1.991872	-0.000235
 708	7.0347e+01	11.8248	73.738284	0.000557	5.574951	1.888845	-0.000223
 709	7.0446e+01	11.7751	73.516242	0.000557	5.574951	1.888845	-0.000223
 710	7.0546e+01	11.7510	73.274014	0.000608	6.081765	2.060558	-0.000243
 711	7.0645e+01	11.7077	73.072157	0.000507	5.068137	1.717131	-0.000203
 712	7.0745e+01	11.6644	72.829929	0.000608	6.081765	2.060558	-0.000243
 713	7.0844e+01	11.6162	72.607886	0.000557	5.574951	1.888845	-0.000223
 714	7.0944e+01	11.5842	72.353547	0.000639	6.385853	2.163586	-0.000256
 715	7.1043e+01	11.5473	72.163801	0.000476	4.764049	1.614104	-0.000191
 716	7.1142e+01	11.4991	71.893313	0.000679	6.791304	2.300956	-0.000272
 717	7.1242e+01	11.4606	71.695494	0.000497	4.966775	1.682789	-0.000199
 718	7.1341e+01	11.4253	71.477488	0.000547	5.473588	1.854502	-0.000219
 719	7.1441e+01	11.3901	71.255446	0.000557	5.574951	1.888845	-0.000223
 720	7.1540e+01	11.3548	71.001106	0.000639	6.385853	2.163586	-0.000256
 721	7.1640e+01	11.3066	70.775027	0.000568	5.676314	1.923187	-0.000227
 722	7.1740e+01	11.2601	70.504539	0.000679	6.791304	2.300956	-0.000272
 723	7.1839e+01	11.2216	70.294607	0.000527	5.270863	1.785817	-0.000211
 724	7.1939e+01	11.1879	70.052379	0.000608	6.081765	2.060558	-0.000243
 725	7.2038e+01	11.1382	69.874745	0.000446	4.459961	1.511076	-0.000179
 726	7.2138e+01	11.0997	69.632517	0.000608	6.081765	2.060558	-0.000243
 727	7.2237e+01	11.0676	69.386252	0.000618	6.183128	2.094900	-0.000248
 728	7.2337e+01	11.0275	69.164209	0.000557	5.574951	1.888845	-0.000223
 729	7.2436e+01	10.9794	68.893721	0.000679	6.791304	2.300956	-0.000272
 730	7.2535e+01	10.9457	68.716087	0.000446	4.459961	1.511076	-0.000179
 731	7.2635e+01	10.9104	68.485971	0.000578	5.777677	1.957530	-0.000231
 732	7.2734e+01	10.8655	68.247780	0.000598	5.980402	2.026215	-0.000239
 733	7.2834e+01	10.8318	68.033811	0.000537	5.372226	1.820159	-0.000215
 734	7.2933e+01	10.7885	67.755249	0.000699	6.994030	2.369641	-0.000280
 735	7.3033e+01	10.7452	67.561467	0.000487	4.865412	1.648446	-0.000195
 736	7.3132e+01	10.7131	67.327313	0.000588	5.879039	1.991872	-0.000235
 737	7.3232e+01	10.6665	67.081047	0.000618	6.183128	2.094900	-0.000248
 738	7.3332e+01	10.6264	66.854968	0.000568	5.676314	1.923187	-0.000227
 739	7.3431e+01	10.5831	66.636962	0.000547	5.473588	1.854502	-0.000219
 740	7.3531e+01	10.5398	66.398771	0.000598	5.980402	2.026215	-0.000239
 741	7.3630e+01	10.5109	66.160580	0.000598	5.980402	2.026215	-0.000239
 742	7.3730e+01	10.4676	65.946612	0.000537	5.372226	1.820159	-0.000215
 743	7.3829e+01	10.4211	65.696310	0.000628	6.284490	2.129243	-0.000252
 744	7.3928e+01	10.3938	65.441970	0.000639	6.385853	2.163586	-0.000256
 745	7.4028e+01	10.3553	65.215891	0.000568	5.676314	1.923187	-0.000227
 746	7.4127e+01	10.3104	64.985774	0.000578	5.777677	1.957530	-0.000231
 747	7.4227e+01	10.2687	64.699137	0.000720	7.196755	2.438327	-0.000288
 748	7.4326e+01	10.2350	64.525541	0.000436	4.358598	1.476733	-0.000174
 749	7.4426e+01	10.1901	64.279275	0.000618	6.183128	2.094900	-0.000248
 750	7.4525e+01	10.1516	64.024936	0.000639	6.385853	2.163586	-0.000256
 751	7.4625e+01	10.1147	63.782708	0.000608	6.081765	2.060558	-0.000243
 752	7.4725e+01	10.0682	63.544517	0.000598	5.980402	2.026215	-0.000239
 753	7.4824e+01	10.0345	63.342660	0.000507	5.068137	1.717131	-0.000203
 754	7.4924e+01	10.0024	63.100432	0.000608	6.081765	2.060558	-0.000243
 755	7.5023e+01	9.9495	62.874352	0.000568	5.676314	1.923187	-0.000227
 756	7.5123e+01	9.9029	62.668458	0.000517	5.169500	1.751474	-0.000207
 757	7.5222e+01	9.8773	62.402007	0.000669	6.689941	2.266613	-0.000268
 758	7.5322e+01	9.8323	62.139593	0.000659	6.588579	2.232271	-0.000264
 759	7.5421e+01	9.7938	61.917551	0.000557	5.574951	1.888845	-0.000223
 760	7.5520e+01	9.7553	61.667248	0.000628	6.284490	2.129243	-0.000252
 761	7.5620e+01	9.7152	61.425020	0.000608	6.081765	2.060558	-0.000243
 762	7.5719e+01	9.6799	61.243349	0.000456	4.561324	1.545418	-0.000183
 763	7.5819e+01	9.6350	61.001121	0.000608	6.081765	2.060558	-0.000243
 764	7.5918e+01	9.5981	60.758893	0.000608	6.081765	2.060558	-0.000243
 765	7.6018e+01	9.5468	60.516665	0.000608	6.081765	2.060558	-0.000243
 766	7.6118e+01	9.5179	60.270399	0.000618	6.183128	2.094900	-0.000248
 767	7.6217e+01	9.4682	60.076617	0.000487	4.865412	1.648446	-0.000195
 768	7.6317e+01	9.4313	59.810166	0.000669	6.689941	2.266613	-0.000268
 769	7.6416e+01	9.3944	59.576012	0.000588	5.879039	1.991872	-0.000235
 770	7.6516e+01	9.3479	59.341858	0.000588	5.879039	1.991872	-0.000235
 771	7.6615e+01	9.3174	59.083482	0.000649	6.487216	2.197928	-0.000260
 772	7.6715e+01	9.2660	58.877588	0.000517	5.169500	1.751474	-0.000207
 773	7.6814e+01	9.2292	58.623248	0.000639	6.385853	2.163586	-0.000256
 774	7.6913e+01	9.1955	58.413317	0.000527	5.270863	1.785817	-0.000211
 775	7.7013e+01	9.1554	58.134755	0.000699	6.994030	2.369641	-0.000280
 776	7.7112e+01	9.1120	57.888489	0.000618	6.183128	2.094900	-0.000248
 777	7.7212e+01	9.0735	57.666447	0.000557	5.574951	1.888845	-0.000223
 778	7.7311e+01	9.0302	57.456516	0.000527	5.270863	1.785817	-0.000211
 779	7.7411e+01	8.9949	57.222362	0.000588	5.879039	1.991872	-0.000235
 780	7.7510e+01	8.9500	56.968022	0.000639	6.385853	2.163586	-0.000256
 781	7.7610e+01	8.9163	56.673311	0.000740	7.399481	2.507012	-0.000296
 782	7.7710e+01	8.8842	56.487603	0.000466	4.662686	1.579761	-0.000187
 783	7.7809e+01	8.8313	56.221152	0.000669	6.689941	2.266613	-0.000268
 784	7.7909e+01	8.7928	55.995073	0.000568	5.676314	1.923187	-0.000227
 785	7.8008e+01	8.7511	55.760919	0.000588	5.879039	1.991872	-0.000235
 786	7.8108e+01	8.7078	55.542913	0.000547	5.473588	1.854502	-0.000219
 787	7.8207e+01	8.6805	55.284537	0.000649	6.487216	2.197928	-0.000260
 788	7.8306e+01	8.6292	55.034234	0.000628	6.284490	2.129243	-0.000252
 789	7.8406e+01	8.6019	54.759709	0.000689	6.892667	2.335299	-0.000276
 790	7.8505e+01	8.5522	54.594187	0.000416	4.155873	1.408048	-0.000166
 791	7.8605e+01	8.5233	54.360033	0.000588	5.879039	1.991872	-0.000235
 792	7.8704e+01	8.4768	54.081470	0.000699	6.994030	2.369641	-0.000280
 793	7.8804e+01	8.4286	53.875576	0.000517	5.169500	1.751474	-0.000207
 794	7.8903e+01	8.3998	53.584903	0.000730	7.298118	2.472669	-0.000292
 795	7.9003e+01	8.3532	53.407269	0.000446	4.459961	1.511076	-0.000179
 796	7.9103e+01	8.3244	53.173115	0.000588	5.879039	1.991872	-0.000235
 797	7.9202e+01	8.2778	52.898590	0.000689	6.892667	2.335299	-0.000276
 798	7.9302e+01	8.2313	52.628101	0.000679	6.791304	2.300956	-0.000272
 799	7.9401e+01	8.1912	52.442393	0.000466	4.662686	1.579761	-0.000187
 800	7.9501e+01	8.1607	52.200165	0.000608	6.081765	2.060558	-0.000243
 801	7.9600e+01	8.1030	51.941788	0.000649	6.487216	2.197928	-0.000260
 802	7.9700e+01	8.0757	51.739932	0.000507	5.068137	1.717131	-0.000203
 803	7.9799e+01	8.0308	51.501741	0.000598	5.980402	2.026215	-0.000239
 804	7.9898e+01	7.9923	51.231253	0.000679	6.791304	2.300956	-0.000272
 805	7.9998e+01	7.9538	51.029396	0.000507	5.068137	1.717131	-0.000203
 806	8.0097e+01	7.9137	50.807353	0.000557	5.574951	1.888845	-0.000223
 807	8.0197e+01	7.8752	50.504568	0.000760	7.602206	2.575697	-0.000304
 808	8.0296e+01	7.8319	50.314823	0.000476	4.764049	1.614104	-0.000191
 809	8.0396e+01	7.7950	50.064520	0.000628	6.284490	2.129243	-0.000252
 810	8.0496e+01	7.7693	49.854589	0.000527	5.270863	1.785817	-0.000211
 811	8.0595e+01	7.7212	49.539693	0.000791	7.906294	2.678725	-0.000316
 812	8.0695e+01	7.6827	49.329762	0.000527	5.270863	1.785817	-0.000211
 813	8.0794e+01	7.6458	49.123868	0.000517	5.169500	1.751474	-0.000207
 814	8.0894e+01	7.6009	48.841268	0.000710	7.095392	2.403984	-0.000284
 815	8.0993e+01	7.5559	48.623263	0.000547	5.473588	1.854502	-0.000219
 816	8.1093e+01	7.5271	48.405257	0.000547	5.473588	1.854502	-0.000219
 817	8.1192e+01	7.4757	48.146881	0.000649	6.487216	2.197928	-0.000260
 818	8.1291e+01	7.4452	47.880430	0.000669	6.689941	2.266613	-0.000268
 819	8.1391e+01	7.3987	47.654350	0.000568	5.676314	1.923187	-0.000227
 820	8.1490e+01	7.3554	47.412122	0.000608	6.081765	2.060558	-0.000243
 821	8.1590e+01	7.3281	47.194117	0.000547	5.473588	1.854502	-0.000219
 822	8.1689e+01	7.2800	46.931703	0.000659	6.588579	2.232271	-0.000264
 823	8.1789e+01	7.2447	46.709660	0.000557	5.574951	1.888845	-0.000223
 824	8.1888e+01	7.2030	46.427061	0.000710	7.095392	2.403984	-0.000284
 825	8.1988e+01	7.1453	46.217130	0.000527	5.270863	1.785817	-0.000211
 826	8.2088e+01	7.1180	45.987013	0.000578	5.777677	1.957530	-0.000231
 827	8.2187e+01	7.0827	45.760934	0.000568	5.676314	1.923187	-0.000227
 828	8.2287e+01	7.0410	45.502557	0.000649	6.487216	2.197928	-0.000260
 829	8.2386e+01	6.9945	45.272440	0.000578	5.777677	1.957530	-0.000231
 830	8.2486e+01	6.9656	45.010026	0.000659	6.588579	2.232271	-0.000264
 831	8.2585e+01	6.9175	44.800095	0.000527	5.270863	1.785817	-0.000211
 832	8.2684e+01	6.8838	44.549793	0.000628	6.284490	2.129243	-0.000252
 833	8.2784e+01	6.8404	44.315639	0.000588	5.879039	1.991872	-0.000235
 834	8.2883e+01	6.8052	44.097634	0.000547	5.473588	1.854502	-0.000219
 835	8.2983e+01	6.7570	43.831183	0.000669	6.689941	2.266613	-0.000268
 836	8.3082e+01	6.7249	43.633363	0.000497	4.966775	1.682789	-0.000199
 837	8.3182e+01	6.6832	43.366912	0.000669	6.689941	2.266613	-0.000268
 838	8.3281e+01	6.6447	43.132758	0.000588	5.879039	1.991872	-0.000235
 839	8.3381e+01	6.6014	42.890530	0.000608	6.081765	2.060558	-0.000243
 840	8.3481e+01	6.5629	42.652339	0.000598	5.980402	2.026215	-0.000239
 841	8.3580e+01	6.5212	42.389925	0.000659	6.588579	2.232271	-0.000264
 842	8.3680e+01	6.4779	42.127511	0.000659	6.588579	2.232271	-0.000264
 843	8.3779e+01	6.4442	41.917580	0.000527	5.270863	1.785817	-0.000211
 844	8.3879e+01	6.4041	41.663241	0.000639	6.385853	2.163586	-0.000256
 845	8.3978e+01	6.3592	41.433124	0.000578	5.777677	1.957530	-0.000231
 846	8.4078e+01	6.3287	41.174747	0.000649	6.487216	2.197928	-0.000260
 847	8.4177e+01	6.2950	40.980965	0.000487	4.865412	1.648446	-0.000195
 848	8.4276e+01	6.2421	40.690291	0.000730	7.298118	2.472669	-0.000292
 849	8.4376e+01	6.2084	40.452100	0.000598	5.980402	2.026215	-0.000239
 850	8.4475e+01	6.1522	40.230058	0.000557	5.574951	1.888845	-0.000223
 851	8.4575e+01	6.1234	39.991867	0.000598	5.980402	2.026215	-0.000239
 852	8.4674e+01	6.0833	39.741564	0.000628	6.284490	2.129243	-0.000252
 853	8.4774e+01	6.0447	39.483188	0.000649	6.487216	2.197928	-0.000260
 854	8.4874e+01	6.0111	39.249034	0.000588	5.879039	1.991872	-0.000235
 855	8.4973e+01	5.9645	39.018917	0.000578	5.777677	1.957530	-0.000231
 856	8.5073e+01	5.9292	38.776689	0.000608	6.081765	2.060558	-0.000243
 857	8.5172e+01	5.8827	38.542535	0.000588	5.879039	1.991872	-0.000235
 858	8.5272e+01	5.8490	38.292232	0.000628	6.284490	2.129243	-0.000252
 859	8.5371e+01	5.8089	38.017707	0.000689	6.892667	2.335299	-0.000276
 860	8.5471e+01	5.7624	37.791628	0.000568	5.676314	1.923187	-0.000227
 861	8.5570e+01	5.7287	37.553437	0.000598	5.980402	2.026215	-0.000239
 862	8.5669e+01	5.6886	37.278911	0.000689	6.892667	2.335299	-0.000276
 863	8.5769e+01	5.6565	37.064943	0.000537	5.372226	1.820159	-0.000215
 864	8.5868e+01	5.6116	36.786381	0.000699	6.994030	2.369641	-0.000280
 865	8.5968e+01	5.5747	36.592598	0.000487	4.865412	1.648446	-0.000195
 866	8.6067e+01	5.5346	36.334222	0.000649	6.487216	2.197928	-0.000260
 867	8.6167e+01	5.4881	36.075845	0.000649	6.487216	2.197928	-0.000260
 868	8.6266e+01	5.4512	35.861877	0.000537	5.372226	1.820159	-0.000215
 869	8.6366e+01	5.4015	35.627723	0.000588	5.879039	1.991872	-0.000235
 870	8.6466e+01	5.3613	35.341086	0.000720	7.196755	2.438327	-0.000288
 871	8.6565e+01	5.3277	35.119044	0.000557	5.574951	1.888845	-0.000223
 872	8.6665e+01	5.2859	34.848556	0.000679	6.791304	2.300956	-0.000272
 873	8.6764e+01	5.2442	34.614402	0.000588	5.879039	1.991872	-0.000235
 874	8.6864e+01	5.2138	34.380248	0.000588	5.879039	1.991872	-0.000235
 875	8.6963e+01	5.1753	34.097648	0.000710	7.095392	2.403984	-0.000284
 876	8.7063e+01	5.1303	33.879643	0.000547	5.473588	1.854502	-0.000219
 877	8.7162e+01	5.0950	33.621266	0.000649	6.487216	2.197928	-0.000260
 878	8.7261e+01	5.0453	33.387113	0.000588	5.879039	1.991872	-0.000235
 879	8.7361e+01	5.0100	33.148922	0.000598	5.980402	2.026215	-0.000239
 880	8.7460e+01	4.9827	32.874396	0.000689	6.892667	2.335299	-0.000276
 881	8.7560e+01	4.9218	32.628131	0.000618	6.183128	2.094900	-0.000248
 882	8.7659e+01	4.8865	32.385903	0.000608	6.081765	2.060558	-0.000243
 883	8.7759e+01	4.8560	32.143675	0.000608	6.081765	2.060558	-0.000243
 884	8.7859e+01	4.8079	31.869150	0.000689	6.892667	2.335299	-0.000276
 885	8.7958e+01	4.7694	31.622884	0.000618	6.183128	2.094900	-0.000248
 886	8.8058e+01	4.7309	31.384693	0.000598	5.980402	2.026215	-0.000239
 887	8.8157e+01	4.6860	31.154576	0.000578	5.777677	1.957530	-0.000231
 888	8.8257e+01	4.6491	30.892163	0.000659	6.588579	2.232271	-0.000264
 889	8.8356e+01	4.6074	30.637823	0.000639	6.385853	2.163586	-0.000256
 890	8.8456e+01	4.5689	30.383484	0.000639	6.385853	2.163586	-0.000256
 891	8.8555e+01	4.5368	30.133181	0.000628	6.284490	2.129243	-0.000252
 892	8.8654e+01	4.4919	29.911139	0.000557	5.574951	1.888845	-0.000223
 893	8.8754e+01	4.4517	29.681022	0.000578	5.777677	1.957530	-0.000231
 894	8.8853e+01	4.4197	29.434757	0.000618	6.183128	2.094900	-0.000248
 895	8.8953e+01	4.3763	29.180417	0.000639	6.385853	2.163586	-0.000256
 896	8.9052e+01	4.3394	28.893780	0.000720	7.196755	2.438327	-0.000288
 897	8.9152e+01	4.2945	28.679812	0.000537	5.372226	1.820159	-0.000215
 898	8.9251e+01	4.2512	28.409324	0.000679	6.791304	2.300956	-0.000272
 899	8.9351e+01	4.1983	28.159022	0.000628	6.284490	2.129243	-0.000252
 900	8.9451e+01	4.1774	27.900645	0.000649	6.487216	2.197928	-0.000260
 901	8.9550e+01	4.1341	27.662454	0.000598	5.980402	2.026215	-0.000239
 902	8.9650e+01	4.0844	27.400040	0.000659	6.588579	2.232271	-0.000264
 903	8.9749e+01	4.0539	27.081107	0.000801	8.007657	2.713068	-0.000321
 904	8.9849e+01	4.0154	26.879250	0.000507	5.068137	1.717131	-0.000203
 905	8.9948e+01	3.9721	26.665282	0.000537	5.372226	1.820159	-0.000215
 906	9.0047e+01	3.9288	26.394793	0.000679	6.791304	2.300956	-0.000272
 907	9.0147e+01	3.8871	26.132380	0.000659	6.588579	2.232271	-0.000264
 908	9.0246e+01	3.8598	25.878040	0.000639	6.385853	2.163586	-0.000256
 909	9.0346e+01	3.8117	25.643886	0.000588	5.879039	1.991872	-0.000235
 910	9.0445e+01	3.7764	25.369361	0.000689	6.892667	2.335299	-0.000276
 911	9.0545e+01	3.7379	25.086761	0.000710	7.095392	2.403984	-0.000284
 912	9.0644e+01	3.6849	24.880868	0.000517	5.169500	1.751474	-0.000207
 913	9.0744e+01	3.6609	24.630565	0.000628	6.284490	2.129243	-0.000252
 914	9.0844e+01	3.6143	24.364114	0.000669	6.689941	2.266613	-0.000268
 915	9.0943e+01	3.5742	24.089589	0.000689	6.892667	2.335299	-0.000276
 916	9.1043e+01	3.5341	23.879658	0.000527	5.270863	1.785817	-0.000211
 917	9.1142e+01	3.4956	23.633393	0.000618	6.183128	2.094900	-0.000248
 918	9.1242e+01	3.4523	23.375016	0.000649	6.487216	2.197928	-0.000260
 919	9.1341e+01	3.4202	23.120676	0.000639	6.385853	2.163586	-0.000256
 920	9.1441e+01	3.3785	22.866337	0.000639	6.385853	2.163586	-0.000256
 921	9.1540e+01	3.3352	22.607960	0.000649	6.487216	2.197928	-0.000260
 922	9.1639e+01	3.2999	22.321323	0.000720	7.196755	2.438327	-0.000288
 923	9.1739e+01	3.2582	22.123504	0.000497	4.966775	1.682789	-0.000199
 924	9.1838e+01	3.2085	21.848979	0.000689	6.892667	2.335299	-0.000276
 925	9.1938e+01	3.1700	21.570416	0.000699	6.994030	2.369641	-0.000280
 926	9.2037e+01	3.1363	21.364522	0.000517	5.169500	1.751474	-0.000207
 927	9.2137e+01	3.0994	21.065774	0.000750	7.500843	2.541355	-0.000300
 928	9.2237e+01	3.0561	20.823546	0.000608	6.081765	2.060558	-0.000243
 929	9.2336e+01	3.0160	20.565169	0.000649	6.487216	2.197928	-0.000260
 930	9.2436e+01	2.9887	20.326978	0.000598	5.980402	2.026215	-0.000239
 931	9.2535e+01	2.9422	20.096862	0.000578	5.777677	1.957530	-0.000231
 932	9.2635e+01	2.8972	19.830411	0.000669	6.689941	2.266613	-0.000268
 933	9.2734e+01	2.8555	19.551848	0.000699	6.994030	2.369641	-0.000280
 934	9.2834e+01	2.8186	19.329806	0.000557	5.574951	1.888845	-0.000223
 935	9.2933e+01	2.7817	19.075466	0.000639	6.385853	2.163586	-0.000256
 936	9.3032e+01	2.7448	18.809015	0.000669	6.689941	2.266613	-0.000268
 937	9.3132e+01	2.7031	18.550639	0.000649	6.487216	2.197928	-0.000260
 938	9.3231e+01	2.6550	18.328596	0.000557	5.574951	1.888845	-0.000223
 939	9.3331e+01	2.6197	18.029848	0.000750	7.500843	2.541355	-0.000300
 940	9.3430e+01	2.5796	17.832029	0.000497	4.966775	1.682789	-0.000199
 941	9.3530e+01	2.5379	17.529243	0.000760	7.602206	2.575697	-0.000304
 942	9.3629e+01	2.4978	17.311238	0.000547	5.473588	1.854502	-0.000219
 943	9.3729e+01	2.4673	17.008453	0.000760	7.602206	2.575697	-0.000304
 944	9.3829e+01	2.4272	16.729890	0.000699	6.994030	2.369641	-0.000280
 945	9.3928e+01	2.3775	16.507848	0.000557	5.574951	1.888845	-0.000223
 946	9.4028e+01	2.3470	16.269657	0.000598	5.980402	2.026215	-0.000239
 947	9.4127e+01	2.2989	15.978983	0.000730	7.298118	2.472669	-0.000292
 948	9.4227e+01	2.2556	15.732718	0.000618	6.183128	2.094900	-0.000248
 949	9.4326e+01	2.2187	15.506638	0.000568	5.676314	1.923187	-0.000227
 950	9.4425e+01	2.1818	15.240187	0.000669	6.689941	2.266613	-0.000268
 951	9.4525e+01	2.1465	14.989885	0.000628	6.284490	2.129243	-0.000252
 952	9.4624e+01	2.0903	14.727471	0.000659	6.588579	2.232271	-0.000264
 953	9.4724e+01	2.0646	14.469094	0.000649	6.487216	2.197928	-0.000260
 954	9.4823e+01	2.0133	14.198606	0.000679	6.791304	2.300956	-0.000272
 955	9.4923e+01	1.9892	13.996750	0.000507	5.068137	1.717131	-0.000203
 956	9.5022e+01	1.9363	13.714150	0.000710	7.095392	2.403984	-0.000284
 957	9.5122e+01	1.9010	13.484033	0.000578	5.777677	1.957530	-0.000231
 958	9.5222e+01	1.8657	13.217582	0.000669	6.689941	2.266613	-0.000268
 959	9.5321e+01	1.8192	12.987466	0.000578	5.777677	1.957530	-0.000231
 960	9.5421e+01	1.7791	12.716978	0.000679	6.791304	2.300956	-0.000272
 961	9.5520e+01	1.7406	12.438415	0.000699	6.994030	2.369641	-0.000280
 962	9.5620e+01	1.6989	12.224447	0.000537	5.372226	1.820159	-0.000215
 963	9.5719e+01	1.6604	11.994330	0.000578	5.777677	1.957530	-0.000231
 964	9.5819e+01	1.6267	11.711731	0.000710	7.095392	2.403984	-0.000284
 965	9.5918e+01	1.5850	11.465465	0.000618	6.183128	2.094900	-0.000248
 966	9.6017e+01	1.5513	11.227274	0.000598	5.980402	2.026215	-0.000239
 967	9.6117e+01	1.5000	11.001195	0.000568	5.676314	1.923187	-0.000227
 968	9.6216e+01	1.4550	10.694373	0.000770	7.703569	2.610040	-0.000308
 969	9.6316e+01	1.4230	10.448107	0.000618	6.183128	2.094900	-0.000248
 970	9.6415e+01	1.3845	10.222028	0.000568	5.676314	1.923187	-0.000227
 971	9.6515e+01	1.3476	9.967688	0.000639	6.385853	2.163586	-0.000256
 972	9.6615e+01	1.3091	9.681051	0.000720	7.196755	2.438327	-0.000288
 973	9.6714e+01	1.2545	9.446898	0.000588	5.879039	1.991872	-0.000235
 974	9.6814e+01	1.2256	9.168335	0.000699	6.994030	2.369641	-0.000280
 975	9.6913e+01	1.1839	8.922070	0.000618	6.183128	2.094900	-0.000248
 976	9.7013e+01	1.1502	8.687916	0.000588	5.879039	1.991872	-0.000235
 977	9.7112e+01	1.1101	8.397242	0.000730	7.298118	2.472669	-0.000292
 978	9.7212e+01	1.0620	8.159051	0.000598	5.980402	2.026215	-0.000239
 979	9.7311e+01	1.0331	7.945083	0.000537	5.372226	1.820159	-0.000215
 980	9.7410e+01	0.9866	7.642298	0.000760	7.602206	2.575697	-0.000304
 981	9.7510e+01	0.9401	7.424293	0.000547	5.473588	1.854502	-0.000219
 982	9.7609e+01	0.9048	7.157842	0.000669	6.689941	2.266613	-0.000268
 983	9.7709e+01	0.8631	6.899465	0.000649	6.487216	2.197928	-0.000260
 984	9.7808e+01	0.8310	6.653200	0.000618	6.183128	2.094900	-0.000248
 985	9.7908e+01	0.7797	6.354452	0.000750	7.500843	2.541355	-0.000300
 986	9.8007e+01	0.7476	6.128372	0.000568	5.676314	1.923187	-0.000227
 987	9.8107e+01	0.7027	5.902292	0.000568	5.676314	1.923187	-0.000227
 988	9.8207e+01	0.6722	5.627767	0.000689	6.892667	2.335299	-0.000276
 989	9.8306e+01	0.6321	5.413799	0.000537	5.372226	1.820159	-0.000215
 990	9.8406e+01	0.5936	5.183682	0.000578	5.777677	1.957530	-0.000231
 991	9.8505e+01	0.5503	4.905120	0.000699	6.994030	2.369641	-0.000280
 992	9.8605e+01	0.5005	4.642706	0.000659	6.588579	2.232271	-0.000264
 993	9.8704e+01	0.4668	4.408552	0.000588	5.879039	1.991872	-0.000235
 994	9.8803e+01	0.4267	4.150176	0.000649	6.487216	2.197928	-0.000260
 995	9.8903e+01	0.3914	3.911985	0.000598	5.980402	2.026215	-0.000239
 996	9.9002e+01	0.3465	3.645534	0.000669	6.689941	2.266613	-0.000268
 997	9.9102e+01	0.3128	3.415417	0.000578	5.777677	1.957530	-0.000231
 998	9.9201e+01	0.2599	3.161077	0.000639	6.385853	2.163586	-0.000256
 999	9.9301e+01	0.2246	2.882515	0.000699	6.994030	2.369641	-0.000280
1000	9.9400e+01	0.1829	2.628175	0.000639	6.385853	2.163586	-0.000256
1001	9.9500e+01	0.1460	2.410170	0.000547	5.473588	1.854502	-0.000219
1002	9.9600e+01	0.1155	2.127571	0.000710	7.095392	2.403984	-0.000284
1003	9.9699e+01	0.0706	1.913602	0.000537	5.372226	1.820159	-0.000215
1004	9.9799e+01	0.0225	1.671374	0.000608	6.081765	2.060558	-0.000243
1005	9.9898e+01	0.0016	1.465480	0.000517	5.169500	1.751474	-0.000207
1006	9.9998e+01	-0.0481	1.182881	0.000710	7.095392	2.403984	-0.000284
1007	1.0010e+02	-0.0914	0.997173	0.000466	4.662686	1.579761	-0.000187
1008	1.0020e+02	-0.1267	0.666127	0.000831	8.311745	2.816096	-0.000333
1009	1.0030e+02	-0.1460	0.436011	0.000578	5.777677	1.957530	-0.000231
1010	1.0040e+02	-0.2102	0.201857	0.000588	5.879039	1.991872	-0.000235
1011	1.0050e+02	-0.2374	-0.096891	0.000750	7.500843	2.541355	-0.000300
1012	1.0059e+02	-0.2743	-0.359305	0.000659	6.588579	2.232271	-0.000264
1013	1.0069e+02	-0.3241	-0.545013	0.000466	4.662686	1.579761	-0.000187
1014	1.0079e+02	-0.3690	-0.795316	0.000628	6.284490	2.129243	-0.000252
1015	1.0089e+02	-0.4059	-1.057730	0.000659	6.588579	2.232271	-0.000264
1016	1.0099e+02	-0.4476	-1.312069	0.000639	6.385853	2.163586	-0.000256
1017	1.0109e+02	-0.4829	-1.578520	0.000669	6.689941	2.266613	-0.000268
1018	1.0119e+02	-0.5150	-1.824785	0.000618	6.183128	2.094900	-0.000248
1019	1.0129e+02	-0.5631	-2.071051	0.000618	6.183128	2.094900	-0.000248
1020	1.0139e+02	-0.6032	-2.353650	0.000710	7.095392	2.403984	-0.000284
1021	1.0149e+02	-0.6385	-2.555507	0.000507	5.068137	1.717131	-0.000203
1022	1.0159e+02	-0.6770	-2.821958	0.000669	6.689941	2.266613	-0.000268
1023	1.0169e+02	-0.7219	-3.044000	0.000557	5.574951	1.888845	-0.000223
1024	1.0179e+02	-0.7604	-3.310451	0.000669	6.689941	2.266613	-0.000268
1025	1.0189e+02	-0.8085	-3.564791	0.000639	6.385853	2.163586	-0.000256
1026	1.0199e+02	-0.8326	-3.839316	0.000689	6.892667	2.335299	-0.000276
1027	1.0209e+02	-0.8775	-4.077507	0.000598	5.980402	2.026215	-0.000239
1028	1.0219e+02	-0.9192	-4.352032	0.000689	6.892667	2.335299	-0.000276
1029	1.0229e+02	-0.9593	-4.582149	0.000578	5.777677	1.957530	-0.000231
1030	1.0239e+02	-0.9978	-4.828414	0.000618	6.183128	2.094900	-0.000248
1031	1.0248e+02	-1.0315	-5.046420	0.000547	5.473588	1.854502	-0.000219
1032	1.0258e+02	-1.0732	-5.349205	0.000760	7.602206	2.575697	-0.000304
1033	1.0268e+02	-1.1262	-5.599507	0.000628	6.284490	2.129243	-0.000252
1034	1.0278e+02	-1.1631	-5.821550	0.000557	5.574951	1.888845	-0.000223
1035	1.0288e+02	-1.1984	-6.083964	0.000659	6.588579	2.232271	-0.000264
1036	1.0298e+02	-1.2353	-6.277746	0.000487	4.865412	1.648446	-0.000195
1037	1.0308e+02	-1.2722	-6.576494	0.000750	7.500843	2.541355	-0.000300
1038	1.0318e+02	-1.3091	-6.838908	0.000659	6.588579	2.232271	-0.000264
1039	1.0328e+02	-1.3636	-7.069025	0.000578	5.777677	1.957530	-0.000231
1040	1.0338e+02	-1.3973	-7.347587	0.000699	6.994030	2.369641	-0.000280
1041	1.0348e+02	-1.4422	-7.577704	0.000578	5.777677	1.957530	-0.000231
1042	1.0358e+02	-1.4759	-7.819932	0.000608	6.081765	2.060558	-0.000243
1043	1.0368e+02	-1.5192	-8.118680	0.000750	7.500843	2.541355	-0.000300
1044	1.0378e+02	-1.5593	-8.360908	0.000608	6.081765	2.060558	-0.000243
1045	1.0388e+02	-1.5946	-8.599099	0.000598	5.980402	2.026215	-0.000239
1046	1.0398e+02	-1.6347	-8.841327	0.000608	6.081765	2.060558	-0.000243
1047	1.0408e+02	-1.6764	-9.144112	0.000760	7.602206	2.575697	-0.000304
1048	1.0418e+02	-1.7149	-9.366155	0.000557	5.574951	1.888845	-0.000223
1049	1.0428e+02	-1.7582	-9.596272	0.000578	5.777677	1.957530	-0.000231
1050	1.0438e+02	-1.7919	-9.874834	0.000699	6.994030	2.369641	-0.000280
1051	1.0447e+02	-1.8385	-10.100914	0.000568	5.676314	1.923187	-0.000227
1052	1.0457e+02	-1.8705	-10.351216	0.000628	6.284490	2.129243	-0.000252
1053	1.0467e+02	-1.9122	-10.625741	0.000689	6.892667	2.335299	-0.000276
1054	1.0477e+02	-1.9556	-10.863932	0.000598	5.980402	2.026215	-0.000239
1055	1.0487e+02	-1.9860	-11.094049	0.000578	5.777677	1.957530	-0.000231
1056	1.0497e+02	-2.0358	-11.396834	0.000760	7.602206	2.575697	-0.000304
1057	1.0507e+02	-2.0759	-11.639062	0.000608	6.081765	2.060558	-0.000243
1058	1.0517e+02	-2.1176	-11.881290	0.000608	6.081765	2.060558	-0.000243
1059	1.0527e+02	-2.1545	-12.155816	0.000689	6.892667	2.335299	-0.000276
1060	1.0537e+02	-2.1898	-12.353635	0.000497	4.966775	1.682789	-0.000199
1061	1.0547e+02	-2.2347	-12.640272	0.000720	7.196755	2.438327	-0.000288
1062	1.0557e+02	-2.2764	-12.890574	0.000628	6.284490	2.129243	-0.000252
1063	1.0567e+02	-2.3101	-13.152988	0.000659	6.588579	2.232271	-0.000264
1064	1.0577e+02	-2.3534	-13.346771	0.000487	4.865412	1.648446	-0.000195
1065	1.0587e+02	-2.3951	-13.633407	0.000720	7.196755	2.438327	-0.000288
1066	1.0597e+02	-2.4400	-13.907933	0.000689	6.892667	2.335299	-0.000276
1067	1.0607e+02	-2.4737	-14.142086	0.000588	5.879039	1.991872	-0.000235
1068	1.0617e+02	-2.5251	-14.384315	0.000608	6.081765	2.060558	-0.000243
1069	1.0627e+02	-2.5539	-14.638654	0.000639	6.385853	2.163586	-0.000256
1070	1.0637e+02	-2.6005	-14.929328	0.000730	7.298118	2.472669	-0.000292
1071	1.0647e+02	-2.6358	-15.155408	0.000568	5.676314	1.923187	-0.000227
1072	1.0656e+02	-2.6759	-15.401673	0.000618	6.183128	2.094900	-0.000248
1073	1.0666e+02	-2.7128	-15.647938	0.000618	6.183128	2.094900	-0.000248
1074	1.0676e+02	-2.7464	-15.946686	0.000750	7.500843	2.541355	-0.000300
1075	1.0686e+02	-2.7914	-16.164691	0.000547	5.473588	1.854502	-0.000219
1076	1.0696e+02	-2.8347	-16.427105	0.000659	6.588579	2.232271	-0.000264
1077	1.0706e+02	-2.8764	-16.641074	0.000537	5.372226	1.820159	-0.000215
1078	1.0716e+02	-2.9165	-16.907524	0.000669	6.689941	2.266613	-0.000268
1079	1.0726e+02	-2.9518	-17.173975	0.000669	6.689941	2.266613	-0.000268
1080	1.0736e+02	-2.9871	-17.416204	0.000608	6.081765	2.060558	-0.000243
1081	1.0746e+02	-3.0416	-17.670543	0.000639	6.385853	2.163586	-0.000256
1082	1.0756e+02	-3.0721	-17.969291	0.000750	7.500843	2.541355	-0.000300
1083	1.0766e+02	-3.1154	-18.199408	0.000578	5.777677	1.957530	-0.000231
1084	1.0776e+02	-3.1507	-18.461822	0.000659	6.588579	2.232271	-0.000264
1085	1.0786e+02	-3.2004	-18.691938	0.000578	5.777677	1.957530	-0.000231
1086	1.0796e+02	-3.2293	-18.905907	0.000537	5.372226	1.820159	-0.000215
1087	1.0806e+02	-3.2726	-19.184469	0.000699	6.994030	2.369641	-0.000280
1088	1.0816e+02	-3.3031	-19.458994	0.000689	6.892667	2.335299	-0.000276
1089	1.0826e+02	-3.3464	-19.713334	0.000639	6.385853	2.163586	-0.000256
1090	1.0836e+02	-3.3962	-19.947488	0.000588	5.879039	1.991872	-0.000235
1091	1.0845e+02	-3.4347	-20.193753	0.000618	6.183128	2.094900	-0.000248
1092	1.0855e+02	-3.4780	-20.448093	0.000639	6.385853	2.163586	-0.000256
1093	1.0865e+02	-3.5020	-20.682246	0.000588	5.879039	1.991872	-0.000235
1094	1.0875e+02	-3.5405	-20.944660	0.000659	6.588579	2.232271	-0.000264
1095	1.0885e+02	-3.5903	-21.199000	0.000639	6.385853	2.163586	-0.000256
1096	1.0895e+02	-3.6256	-21.433154	0.000588	5.879039	1.991872	-0.000235
1097	1.0905e+02	-3.6657	-21.691530	0.000649	6.487216	2.197928	-0.000260
1098	1.0915e+02	-3.7106	-21.933758	0.000608	6.081765	2.060558	-0.000243
1099	1.0925e+02	-3.7459	-22.143690	0.000527	5.270863	1.785817	-0.000211
1100	1.0935e+02	-3.7812	-22.414178	0.000679	6.791304	2.300956	-0.000272
1101	1.0945e+02	-3.8421	-22.721000	0.000770	7.703569	2.610040	-0.000308
1102	1.0955e+02	-3.8582	-22.926894	0.000517	5.169500	1.751474	-0.000207
1103	1.0965e+02	-3.8983	-23.201419	0.000689	6.892667	2.335299	-0.000276
1104	1.0975e+02	-3.9496	-23.459796	0.000649	6.487216	2.197928	-0.000260
1105	1.0985e+02	-3.9865	-23.702024	0.000608	6.081765	2.060558	-0.000243
1106	1.0995e+02	-4.0234	-23.964438	0.000659	6.588579	2.232271	-0.000264
1107	1.1005e+02	-4.0635	-24.202629	0.000598	5.980402	2.026215	-0.000239
1108	1.1015e+02	-4.1068	-24.444857	0.000608	6.081765	2.060558	-0.000243
1109	1.1025e+02	-4.1502	-24.683048	0.000598	5.980402	2.026215	-0.000239
1110	1.1035e+02	-4.1790	-24.933350	0.000628	6.284490	2.129243	-0.000252
1111	1.1044e+02	-4.2272	-25.179616	0.000618	6.183128	2.094900	-0.000248
1112	1.1054e+02	-4.2689	-25.442029	0.000659	6.588579	2.232271	-0.000264
1113	1.1064e+02	-4.3138	-25.680220	0.000598	5.980402	2.026215	-0.000239
1114	1.1074e+02	-4.3491	-25.914374	0.000588	5.879039	1.991872	-0.000235
1115	1.1084e+02	-4.3892	-26.180825	0.000669	6.689941	2.266613	-0.000268
1116	1.1094e+02	-4.4293	-26.431128	0.000628	6.284490	2.129243	-0.000252
1117	1.1104e+02	-4.4662	-26.632984	0.000507	5.068137	1.717131	-0.000203
1118	1.1114e+02	-4.4999	-26.927695	0.000740	7.399481	2.507012	-0.000296
1119	1.1124e+02	-4.5384	-27.137626	0.000527	5.270863	1.785817	-0.000211
1120	1.1134e+02	-4.5865	-27.400040	0.000659	6.588579	2.232271	-0.000264
1121	1.1144e+02	-4.6330	-27.682640	0.000710	7.095392	2.403984	-0.000284
1122	1.1154e+02	-4.6619	-27.908719	0.000568	5.676314	1.923187	-0.000227
1123	1.1164e+02	-4.7020	-28.134799	0.000568	5.676314	1.923187	-0.000227
1124	1.1174e+02	-4.7533	-28.397213	0.000659	6.588579	2.232271	-0.000264
1125	1.1184e+02	-4.7934	-28.659627	0.000659	6.588579	2.232271	-0.000264
1126	1.1194e+02	-4.8303	-28.930115	0.000679	6.791304	2.300956	-0.000272
1127	1.1204e+02	-4.8608	-29.127934	0.000497	4.966775	1.682789	-0.000199
1128	1.1214e+02	-4.9009	-29.374200	0.000618	6.183128	2.094900	-0.000248
1129	1.1224e+02	-4.9458	-29.616428	0.000608	6.081765	2.060558	-0.000243
1130	1.1234e+02	-4.9715	-29.858656	0.000608	6.081765	2.060558	-0.000243
1131	1.1244e+02	-5.0309	-30.104921	0.000618	6.183128	2.094900	-0.000248
1132	1.1253e+02	-5.0678	-30.351186	0.000618	6.183128	2.094900	-0.000248
1133	1.1263e+02	-5.1111	-30.621675	0.000679	6.791304	2.300956	-0.000272
1134	1.1273e+02	-5.1351	-30.827568	0.000517	5.169500	1.751474	-0.000207
1135	1.1283e+02	-5.1849	-31.085945	0.000649	6.487216	2.197928	-0.000260
1136	1.1293e+02	-5.2314	-31.312025	0.000568	5.676314	1.923187	-0.000227
1137	1.1303e+02	-5.2747	-31.550216	0.000598	5.980402	2.026215	-0.000239
1138	1.1313e+02	-5.3036	-31.808592	0.000649	6.487216	2.197928	-0.000260
1139	1.1323e+02	-5.3421	-32.054858	0.000618	6.183128	2.094900	-0.000248
1140	1.1333e+02	-5.3822	-32.329383	0.000689	6.892667	2.335299	-0.000276
1141	1.1343e+02	-5.4271	-32.559500	0.000578	5.777677	1.957530	-0.000231
1142	1.1353e+02	-5.4672	-32.761357	0.000507	5.068137	1.717131	-0.000203
1143	1.1363e+02	-5.5073	-33.043956	0.000710	7.095392	2.403984	-0.000284
1144	1.1373e+02	-5.5426	-33.286184	0.000608	6.081765	2.060558	-0.000243
1145	1.1383e+02	-5.5972	-33.496115	0.000527	5.270863	1.785817	-0.000211
1146	1.1393e+02	-5.6148	-33.786789	0.000730	7.298118	2.472669	-0.000292
1147	1.1403e+02	-5.6581	-34.004794	0.000547	5.473588	1.854502	-0.000219
1148	1.1413e+02	-5.7095	-34.218763	0.000537	5.372226	1.820159	-0.000215
1149	1.1423e+02	-5.7448	-34.521548	0.000760	7.602206	2.575697	-0.000304
1150	1.1433e+02	-5.7720	-34.723404	0.000507	5.068137	1.717131	-0.000203
1151	1.1442e+02	-5.8250	-34.949484	0.000568	5.676314	1.923187	-0.000227
1152	1.1452e+02	-5.8619	-35.171527	0.000557	5.574951	1.888845	-0.000223
1153	1.1462e+02	-5.9052	-35.454126	0.000710	7.095392	2.403984	-0.000284
1154	1.1472e+02	-5.9421	-35.676169	0.000557	5.574951	1.888845	-0.000223
1155	1.1482e+02	-5.9726	-35.922434	0.000618	6.183128	2.094900	-0.000248
1156	1.1492e+02	-6.0079	-36.140439	0.000547	5.473588	1.854502	-0.000219
1157	1.1502e+02	-6.0576	-36.398816	0.000649	6.487216	2.197928	-0.000260
1158	1.1512e+02	-6.0961	-36.624895	0.000568	5.676314	1.923187	-0.000227
1159	1.1522e+02	-6.1346	-36.863086	0.000598	5.980402	2.026215	-0.000239
1160	1.1532e+02	-6.1843	-37.133575	0.000679	6.791304	2.300956	-0.000272
1161	1.1542e+02	-6.2276	-37.351580	0.000547	5.473588	1.854502	-0.000219
1162	1.1552e+02	-6.2597	-37.577659	0.000568	5.676314	1.923187	-0.000227
1163	1.1562e+02	-6.3030	-37.811813	0.000588	5.879039	1.991872	-0.000235
1164	1.1572e+02	-6.3351	-38.058079	0.000618	6.183128	2.094900	-0.000248
1165	1.1582e+02	-6.3832	-38.276084	0.000547	5.473588	1.854502	-0.000219
1166	1.1592e+02	-6.4266	-38.534461	0.000649	6.487216	2.197928	-0.000260
1167	1.1602e+02	-6.4635	-38.740355	0.000517	5.169500	1.751474	-0.000207
1168	1.1612e+02	-6.5052	-39.014880	0.000689	6.892667	2.335299	-0.000276
1169	1.1622e+02	-6.5260	-39.220774	0.000517	5.169500	1.751474	-0.000207
1170	1.1632e+02	-6.5693	-39.463002	0.000608	6.081765	2.060558	-0.000243
1171	1.1642e+02	-6.6175	-39.689081	0.000568	5.676314	1.923187	-0.000227
1172	1.1651e+02	-6.6624	-39.935347	0.000618	6.183128	2.094900	-0.000248
1173	1.1661e+02	-6.6848	-40.137204	0.000507	5.068137	1.717131	-0.000203
1174	1.1671e+02	-6.7362	-40.395580	0.000649	6.487216	2.197928	-0.000260
1175	1.1681e+02	-6.7763	-40.649920	0.000639	6.385853	2.163586	-0.000256
1176	1.1691e+02	-6.8164	-40.904259	0.000639	6.385853	2.163586	-0.000256
1177	1.1701e+02	-6.8501	-41.118227	0.000537	5.372226	1.820159	-0.000215
1178	1.1711e+02	-6.8918	-41.336233	0.000547	5.473588	1.854502	-0.000219
1179	1.1721e+02	-6.9271	-41.550201	0.000537	5.372226	1.820159	-0.000215
1180	1.1731e+02	-6.9720	-41.852986	0.000760	7.602206	2.575697	-0.000304
1181	1.1741e+02	-7.0201	-42.062917	0.000527	5.270863	1.785817	-0.000211
1182	1.1751e+02	-7.0538	-42.321294	0.000649	6.487216	2.197928	-0.000260
1183	1.1761e+02	-7.0923	-42.507002	0.000466	4.662686	1.579761	-0.000187
1184	1.1771e+02	-7.1372	-42.781527	0.000689	6.892667	2.335299	-0.000276
1185	1.1781e+02	-7.1757	-42.995496	0.000537	5.372226	1.820159	-0.000215
1186	1.1791e+02	-7.2094	-43.245798	0.000628	6.284490	2.129243	-0.000252
1187	1.1801e+02	-7.2624	-43.475915	0.000578	5.777677	1.957530	-0.000231
1188	1.1811e+02	-7.2896	-43.697957	0.000557	5.574951	1.888845	-0.000223
1189	1.1821e+02	-7.3346	-43.960371	0.000659	6.588579	2.232271	-0.000264
1190	1.1831e+02	-7.3602	-44.182414	0.000557	5.574951	1.888845	-0.000223
1191	1.1841e+02	-7.4100	-44.408493	0.000568	5.676314	1.923187	-0.000227
1192	1.1850e+02	-7.4501	-44.654758	0.000618	6.183128	2.094900	-0.000248
1193	1.1860e+02	-7.4998	-44.856615	0.000507	5.068137	1.717131	-0.000203
1194	1.1870e+02	-7.5271	-45.123066	0.000669	6.689941	2.266613	-0.000268
1195	1.1880e+02	-7.5736	-45.357220	0.000588	5.879039	1.991872	-0.000235
1196	1.1890e+02	-7.6153	-45.603485	0.000618	6.183128	2.094900	-0.000248
1197	1.1900e+02	-7.6522	-45.817453	0.000537	5.372226	1.820159	-0.000215
1198	1.1910e+02	-7.6859	-46.019310	0.000507	5.068137	1.717131	-0.000203
1199	1.1920e+02	-7.7212	-46.305947	0.000720	7.196755	2.438327	-0.000288
1200	1.1930e+02	-7.7693	-46.527989	0.000557	5.574951	1.888845	-0.000223
1201	1.1940e+02	-7.8174	-46.778292	0.000628	6.284490	2.129243	-0.000252
1202	1.1950e+02	-7.8463	-46.980149	0.000507	5.068137	1.717131	-0.000203
1203	1.1960e+02	-7.8912	-47.214302	0.000588	5.879039	1.991872	-0.000235
1204	1.1970e+02	-7.9265	-47.444419	0.000578	5.777677	1.957530	-0.000231
1205	1.1980e+02	-7.9778	-47.682610	0.000598	5.980402	2.026215	-0.000239
1206	1.1990e+02	-8.0099	-47.928875	0.000618	6.183128	2.094900	-0.000248
1207	1.2000e+02	-8.0532	-48.130732	0.000507	5.068137	1.717131	-0.000203
1208	1.2010e+02	-8.0934	-48.376998	0.000618	6.183128	2.094900	-0.000248
1209	1.2020e+02	-8.1286	-48.615189	0.000598	5.980402	2.026215	-0.000239
1210	1.2030e+02	-8.1736	-48.845305	0.000578	5.777677	1.957530	-0.000231
1211	1.2039e+02	-8.2105	-49.103682	0.000649	6.487216	2.197928	-0.000260
1212	1.2049e+02	-8.2570	-49.277279	0.000436	4.358598	1.476733	-0.000174
1213	1.2059e+02	-8.2875	-49.535656	0.000649	6.487216	2.197928	-0.000260
1214	1.2069e+02	-8.3308	-49.761735	0.000568	5.676314	1.923187	-0.000227
1215	1.2079e+02	-8.3741	-49.999926	0.000598	5.980402	2.026215	-0.000239
1216	1.2089e+02	-8.4110	-50.250229	0.000628	6.284490	2.129243	-0.000252
1217	1.2099e+02	-8.4447	-50.480345	0.000578	5.777677	1.957530	-0.000231
1218	1.2109e+02	-8.4912	-50.698351	0.000547	5.473588	1.854502	-0.000219
1219	1.2119e+02	-8.5313	-50.956727	0.000649	6.487216	2.197928	-0.000260
1220	1.2129e+02	-8.5602	-51.182807	0.000568	5.676314	1.923187	-0.000227
1221	1.2139e+02	-8.6083	-51.388701	0.000517	5.169500	1.751474	-0.000207
1222	1.2149e+02	-8.6500	-51.647077	0.000649	6.487216	2.197928	-0.000260
1223	1.2159e+02	-8.6869	-51.869120	0.000557	5.574951	1.888845	-0.000223
1224	1.2169e+02	-8.7302	-52.075014	0.000517	5.169500	1.751474	-0.000207
1225	1.2179e+02	-8.7671	-52.325316	0.000628	6.284490	2.129243	-0.000252
1226	1.2189e+02	-8.8024	-52.583693	0.000649	6.487216	2.197928	-0.000260
1227	1.2199e+02	-8.8425	-52.805735	0.000557	5.574951	1.888845	-0.000223
1228	1.2209e+02	-8.8826	-53.027778	0.000557	5.574951	1.888845	-0.000223
1229	1.2219e+02	-8.9243	-53.274043	0.000618	6.183128	2.094900	-0.000248
1230	1.2229e+02	-8.9612	-53.483974	0.000527	5.270863	1.785817	-0.000211
1231	1.2239e+02	-9.0094	-53.738314	0.000639	6.385853	2.163586	-0.000256
1232	1.2248e+02	-9.0495	-53.972468	0.000588	5.879039	1.991872	-0.000235
1233	1.2258e+02	-9.0832	-54.226807	0.000639	6.385853	2.163586	-0.000256
1234	1.2268e+02	-9.1345	-54.408478	0.000456	4.561324	1.545418	-0.000183
1235	1.2278e+02	-9.1698	-54.691078	0.000710	7.095392	2.403984	-0.000284
1236	1.2288e+02	-9.2051	-54.884860	0.000487	4.865412	1.648446	-0.000195
1237	1.2298e+02	-9.2484	-55.127089	0.000608	6.081765	2.060558	-0.000243
1238	1.2308e+02	-9.2869	-55.353168	0.000568	5.676314	1.923187	-0.000227
1239	1.2318e+02	-9.3190	-55.579248	0.000568	5.676314	1.923187	-0.000227
1240	1.2328e+02	-9.3607	-55.817439	0.000598	5.980402	2.026215	-0.000239
1241	1.2338e+02	-9.4120	-56.067741	0.000628	6.284490	2.129243	-0.000252
1242	1.2348e+02	-9.4473	-56.305932	0.000598	5.980402	2.026215	-0.000239
1243	1.2358e+02	-9.4746	-56.544123	0.000598	5.980402	2.026215	-0.000239
1244	1.2368e+02	-9.5211	-56.745980	0.000507	5.068137	1.717131	-0.000203
1245	1.2378e+02	-9.5676	-56.968022	0.000557	5.574951	1.888845	-0.000223
1246	1.2388e+02	-9.5949	-57.226399	0.000649	6.487216	2.197928	-0.000260
1247	1.2398e+02	-9.6382	-57.424219	0.000497	4.966775	1.682789	-0.000199
1248	1.2408e+02	-9.6767	-57.658373	0.000588	5.879039	1.991872	-0.000235
1249	1.2418e+02	-9.7217	-57.900601	0.000608	6.081765	2.060558	-0.000243
1250	1.2428e+02	-9.7634	-58.130717	0.000578	5.777677	1.957530	-0.000231
1251	1.2438e+02	-9.7954	-58.348723	0.000547	5.473588	1.854502	-0.000219
1252	1.2447e+02	-9.8468	-58.578840	0.000578	5.777677	1.957530	-0.000231
1253	1.2457e+02	-9.8853	-58.808956	0.000578	5.777677	1.957530	-0.000231
1254	1.2467e+02	-9.9206	-59.014850	0.000517	5.169500	1.751474	-0.000207
1255	1.2477e+02	-9.9655	-59.289375	0.000689	6.892667	2.335299	-0.000276
1256	1.2487e+02	-9.9992	-59.462972	0.000436	4.358598	1.476733	-0.000174
1257	1.2497e+02	-10.0425	-59.745572	0.000710	7.095392	2.403984	-0.000284
1258	1.2507e+02	-10.0730	-59.991837	0.000618	6.183128	2.094900	-0.000248
1259	1.2517e+02	-10.1259	-60.193694	0.000507	5.068137	1.717131	-0.000203
1260	1.2527e+02	-10.1628	-60.439959	0.000618	6.183128	2.094900	-0.000248
1261	1.2537e+02	-10.2077	-60.641816	0.000507	5.068137	1.717131	-0.000203
1262	1.2547e+02	-10.2318	-60.851747	0.000527	5.270863	1.785817	-0.000211
1263	1.2557e+02	-10.2815	-61.118198	0.000669	6.689941	2.266613	-0.000268
1264	1.2567e+02	-10.3232	-61.344278	0.000568	5.676314	1.923187	-0.000227
1265	1.2577e+02	-10.3537	-61.517874	0.000436	4.358598	1.476733	-0.000174
1266	1.2587e+02	-10.4083	-61.752028	0.000588	5.879039	1.991872	-0.000235
1267	1.2597e+02	-10.4371	-62.006368	0.000639	6.385853	2.163586	-0.000256
1268	1.2607e+02	-10.4837	-62.240522	0.000588	5.879039	1.991872	-0.000235
1269	1.2617e+02	-10.5190	-62.438341	0.000497	4.966775	1.682789	-0.000199
1270	1.2627e+02	-10.5607	-62.656347	0.000547	5.473588	1.854502	-0.000219
1271	1.2636e+02	-10.6040	-62.898575	0.000608	6.081765	2.060558	-0.000243
1272	1.2646e+02	-10.6489	-63.108506	0.000527	5.270863	1.785817	-0.000211
1273	1.2656e+02	-10.6858	-63.391105	0.000710	7.095392	2.403984	-0.000284
1274	1.2666e+02	-10.7163	-63.572776	0.000456	4.561324	1.545418	-0.000183
1275	1.2676e+02	-10.7660	-63.847302	0.000689	6.892667	2.335299	-0.000276
1276	1.2686e+02	-10.8029	-64.065307	0.000547	5.473588	1.854502	-0.000219
1277	1.2696e+02	-10.8414	-64.275238	0.000527	5.270863	1.785817	-0.000211
1278	1.2706e+02	-10.8783	-64.497281	0.000557	5.574951	1.888845	-0.000223
1279	1.2716e+02	-10.9168	-64.723360	0.000568	5.676314	1.923187	-0.000227
1280	1.2726e+02	-10.9601	-64.945403	0.000557	5.574951	1.888845	-0.000223
1281	1.2736e+02	-11.0066	-65.175519	0.000578	5.777677	1.957530	-0.000231
1282	1.2746e+02	-11.0387	-65.385450	0.000527	5.270863	1.785817	-0.000211
1283	1.2756e+02	-11.0772	-65.607493	0.000557	5.574951	1.888845	-0.000223
1284	1.2766e+02	-11.1221	-65.817424	0.000527	5.270863	1.785817	-0.000211
1285	1.2776e+02	-11.1526	-66.095986	0.000699	6.994030	2.369641	-0.000280
1286	1.2786e+02	-11.1959	-66.273620	0.000446	4.459961	1.511076	-0.000179
1287	1.2796e+02	-11.2312	-66.507774	0.000588	5.879039	1.991872	-0.000235
1288	1.2806e+02	-11.2729	-66.750002	0.000608	6.081765	2.060558	-0.000243
1289	1.2816e+02	-11.3211	-66.959933	0.000527	5.270863	1.785817	-0.000211
1290	1.2826e+02	-11.3516	-67.222347	0.000659	6.588579	2.232271	-0.000264
1291	1.2835e+02	-11.4077	-67.391907	0.000426	4.257235	1.442390	-0.000170
1292	1.2845e+02	-11.4253	-67.609912	0.000547	5.473588	1.854502	-0.000219
1293	1.2855e+02	-11.4847	-67.868289	0.000649	6.487216	2.197928	-0.000260
1294	1.2865e+02	-11.5072	-68.074183	0.000517	5.169500	1.751474	-0.000207
1295	1.2875e+02	-11.5553	-68.243743	0.000426	4.257235	1.442390	-0.000170
1296	1.2885e+02	-11.5986	-68.469822	0.000568	5.676314	1.923187	-0.000227
1297	1.2895e+02	-11.6435	-68.748384	0.000699	6.994030	2.369641	-0.000280
1298	1.2905e+02	-11.6772	-68.970427	0.000557	5.574951	1.888845	-0.000223
1299	1.2915e+02	-11.7125	-69.200544	0.000578	5.777677	1.957530	-0.000231
1300	1.2925e+02	-11.7542	-69.414512	0.000537	5.372226	1.820159	-0.000215
1301	1.2935e+02	-11.7959	-69.608294	0.000487	4.865412	1.648446	-0.000195
1302	1.2945e+02	-11.8376	-69.842448	0.000588	5.879039	1.991872	-0.000235
1303	1.2955e+02	-11.8809	-70.040268	0.000497	4.966775	1.682789	-0.000199
1304	1.2965e+02	-11.9034	-70.262310	0.000557	5.574951	1.888845	-0.000223
1305	1.2975e+02	-11.9563	-70.500501	0.000598	5.980402	2.026215	-0.000239
1306	1.2985e+02	-11.9965	-70.706395	0.000517	5.169500	1.751474	-0.000207
1307	1.2995e+02	-12.0334	-70.904215	0.000497	4.966775	1.682789	-0.000199
1308	1.3005e+02	-12.0815	-71.178740	0.000689	6.892667	2.335299	-0.000276
1309	1.3015e+02	-12.1200	-71.352337	0.000436	4.358598	1.476733	-0.000174
1310	1.3025e+02	-12.1537	-71.582454	0.000578	5.777677	1.957530	-0.000231
1311	1.3034e+02	-12.1954	-71.812571	0.000578	5.777677	1.957530	-0.000231
1312	1.3044e+02	-12.2323	-72.018464	0.000517	5.169500	1.751474	-0.000207
1313	1.3054e+02	-12.2708	-72.228395	0.000527	5.270863	1.785817	-0.000211
1314	1.3064e+02	-12.3125	-72.470624	0.000608	6.081765	2.060558	-0.000243
1315	1.3074e+02	-12.3606	-72.700740	0.000578	5.777677	1.957530	-0.000231
1316	1.3084e+02	-12.3943	-72.914709	0.000537	5.372226	1.820159	-0.000215
1317	1.3094e+02	-12.4360	-73.124640	0.000527	5.270863	1.785817	-0.000211
1318	1.3104e+02	-12.4825	-73.326496	0.000507	5.068137	1.717131	-0.000203
1319	1.3114e+02	-12.5178	-73.532390	0.000517	5.169500	1.751474	-0.000207
1320	1.3124e+02	-12.5451	-73.750396	0.000547	5.473588	1.854502	-0.000219
1321	1.3134e+02	-12.5964	-73.948215	0.000497	4.966775	1.682789	-0.000199
1322	1.3144e+02	-12.6365	-74.178332	0.000578	5.777677	1.957530	-0.000231
1323	1.3154e+02	-12.6750	-74.408449	0.000578	5.777677	1.957530	-0.000231
1324	1.3164e+02	-12.7135	-74.610306	0.000507	5.068137	1.717131	-0.000203
1325	1.3174e+02	-12.7585	-74.868682	0.000649	6.487216	2.197928	-0.000260
1326	1.3184e+02	-12.7922	-75.054391	0.000466	4.662686	1.579761	-0.000187
1327	1.3194e+02	-12.8274	-75.232024	0.000446	4.459961	1.511076	-0.000179
1328	1.3204e+02	-12.8659	-75.454067	0.000557	5.574951	1.888845	-0.000223
1329	1.3214e+02	-12.9028	-75.659961	0.000517	5.169500	1.751474	-0.000207
1330	1.3224e+02	-12.9381	-75.914300	0.000639	6.385853	2.163586	-0.000256
1331	1.3234e+02	-12.9847	-76.067712	0.000385	3.851784	1.305020	-0.000154
1332	1.3243e+02	-13.0424	-76.334163	0.000669	6.689941	2.266613	-0.000268
1333	1.3253e+02	-13.0729	-76.511797	0.000446	4.459961	1.511076	-0.000179
1334	1.3263e+02	-13.1114	-76.705579	0.000487	4.865412	1.648446	-0.000195
1335	1.3273e+02	-13.1595	-76.963956	0.000649	6.487216	2.197928	-0.000260
1336	1.3283e+02	-13.1884	-77.161775	0.000497	4.966775	1.682789	-0.000199
1337	1.3293e+02	-13.2333	-77.395929	0.000588	5.879039	1.991872	-0.000235
1338	1.3303e+02	-13.2686	-77.597786	0.000507	5.068137	1.717131	-0.000203
1339	1.3313e+02	-13.3135	-77.823866	0.000568	5.676314	1.923187	-0.000227
1340	1.3323e+02	-13.3440	-77.985351	0.000405	4.054510	1.373705	-0.000162
1341	1.3333e+02	-13.3937	-78.243728	0.000649	6.487216	2.197928	-0.000260
1342	1.3343e+02	-13.4322	-78.405213	0.000405	4.054510	1.373705	-0.000162
1343	1.3353e+02	-13.4659	-78.651478	0.000618	6.183128	2.094900	-0.000248
1344	1.3363e+02	-13.5012	-78.877558	0.000568	5.676314	1.923187	-0.000227
1345	1.3373e+02	-13.5429	-79.075378	0.000497	4.966775	1.682789	-0.000199
1346	1.3383e+02	-13.5959	-79.240900	0.000416	4.155873	1.408048	-0.000166
1347	1.3393e+02	-13.6296	-79.507351	0.000669	6.689941	2.266613	-0.000268
1348	1.3403e+02	-13.6681	-79.721319	0.000537	5.372226	1.820159	-0.000215
1349	1.3413e+02	-13.7066	-79.959510	0.000598	5.980402	2.026215	-0.000239
1350	1.3423e+02	-13.7403	-80.133107	0.000436	4.358598	1.476733	-0.000174
1351	1.3432e+02	-13.7739	-80.343038	0.000527	5.270863	1.785817	-0.000211
1352	1.3442e+02	-13.8253	-80.577192	0.000588	5.879039	1.991872	-0.000235
1353	1.3452e+02	-13.8718	-80.787123	0.000527	5.270863	1.785817	-0.000211
1354	1.3462e+02	-13.9087	-80.988980	0.000507	5.068137	1.717131	-0.000203
1355	1.3472e+02	-13.9504	-81.194874	0.000517	5.169500	1.751474	-0.000207
1356	1.3482e+02	-13.9889	-81.388656	0.000487	4.865412	1.648446	-0.000195
1357	1.3492e+02	-14.0274	-81.594550	0.000517	5.169500	1.751474	-0.000207
1358	1.3502e+02	-14.0627	-81.824667	0.000578	5.777677	1.957530	-0.000231
1359	1.3512e+02	-14.0996	-82.046710	0.000557	5.574951	1.888845	-0.000223
1360	1.3522e+02	-14.1397	-82.212232	0.000416	4.155873	1.408048	-0.000166
1361	1.3532e+02	-14.1846	-82.442349	0.000578	5.777677	1.957530	-0.000231
1362	1.3542e+02	-14.2279	-82.688614	0.000618	6.183128	2.094900	-0.000248
1363	1.3552e+02	-14.2568	-82.882397	0.000487	4.865412	1.648446	-0.000195
1364	1.3562e+02	-14.3001	-83.104439	0.000557	5.574951	1.888845	-0.000223
1365	1.3572e+02	-14.3515	-83.282073	0.000446	4.459961	1.511076	-0.000179
1366	1.3582e+02	-14.3852	-83.516227	0.000588	5.879039	1.991872	-0.000235
1367	1.3592e+02	-14.4221	-83.730195	0.000537	5.372226	1.820159	-0.000215
1368	1.3602e+02	-14.4654	-83.972423	0.000608	6.081765	2.060558	-0.000243
1369	1.3612e+02	-14.5007	-84.137946	0.000416	4.155873	1.408048	-0.000166
1370	1.3622e+02	-14.5392	-84.351914	0.000537	5.372226	1.820159	-0.000215
1371	1.3631e+02	-14.5825	-84.590105	0.000598	5.980402	2.026215	-0.000239
1372	1.3641e+02	-14.6210	-84.808110	0.000547	5.473588	1.854502	-0.000219
1373	1.3651e+02	-14.6595	-84.953447	0.000365	3.649059	1.236335	-0.000146
1374	1.3661e+02	-14.6964	-85.183564	0.000578	5.777677	1.957530	-0.000231
1375	1.3671e+02	-14.7397	-85.397532	0.000537	5.372226	1.820159	-0.000215
1376	1.3681e+02	-14.7798	-85.599389	0.000507	5.068137	1.717131	-0.000203
1377	1.3691e+02	-14.8263	-85.829506	0.000578	5.777677	1.957530	-0.000231
1378	1.3701e+02	-14.8648	-86.023288	0.000487	4.865412	1.648446	-0.000195
1379	1.3711e+02	-14.8969	-86.204959	0.000456	4.561324	1.545418	-0.000183
1380	1.3721e+02	-14.9498	-86.410853	0.000517	5.169500	1.751474	-0.000207
1381	1.3731e+02	-14.9900	-86.657119	0.000618	6.183128	2.094900	-0.000248
1382	1.3741e+02	-15.0156	-86.867050	0.000527	5.270863	1.785817	-0.000211
1383	1.3751e+02	-15.0605	-87.081018	0.000537	5.372226	1.820159	-0.000215
1384	1.3761e+02	-15.0958	-87.299023	0.000547	5.473588	1.854502	-0.000219
1385	1.3771e+02	-15.1375	-87.492806	0.000487	4.865412	1.648446	-0.000195
1386	1.3781e+02	-15.1825	-87.751182	0.000649	6.487216	2.197928	-0.000260
1387	1.3791e+02	-15.2274	-87.868259	0.000294	2.939520	0.995936	-0.000118
1388	1.3801e+02	-15.2546	-88.126636	0.000649	6.487216	2.197928	-0.000260
1389	1.3811e+02	-15.3060	-88.356753	0.000578	5.777677	1.957530	-0.000231
1390	1.3821e+02	-15.3397	-88.534387	0.000446	4.459961	1.511076	-0.000179
1391	1.3831e+02	-15.3814	-88.768541	0.000588	5.879039	1.991872	-0.000235
1392	1.3840e+02	-15.4183	-88.966360	0.000497	4.966775	1.682789	-0.000199
1393	1.3850e+02	-15.4664	-89.192440	0.000568	5.676314	1.923187	-0.000227
1394	1.3860e+02	-15.4969	-89.418519	0.000568	5.676314	1.923187	-0.000227
1395	1.3870e+02	-15.5402	-89.588079	0.000426	4.257235	1.442390	-0.000170
1396	1.3880e+02	-15.5771	-89.818196	0.000578	5.777677	1.957530	-0.000231
1397	1.3890e+02	-15.6108	-89.991793	0.000436	4.358598	1.476733	-0.000174
1398	1.3900e+02	-15.6589	-90.177501	0.000466	4.662686	1.579761	-0.000187
1399	1.3910e+02	-15.6974	-90.435878	0.000649	6.487216	2.197928	-0.000260
1400	1.3920e+02	-15.7407	-90.661957	0.000568	5.676314	1.923187	-0.000227
1401	1.3930e+02	-15.7744	-90.843628	0.000456	4.561324	1.545418	-0.000183
1402	1.3940e+02	-15.8113	-91.077782	0.000588	5.879039	1.991872	-0.000235
1403	1.3950e+02	-15.8627	-91.295788	0.000547	5.473588	1.854502	-0.000219
1404	1.3960e+02	-15.9044	-91.501682	0.000517	5.169500	1.751474	-0.000207
1405	1.3970e+02	-15.9525	-91.703538	0.000507	5.068137	1.717131	-0.000203
1406	1.3980e+02	-15.9798	-91.885209	0.000456	4.561324	1.545418	-0.000183
1407	1.3990e+02	-16.0215	-92.099178	0.000537	5.372226	1.820159	-0.000215
1408	1.4000e+02	-16.0552	-92.309109	0.000527	5.270863	1.785817	-0.000211
1409	1.4010e+02	-16.1001	-92.543263	0.000588	5.879039	1.991872	-0.000235
1410	1.4020e+02	-16.1450	-92.753194	0.000527	5.270863	1.785817	-0.000211
1411	1.4029e+02	-16.1803	-92.951013	0.000497	4.966775	1.682789	-0.000199
1412	1.4039e+02	-16.2204	-93.169019	0.000547	5.473588	1.854502	-0.000219
1413	1.4049e+02	-16.2589	-93.382987	0.000537	5.372226	1.820159	-0.000215
1414	1.4059e+02	-16.3022	-93.584844	0.000507	5.068137	1.717131	-0.000203
1415	1.4069e+02	-16.3471	-93.790737	0.000517	5.169500	1.751474	-0.000207
1416	1.4079e+02	-16.3776	-94.024891	0.000588	5.879039	1.991872	-0.000235
1417	1.4089e+02	-16.4097	-94.190414	0.000416	4.155873	1.408048	-0.000166
1418	1.4099e+02	-16.4594	-94.428605	0.000598	5.980402	2.026215	-0.000239
1419	1.4109e+02	-16.5011	-94.618350	0.000476	4.764049	1.614104	-0.000191
1420	1.4119e+02	-16.5412	-94.856541	0.000598	5.980402	2.026215	-0.000239
1421	1.4129e+02	-16.5685	-95.013990	0.000395	3.953147	1.339363	-0.000158
1422	1.4139e+02	-16.6182	-95.300626	0.000720	7.196755	2.438327	-0.000288
1423	1.4149e+02	-16.6551	-95.470186	0.000426	4.257235	1.442390	-0.000170
1424	1.4159e+02	-16.7001	-95.704340	0.000588	5.879039	1.991872	-0.000235
1425	1.4169e+02	-16.7338	-95.881974	0.000446	4.459961	1.511076	-0.000179
1426	1.4179e+02	-16.7674	-96.083831	0.000507	5.068137	1.717131	-0.000203
1427	1.4189e+02	-16.8059	-96.265502	0.000456	4.561324	1.545418	-0.000183
1428	1.4199e+02	-16.8509	-96.511767	0.000618	6.183128	2.094900	-0.000248
1429	1.4209e+02	-16.8974	-96.741884	0.000578	5.777677	1.957530	-0.000231
1430	1.4219e+02	-16.9359	-96.931629	0.000476	4.764049	1.614104	-0.000191
1431	1.4228e+02	-16.9760	-97.145597	0.000537	5.372226	1.820159	-0.000215
1432	1.4238e+02	-17.0145	-97.335343	0.000476	4.764049	1.614104	-0.000191
1433	1.4248e+02	-17.0514	-97.537199	0.000507	5.068137	1.717131	-0.000203
1434	1.4258e+02	-17.0947	-97.771353	0.000588	5.879039	1.991872	-0.000235
1435	1.4268e+02	-17.1316	-98.001470	0.000578	5.777677	1.957530	-0.000231
1436	1.4278e+02	-17.1781	-98.191215	0.000476	4.764049	1.614104	-0.000191
1437	1.4288e+02	-17.2102	-98.368849	0.000446	4.459961	1.511076	-0.000179
1438	1.4298e+02	-17.2487	-98.623189	0.000639	6.385853	2.163586	-0.000256
1439	1.4308e+02	-17.2888	-98.833120	0.000527	5.270863	1.785817	-0.000211
1440	1.4318e+02	-17.3353	-99.022865	0.000476	4.764049	1.614104	-0.000191
1441	1.4328e+02	-17.3706	-99.224722	0.000507	5.068137	1.717131	-0.000203
1442	1.4338e+02	-17.4139	-99.426579	0.000507	5.068137	1.717131	-0.000203
1443	1.4348e+02	-17.4492	-99.660733	0.000588	5.879039	1.991872	-0.000235
1444	1.4358e+02	-17.4958	-99.886812	0.000568	5.676314	1.923187	-0.000227
1445	1.4368e+02	-17.5359	-100.096743	0.000527	5.270863	1.785817	-0.000211
1446	1.4378e+02	-17.5647	-100.310712	0.000537	5.372226	1.820159	-0.000215
1447	1.4388e+02	-17.6097	-100.512568	0.000507	5.068137	1.717131	-0.000203
1448	1.4398e+02	-17.6498	-100.698277	0.000466	4.662686	1.579761	-0.000187
1449	1.4408e+02	-17.7043	-100.912245	0.000537	5.372226	1.820159	-0.000215
1450	1.4418e+02	-17.7284	-101.186770	0.000689	6.892667	2.335299	-0.000276
1451	1.4428e+02	-17.7765	-101.384590	0.000497	4.966775	1.682789	-0.000199
1452	1.4437e+02	-17.8150	-101.598558	0.000537	5.372226	1.820159	-0.000215
1453	1.4447e+02	-17.8519	-101.824638	0.000568	5.676314	1.923187	-0.000227
1454	1.4457e+02	-17.8952	-102.034569	0.000527	5.270863	1.785817	-0.000211
1455	1.4467e+02	-17.9369	-102.264685	0.000578	5.777677	1.957530	-0.000231
1456	1.4477e+02	-17.9706	-102.482691	0.000547	5.473588	1.854502	-0.000219
1457	1.4487e+02	-18.0139	-102.712807	0.000578	5.777677	1.957530	-0.000231
1458	1.4497e+02	-18.0492	-102.942924	0.000578	5.777677	1.957530	-0.000231
1459	1.4507e+02	-18.0909	-103.152855	0.000527	5.270863	1.785817	-0.000211
1460	1.4517e+02	-18.1262	-103.407195	0.000639	6.385853	2.163586	-0.000256
1461	1.4527e+02	-18.1679	-103.609052	0.000507	5.068137	1.717131	-0.000203
1462	1.4537e+02	-18.2048	-103.887614	0.000699	6.994030	2.369641	-0.000280
1463	1.4547e+02	-18.2465	-104.004691	0.000294	2.939520	0.995936	-0.000118
1464	1.4557e+02	-18.2850	-104.250956	0.000618	6.183128	2.094900	-0.000248
1465	1.4567e+02	-18.3268	-104.509333	0.000649	6.487216	2.197928	-0.000260
1466	1.4577e+02	-18.3701	-104.723301	0.000537	5.372226	1.820159	-0.000215
1467	1.4587e+02	-18.4054	-104.973603	0.000628	6.284490	2.129243	-0.000252
1468	1.4597e+02	-18.4487	-105.175460	0.000507	5.068137	1.717131	-0.000203
1469	1.4607e+02	-18.4840	-105.421726	0.000618	6.183128	2.094900	-0.000248
1470	1.4617e+02	-18.5225	-105.655879	0.000588	5.879039	1.991872	-0.000235
1471	1.4626e+02	-18.5642	-105.902145	0.000618	6.183128	2.094900	-0.000248
1472	1.4636e+02	-18.6075	-106.132261	0.000578	5.777677	1.957530	-0.000231
1473	1.4646e+02	-18.6508	-106.374490	0.000608	6.081765	2.060558	-0.000243
1474	1.4656e+02	-18.6861	-106.612681	0.000598	5.980402	2.026215	-0.000239
1475	1.4666e+02	-18.7294	-106.871057	0.000649	6.487216	2.197928	-0.000260
1476	1.4676e+02	-18.7567	-107.089063	0.000547	5.473588	1.854502	-0.000219
1477	1.4686e+02	-18.8080	-107.323216	0.000588	5.879039	1.991872	-0.000235
1478	1.4696e+02	-18.8578	-107.605816	0.000710	7.095392	2.403984	-0.000284
1479	1.4706e+02	-18.8963	-107.860156	0.000639	6.385853	2.163586	-0.000256
1480	1.4716e+02	-18.9235	-108.110458	0.000628	6.284490	2.129243	-0.000252
1481	1.4726e+02	-18.9684	-108.344612	0.000588	5.879039	1.991872	-0.000235
1482	1.4736e+02	-19.0037	-108.602988	0.000649	6.487216	2.197928	-0.000260
1483	1.4746e+02	-19.0471	-108.853291	0.000628	6.284490	2.129243	-0.000252
1484	1.4756e+02	-19.0936	-109.071296	0.000547	5.473588	1.854502	-0.000219
1485	1.4766e+02	-19.1241	-109.329673	0.000649	6.487216	2.197928	-0.000260
1486	1.4776e+02	-19.1577	-109.608235	0.000699	6.994030	2.369641	-0.000280
1487	1.4786e+02	-19.2123	-109.858538	0.000628	6.284490	2.129243	-0.000252
1488	1.4796e+02	-19.2444	-110.149211	0.000730	7.298118	2.472669	-0.000292
1489	1.4806e+02	-19.2829	-110.423737	0.000689	6.892667	2.335299	-0.000276
1490	1.4816e+02	-19.3326	-110.670002	0.000618	6.183128	2.094900	-0.000248
1491	1.4825e+02	-19.3711	-110.940490	0.000679	6.791304	2.300956	-0.000272
1492	1.4835e+02	-19.4048	-111.243275	0.000760	7.602206	2.575697	-0.000304
1493	1.4845e+02	-19.4449	-111.477429	0.000588	5.879039	1.991872	-0.000235
1494	1.4855e+02	-19.4754	-111.731769	0.000639	6.385853	2.163586	-0.000256
1495	1.4865e+02	-19.5203	-111.998220	0.000669	6.689941	2.266613	-0.000268
1496	1.4875e+02	-19.5668	-112.260633	0.000659	6.588579	2.232271	-0.000264
1497	1.4885e+02	-19.6053	-112.615901	0.000892	8.919922	3.022151	-0.000357
1498	1.4895e+02	-19.6438	-112.825832	0.000527	5.270863	1.785817	-0.000211
1499	1.4905e+02	-19.6775	-113.120543	0.000740	7.399481	2.507012	-0.000296
1500	1.4915e+02	-19.7240	-113.431403	0.000780	7.804932	2.644382	-0.000312
1501	1.4925e+02	-19.7641	-113.718039	0.000720	7.196755	2.438327	-0.000288
1502	1.4935e+02	-19.8075	-113.992565	0.000689	6.892667	2.335299	-0.000276
1503	1.4945e+02	-19.8363	-114.303424	0.000780	7.804932	2.644382	-0.000312
1504	1.4955e+02	-19.8797	-114.581987	0.000699	6.994030	2.369641	-0.000280
1505	1.4965e+02	-19.9294	-114.864586	0.000710	7.095392	2.403984	-0.000284
1506	1.4975e+02	-19.9551	-115.163334	0.000750	7.500843	2.541355	-0.000300
1507	1.4985e+02	-20.0064	-115.494379	0.000831	8.311745	2.816096	-0.000333
1508	1.4995e+02	-19.9615	-115.494379	0.000000	0.000000	0.000000	0.000000
1509	1.5005e+02	-19.9246	-115.474194	0.000051	0.506814	0.171713	0.000020
1510	1.5015e+02	-19.8861	-115.417674	0.000142	1.419078	0.480797	0.000057
1511	1.5025e+02	-19.8444	-115.405562	0.000030	0.304088	0.103028	0.000012
1512	1.5034e+02	-19.8091	-115.357117	0.000122	1.216353	0.412112	0.000049
1513	1.5044e+02	-19.7674	-115.320782	0.000091	0.912265	0.309084	0.000037
1514	1.5054e+02	-19.7144	-115.252151	0.000172	1.723167	0.583825	0.000069
1515	1.5064e+02	-19.6855	-115.223891	0.000071	0.709539	0.240398	0.000028
1516	1.5074e+02	-19.6502	-115.139111	0.000213	2.128618	0.721195	0.000085
1517	1.5084e+02	-19.5957	-115.050294	0.000223	2.229980	0.755538	0.000089
1518	1.5094e+02	-19.5652	-114.973589	0.000193	1.925892	0.652510	0.000077
1519	1.5104e+02	-19.5219	-114.876697	0.000243	2.432706	0.824223	0.000097
1520	1.5114e+02	-19.4770	-114.832289	0.000111	1.114990	0.377769	0.000045
1521	1.5124e+02	-19.4305	-114.690989	0.000355	3.547696	1.201992	0.000142
1522	1.5134e+02	-19.4000	-114.646581	0.000111	1.114990	0.377769	0.000045
1523	1.5144e+02	-19.3599	-114.509318	0.000345	3.446333	1.167649	0.000138
1524	1.5154e+02	-19.3166	-114.384167	0.000314	3.142245	1.064621	0.000126
1525	1.5164e+02	-19.2813	-114.347833	0.000091	0.912265	0.309084	0.000037
1526	1.5174e+02	-19.2428	-114.198459	0.000375	3.750422	1.270677	0.000150
1527	1.5184e+02	-19.2123	-114.133864	0.000162	1.621804	0.549482	0.000065
1528	1.5194e+02	-19.1642	-113.984490	0.000375	3.750422	1.270677	0.000150
1529	1.5204e+02	-19.1192	-113.903748	0.000203	2.027255	0.686853	0.000081
1530	1.5214e+02	-19.0904	-113.750337	0.000385	3.851784	1.305020	0.000154
1531	1.5224e+02	-19.0551	-113.645371	0.000264	2.635431	0.892908	0.000105
1532	1.5233e+02	-19.0134	-113.536368	0.000274	2.736794	0.927251	0.000110
1533	1.5243e+02	-18.9684	-113.415254	0.000304	3.040882	1.030279	0.000122
1534	1.5253e+02	-18.9267	-113.273955	0.000355	3.547696	1.201992	0.000142
1535	1.5263e+02	-18.8850	-113.148803	0.000314	3.142245	1.064621	0.000126
1536	1.5273e+02	-18.8545	-113.031726	0.000294	2.939520	0.995936	0.000118
1537	1.5283e+02	-18.8096	-112.938872	0.000233	2.331343	0.789880	0.000093
1538	1.5293e+02	-18.7695	-112.805647	0.000334	3.344971	1.133307	0.000134
1539	1.5303e+02	-18.7310	-112.660310	0.000365	3.649059	1.236335	0.000146
1540	1.5313e+02	-18.6877	-112.506899	0.000385	3.851784	1.305020	0.000154
1541	1.5323e+02	-18.6460	-112.401933	0.000264	2.635431	0.892908	0.000105
1542	1.5333e+02	-18.6171	-112.272745	0.000324	3.243608	1.098964	0.000130
1543	1.5343e+02	-18.5786	-112.087037	0.000466	4.662686	1.579761	0.000187
1544	1.5353e+02	-18.5225	-111.925551	0.000405	4.054510	1.373705	0.000162
1545	1.5363e+02	-18.4888	-111.828660	0.000243	2.432706	0.824223	0.000097
1546	1.5373e+02	-18.4599	-111.711583	0.000294	2.939520	0.995936	0.000118
1547	1.5383e+02	-18.4070	-111.606617	0.000264	2.635431	0.892908	0.000105
1548	1.5393e+02	-18.3685	-111.445132	0.000405	4.054510	1.373705	0.000162
1549	1.5403e+02	-18.3235	-111.275572	0.000426	4.257235	1.442390	0.000170
1550	1.5413e+02	-18.2850	-111.202904	0.000182	1.824529	0.618167	0.000073
1551	1.5422e+02	-18.2514	-111.037381	0.000416	4.155873	1.408048	0.000166
1552	1.5432e+02	-18.2096	-110.843599	0.000487	4.865412	1.648446	0.000195
1553	1.5442e+02	-18.1711	-110.742670	0.000253	2.534069	0.858566	0.000101
1554	1.5452e+02	-18.1294	-110.597334	0.000365	3.649059	1.236335	0.000146
1555	1.5462e+02	-18.0749	-110.431811	0.000416	4.155873	1.408048	0.000166
1556	1.5472e+02	-18.0476	-110.306660	0.000314	3.142245	1.064621	0.000126
1557	1.5482e+02	-18.0107	-110.149211	0.000395	3.953147	1.339363	0.000158
1558	1.5492e+02	-17.9674	-109.987726	0.000405	4.054510	1.373705	0.000162
1559	1.5502e+02	-17.9289	-109.870649	0.000294	2.939520	0.995936	0.000118
1560	1.5512e+02	-17.8968	-109.721275	0.000375	3.750422	1.270677	0.000150
1561	1.5522e+02	-17.8503	-109.547678	0.000436	4.358598	1.476733	0.000174
1562	1.5532e+02	-17.8150	-109.386193	0.000405	4.054510	1.373705	0.000162
1563	1.5542e+02	-17.7589	-109.293339	0.000233	2.331343	0.789880	0.000093
1564	1.5552e+02	-17.7236	-109.103593	0.000476	4.764049	1.614104	0.000191
1565	1.5562e+02	-17.6947	-108.990554	0.000284	2.838157	0.961594	0.000114
1566	1.5572e+02	-17.6514	-108.808882	0.000456	4.561324	1.545418	0.000183
1567	1.5582e+02	-17.6113	-108.671620	0.000345	3.446333	1.167649	0.000138
1568	1.5592e+02	-17.5680	-108.538394	0.000334	3.344971	1.133307	0.000134
1569	1.5602e+02	-17.5327	-108.332500	0.000517	5.169500	1.751474	0.000207
1570	1.5612e+02	-17.4893	-108.195238	0.000345	3.446333	1.167649	0.000138
1571	1.5622e+02	-17.4476	-108.078161	0.000294	2.939520	0.995936	0.000118
1572	1.5631e+02	-17.4107	-107.900527	0.000446	4.459961	1.511076	0.000179
1573	1.5641e+02	-17.3690	-107.718856	0.000456	4.561324	1.545418	0.000183
1574	1.5651e+02	-17.3257	-107.597742	0.000304	3.040882	1.030279	0.000122
1575	1.5661e+02	-17.2952	-107.452405	0.000365	3.649059	1.236335	0.000146
1576	1.5671e+02	-17.2583	-107.254585	0.000497	4.966775	1.682789	0.000199
1577	1.5681e+02	-17.2182	-107.117323	0.000345	3.446333	1.167649	0.000138
1578	1.5691e+02	-17.1765	-107.008320	0.000274	2.736794	0.927251	0.000110
1579	1.5701e+02	-17.1364	-106.814537	0.000487	4.865412	1.648446	0.000195
1580	1.5711e+02	-17.0851	-106.653052	0.000405	4.054510	1.373705	0.000162
1581	1.5721e+02	-17.0546	-106.523864	0.000324	3.243608	1.098964	0.000130
1582	1.5731e+02	-17.0129	-106.342192	0.000456	4.561324	1.545418	0.000183
1583	1.5741e+02	-16.9776	-106.229153	0.000284	2.838157	0.961594	0.000114
1584	1.5751e+02	-16.9327	-106.035370	0.000487	4.865412	1.648446	0.000195
1585	1.5761e+02	-16.8894	-105.881959	0.000385	3.851784	1.305020	0.000154
1586	1.5771e+02	-16.8589	-105.724511	0.000395	3.953147	1.339363	0.000158
1587	1.5781e+02	-16.8172	-105.558988	0.000416	4.155873	1.408048	0.000166
1588	1.5791e+02	-16.7787	-105.425763	0.000334	3.344971	1.133307	0.000134
1589	1.5801e+02	-16.7305	-105.276389	0.000375	3.750422	1.270677	0.000150
1590	1.5811e+02	-16.6936	-105.094718	0.000456	4.561324	1.545418	0.000183
1591	1.5821e+02	-16.6535	-104.969566	0.000314	3.142245	1.064621	0.000126
1592	1.5830e+02	-16.6199	-104.763672	0.000517	5.169500	1.751474	0.000207
1593	1.5840e+02	-16.5717	-104.646595	0.000294	2.939520	0.995936	0.000118
1594	1.5850e+02	-16.5300	-104.464924	0.000456	4.561324	1.545418	0.000183
1595	1.5860e+02	-16.4947	-104.299402	0.000416	4.155873	1.408048	0.000166
1596	1.5870e+02	-16.4626	-104.129842	0.000426	4.257235	1.442390	0.000170
1597	1.5880e+02	-16.4193	-103.948171	0.000456	4.561324	1.545418	0.000183
1598	1.5890e+02	-16.3760	-103.782648	0.000416	4.155873	1.408048	0.000166
1599	1.5900e+02	-16.3343	-103.617126	0.000416	4.155873	1.408048	0.000166
1600	1.5910e+02	-16.2990	-103.471789	0.000365	3.649059	1.236335	0.000146
1601	1.5920e+02	-16.2509	-103.298192	0.000436	4.358598	1.476733	0.000174
1602	1.5930e+02	-16.2188	-103.140744	0.000395	3.953147	1.339363	0.000158
1603	1.5940e+02	-16.1851	-102.942924	0.000497	4.966775	1.682789	0.000199
1604	1.5950e+02	-16.1338	-102.813736	0.000324	3.243608	1.098964	0.000130
1605	1.5960e+02	-16.1001	-102.648213	0.000416	4.155873	1.408048	0.000166
1606	1.5970e+02	-16.0616	-102.434245	0.000537	5.372226	1.820159	0.000215
1607	1.5980e+02	-16.0215	-102.313131	0.000304	3.040882	1.030279	0.000122
1608	1.5990e+02	-15.9814	-102.151646	0.000405	4.054510	1.373705	0.000162
1609	1.6000e+02	-15.9364	-101.978049	0.000436	4.358598	1.476733	0.000174
1610	1.6010e+02	-15.9076	-101.824638	0.000385	3.851784	1.305020	0.000154
1611	1.6019e+02	-15.8675	-101.679301	0.000365	3.649059	1.236335	0.000146
1612	1.6029e+02	-15.8177	-101.424961	0.000639	6.385853	2.163586	0.000256
1613	1.6039e+02	-15.7889	-101.319996	0.000264	2.635431	0.892908	0.000105
1614	1.6049e+02	-15.7311	-101.126213	0.000487	4.865412	1.648446	0.000195
1615	1.6059e+02	-15.6894	-101.013173	0.000284	2.838157	0.961594	0.000114
1616	1.6069e+02	-15.6509	-100.787094	0.000568	5.676314	1.923187	0.000227
1617	1.6079e+02	-15.6204	-100.633683	0.000385	3.851784	1.305020	0.000154
1618	1.6089e+02	-15.5899	-100.468160	0.000416	4.155873	1.408048	0.000166
1619	1.6099e+02	-15.5466	-100.314749	0.000385	3.851784	1.305020	0.000154
1620	1.6109e+02	-15.4953	-100.149226	0.000416	4.155873	1.408048	0.000166
1621	1.6119e+02	-15.4600	-99.963518	0.000466	4.662686	1.579761	0.000187
1622	1.6129e+02	-15.4167	-99.797995	0.000416	4.155873	1.408048	0.000166
1623	1.6139e+02	-15.3782	-99.632473	0.000416	4.155873	1.408048	0.000166
1624	1.6149e+02	-15.3445	-99.454839	0.000446	4.459961	1.511076	0.000179
1625	1.6159e+02	-15.3044	-99.269131	0.000466	4.662686	1.579761	0.000187
1626	1.6169e+02	-15.2627	-99.095534	0.000436	4.358598	1.476733	0.000174
1627	1.6179e+02	-15.2290	-98.930011	0.000416	4.155873	1.408048	0.000166
1628	1.6189e+02	-15.1841	-98.768526	0.000405	4.054510	1.373705	0.000162
1629	1.6199e+02	-15.1520	-98.594929	0.000436	4.358598	1.476733	0.000174
1630	1.6209e+02	-15.1055	-98.409221	0.000466	4.662686	1.579761	0.000187
1631	1.6219e+02	-15.0605	-98.235624	0.000436	4.358598	1.476733	0.000174
1632	1.6228e+02	-15.0268	-98.066064	0.000426	4.257235	1.442390	0.000170
1633	1.6238e+02	-14.9755	-97.900542	0.000416	4.155873	1.408048	0.000166
1634	1.6248e+02	-14.9402	-97.674462	0.000568	5.676314	1.923187	0.000227
1635	1.6258e+02	-14.9033	-97.512977	0.000405	4.054510	1.373705	0.000162
1636	1.6268e+02	-14.8616	-97.363603	0.000375	3.750422	1.270677	0.000150
1637	1.6278e+02	-14.8231	-97.214229	0.000375	3.750422	1.270677	0.000150
1638	1.6288e+02	-14.7814	-96.984112	0.000578	5.777677	1.957530	0.000231
1639	1.6298e+02	-14.7381	-96.794366	0.000476	4.764049	1.614104	0.000191
1640	1.6308e+02	-14.7012	-96.636918	0.000395	3.953147	1.339363	0.000158
1641	1.6318e+02	-14.6659	-96.463321	0.000436	4.358598	1.476733	0.000174
1642	1.6328e+02	-14.6274	-96.273576	0.000476	4.764049	1.614104	0.000191
1643	1.6338e+02	-14.5825	-96.128239	0.000365	3.649059	1.236335	0.000146
1644	1.6348e+02	-14.5504	-95.958679	0.000426	4.257235	1.442390	0.000170
1645	1.6358e+02	-14.5055	-95.728563	0.000578	5.777677	1.957530	0.000231
1646	1.6368e+02	-14.4638	-95.554966	0.000436	4.358598	1.476733	0.000174
1647	1.6378e+02	-14.4237	-95.377332	0.000446	4.459961	1.511076	0.000179
1648	1.6388e+02	-14.3739	-95.215846	0.000405	4.054510	1.373705	0.000162
1649	1.6398e+02	-14.3450	-95.034175	0.000456	4.561324	1.545418	0.000183
1650	1.6408e+02	-14.3098	-94.844430	0.000476	4.764049	1.614104	0.000191
1651	1.6418e+02	-14.2632	-94.666796	0.000446	4.459961	1.511076	0.000179
1652	1.6427e+02	-14.2215	-94.464939	0.000507	5.068137	1.717131	0.000203
1653	1.6437e+02	-14.1782	-94.299417	0.000416	4.155873	1.408048	0.000166
1654	1.6447e+02	-14.1541	-94.133894	0.000416	4.155873	1.408048	0.000166
1655	1.6457e+02	-14.1060	-93.960297	0.000436	4.358598	1.476733	0.000174
1656	1.6467e+02	-14.0611	-93.766515	0.000487	4.865412	1.648446	0.000195
1657	1.6477e+02	-14.0226	-93.540435	0.000568	5.676314	1.923187	0.000227
1658	1.6487e+02	-13.9857	-93.378950	0.000405	4.054510	1.373705	0.000162
1659	1.6497e+02	-13.9472	-93.197279	0.000456	4.561324	1.545418	0.000183
1660	1.6507e+02	-13.9071	-93.011570	0.000466	4.662686	1.579761	0.000187
1661	1.6517e+02	-13.8686	-92.821825	0.000476	4.764049	1.614104	0.000191
1662	1.6527e+02	-13.8189	-92.648228	0.000436	4.358598	1.476733	0.000174
1663	1.6537e+02	-13.7820	-92.446371	0.000507	5.068137	1.717131	0.000203
1664	1.6547e+02	-13.7515	-92.288923	0.000395	3.953147	1.339363	0.000158
1665	1.6557e+02	-13.7001	-92.103215	0.000466	4.662686	1.579761	0.000187
1666	1.6567e+02	-13.6681	-91.836764	0.000669	6.689941	2.266613	0.000268
1667	1.6577e+02	-13.6264	-91.723724	0.000284	2.838157	0.961594	0.000114
1668	1.6587e+02	-13.5798	-91.533979	0.000476	4.764049	1.614104	0.000191
1669	1.6597e+02	-13.5413	-91.364419	0.000426	4.257235	1.442390	0.000170
1670	1.6607e+02	-13.5028	-91.134302	0.000578	5.777677	1.957530	0.000231
1671	1.6616e+02	-13.4740	-90.976854	0.000395	3.953147	1.339363	0.000158
1672	1.6626e+02	-13.4274	-90.774997	0.000507	5.068137	1.717131	0.000203
1673	1.6636e+02	-13.3889	-90.629660	0.000365	3.649059	1.236335	0.000146
1674	1.6646e+02	-13.3440	-90.379358	0.000628	6.284490	2.129243	0.000252
1675	1.6656e+02	-13.3071	-90.217872	0.000405	4.054510	1.373705	0.000162
1676	1.6666e+02	-13.2750	-89.987756	0.000578	5.777677	1.957530	0.000231
1677	1.6676e+02	-13.2285	-89.842419	0.000365	3.649059	1.236335	0.000146
1678	1.6686e+02	-13.1948	-89.644599	0.000497	4.966775	1.682789	0.000199
1679	1.6696e+02	-13.1563	-89.410445	0.000588	5.879039	1.991872	0.000235
1680	1.6706e+02	-13.1146	-89.244923	0.000416	4.155873	1.408048	0.000166
1681	1.6716e+02	-13.0617	-89.087474	0.000395	3.953147	1.339363	0.000158
1682	1.6726e+02	-13.0200	-88.905803	0.000456	4.561324	1.545418	0.000183
1683	1.6736e+02	-12.9943	-88.712021	0.000487	4.865412	1.648446	0.000195
1684	1.6746e+02	-12.9574	-88.502090	0.000527	5.270863	1.785817	0.000211
1685	1.6756e+02	-12.9109	-88.316381	0.000466	4.662686	1.579761	0.000187
1686	1.6766e+02	-12.8692	-88.162970	0.000385	3.851784	1.305020	0.000154
1687	1.6776e+02	-12.8403	-87.920742	0.000608	6.081765	2.060558	0.000243
1688	1.6786e+02	-12.7938	-87.807702	0.000284	2.838157	0.961594	0.000114
1689	1.6796e+02	-12.7456	-87.589697	0.000547	5.473588	1.854502	0.000219
1690	1.6806e+02	-12.7135	-87.387840	0.000507	5.068137	1.717131	0.000203
1691	1.6816e+02	-12.6734	-87.202132	0.000466	4.662686	1.579761	0.000187
1692	1.6825e+02	-12.6398	-86.996238	0.000517	5.169500	1.751474	0.000207
1693	1.6835e+02	-12.5916	-86.762084	0.000588	5.879039	1.991872	0.000235
1694	1.6845e+02	-12.5515	-86.580413	0.000456	4.561324	1.545418	0.000183
1695	1.6855e+02	-12.5034	-86.402779	0.000446	4.459961	1.511076	0.000179
1696	1.6865e+02	-12.4729	-86.217071	0.000466	4.662686	1.579761	0.000187
1697	1.6875e+02	-12.4456	-86.007140	0.000527	5.270863	1.785817	0.000211
1698	1.6885e+02	-12.4007	-85.833543	0.000436	4.358598	1.476733	0.000174
1699	1.6895e+02	-12.3526	-85.631686	0.000507	5.068137	1.717131	0.000203
1700	1.6905e+02	-12.3125	-85.466164	0.000416	4.155873	1.408048	0.000166
1701	1.6915e+02	-12.2772	-85.227973	0.000598	5.980402	2.026215	0.000239
1702	1.6925e+02	-12.2307	-85.062450	0.000416	4.155873	1.408048	0.000166
1703	1.6935e+02	-12.1890	-84.852519	0.000527	5.270863	1.785817	0.000211
1704	1.6945e+02	-12.1521	-84.686996	0.000416	4.155873	1.408048	0.000166
1705	1.6955e+02	-12.1168	-84.477065	0.000527	5.270863	1.785817	0.000211
1706	1.6965e+02	-12.0686	-84.271171	0.000517	5.169500	1.751474	0.000207
1707	1.6975e+02	-12.0334	-84.089500	0.000456	4.561324	1.545418	0.000183
1708	1.6985e+02	-11.9852	-83.887644	0.000507	5.068137	1.717131	0.000203
1709	1.6995e+02	-11.9596	-83.677712	0.000527	5.270863	1.785817	0.000211
1710	1.7005e+02	-11.9082	-83.512190	0.000416	4.155873	1.408048	0.000166
1711	1.7015e+02	-11.8793	-83.294185	0.000547	5.473588	1.854502	0.000219
1712	1.7024e+02	-11.8424	-83.128662	0.000416	4.155873	1.408048	0.000166
1713	1.7034e+02	-11.8023	-82.914694	0.000537	5.372226	1.820159	0.000215
1714	1.7044e+02	-11.7606	-82.720911	0.000487	4.865412	1.648446	0.000195
1715	1.7054e+02	-11.7141	-82.563463	0.000395	3.953147	1.339363	0.000158
1716	1.7064e+02	-11.6772	-82.313161	0.000628	6.284490	2.129243	0.000252
1717	1.7074e+02	-11.6355	-82.143601	0.000426	4.257235	1.442390	0.000170
1718	1.7084e+02	-11.5938	-81.945781	0.000497	4.966775	1.682789	0.000199
1719	1.7094e+02	-11.5553	-81.751999	0.000487	4.865412	1.648446	0.000195
1720	1.7104e+02	-11.5152	-81.570328	0.000456	4.561324	1.545418	0.000183
1721	1.7114e+02	-11.4783	-81.356359	0.000537	5.372226	1.820159	0.000215
1722	1.7124e+02	-11.4414	-81.146428	0.000527	5.270863	1.785817	0.000211
1723	1.7134e+02	-11.3981	-80.960720	0.000466	4.662686	1.579761	0.000187
1724	1.7144e+02	-11.3596	-80.815383	0.000365	3.649059	1.236335	0.000146
1725	1.7154e+02	-11.3275	-80.601415	0.000537	5.372226	1.820159	0.000215
1726	1.7164e+02	-11.2745	-80.375335	0.000568	5.676314	1.923187	0.000227
1727	1.7174e+02	-11.2328	-80.181553	0.000487	4.865412	1.648446	0.000195
1728	1.7184e+02	-11.1927	-80.016030	0.000416	4.155873	1.408048	0.000166
1729	1.7194e+02	-11.1478	-79.785914	0.000578	5.777677	1.957530	0.000231
1730	1.7204e+02	-11.1238	-79.592131	0.000487	4.865412	1.648446	0.000195
1731	1.7213e+02	-11.0788	-79.382200	0.000527	5.270863	1.785817	0.000211
1732	1.7223e+02	-11.0355	-79.204566	0.000446	4.459961	1.511076	0.000179
1733	1.7233e+02	-10.9938	-79.014821	0.000476	4.764049	1.614104	0.000191
1734	1.7243e+02	-10.9521	-78.800852	0.000537	5.372226	1.820159	0.000215
1735	1.7253e+02	-10.9280	-78.594959	0.000517	5.169500	1.751474	0.000207
1736	1.7263e+02	-10.8751	-78.380990	0.000537	5.372226	1.820159	0.000215
1737	1.7273e+02	-10.8366	-78.199319	0.000456	4.561324	1.545418	0.000183
1738	1.7283e+02	-10.8029	-78.033797	0.000416	4.155873	1.408048	0.000166
1739	1.7293e+02	-10.7596	-77.795606	0.000598	5.980402	2.026215	0.000239
1740	1.7303e+02	-10.7211	-77.605860	0.000476	4.764049	1.614104	0.000191
1741	1.7313e+02	-10.6890	-77.395929	0.000527	5.270863	1.785817	0.000211
1742	1.7323e+02	-10.6313	-77.198110	0.000497	4.966775	1.682789	0.000199
1743	1.7333e+02	-10.6008	-77.024513	0.000436	4.358598	1.476733	0.000174
1744	1.7343e+02	-10.5623	-76.806507	0.000547	5.473588	1.854502	0.000219
1745	1.7353e+02	-10.5190	-76.624836	0.000456	4.561324	1.545418	0.000183
1746	1.7363e+02	-10.4708	-76.443165	0.000456	4.561324	1.545418	0.000183
1747	1.7373e+02	-10.4403	-76.229197	0.000537	5.372226	1.820159	0.000215
1748	1.7383e+02	-10.3922	-76.019266	0.000527	5.270863	1.785817	0.000211
1749	1.7393e+02	-10.3569	-75.829521	0.000476	4.764049	1.614104	0.000191
1750	1.7403e+02	-10.3184	-75.635738	0.000487	4.865412	1.648446	0.000195
1751	1.7413e+02	-10.2863	-75.450030	0.000466	4.662686	1.579761	0.000187
1752	1.7422e+02	-10.2414	-75.207802	0.000608	6.081765	2.060558	0.000243
1753	1.7432e+02	-10.2045	-74.997871	0.000527	5.270863	1.785817	0.000211
1754	1.7442e+02	-10.1532	-74.836385	0.000405	4.054510	1.373705	0.000162
1755	1.7452e+02	-10.1131	-74.602231	0.000588	5.879039	1.991872	0.000235
1756	1.7462e+02	-10.0794	-74.404412	0.000497	4.966775	1.682789	0.000199
1757	1.7472e+02	-10.0425	-74.222741	0.000456	4.561324	1.545418	0.000183
1758	1.7482e+02	-10.0024	-74.016847	0.000517	5.169500	1.751474	0.000207
1759	1.7492e+02	-9.9575	-73.790767	0.000568	5.676314	1.923187	0.000227
1760	1.7502e+02	-9.9238	-73.641393	0.000375	3.750422	1.270677	0.000150
1761	1.7512e+02	-9.8708	-73.415313	0.000568	5.676314	1.923187	0.000227
1762	1.7522e+02	-9.8452	-73.205382	0.000527	5.270863	1.785817	0.000211
1763	1.7532e+02	-9.8099	-73.007563	0.000497	4.966775	1.682789	0.000199
1764	1.7542e+02	-9.7602	-72.809743	0.000497	4.966775	1.682789	0.000199
1765	1.7552e+02	-9.7249	-72.567515	0.000608	6.081765	2.060558	0.000243
1766	1.7562e+02	-9.6783	-72.393918	0.000436	4.358598	1.476733	0.000174
1767	1.7572e+02	-9.6446	-72.179950	0.000537	5.372226	1.820159	0.000215
1768	1.7582e+02	-9.5949	-71.945796	0.000588	5.879039	1.991872	0.000235
1769	1.7592e+02	-9.5676	-71.824682	0.000304	3.040882	1.030279	0.000122
1770	1.7602e+02	-9.5275	-71.606677	0.000547	5.473588	1.854502	0.000219
1771	1.7612e+02	-9.4858	-71.360411	0.000618	6.183128	2.094900	0.000248
1772	1.7621e+02	-9.4409	-71.138369	0.000557	5.574951	1.888845	0.000223
1773	1.7631e+02	-9.4040	-70.952661	0.000466	4.662686	1.579761	0.000187
1774	1.7641e+02	-9.3639	-70.762915	0.000476	4.764049	1.614104	0.000191
1775	1.7651e+02	-9.3254	-70.552984	0.000527	5.270863	1.785817	0.000211
1776	1.7661e+02	-9.2853	-70.330942	0.000557	5.574951	1.888845	0.000223
1777	1.7671e+02	-9.2484	-70.149271	0.000456	4.561324	1.545418	0.000183
1778	1.7681e+02	-9.2051	-69.939340	0.000527	5.270863	1.785817	0.000211
1779	1.7691e+02	-9.1778	-69.733446	0.000517	5.169500	1.751474	0.000207
1780	1.7701e+02	-9.1169	-69.491217	0.000608	6.081765	2.060558	0.000243
1781	1.7711e+02	-9.0832	-69.301472	0.000476	4.764049	1.614104	0.000191
1782	1.7721e+02	-9.0447	-69.095578	0.000517	5.169500	1.751474	0.000207
1783	1.7731e+02	-9.0046	-68.869499	0.000568	5.676314	1.923187	0.000227
1784	1.7741e+02	-8.9596	-68.679753	0.000476	4.764049	1.614104	0.000191
1785	1.7751e+02	-8.9243	-68.449636	0.000578	5.777677	1.957530	0.000231
1786	1.7761e+02	-8.8842	-68.284114	0.000416	4.155873	1.408048	0.000166
1787	1.7771e+02	-8.8457	-68.037849	0.000618	6.183128	2.094900	0.000248
1788	1.7781e+02	-8.8056	-67.827918	0.000527	5.270863	1.785817	0.000211
1789	1.7791e+02	-8.7591	-67.605875	0.000557	5.574951	1.888845	0.000223
1790	1.7801e+02	-8.7334	-67.395944	0.000527	5.270863	1.785817	0.000211
1791	1.7810e+02	-8.6853	-67.230421	0.000416	4.155873	1.408048	0.000166
1792	1.7820e+02	-8.6420	-67.004342	0.000568	5.676314	1.923187	0.000227
1793	1.7830e+02	-8.6051	-66.782299	0.000557	5.574951	1.888845	0.000223
1794	1.7840e+02	-8.5714	-66.588517	0.000487	4.865412	1.648446	0.000195
1795	1.7850e+02	-8.5233	-66.370512	0.000547	5.473588	1.854502	0.000219
1796	1.7860e+02	-8.4864	-66.180766	0.000476	4.764049	1.614104	0.000191
1797	1.7870e+02	-8.4527	-65.906241	0.000689	6.892667	2.335299	0.000276
1798	1.7880e+02	-8.4014	-65.736681	0.000426	4.257235	1.442390	0.000170
1799	1.7890e+02	-8.3725	-65.498490	0.000598	5.980402	2.026215	0.000239
1800	1.7900e+02	-8.3308	-65.276448	0.000557	5.574951	1.888845	0.000223
1801	1.7910e+02	-8.2923	-65.110925	0.000416	4.155873	1.408048	0.000166
1802	1.7920e+02	-8.2474	-64.872734	0.000598	5.980402	2.026215	0.000239
1803	1.7930e+02	-8.2169	-64.674915	0.000497	4.966775	1.682789	0.000199
1804	1.7940e+02	-8.1704	-64.436724	0.000598	5.980402	2.026215	0.000239
1805	1.7950e+02	-8.1286	-64.198533	0.000598	5.980402	2.026215	0.000239
1806	1.7960e+02	-8.0901	-64.020899	0.000446	4.459961	1.511076	0.000179
1807	1.7970e+02	-8.0484	-63.810967	0.000527	5.270863	1.785817	0.000211
1808	1.7980e+02	-8.0051	-63.568739	0.000608	6.081765	2.060558	0.000243
1809	1.7990e+02	-7.9714	-63.407254	0.000405	4.054510	1.373705	0.000162
1810	1.8000e+02	-7.9361	-63.169063	0.000598	5.980402	2.026215	0.000239
1811	1.8009e+02	-7.8896	-62.918760	0.000628	6.284490	2.129243	0.000252
1812	1.8019e+02	-7.8431	-62.737089	0.000456	4.561324	1.545418	0.000183
1813	1.8029e+02	-7.8110	-62.511010	0.000568	5.676314	1.923187	0.000227
1814	1.8039e+02	-7.7741	-62.284930	0.000568	5.676314	1.923187	0.000227
1815	1.8049e+02	-7.7228	-62.103259	0.000456	4.561324	1.545418	0.000183
1816	1.8059e+02	-7.6939	-61.861031	0.000608	6.081765	2.060558	0.000243
1817	1.8069e+02	-7.6410	-61.626877	0.000588	5.879039	1.991872	0.000235
1818	1.8079e+02	-7.6105	-61.416946	0.000527	5.270863	1.785817	0.000211
1819	1.8089e+02	-7.5688	-61.194904	0.000557	5.574951	1.888845	0.000223
1820	1.8099e+02	-7.5351	-60.984972	0.000527	5.270863	1.785817	0.000211
1821	1.8109e+02	-7.4886	-60.779079	0.000517	5.169500	1.751474	0.000207
1822	1.8119e+02	-7.4501	-60.524739	0.000639	6.385853	2.163586	0.000256
1823	1.8129e+02	-7.4100	-60.334994	0.000476	4.764049	1.614104	0.000191
1824	1.8139e+02	-7.3714	-60.100840	0.000588	5.879039	1.991872	0.000235
1825	1.8149e+02	-7.3362	-59.898983	0.000507	5.068137	1.717131	0.000203
1826	1.8159e+02	-7.2977	-59.644643	0.000639	6.385853	2.163586	0.000256
1827	1.8169e+02	-7.2592	-59.450861	0.000487	4.865412	1.648446	0.000195
1828	1.8179e+02	-7.2126	-59.196521	0.000639	6.385853	2.163586	0.000256
1829	1.8189e+02	-7.1725	-58.990627	0.000517	5.169500	1.751474	0.000207
1830	1.8199e+02	-7.1356	-58.788771	0.000507	5.068137	1.717131	0.000203
1831	1.8209e+02	-7.0891	-58.554617	0.000588	5.879039	1.991872	0.000235
1832	1.8218e+02	-7.0522	-58.320463	0.000588	5.879039	1.991872	0.000235
1833	1.8228e+02	-7.0089	-58.114569	0.000517	5.169500	1.751474	0.000207
1834	1.8238e+02	-6.9720	-57.872341	0.000608	6.081765	2.060558	0.000243
1835	1.8248e+02	-6.9335	-57.670484	0.000507	5.068137	1.717131	0.000203
1836	1.8258e+02	-6.8934	-57.428256	0.000608	6.081765	2.060558	0.000243
1837	1.8268e+02	-6.8565	-57.222362	0.000517	5.169500	1.751474	0.000207
1838	1.8278e+02	-6.8116	-56.996282	0.000568	5.676314	1.923187	0.000227
1839	1.8288e+02	-6.7715	-56.733869	0.000659	6.588579	2.232271	0.000264
1840	1.8298e+02	-6.7346	-56.519900	0.000537	5.372226	1.820159	0.000215
1841	1.8308e+02	-6.6977	-56.265561	0.000639	6.385853	2.163586	0.000256
1842	1.8318e+02	-6.6624	-56.087927	0.000446	4.459961	1.511076	0.000179
1843	1.8328e+02	-6.6143	-55.809364	0.000699	6.994030	2.369641	0.000280
1844	1.8338e+02	-6.5661	-55.651916	0.000395	3.953147	1.339363	0.000158
1845	1.8348e+02	-6.5340	-55.417762	0.000588	5.879039	1.991872	0.000235
1846	1.8358e+02	-6.4875	-55.187646	0.000578	5.777677	1.957530	0.000231
1847	1.8368e+02	-6.4538	-54.973677	0.000537	5.372226	1.820159	0.000215
1848	1.8378e+02	-6.4201	-54.731449	0.000608	6.081765	2.060558	0.000243
1849	1.8388e+02	-6.3736	-54.509407	0.000557	5.574951	1.888845	0.000223
1850	1.8398e+02	-6.3415	-54.303513	0.000517	5.169500	1.751474	0.000207
1851	1.8407e+02	-6.3014	-54.057248	0.000618	6.183128	2.094900	0.000248
1852	1.8417e+02	-6.2645	-53.835205	0.000557	5.574951	1.888845	0.000223
1853	1.8427e+02	-6.2132	-53.625274	0.000527	5.270863	1.785817	0.000211
1854	1.8437e+02	-6.1747	-53.366897	0.000649	6.487216	2.197928	0.000260
1855	1.8447e+02	-6.1378	-53.136781	0.000578	5.777677	1.957530	0.000231
1856	1.8457e+02	-6.0961	-52.926850	0.000527	5.270863	1.785817	0.000211
1857	1.8467e+02	-6.0592	-52.692696	0.000588	5.879039	1.991872	0.000235
1858	1.8477e+02	-6.0239	-52.519099	0.000436	4.358598	1.476733	0.000174
1859	1.8487e+02	-5.9774	-52.276871	0.000608	6.081765	2.060558	0.000243
1860	1.8497e+02	-5.9421	-52.042717	0.000588	5.879039	1.991872	0.000235
1861	1.8507e+02	-5.8972	-51.780303	0.000659	6.588579	2.232271	0.000264
1862	1.8517e+02	-5.8651	-51.574409	0.000517	5.169500	1.751474	0.000207
1863	1.8527e+02	-5.8266	-51.372552	0.000507	5.068137	1.717131	0.000203
1864	1.8537e+02	-5.7768	-51.089953	0.000710	7.095392	2.403984	0.000284
1865	1.8547e+02	-5.7351	-50.916356	0.000436	4.358598	1.476733	0.000174
1866	1.8557e+02	-5.6998	-50.666054	0.000628	6.284490	2.129243	0.000252
1867	1.8567e+02	-5.6662	-50.399603	0.000669	6.689941	2.266613	0.000268
1868	1.8577e+02	-5.6116	-50.197746	0.000507	5.068137	1.717131	0.000203
1869	1.8587e+02	-5.5827	-49.987815	0.000527	5.270863	1.785817	0.000211
1870	1.8597e+02	-5.5490	-49.757698	0.000578	5.777677	1.957530	0.000231
1871	1.8606e+02	-5.5041	-49.495284	0.000659	6.588579	2.232271	0.000264
1872	1.8616e+02	-5.4576	-49.277279	0.000547	5.473588	1.854502	0.000219
1873	1.8626e+02	-5.4239	-49.043125	0.000588	5.879039	1.991872	0.000235
1874	1.8636e+02	-5.3902	-48.804934	0.000598	5.980402	2.026215	0.000239
1875	1.8646e+02	-5.3437	-48.590966	0.000537	5.372226	1.820159	0.000215
1876	1.8656e+02	-5.2988	-48.364886	0.000568	5.676314	1.923187	0.000227
1877	1.8666e+02	-5.2699	-48.150918	0.000537	5.372226	1.820159	0.000215
1878	1.8676e+02	-5.2282	-47.856207	0.000740	7.399481	2.507012	0.000296
1879	1.8686e+02	-5.1897	-47.690684	0.000416	4.155873	1.408048	0.000166
1880	1.8696e+02	-5.1448	-47.456531	0.000588	5.879039	1.991872	0.000235
1881	1.8706e+02	-5.0999	-47.222377	0.000588	5.879039	1.991872	0.000235
1882	1.8716e+02	-5.0662	-46.959963	0.000659	6.588579	2.232271	0.000264
1883	1.8726e+02	-5.0229	-46.750032	0.000527	5.270863	1.785817	0.000211
1884	1.8736e+02	-4.9940	-46.495692	0.000639	6.385853	2.163586	0.000256
1885	1.8746e+02	-4.9442	-46.289798	0.000517	5.169500	1.751474	0.000207
1886	1.8756e+02	-4.8961	-46.079867	0.000527	5.270863	1.785817	0.000211
1887	1.8766e+02	-4.8656	-45.801305	0.000699	6.994030	2.369641	0.000280
1888	1.8776e+02	-4.8271	-45.611560	0.000476	4.764049	1.614104	0.000191
1889	1.8786e+02	-4.7774	-45.385480	0.000568	5.676314	1.923187	0.000227
1890	1.8796e+02	-4.7501	-45.135178	0.000628	6.284490	2.129243	0.000252
1891	1.8806e+02	-4.7084	-44.937358	0.000497	4.966775	1.682789	0.000199
1892	1.8815e+02	-4.6651	-44.654758	0.000710	7.095392	2.403984	0.000284
1893	1.8825e+02	-4.6266	-44.448864	0.000517	5.169500	1.751474	0.000207
1894	1.8835e+02	-4.5785	-44.186451	0.000659	6.588579	2.232271	0.000264
1895	1.8845e+02	-4.5496	-44.012854	0.000436	4.358598	1.476733	0.000174
1896	1.8855e+02	-4.5047	-43.738329	0.000689	6.892667	2.335299	0.000276
1897	1.8865e+02	-4.4710	-43.512249	0.000568	5.676314	1.923187	0.000227
1898	1.8875e+02	-4.4261	-43.306355	0.000517	5.169500	1.751474	0.000207
1899	1.8885e+02	-4.3940	-43.007607	0.000750	7.500843	2.541355	0.000300
1900	1.8895e+02	-4.3427	-42.838047	0.000426	4.257235	1.442390	0.000170
1901	1.8905e+02	-4.3090	-42.603893	0.000588	5.879039	1.991872	0.000235
1902	1.8915e+02	-4.2592	-42.341480	0.000659	6.588579	2.232271	0.000264
1903	1.8925e+02	-4.2288	-42.099251	0.000608	6.081765	2.060558	0.000243
1904	1.8935e+02	-4.1838	-41.913543	0.000466	4.662686	1.579761	0.000187
1905	1.8945e+02	-4.1534	-41.618832	0.000740	7.399481	2.507012	0.000296
1906	1.8955e+02	-4.1084	-41.408901	0.000527	5.270863	1.785817	0.000211
1907	1.8965e+02	-4.0619	-41.215119	0.000487	4.865412	1.648446	0.000195
1908	1.8975e+02	-4.0266	-40.972891	0.000608	6.081765	2.060558	0.000243
1909	1.8985e+02	-3.9817	-40.726625	0.000618	6.183128	2.094900	0.000248
1910	1.8995e+02	-3.9512	-40.492471	0.000588	5.879039	1.991872	0.000235
1911	1.9004e+02	-3.9063	-40.234095	0.000649	6.487216	2.197928	0.000260
1912	1.9014e+02	-3.8614	-40.020127	0.000537	5.372226	1.820159	0.000215
1913	1.9024e+02	-3.8293	-39.741564	0.000699	6.994030	2.369641	0.000280
1914	1.9034e+02	-3.7924	-39.567967	0.000436	4.358598	1.476733	0.000174
1915	1.9044e+02	-3.7555	-39.329776	0.000598	5.980402	2.026215	0.000239
1916	1.9054e+02	-3.7186	-39.051214	0.000699	6.994030	2.369641	0.000280
1917	1.9064e+02	-3.6641	-38.857431	0.000487	4.865412	1.648446	0.000195
1918	1.9074e+02	-3.6320	-38.586943	0.000679	6.791304	2.300956	0.000272
1919	1.9084e+02	-3.5935	-38.360864	0.000568	5.676314	1.923187	0.000227
1920	1.9094e+02	-3.5470	-38.122673	0.000598	5.980402	2.026215	0.000239
1921	1.9104e+02	-3.5036	-37.920816	0.000507	5.068137	1.717131	0.000203
1922	1.9114e+02	-3.4651	-37.690699	0.000578	5.777677	1.957530	0.000231
1923	1.9124e+02	-3.4331	-37.432323	0.000649	6.487216	2.197928	0.000260
1924	1.9134e+02	-3.3897	-37.202206	0.000578	5.777677	1.957530	0.000231
1925	1.9144e+02	-3.3464	-36.968052	0.000588	5.879039	1.991872	0.000235
1926	1.9154e+02	-3.3159	-36.721787	0.000618	6.183128	2.094900	0.000248
1927	1.9164e+02	-3.2726	-36.471484	0.000628	6.284490	2.129243	0.000252
1928	1.9174e+02	-3.2325	-36.225219	0.000618	6.183128	2.094900	0.000248
1929	1.9184e+02	-3.1892	-36.031436	0.000487	4.865412	1.648446	0.000195
1930	1.9194e+02	-3.1523	-35.825543	0.000517	5.169500	1.751474	0.000207
1931	1.9203e+02	-3.1138	-35.542943	0.000710	7.095392	2.403984	0.000284
1932	1.9213e+02	-3.0753	-35.353198	0.000476	4.764049	1.614104	0.000191
1933	1.9223e+02	-3.0256	-35.090784	0.000659	6.588579	2.232271	0.000264
1934	1.9233e+02	-2.9935	-34.848556	0.000608	6.081765	2.060558	0.000243
1935	1.9243e+02	-2.9630	-34.578068	0.000679	6.791304	2.300956	0.000272
1936	1.9253e+02	-2.9133	-34.356025	0.000557	5.574951	1.888845	0.000223
1937	1.9263e+02	-2.8796	-34.113797	0.000608	6.081765	2.060558	0.000243
1938	1.9273e+02	-2.8283	-33.887717	0.000568	5.676314	1.923187	0.000227
1939	1.9283e+02	-2.7914	-33.653564	0.000588	5.879039	1.991872	0.000235
1940	1.9293e+02	-2.7481	-33.387113	0.000669	6.689941	2.266613	0.000268
1941	1.9303e+02	-2.7144	-33.181219	0.000517	5.169500	1.751474	0.000207
1942	1.9313e+02	-2.6662	-32.934953	0.000618	6.183128	2.094900	0.000248
1943	1.9323e+02	-2.6325	-32.692725	0.000608	6.081765	2.060558	0.000243
1944	1.9333e+02	-2.5973	-32.470683	0.000557	5.574951	1.888845	0.000223
1945	1.9343e+02	-2.5411	-32.216343	0.000639	6.385853	2.163586	0.000256
1946	1.9353e+02	-2.5106	-31.957967	0.000649	6.487216	2.197928	0.000260
1947	1.9363e+02	-2.4801	-31.735924	0.000557	5.574951	1.888845	0.000223
1948	1.9373e+02	-2.4288	-31.493696	0.000608	6.081765	2.060558	0.000243
1949	1.9383e+02	-2.3903	-31.279728	0.000537	5.372226	1.820159	0.000215
1950	1.9393e+02	-2.3550	-31.001165	0.000699	6.994030	2.369641	0.000280
1951	1.9403e+02	-2.3117	-30.742789	0.000649	6.487216	2.197928	0.000260
1952	1.9412e+02	-2.2748	-30.540932	0.000507	5.068137	1.717131	0.000203
1953	1.9422e+02	-2.2347	-30.294667	0.000618	6.183128	2.094900	0.000248
1954	1.9432e+02	-2.1978	-30.048401	0.000618	6.183128	2.094900	0.000248
1955	1.9442e+02	-2.1497	-29.802136	0.000618	6.183128	2.094900	0.000248
1956	1.9452e+02	-2.1144	-29.559908	0.000608	6.081765	2.060558	0.000243
1957	1.9462e+02	-2.0807	-29.329791	0.000578	5.777677	1.957530	0.000231
1958	1.9472e+02	-2.0454	-29.087563	0.000608	6.081765	2.060558	0.000243
1959	1.9482e+02	-1.9941	-28.813038	0.000689	6.892667	2.335299	0.000276
1960	1.9492e+02	-1.9572	-28.611181	0.000507	5.068137	1.717131	0.000203
1961	1.9502e+02	-1.9155	-28.328581	0.000710	7.095392	2.403984	0.000284
1962	1.9512e+02	-1.8737	-28.126725	0.000507	5.068137	1.717131	0.000203
1963	1.9522e+02	-1.8304	-27.856237	0.000679	6.791304	2.300956	0.000272
1964	1.9532e+02	-1.7887	-27.622083	0.000588	5.879039	1.991872	0.000235
1965	1.9542e+02	-1.7518	-27.375817	0.000618	6.183128	2.094900	0.000248
1966	1.9552e+02	-1.7133	-27.137626	0.000598	5.980402	2.026215	0.000239
1967	1.9562e+02	-1.6748	-26.875213	0.000659	6.588579	2.232271	0.000264
1968	1.9572e+02	-1.6331	-26.612799	0.000659	6.588579	2.232271	0.000264
1969	1.9582e+02	-1.5882	-26.362496	0.000628	6.284490	2.129243	0.000252
1970	1.9592e+02	-1.5529	-26.132380	0.000578	5.777677	1.957530	0.000231
1971	1.9601e+02	-1.5224	-25.930523	0.000507	5.068137	1.717131	0.000203
1972	1.9611e+02	-1.4759	-25.660035	0.000679	6.791304	2.300956	0.000272
1973	1.9621e+02	-1.4358	-25.417807	0.000608	6.081765	2.060558	0.000243
1974	1.9631e+02	-1.4037	-25.155393	0.000659	6.588579	2.232271	0.000264
1975	1.9641e+02	-1.3620	-24.897016	0.000649	6.487216	2.197928	0.000260
1976	1.9651e+02	-1.3187	-24.679011	0.000547	5.473588	1.854502	0.000219
1977	1.9661e+02	-1.2754	-24.448894	0.000578	5.777677	1.957530	0.000231
1978	1.9671e+02	-1.2401	-24.202629	0.000618	6.183128	2.094900	0.000248
1979	1.9681e+02	-1.1968	-23.932141	0.000679	6.791304	2.300956	0.000272
1980	1.9691e+02	-1.1615	-23.697987	0.000588	5.879039	1.991872	0.000235
1981	1.9701e+02	-1.1262	-23.447684	0.000628	6.284490	2.129243	0.000252
1982	1.9711e+02	-1.0668	-23.165085	0.000710	7.095392	2.403984	0.000284
1983	1.9721e+02	-1.0460	-22.951117	0.000537	5.372226	1.820159	0.000215
1984	1.9731e+02	-1.0010	-22.664480	0.000720	7.196755	2.438327	0.000288
1985	1.9741e+02	-0.9609	-22.381881	0.000710	7.095392	2.403984	0.000284
1986	1.9751e+02	-0.9289	-22.180024	0.000507	5.068137	1.717131	0.000203
1987	1.9761e+02	-0.8727	-21.893387	0.000720	7.196755	2.438327	0.000288
1988	1.9771e+02	-0.8358	-21.707679	0.000466	4.662686	1.579761	0.000187
1989	1.9781e+02	-0.7925	-21.441228	0.000669	6.689941	2.266613	0.000268
1990	1.9791e+02	-0.7604	-21.190925	0.000628	6.284490	2.129243	0.000252
1991	1.9800e+02	-0.7203	-20.960809	0.000578	5.777677	1.957530	0.000231
1992	1.9810e+02	-0.6834	-20.702432	0.000649	6.487216	2.197928	0.000260
1993	1.9820e+02	-0.6401	-20.464241	0.000598	5.980402	2.026215	0.000239
1994	1.9830e+02	-0.6016	-20.209902	0.000639	6.385853	2.163586	0.000256
1995	1.9840e+02	-0.5583	-19.939413	0.000679	6.791304	2.300956	0.000272
1996	1.9850e+02	-0.5310	-19.713334	0.000568	5.676314	1.923187	0.000227
1997	1.9860e+02	-0.4829	-19.414586	0.000750	7.500843	2.541355	0.000300
1998	1.9870e+02	-0.4331	-19.184469	0.000578	5.777677	1.957530	0.000231
1999	1.9880e+02	-0.3978	-18.926092	0.000649	6.487216	2.197928	0.000260
2000	1.9890e+02	-0.3642	-18.679827	0.000618	6.183128	2.094900	0.000248
2001	1.9900e+02	-0.3273	-18.461822	0.000547	5.473588	1.854502	0.000219
2002	1.9910e+02	-0.2743	-18.171148	0.000730	7.298118	2.472669	0.000292
2003	1.9920e+02	-0.2390	-17.936994	0.000588	5.879039	1.991872	0.000235
2004	1.9930e+02	-0.2037	-17.686692	0.000628	6.284490	2.129243	0.000252
2005	1.9940e+02	-0.1668	-17.452538	0.000588	5.879039	1.991872	0.000235
2006	1.9950e+02	-0.1235	-17.190124	0.000659	6.588579	2.232271	0.000264
2007	1.9960e+02	-0.0738	-16.935784	0.000639	6.385853	2.163586	0.000256
2008	1.9970e+02	-0.0353	-16.669333	0.000669	6.689941	2.266613	0.000268
2009	1.9980e+02	0.0064	-16.423068	0.000669	6.689941	2.266613	0.000248

PMax (uC/cm2):	1.22e+02
Pr (uC/cm2):	7.62e+00
-Pr (uC/cm2):	-1.03e+01
PLoss (uC/cm2):	-1.02e+01
-Vc:	-1.21e+00
C (Max-Eff) (nF):	6.09e-01
K (Eff):	2.06e+03
Vert. (+/-Pr) Shift (uC/cm2):	-1.32e+00
Offset (uC/cm2):	6.16e+00

A (Loop Area - uC/cm2·Volts):	1.64e-01



Hysteresis Version: 5.48.1 - Radiant Technologies, Inc., 1999 - 9/12/24

