»»»»»»»»»»»»»»»»»»»»»»»»»»»»»»»»»»»» Hysteresis ««««««««««««««««««««««««««««««««««««
»»»  Executed Version:	5.48.1
»»»  Vision Version:	5.48.4 (R)
»»»  Vision Compiled:	9/18/24
»»»  Driver Version:	5.47.0
»»»  Windows Version:	Windows 8 or 8.1
»»»  Processor Information:	x86 (AMD or Intel) - 32 Processors
»»»  Tester Name:	PMF21124-494 (100V)
»»»  Tester S/N:	PMF21124-494
»»»  Internal Amp Type:	100V RevK 270k
»»»  Internal Amp S/N:	iAB2-596/K     
»»»  Execution Count:	1
»»»»»»»»»»»»»»»»»»»»»»»»»»»»»»»»»»»»»»»»»»««««««««««««««««««««««««««««««««««««««««««

Stored:	6/18/2025 - 14:1:35
Configured:	06/18/25 09:47:30 AM
Executed:	06/18/25 02:00:32 PM

»»»»»»»»»»»»»»»»»»»»»»»»»»»»»»»»»»» Sample Info ««««««««««««««««««««««««««««««««««««
Sample Name:	
Lot Name:	
Wafer Name:	
Die Row/Column:	0/0
Capacitor Number:	0
Sample Area (cm2):	1.00e-04
Sample Thickness (microns):	3.00e-01

Amplifier:	Internal

»»»»»»»»»»»»»»»»»»»»»»»»»»»»»»»»»»» Tester Info «««««««««««««««««««««««««««««««««««
Tester Name:	PMF21124-494 (100V)
Tester Serial Number:	PMF21124-494
Return Signal Amp. Level:	0.19 [Index: 3]

»»»»»»»»»»»»»»»»»»»»»»»»»»»»»»»» Hysteresis Info ««««««««««««««««««««««««««««««««««
Task Name:	Hyst-554
Volts:	20.00
Field:	666.67 (kV/cm)
DCBias:	0.00
DCField:	0.00 (kV/cm)
Hysteresis Period (ms):	2.00e+02
Preset:	Enabled
Preset Delay (ms):	1.00e+03
Profile:	Standard Bipolar

»»»»»»»»»»»»»»»»»»»»»»»»»»»»»»»»»»»»»» Data «««««««««««««««««««««««««««««««««««««««
Points:	2009

Valid Data

Point	Time (ms)	Drive Voltage	Measured Polarization (uC/cm2)	Capacitance (uF)	Normalized Capacitance (uF/cm2)	Dielectric Constant	Instantaneous Current (mA)
   1	0.0000e+00	0.0080	-15.078702	0.000659	6.587786	2.232002	0.000264
   2	9.9500e-02	0.0321	-14.816288	0.000659	6.587786	2.232002	0.000264
   3	1.9900e-01	0.0850	-14.529652	0.000720	7.195889	2.438033	0.000288
   4	2.9850e-01	0.1155	-14.214755	0.000791	7.905343	2.678403	0.000316
   5	3.9800e-01	0.1508	-13.932155	0.000709	7.094538	2.403695	0.000284
   6	4.9750e-01	0.1909	-13.649556	0.000709	7.094538	2.403695	0.000284
   7	5.9700e-01	0.2326	-13.370994	0.000699	6.993188	2.369356	0.000280
   8	6.9650e-01	0.2663	-13.007651	0.000912	9.121549	3.090465	0.000365
   9	7.9600e-01	0.3192	-12.721015	0.000720	7.195889	2.438033	0.000288
  10	8.9550e-01	0.3513	-12.458601	0.000659	6.587786	2.232002	0.000264
  11	9.9500e-01	0.3834	-12.151779	0.000770	7.702642	2.609726	0.000308
  12	1.0945e+00	0.4299	-11.776325	0.000943	9.425601	3.193480	0.000377
  13	1.1940e+00	0.4749	-11.558320	0.000547	5.472930	1.854279	0.000219
  14	1.2935e+00	0.5134	-11.227274	0.000831	8.310745	2.815757	0.000333
  15	1.3930e+00	0.5583	-10.920452	0.000770	7.702642	2.609726	0.000308
  16	1.4925e+00	0.5968	-10.637853	0.000709	7.094538	2.403695	0.000284
  17	1.5920e+00	0.6321	-10.343142	0.000740	7.398590	2.506710	0.000296
  18	1.6915e+00	0.6658	-9.991911	0.000882	8.817498	2.987449	0.000353
  19	1.7910e+00	0.7139	-9.693163	0.000750	7.499941	2.541049	0.000300
  20	1.8905e+00	0.7492	-9.410563	0.000709	7.094538	2.403695	0.000284
  21	1.9900e+00	0.7845	-9.087593	0.000811	8.108044	2.747080	0.000325
  22	2.0895e+00	0.8358	-8.764622	0.000811	8.108044	2.747080	0.000325
  23	2.1890e+00	0.8695	-8.482022	0.000709	7.094538	2.403695	0.000284
  24	2.2885e+00	0.9048	-8.179237	0.000760	7.601291	2.575387	0.000304
  25	2.3880e+00	0.9497	-7.848192	0.000831	8.310745	2.815757	0.000333
  26	2.4875e+00	0.9898	-7.533295	0.000791	7.905343	2.678403	0.000316
  27	2.5870e+00	1.0283	-7.202250	0.000831	8.310745	2.815757	0.000333
  28	2.6865e+00	1.0620	-6.923688	0.000699	6.993188	2.369356	0.000280
  29	2.7860e+00	1.1037	-6.620903	0.000760	7.601291	2.575387	0.000304
  30	2.8855e+00	1.1534	-6.233338	0.000973	9.729653	3.296496	0.000390
  31	2.9850e+00	1.1984	-5.970924	0.000659	6.587786	2.232002	0.000264
  32	3.0845e+00	1.2304	-5.664101	0.000770	7.702642	2.609726	0.000308
  33	3.1840e+00	1.2722	-5.337093	0.000821	8.209395	2.781418	0.000329
  34	3.2835e+00	1.3058	-5.038345	0.000750	7.499941	2.541049	0.000300
  35	3.3830e+00	1.3556	-4.715375	0.000811	8.108044	2.747080	0.000325
  36	3.4825e+00	1.3909	-4.428738	0.000720	7.195889	2.438033	0.000288
  37	3.5820e+00	1.4214	-4.101730	0.000821	8.209395	2.781418	0.000329
  38	3.6815e+00	1.4727	-3.766648	0.000841	8.412096	2.850095	0.000337
  39	3.7810e+00	1.5160	-3.439640	0.000821	8.209395	2.781418	0.000329
  40	3.8805e+00	1.5465	-3.100520	0.000851	8.513446	2.884434	0.000341
  41	3.9800e+00	1.5866	-2.834069	0.000669	6.689136	2.266341	0.000268
  42	4.0795e+00	1.6283	-2.523210	0.000780	7.803992	2.644064	0.000312
  43	4.1790e+00	1.6588	-2.171979	0.000882	8.817498	2.987449	0.000353
  44	4.2785e+00	1.7085	-1.844971	0.000821	8.209395	2.781418	0.000329
  45	4.3780e+00	1.7470	-1.505852	0.000851	8.513446	2.884434	0.000341
  46	4.4775e+00	1.7871	-1.235364	0.000679	6.790487	2.300679	0.000272
  47	4.5770e+00	1.8208	-0.904318	0.000831	8.310745	2.815757	0.000333
  48	4.6765e+00	1.8689	-0.569236	0.000841	8.412096	2.850095	0.000337
  49	4.7760e+00	1.9138	-0.226080	0.000861	8.614797	2.918772	0.000345
  50	4.8755e+00	1.9491	0.044408	0.000679	6.790487	2.300679	0.000272
  51	4.9750e+00	1.9780	0.375454	0.000831	8.310745	2.815757	0.000333
  52	5.0745e+00	2.0245	0.714573	0.000851	8.513446	2.884434	0.000341
  53	5.1740e+00	2.0679	1.037544	0.000811	8.108044	2.747080	0.000325
  54	5.2735e+00	2.1080	1.372626	0.000841	8.412096	2.850095	0.000337
  55	5.3730e+00	2.1417	1.691560	0.000801	8.006693	2.712741	0.000321
  56	5.4725e+00	2.1785	2.034716	0.000861	8.614797	2.918772	0.000345
  57	5.5720e+00	2.2299	2.341539	0.000770	7.702642	2.609726	0.000308
  58	5.6715e+00	2.2604	2.692770	0.000882	8.817498	2.987449	0.000353
  59	5.7710e+00	2.3101	2.979406	0.000720	7.195889	2.438033	0.000288
  60	5.8705e+00	2.3342	3.322563	0.000861	8.614797	2.918772	0.000345
  61	5.9700e+00	2.3903	3.653608	0.000831	8.310745	2.815757	0.000333
  62	6.0695e+00	2.4144	3.980616	0.000821	8.209395	2.781418	0.000329
  63	6.1690e+00	2.4577	4.311661	0.000831	8.310745	2.815757	0.000333
  64	6.2685e+00	2.5010	4.646743	0.000841	8.412096	2.850095	0.000337
  65	6.3680e+00	2.5459	4.969714	0.000811	8.108044	2.747080	0.000325
  66	6.4675e+00	2.5828	5.312871	0.000861	8.614797	2.918772	0.000345
  67	6.5670e+00	2.6325	5.631804	0.000801	8.006693	2.712741	0.000321
  68	6.6665e+00	2.6759	5.978998	0.000872	8.716147	2.953111	0.000349
  69	6.7660e+00	2.6951	6.269672	0.000730	7.297240	2.472372	0.000292
  70	6.8655e+00	2.7464	6.592643	0.000811	8.108044	2.747080	0.000325
  71	6.9650e+00	2.7833	6.968096	0.000943	9.425601	3.193480	0.000377
  72	7.0645e+00	2.8283	7.270881	0.000760	7.601291	2.575387	0.000304
  73	7.1640e+00	2.8652	7.601927	0.000831	8.310745	2.815757	0.000333
  74	7.2635e+00	2.9133	7.953157	0.000882	8.817498	2.987449	0.000353
  75	7.3630e+00	2.9454	8.300351	0.000872	8.716147	2.953111	0.000349
  76	7.4625e+00	2.9823	8.611211	0.000780	7.803992	2.644064	0.000312
  77	7.5620e+00	3.0208	8.930144	0.000801	8.006693	2.712741	0.000321
  78	7.6615e+00	3.0673	9.269264	0.000851	8.513446	2.884434	0.000341
  79	7.7610e+00	3.0994	9.563975	0.000740	7.398590	2.506710	0.000296
  80	7.8605e+00	3.1459	9.923280	0.000902	9.020199	3.056126	0.000361
  81	7.9600e+00	3.1812	10.230102	0.000770	7.702642	2.609726	0.000308
  82	8.0595e+00	3.2277	10.569221	0.000851	8.513446	2.884434	0.000341
  83	8.1590e+00	3.2550	10.932564	0.000912	9.121549	3.090465	0.000365
  84	8.2585e+00	3.2999	11.283794	0.000882	8.817498	2.987449	0.000353
  85	8.3580e+00	3.3480	11.578505	0.000740	7.398590	2.506710	0.000296
  86	8.4575e+00	3.3817	11.913588	0.000841	8.412096	2.850095	0.000337
  87	8.5570e+00	3.4186	12.264818	0.000882	8.817498	2.987449	0.000353
  88	8.6565e+00	3.4635	12.607975	0.000861	8.614797	2.918772	0.000345
  89	8.7560e+00	3.5052	12.930946	0.000811	8.108044	2.747080	0.000325
  90	8.8555e+00	3.5373	13.245842	0.000791	7.905343	2.678403	0.000316
  91	8.9550e+00	3.5871	13.593036	0.000872	8.716147	2.953111	0.000349
  92	9.0545e+00	3.6095	13.895821	0.000760	7.601291	2.575387	0.000304
  93	9.1540e+00	3.6609	14.287423	0.000983	9.831003	3.330834	0.000394
  94	9.2535e+00	3.7026	14.610394	0.000811	8.108044	2.747080	0.000325
  95	9.3530e+00	3.7443	14.937402	0.000821	8.209395	2.781418	0.000329
  96	9.4525e+00	3.7764	15.288633	0.000882	8.817498	2.987449	0.000353
  97	9.5520e+00	3.8165	15.615641	0.000821	8.209395	2.781418	0.000329
  98	9.6515e+00	3.8566	15.906315	0.000730	7.297240	2.472372	0.000292
  99	9.7510e+00	3.8983	16.249471	0.000861	8.614797	2.918772	0.000345
 100	9.8505e+00	3.9400	16.592628	0.000861	8.614797	2.918772	0.000345
 101	9.9500e+00	3.9865	16.947896	0.000892	8.918848	3.021788	0.000357
 102	1.0050e+01	4.0202	17.282978	0.000841	8.412096	2.850095	0.000337
 103	1.0149e+01	4.0571	17.642283	0.000902	9.020199	3.056126	0.000361
 104	1.0248e+01	4.0988	17.941031	0.000750	7.499941	2.541049	0.000300
 105	1.0348e+01	4.1437	18.272076	0.000831	8.310745	2.815757	0.000333
 106	1.0447e+01	4.1790	18.615233	0.000861	8.614797	2.918772	0.000345
 107	1.0547e+01	4.2207	18.966464	0.000882	8.817498	2.987449	0.000353
 108	1.0646e+01	4.2560	19.317695	0.000882	8.817498	2.987449	0.000353
 109	1.0746e+01	4.3058	19.604331	0.000720	7.195889	2.438033	0.000288
 110	1.0845e+01	4.3427	19.967673	0.000912	9.121549	3.090465	0.000365
 111	1.0945e+01	4.3780	20.302756	0.000841	8.412096	2.850095	0.000337
 112	1.1044e+01	4.4261	20.658024	0.000892	8.918848	3.021788	0.000357
 113	1.1144e+01	4.4582	20.972920	0.000791	7.905343	2.678403	0.000316
 114	1.1243e+01	4.4983	21.348374	0.000943	9.425601	3.193480	0.000377
 115	1.1343e+01	4.5384	21.655196	0.000770	7.702642	2.609726	0.000308
 116	1.1443e+01	4.5689	22.002390	0.000872	8.716147	2.953111	0.000349
 117	1.1542e+01	4.6122	22.317286	0.000791	7.905343	2.678403	0.000316
 118	1.1642e+01	4.6635	22.672554	0.000892	8.918848	3.021788	0.000357
 119	1.1741e+01	4.7068	23.003599	0.000831	8.310745	2.815757	0.000333
 120	1.1841e+01	4.7389	23.375016	0.000932	9.324251	3.159142	0.000373
 121	1.1940e+01	4.7790	23.718172	0.000861	8.614797	2.918772	0.000345
 122	1.2040e+01	4.8255	24.049218	0.000831	8.310745	2.815757	0.000333
 123	1.2139e+01	4.8512	24.331817	0.000709	7.094538	2.403695	0.000284
 124	1.2239e+01	4.8945	24.719382	0.000973	9.729653	3.296496	0.000390
 125	1.2338e+01	4.9346	25.042353	0.000811	8.108044	2.747080	0.000325
 126	1.2438e+01	4.9683	25.381472	0.000851	8.513446	2.884434	0.000341
 127	1.2537e+01	5.0180	25.688295	0.000770	7.702642	2.609726	0.000308
 128	1.2636e+01	5.0581	26.092008	0.001014	10.135055	3.433850	0.000406
 129	1.2736e+01	5.0838	26.366534	0.000689	6.891837	2.335018	0.000276
 130	1.2835e+01	5.1303	26.677393	0.000780	7.803992	2.644064	0.000312
 131	1.2935e+01	5.1753	27.024587	0.000872	8.716147	2.953111	0.000349
 132	1.3034e+01	5.2154	27.371780	0.000872	8.716147	2.953111	0.000349
 133	1.3134e+01	5.2555	27.718974	0.000872	8.716147	2.953111	0.000349
 134	1.3233e+01	5.2940	28.070205	0.000882	8.817498	2.987449	0.000353
 135	1.3333e+01	5.3293	28.377027	0.000770	7.702642	2.609726	0.000308
 136	1.3432e+01	5.3758	28.760555	0.000963	9.628302	3.262157	0.000385
 137	1.3532e+01	5.4143	29.059303	0.000750	7.499941	2.541049	0.000300
 138	1.3632e+01	5.4544	29.438794	0.000953	9.526952	3.227819	0.000381
 139	1.3731e+01	5.4929	29.709282	0.000679	6.790487	2.300679	0.000272
 140	1.3831e+01	5.5378	30.084736	0.000943	9.425601	3.193480	0.000377
 141	1.3930e+01	5.5667	30.411744	0.000821	8.209395	2.781418	0.000329
 142	1.4030e+01	5.6164	30.767011	0.000892	8.918848	3.021788	0.000357
 143	1.4129e+01	5.6453	31.081908	0.000791	7.905343	2.678403	0.000316
 144	1.4229e+01	5.6950	31.416990	0.000841	8.412096	2.850095	0.000337
 145	1.4328e+01	5.7351	31.743998	0.000821	8.209395	2.781418	0.000329
 146	1.4428e+01	5.7688	32.099266	0.000892	8.918848	3.021788	0.000357
 147	1.4527e+01	5.8105	32.398014	0.000750	7.499941	2.541049	0.000300
 148	1.4627e+01	5.8506	32.712911	0.000791	7.905343	2.678403	0.000316
 149	1.4726e+01	5.8940	33.060105	0.000872	8.716147	2.953111	0.000349
 150	1.4825e+01	5.9389	33.370964	0.000780	7.803992	2.644064	0.000312
 151	1.4925e+01	5.9677	33.726232	0.000892	8.918848	3.021788	0.000357
 152	1.5024e+01	6.0095	34.049203	0.000811	8.108044	2.747080	0.000325
 153	1.5124e+01	6.0512	34.420619	0.000932	9.324251	3.159142	0.000373
 154	1.5223e+01	6.0897	34.767813	0.000872	8.716147	2.953111	0.000349
 155	1.5323e+01	6.1346	35.094821	0.000821	8.209395	2.781418	0.000329
 156	1.5422e+01	6.1651	35.377420	0.000709	7.094538	2.403695	0.000284
 157	1.5522e+01	6.2116	35.756911	0.000953	9.526952	3.227819	0.000381
 158	1.5621e+01	6.2565	36.071808	0.000791	7.905343	2.678403	0.000316
 159	1.5721e+01	6.2774	36.414964	0.000861	8.614797	2.918772	0.000345
 160	1.5820e+01	6.3223	36.754084	0.000851	8.513446	2.884434	0.000341
 161	1.5920e+01	6.3736	37.081092	0.000821	8.209395	2.781418	0.000329
 162	1.6020e+01	6.4009	37.363691	0.000709	7.094538	2.403695	0.000284
 163	1.6119e+01	6.4570	37.759331	0.000993	9.932354	3.365173	0.000398
 164	1.6218e+01	6.4907	38.066153	0.000770	7.702642	2.609726	0.000308
 165	1.6318e+01	6.5276	38.405272	0.000851	8.513446	2.884434	0.000341
 166	1.6418e+01	6.5693	38.728243	0.000811	8.108044	2.747080	0.000325
 167	1.6517e+01	6.6126	39.059288	0.000831	8.310745	2.815757	0.000333
 168	1.6616e+01	6.6447	39.414556	0.000892	8.918848	3.021788	0.000357
 169	1.6716e+01	6.6800	39.721379	0.000770	7.702642	2.609726	0.000308
 170	1.6816e+01	6.7282	40.036275	0.000791	7.905343	2.678403	0.000316
 171	1.6915e+01	6.7650	40.379432	0.000861	8.614797	2.918772	0.000345
 172	1.7015e+01	6.8132	40.750848	0.000932	9.324251	3.159142	0.000373
 173	1.7114e+01	6.8517	41.053633	0.000760	7.601291	2.575387	0.000304
 174	1.7213e+01	6.8741	41.388716	0.000841	8.412096	2.850095	0.000337
 175	1.7313e+01	6.9223	41.711686	0.000811	8.108044	2.747080	0.000325
 176	1.7413e+01	6.9672	42.103289	0.000983	9.831003	3.330834	0.000394
 177	1.7512e+01	7.0073	42.402037	0.000750	7.499941	2.541049	0.000300
 178	1.7611e+01	7.0490	42.704822	0.000760	7.601291	2.575387	0.000304
 179	1.7711e+01	7.0715	43.060090	0.000892	8.918848	3.021788	0.000357
 180	1.7811e+01	7.1308	43.383061	0.000811	8.108044	2.747080	0.000325
 181	1.7910e+01	7.1645	43.730254	0.000872	8.716147	2.953111	0.000349
 182	1.8009e+01	7.2126	44.045151	0.000791	7.905343	2.678403	0.000316
 183	1.8109e+01	7.2479	44.396382	0.000882	8.817498	2.987449	0.000353
 184	1.8209e+01	7.2736	44.711278	0.000791	7.905343	2.678403	0.000316
 185	1.8308e+01	7.3313	45.082695	0.000932	9.324251	3.159142	0.000373
 186	1.8407e+01	7.3682	45.381443	0.000750	7.499941	2.541049	0.000300
 187	1.8507e+01	7.4051	45.732674	0.000882	8.817498	2.987449	0.000353
 188	1.8607e+01	7.4468	46.055644	0.000811	8.108044	2.747080	0.000325
 189	1.8706e+01	7.4886	46.394764	0.000851	8.513446	2.884434	0.000341
 190	1.8805e+01	7.5287	46.693512	0.000750	7.499941	2.541049	0.000300
 191	1.8905e+01	7.5720	47.016483	0.000811	8.108044	2.747080	0.000325
 192	1.9005e+01	7.6073	47.359639	0.000861	8.614797	2.918772	0.000345
 193	1.9104e+01	7.6458	47.710870	0.000882	8.817498	2.987449	0.000353
 194	1.9203e+01	7.6763	48.041915	0.000831	8.310745	2.815757	0.000333
 195	1.9303e+01	7.7212	48.364886	0.000811	8.108044	2.747080	0.000325
 196	1.9402e+01	7.7613	48.695931	0.000831	8.310745	2.815757	0.000333
 197	1.9502e+01	7.8014	49.006791	0.000780	7.803992	2.644064	0.000312
 198	1.9602e+01	7.8479	49.362059	0.000892	8.918848	3.021788	0.000357
 199	1.9701e+01	7.8832	49.689067	0.000821	8.209395	2.781418	0.000329
 200	1.9800e+01	7.9169	49.979740	0.000730	7.297240	2.472372	0.000292
 201	1.9900e+01	7.9522	50.343083	0.000912	9.121549	3.090465	0.000365
 202	2.0000e+01	8.0019	50.678165	0.000841	8.412096	2.850095	0.000337
 203	2.0099e+01	8.0436	50.993062	0.000791	7.905343	2.678403	0.000316
 204	2.0198e+01	8.0869	51.303921	0.000780	7.803992	2.644064	0.000312
 205	2.0298e+01	8.1222	51.630929	0.000821	8.209395	2.781418	0.000329
 206	2.0398e+01	8.1607	51.953900	0.000811	8.108044	2.747080	0.000325
 207	2.0497e+01	8.2105	52.309168	0.000892	8.918848	3.021788	0.000357
 208	2.0596e+01	8.2425	52.607916	0.000750	7.499941	2.541049	0.000300
 209	2.0696e+01	8.2778	52.979332	0.000932	9.324251	3.159142	0.000373
 210	2.0796e+01	8.3179	53.322489	0.000861	8.614797	2.918772	0.000345
 211	2.0895e+01	8.3613	53.641423	0.000801	8.006693	2.712741	0.000321
 212	2.0994e+01	8.3933	53.932096	0.000730	7.297240	2.472372	0.000292
 213	2.1094e+01	8.4511	54.283327	0.000882	8.817498	2.987449	0.000353
 214	2.1194e+01	8.4784	54.638595	0.000892	8.918848	3.021788	0.000357
 215	2.1293e+01	8.5185	54.933306	0.000740	7.398590	2.506710	0.000296
 216	2.1392e+01	8.5666	55.284537	0.000882	8.817498	2.987449	0.000353
 217	2.1492e+01	8.6019	55.595396	0.000780	7.803992	2.644064	0.000312
 218	2.1591e+01	8.6404	55.914330	0.000801	8.006693	2.712741	0.000321
 219	2.1691e+01	8.6805	56.277672	0.000912	9.121549	3.090465	0.000365
 220	2.1791e+01	8.7286	56.592569	0.000791	7.905343	2.678403	0.000316
 221	2.1890e+01	8.7655	56.883243	0.000730	7.297240	2.472372	0.000292
 222	2.1989e+01	8.8040	57.218325	0.000841	8.412096	2.850095	0.000337
 223	2.2089e+01	8.8393	57.541296	0.000811	8.108044	2.747080	0.000325
 224	2.2189e+01	8.8746	57.900601	0.000902	9.020199	3.056126	0.000361
 225	2.2288e+01	8.9163	58.223572	0.000811	8.108044	2.747080	0.000325
 226	2.2387e+01	8.9677	58.550580	0.000821	8.209395	2.781418	0.000329
 227	2.2487e+01	9.0046	58.881625	0.000831	8.310745	2.815757	0.000333
 228	2.2587e+01	9.0399	59.232856	0.000882	8.817498	2.987449	0.000353
 229	2.2686e+01	9.0751	59.507381	0.000689	6.891837	2.335018	0.000276
 230	2.2785e+01	9.1185	59.866686	0.000902	9.020199	3.056126	0.000361
 231	2.2885e+01	9.1570	60.205805	0.000851	8.513446	2.884434	0.000341
 232	2.2985e+01	9.1971	60.496479	0.000730	7.297240	2.472372	0.000292
 233	2.3084e+01	9.2292	60.855784	0.000902	9.020199	3.056126	0.000361
 234	2.3183e+01	9.2821	61.194904	0.000851	8.513446	2.884434	0.000341
 235	2.3283e+01	9.3158	61.517874	0.000811	8.108044	2.747080	0.000325
 236	2.3383e+01	9.3591	61.820660	0.000760	7.601291	2.575387	0.000304
 237	2.3482e+01	9.3976	62.184002	0.000912	9.121549	3.090465	0.000365
 238	2.3581e+01	9.4329	62.506973	0.000811	8.108044	2.747080	0.000325
 239	2.3681e+01	9.4762	62.801684	0.000740	7.398590	2.506710	0.000296
 240	2.3780e+01	9.5227	63.140803	0.000851	8.513446	2.884434	0.000341
 241	2.3880e+01	9.5596	63.459737	0.000801	8.006693	2.712741	0.000321
 242	2.3980e+01	9.5997	63.770596	0.000780	7.803992	2.644064	0.000312
 243	2.4079e+01	9.6286	64.093567	0.000811	8.108044	2.747080	0.000325
 244	2.4178e+01	9.6831	64.440761	0.000872	8.716147	2.953111	0.000349
 245	2.4278e+01	9.7233	64.759694	0.000801	8.006693	2.712741	0.000321
 246	2.4378e+01	9.7569	65.066517	0.000770	7.702642	2.609726	0.000308
 247	2.4477e+01	9.7922	65.421785	0.000892	8.918848	3.021788	0.000357
 248	2.4576e+01	9.8388	65.712458	0.000730	7.297240	2.472372	0.000292
 249	2.4676e+01	9.8805	66.075801	0.000912	9.121549	3.090465	0.000365
 250	2.4776e+01	9.9206	66.414920	0.000851	8.513446	2.884434	0.000341
 251	2.4875e+01	9.9591	66.701557	0.000720	7.195889	2.438033	0.000288
 252	2.4974e+01	9.9992	67.000305	0.000750	7.499941	2.541049	0.000300
 253	2.5074e+01	10.0377	67.319238	0.000801	8.006693	2.712741	0.000321
 254	2.5174e+01	10.0714	67.698729	0.000953	9.526952	3.227819	0.000381
 255	2.5273e+01	10.1195	67.985366	0.000720	7.195889	2.438033	0.000288
 256	2.5372e+01	10.1548	68.332560	0.000872	8.716147	2.953111	0.000349
 257	2.5472e+01	10.1933	68.615159	0.000709	7.094538	2.403695	0.000284
 258	2.5572e+01	10.2350	68.926018	0.000780	7.803992	2.644064	0.000312
 259	2.5671e+01	10.2799	69.277249	0.000882	8.817498	2.987449	0.000353
 260	2.5770e+01	10.3168	69.616369	0.000851	8.513446	2.884434	0.000341
 261	2.5870e+01	10.3537	69.939340	0.000811	8.108044	2.747080	0.000325
 262	2.5970e+01	10.3858	70.213865	0.000689	6.891837	2.335018	0.000276
 263	2.6069e+01	10.4323	70.557021	0.000861	8.614797	2.918772	0.000345
 264	2.6169e+01	10.4853	70.884029	0.000821	8.209395	2.781418	0.000329
 265	2.6268e+01	10.5093	71.178740	0.000740	7.398590	2.506710	0.000296
 266	2.6367e+01	10.5478	71.534008	0.000892	8.918848	3.021788	0.000357
 267	2.6467e+01	10.5911	71.861016	0.000821	8.209395	2.781418	0.000329
 268	2.6567e+01	10.6313	72.175913	0.000791	7.905343	2.678403	0.000316
 269	2.6666e+01	10.6778	72.478698	0.000760	7.601291	2.575387	0.000304
 270	2.6765e+01	10.7083	72.809743	0.000831	8.310745	2.815757	0.000333
 271	2.6865e+01	10.7580	73.088305	0.000699	6.993188	2.369356	0.000280
 272	2.6965e+01	10.7869	73.431462	0.000861	8.614797	2.918772	0.000345
 273	2.7064e+01	10.8334	73.754433	0.000811	8.108044	2.747080	0.000325
 274	2.7163e+01	10.8687	74.089515	0.000841	8.412096	2.850095	0.000337
 275	2.7263e+01	10.9136	74.368077	0.000699	6.993188	2.369356	0.000280
 276	2.7363e+01	10.9521	74.735457	0.000922	9.222900	3.124803	0.000369
 277	2.7462e+01	10.9906	75.034205	0.000750	7.499941	2.541049	0.000300
 278	2.7561e+01	11.0275	75.377361	0.000861	8.614797	2.918772	0.000345
 279	2.7661e+01	11.0772	75.643812	0.000669	6.689136	2.266341	0.000268
 280	2.7761e+01	11.1077	75.962746	0.000801	8.006693	2.712741	0.000321
 281	2.7860e+01	11.1542	76.334163	0.000932	9.324251	3.159142	0.000373
 282	2.7959e+01	11.1879	76.640985	0.000770	7.702642	2.609726	0.000308
 283	2.8059e+01	11.2280	76.976067	0.000841	8.412096	2.850095	0.000337
 284	2.8159e+01	11.2713	77.262704	0.000720	7.195889	2.438033	0.000288
 285	2.8258e+01	11.3098	77.609897	0.000872	8.716147	2.953111	0.000349
 286	2.8358e+01	11.3516	77.896534	0.000720	7.195889	2.438033	0.000288
 287	2.8457e+01	11.3917	78.219505	0.000811	8.108044	2.747080	0.000325
 288	2.8556e+01	11.4270	78.534402	0.000791	7.905343	2.678403	0.000316
 289	2.8656e+01	11.4783	78.873521	0.000851	8.513446	2.884434	0.000341
 290	2.8756e+01	11.5088	79.196492	0.000811	8.108044	2.747080	0.000325
 291	2.8855e+01	11.5569	79.487166	0.000730	7.297240	2.472372	0.000292
 292	2.8954e+01	11.5810	79.798025	0.000780	7.803992	2.644064	0.000312
 293	2.9054e+01	11.6339	80.161367	0.000912	9.121549	3.090465	0.000365
 294	2.9154e+01	11.6692	80.448004	0.000720	7.195889	2.438033	0.000288
 295	2.9253e+01	11.7029	80.758863	0.000780	7.803992	2.644064	0.000312
 296	2.9352e+01	11.7446	81.077797	0.000801	8.006693	2.712741	0.000321
 297	2.9452e+01	11.7927	81.372508	0.000740	7.398590	2.506710	0.000296
 298	2.9552e+01	11.8216	81.683367	0.000780	7.803992	2.644064	0.000312
 299	2.9651e+01	11.8649	82.018450	0.000841	8.412096	2.850095	0.000337
 300	2.9750e+01	11.9146	82.381792	0.000912	9.121549	3.090465	0.000365
 301	2.9850e+01	11.9435	82.660354	0.000699	6.993188	2.369356	0.000280
 302	2.9950e+01	11.9916	82.963139	0.000760	7.601291	2.575387	0.000304
 303	3.0049e+01	12.0205	83.298222	0.000841	8.412096	2.850095	0.000337
 304	3.0148e+01	12.0654	83.605044	0.000770	7.702642	2.609726	0.000308
 305	3.0248e+01	12.1039	83.899755	0.000740	7.398590	2.506710	0.000296
 306	3.0348e+01	12.1473	84.242911	0.000861	8.614797	2.918772	0.000345
 307	3.0447e+01	12.1858	84.545697	0.000760	7.601291	2.575387	0.000304
 308	3.0547e+01	12.2307	84.872705	0.000821	8.209395	2.781418	0.000329
 309	3.0646e+01	12.2724	85.232010	0.000902	9.020199	3.056126	0.000361
 310	3.0745e+01	12.3013	85.466164	0.000588	5.878332	1.991633	0.000235
 311	3.0845e+01	12.3494	85.789134	0.000811	8.108044	2.747080	0.000325
 312	3.0945e+01	12.3831	86.120180	0.000831	8.310745	2.815757	0.000333
 313	3.1044e+01	12.4248	86.447188	0.000821	8.209395	2.781418	0.000329
 314	3.1143e+01	12.4585	86.729787	0.000709	7.094538	2.403695	0.000284
 315	3.1243e+01	12.5050	87.056795	0.000821	8.209395	2.781418	0.000329
 316	3.1343e+01	12.5435	87.359580	0.000760	7.601291	2.575387	0.000304
 317	3.1442e+01	12.5852	87.670440	0.000780	7.803992	2.644064	0.000312
 318	3.1541e+01	12.6269	88.001485	0.000831	8.310745	2.815757	0.000333
 319	3.1641e+01	12.6606	88.304270	0.000760	7.601291	2.575387	0.000304
 320	3.1741e+01	12.7087	88.639352	0.000841	8.412096	2.850095	0.000337
 321	3.1840e+01	12.7376	88.942137	0.000760	7.601291	2.575387	0.000304
 322	3.1939e+01	12.7857	89.257034	0.000791	7.905343	2.678403	0.000316
 323	3.2039e+01	12.8274	89.575968	0.000801	8.006693	2.712741	0.000321
 324	3.2139e+01	12.8547	89.858567	0.000709	7.094538	2.403695	0.000284
 325	3.2238e+01	12.9044	90.189612	0.000831	8.310745	2.815757	0.000333
 326	3.2337e+01	12.9317	90.460100	0.000679	6.790487	2.300679	0.000272
 327	3.2437e+01	12.9895	90.795183	0.000841	8.412096	2.850095	0.000337
 328	3.2536e+01	13.0216	91.097968	0.000760	7.601291	2.575387	0.000304
 329	3.2636e+01	13.0649	91.404790	0.000770	7.702642	2.609726	0.000308
 330	3.2736e+01	13.0986	91.727761	0.000811	8.108044	2.747080	0.000325
 331	3.2835e+01	13.1387	92.042658	0.000791	7.905343	2.678403	0.000316
 332	3.2934e+01	13.1756	92.325257	0.000709	7.094538	2.403695	0.000284
 333	3.3034e+01	13.2157	92.656302	0.000831	8.310745	2.815757	0.000333
 334	3.3133e+01	13.2590	92.971199	0.000791	7.905343	2.678403	0.000316
 335	3.3233e+01	13.3007	93.306281	0.000841	8.412096	2.850095	0.000337
 336	3.3333e+01	13.3424	93.576769	0.000679	6.790487	2.300679	0.000272
 337	3.3432e+01	13.3857	93.915889	0.000851	8.513446	2.884434	0.000341
 338	3.3532e+01	13.4210	94.206562	0.000730	7.297240	2.472372	0.000292
 339	3.3631e+01	13.4611	94.521459	0.000791	7.905343	2.678403	0.000316
 340	3.3730e+01	13.4964	94.832318	0.000780	7.803992	2.644064	0.000312
 341	3.3830e+01	13.5413	95.147215	0.000791	7.905343	2.678403	0.000316
 342	3.3929e+01	13.5766	95.474223	0.000821	8.209395	2.781418	0.000329
 343	3.4029e+01	13.6296	95.785083	0.000780	7.803992	2.644064	0.000312
 344	3.4129e+01	13.6584	96.104016	0.000801	8.006693	2.712741	0.000321
 345	3.4228e+01	13.6921	96.418913	0.000791	7.905343	2.678403	0.000316
 346	3.4328e+01	13.7386	96.729772	0.000780	7.803992	2.644064	0.000312
 347	3.4427e+01	13.7772	97.068892	0.000851	8.513446	2.884434	0.000341
 348	3.4526e+01	13.8157	97.367640	0.000750	7.499941	2.541049	0.000300
 349	3.4626e+01	13.8590	97.638128	0.000679	6.790487	2.300679	0.000272
 350	3.4725e+01	13.8878	97.973210	0.000841	8.412096	2.850095	0.000337
 351	3.4825e+01	13.9408	98.267921	0.000740	7.398590	2.506710	0.000296
 352	3.4925e+01	13.9777	98.607040	0.000851	8.513446	2.884434	0.000341
 353	3.5024e+01	14.0114	98.901751	0.000740	7.398590	2.506710	0.000296
 354	3.5123e+01	14.0579	99.200499	0.000750	7.499941	2.541049	0.000300
 355	3.5223e+01	14.0884	99.531544	0.000831	8.310745	2.815757	0.000333
 356	3.5322e+01	14.1349	99.850478	0.000801	8.006693	2.712741	0.000321
 357	3.5422e+01	14.1734	100.145189	0.000740	7.398590	2.506710	0.000296
 358	3.5522e+01	14.2151	100.460086	0.000791	7.905343	2.678403	0.000316
 359	3.5621e+01	14.2552	100.766908	0.000770	7.702642	2.609726	0.000308
 360	3.5721e+01	14.2889	101.045470	0.000699	6.993188	2.369356	0.000280
 361	3.5820e+01	14.3418	101.352293	0.000770	7.702642	2.609726	0.000308
 362	3.5919e+01	14.3755	101.687375	0.000841	8.412096	2.850095	0.000337
 363	3.6019e+01	14.4076	102.010346	0.000811	8.108044	2.747080	0.000325
 364	3.6118e+01	14.4638	102.325242	0.000791	7.905343	2.678403	0.000316
 365	3.6218e+01	14.4894	102.619953	0.000740	7.398590	2.506710	0.000296
 366	3.6318e+01	14.5408	102.950998	0.000831	8.310745	2.815757	0.000333
 367	3.6417e+01	14.5825	103.225524	0.000689	6.891837	2.335018	0.000276
 368	3.6517e+01	14.6162	103.572717	0.000872	8.716147	2.953111	0.000349
 369	3.6616e+01	14.6563	103.899725	0.000821	8.209395	2.781418	0.000329
 370	3.6715e+01	14.6964	104.186362	0.000720	7.195889	2.438033	0.000288
 371	3.6815e+01	14.7397	104.489147	0.000760	7.601291	2.575387	0.000304
 372	3.6914e+01	14.7734	104.832304	0.000861	8.614797	2.918772	0.000345
 373	3.7014e+01	14.8135	105.118940	0.000720	7.195889	2.438033	0.000288
 374	3.7114e+01	14.8616	105.421726	0.000760	7.601291	2.575387	0.000304
 375	3.7213e+01	14.8969	105.732585	0.000780	7.803992	2.644064	0.000312
 376	3.7313e+01	14.9322	106.055556	0.000811	8.108044	2.747080	0.000325
 377	3.7412e+01	14.9723	106.374490	0.000801	8.006693	2.712741	0.000321
 378	3.7511e+01	15.0108	106.693423	0.000801	8.006693	2.712741	0.000321
 379	3.7611e+01	15.0541	107.000246	0.000770	7.702642	2.609726	0.000308
 380	3.7711e+01	15.0958	107.323216	0.000811	8.108044	2.747080	0.000325
 381	3.7810e+01	15.1295	107.601779	0.000699	6.993188	2.369356	0.000280
 382	3.7910e+01	15.1760	107.928787	0.000821	8.209395	2.781418	0.000329
 383	3.8009e+01	15.2145	108.275980	0.000872	8.716147	2.953111	0.000349
 384	3.8108e+01	15.2563	108.538394	0.000659	6.587786	2.232002	0.000264
 385	3.8208e+01	15.2851	108.881551	0.000861	8.614797	2.918772	0.000345
 386	3.8307e+01	15.3236	109.184336	0.000760	7.601291	2.575387	0.000304
 387	3.8407e+01	15.3702	109.491158	0.000770	7.702642	2.609726	0.000308
 388	3.8507e+01	15.4135	109.822203	0.000831	8.310745	2.815757	0.000333
 389	3.8606e+01	15.4488	110.112877	0.000730	7.297240	2.472372	0.000292
 390	3.8706e+01	15.4921	110.456034	0.000861	8.614797	2.918772	0.000345
 391	3.8805e+01	15.5370	110.770930	0.000791	7.905343	2.678403	0.000316
 392	3.8904e+01	15.5659	111.077753	0.000770	7.702642	2.609726	0.000308
 393	3.9004e+01	15.6124	111.372464	0.000740	7.398590	2.506710	0.000296
 394	3.9103e+01	15.6445	111.707546	0.000841	8.412096	2.850095	0.000337
 395	3.9203e+01	15.6926	111.986108	0.000699	6.993188	2.369356	0.000280
 396	3.9303e+01	15.7359	112.365599	0.000953	9.526952	3.227819	0.000381
 397	3.9402e+01	15.7648	112.672421	0.000770	7.702642	2.609726	0.000308
 398	3.9502e+01	15.8049	112.963095	0.000730	7.297240	2.472372	0.000292
 399	3.9601e+01	15.8466	113.314326	0.000882	8.817498	2.987449	0.000353
 400	3.9700e+01	15.8931	113.629222	0.000791	7.905343	2.678403	0.000316
 401	3.9800e+01	15.9332	113.936045	0.000770	7.702642	2.609726	0.000308
 402	3.9900e+01	15.9685	114.210570	0.000689	6.891837	2.335018	0.000276
 403	3.9999e+01	16.0135	114.549689	0.000851	8.513446	2.884434	0.000341
 404	4.0099e+01	16.0536	114.844400	0.000740	7.398590	2.506710	0.000296
 405	4.0198e+01	16.0840	115.203705	0.000902	9.020199	3.056126	0.000361
 406	4.0297e+01	16.1274	115.542825	0.000851	8.513446	2.884434	0.000341
 407	4.0397e+01	16.1739	115.797164	0.000639	6.385085	2.163325	0.000256
 408	4.0496e+01	16.2060	116.144358	0.000872	8.716147	2.953111	0.000349
 409	4.0596e+01	16.2525	116.435032	0.000730	7.297240	2.472372	0.000292
 410	4.0696e+01	16.2910	116.745891	0.000780	7.803992	2.644064	0.000312
 411	4.0795e+01	16.3295	117.117308	0.000932	9.324251	3.159142	0.000373
 412	4.0895e+01	16.3680	117.391833	0.000689	6.891837	2.335018	0.000276
 413	4.0994e+01	16.4065	117.751138	0.000902	9.020199	3.056126	0.000361
 414	4.1093e+01	16.4514	118.041812	0.000730	7.297240	2.472372	0.000292
 415	4.1193e+01	16.4883	118.364783	0.000811	8.108044	2.747080	0.000325
 416	4.1292e+01	16.5300	118.679679	0.000791	7.905343	2.678403	0.000316
 417	4.1392e+01	16.5765	119.051096	0.000932	9.324251	3.159142	0.000373
 418	4.1492e+01	16.6102	119.365992	0.000791	7.905343	2.678403	0.000316
 419	4.1591e+01	16.6455	119.648592	0.000709	7.094538	2.403695	0.000284
 420	4.1691e+01	16.6888	119.979637	0.000831	8.310745	2.815757	0.000333
 421	4.1790e+01	16.7161	120.274348	0.000740	7.398590	2.506710	0.000296
 422	4.1889e+01	16.7739	120.617504	0.000861	8.614797	2.918772	0.000345
 423	4.1989e+01	16.8124	120.952587	0.000841	8.412096	2.850095	0.000337
 424	4.2089e+01	16.8509	121.255372	0.000760	7.601291	2.575387	0.000304
 425	4.2188e+01	16.8862	121.590454	0.000841	8.412096	2.850095	0.000337
 426	4.2288e+01	16.9247	121.937648	0.000872	8.716147	2.953111	0.000349
 427	4.2387e+01	16.9567	122.244470	0.000770	7.702642	2.609726	0.000308
 428	4.2486e+01	17.0033	122.567441	0.000811	8.108044	2.747080	0.000325
 429	4.2586e+01	17.0418	122.874263	0.000770	7.702642	2.609726	0.000308
 430	4.2685e+01	17.0803	123.217420	0.000861	8.614797	2.918772	0.000345
 431	4.2785e+01	17.1252	123.556539	0.000851	8.513446	2.884434	0.000341
 432	4.2885e+01	17.1685	123.871436	0.000791	7.905343	2.678403	0.000316
 433	4.2984e+01	17.2070	124.182295	0.000780	7.803992	2.644064	0.000312
 434	4.3084e+01	17.2551	124.489118	0.000770	7.702642	2.609726	0.000308
 435	4.3183e+01	17.2792	124.844386	0.000892	8.918848	3.021788	0.000357
 436	4.3282e+01	17.3241	125.179468	0.000841	8.412096	2.850095	0.000337
 437	4.3382e+01	17.3642	125.514550	0.000841	8.412096	2.850095	0.000337
 438	4.3481e+01	17.4027	125.821372	0.000770	7.702642	2.609726	0.000308
 439	4.3581e+01	17.4508	126.188752	0.000922	9.222900	3.124803	0.000369
 440	4.3681e+01	17.4829	126.535945	0.000872	8.716147	2.953111	0.000349
 441	4.3780e+01	17.5262	126.875065	0.000851	8.513446	2.884434	0.000341
 442	4.3880e+01	17.5599	127.193999	0.000801	8.006693	2.712741	0.000321
 443	4.3979e+01	17.6225	127.549267	0.000892	8.918848	3.021788	0.000357
 444	4.4078e+01	17.6482	127.860126	0.000780	7.803992	2.644064	0.000312
 445	4.4178e+01	17.6867	128.211357	0.000882	8.817498	2.987449	0.000353
 446	4.4278e+01	17.7236	128.506068	0.000740	7.398590	2.506710	0.000296
 447	4.4377e+01	17.7637	128.865373	0.000902	9.020199	3.056126	0.000361
 448	4.4477e+01	17.7974	129.200455	0.000841	8.412096	2.850095	0.000337
 449	4.4576e+01	17.8407	129.543612	0.000861	8.614797	2.918772	0.000345
 450	4.4675e+01	17.8856	129.882731	0.000851	8.513446	2.884434	0.000341
 451	4.4775e+01	17.9225	130.233962	0.000882	8.817498	2.987449	0.000353
 452	4.4874e+01	17.9594	130.569044	0.000841	8.412096	2.850095	0.000337
 453	4.4974e+01	17.9979	130.944498	0.000943	9.425601	3.193480	0.000377
 454	4.5074e+01	18.0348	131.263431	0.000801	8.006693	2.712741	0.000321
 455	4.5173e+01	18.0781	131.586402	0.000811	8.108044	2.747080	0.000325
 456	4.5273e+01	18.1150	131.961856	0.000943	9.425601	3.193480	0.000377
 457	4.5372e+01	18.1599	132.317124	0.000892	8.918848	3.021788	0.000357
 458	4.5471e+01	18.2064	132.708726	0.000983	9.831003	3.330834	0.000394
 459	4.5571e+01	18.2449	133.039771	0.000831	8.310745	2.815757	0.000333
 460	4.5670e+01	18.2754	133.378891	0.000851	8.513446	2.884434	0.000341
 461	4.5770e+01	18.3252	133.734158	0.000892	8.918848	3.021788	0.000357
 462	4.5870e+01	18.3604	134.093464	0.000902	9.020199	3.056126	0.000361
 463	4.5969e+01	18.3973	134.489103	0.000993	9.932354	3.365173	0.000398
 464	4.6069e+01	18.4439	134.836297	0.000872	8.716147	2.953111	0.000349
 465	4.6168e+01	18.4792	135.179453	0.000861	8.614797	2.918772	0.000345
 466	4.6267e+01	18.5209	135.522610	0.000861	8.614797	2.918772	0.000345
 467	4.6367e+01	18.5610	135.954583	0.001084	10.844509	3.674219	0.000434
 468	4.6467e+01	18.6043	136.289665	0.000841	8.412096	2.850095	0.000337
 469	4.6566e+01	18.6364	136.661082	0.000932	9.324251	3.159142	0.000373
 470	4.6666e+01	18.6909	137.012313	0.000882	8.817498	2.987449	0.000353
 471	4.6765e+01	18.7134	137.399878	0.000973	9.729653	3.296496	0.000390
 472	4.6864e+01	18.7631	137.751109	0.000882	8.817498	2.987449	0.000353
 473	4.6964e+01	18.8096	138.102339	0.000882	8.817498	2.987449	0.000353
 474	4.7063e+01	18.8321	138.518164	0.001044	10.439107	3.536865	0.000418
 475	4.7163e+01	18.8834	138.865358	0.000872	8.716147	2.953111	0.000349
 476	4.7263e+01	18.9171	139.269072	0.001014	10.135055	3.433850	0.000406
 477	4.7362e+01	18.9668	139.604154	0.000841	8.412096	2.850095	0.000337
 478	4.7462e+01	18.9957	139.975570	0.000932	9.324251	3.159142	0.000373
 479	4.7561e+01	19.0438	140.391395	0.001044	10.439107	3.536865	0.000418
 480	4.7660e+01	19.0775	140.754738	0.000912	9.121549	3.090465	0.000365
 481	4.7760e+01	19.1128	141.186711	0.001084	10.844509	3.674219	0.000434
 482	4.7859e+01	19.1642	141.509682	0.000811	8.108044	2.747080	0.000325
 483	4.7959e+01	19.1995	141.909358	0.001003	10.033704	3.399511	0.000402
 484	4.8059e+01	19.2444	142.329220	0.001054	10.540457	3.571204	0.000422
 485	4.8158e+01	19.2797	142.688526	0.000902	9.020199	3.056126	0.000361
 486	4.8258e+01	19.3150	143.072053	0.000963	9.628302	3.262157	0.000385
 487	4.8357e+01	19.3567	143.435396	0.000912	9.121549	3.090465	0.000365
 488	4.8456e+01	19.4000	143.810849	0.000943	9.425601	3.193480	0.000377
 489	4.8556e+01	19.4369	144.238786	0.001074	10.743158	3.639881	0.000430
 490	4.8656e+01	19.4738	144.622314	0.000963	9.628302	3.262157	0.000385
 491	4.8755e+01	19.5203	145.034101	0.001034	10.337756	3.502527	0.000414
 492	4.8855e+01	19.5540	145.397444	0.000912	9.121549	3.090465	0.000365
 493	4.8954e+01	19.5973	145.829417	0.001084	10.844509	3.674219	0.000434
 494	4.9053e+01	19.6358	146.208908	0.000953	9.526952	3.227819	0.000381
 495	4.9153e+01	19.6711	146.624733	0.001044	10.439107	3.536865	0.000418
 496	4.9252e+01	19.7128	147.060744	0.001095	10.945859	3.708558	0.000438
 497	4.9352e+01	19.7545	147.476569	0.001044	10.439107	3.536865	0.000418
 498	4.9452e+01	19.7946	147.896431	0.001054	10.540457	3.571204	0.000422
 499	4.9551e+01	19.8331	148.328404	0.001084	10.844509	3.674219	0.000434
 500	4.9651e+01	19.8700	148.720006	0.000983	9.831003	3.330834	0.000394
 501	4.9750e+01	19.9182	149.180240	0.001155	11.553963	3.914589	0.000463
 502	4.9849e+01	19.9534	149.628362	0.001125	11.249911	3.811573	0.000450
 503	4.9949e+01	19.9952	150.080521	0.001135	11.351262	3.845912	0.000454
 504	5.0048e+01	19.9599	150.120892	-0.000101	-1.013505	-0.343385	0.000041
 505	5.0148e+01	19.9166	150.056298	0.000162	1.621609	0.549416	-0.000065
 506	5.0248e+01	19.8797	150.072447	-0.000041	-0.405402	-0.137354	0.000016
 507	5.0347e+01	19.8363	150.028038	0.000111	1.114856	0.377723	-0.000045
 508	5.0447e+01	19.7914	150.040150	-0.000030	-0.304052	-0.103015	0.000012
 509	5.0546e+01	19.7577	150.015927	0.000061	0.608103	0.206031	-0.000024
 510	5.0645e+01	19.7144	150.003815	0.000030	0.304052	0.103015	-0.000012
 511	5.0745e+01	19.6807	150.011890	-0.000020	-0.202701	-0.068677	0.000008
 512	5.0844e+01	19.6374	149.999778	0.000030	0.304052	0.103015	-0.000012
 513	5.0944e+01	19.5989	149.987667	0.000030	0.304052	0.103015	-0.000012
 514	5.1044e+01	19.5588	149.947296	0.000101	1.013505	0.343385	-0.000041
 515	5.1143e+01	19.5091	149.955370	-0.000020	-0.202701	-0.068677	0.000008
 516	5.1242e+01	19.4706	149.890776	0.000162	1.621609	0.549416	-0.000065
 517	5.1342e+01	19.4385	149.886739	0.000010	0.101351	0.034338	-0.000004
 518	5.1441e+01	19.3984	149.886739	-0.000000	-0.000000	-0.000000	0.000000
 519	5.1541e+01	19.3583	149.854441	0.000081	0.810804	0.274708	-0.000032
 520	5.1641e+01	19.3182	149.846367	0.000020	0.202701	0.068677	-0.000008
 521	5.1740e+01	19.2749	149.789847	0.000142	1.418908	0.480739	-0.000057
 522	5.1840e+01	19.2444	149.805996	-0.000041	-0.405402	-0.137354	0.000016
 523	5.1939e+01	19.1979	149.785810	0.000051	0.506753	0.171692	-0.000020
 524	5.2038e+01	19.1545	149.753513	0.000081	0.810804	0.274708	-0.000032
 525	5.2138e+01	19.1273	149.733327	0.000051	0.506753	0.171692	-0.000020
 526	5.2237e+01	19.0823	149.741402	-0.000020	-0.202701	-0.068677	0.000008
 527	5.2337e+01	19.0374	149.701030	0.000101	1.013505	0.343385	-0.000041
 528	5.2437e+01	18.9989	149.672770	0.000071	0.709454	0.240369	-0.000028
 529	5.2536e+01	18.9588	149.696993	-0.000061	-0.608103	-0.206031	0.000024
 530	5.2636e+01	18.9267	149.688919	0.000020	0.202701	0.068677	-0.000008
 531	5.2735e+01	18.8786	149.680845	0.000020	0.202701	0.068677	-0.000008
 532	5.2834e+01	18.8449	149.648548	0.000081	0.810804	0.274708	-0.000032
 533	5.2934e+01	18.7952	149.604139	0.000111	1.114856	0.377723	-0.000045
 534	5.3033e+01	18.7727	149.571842	0.000081	0.810804	0.274708	-0.000032
 535	5.3133e+01	18.7182	149.575879	-0.000010	-0.101351	-0.034338	0.000004
 536	5.3233e+01	18.6765	149.600102	-0.000061	-0.608103	-0.206031	0.000024
 537	5.3332e+01	18.6444	149.575879	0.000061	0.608103	0.206031	-0.000024
 538	5.3431e+01	18.6027	149.539545	0.000091	0.912155	0.309046	-0.000037
 539	5.3531e+01	18.5530	149.503211	0.000091	0.912155	0.309046	-0.000037
 540	5.3630e+01	18.5145	149.491099	0.000030	0.304052	0.103015	-0.000012
 541	5.3730e+01	18.4808	149.422468	0.000172	1.722959	0.583754	-0.000069
 542	5.3830e+01	18.4471	149.402282	0.000051	0.506753	0.171692	-0.000020
 543	5.3929e+01	18.4006	149.394208	0.000020	0.202701	0.068677	-0.000008
 544	5.4029e+01	18.3620	149.378059	0.000041	0.405402	0.137354	-0.000016
 545	5.4128e+01	18.3235	149.349799	0.000071	0.709454	0.240369	-0.000028
 546	5.4227e+01	18.2834	149.305391	0.000111	1.114856	0.377723	-0.000045
 547	5.4327e+01	18.2337	149.289242	0.000041	0.405402	0.137354	-0.000016
 548	5.4426e+01	18.2080	149.305391	-0.000041	-0.405402	-0.137354	0.000016
 549	5.4526e+01	18.1519	149.256945	0.000122	1.216207	0.412062	-0.000049
 550	5.4626e+01	18.1166	149.220611	0.000091	0.912155	0.309046	-0.000037
 551	5.4725e+01	18.0893	149.196388	0.000061	0.608103	0.206031	-0.000024
 552	5.4825e+01	18.0444	149.151980	0.000111	1.114856	0.377723	-0.000045
 553	5.4924e+01	18.0075	149.127757	0.000061	0.608103	0.206031	-0.000024
 554	5.5023e+01	17.9658	149.071237	0.000142	1.418908	0.480739	-0.000057
 555	5.5123e+01	17.9209	149.038940	0.000081	0.810804	0.274708	-0.000032
 556	5.5222e+01	17.8904	149.010680	0.000071	0.709454	0.240369	-0.000028
 557	5.5322e+01	17.8391	148.970309	0.000101	1.013505	0.343385	-0.000041
 558	5.5422e+01	17.7974	148.917826	0.000132	1.317557	0.446400	-0.000053
 559	5.5521e+01	17.7685	148.901677	0.000041	0.405402	0.137354	-0.000016
 560	5.5620e+01	17.7236	148.857269	0.000111	1.114856	0.377723	-0.000045
 561	5.5720e+01	17.6819	148.780563	0.000193	1.925660	0.652431	-0.000077
 562	5.5819e+01	17.6466	148.736155	0.000111	1.114856	0.377723	-0.000045
 563	5.5919e+01	17.5984	148.699821	0.000091	0.912155	0.309046	-0.000037
 564	5.6019e+01	17.5663	148.647338	0.000132	1.317557	0.446400	-0.000053
 565	5.6118e+01	17.5246	148.574669	0.000182	1.824310	0.618093	-0.000073
 566	5.6218e+01	17.4861	148.514112	0.000152	1.520258	0.515077	-0.000061
 567	5.6317e+01	17.4332	148.469704	0.000111	1.114856	0.377723	-0.000045
 568	5.6416e+01	17.4011	148.401073	0.000172	1.722959	0.583754	-0.000069
 569	5.6516e+01	17.3642	148.320330	0.000203	2.027011	0.686770	-0.000081
 570	5.6615e+01	17.3177	148.239587	0.000203	2.027011	0.686770	-0.000081
 571	5.6715e+01	17.2776	148.183067	0.000142	1.418908	0.480739	-0.000057
 572	5.6815e+01	17.2359	148.074065	0.000274	2.736465	0.927139	-0.000110
 573	5.6914e+01	17.2102	148.017545	0.000142	1.418908	0.480739	-0.000057
 574	5.7014e+01	17.1765	147.956988	0.000152	1.520258	0.515077	-0.000061
 575	5.7113e+01	17.1172	147.852022	0.000264	2.635114	0.892801	-0.000105
 576	5.7212e+01	17.1043	147.771279	0.000203	2.027011	0.686770	-0.000081
 577	5.7312e+01	17.0466	147.678425	0.000233	2.331063	0.789785	-0.000093
 578	5.7411e+01	17.0033	147.609794	0.000172	1.722959	0.583754	-0.000069
 579	5.7511e+01	16.9616	147.557311	0.000132	1.317557	0.446400	-0.000053
 580	5.7611e+01	16.9182	147.448309	0.000274	2.736465	0.927139	-0.000110
 581	5.7710e+01	16.8878	147.363529	0.000213	2.128362	0.721108	-0.000085
 582	5.7809e+01	16.8428	147.270675	0.000233	2.331063	0.789785	-0.000093
 583	5.7909e+01	16.8027	147.169746	0.000253	2.533764	0.858462	-0.000101
 584	5.8008e+01	16.7626	147.060744	0.000274	2.736465	0.927139	-0.000110
 585	5.8108e+01	16.7338	146.927518	0.000334	3.344568	1.133170	-0.000134
 586	5.8208e+01	16.6969	146.838701	0.000223	2.229712	0.755447	-0.000089
 587	5.8307e+01	16.6519	146.810441	0.000071	0.709454	0.240369	-0.000028
 588	5.8407e+01	16.6102	146.689327	0.000304	3.040516	1.030155	-0.000122
 589	5.8506e+01	16.5669	146.580324	0.000274	2.736465	0.927139	-0.000110
 590	5.8605e+01	16.5252	146.495545	0.000213	2.128362	0.721108	-0.000085
 591	5.8705e+01	16.4819	146.338096	0.000395	3.952671	1.339201	-0.000158
 592	5.8804e+01	16.4482	146.221019	0.000294	2.939166	0.995816	-0.000118
 593	5.8904e+01	16.4177	146.087794	0.000334	3.344568	1.133170	-0.000134
 594	5.9004e+01	16.3696	145.994940	0.000233	2.331063	0.789785	-0.000093
 595	5.9103e+01	16.3279	145.873826	0.000304	3.040516	1.030155	-0.000122
 596	5.9203e+01	16.2942	145.768860	0.000264	2.635114	0.892801	-0.000105
 597	5.9302e+01	16.2445	145.655820	0.000284	2.837815	0.961478	-0.000114
 598	5.9401e+01	16.2092	145.534706	0.000304	3.040516	1.030155	-0.000122
 599	5.9501e+01	16.1642	145.393406	0.000355	3.547269	1.201847	-0.000142
 600	5.9600e+01	16.1274	145.288441	0.000264	2.635114	0.892801	-0.000105
 601	5.9700e+01	16.0824	145.155215	0.000334	3.344568	1.133170	-0.000134
 602	5.9800e+01	16.0439	145.038139	0.000294	2.939166	0.995816	-0.000118
 603	5.9899e+01	16.0038	144.937210	0.000253	2.533764	0.858462	-0.000101
 604	5.9998e+01	15.9733	144.779762	0.000395	3.952671	1.339201	-0.000158
 605	6.0098e+01	15.9332	144.670759	0.000274	2.736465	0.927139	-0.000110
 606	6.0197e+01	15.8899	144.521385	0.000375	3.749970	1.270524	-0.000150
 607	6.0297e+01	15.8434	144.396234	0.000314	3.141867	1.064493	-0.000126
 608	6.0397e+01	15.8145	144.271083	0.000314	3.141867	1.064493	-0.000126
 609	6.0496e+01	15.7760	144.158043	0.000284	2.837815	0.961478	-0.000114
 610	6.0596e+01	15.7279	144.012706	0.000365	3.648620	1.236186	-0.000146
 611	6.0695e+01	15.6958	143.891592	0.000304	3.040516	1.030155	-0.000122
 612	6.0794e+01	15.6541	143.758366	0.000334	3.344568	1.133170	-0.000134
 613	6.0894e+01	15.6108	143.641290	0.000294	2.939166	0.995816	-0.000118
 614	6.0993e+01	15.5723	143.463656	0.000446	4.459424	1.510894	-0.000179
 615	6.1093e+01	15.5322	143.366764	0.000243	2.432413	0.824124	-0.000097
 616	6.1193e+01	15.4969	143.229502	0.000345	3.445919	1.167509	-0.000138
 617	6.1292e+01	15.4520	143.092239	0.000345	3.445919	1.167509	-0.000138
 618	6.1392e+01	15.4054	142.971125	0.000304	3.040516	1.030155	-0.000122
 619	6.1491e+01	15.3718	142.813677	0.000395	3.952671	1.339201	-0.000158
 620	6.1590e+01	15.3365	142.712748	0.000253	2.533764	0.858462	-0.000101
 621	6.1690e+01	15.2932	142.563374	0.000375	3.749970	1.270524	-0.000150
 622	6.1789e+01	15.2563	142.418037	0.000365	3.648620	1.236186	-0.000146
 623	6.1889e+01	15.2113	142.288849	0.000324	3.243218	1.098832	-0.000130
 624	6.1989e+01	15.1664	142.147549	0.000355	3.547269	1.201847	-0.000142
 625	6.2088e+01	15.1343	141.994138	0.000385	3.851321	1.304863	-0.000154
 626	6.2188e+01	15.0862	141.860913	0.000334	3.344568	1.133170	-0.000134
 627	6.2287e+01	15.0525	141.715576	0.000365	3.648620	1.236186	-0.000146
 628	6.2386e+01	15.0188	141.562165	0.000385	3.851321	1.304863	-0.000154
 629	6.2486e+01	14.9787	141.388568	0.000436	4.358074	1.476555	-0.000174
 630	6.2586e+01	14.9322	141.243231	0.000365	3.648620	1.236186	-0.000146
 631	6.2685e+01	14.8969	141.097894	0.000365	3.648620	1.236186	-0.000146
 632	6.2785e+01	14.8568	140.988891	0.000274	2.736465	0.927139	-0.000110
 633	6.2884e+01	14.8087	140.799146	0.000476	4.763476	1.613909	-0.000191
 634	6.2983e+01	14.7750	140.661883	0.000345	3.445919	1.167509	-0.000138
 635	6.3083e+01	14.7333	140.496361	0.000416	4.155373	1.407878	-0.000166
 636	6.3182e+01	14.7012	140.367172	0.000324	3.243218	1.098832	-0.000130
 637	6.3282e+01	14.6547	140.213761	0.000385	3.851321	1.304863	-0.000154
 638	6.3382e+01	14.6130	140.064387	0.000375	3.749970	1.270524	-0.000150
 639	6.3481e+01	14.5793	139.890790	0.000436	4.358074	1.476555	-0.000174
 640	6.3581e+01	14.5327	139.713156	0.000446	4.459424	1.510894	-0.000179
 641	6.3680e+01	14.5007	139.604154	0.000274	2.736465	0.927139	-0.000110
 642	6.3779e+01	14.4638	139.414408	0.000476	4.763476	1.613909	-0.000191
 643	6.3879e+01	14.4076	139.244849	0.000426	4.256723	1.442217	-0.000170
 644	6.3978e+01	14.3787	139.067215	0.000446	4.459424	1.510894	-0.000179
 645	6.4078e+01	14.3450	138.942064	0.000314	3.141867	1.064493	-0.000126
 646	6.4177e+01	14.2953	138.772504	0.000426	4.256723	1.442217	-0.000170
 647	6.4277e+01	14.2472	138.627167	0.000365	3.648620	1.236186	-0.000146
 648	6.4376e+01	14.2119	138.433384	0.000486	4.864826	1.648248	-0.000195
 649	6.4476e+01	14.1766	138.284010	0.000375	3.749970	1.270524	-0.000150
 650	6.4576e+01	14.1413	138.094265	0.000476	4.763476	1.613909	-0.000191
 651	6.4675e+01	14.1012	137.932780	0.000405	4.054022	1.373540	-0.000162
 652	6.4775e+01	14.0579	137.751109	0.000456	4.560775	1.545232	-0.000183
 653	6.4874e+01	14.0242	137.581549	0.000426	4.256723	1.442217	-0.000170
 654	6.4974e+01	13.9825	137.444286	0.000345	3.445919	1.167509	-0.000138
 655	6.5073e+01	13.9312	137.274727	0.000426	4.256723	1.442217	-0.000170
 656	6.5172e+01	13.8991	137.093055	0.000456	4.560775	1.545232	-0.000183
 657	6.5272e+01	13.8638	136.951756	0.000355	3.547269	1.201847	-0.000142
 658	6.5371e+01	13.8157	136.749899	0.000507	5.067527	1.716925	-0.000203
 659	6.5471e+01	13.7788	136.604562	0.000365	3.648620	1.236186	-0.000146
 660	6.5570e+01	13.7386	136.422891	0.000456	4.560775	1.545232	-0.000183
 661	6.5670e+01	13.7050	136.212960	0.000527	5.270229	1.785602	-0.000211
 662	6.5769e+01	13.6568	136.087809	0.000314	3.141867	1.064493	-0.000126
 663	6.5869e+01	13.6087	135.861729	0.000568	5.675631	1.922956	-0.000227
 664	6.5969e+01	13.5782	135.704281	0.000395	3.952671	1.339201	-0.000158
 665	6.6068e+01	13.5429	135.526647	0.000446	4.459424	1.510894	-0.000179
 666	6.6168e+01	13.5044	135.316716	0.000527	5.270229	1.785602	-0.000211
 667	6.6267e+01	13.4563	135.167342	0.000375	3.749970	1.270524	-0.000150
 668	6.6367e+01	13.4162	134.973559	0.000486	4.864826	1.648248	-0.000195
 669	6.6466e+01	13.3793	134.824185	0.000375	3.749970	1.270524	-0.000150
 670	6.6566e+01	13.3248	134.618291	0.000517	5.168878	1.751263	-0.000207
 671	6.6665e+01	13.2991	134.432583	0.000466	4.662125	1.579571	-0.000187
 672	6.6764e+01	13.2574	134.275135	0.000395	3.952671	1.339201	-0.000158
 673	6.6864e+01	13.2205	134.012721	0.000659	6.587786	2.232002	-0.000264
 674	6.6963e+01	13.1788	133.883532	0.000324	3.243218	1.098832	-0.000130
 675	6.7063e+01	13.1403	133.709936	0.000436	4.358074	1.476555	-0.000174
 676	6.7162e+01	13.0937	133.544413	0.000416	4.155373	1.407878	-0.000166
 677	6.7262e+01	13.0569	133.326408	0.000547	5.472930	1.854279	-0.000219
 678	6.7362e+01	13.0232	133.148774	0.000446	4.459424	1.510894	-0.000179
 679	6.7461e+01	12.9798	132.926731	0.000557	5.574280	1.888617	-0.000223
 680	6.7561e+01	12.9590	132.813692	0.000284	2.837815	0.961478	-0.000114
 681	6.7660e+01	12.9061	132.611835	0.000507	5.067527	1.716925	-0.000203
 682	6.7760e+01	12.8627	132.405941	0.000517	5.168878	1.751263	-0.000207
 683	6.7859e+01	12.8290	132.204084	0.000507	5.067527	1.716925	-0.000203
 684	6.7959e+01	12.7857	132.038561	0.000416	4.155373	1.407878	-0.000166
 685	6.8058e+01	12.7472	131.840742	0.000497	4.966177	1.682586	-0.000199
 686	6.8157e+01	12.7087	131.634848	0.000517	5.168878	1.751263	-0.000207
 687	6.8257e+01	12.6622	131.388583	0.000618	6.182384	2.094648	-0.000248
 688	6.8356e+01	12.6317	131.243246	0.000365	3.648620	1.236186	-0.000146
 689	6.8456e+01	12.5836	131.049463	0.000486	4.864826	1.648248	-0.000195
 690	6.8555e+01	12.5515	130.835495	0.000537	5.371579	1.819940	-0.000215
 691	6.8655e+01	12.4922	130.637675	0.000497	4.966177	1.682586	-0.000199
 692	6.8754e+01	12.4681	130.415633	0.000557	5.574280	1.888617	-0.000223
 693	6.8854e+01	12.4264	130.225888	0.000476	4.763476	1.613909	-0.000191
 694	6.8954e+01	12.3847	130.052291	0.000436	4.358074	1.476555	-0.000174
 695	6.9053e+01	12.3510	129.834285	0.000547	5.472930	1.854279	-0.000219
 696	6.9153e+01	12.3061	129.592057	0.000608	6.081033	2.060310	-0.000243
 697	6.9252e+01	12.2595	129.406349	0.000466	4.662125	1.579571	-0.000187
 698	6.9352e+01	12.2210	129.208529	0.000497	4.966177	1.682586	-0.000199
 699	6.9451e+01	12.1858	128.998598	0.000527	5.270229	1.785602	-0.000211
 700	6.9550e+01	12.1440	128.808853	0.000476	4.763476	1.613909	-0.000191
 701	6.9650e+01	12.1152	128.558550	0.000628	6.283734	2.128987	-0.000252
 702	6.9749e+01	12.0735	128.356694	0.000507	5.067527	1.716925	-0.000203
 703	6.9849e+01	12.0350	128.162911	0.000486	4.864826	1.648248	-0.000195
 704	6.9948e+01	11.9868	127.940869	0.000557	5.574280	1.888617	-0.000223
 705	7.0048e+01	11.9515	127.747086	0.000486	4.864826	1.648248	-0.000195
 706	7.0147e+01	11.9146	127.508895	0.000598	5.979682	2.025971	-0.000239
 707	7.0247e+01	11.8713	127.303001	0.000517	5.168878	1.751263	-0.000207
 708	7.0347e+01	11.8296	127.084996	0.000547	5.472930	1.854279	-0.000219
 709	7.0446e+01	11.7799	126.850842	0.000588	5.878332	1.991633	-0.000235
 710	7.0546e+01	11.7542	126.636874	0.000537	5.371579	1.819940	-0.000215
 711	7.0645e+01	11.7093	126.455203	0.000456	4.560775	1.545232	-0.000183
 712	7.0745e+01	11.6692	126.208937	0.000618	6.182384	2.094648	-0.000248
 713	7.0844e+01	11.6339	126.023229	0.000466	4.662125	1.579571	-0.000187
 714	7.0944e+01	11.5906	125.756778	0.000669	6.689136	2.266341	-0.000268
 715	7.1043e+01	11.5489	125.530699	0.000568	5.675631	1.922956	-0.000227
 716	7.1142e+01	11.5152	125.316730	0.000537	5.371579	1.819940	-0.000215
 717	7.1242e+01	11.4655	125.131022	0.000466	4.662125	1.579571	-0.000187
 718	7.1341e+01	11.4286	124.900905	0.000578	5.776981	1.957294	-0.000231
 719	7.1441e+01	11.3901	124.670789	0.000578	5.776981	1.957294	-0.000231
 720	7.1540e+01	11.3580	124.428561	0.000608	6.081033	2.060310	-0.000243
 721	7.1640e+01	11.3114	124.222667	0.000517	5.168878	1.751263	-0.000207
 722	7.1740e+01	11.2729	123.940067	0.000709	7.094538	2.403695	-0.000284
 723	7.1839e+01	11.2216	123.738210	0.000507	5.067527	1.716925	-0.000203
 724	7.1939e+01	11.1943	123.552502	0.000466	4.662125	1.579571	-0.000187
 725	7.2038e+01	11.1398	123.310274	0.000608	6.081033	2.060310	-0.000243
 726	7.2138e+01	11.1077	123.068046	0.000608	6.081033	2.060310	-0.000243
 727	7.2237e+01	11.0660	122.813706	0.000639	6.385085	2.163325	-0.000256
 728	7.2337e+01	11.0355	122.611849	0.000507	5.067527	1.716925	-0.000203
 729	7.2436e+01	10.9842	122.365584	0.000618	6.182384	2.094648	-0.000248
 730	7.2535e+01	10.9521	122.115282	0.000628	6.283734	2.128987	-0.000252
 731	7.2635e+01	10.9088	121.905351	0.000527	5.270229	1.785602	-0.000211
 732	7.2734e+01	10.8799	121.695420	0.000527	5.270229	1.785602	-0.000211
 733	7.2834e+01	10.8366	121.433006	0.000659	6.587786	2.232002	-0.000264
 734	7.2933e+01	10.7853	121.215001	0.000547	5.472930	1.854279	-0.000219
 735	7.3033e+01	10.7532	120.964698	0.000628	6.283734	2.128987	-0.000252
 736	7.3132e+01	10.7163	120.730544	0.000588	5.878332	1.991633	-0.000235
 737	7.3232e+01	10.6730	120.500428	0.000578	5.776981	1.957294	-0.000231
 738	7.3332e+01	10.6425	120.278385	0.000557	5.574280	1.888617	-0.000223
 739	7.3431e+01	10.5944	120.036157	0.000608	6.081033	2.060310	-0.000243
 740	7.3531e+01	10.5462	119.773743	0.000659	6.587786	2.232002	-0.000264
 741	7.3630e+01	10.5109	119.543626	0.000578	5.776981	1.957294	-0.000231
 742	7.3730e+01	10.4724	119.289287	0.000639	6.385085	2.163325	-0.000256
 743	7.3829e+01	10.4227	119.067244	0.000557	5.574280	1.888617	-0.000223
 744	7.3928e+01	10.3922	118.816942	0.000628	6.283734	2.128987	-0.000252
 745	7.4028e+01	10.3473	118.550491	0.000669	6.689136	2.266341	-0.000268
 746	7.4127e+01	10.3152	118.304226	0.000618	6.182384	2.094648	-0.000248
 747	7.4227e+01	10.2687	118.057960	0.000618	6.182384	2.094648	-0.000248
 748	7.4326e+01	10.2254	117.783435	0.000689	6.891837	2.335018	-0.000276
 749	7.4426e+01	10.1997	117.533133	0.000628	6.283734	2.128987	-0.000252
 750	7.4525e+01	10.1564	117.254570	0.000699	6.993188	2.369356	-0.000280
 751	7.4625e+01	10.1227	117.040602	0.000537	5.371579	1.819940	-0.000215
 752	7.4725e+01	10.0682	116.766077	0.000689	6.891837	2.335018	-0.000276
 753	7.4824e+01	10.0345	116.527886	0.000598	5.979682	2.025971	-0.000239
 754	7.4924e+01	9.9944	116.212989	0.000791	7.905343	2.678403	-0.000316
 755	7.5023e+01	9.9575	116.039393	0.000436	4.358074	1.476555	-0.000174
 756	7.5123e+01	9.9222	115.748719	0.000730	7.297240	2.472372	-0.000292
 757	7.5222e+01	9.8692	115.449971	0.000750	7.499941	2.541049	-0.000300
 758	7.5322e+01	9.8372	115.207743	0.000608	6.081033	2.060310	-0.000243
 759	7.5421e+01	9.7987	114.921106	0.000720	7.195889	2.438033	-0.000288
 760	7.5520e+01	9.7602	114.690989	0.000578	5.776981	1.957294	-0.000231
 761	7.5620e+01	9.7088	114.388204	0.000760	7.601291	2.575387	-0.000304
 762	7.5719e+01	9.6864	114.117716	0.000679	6.790487	2.300679	-0.000272
 763	7.5819e+01	9.6318	113.867413	0.000628	6.283734	2.128987	-0.000252
 764	7.5918e+01	9.5933	113.600963	0.000669	6.689136	2.266341	-0.000268
 765	7.6018e+01	9.5500	113.354697	0.000618	6.182384	2.094648	-0.000248
 766	7.6118e+01	9.5083	113.035764	0.000801	8.006693	2.712741	-0.000321
 767	7.6217e+01	9.4778	112.781424	0.000639	6.385085	2.163325	-0.000256
 768	7.6317e+01	9.4313	112.535159	0.000618	6.182384	2.094648	-0.000248
 769	7.6416e+01	9.3976	112.248522	0.000720	7.195889	2.438033	-0.000288
 770	7.6516e+01	9.3639	111.921514	0.000821	8.209395	2.781418	-0.000329
 771	7.6615e+01	9.3142	111.699472	0.000557	5.574280	1.888617	-0.000223
 772	7.6715e+01	9.2805	111.412835	0.000720	7.195889	2.438033	-0.000288
 773	7.6814e+01	9.2324	111.138310	0.000689	6.891837	2.335018	-0.000276
 774	7.6913e+01	9.2019	110.871859	0.000669	6.689136	2.266341	-0.000268
 775	7.7013e+01	9.1650	110.569074	0.000760	7.601291	2.575387	-0.000304
 776	7.7112e+01	9.1153	110.310697	0.000649	6.486435	2.197664	-0.000260
 777	7.7212e+01	9.0816	110.052320	0.000649	6.486435	2.197664	-0.000260
 778	7.7311e+01	9.0479	109.773758	0.000699	6.993188	2.369356	-0.000280
 779	7.7411e+01	8.9949	109.479047	0.000740	7.398590	2.506710	-0.000296
 780	7.7510e+01	8.9468	109.248930	0.000578	5.776981	1.957294	-0.000231
 781	7.7610e+01	8.9195	108.913848	0.000841	8.412096	2.850095	-0.000337
 782	7.7710e+01	8.8778	108.647397	0.000669	6.689136	2.266341	-0.000268
 783	7.7809e+01	8.8361	108.405169	0.000608	6.081033	2.060310	-0.000243
 784	7.7909e+01	8.7912	108.090272	0.000791	7.905343	2.678403	-0.000316
 785	7.8008e+01	8.7559	107.839970	0.000628	6.283734	2.128987	-0.000252
 786	7.8108e+01	8.7158	107.557370	0.000709	7.094538	2.403695	-0.000284
 787	7.8207e+01	8.6869	107.234399	0.000811	8.108044	2.747080	-0.000325
 788	7.8306e+01	8.6388	106.939689	0.000740	7.398590	2.506710	-0.000296
 789	7.8406e+01	8.5971	106.693423	0.000618	6.182384	2.094648	-0.000248
 790	7.8505e+01	8.5618	106.402750	0.000730	7.297240	2.472372	-0.000292
 791	7.8605e+01	8.5217	106.160521	0.000608	6.081033	2.060310	-0.000243
 792	7.8704e+01	8.4832	105.837551	0.000811	8.108044	2.747080	-0.000325
 793	7.8804e+01	8.4351	105.546877	0.000730	7.297240	2.472372	-0.000292
 794	7.8903e+01	8.4094	105.272352	0.000689	6.891837	2.335018	-0.000276
 795	7.9003e+01	8.3532	104.981678	0.000730	7.297240	2.472372	-0.000292
 796	7.9103e+01	8.3324	104.686967	0.000740	7.398590	2.506710	-0.000296
 797	7.9202e+01	8.2875	104.424553	0.000659	6.587786	2.232002	-0.000264
 798	7.9302e+01	8.2393	104.137916	0.000720	7.195889	2.438033	-0.000288
 799	7.9401e+01	8.2008	103.835131	0.000760	7.601291	2.575387	-0.000304
 800	7.9501e+01	8.1575	103.532346	0.000760	7.601291	2.575387	-0.000304
 801	7.9600e+01	8.1190	103.249747	0.000709	7.094538	2.403695	-0.000284
 802	7.9700e+01	8.0853	102.934850	0.000791	7.905343	2.678403	-0.000316
 803	7.9799e+01	8.0388	102.680510	0.000639	6.385085	2.163325	-0.000256
 804	7.9898e+01	8.0019	102.405985	0.000689	6.891837	2.335018	-0.000276
 805	7.9998e+01	7.9522	102.074940	0.000831	8.310745	2.815757	-0.000333
 806	8.0097e+01	7.9249	101.784266	0.000730	7.297240	2.472372	-0.000292
 807	8.0197e+01	7.8896	101.505704	0.000699	6.993188	2.369356	-0.000280
 808	8.0296e+01	7.8383	101.206956	0.000750	7.499941	2.541049	-0.000300
 809	8.0396e+01	7.8094	100.920319	0.000720	7.195889	2.438033	-0.000288
 810	8.0496e+01	7.7597	100.605423	0.000791	7.905343	2.678403	-0.000316
 811	8.0595e+01	7.7244	100.343009	0.000659	6.587786	2.232002	-0.000264
 812	8.0695e+01	7.6795	100.011964	0.000831	8.310745	2.815757	-0.000333
 813	8.0794e+01	7.6394	99.741476	0.000679	6.790487	2.300679	-0.000272
 814	8.0894e+01	7.6073	99.414468	0.000821	8.209395	2.781418	-0.000329
 815	8.0993e+01	7.5607	99.156091	0.000649	6.486435	2.197664	-0.000260
 816	8.1093e+01	7.5239	98.849269	0.000770	7.702642	2.609726	-0.000308
 817	8.1192e+01	7.4870	98.550521	0.000750	7.499941	2.541049	-0.000300
 818	8.1291e+01	7.4388	98.251772	0.000750	7.499941	2.541049	-0.000300
 819	8.1391e+01	7.3987	97.932839	0.000801	8.006693	2.712741	-0.000321
 820	8.1490e+01	7.3698	97.626016	0.000770	7.702642	2.609726	-0.000308
 821	8.1590e+01	7.3313	97.355528	0.000679	6.790487	2.300679	-0.000272
 822	8.1689e+01	7.2880	97.032557	0.000811	8.108044	2.747080	-0.000325
 823	8.1789e+01	7.2431	96.733809	0.000750	7.499941	2.541049	-0.000300
 824	8.1888e+01	7.1918	96.406801	0.000821	8.209395	2.781418	-0.000329
 825	8.1988e+01	7.1613	96.148425	0.000649	6.486435	2.197664	-0.000260
 826	8.2088e+01	7.1324	95.841602	0.000770	7.702642	2.609726	-0.000308
 827	8.2187e+01	7.0827	95.542854	0.000750	7.499941	2.541049	-0.000300
 828	8.2287e+01	7.0378	95.256218	0.000720	7.195889	2.438033	-0.000288
 829	8.2386e+01	7.0025	94.949395	0.000770	7.702642	2.609726	-0.000308
 830	8.2486e+01	6.9704	94.642573	0.000770	7.702642	2.609726	-0.000308
 831	8.2585e+01	6.9271	94.331714	0.000780	7.803992	2.644064	-0.000312
 832	8.2684e+01	6.8806	94.000669	0.000831	8.310745	2.815757	-0.000333
 833	8.2784e+01	6.8453	93.697883	0.000760	7.601291	2.575387	-0.000304
 834	8.2883e+01	6.8132	93.447581	0.000628	6.283734	2.128987	-0.000252
 835	8.2983e+01	6.7634	93.140759	0.000770	7.702642	2.609726	-0.000308
 836	8.3082e+01	6.7282	92.793565	0.000872	8.716147	2.953111	-0.000349
 837	8.3182e+01	6.6880	92.506928	0.000720	7.195889	2.438033	-0.000288
 838	8.3281e+01	6.6544	92.216255	0.000730	7.297240	2.472372	-0.000292
 839	8.3381e+01	6.6062	91.905395	0.000780	7.803992	2.644064	-0.000312
 840	8.3481e+01	6.5661	91.618758	0.000720	7.195889	2.438033	-0.000288
 841	8.3580e+01	6.5324	91.279639	0.000851	8.513446	2.884434	-0.000341
 842	8.3680e+01	6.4923	90.997040	0.000709	7.094538	2.403695	-0.000284
 843	8.3779e+01	6.4442	90.698291	0.000750	7.499941	2.541049	-0.000300
 844	8.3879e+01	6.4201	90.395506	0.000760	7.601291	2.575387	-0.000304
 845	8.3978e+01	6.3624	90.088684	0.000770	7.702642	2.609726	-0.000308
 846	8.4078e+01	6.3399	89.793973	0.000740	7.398590	2.506710	-0.000296
 847	8.4177e+01	6.2950	89.479076	0.000791	7.905343	2.678403	-0.000316
 848	8.4276e+01	6.2501	89.164180	0.000791	7.905343	2.678403	-0.000316
 849	8.4376e+01	6.2052	88.865432	0.000750	7.499941	2.541049	-0.000300
 850	8.4475e+01	6.1619	88.534387	0.000831	8.310745	2.815757	-0.000333
 851	8.4575e+01	6.1378	88.235639	0.000750	7.499941	2.541049	-0.000300
 852	8.4674e+01	6.0865	87.957076	0.000699	6.993188	2.369356	-0.000280
 853	8.4774e+01	6.0576	87.658328	0.000750	7.499941	2.541049	-0.000300
 854	8.4874e+01	6.0095	87.319209	0.000851	8.513446	2.884434	-0.000341
 855	8.4973e+01	5.9677	87.004312	0.000791	7.905343	2.678403	-0.000316
 856	8.5073e+01	5.9260	86.685379	0.000801	8.006693	2.712741	-0.000321
 857	8.5172e+01	5.8859	86.382593	0.000760	7.601291	2.575387	-0.000304
 858	8.5272e+01	5.8538	86.047511	0.000841	8.412096	2.850095	-0.000337
 859	8.5371e+01	5.8121	85.740689	0.000770	7.702642	2.609726	-0.000308
 860	8.5471e+01	5.7817	85.441941	0.000750	7.499941	2.541049	-0.000300
 861	8.5570e+01	5.7287	85.191638	0.000628	6.283734	2.128987	-0.000252
 862	8.5669e+01	5.7014	84.844445	0.000872	8.716147	2.953111	-0.000349
 863	8.5769e+01	5.6485	84.541659	0.000760	7.601291	2.575387	-0.000304
 864	8.5868e+01	5.6180	84.198503	0.000861	8.614797	2.918772	-0.000345
 865	8.5968e+01	5.5747	83.919941	0.000699	6.993188	2.369356	-0.000280
 866	8.6067e+01	5.5314	83.609081	0.000780	7.803992	2.644064	-0.000312
 867	8.6167e+01	5.4913	83.306296	0.000760	7.601291	2.575387	-0.000304
 868	8.6266e+01	5.4512	82.934879	0.000932	9.324251	3.159142	-0.000373
 869	8.6366e+01	5.4175	82.660354	0.000689	6.891837	2.335018	-0.000276
 870	8.6466e+01	5.3678	82.337383	0.000811	8.108044	2.747080	-0.000325
 871	8.6565e+01	5.3277	82.038635	0.000750	7.499941	2.541049	-0.000300
 872	8.6665e+01	5.2972	81.695479	0.000861	8.614797	2.918772	-0.000345
 873	8.6764e+01	5.2619	81.388656	0.000770	7.702642	2.609726	-0.000308
 874	8.6864e+01	5.2138	81.061648	0.000821	8.209395	2.781418	-0.000329
 875	8.6963e+01	5.1720	80.754826	0.000770	7.702642	2.609726	-0.000308
 876	8.7063e+01	5.1351	80.443967	0.000780	7.803992	2.644064	-0.000312
 877	8.7162e+01	5.0854	80.120996	0.000811	8.108044	2.747080	-0.000325
 878	8.7261e+01	5.0533	79.826285	0.000740	7.398590	2.506710	-0.000296
 879	8.7361e+01	5.0180	79.491203	0.000841	8.412096	2.850095	-0.000337
 880	8.7460e+01	4.9747	79.172269	0.000801	8.006693	2.712741	-0.000321
 881	8.7560e+01	4.9426	78.833150	0.000851	8.513446	2.884434	-0.000341
 882	8.7659e+01	4.8849	78.590921	0.000608	6.081033	2.060310	-0.000243
 883	8.7759e+01	4.8576	78.251802	0.000851	8.513446	2.884434	-0.000341
 884	8.7859e+01	4.8207	77.916720	0.000841	8.412096	2.850095	-0.000337
 885	8.7958e+01	4.7758	77.613935	0.000760	7.601291	2.575387	-0.000304
 886	8.8058e+01	4.7373	77.270778	0.000861	8.614797	2.918772	-0.000345
 887	8.8157e+01	4.6908	76.992216	0.000699	6.993188	2.369356	-0.000280
 888	8.8257e+01	4.6539	76.653096	0.000851	8.513446	2.884434	-0.000341
 889	8.8356e+01	4.6041	76.370497	0.000709	7.094538	2.403695	-0.000284
 890	8.8456e+01	4.5785	76.027340	0.000861	8.614797	2.918772	-0.000345
 891	8.8555e+01	4.5287	75.736666	0.000730	7.297240	2.472372	-0.000292
 892	8.8654e+01	4.4951	75.409658	0.000821	8.209395	2.781418	-0.000329
 893	8.8754e+01	4.4550	75.078613	0.000831	8.310745	2.815757	-0.000333
 894	8.8853e+01	4.4116	74.759680	0.000801	8.006693	2.712741	-0.000321
 895	8.8953e+01	4.3812	74.432672	0.000821	8.209395	2.781418	-0.000329
 896	8.9052e+01	4.3459	74.113738	0.000801	8.006693	2.712741	-0.000321
 897	8.9152e+01	4.2945	73.814990	0.000750	7.499941	2.541049	-0.000300
 898	8.9251e+01	4.2624	73.520279	0.000740	7.398590	2.506710	-0.000296
 899	8.9351e+01	4.2207	73.185197	0.000841	8.412096	2.850095	-0.000337
 900	8.9451e+01	4.1790	72.866263	0.000801	8.006693	2.712741	-0.000321
 901	8.9550e+01	4.1373	72.539255	0.000821	8.209395	2.781418	-0.000329
 902	8.9650e+01	4.1004	72.232433	0.000770	7.702642	2.609726	-0.000308
 903	8.9749e+01	4.0571	71.917536	0.000791	7.905343	2.678403	-0.000316
 904	8.9849e+01	4.0154	71.578417	0.000851	8.513446	2.884434	-0.000341
 905	8.9948e+01	3.9817	71.295817	0.000709	7.094538	2.403695	-0.000284
 906	9.0047e+01	3.9432	70.948623	0.000872	8.716147	2.953111	-0.000349
 907	9.0147e+01	3.8999	70.649875	0.000750	7.499941	2.541049	-0.000300
 908	9.0246e+01	3.8582	70.330942	0.000801	8.006693	2.712741	-0.000321
 909	9.0346e+01	3.8245	70.020082	0.000780	7.803992	2.644064	-0.000312
 910	9.0445e+01	3.7748	69.676926	0.000861	8.614797	2.918772	-0.000345
 911	9.0545e+01	3.7475	69.390289	0.000720	7.195889	2.438033	-0.000288
 912	9.0644e+01	3.6962	69.063281	0.000821	8.209395	2.781418	-0.000329
 913	9.0744e+01	3.6657	68.764533	0.000750	7.499941	2.541049	-0.000300
 914	9.0844e+01	3.6191	68.401191	0.000912	9.121549	3.090465	-0.000365
 915	9.0943e+01	3.5726	68.090331	0.000780	7.803992	2.644064	-0.000312
 916	9.1043e+01	3.5373	67.803695	0.000720	7.195889	2.438033	-0.000288
 917	9.1142e+01	3.5052	67.456501	0.000872	8.716147	2.953111	-0.000349
 918	9.1242e+01	3.4619	67.121419	0.000841	8.412096	2.850095	-0.000337
 919	9.1341e+01	3.4218	66.806522	0.000791	7.905343	2.678403	-0.000316
 920	9.1441e+01	3.3833	66.467403	0.000851	8.513446	2.884434	-0.000341
 921	9.1540e+01	3.3464	66.148469	0.000801	8.006693	2.712741	-0.000321
 922	9.1639e+01	3.3095	65.841647	0.000770	7.702642	2.609726	-0.000308
 923	9.1739e+01	3.2566	65.530787	0.000780	7.803992	2.644064	-0.000312
 924	9.1838e+01	3.2149	65.191668	0.000851	8.513446	2.884434	-0.000341
 925	9.1938e+01	3.1828	64.880808	0.000780	7.803992	2.644064	-0.000312
 926	9.2037e+01	3.1443	64.541689	0.000851	8.513446	2.884434	-0.000341
 927	9.2137e+01	3.0978	64.230830	0.000780	7.803992	2.644064	-0.000312
 928	9.2237e+01	3.0625	63.924007	0.000770	7.702642	2.609726	-0.000308
 929	9.2336e+01	3.0160	63.613148	0.000780	7.803992	2.644064	-0.000312
 930	9.2436e+01	2.9839	63.249806	0.000912	9.121549	3.090465	-0.000365
 931	9.2535e+01	2.9438	62.947020	0.000760	7.601291	2.575387	-0.000304
 932	9.2635e+01	2.9037	62.595790	0.000882	8.817498	2.987449	-0.000353
 933	9.2734e+01	2.8668	62.329339	0.000669	6.689136	2.266341	-0.000268
 934	9.2834e+01	2.8218	61.998294	0.000831	8.310745	2.815757	-0.000333
 935	9.2933e+01	2.7833	61.647063	0.000882	8.817498	2.987449	-0.000353
 936	9.3032e+01	2.7448	61.299869	0.000872	8.716147	2.953111	-0.000349
 937	9.3132e+01	2.6999	61.013232	0.000720	7.195889	2.438033	-0.000288
 938	9.3231e+01	2.6550	60.686224	0.000821	8.209395	2.781418	-0.000329
 939	9.3331e+01	2.6197	60.351142	0.000841	8.412096	2.850095	-0.000337
 940	9.3430e+01	2.5812	60.024134	0.000821	8.209395	2.781418	-0.000329
 941	9.3530e+01	2.5363	59.656755	0.000922	9.222900	3.124803	-0.000369
 942	9.3629e+01	2.5122	59.374155	0.000709	7.094538	2.403695	-0.000284
 943	9.3729e+01	2.4577	59.026962	0.000872	8.716147	2.953111	-0.000349
 944	9.3829e+01	2.4288	58.716102	0.000780	7.803992	2.644064	-0.000312
 945	9.3928e+01	2.3759	58.409280	0.000770	7.702642	2.609726	-0.000308
 946	9.4028e+01	2.3438	58.066123	0.000861	8.614797	2.918772	-0.000345
 947	9.4127e+01	2.3005	57.751227	0.000791	7.905343	2.678403	-0.000316
 948	9.4227e+01	2.2684	57.428256	0.000811	8.108044	2.747080	-0.000325
 949	9.4326e+01	2.2395	57.081062	0.000872	8.716147	2.953111	-0.000349
 950	9.4425e+01	2.1882	56.770203	0.000780	7.803992	2.644064	-0.000312
 951	9.4525e+01	2.1433	56.435120	0.000841	8.412096	2.850095	-0.000337
 952	9.4624e+01	2.1096	56.108112	0.000821	8.209395	2.781418	-0.000329
 953	9.4724e+01	2.0630	55.785142	0.000811	8.108044	2.747080	-0.000325
 954	9.4823e+01	2.0326	55.474282	0.000780	7.803992	2.644064	-0.000312
 955	9.4923e+01	1.9828	55.127089	0.000872	8.716147	2.953111	-0.000349
 956	9.5022e+01	1.9507	54.808155	0.000801	8.006693	2.712741	-0.000321
 957	9.5122e+01	1.9042	54.489221	0.000801	8.006693	2.712741	-0.000321
 958	9.5222e+01	1.8609	54.158176	0.000831	8.310745	2.815757	-0.000333
 959	9.5321e+01	1.8272	53.823094	0.000841	8.412096	2.850095	-0.000337
 960	9.5421e+01	1.7855	53.496086	0.000821	8.209395	2.781418	-0.000329
 961	9.5520e+01	1.7502	53.165041	0.000831	8.310745	2.815757	-0.000333
 962	9.5620e+01	1.7005	52.829958	0.000841	8.412096	2.850095	-0.000337
 963	9.5719e+01	1.6668	52.523136	0.000770	7.702642	2.609726	-0.000308
 964	9.5819e+01	1.6347	52.159794	0.000912	9.121549	3.090465	-0.000365
 965	9.5918e+01	1.5834	51.820674	0.000851	8.513446	2.884434	-0.000341
 966	9.6017e+01	1.5545	51.513852	0.000770	7.702642	2.609726	-0.000308
 967	9.6117e+01	1.5096	51.227215	0.000720	7.195889	2.438033	-0.000288
 968	9.6216e+01	1.4647	50.880022	0.000872	8.716147	2.953111	-0.000349
 969	9.6316e+01	1.4278	50.540902	0.000851	8.513446	2.884434	-0.000341
 970	9.6415e+01	1.3845	50.185634	0.000892	8.918848	3.021788	-0.000357
 971	9.6515e+01	1.3508	49.886886	0.000750	7.499941	2.541049	-0.000300
 972	9.6615e+01	1.3042	49.547767	0.000851	8.513446	2.884434	-0.000341
 973	9.6714e+01	1.2689	49.257093	0.000730	7.297240	2.472372	-0.000292
 974	9.6814e+01	1.2224	48.889714	0.000922	9.222900	3.124803	-0.000369
 975	9.6913e+01	1.2000	48.546557	0.000861	8.614797	2.918772	-0.000345
 976	9.7013e+01	1.1502	48.239735	0.000770	7.702642	2.609726	-0.000308
 977	9.7112e+01	1.1021	47.896578	0.000861	8.614797	2.918772	-0.000345
 978	9.7212e+01	1.0700	47.565533	0.000831	8.310745	2.815757	-0.000333
 979	9.7311e+01	1.0347	47.182005	0.000963	9.628302	3.262157	-0.000385
 980	9.7410e+01	0.9882	46.907480	0.000689	6.891837	2.335018	-0.000276
 981	9.7510e+01	0.9465	46.556249	0.000882	8.817498	2.987449	-0.000353
 982	9.7609e+01	0.9096	46.192907	0.000912	9.121549	3.090465	-0.000365
 983	9.7709e+01	0.8727	45.886085	0.000770	7.702642	2.609726	-0.000308
 984	9.7808e+01	0.8326	45.579262	0.000770	7.702642	2.609726	-0.000308
 985	9.7908e+01	0.7845	45.240143	0.000851	8.513446	2.884434	-0.000341
 986	9.8007e+01	0.7492	44.876801	0.000912	9.121549	3.090465	-0.000365
 987	9.8107e+01	0.7187	44.565941	0.000780	7.803992	2.644064	-0.000312
 988	9.8207e+01	0.6786	44.206636	0.000902	9.020199	3.056126	-0.000361
 989	9.8306e+01	0.6353	43.972482	0.000588	5.878332	1.991633	-0.000235
 990	9.8406e+01	0.5920	43.544546	0.001074	10.743158	3.639881	-0.000430
 991	9.8505e+01	0.5438	43.233687	0.000780	7.803992	2.644064	-0.000312
 992	9.8605e+01	0.5069	42.918790	0.000791	7.905343	2.678403	-0.000316
 993	9.8704e+01	0.4684	42.559485	0.000902	9.020199	3.056126	-0.000361
 994	9.8803e+01	0.4380	42.224403	0.000841	8.412096	2.850095	-0.000337
 995	9.8903e+01	0.3898	41.901432	0.000811	8.108044	2.747080	-0.000325
 996	9.9002e+01	0.3529	41.610758	0.000730	7.297240	2.472372	-0.000292
 997	9.9102e+01	0.3080	41.243379	0.000922	9.222900	3.124803	-0.000369
 998	9.9201e+01	0.2631	40.904259	0.000851	8.513446	2.884434	-0.000341
 999	9.9301e+01	0.2438	40.512657	0.000983	9.831003	3.330834	-0.000394
1000	9.9400e+01	0.1925	40.258318	0.000639	6.385085	2.163325	-0.000256
1001	9.9500e+01	0.1556	39.862678	0.000993	9.932354	3.365173	-0.000398
1002	9.9600e+01	0.1155	39.555856	0.000770	7.702642	2.609726	-0.000308
1003	9.9699e+01	0.0786	39.236922	0.000801	8.006693	2.712741	-0.000321
1004	9.9799e+01	0.0321	38.893766	0.000861	8.614797	2.918772	-0.000345
1005	9.9898e+01	0.0048	38.635389	0.000649	6.486435	2.197664	-0.000260
1006	9.9998e+01	-0.0257	38.284158	0.000882	8.817498	2.987449	-0.000353
1007	1.0010e+02	-0.0754	37.981373	0.000760	7.601291	2.575387	-0.000304
1008	1.0020e+02	-0.1219	37.577659	0.001014	10.135055	3.433850	-0.000406
1009	1.0030e+02	-0.1620	37.311208	0.000669	6.689136	2.266341	-0.000268
1010	1.0040e+02	-0.1989	36.939792	0.000932	9.324251	3.159142	-0.000373
1011	1.0050e+02	-0.2438	36.637007	0.000760	7.601291	2.575387	-0.000304
1012	1.0059e+02	-0.2759	36.277702	0.000902	9.020199	3.056126	-0.000361
1013	1.0069e+02	-0.3192	35.958768	0.000801	8.006693	2.712741	-0.000321
1014	1.0079e+02	-0.3593	35.651946	0.000770	7.702642	2.609726	-0.000308
1015	1.0089e+02	-0.3995	35.284566	0.000922	9.222900	3.124803	-0.000369
1016	1.0099e+02	-0.4380	34.981781	0.000760	7.601291	2.575387	-0.000304
1017	1.0109e+02	-0.4877	34.602290	0.000953	9.526952	3.227819	-0.000381
1018	1.0119e+02	-0.5150	34.291431	0.000780	7.803992	2.644064	-0.000312
1019	1.0129e+02	-0.5567	33.968460	0.000811	8.108044	2.747080	-0.000325
1020	1.0139e+02	-0.5920	33.661638	0.000770	7.702642	2.609726	-0.000308
1021	1.0149e+02	-0.6401	33.310407	0.000882	8.817498	2.987449	-0.000353
1022	1.0159e+02	-0.6882	32.967250	0.000861	8.614797	2.918772	-0.000345
1023	1.0169e+02	-0.7171	32.640242	0.000821	8.209395	2.781418	-0.000329
1024	1.0179e+02	-0.7540	32.309197	0.000831	8.310745	2.815757	-0.000333
1025	1.0189e+02	-0.7893	31.990264	0.000801	8.006693	2.712741	-0.000321
1026	1.0199e+02	-0.8358	31.647107	0.000861	8.614797	2.918772	-0.000345
1027	1.0209e+02	-0.8631	31.307988	0.000851	8.513446	2.884434	-0.000341
1028	1.0219e+02	-0.9176	30.948683	0.000902	9.020199	3.056126	-0.000361
1029	1.0229e+02	-0.9513	30.625712	0.000811	8.108044	2.747080	-0.000325
1030	1.0239e+02	-0.9994	30.322927	0.000760	7.601291	2.575387	-0.000304
1031	1.0248e+02	-1.0411	29.947473	0.000943	9.425601	3.193480	-0.000377
1032	1.0258e+02	-1.0764	29.660836	0.000720	7.195889	2.438033	-0.000288
1033	1.0268e+02	-1.1165	29.297494	0.000912	9.121549	3.090465	-0.000365
1034	1.0278e+02	-1.1583	28.958375	0.000851	8.513446	2.884434	-0.000341
1035	1.0288e+02	-1.1919	28.635404	0.000811	8.108044	2.747080	-0.000325
1036	1.0298e+02	-1.2288	28.316470	0.000801	8.006693	2.712741	-0.000321
1037	1.0308e+02	-1.2738	27.981388	0.000841	8.412096	2.850095	-0.000337
1038	1.0318e+02	-1.3139	27.622083	0.000902	9.020199	3.056126	-0.000361
1039	1.0328e+02	-1.3572	27.323335	0.000750	7.499941	2.541049	-0.000300
1040	1.0338e+02	-1.3989	26.972104	0.000882	8.817498	2.987449	-0.000353
1041	1.0348e+02	-1.4422	26.637022	0.000841	8.412096	2.850095	-0.000337
1042	1.0358e+02	-1.4743	26.297902	0.000851	8.513446	2.884434	-0.000341
1043	1.0368e+02	-1.5128	25.954746	0.000861	8.614797	2.918772	-0.000345
1044	1.0378e+02	-1.5545	25.655998	0.000750	7.499941	2.541049	-0.000300
1045	1.0388e+02	-1.5850	25.345138	0.000780	7.803992	2.644064	-0.000312
1046	1.0398e+02	-1.6363	25.001982	0.000861	8.614797	2.918772	-0.000345
1047	1.0408e+02	-1.6716	24.646714	0.000892	8.918848	3.021788	-0.000357
1048	1.0418e+02	-1.7117	24.315669	0.000831	8.310745	2.815757	-0.000333
1049	1.0428e+02	-1.7438	23.992698	0.000811	8.108044	2.747080	-0.000325
1050	1.0438e+02	-1.7871	23.661653	0.000831	8.310745	2.815757	-0.000333
1051	1.0447e+02	-1.8336	23.334645	0.000821	8.209395	2.781418	-0.000329
1052	1.0457e+02	-1.8641	22.999562	0.000841	8.412096	2.850095	-0.000337
1053	1.0467e+02	-1.9203	22.636220	0.000912	9.121549	3.090465	-0.000365
1054	1.0477e+02	-1.9524	22.345546	0.000730	7.297240	2.472372	-0.000292
1055	1.0487e+02	-1.9909	22.006427	0.000851	8.513446	2.884434	-0.000341
1056	1.0497e+02	-2.0245	21.699605	0.000770	7.702642	2.609726	-0.000308
1057	1.0507e+02	-2.0663	21.328188	0.000932	9.324251	3.159142	-0.000373
1058	1.0517e+02	-2.1128	21.033477	0.000740	7.398590	2.506710	-0.000296
1059	1.0527e+02	-2.1465	20.714543	0.000801	8.006693	2.712741	-0.000321
1060	1.0537e+02	-2.1914	20.367350	0.000872	8.716147	2.953111	-0.000349
1061	1.0547e+02	-2.2315	20.032268	0.000841	8.412096	2.850095	-0.000337
1062	1.0557e+02	-2.2716	19.717371	0.000791	7.905343	2.678403	-0.000316
1063	1.0567e+02	-2.3037	19.345954	0.000932	9.324251	3.159142	-0.000373
1064	1.0577e+02	-2.3406	19.043169	0.000760	7.601291	2.575387	-0.000304
1065	1.0587e+02	-2.3935	18.704050	0.000851	8.513446	2.884434	-0.000341
1066	1.0597e+02	-2.4352	18.377042	0.000821	8.209395	2.781418	-0.000329
1067	1.0607e+02	-2.4577	18.074257	0.000760	7.601291	2.575387	-0.000304
1068	1.0617e+02	-2.5090	17.747249	0.000821	8.209395	2.781418	-0.000329
1069	1.0627e+02	-2.5443	17.396018	0.000882	8.817498	2.987449	-0.000353
1070	1.0637e+02	-2.5844	17.085158	0.000780	7.803992	2.644064	-0.000312
1071	1.0647e+02	-2.6261	16.770262	0.000791	7.905343	2.678403	-0.000316
1072	1.0656e+02	-2.6694	16.419031	0.000882	8.817498	2.987449	-0.000353
1073	1.0666e+02	-2.7112	16.104134	0.000791	7.905343	2.678403	-0.000316
1074	1.0676e+02	-2.7561	15.740792	0.000912	9.121549	3.090465	-0.000365
1075	1.0686e+02	-2.7914	15.474341	0.000669	6.689136	2.266341	-0.000268
1076	1.0696e+02	-2.8267	15.127148	0.000872	8.716147	2.953111	-0.000349
1077	1.0706e+02	-2.8684	14.828400	0.000750	7.499941	2.541049	-0.000300
1078	1.0716e+02	-2.9037	14.493317	0.000841	8.412096	2.850095	-0.000337
1079	1.0726e+02	-2.9502	14.134012	0.000902	9.020199	3.056126	-0.000361
1080	1.0736e+02	-2.9919	13.835264	0.000750	7.499941	2.541049	-0.000300
1081	1.0746e+02	-3.0240	13.508256	0.000821	8.209395	2.781418	-0.000329
1082	1.0756e+02	-3.0689	13.193360	0.000791	7.905343	2.678403	-0.000316
1083	1.0766e+02	-3.1074	12.813869	0.000953	9.526952	3.227819	-0.000381
1084	1.0776e+02	-3.1459	12.547418	0.000669	6.689136	2.266341	-0.000268
1085	1.0786e+02	-3.1876	12.176001	0.000932	9.324251	3.159142	-0.000373
1086	1.0796e+02	-3.2325	11.893402	0.000709	7.094538	2.403695	-0.000284
1087	1.0806e+02	-3.2678	11.513911	0.000953	9.526952	3.227819	-0.000381
1088	1.0816e+02	-3.2967	11.223237	0.000730	7.297240	2.472372	-0.000292
1089	1.0826e+02	-3.3496	10.884118	0.000851	8.513446	2.884434	-0.000341
1090	1.0836e+02	-3.3865	10.553073	0.000831	8.310745	2.815757	-0.000333
1091	1.0845e+02	-3.4202	10.234139	0.000801	8.006693	2.712741	-0.000321
1092	1.0855e+02	-3.4635	9.907131	0.000821	8.209395	2.781418	-0.000329
1093	1.0865e+02	-3.5020	9.604346	0.000760	7.601291	2.575387	-0.000304
1094	1.0875e+02	-3.5357	9.269264	0.000841	8.412096	2.850095	-0.000337
1095	1.0885e+02	-3.5855	8.966478	0.000760	7.601291	2.575387	-0.000304
1096	1.0895e+02	-3.6304	8.635433	0.000831	8.310745	2.815757	-0.000333
1097	1.0905e+02	-3.6625	8.288240	0.000872	8.716147	2.953111	-0.000349
1098	1.0915e+02	-3.6945	7.957195	0.000831	8.310745	2.815757	-0.000333
1099	1.0925e+02	-3.7475	7.589815	0.000922	9.222900	3.124803	-0.000369
1100	1.0935e+02	-3.7732	7.307216	0.000709	7.094538	2.403695	-0.000284
1101	1.0945e+02	-3.8245	6.947911	0.000902	9.020199	3.056126	-0.000361
1102	1.0955e+02	-3.8710	6.657237	0.000730	7.297240	2.472372	-0.000292
1103	1.0965e+02	-3.9063	6.285820	0.000932	9.324251	3.159142	-0.000373
1104	1.0975e+02	-3.9512	5.991109	0.000740	7.398590	2.506710	-0.000296
1105	1.0985e+02	-3.9913	5.704473	0.000720	7.195889	2.438033	-0.000288
1106	1.0995e+02	-4.0202	5.345168	0.000902	9.020199	3.056126	-0.000361
1107	1.1005e+02	-4.0539	5.022197	0.000811	8.108044	2.747080	-0.000325
1108	1.1015e+02	-4.0988	4.699226	0.000811	8.108044	2.747080	-0.000325
1109	1.1025e+02	-4.1485	4.400478	0.000750	7.499941	2.541049	-0.000300
1110	1.1035e+02	-4.1854	4.061359	0.000851	8.513446	2.884434	-0.000341
1111	1.1044e+02	-4.2255	3.738388	0.000811	8.108044	2.747080	-0.000325
1112	1.1054e+02	-4.2657	3.415417	0.000811	8.108044	2.747080	-0.000325
1113	1.1064e+02	-4.3026	3.112632	0.000760	7.601291	2.575387	-0.000304
1114	1.1074e+02	-4.3507	2.741215	0.000932	9.324251	3.159142	-0.000373
1115	1.1084e+02	-4.3828	2.478801	0.000659	6.587786	2.232002	-0.000264
1116	1.1094e+02	-4.4261	2.143719	0.000841	8.412096	2.850095	-0.000337
1117	1.1104e+02	-4.4598	1.820748	0.000811	8.108044	2.747080	-0.000325
1118	1.1114e+02	-4.5031	1.497777	0.000811	8.108044	2.747080	-0.000325
1119	1.1124e+02	-4.5432	1.158658	0.000851	8.513446	2.884434	-0.000341
1120	1.1134e+02	-4.5849	0.876058	0.000709	7.094538	2.403695	-0.000284
1121	1.1144e+02	-4.6282	0.524828	0.000882	8.817498	2.987449	-0.000353
1122	1.1154e+02	-4.6603	0.201857	0.000811	8.108044	2.747080	-0.000325
1123	1.1164e+02	-4.6988	-0.096891	0.000750	7.499941	2.541049	-0.000300
1124	1.1174e+02	-4.7389	-0.448122	0.000882	8.817498	2.987449	-0.000353
1125	1.1184e+02	-4.7854	-0.730722	0.000709	7.094538	2.403695	-0.000284
1126	1.1194e+02	-4.8191	-1.102138	0.000932	9.324251	3.159142	-0.000373
1127	1.1204e+02	-4.8624	-1.364552	0.000659	6.587786	2.232002	-0.000264
1128	1.1214e+02	-4.8929	-1.735968	0.000932	9.324251	3.159142	-0.000373
1129	1.1224e+02	-4.9394	-2.006456	0.000679	6.790487	2.300679	-0.000272
1130	1.1234e+02	-4.9924	-2.325390	0.000801	8.006693	2.712741	-0.000321
1131	1.1244e+02	-5.0196	-2.660472	0.000841	8.412096	2.850095	-0.000337
1132	1.1253e+02	-5.0549	-3.003629	0.000861	8.614797	2.918772	-0.000345
1133	1.1263e+02	-5.0999	-3.314488	0.000780	7.803992	2.644064	-0.000312
1134	1.1273e+02	-5.1432	-3.637459	0.000811	8.108044	2.747080	-0.000325
1135	1.1283e+02	-5.1801	-3.944282	0.000770	7.702642	2.609726	-0.000308
1136	1.1293e+02	-5.2122	-4.255141	0.000780	7.803992	2.644064	-0.000312
1137	1.1303e+02	-5.2635	-4.638669	0.000963	9.628302	3.262157	-0.000385
1138	1.1313e+02	-5.2908	-4.888971	0.000628	6.283734	2.128987	-0.000252
1139	1.1323e+02	-5.3389	-5.220017	0.000831	8.310745	2.815757	-0.000333
1140	1.1333e+02	-5.3742	-5.530876	0.000780	7.803992	2.644064	-0.000312
1141	1.1343e+02	-5.4223	-5.922478	0.000983	9.831003	3.330834	-0.000394
1142	1.1353e+02	-5.4576	-6.176818	0.000639	6.385085	2.163325	-0.000256
1143	1.1363e+02	-5.4929	-6.491714	0.000791	7.905343	2.678403	-0.000316
1144	1.1373e+02	-5.5314	-6.802574	0.000780	7.803992	2.644064	-0.000312
1145	1.1383e+02	-5.5811	-7.117470	0.000791	7.905343	2.678403	-0.000316
1146	1.1393e+02	-5.6180	-7.432367	0.000791	7.905343	2.678403	-0.000316
1147	1.1403e+02	-5.6597	-7.743226	0.000780	7.803992	2.644064	-0.000312
1148	1.1413e+02	-5.6982	-8.070234	0.000821	8.209395	2.781418	-0.000329
1149	1.1423e+02	-5.7432	-8.389168	0.000801	8.006693	2.712741	-0.000321
1150	1.1433e+02	-5.7672	-8.724250	0.000841	8.412096	2.850095	-0.000337
1151	1.1442e+02	-5.8121	-9.051258	0.000821	8.209395	2.781418	-0.000329
1152	1.1452e+02	-5.8490	-9.345969	0.000740	7.398590	2.506710	-0.000296
1153	1.1462e+02	-5.9004	-9.681051	0.000841	8.412096	2.850095	-0.000337
1154	1.1472e+02	-5.9373	-9.923280	0.000608	6.081033	2.060310	-0.000243
1155	1.1482e+02	-5.9838	-10.318919	0.000993	9.932354	3.365173	-0.000398
1156	1.1492e+02	-6.0111	-10.633816	0.000791	7.905343	2.678403	-0.000316
1157	1.1502e+02	-6.0480	-10.920452	0.000720	7.195889	2.438033	-0.000288
1158	1.1512e+02	-6.0913	-11.283794	0.000912	9.121549	3.090465	-0.000365
1159	1.1522e+02	-6.1378	-11.558320	0.000689	6.891837	2.335018	-0.000276
1160	1.1532e+02	-6.1811	-11.877253	0.000801	8.006693	2.712741	-0.000321
1161	1.1542e+02	-6.2132	-12.171964	0.000740	7.398590	2.506710	-0.000296
1162	1.1552e+02	-6.2565	-12.531269	0.000902	9.020199	3.056126	-0.000361
1163	1.1562e+02	-6.2998	-12.870389	0.000851	8.513446	2.884434	-0.000341
1164	1.1572e+02	-6.3431	-13.157025	0.000720	7.195889	2.438033	-0.000288
1165	1.1582e+02	-6.3784	-13.459811	0.000760	7.601291	2.575387	-0.000304
1166	1.1592e+02	-6.4201	-13.794893	0.000841	8.412096	2.850095	-0.000337
1167	1.1602e+02	-6.4474	-14.053270	0.000649	6.486435	2.197664	-0.000260
1168	1.1612e+02	-6.4875	-14.388352	0.000841	8.412096	2.850095	-0.000337
1169	1.1622e+02	-6.5340	-14.691137	0.000760	7.601291	2.575387	-0.000304
1170	1.1632e+02	-6.5677	-14.969699	0.000699	6.993188	2.369356	-0.000280
1171	1.1642e+02	-6.6030	-15.316893	0.000872	8.716147	2.953111	-0.000349
1172	1.1651e+02	-6.6511	-15.643901	0.000821	8.209395	2.781418	-0.000329
1173	1.1661e+02	-6.6913	-15.922463	0.000699	6.993188	2.369356	-0.000280
1174	1.1671e+02	-6.7314	-16.249471	0.000821	8.209395	2.781418	-0.000329
1175	1.1681e+02	-6.7634	-16.491699	0.000608	6.081033	2.060310	-0.000243
1176	1.1691e+02	-6.8132	-16.838893	0.000872	8.716147	2.953111	-0.000349
1177	1.1701e+02	-6.8421	-17.153790	0.000791	7.905343	2.678403	-0.000316
1178	1.1711e+02	-6.8854	-17.500983	0.000872	8.716147	2.953111	-0.000349
1179	1.1721e+02	-6.9399	-17.803769	0.000760	7.601291	2.575387	-0.000304
1180	1.1731e+02	-6.9656	-18.058108	0.000639	6.385085	2.163325	-0.000256
1181	1.1741e+02	-7.0121	-18.413376	0.000892	8.918848	3.021788	-0.000357
1182	1.1751e+02	-7.0506	-18.736347	0.000811	8.108044	2.747080	-0.000325
1183	1.1761e+02	-7.0795	-19.018946	0.000709	7.094538	2.403695	-0.000284
1184	1.1771e+02	-7.1244	-19.349992	0.000831	8.310745	2.815757	-0.000333
1185	1.1781e+02	-7.1677	-19.636628	0.000720	7.195889	2.438033	-0.000288
1186	1.1791e+02	-7.2062	-19.935376	0.000750	7.499941	2.541049	-0.000300
1187	1.1801e+02	-7.2511	-20.246236	0.000780	7.803992	2.644064	-0.000312
1188	1.1811e+02	-7.2880	-20.569207	0.000811	8.108044	2.747080	-0.000325
1189	1.1821e+02	-7.3217	-20.884103	0.000791	7.905343	2.678403	-0.000316
1190	1.1831e+02	-7.3714	-21.170740	0.000720	7.195889	2.438033	-0.000288
1191	1.1841e+02	-7.4083	-21.457376	0.000720	7.195889	2.438033	-0.000288
1192	1.1850e+02	-7.4485	-21.796496	0.000851	8.513446	2.884434	-0.000341
1193	1.1860e+02	-7.4870	-22.099281	0.000760	7.601291	2.575387	-0.000304
1194	1.1870e+02	-7.5255	-22.385918	0.000720	7.195889	2.438033	-0.000288
1195	1.1880e+02	-7.5672	-22.721000	0.000841	8.412096	2.850095	-0.000337
1196	1.1890e+02	-7.6041	-22.967265	0.000618	6.182384	2.094648	-0.000248
1197	1.1900e+02	-7.6522	-23.314459	0.000872	8.716147	2.953111	-0.000349
1198	1.1910e+02	-7.6875	-23.588984	0.000689	6.891837	2.335018	-0.000276
1199	1.1920e+02	-7.7340	-23.875621	0.000720	7.195889	2.438033	-0.000288
1200	1.1930e+02	-7.7661	-24.210703	0.000841	8.412096	2.850095	-0.000337
1201	1.1940e+02	-7.8110	-24.525600	0.000791	7.905343	2.678403	-0.000316
1202	1.1950e+02	-7.8511	-24.824348	0.000750	7.499941	2.541049	-0.000300
1203	1.1960e+02	-7.8784	-25.147319	0.000811	8.108044	2.747080	-0.000325
1204	1.1970e+02	-7.9265	-25.409732	0.000659	6.587786	2.232002	-0.000264
1205	1.1980e+02	-7.9698	-25.740777	0.000831	8.310745	2.815757	-0.000333
1206	1.1990e+02	-8.0083	-26.075860	0.000841	8.412096	2.850095	-0.000337
1207	1.2000e+02	-8.0484	-26.366534	0.000730	7.297240	2.472372	-0.000292
1208	1.2010e+02	-8.0853	-26.628947	0.000659	6.587786	2.232002	-0.000264
1209	1.2020e+02	-8.1222	-26.931733	0.000760	7.601291	2.575387	-0.000304
1210	1.2030e+02	-8.1607	-27.266815	0.000841	8.412096	2.850095	-0.000337
1211	1.2039e+02	-8.2008	-27.533266	0.000669	6.689136	2.266341	-0.000268
1212	1.2049e+02	-8.2506	-27.836051	0.000760	7.601291	2.575387	-0.000304
1213	1.2059e+02	-8.2859	-28.146910	0.000780	7.803992	2.644064	-0.000312
1214	1.2069e+02	-8.3356	-28.445658	0.000750	7.499941	2.541049	-0.000300
1215	1.2079e+02	-8.3564	-28.712109	0.000669	6.689136	2.266341	-0.000268
1216	1.2089e+02	-8.4030	-29.047192	0.000841	8.412096	2.850095	-0.000337
1217	1.2099e+02	-8.4463	-29.358051	0.000780	7.803992	2.644064	-0.000312
1218	1.2109e+02	-8.4848	-29.624502	0.000669	6.689136	2.266341	-0.000268
1219	1.2119e+02	-8.5201	-29.886916	0.000659	6.587786	2.232002	-0.000264
1220	1.2129e+02	-8.5634	-30.221998	0.000841	8.412096	2.850095	-0.000337
1221	1.2139e+02	-8.6035	-30.504598	0.000709	7.094538	2.403695	-0.000284
1222	1.2149e+02	-8.6404	-30.795271	0.000730	7.297240	2.472372	-0.000292
1223	1.2159e+02	-8.6789	-31.085945	0.000730	7.297240	2.472372	-0.000292
1224	1.2169e+02	-8.7174	-31.368545	0.000709	7.094538	2.403695	-0.000284
1225	1.2179e+02	-8.7543	-31.663256	0.000740	7.398590	2.506710	-0.000296
1226	1.2189e+02	-8.8024	-31.990264	0.000821	8.209395	2.781418	-0.000329
1227	1.2199e+02	-8.8457	-32.260752	0.000679	6.790487	2.300679	-0.000272
1228	1.2209e+02	-8.8874	-32.595834	0.000841	8.412096	2.850095	-0.000337
1229	1.2219e+02	-8.9227	-32.870359	0.000689	6.891837	2.335018	-0.000276
1230	1.2229e+02	-8.9596	-33.185256	0.000791	7.905343	2.678403	-0.000316
1231	1.2239e+02	-9.0062	-33.419410	0.000588	5.878332	1.991633	-0.000235
1232	1.2248e+02	-9.0366	-33.726232	0.000770	7.702642	2.609726	-0.000308
1233	1.2258e+02	-9.0767	-34.016906	0.000730	7.297240	2.472372	-0.000292
1234	1.2268e+02	-9.1185	-34.295468	0.000699	6.993188	2.369356	-0.000280
1235	1.2278e+02	-9.1554	-34.610365	0.000791	7.905343	2.678403	-0.000316
1236	1.2288e+02	-9.2019	-34.888927	0.000699	6.993188	2.369356	-0.000280
1237	1.2298e+02	-9.2452	-35.232084	0.000861	8.614797	2.918772	-0.000345
1238	1.2308e+02	-9.2853	-35.454126	0.000557	5.574280	1.888617	-0.000223
1239	1.2318e+02	-9.3174	-35.748837	0.000740	7.398590	2.506710	-0.000296
1240	1.2328e+02	-9.3559	-36.083919	0.000841	8.412096	2.850095	-0.000337
1241	1.2338e+02	-9.4185	-36.370556	0.000720	7.195889	2.438033	-0.000288
1242	1.2348e+02	-9.4409	-36.645081	0.000689	6.891837	2.335018	-0.000276
1243	1.2358e+02	-9.4762	-36.919606	0.000689	6.891837	2.335018	-0.000276
1244	1.2368e+02	-9.5243	-37.226429	0.000770	7.702642	2.609726	-0.000308
1245	1.2378e+02	-9.5660	-37.492880	0.000669	6.689136	2.266341	-0.000268
1246	1.2388e+02	-9.5949	-37.787591	0.000740	7.398590	2.506710	-0.000296
1247	1.2398e+02	-9.6350	-38.066153	0.000699	6.993188	2.369356	-0.000280
1248	1.2408e+02	-9.6703	-38.364901	0.000750	7.499941	2.541049	-0.000300
1249	1.2418e+02	-9.7217	-38.631352	0.000669	6.689136	2.266341	-0.000268
1250	1.2428e+02	-9.7585	-38.930100	0.000750	7.499941	2.541049	-0.000300
1251	1.2438e+02	-9.7954	-39.232885	0.000760	7.601291	2.575387	-0.000304
1252	1.2447e+02	-9.8420	-39.503373	0.000679	6.790487	2.300679	-0.000272
1253	1.2457e+02	-9.8757	-39.773861	0.000679	6.790487	2.300679	-0.000272
1254	1.2467e+02	-9.9061	-40.044349	0.000679	6.790487	2.300679	-0.000272
1255	1.2477e+02	-9.9655	-40.351172	0.000770	7.702642	2.609726	-0.000308
1256	1.2487e+02	-9.9992	-40.629734	0.000699	6.993188	2.369356	-0.000280
1257	1.2497e+02	-10.0297	-40.920408	0.000730	7.297240	2.472372	-0.000292
1258	1.2507e+02	-10.0810	-41.235304	0.000791	7.905343	2.678403	-0.000316
1259	1.2517e+02	-10.1195	-41.505793	0.000679	6.790487	2.300679	-0.000272
1260	1.2527e+02	-10.1532	-41.780318	0.000689	6.891837	2.335018	-0.000276
1261	1.2537e+02	-10.1885	-42.038694	0.000649	6.486435	2.197664	-0.000260
1262	1.2547e+02	-10.2350	-42.341480	0.000760	7.601291	2.575387	-0.000304
1263	1.2557e+02	-10.2767	-42.656376	0.000791	7.905343	2.678403	-0.000316
1264	1.2567e+02	-10.3232	-42.963199	0.000770	7.702642	2.609726	-0.000308
1265	1.2577e+02	-10.3521	-43.201390	0.000598	5.979682	2.025971	-0.000239
1266	1.2587e+02	-10.3970	-43.459766	0.000649	6.486435	2.197664	-0.000260
1267	1.2597e+02	-10.4323	-43.770626	0.000780	7.803992	2.644064	-0.000312
1268	1.2607e+02	-10.4772	-44.049188	0.000699	6.993188	2.369356	-0.000280
1269	1.2617e+02	-10.5157	-44.335825	0.000720	7.195889	2.438033	-0.000288
1270	1.2627e+02	-10.5591	-44.614387	0.000699	6.993188	2.369356	-0.000280
1271	1.2636e+02	-10.6040	-44.888912	0.000689	6.891837	2.335018	-0.000276
1272	1.2646e+02	-10.6377	-45.179586	0.000730	7.297240	2.472372	-0.000292
1273	1.2656e+02	-10.6714	-45.470260	0.000730	7.297240	2.472372	-0.000292
1274	1.2666e+02	-10.7243	-45.732674	0.000659	6.587786	2.232002	-0.000264
1275	1.2676e+02	-10.7580	-46.007199	0.000689	6.891837	2.335018	-0.000276
1276	1.2686e+02	-10.7981	-46.285761	0.000699	6.993188	2.369356	-0.000280
1277	1.2696e+02	-10.8318	-46.576435	0.000730	7.297240	2.472372	-0.000292
1278	1.2706e+02	-10.8783	-46.863072	0.000720	7.195889	2.438033	-0.000288
1279	1.2716e+02	-10.9200	-47.105300	0.000608	6.081033	2.060310	-0.000243
1280	1.2726e+02	-10.9553	-47.444419	0.000851	8.513446	2.884434	-0.000341
1281	1.2736e+02	-10.9938	-47.727019	0.000709	7.094538	2.403695	-0.000284
1282	1.2746e+02	-11.0323	-47.977321	0.000628	6.283734	2.128987	-0.000252
1283	1.2756e+02	-11.0708	-48.247809	0.000679	6.790487	2.300679	-0.000272
1284	1.2766e+02	-11.1205	-48.542520	0.000740	7.398590	2.506710	-0.000296
1285	1.2776e+02	-11.1542	-48.853380	0.000780	7.803992	2.644064	-0.000312
1286	1.2786e+02	-11.1927	-49.103682	0.000628	6.283734	2.128987	-0.000252
1287	1.2796e+02	-11.2393	-49.382244	0.000699	6.993188	2.369356	-0.000280
1288	1.2806e+02	-11.2713	-49.656770	0.000689	6.891837	2.335018	-0.000276
1289	1.2816e+02	-11.3002	-49.931295	0.000689	6.891837	2.335018	-0.000276
1290	1.2826e+02	-11.3499	-50.153337	0.000557	5.574280	1.888617	-0.000223
1291	1.2835e+02	-11.3917	-50.472271	0.000801	8.006693	2.712741	-0.000321
1292	1.2845e+02	-11.4382	-50.730648	0.000649	6.486435	2.197664	-0.000260
1293	1.2855e+02	-11.4735	-51.057656	0.000821	8.209395	2.781418	-0.000329
1294	1.2865e+02	-11.5088	-51.324107	0.000669	6.689136	2.266341	-0.000268
1295	1.2875e+02	-11.5441	-51.606706	0.000709	7.094538	2.403695	-0.000284
1296	1.2885e+02	-11.5890	-51.852971	0.000618	6.182384	2.094648	-0.000248
1297	1.2895e+02	-11.6307	-52.163831	0.000780	7.803992	2.644064	-0.000312
1298	1.2905e+02	-11.6676	-52.414133	0.000628	6.283734	2.128987	-0.000252
1299	1.2915e+02	-11.7141	-52.696733	0.000709	7.094538	2.403695	-0.000284
1300	1.2925e+02	-11.7542	-52.963184	0.000669	6.689136	2.266341	-0.000268
1301	1.2935e+02	-11.7895	-53.245783	0.000709	7.094538	2.403695	-0.000284
1302	1.2945e+02	-11.8280	-53.556643	0.000780	7.803992	2.644064	-0.000312
1303	1.2955e+02	-11.8713	-53.827131	0.000679	6.790487	2.300679	-0.000272
1304	1.2965e+02	-11.9066	-54.109730	0.000709	7.094538	2.403695	-0.000284
1305	1.2975e+02	-11.9467	-54.347921	0.000598	5.979682	2.025971	-0.000239
1306	1.2985e+02	-11.9948	-54.630521	0.000709	7.094538	2.403695	-0.000284
1307	1.2995e+02	-12.0350	-54.901009	0.000679	6.790487	2.300679	-0.000272
1308	1.3005e+02	-12.0751	-55.211868	0.000780	7.803992	2.644064	-0.000312
1309	1.3015e+02	-12.1071	-55.486394	0.000689	6.891837	2.335018	-0.000276
1310	1.3025e+02	-12.1569	-55.781104	0.000740	7.398590	2.506710	-0.000296
1311	1.3034e+02	-12.2002	-56.059667	0.000699	6.993188	2.369356	-0.000280
1312	1.3044e+02	-12.2307	-56.301895	0.000608	6.081033	2.060310	-0.000243
1313	1.3054e+02	-12.2708	-56.584495	0.000709	7.094538	2.403695	-0.000284
1314	1.3064e+02	-12.3093	-56.838834	0.000639	6.385085	2.163325	-0.000256
1315	1.3074e+02	-12.3558	-57.149694	0.000780	7.803992	2.644064	-0.000312
1316	1.3084e+02	-12.3879	-57.432293	0.000709	7.094538	2.403695	-0.000284
1317	1.3094e+02	-12.4232	-57.670484	0.000598	5.979682	2.025971	-0.000239
1318	1.3104e+02	-12.4665	-57.916749	0.000618	6.182384	2.094648	-0.000248
1319	1.3114e+02	-12.5146	-58.227609	0.000780	7.803992	2.644064	-0.000312
1320	1.3124e+02	-12.5387	-58.485985	0.000649	6.486435	2.197664	-0.000260
1321	1.3134e+02	-12.6045	-58.784733	0.000750	7.499941	2.541049	-0.000300
1322	1.3144e+02	-12.6205	-59.071370	0.000720	7.195889	2.438033	-0.000288
1323	1.3154e+02	-12.6590	-59.329747	0.000649	6.486435	2.197664	-0.000260
1324	1.3164e+02	-12.6991	-59.580049	0.000628	6.283734	2.128987	-0.000252
1325	1.3174e+02	-12.7520	-59.886872	0.000770	7.702642	2.609726	-0.000308
1326	1.3184e+02	-12.7905	-60.145248	0.000649	6.486435	2.197664	-0.000260
1327	1.3194e+02	-12.8242	-60.415736	0.000679	6.790487	2.300679	-0.000272
1328	1.3204e+02	-12.8643	-60.702373	0.000720	7.195889	2.438033	-0.000288
1329	1.3214e+02	-12.8996	-60.956713	0.000639	6.385085	2.163325	-0.000256
1330	1.3224e+02	-12.9494	-61.239312	0.000709	7.094538	2.403695	-0.000284
1331	1.3234e+02	-12.9927	-61.513837	0.000689	6.891837	2.335018	-0.000276
1332	1.3243e+02	-13.0232	-61.764140	0.000628	6.283734	2.128987	-0.000252
1333	1.3253e+02	-13.0569	-62.099222	0.000841	8.412096	2.850095	-0.000337
1334	1.3263e+02	-13.1050	-62.337413	0.000598	5.979682	2.025971	-0.000239
1335	1.3273e+02	-13.1483	-62.652310	0.000791	7.905343	2.678403	-0.000316
1336	1.3283e+02	-13.1868	-62.870315	0.000547	5.472930	1.854279	-0.000219
1337	1.3293e+02	-13.2269	-63.169063	0.000750	7.499941	2.541049	-0.000300
1338	1.3303e+02	-13.2686	-63.415328	0.000618	6.182384	2.094648	-0.000248
1339	1.3313e+02	-13.2991	-63.718113	0.000760	7.601291	2.575387	-0.000304
1340	1.3323e+02	-13.3472	-63.960341	0.000608	6.081033	2.060310	-0.000243
1341	1.3333e+02	-13.3873	-64.279275	0.000801	8.006693	2.712741	-0.000321
1342	1.3343e+02	-13.4242	-64.493243	0.000537	5.371579	1.819940	-0.000215
1343	1.3353e+02	-13.4740	-64.820251	0.000821	8.209395	2.781418	-0.000329
1344	1.3363e+02	-13.5012	-65.086702	0.000669	6.689136	2.266341	-0.000268
1345	1.3373e+02	-13.5445	-65.369302	0.000709	7.094538	2.403695	-0.000284
1346	1.3383e+02	-13.5879	-65.591344	0.000557	5.574280	1.888617	-0.000223
1347	1.3393e+02	-13.6264	-65.922389	0.000831	8.310745	2.815757	-0.000333
1348	1.3403e+02	-13.6697	-66.148469	0.000568	5.675631	1.922956	-0.000227
1349	1.3413e+02	-13.7018	-66.507774	0.000902	9.020199	3.056126	-0.000361
1350	1.3423e+02	-13.7370	-66.725779	0.000547	5.472930	1.854279	-0.000219
1351	1.3432e+02	-13.7788	-66.988193	0.000659	6.587786	2.232002	-0.000264
1352	1.3442e+02	-13.8365	-67.282904	0.000740	7.398590	2.506710	-0.000296
1353	1.3452e+02	-13.8574	-67.537244	0.000639	6.385085	2.163325	-0.000256
1354	1.3462e+02	-13.9007	-67.815806	0.000699	6.993188	2.369356	-0.000280
1355	1.3472e+02	-13.9408	-68.102443	0.000720	7.195889	2.438033	-0.000288
1356	1.3482e+02	-13.9841	-68.372931	0.000679	6.790487	2.300679	-0.000272
1357	1.3492e+02	-14.0242	-68.655530	0.000709	7.094538	2.403695	-0.000284
1358	1.3502e+02	-14.0659	-68.909870	0.000639	6.385085	2.163325	-0.000256
1359	1.3512e+02	-14.1044	-69.164209	0.000639	6.385085	2.163325	-0.000256
1360	1.3522e+02	-14.1445	-69.499292	0.000841	8.412096	2.850095	-0.000337
1361	1.3532e+02	-14.1862	-69.753631	0.000639	6.385085	2.163325	-0.000256
1362	1.3542e+02	-14.2183	-69.987785	0.000588	5.878332	1.991633	-0.000235
1363	1.3552e+02	-14.2584	-70.294607	0.000770	7.702642	2.609726	-0.000308
1364	1.3562e+02	-14.3001	-70.601430	0.000770	7.702642	2.609726	-0.000308
1365	1.3572e+02	-14.3450	-70.916326	0.000791	7.905343	2.678403	-0.000316
1366	1.3582e+02	-14.3755	-71.154517	0.000598	5.979682	2.025971	-0.000239
1367	1.3592e+02	-14.4204	-71.453265	0.000750	7.499941	2.541049	-0.000300
1368	1.3602e+02	-14.4590	-71.723754	0.000679	6.790487	2.300679	-0.000272
1369	1.3612e+02	-14.5007	-72.018464	0.000740	7.398590	2.506710	-0.000296
1370	1.3622e+02	-14.5376	-72.280878	0.000659	6.587786	2.232002	-0.000264
1371	1.3631e+02	-14.5793	-72.575589	0.000740	7.398590	2.506710	-0.000296
1372	1.3641e+02	-14.6210	-72.874337	0.000750	7.499941	2.541049	-0.000300
1373	1.3651e+02	-14.6547	-73.169048	0.000740	7.398590	2.506710	-0.000296
1374	1.3661e+02	-14.7028	-73.471833	0.000760	7.601291	2.575387	-0.000304
1375	1.3671e+02	-14.7413	-73.734247	0.000659	6.587786	2.232002	-0.000264
1376	1.3681e+02	-14.7766	-74.020884	0.000720	7.195889	2.438033	-0.000288
1377	1.3691e+02	-14.8231	-74.339817	0.000801	8.006693	2.712741	-0.000321
1378	1.3701e+02	-14.8584	-74.573971	0.000588	5.878332	1.991633	-0.000235
1379	1.3711e+02	-14.9017	-74.860608	0.000720	7.195889	2.438033	-0.000288
1380	1.3721e+02	-14.9354	-75.151282	0.000730	7.297240	2.472372	-0.000292
1381	1.3731e+02	-14.9723	-75.474253	0.000811	8.108044	2.747080	-0.000325
1382	1.3741e+02	-15.0156	-75.813372	0.000851	8.513446	2.884434	-0.000341
1383	1.3751e+02	-15.0509	-76.087897	0.000689	6.891837	2.335018	-0.000276
1384	1.3761e+02	-15.1006	-76.358385	0.000679	6.790487	2.300679	-0.000272
1385	1.3771e+02	-15.1375	-76.685393	0.000821	8.209395	2.781418	-0.000329
1386	1.3781e+02	-15.1809	-76.943770	0.000649	6.486435	2.197664	-0.000260
1387	1.3791e+02	-15.2226	-77.270778	0.000821	8.209395	2.781418	-0.000329
1388	1.3801e+02	-15.2595	-77.601823	0.000831	8.310745	2.815757	-0.000333
1389	1.3811e+02	-15.2964	-77.884423	0.000709	7.094538	2.403695	-0.000284
1390	1.3821e+02	-15.3413	-78.175096	0.000730	7.297240	2.472372	-0.000292
1391	1.3831e+02	-15.3734	-78.433473	0.000649	6.486435	2.197664	-0.000260
1392	1.3840e+02	-15.4167	-78.808927	0.000943	9.425601	3.193480	-0.000377
1393	1.3850e+02	-15.4584	-79.127860	0.000801	8.006693	2.712741	-0.000321
1394	1.3860e+02	-15.4921	-79.402386	0.000689	6.891837	2.335018	-0.000276
1395	1.3870e+02	-15.5290	-79.765728	0.000912	9.121549	3.090465	-0.000365
1396	1.3880e+02	-15.5851	-80.076587	0.000780	7.803992	2.644064	-0.000312
1397	1.3890e+02	-15.6124	-80.403595	0.000821	8.209395	2.781418	-0.000329
1398	1.3900e+02	-15.6541	-80.678121	0.000689	6.891837	2.335018	-0.000276
1399	1.3910e+02	-15.6862	-81.033389	0.000892	8.918848	3.021788	-0.000357
1400	1.3920e+02	-15.7311	-81.328099	0.000740	7.398590	2.506710	-0.000296
1401	1.3930e+02	-15.7776	-81.663182	0.000841	8.412096	2.850095	-0.000337
1402	1.3940e+02	-15.8177	-81.994227	0.000831	8.310745	2.815757	-0.000333
1403	1.3950e+02	-15.8530	-82.297012	0.000760	7.601291	2.575387	-0.000304
1404	1.3960e+02	-15.8931	-82.664391	0.000922	9.222900	3.124803	-0.000369
1405	1.3970e+02	-15.9381	-82.995437	0.000831	8.310745	2.815757	-0.000333
1406	1.3980e+02	-15.9766	-83.314370	0.000801	8.006693	2.712741	-0.000321
1407	1.3990e+02	-16.0118	-83.645415	0.000831	8.310745	2.815757	-0.000333
1408	1.4000e+02	-16.0471	-83.996646	0.000882	8.817498	2.987449	-0.000353
1409	1.4010e+02	-16.0969	-84.339803	0.000861	8.614797	2.918772	-0.000345
1410	1.4020e+02	-16.1274	-84.682959	0.000861	8.614797	2.918772	-0.000345
1411	1.4029e+02	-16.1723	-85.062450	0.000953	9.526952	3.227819	-0.000381
1412	1.4039e+02	-16.2060	-85.417718	0.000892	8.918848	3.021788	-0.000357
1413	1.4049e+02	-16.2493	-85.748763	0.000831	8.310745	2.815757	-0.000333
1414	1.4059e+02	-16.2862	-86.112105	0.000912	9.121549	3.090465	-0.000365
1415	1.4069e+02	-16.3279	-86.459299	0.000872	8.716147	2.953111	-0.000349
1416	1.4079e+02	-16.3696	-86.790344	0.000831	8.310745	2.815757	-0.000333
1417	1.4089e+02	-16.4129	-87.165798	0.000943	9.425601	3.193480	-0.000377
1418	1.4099e+02	-16.4514	-87.569511	0.001014	10.135055	3.433850	-0.000406
1419	1.4109e+02	-16.4947	-87.908631	0.000851	8.513446	2.884434	-0.000341
1420	1.4119e+02	-16.5348	-88.316381	0.001024	10.236406	3.468188	-0.000410
1421	1.4129e+02	-16.5701	-88.699909	0.000963	9.628302	3.262157	-0.000385
1422	1.4139e+02	-16.6054	-89.099586	0.001003	10.033704	3.399511	-0.000402
1423	1.4149e+02	-16.6487	-89.450817	0.000882	8.817498	2.987449	-0.000353
1424	1.4159e+02	-16.7001	-89.854530	0.001014	10.135055	3.433850	-0.000406
1425	1.4169e+02	-16.7289	-90.213835	0.000902	9.020199	3.056126	-0.000361
1426	1.4179e+02	-16.7690	-90.649846	0.001095	10.945859	3.708558	-0.000438
1427	1.4189e+02	-16.8140	-91.025299	0.000943	9.425601	3.193480	-0.000377
1428	1.4199e+02	-16.8557	-91.437087	0.001034	10.337756	3.502527	-0.000414
1429	1.4209e+02	-16.8958	-91.844838	0.001024	10.236406	3.468188	-0.000410
1430	1.4219e+02	-16.9311	-92.216255	0.000932	9.324251	3.159142	-0.000373
1431	1.4228e+02	-16.9776	-92.664377	0.001125	11.249911	3.811573	-0.000450
1432	1.4238e+02	-17.0065	-93.108462	0.001115	11.148560	3.777235	-0.000446
1433	1.4248e+02	-17.0578	-93.520249	0.001034	10.337756	3.502527	-0.000414
1434	1.4258e+02	-17.0931	-93.911852	0.000983	9.831003	3.330834	-0.000394
1435	1.4268e+02	-17.1236	-94.303454	0.000983	9.831003	3.330834	-0.000394
1436	1.4278e+02	-17.1701	-94.812133	0.001277	12.770169	4.326650	-0.000511
1437	1.4288e+02	-17.2150	-95.227958	0.001044	10.439107	3.536865	-0.000418
1438	1.4298e+02	-17.2519	-95.716451	0.001226	12.263416	4.154958	-0.000491
1439	1.4308e+02	-17.2920	-96.148425	0.001084	10.844509	3.674219	-0.000434
1440	1.4318e+02	-17.3289	-96.584435	0.001095	10.945859	3.708558	-0.000438
1441	1.4328e+02	-17.3754	-97.016409	0.001084	10.844509	3.674219	-0.000434
1442	1.4338e+02	-17.4107	-97.488754	0.001186	11.858014	4.017604	-0.000475
1443	1.4348e+02	-17.4476	-97.961099	0.001186	11.858014	4.017604	-0.000475
1444	1.4358e+02	-17.4829	-98.393072	0.001084	10.844509	3.674219	-0.000434
1445	1.4368e+02	-17.5278	-98.893677	0.001257	12.567468	4.257973	-0.000503
1446	1.4378e+02	-17.5728	-99.398319	0.001267	12.668819	4.292312	-0.000507
1447	1.4388e+02	-17.6097	-99.894887	0.001247	12.466118	4.223635	-0.000499
1448	1.4398e+02	-17.6434	-100.306675	0.001034	10.337756	3.502527	-0.000414
1449	1.4408e+02	-17.6867	-100.871874	0.001419	14.189077	4.807389	-0.000568
1450	1.4418e+02	-17.7284	-101.368441	0.001247	12.466118	4.223635	-0.000499
1451	1.4428e+02	-17.7701	-101.881157	0.001287	12.871520	4.360989	-0.000515
1452	1.4437e+02	-17.8006	-102.357540	0.001196	11.959365	4.051942	-0.000479
1453	1.4447e+02	-17.8519	-102.910627	0.001389	13.885025	4.704374	-0.000556
1454	1.4457e+02	-17.8824	-103.411232	0.001257	12.567468	4.257973	-0.000503
1455	1.4467e+02	-17.9305	-103.923948	0.001287	12.871520	4.360989	-0.000515
1456	1.4477e+02	-17.9626	-104.460887	0.001348	13.479623	4.567020	-0.000540
1457	1.4487e+02	-18.0123	-105.030123	0.001429	14.290427	4.841728	-0.000572
1458	1.4497e+02	-18.0492	-105.563025	0.001338	13.378273	4.532681	-0.000536
1459	1.4507e+02	-18.0877	-106.071704	0.001277	12.770169	4.326650	-0.000511
1460	1.4517e+02	-18.1198	-106.628829	0.001399	13.986376	4.738712	-0.000560
1461	1.4527e+02	-18.1760	-107.230362	0.001510	15.101232	5.116436	-0.000605
1462	1.4537e+02	-18.2096	-107.811710	0.001459	14.594479	4.944743	-0.000584
1463	1.4547e+02	-18.2433	-108.372872	0.001409	14.087726	4.773051	-0.000564
1464	1.4557e+02	-18.2850	-109.002665	0.001581	15.810686	5.356805	-0.000633
1465	1.4567e+02	-18.3284	-109.563827	0.001409	14.087726	4.773051	-0.000564
1466	1.4577e+02	-18.3637	-110.153249	0.001480	14.797180	5.013420	-0.000592
1467	1.4587e+02	-18.4070	-110.774968	0.001561	15.607985	5.288128	-0.000625
1468	1.4597e+02	-18.4471	-111.348241	0.001439	14.391778	4.876066	-0.000576
1469	1.4607e+02	-18.4808	-111.990145	0.001611	16.114737	5.459821	-0.000645
1470	1.4617e+02	-18.5257	-112.660310	0.001682	16.824191	5.700190	-0.000674
1471	1.4626e+02	-18.5674	-113.249732	0.001480	14.797180	5.013420	-0.000592
1472	1.4636e+02	-18.5995	-113.915859	0.001672	16.722841	5.665852	-0.000669
1473	1.4646e+02	-18.6460	-114.537578	0.001561	15.607985	5.288128	-0.000625
1474	1.4656e+02	-18.6893	-115.236003	0.001753	17.533645	5.940560	-0.000702
1475	1.4666e+02	-18.7262	-115.845610	0.001530	15.303933	5.185113	-0.000613
1476	1.4676e+02	-18.7679	-116.519812	0.001693	16.925542	5.734529	-0.000678
1477	1.4686e+02	-18.8080	-117.202088	0.001713	17.128243	5.803206	-0.000686
1478	1.4696e+02	-18.8433	-117.920698	0.001804	18.040398	6.112252	-0.000722
1479	1.4706e+02	-18.8882	-118.623159	0.001763	17.634996	5.974898	-0.000706
1480	1.4716e+02	-18.9187	-119.289287	0.001672	16.722841	5.665852	-0.000669
1481	1.4726e+02	-18.9668	-119.987711	0.001753	17.533645	5.940560	-0.000702
1482	1.4736e+02	-19.0037	-120.795138	0.002027	20.270110	6.867699	-0.000811
1483	1.4746e+02	-19.0422	-121.477414	0.001713	17.128243	5.803206	-0.000686
1484	1.4756e+02	-19.0856	-122.256582	0.001956	19.560656	6.627330	-0.000783
1485	1.4766e+02	-19.1176	-122.971155	0.001794	17.939047	6.077914	-0.000718
1486	1.4776e+02	-19.1642	-123.762433	0.001986	19.864708	6.730345	-0.000795
1487	1.4786e+02	-19.1995	-124.501229	0.001855	18.547151	6.283945	-0.000743
1488	1.4796e+02	-19.2396	-125.316730	0.002047	20.472811	6.936376	-0.000820
1489	1.4806e+02	-19.2893	-126.087823	0.001936	19.357955	6.558653	-0.000775
1490	1.4816e+02	-19.3198	-126.854879	0.001926	19.256604	6.524314	-0.000771
1491	1.4825e+02	-19.3663	-127.678455	0.002068	20.675512	7.005053	-0.000828
1492	1.4835e+02	-19.3984	-128.481845	0.002017	20.168759	6.833361	-0.000807
1493	1.4845e+02	-19.4449	-129.353866	0.002189	21.891719	7.417115	-0.000876
1494	1.4855e+02	-19.4770	-130.193590	0.002108	21.080914	7.142407	-0.000844
1495	1.4865e+02	-19.5171	-131.001018	0.002027	20.270110	6.867699	-0.000811
1496	1.4875e+02	-19.5540	-131.860927	0.002159	21.587667	7.314100	-0.000864
1497	1.4885e+02	-19.5989	-132.728912	0.002179	21.790368	7.382777	-0.000872
1498	1.4895e+02	-19.6406	-133.604970	0.002199	21.993069	7.451454	-0.000880
1499	1.4905e+02	-19.6711	-134.509289	0.002270	22.702523	7.691823	-0.000909
1500	1.4915e+02	-19.7176	-135.344976	0.002098	20.979564	7.108069	-0.000840
1501	1.4925e+02	-19.7529	-136.309851	0.002422	24.222781	8.206900	-0.000970
1502	1.4935e+02	-19.7994	-137.246467	0.002351	23.513327	7.966531	-0.000941
1503	1.4945e+02	-19.8395	-138.134636	0.002230	22.297121	7.554469	-0.000893
1504	1.4955e+02	-19.8780	-139.091438	0.002402	24.020080	8.138223	-0.000962
1505	1.4965e+02	-19.9166	-140.024016	0.002341	23.411977	7.932193	-0.000937
1506	1.4975e+02	-19.9534	-141.029263	0.002524	25.236287	8.550285	-0.001010
1507	1.4985e+02	-19.9968	-141.986064	0.002402	24.020080	8.138223	-0.000962
1508	1.4995e+02	-19.9583	-142.579523	-0.001490	-14.898531	-5.047759	-0.000596
1509	1.5005e+02	-19.9133	-143.112425	-0.001338	-13.378273	-4.532681	-0.000536
1510	1.5015e+02	-19.8732	-143.641290	-0.001328	-13.276922	-4.498343	-0.000532
1511	1.5025e+02	-19.8379	-144.149969	-0.001277	-12.770169	-4.326650	-0.000511
1512	1.5034e+02	-19.7946	-144.594054	-0.001115	-11.148560	-3.777235	-0.000446
1513	1.5044e+02	-19.7625	-145.038139	-0.001115	-11.148560	-3.777235	-0.000446
1514	1.5054e+02	-19.7128	-145.429741	-0.000983	-9.831003	-3.330834	-0.000394
1515	1.5064e+02	-19.6807	-145.821343	-0.000983	-9.831003	-3.330834	-0.000394
1516	1.5074e+02	-19.6278	-146.176611	-0.000892	-8.918848	-3.021788	-0.000357
1517	1.5084e+02	-19.5989	-146.507656	-0.000831	-8.310745	-2.815757	-0.000333
1518	1.5094e+02	-19.5540	-146.822553	-0.000791	-7.905343	-2.678403	-0.000316
1519	1.5104e+02	-19.5283	-147.097078	-0.000689	-6.891837	-2.335018	-0.000276
1520	1.5114e+02	-19.4786	-147.391789	-0.000740	-7.398590	-2.506710	-0.000296
1521	1.5124e+02	-19.4369	-147.674388	-0.000709	-7.094538	-2.403695	-0.000284
1522	1.5134e+02	-19.3936	-147.900468	-0.000568	-5.675631	-1.922956	-0.000227
1523	1.5144e+02	-19.3599	-148.082139	-0.000456	-4.560775	-1.545232	-0.000183
1524	1.5154e+02	-19.3262	-148.336478	-0.000639	-6.385085	-2.163325	-0.000256
1525	1.5164e+02	-19.2877	-148.534298	-0.000497	-4.966177	-1.682586	-0.000199
1526	1.5174e+02	-19.2476	-148.679635	-0.000365	-3.648620	-1.236186	-0.000146
1527	1.5184e+02	-19.2043	-148.893603	-0.000537	-5.371579	-1.819940	-0.000215
1528	1.5194e+02	-19.1674	-148.998569	-0.000264	-2.635114	-0.892801	-0.000105
1529	1.5204e+02	-19.1209	-149.192351	-0.000486	-4.864826	-1.648248	-0.000195
1530	1.5214e+02	-19.0920	-149.297317	-0.000264	-2.635114	-0.892801	-0.000105
1531	1.5224e+02	-19.0374	-149.454765	-0.000395	-3.952671	-1.339201	-0.000158
1532	1.5233e+02	-18.9989	-149.535508	-0.000203	-2.027011	-0.686770	-0.000081
1533	1.5243e+02	-18.9684	-149.648548	-0.000284	-2.837815	-0.961478	-0.000114
1534	1.5253e+02	-18.9219	-149.729290	-0.000203	-2.027011	-0.686770	-0.000081
1535	1.5263e+02	-18.8818	-149.797922	-0.000172	-1.722959	-0.583754	-0.000069
1536	1.5273e+02	-18.8497	-149.874627	-0.000193	-1.925660	-0.652431	-0.000077
1537	1.5283e+02	-18.7968	-149.955370	-0.000203	-2.027011	-0.686770	-0.000081
1538	1.5293e+02	-18.7567	-149.995741	-0.000101	-1.013505	-0.343385	-0.000041
1539	1.5303e+02	-18.7198	-150.024001	-0.000071	-0.709454	-0.240369	-0.000028
1540	1.5313e+02	-18.6765	-150.060335	-0.000091	-0.912155	-0.309046	-0.000037
1541	1.5323e+02	-18.6540	-150.116855	-0.000142	-1.418908	-0.480739	-0.000057
1542	1.5333e+02	-18.5995	-150.072447	0.000111	1.114856	0.377723	0.000045
1543	1.5343e+02	-18.5706	-150.120892	-0.000122	-1.216207	-0.412062	-0.000049
1544	1.5353e+02	-18.5257	-150.088595	0.000081	0.810804	0.274708	0.000032
1545	1.5363e+02	-18.4840	-150.092632	-0.000010	-0.101351	-0.034338	-0.000004
1546	1.5373e+02	-18.4423	-150.052261	0.000101	1.013505	0.343385	0.000041
1547	1.5383e+02	-18.4054	-150.064373	-0.000030	-0.304052	-0.103015	-0.000012
1548	1.5393e+02	-18.3669	-150.052261	0.000030	0.304052	0.103015	0.000012
1549	1.5403e+02	-18.3316	-150.024001	0.000071	0.709454	0.240369	0.000028
1550	1.5413e+02	-18.2770	-149.951333	0.000182	1.824310	0.618093	0.000073
1551	1.5422e+02	-18.2465	-149.935184	0.000041	0.405402	0.137354	0.000016
1552	1.5432e+02	-18.2000	-149.870590	0.000162	1.621609	0.549416	0.000065
1553	1.5442e+02	-18.1599	-149.818107	0.000132	1.317557	0.446400	0.000053
1554	1.5452e+02	-18.1230	-149.781773	0.000091	0.912155	0.309046	0.000037
1555	1.5462e+02	-18.0941	-149.676807	0.000264	2.635114	0.892801	0.000105
1556	1.5472e+02	-18.0428	-149.656622	0.000051	0.506753	0.171692	0.000020
1557	1.5482e+02	-18.0107	-149.571842	0.000213	2.128362	0.721108	0.000085
1558	1.5492e+02	-17.9754	-149.487062	0.000213	2.128362	0.721108	0.000085
1559	1.5502e+02	-17.9305	-149.390171	0.000243	2.432413	0.824124	0.000097
1560	1.5512e+02	-17.8904	-149.313465	0.000193	1.925660	0.652431	0.000077
1561	1.5522e+02	-17.8391	-149.256945	0.000142	1.418908	0.480739	0.000057
1562	1.5532e+02	-17.8102	-149.143906	0.000284	2.837815	0.961478	0.000114
1563	1.5542e+02	-17.7797	-149.071237	0.000182	1.824310	0.618093	0.000073
1564	1.5552e+02	-17.7252	-148.905715	0.000416	4.155373	1.407878	0.000166
1565	1.5562e+02	-17.6867	-148.816898	0.000223	2.229712	0.755447	0.000089
1566	1.5572e+02	-17.6466	-148.707895	0.000274	2.736465	0.927139	0.000110
1567	1.5582e+02	-17.6016	-148.623115	0.000213	2.128362	0.721108	0.000085
1568	1.5592e+02	-17.5680	-148.477778	0.000365	3.648620	1.236186	0.000146
1569	1.5602e+02	-17.5359	-148.388961	0.000223	2.229712	0.755447	0.000089
1570	1.5612e+02	-17.4926	-148.251699	0.000345	3.445919	1.167509	0.000138
1571	1.5622e+02	-17.4476	-148.166919	0.000213	2.128362	0.721108	0.000085
1572	1.5631e+02	-17.4027	-148.001396	0.000416	4.155373	1.407878	0.000166
1573	1.5641e+02	-17.3738	-147.868171	0.000334	3.344568	1.133170	0.000134
1574	1.5651e+02	-17.3289	-147.710722	0.000395	3.952671	1.339201	0.000158
1575	1.5661e+02	-17.2872	-147.609794	0.000253	2.533764	0.858462	0.000101
1576	1.5671e+02	-17.2439	-147.448309	0.000405	4.054022	1.373540	0.000162
1577	1.5681e+02	-17.2102	-147.302972	0.000365	3.648620	1.236186	0.000146
1578	1.5691e+02	-17.1749	-147.206080	0.000243	2.432413	0.824124	0.000097
1579	1.5701e+02	-17.1364	-147.052669	0.000385	3.851321	1.304863	0.000154
1580	1.5711e+02	-17.0995	-146.911370	0.000355	3.547269	1.201847	0.000142
1581	1.5721e+02	-17.0402	-146.697401	0.000537	5.371579	1.819940	0.000215
1582	1.5731e+02	-17.0097	-146.568213	0.000324	3.243218	1.098832	0.000130
1583	1.5741e+02	-16.9680	-146.434987	0.000334	3.344568	1.133170	0.000134
1584	1.5751e+02	-16.9343	-146.354245	0.000203	2.027011	0.686770	0.000081
1585	1.5761e+02	-16.8813	-146.107979	0.000618	6.182384	2.094648	0.000248
1586	1.5771e+02	-16.8493	-145.966680	0.000355	3.547269	1.201847	0.000142
1587	1.5781e+02	-16.7995	-145.841529	0.000314	3.141867	1.064493	0.000126
1588	1.5791e+02	-16.7755	-145.692155	0.000375	3.749970	1.270524	0.000150
1589	1.5801e+02	-16.7338	-145.526632	0.000416	4.155373	1.407878	0.000166
1590	1.5811e+02	-16.6872	-145.324775	0.000507	5.067527	1.716925	0.000203
1591	1.5821e+02	-16.6471	-145.167327	0.000395	3.952671	1.339201	0.000158
1592	1.5830e+02	-16.6182	-145.009879	0.000395	3.952671	1.339201	0.000158
1593	1.5840e+02	-16.5685	-144.824170	0.000466	4.662125	1.579571	0.000187
1594	1.5850e+02	-16.5284	-144.666722	0.000395	3.952671	1.339201	0.000158
1595	1.5860e+02	-16.4851	-144.485051	0.000456	4.560775	1.545232	0.000183
1596	1.5870e+02	-16.4546	-144.323565	0.000405	4.054022	1.373540	0.000162
1597	1.5880e+02	-16.4097	-144.145932	0.000446	4.459424	1.510894	0.000179
1598	1.5890e+02	-16.3744	-144.004632	0.000355	3.547269	1.201847	0.000142
1599	1.5900e+02	-16.3375	-143.847183	0.000395	3.952671	1.339201	0.000158
1600	1.5910e+02	-16.2830	-143.653401	0.000486	4.864826	1.648248	0.000195
1601	1.5920e+02	-16.2573	-143.491916	0.000405	4.054022	1.373540	0.000162
1602	1.5930e+02	-16.2108	-143.277947	0.000537	5.371579	1.819940	0.000215
1603	1.5940e+02	-16.1707	-143.112425	0.000416	4.155373	1.407878	0.000166
1604	1.5950e+02	-16.1402	-142.934791	0.000446	4.459424	1.510894	0.000179
1605	1.5960e+02	-16.0969	-142.753120	0.000456	4.560775	1.545232	0.000183
1606	1.5970e+02	-16.0552	-142.559337	0.000486	4.864826	1.648248	0.000195
1607	1.5980e+02	-16.0199	-142.401889	0.000395	3.952671	1.339201	0.000158
1608	1.5990e+02	-15.9701	-142.183884	0.000547	5.472930	1.854279	0.000219
1609	1.6000e+02	-15.9397	-142.078918	0.000264	2.635114	0.892801	0.000105
1610	1.6010e+02	-15.8915	-141.873024	0.000517	5.168878	1.751263	0.000207
1611	1.6019e+02	-15.8546	-141.691353	0.000456	4.560775	1.545232	0.000183
1612	1.6029e+02	-15.8145	-141.473348	0.000547	5.472930	1.854279	0.000219
1613	1.6039e+02	-15.7648	-141.283602	0.000476	4.763476	1.613909	0.000191
1614	1.6049e+02	-15.7439	-141.093857	0.000476	4.763476	1.613909	0.000191
1615	1.6059e+02	-15.6894	-140.928334	0.000416	4.155373	1.407878	0.000166
1616	1.6069e+02	-15.6541	-140.718403	0.000527	5.270229	1.785602	0.000211
1617	1.6079e+02	-15.6108	-140.569029	0.000375	3.749970	1.270524	0.000150
1618	1.6089e+02	-15.5819	-140.363135	0.000517	5.168878	1.751263	0.000207
1619	1.6099e+02	-15.5306	-140.177427	0.000466	4.662125	1.579571	0.000187
1620	1.6109e+02	-15.5049	-139.987682	0.000476	4.763476	1.613909	0.000191
1621	1.6119e+02	-15.4616	-139.765639	0.000557	5.574280	1.888617	0.000223
1622	1.6129e+02	-15.4119	-139.664711	0.000253	2.533764	0.858462	0.000101
1623	1.6139e+02	-15.3798	-139.374037	0.000730	7.297240	2.472372	0.000292
1624	1.6149e+02	-15.3397	-139.232737	0.000355	3.547269	1.201847	0.000142
1625	1.6159e+02	-15.3028	-138.970324	0.000659	6.587786	2.232002	0.000264
1626	1.6169e+02	-15.2643	-138.820949	0.000375	3.749970	1.270524	0.000150
1627	1.6179e+02	-15.2145	-138.623130	0.000497	4.966177	1.682586	0.000199
1628	1.6189e+02	-15.1776	-138.437422	0.000466	4.662125	1.579571	0.000187
1629	1.6199e+02	-15.1456	-138.251713	0.000466	4.662125	1.579571	0.000187
1630	1.6209e+02	-15.0910	-137.969114	0.000709	7.094538	2.403695	0.000284
1631	1.6219e+02	-15.0525	-137.815703	0.000385	3.851321	1.304863	0.000154
1632	1.6228e+02	-15.0140	-137.625957	0.000476	4.763476	1.613909	0.000191
1633	1.6238e+02	-14.9755	-137.428138	0.000497	4.966177	1.682586	0.000199
1634	1.6248e+02	-14.9402	-137.222244	0.000517	5.168878	1.751263	0.000207
1635	1.6258e+02	-14.8905	-137.004238	0.000547	5.472930	1.854279	0.000219
1636	1.6268e+02	-14.8616	-136.822567	0.000456	4.560775	1.545232	0.000183
1637	1.6278e+02	-14.8183	-136.616673	0.000517	5.168878	1.751263	0.000207
1638	1.6288e+02	-14.7814	-136.414817	0.000507	5.067527	1.716925	0.000203
1639	1.6298e+02	-14.7301	-136.216997	0.000497	4.966177	1.682586	0.000199
1640	1.6308e+02	-14.7076	-136.051474	0.000416	4.155373	1.407878	0.000166
1641	1.6318e+02	-14.6611	-135.845580	0.000517	5.168878	1.751263	0.000207
1642	1.6328e+02	-14.6065	-135.643724	0.000507	5.067527	1.716925	0.000203
1643	1.6338e+02	-14.5745	-135.413607	0.000578	5.776981	1.957294	0.000231
1644	1.6348e+02	-14.5360	-135.215787	0.000497	4.966177	1.682586	0.000199
1645	1.6358e+02	-14.4975	-135.022005	0.000486	4.864826	1.648248	0.000195
1646	1.6368e+02	-14.4557	-134.799962	0.000557	5.574280	1.888617	0.000223
1647	1.6378e+02	-14.4301	-134.614254	0.000466	4.662125	1.579571	0.000187
1648	1.6388e+02	-14.3803	-134.380100	0.000588	5.878332	1.991633	0.000235
1649	1.6398e+02	-14.3402	-134.230726	0.000375	3.749970	1.270524	0.000150
1650	1.6408e+02	-14.3049	-134.024832	0.000517	5.168878	1.751263	0.000207
1651	1.6418e+02	-14.2616	-133.798753	0.000568	5.675631	1.922956	0.000227
1652	1.6427e+02	-14.2247	-133.588822	0.000527	5.270229	1.785602	0.000211
1653	1.6437e+02	-14.1734	-133.366779	0.000557	5.574280	1.888617	0.000223
1654	1.6447e+02	-14.1317	-133.189145	0.000446	4.459424	1.510894	0.000179
1655	1.6457e+02	-14.0980	-132.967103	0.000557	5.574280	1.888617	0.000223
1656	1.6467e+02	-14.0611	-132.801580	0.000416	4.155373	1.407878	0.000166
1657	1.6477e+02	-14.0354	-132.575501	0.000568	5.675631	1.922956	0.000227
1658	1.6487e+02	-13.9793	-132.345384	0.000578	5.776981	1.957294	0.000231
1659	1.6497e+02	-13.9472	-132.143527	0.000507	5.067527	1.716925	0.000203
1660	1.6507e+02	-13.8991	-131.949744	0.000486	4.864826	1.648248	0.000195
1661	1.6517e+02	-13.8590	-131.772110	0.000446	4.459424	1.510894	0.000179
1662	1.6527e+02	-13.8269	-131.525845	0.000618	6.182384	2.094648	0.000248
1663	1.6537e+02	-13.7739	-131.311877	0.000537	5.371579	1.819940	0.000215
1664	1.6547e+02	-13.7451	-131.122132	0.000476	4.763476	1.613909	0.000191
1665	1.6557e+02	-13.7082	-130.892015	0.000578	5.776981	1.957294	0.000231
1666	1.6567e+02	-13.6600	-130.710344	0.000456	4.560775	1.545232	0.000183
1667	1.6577e+02	-13.6199	-130.508487	0.000507	5.067527	1.716925	0.000203
1668	1.6587e+02	-13.5814	-130.278370	0.000578	5.776981	1.957294	0.000231
1669	1.6597e+02	-13.5477	-130.052291	0.000568	5.675631	1.922956	0.000227
1670	1.6607e+02	-13.4948	-129.826211	0.000568	5.675631	1.922956	0.000227
1671	1.6616e+02	-13.4643	-129.660688	0.000416	4.155373	1.407878	0.000166
1672	1.6626e+02	-13.4146	-129.414423	0.000618	6.182384	2.094648	0.000248
1673	1.6636e+02	-13.3873	-129.188344	0.000568	5.675631	1.922956	0.000227
1674	1.6646e+02	-13.3376	-129.002635	0.000466	4.662125	1.579571	0.000187
1675	1.6656e+02	-13.3199	-128.764444	0.000598	5.979682	2.025971	0.000239
1676	1.6666e+02	-13.2654	-128.590848	0.000436	4.358074	1.476555	0.000174
1677	1.6676e+02	-13.2269	-128.312285	0.000699	6.993188	2.369356	0.000280
1678	1.6686e+02	-13.1756	-128.114466	0.000497	4.966177	1.682586	0.000199
1679	1.6696e+02	-13.1451	-127.908572	0.000517	5.168878	1.751263	0.000207
1680	1.6706e+02	-13.1066	-127.666343	0.000608	6.081033	2.060310	0.000243
1681	1.6716e+02	-13.0681	-127.456412	0.000527	5.270229	1.785602	0.000211
1682	1.6726e+02	-13.0183	-127.234370	0.000557	5.574280	1.888617	0.000223
1683	1.6736e+02	-12.9895	-127.052699	0.000456	4.560775	1.545232	0.000183
1684	1.6746e+02	-12.9446	-126.778174	0.000689	6.891837	2.335018	0.000276
1685	1.6756e+02	-12.9012	-126.580354	0.000497	4.966177	1.682586	0.000199
1686	1.6766e+02	-12.8643	-126.382534	0.000497	4.966177	1.682586	0.000199
1687	1.6776e+02	-12.8290	-126.136269	0.000618	6.182384	2.094648	0.000248
1688	1.6786e+02	-12.7873	-125.970746	0.000416	4.155373	1.407878	0.000166
1689	1.6796e+02	-12.7392	-125.688147	0.000709	7.094538	2.403695	0.000284
1690	1.6806e+02	-12.7071	-125.502439	0.000466	4.662125	1.579571	0.000187
1691	1.6816e+02	-12.6686	-125.272322	0.000578	5.776981	1.957294	0.000231
1692	1.6825e+02	-12.6301	-125.050279	0.000557	5.574280	1.888617	0.000223
1693	1.6835e+02	-12.5900	-124.824200	0.000568	5.675631	1.922956	0.000227
1694	1.6845e+02	-12.5499	-124.598120	0.000568	5.675631	1.922956	0.000227
1695	1.6855e+02	-12.5098	-124.388189	0.000527	5.270229	1.785602	0.000211
1696	1.6865e+02	-12.4649	-124.154035	0.000588	5.878332	1.991633	0.000235
1697	1.6875e+02	-12.4328	-123.948141	0.000517	5.168878	1.751263	0.000207
1698	1.6885e+02	-12.3895	-123.709950	0.000598	5.979682	2.025971	0.000239
1699	1.6895e+02	-12.3510	-123.500019	0.000527	5.270229	1.785602	0.000211
1700	1.6905e+02	-12.3093	-123.261828	0.000598	5.979682	2.025971	0.000239
1701	1.6915e+02	-12.2660	-123.039786	0.000557	5.574280	1.888617	0.000223
1702	1.6925e+02	-12.2323	-122.850041	0.000476	4.763476	1.613909	0.000191
1703	1.6935e+02	-12.1906	-122.583590	0.000669	6.689136	2.266341	0.000268
1704	1.6945e+02	-12.1440	-122.349436	0.000588	5.878332	1.991633	0.000235
1705	1.6955e+02	-12.1136	-122.143542	0.000517	5.168878	1.751263	0.000207
1706	1.6965e+02	-12.0735	-121.945722	0.000497	4.966177	1.682586	0.000199
1707	1.6975e+02	-12.0173	-121.715605	0.000578	5.776981	1.957294	0.000231
1708	1.6985e+02	-11.9820	-121.513749	0.000507	5.067527	1.716925	0.000203
1709	1.6995e+02	-11.9596	-121.247298	0.000669	6.689136	2.266341	0.000268
1710	1.7005e+02	-11.9162	-121.033329	0.000537	5.371579	1.819940	0.000215
1711	1.7015e+02	-11.8729	-120.827436	0.000517	5.168878	1.751263	0.000207
1712	1.7024e+02	-11.8312	-120.508502	0.000801	8.006693	2.712741	0.000321
1713	1.7034e+02	-11.7863	-120.363165	0.000365	3.648620	1.236186	0.000146
1714	1.7044e+02	-11.7526	-120.104788	0.000649	6.486435	2.197664	0.000260
1715	1.7054e+02	-11.7077	-119.886783	0.000547	5.472930	1.854279	0.000219
1716	1.7064e+02	-11.6676	-119.644555	0.000608	6.081033	2.060310	0.000243
1717	1.7074e+02	-11.6307	-119.374067	0.000679	6.790487	2.300679	0.000272
1718	1.7084e+02	-11.5858	-119.168173	0.000517	5.168878	1.751263	0.000207
1719	1.7094e+02	-11.5489	-118.974390	0.000486	4.864826	1.648248	0.000195
1720	1.7104e+02	-11.5056	-118.675642	0.000750	7.499941	2.541049	0.000300
1721	1.7114e+02	-11.4735	-118.449563	0.000568	5.675631	1.922956	0.000227
1722	1.7124e+02	-11.4398	-118.243669	0.000517	5.168878	1.751263	0.000207
1723	1.7134e+02	-11.3901	-117.985292	0.000649	6.486435	2.197664	0.000260
1724	1.7144e+02	-11.3516	-117.775361	0.000527	5.270229	1.785602	0.000211
1725	1.7154e+02	-11.3130	-117.512947	0.000659	6.587786	2.232002	0.000264
1726	1.7164e+02	-11.2697	-117.274756	0.000598	5.979682	2.025971	0.000239
1727	1.7174e+02	-11.2296	-117.085011	0.000476	4.763476	1.613909	0.000191
1728	1.7184e+02	-11.2008	-116.862968	0.000557	5.574280	1.888617	0.000223
1729	1.7194e+02	-11.1558	-116.596517	0.000669	6.689136	2.266341	0.000268
1730	1.7204e+02	-11.1093	-116.330066	0.000669	6.689136	2.266341	0.000268
1731	1.7213e+02	-11.0676	-116.112061	0.000547	5.472930	1.854279	0.000219
1732	1.7223e+02	-11.0355	-115.853684	0.000649	6.486435	2.197664	0.000260
1733	1.7233e+02	-11.0034	-115.647790	0.000517	5.168878	1.751263	0.000207
1734	1.7243e+02	-10.9569	-115.340968	0.000770	7.702642	2.609726	0.000308
1735	1.7253e+02	-10.9088	-115.139111	0.000507	5.067527	1.716925	0.000203
1736	1.7263e+02	-10.8751	-114.884772	0.000639	6.385085	2.163325	0.000256
1737	1.7273e+02	-10.8398	-114.658692	0.000568	5.675631	1.922956	0.000227
1738	1.7283e+02	-10.8029	-114.420501	0.000598	5.979682	2.025971	0.000239
1739	1.7293e+02	-10.7548	-114.174236	0.000618	6.182384	2.094648	0.000248
1740	1.7303e+02	-10.7083	-113.976416	0.000497	4.966177	1.682586	0.000199
1741	1.7313e+02	-10.6681	-113.714002	0.000659	6.587786	2.232002	0.000264
1742	1.7323e+02	-10.6425	-113.471774	0.000608	6.081033	2.060310	0.000243
1743	1.7333e+02	-10.5976	-113.221472	0.000628	6.283734	2.128987	0.000252
1744	1.7343e+02	-10.5607	-112.975206	0.000618	6.182384	2.094648	0.000248
1745	1.7353e+02	-10.5141	-112.716830	0.000649	6.486435	2.197664	0.000260
1746	1.7363e+02	-10.4805	-112.506899	0.000527	5.270229	1.785602	0.000211
1747	1.7373e+02	-10.4371	-112.228336	0.000699	6.993188	2.369356	0.000280
1748	1.7383e+02	-10.4018	-112.014368	0.000537	5.371579	1.819940	0.000215
1749	1.7393e+02	-10.3537	-111.731769	0.000709	7.094538	2.403695	0.000284
1750	1.7403e+02	-10.3216	-111.509726	0.000557	5.574280	1.888617	0.000223
1751	1.7413e+02	-10.2687	-111.279609	0.000578	5.776981	1.957294	0.000231
1752	1.7422e+02	-10.2382	-110.997010	0.000709	7.094538	2.403695	0.000284
1753	1.7432e+02	-10.2013	-110.779005	0.000547	5.472930	1.854279	0.000219
1754	1.7442e+02	-10.1676	-110.552925	0.000568	5.675631	1.922956	0.000227
1755	1.7452e+02	-10.1099	-110.254177	0.000750	7.499941	2.541049	0.000300
1756	1.7462e+02	-10.0762	-110.036172	0.000547	5.472930	1.854279	0.000219
1757	1.7472e+02	-10.0377	-109.789906	0.000618	6.182384	2.094648	0.000248
1758	1.7482e+02	-9.9992	-109.515381	0.000689	6.891837	2.335018	0.000276
1759	1.7492e+02	-9.9671	-109.277190	0.000598	5.979682	2.025971	0.000239
1760	1.7502e+02	-9.9110	-109.026888	0.000628	6.283734	2.128987	0.000252
1761	1.7512e+02	-9.8805	-108.808882	0.000547	5.472930	1.854279	0.000219
1762	1.7522e+02	-9.8356	-108.550506	0.000649	6.486435	2.197664	0.000260
1763	1.7532e+02	-9.7938	-108.271943	0.000699	6.993188	2.369356	0.000280
1764	1.7542e+02	-9.7602	-108.041827	0.000578	5.776981	1.957294	0.000231
1765	1.7552e+02	-9.7233	-107.803636	0.000598	5.979682	2.025971	0.000239
1766	1.7562e+02	-9.6719	-107.553333	0.000628	6.283734	2.128987	0.000252
1767	1.7572e+02	-9.6382	-107.323216	0.000578	5.776981	1.957294	0.000231
1768	1.7582e+02	-9.6029	-107.068877	0.000639	6.385085	2.163325	0.000256
1769	1.7592e+02	-9.5596	-106.834723	0.000588	5.878332	1.991633	0.000235
1770	1.7602e+02	-9.5275	-106.535975	0.000750	7.499941	2.541049	0.000300
1771	1.7612e+02	-9.4858	-106.289710	0.000618	6.182384	2.094648	0.000248
1772	1.7621e+02	-9.4393	-106.051519	0.000598	5.979682	2.025971	0.000239
1773	1.7631e+02	-9.4008	-105.781031	0.000679	6.790487	2.300679	0.000272
1774	1.7641e+02	-9.3639	-105.550914	0.000578	5.776981	1.957294	0.000231
1775	1.7651e+02	-9.3238	-105.300611	0.000628	6.283734	2.128987	0.000252
1776	1.7661e+02	-9.2789	-105.046272	0.000639	6.385085	2.163325	0.000256
1777	1.7671e+02	-9.2324	-104.779821	0.000669	6.689136	2.266341	0.000268
1778	1.7681e+02	-9.1987	-104.545667	0.000588	5.878332	1.991633	0.000235
1779	1.7691e+02	-9.1570	-104.275179	0.000679	6.790487	2.300679	0.000272
1780	1.7701e+02	-9.1201	-104.016802	0.000649	6.486435	2.197664	0.000260
1781	1.7711e+02	-9.0864	-103.774574	0.000608	6.081033	2.060310	0.000243
1782	1.7721e+02	-9.0447	-103.504086	0.000679	6.790487	2.300679	0.000272
1783	1.7731e+02	-9.0062	-103.225524	0.000699	6.993188	2.369356	0.000280
1784	1.7741e+02	-8.9516	-102.979258	0.000618	6.182384	2.094648	0.000248
1785	1.7751e+02	-8.9260	-102.716845	0.000659	6.587786	2.232002	0.000264
1786	1.7761e+02	-8.8858	-102.450394	0.000669	6.689136	2.266341	0.000268
1787	1.7771e+02	-8.8473	-102.187980	0.000659	6.587786	2.232002	0.000264
1788	1.7781e+02	-8.7992	-101.921529	0.000669	6.689136	2.266341	0.000268
1789	1.7791e+02	-8.7559	-101.683338	0.000598	5.979682	2.025971	0.000239
1790	1.7801e+02	-8.7286	-101.449184	0.000588	5.878332	1.991633	0.000235
1791	1.7810e+02	-8.6757	-101.126213	0.000811	8.108044	2.747080	0.000325
1792	1.7820e+02	-8.6452	-100.904171	0.000557	5.574280	1.888617	0.000223
1793	1.7830e+02	-8.5987	-100.682128	0.000557	5.574280	1.888617	0.000223
1794	1.7840e+02	-8.5666	-100.375306	0.000770	7.702642	2.609726	0.000308
1795	1.7850e+02	-8.5313	-100.169412	0.000517	5.168878	1.751263	0.000207
1796	1.7860e+02	-8.4832	-99.866627	0.000760	7.601291	2.575387	0.000304
1797	1.7870e+02	-8.4415	-99.624399	0.000608	6.081033	2.060310	0.000243
1798	1.7880e+02	-8.4046	-99.374096	0.000628	6.283734	2.128987	0.000252
1799	1.7890e+02	-8.3661	-99.107645	0.000669	6.689136	2.266341	0.000268
1800	1.7900e+02	-8.3244	-98.796786	0.000780	7.803992	2.644064	0.000312
1801	1.7910e+02	-8.2843	-98.578780	0.000547	5.472930	1.854279	0.000219
1802	1.7920e+02	-8.2409	-98.304255	0.000689	6.891837	2.335018	0.000276
1803	1.7930e+02	-8.2040	-98.033767	0.000679	6.790487	2.300679	0.000272
1804	1.7940e+02	-8.1607	-97.807688	0.000568	5.675631	1.922956	0.000227
1805	1.7950e+02	-8.1222	-97.492791	0.000791	7.905343	2.678403	0.000316
1806	1.7960e+02	-8.0789	-97.258637	0.000588	5.878332	1.991633	0.000235
1807	1.7970e+02	-8.0452	-96.972000	0.000720	7.195889	2.438033	0.000288
1808	1.7980e+02	-8.0051	-96.766107	0.000517	5.168878	1.751263	0.000207
1809	1.7990e+02	-7.9698	-96.459284	0.000770	7.702642	2.609726	0.000308
1810	1.8000e+02	-7.9297	-96.221093	0.000598	5.979682	2.025971	0.000239
1811	1.8009e+02	-7.8800	-95.938494	0.000709	7.094538	2.403695	0.000284
1812	1.8019e+02	-7.8479	-95.704340	0.000588	5.878332	1.991633	0.000235
1813	1.8029e+02	-7.8110	-95.381369	0.000811	8.108044	2.747080	0.000325
1814	1.8039e+02	-7.7693	-95.131067	0.000628	6.283734	2.128987	0.000252
1815	1.8049e+02	-7.7372	-94.909024	0.000557	5.574280	1.888617	0.000223
1816	1.8059e+02	-7.6923	-94.590090	0.000801	8.006693	2.712741	0.000321
1817	1.8069e+02	-7.6506	-94.343825	0.000618	6.182384	2.094648	0.000248
1818	1.8079e+02	-7.6057	-94.121783	0.000557	5.574280	1.888617	0.000223
1819	1.8089e+02	-7.5624	-93.831109	0.000730	7.297240	2.472372	0.000292
1820	1.8099e+02	-7.5271	-93.544472	0.000720	7.195889	2.438033	0.000288
1821	1.8109e+02	-7.4805	-93.273984	0.000679	6.790487	2.300679	0.000272
1822	1.8119e+02	-7.4468	-93.015607	0.000649	6.486435	2.197664	0.000260
1823	1.8129e+02	-7.4164	-92.737045	0.000699	6.993188	2.369356	0.000280
1824	1.8139e+02	-7.3602	-92.490780	0.000618	6.182384	2.094648	0.000248
1825	1.8149e+02	-7.3297	-92.236440	0.000639	6.385085	2.163325	0.000256
1826	1.8159e+02	-7.2864	-91.957878	0.000699	6.993188	2.369356	0.000280
1827	1.8169e+02	-7.2495	-91.663167	0.000740	7.398590	2.506710	0.000296
1828	1.8179e+02	-7.2062	-91.364419	0.000750	7.499941	2.541049	0.000300
1829	1.8189e+02	-7.1677	-91.150451	0.000537	5.371579	1.819940	0.000215
1830	1.8199e+02	-7.1308	-90.867851	0.000709	7.094538	2.403695	0.000284
1831	1.8209e+02	-7.0891	-90.613512	0.000639	6.385085	2.163325	0.000256
1832	1.8218e+02	-7.0522	-90.322838	0.000730	7.297240	2.472372	0.000292
1833	1.8228e+02	-7.0025	-90.052350	0.000679	6.790487	2.300679	0.000272
1834	1.8238e+02	-6.9688	-89.789936	0.000659	6.587786	2.232002	0.000264
1835	1.8248e+02	-6.9319	-89.507336	0.000709	7.094538	2.403695	0.000284
1836	1.8258e+02	-6.8982	-89.277220	0.000578	5.776981	1.957294	0.000231
1837	1.8268e+02	-6.8501	-88.962323	0.000791	7.905343	2.678403	0.000316
1838	1.8278e+02	-6.8116	-88.683761	0.000699	6.993188	2.369356	0.000280
1839	1.8288e+02	-6.7715	-88.441533	0.000608	6.081033	2.060310	0.000243
1840	1.8298e+02	-6.7330	-88.154896	0.000720	7.195889	2.438033	0.000288
1841	1.8308e+02	-6.6897	-87.852111	0.000760	7.601291	2.575387	0.000304
1842	1.8318e+02	-6.6528	-87.593734	0.000649	6.486435	2.197664	0.000260
1843	1.8328e+02	-6.6094	-87.299023	0.000740	7.398590	2.506710	0.000296
1844	1.8338e+02	-6.5677	-87.020461	0.000699	6.993188	2.369356	0.000280
1845	1.8348e+02	-6.5389	-86.770158	0.000628	6.283734	2.128987	0.000252
1846	1.8358e+02	-6.4875	-86.459299	0.000780	7.803992	2.644064	0.000312
1847	1.8368e+02	-6.4570	-86.200922	0.000649	6.486435	2.197664	0.000260
1848	1.8378e+02	-6.4137	-85.946583	0.000639	6.385085	2.163325	0.000256
1849	1.8388e+02	-6.3672	-85.635723	0.000780	7.803992	2.644064	0.000312
1850	1.8398e+02	-6.3383	-85.373309	0.000659	6.587786	2.232002	0.000264
1851	1.8407e+02	-6.2934	-85.135118	0.000598	5.979682	2.025971	0.000239
1852	1.8417e+02	-6.2565	-84.828296	0.000770	7.702642	2.609726	0.000308
1853	1.8427e+02	-6.2196	-84.553771	0.000689	6.891837	2.335018	0.000276
1854	1.8437e+02	-6.1715	-84.279246	0.000689	6.891837	2.335018	0.000276
1855	1.8447e+02	-6.1378	-83.940126	0.000851	8.513446	2.884434	0.000341
1856	1.8457e+02	-6.0961	-83.742307	0.000497	4.966177	1.682586	0.000199
1857	1.8467e+02	-6.0608	-83.443559	0.000750	7.499941	2.541049	0.000300
1858	1.8477e+02	-6.0111	-83.148848	0.000740	7.398590	2.506710	0.000296
1859	1.8487e+02	-5.9742	-82.829914	0.000801	8.006693	2.712741	0.000321
1860	1.8497e+02	-5.9357	-82.571537	0.000649	6.486435	2.197664	0.000260
1861	1.8507e+02	-5.8956	-82.309123	0.000659	6.587786	2.232002	0.000264
1862	1.8517e+02	-5.8651	-82.002301	0.000770	7.702642	2.609726	0.000308
1863	1.8527e+02	-5.8073	-81.727776	0.000689	6.891837	2.335018	0.000276
1864	1.8537e+02	-5.7688	-81.477473	0.000628	6.283734	2.128987	0.000252
1865	1.8547e+02	-5.7335	-81.126243	0.000882	8.817498	2.987449	0.000353
1866	1.8557e+02	-5.6950	-80.875940	0.000628	6.283734	2.128987	0.000252
1867	1.8567e+02	-5.6597	-80.617564	0.000649	6.486435	2.197664	0.000260
1868	1.8577e+02	-5.6100	-80.306704	0.000780	7.803992	2.644064	0.000312
1869	1.8587e+02	-5.5763	-80.036216	0.000679	6.790487	2.300679	0.000272
1870	1.8597e+02	-5.5378	-79.713245	0.000811	8.108044	2.747080	0.000325
1871	1.8606e+02	-5.4961	-79.462943	0.000628	6.283734	2.128987	0.000252
1872	1.8616e+02	-5.4576	-79.119786	0.000861	8.614797	2.918772	0.000345
1873	1.8626e+02	-5.4255	-78.889669	0.000578	5.776981	1.957294	0.000231
1874	1.8636e+02	-5.3710	-78.586884	0.000760	7.601291	2.575387	0.000304
1875	1.8646e+02	-5.3325	-78.312359	0.000689	6.891837	2.335018	0.000276
1876	1.8656e+02	-5.2972	-78.049945	0.000659	6.587786	2.232002	0.000264
1877	1.8666e+02	-5.2539	-77.710826	0.000851	8.513446	2.884434	0.000341
1878	1.8676e+02	-5.2170	-77.476672	0.000588	5.878332	1.991633	0.000235
1879	1.8686e+02	-5.1769	-77.173887	0.000760	7.601291	2.575387	0.000304
1880	1.8696e+02	-5.1368	-76.883213	0.000730	7.297240	2.472372	0.000292
1881	1.8706e+02	-5.1015	-76.568316	0.000791	7.905343	2.678403	0.000316
1882	1.8716e+02	-5.0646	-76.273605	0.000740	7.398590	2.506710	0.000296
1883	1.8726e+02	-5.0196	-75.986969	0.000720	7.195889	2.438033	0.000288
1884	1.8736e+02	-4.9779	-75.692258	0.000740	7.398590	2.506710	0.000296
1885	1.8746e+02	-4.9378	-75.389473	0.000760	7.601291	2.575387	0.000304
1886	1.8756e+02	-4.8945	-75.094762	0.000740	7.398590	2.506710	0.000296
1887	1.8766e+02	-4.8688	-74.844459	0.000628	6.283734	2.128987	0.000252
1888	1.8776e+02	-4.8239	-74.521489	0.000811	8.108044	2.747080	0.000325
1889	1.8786e+02	-4.7742	-74.242926	0.000699	6.993188	2.369356	0.000280
1890	1.8796e+02	-4.7341	-73.911881	0.000831	8.310745	2.815757	0.000333
1891	1.8806e+02	-4.6972	-73.621207	0.000730	7.297240	2.472372	0.000292
1892	1.8815e+02	-4.6603	-73.318422	0.000760	7.601291	2.575387	0.000304
1893	1.8825e+02	-4.6170	-73.056008	0.000659	6.587786	2.232002	0.000264
1894	1.8835e+02	-4.5785	-72.712852	0.000861	8.614797	2.918772	0.000345
1895	1.8845e+02	-4.5432	-72.442364	0.000679	6.790487	2.300679	0.000272
1896	1.8855e+02	-4.5015	-72.183987	0.000649	6.486435	2.197664	0.000260
1897	1.8865e+02	-4.4614	-71.844868	0.000851	8.513446	2.884434	0.000341
1898	1.8875e+02	-4.4261	-71.505748	0.000851	8.513446	2.884434	0.000341
1899	1.8885e+02	-4.3860	-71.283706	0.000557	5.574280	1.888617	0.000223
1900	1.8895e+02	-4.3378	-70.940549	0.000861	8.614797	2.918772	0.000345
1901	1.8905e+02	-4.3026	-70.637764	0.000760	7.601291	2.575387	0.000304
1902	1.8915e+02	-4.2624	-70.326905	0.000780	7.803992	2.644064	0.000312
1903	1.8925e+02	-4.2336	-70.012008	0.000791	7.905343	2.678403	0.000316
1904	1.8935e+02	-4.1870	-69.737483	0.000689	6.891837	2.335018	0.000276
1905	1.8945e+02	-4.1421	-69.418549	0.000801	8.006693	2.712741	0.000321
1906	1.8955e+02	-4.1004	-69.148061	0.000679	6.790487	2.300679	0.000272
1907	1.8965e+02	-4.0619	-68.833164	0.000791	7.905343	2.678403	0.000316
1908	1.8975e+02	-4.0234	-68.562676	0.000679	6.790487	2.300679	0.000272
1909	1.8985e+02	-3.9865	-68.195297	0.000922	9.222900	3.124803	0.000369
1910	1.8995e+02	-3.9368	-67.872326	0.000811	8.108044	2.747080	0.000325
1911	1.9004e+02	-3.9063	-67.601838	0.000679	6.790487	2.300679	0.000272
1912	1.9014e+02	-3.8662	-67.303090	0.000750	7.499941	2.541049	0.000300
1913	1.9024e+02	-3.8213	-66.992230	0.000780	7.803992	2.644064	0.000312
1914	1.9034e+02	-3.7908	-66.685408	0.000770	7.702642	2.609726	0.000308
1915	1.9044e+02	-3.7459	-66.390697	0.000740	7.398590	2.506710	0.000296
1916	1.9054e+02	-3.6945	-66.055615	0.000841	8.412096	2.850095	0.000337
1917	1.9064e+02	-3.6657	-65.748793	0.000770	7.702642	2.609726	0.000308
1918	1.9074e+02	-3.6272	-65.429859	0.000801	8.006693	2.712741	0.000321
1919	1.9084e+02	-3.5903	-65.151297	0.000699	6.993188	2.369356	0.000280
1920	1.9094e+02	-3.5470	-64.828326	0.000811	8.108044	2.747080	0.000325
1921	1.9104e+02	-3.5052	-64.505355	0.000811	8.108044	2.747080	0.000325
1922	1.9114e+02	-3.4700	-64.230830	0.000689	6.891837	2.335018	0.000276
1923	1.9124e+02	-3.4202	-63.899784	0.000831	8.310745	2.815757	0.000333
1924	1.9134e+02	-3.3833	-63.592962	0.000770	7.702642	2.609726	0.000308
1925	1.9144e+02	-3.3384	-63.278066	0.000791	7.905343	2.678403	0.000316
1926	1.9154e+02	-3.3031	-62.975280	0.000760	7.601291	2.575387	0.000304
1927	1.9164e+02	-3.2646	-62.656347	0.000801	8.006693	2.712741	0.000321
1928	1.9174e+02	-3.2229	-62.369710	0.000720	7.195889	2.438033	0.000288
1929	1.9184e+02	-3.1892	-62.070962	0.000750	7.499941	2.541049	0.000300
1930	1.9194e+02	-3.1539	-61.731843	0.000851	8.513446	2.884434	0.000341
1931	1.9203e+02	-3.1090	-61.441169	0.000730	7.297240	2.472372	0.000292
1932	1.9213e+02	-3.0753	-61.110124	0.000831	8.310745	2.815757	0.000333
1933	1.9223e+02	-3.0320	-60.819450	0.000730	7.297240	2.472372	0.000292
1934	1.9233e+02	-2.9791	-60.488405	0.000831	8.310745	2.815757	0.000333
1935	1.9243e+02	-2.9502	-60.197731	0.000730	7.297240	2.472372	0.000292
1936	1.9253e+02	-2.9101	-59.878797	0.000801	8.006693	2.712741	0.000321
1937	1.9263e+02	-2.8668	-59.559864	0.000801	8.006693	2.712741	0.000321
1938	1.9273e+02	-2.8299	-59.253041	0.000770	7.702642	2.609726	0.000308
1939	1.9283e+02	-2.7866	-58.970442	0.000709	7.094538	2.403695	0.000284
1940	1.9293e+02	-2.7464	-58.627285	0.000861	8.614797	2.918772	0.000345
1941	1.9303e+02	-2.7095	-58.340649	0.000720	7.195889	2.438033	0.000288
1942	1.9313e+02	-2.6646	-57.993455	0.000872	8.716147	2.953111	0.000349
1943	1.9323e+02	-2.6245	-57.634150	0.000902	9.020199	3.056126	0.000361
1944	1.9333e+02	-2.5892	-57.383847	0.000628	6.283734	2.128987	0.000252
1945	1.9343e+02	-2.5411	-57.000319	0.000963	9.628302	3.262157	0.000385
1946	1.9353e+02	-2.5154	-56.725794	0.000689	6.891837	2.335018	0.000276
1947	1.9363e+02	-2.4721	-56.447232	0.000699	6.993188	2.369356	0.000280
1948	1.9373e+02	-2.4272	-56.096001	0.000882	8.817498	2.987449	0.000353
1949	1.9383e+02	-2.3791	-55.752845	0.000861	8.614797	2.918772	0.000345
1950	1.9393e+02	-2.3598	-55.462171	0.000730	7.297240	2.472372	0.000292
1951	1.9403e+02	-2.3149	-55.094791	0.000922	9.222900	3.124803	0.000369
1952	1.9412e+02	-2.2732	-54.832378	0.000659	6.587786	2.232002	0.000264
1953	1.9422e+02	-2.2395	-54.529592	0.000760	7.601291	2.575387	0.000304
1954	1.9432e+02	-2.1962	-54.170287	0.000902	9.020199	3.056126	0.000361
1955	1.9442e+02	-2.1529	-53.843279	0.000821	8.209395	2.781418	0.000329
1956	1.9452e+02	-2.1128	-53.552606	0.000730	7.297240	2.472372	0.000292
1957	1.9462e+02	-2.0807	-53.265969	0.000720	7.195889	2.438033	0.000288
1958	1.9472e+02	-2.0278	-52.886478	0.000953	9.526952	3.227819	0.000381
1959	1.9482e+02	-1.9909	-52.579656	0.000770	7.702642	2.609726	0.000308
1960	1.9492e+02	-1.9588	-52.256685	0.000811	8.108044	2.747080	0.000325
1961	1.9502e+02	-1.9171	-51.990234	0.000669	6.689136	2.266341	0.000268
1962	1.9512e+02	-1.8593	-51.602669	0.000973	9.729653	3.296496	0.000390
1963	1.9522e+02	-1.8401	-51.287772	0.000791	7.905343	2.678403	0.000316
1964	1.9532e+02	-1.7839	-50.989024	0.000750	7.499941	2.541049	0.000300
1965	1.9542e+02	-1.7566	-50.629719	0.000902	9.020199	3.056126	0.000361
1966	1.9552e+02	-1.7117	-50.286563	0.000861	8.614797	2.918772	0.000345
1967	1.9562e+02	-1.6668	-49.999926	0.000720	7.195889	2.438033	0.000288
1968	1.9572e+02	-1.6331	-49.685030	0.000791	7.905343	2.678403	0.000316
1969	1.9582e+02	-1.5850	-49.349947	0.000841	8.412096	2.850095	0.000337
1970	1.9592e+02	-1.5497	-49.047162	0.000760	7.601291	2.575387	0.000304
1971	1.9601e+02	-1.5208	-48.760525	0.000720	7.195889	2.438033	0.000288
1972	1.9611e+02	-1.4759	-48.352775	0.001024	10.236406	3.468188	0.000410
1973	1.9621e+02	-1.4374	-48.094398	0.000649	6.486435	2.197664	0.000260
1974	1.9631e+02	-1.3893	-47.767390	0.000821	8.209395	2.781418	0.000329
1975	1.9641e+02	-1.3540	-47.456531	0.000780	7.803992	2.644064	0.000312
1976	1.9651e+02	-1.3155	-47.101263	0.000892	8.918848	3.021788	0.000357
1977	1.9661e+02	-1.2706	-46.766180	0.000841	8.412096	2.850095	0.000337
1978	1.9671e+02	-1.2353	-46.463395	0.000760	7.601291	2.575387	0.000304
1979	1.9681e+02	-1.1968	-46.136387	0.000821	8.209395	2.781418	0.000329
1980	1.9691e+02	-1.1502	-45.829565	0.000770	7.702642	2.609726	0.000308
1981	1.9701e+02	-1.1117	-45.494483	0.000841	8.412096	2.850095	0.000337
1982	1.9711e+02	-1.0813	-45.179586	0.000791	7.905343	2.678403	0.000316
1983	1.9721e+02	-1.0299	-44.800095	0.000953	9.526952	3.227819	0.000381
1984	1.9731e+02	-0.9978	-44.521533	0.000699	6.993188	2.369356	0.000280
1985	1.9741e+02	-0.9593	-44.234896	0.000720	7.195889	2.438033	0.000288
1986	1.9751e+02	-0.9160	-43.871554	0.000912	9.121549	3.090465	0.000365
1987	1.9761e+02	-0.8743	-43.500138	0.000932	9.324251	3.159142	0.000373
1988	1.9771e+02	-0.8406	-43.221575	0.000699	6.993188	2.369356	0.000280
1989	1.9781e+02	-0.7941	-42.850159	0.000932	9.324251	3.159142	0.000373
1990	1.9791e+02	-0.7444	-42.543336	0.000770	7.702642	2.609726	0.000308
1991	1.9800e+02	-0.7219	-42.200180	0.000861	8.614797	2.918772	0.000345
1992	1.9810e+02	-0.6722	-41.889320	0.000780	7.803992	2.644064	0.000312
1993	1.9820e+02	-0.6353	-41.598647	0.000730	7.297240	2.472372	0.000292
1994	1.9830e+02	-0.6032	-41.207044	0.000983	9.831003	3.330834	0.000394
1995	1.9840e+02	-0.5551	-40.900222	0.000770	7.702642	2.609726	0.000308
1996	1.9850e+02	-0.5134	-40.597437	0.000760	7.601291	2.575387	0.000304
1997	1.9860e+02	-0.4749	-40.258318	0.000851	8.513446	2.884434	0.000341
1998	1.9870e+02	-0.4347	-39.943421	0.000791	7.905343	2.678403	0.000316
1999	1.9880e+02	-0.3995	-39.600264	0.000861	8.614797	2.918772	0.000345
2000	1.9890e+02	-0.3561	-39.265182	0.000841	8.412096	2.850095	0.000337
2001	1.9900e+02	-0.3241	-38.954323	0.000780	7.803992	2.644064	0.000312
2002	1.9910e+02	-0.2727	-38.631352	0.000811	8.108044	2.747080	0.000325
2003	1.9920e+02	-0.2390	-38.280121	0.000882	8.817498	2.987449	0.000353
2004	1.9930e+02	-0.2005	-37.932927	0.000872	8.716147	2.953111	0.000349
2005	1.9940e+02	-0.1620	-37.662439	0.000679	6.790487	2.300679	0.000272
2006	1.9950e+02	-0.1315	-37.323320	0.000851	8.513446	2.884434	0.000341
2007	1.9960e+02	-0.0706	-36.964015	0.000902	9.020199	3.056126	0.000361
2008	1.9970e+02	-0.0273	-36.649118	0.000791	7.905343	2.678403	0.000316
2009	1.9980e+02	0.0096	-36.301925	0.000791	7.905343	2.678403	0.000349

PMax (uC/cm2):	1.65e+02
Pr (uC/cm2):	5.36e+01
-Pr (uC/cm2):	-2.13e+01
PLoss (uC/cm2):	-2.12e+01
-Vc:	-6.58e+00
C (Max-Eff) (nF):	8.26e-01
K (Eff):	2.80e+03
Vert. (+/-Pr) Shift (uC/cm2):	1.62e+01
Offset (uC/cm2):	1.50e+01

A (Loop Area - uC/cm2·Volts):	-2.86e-01



Hysteresis Version: 5.48.1 - Radiant Technologies, Inc., 1999 - 9/12/24

