»»»»»»»»»»»»»»»»»»»»»»»»»»»»»»»»»»»» Hysteresis ««««««««««««««««««««««««««««««««««««
»»»  Executed Version:	5.48.1
»»»  Vision Version:	5.48.4 (R)
»»»  Vision Compiled:	9/18/24
»»»  Driver Version:	5.47.0
»»»  Windows Version:	Windows 8 or 8.1
»»»  Processor Information:	x86 (AMD or Intel) - 32 Processors
»»»  Tester Name:	PMF21124-494 (100V)
»»»  Tester S/N:	PMF21124-494
»»»  Internal Amp Type:	100V RevK 270k
»»»  Internal Amp S/N:	iAB2-596/K     
»»»  Execution Count:	1
»»»»»»»»»»»»»»»»»»»»»»»»»»»»»»»»»»»»»»»»»»««««««««««««««««««««««««««««««««««««««««««

Stored:	6/18/2025 - 14:2:12
Configured:	06/18/25 09:47:30 AM
Executed:	06/18/25 02:01:51 PM

»»»»»»»»»»»»»»»»»»»»»»»»»»»»»»»»»»» Sample Info ««««««««««««««««««««««««««««««««««««
Sample Name:	
Lot Name:	
Wafer Name:	
Die Row/Column:	0/0
Capacitor Number:	0
Sample Area (cm2):	1.00e-04
Sample Thickness (microns):	3.00e-01

Amplifier:	Internal

»»»»»»»»»»»»»»»»»»»»»»»»»»»»»»»»»»» Tester Info «««««««««««««««««««««««««««««««««««
Tester Name:	PMF21124-494 (100V)
Tester Serial Number:	PMF21124-494
Return Signal Amp. Level:	0.19 [Index: 3]

»»»»»»»»»»»»»»»»»»»»»»»»»»»»»»»» Hysteresis Info ««««««««««««««««««««««««««««««««««
Task Name:	Hyst-554
Volts:	20.00
Field:	666.67 (kV/cm)
DCBias:	0.00
DCField:	0.00 (kV/cm)
Hysteresis Period (ms):	1.00e+00
Preset:	Enabled
Preset Delay (ms):	1.00e+03
Profile:	Standard Bipolar

»»»»»»»»»»»»»»»»»»»»»»»»»»»»»»»»»»»»»» Data «««««««««««««««««««««««««««««««««««««««
Points:	2001

Valid Data

Point	Time (ms)	Drive Voltage	Measured Polarization (uC/cm2)	Capacitance (uF)	Normalized Capacitance (uF/cm2)	Dielectric Constant	Instantaneous Current (mA)
   1	0.0000e+00	0.0128	-9.024058	0.000818	8.183118	2.772516	0.065336
   2	5.0000e-04	0.0305	-8.697377	0.000818	8.183118	2.772516	0.065336
   3	1.0000e-03	0.0529	-8.903065	-0.000515	-5.152334	-1.745658	-0.041138
   4	1.5000e-03	0.0866	-8.640914	0.000657	6.566700	2.224858	0.052430
   5	2.0000e-03	0.1235	-8.439259	0.000505	5.051308	1.711429	0.040331
   6	2.5000e-03	0.1652	-8.209372	0.000576	5.758491	1.951029	0.045977
   7	3.0000e-03	0.2198	-7.902857	0.000768	7.677987	2.601373	0.061303
   8	3.5000e-03	0.2406	-7.624573	0.000697	6.970804	2.361772	0.055657
   9	4.0000e-03	0.2888	-7.245462	0.000950	9.496458	3.217487	0.075822
  10	4.5000e-03	0.3305	-6.862317	0.000960	9.597484	3.251716	0.076629
  11	5.0000e-03	0.3786	-6.636464	0.000566	5.657464	1.916801	0.045171
  12	5.5000e-03	0.4107	-6.358180	0.000697	6.970804	2.361772	0.055657
  13	6.0000e-03	0.4620	-6.188790	0.000424	4.243098	1.437601	0.033878
  14	6.5000e-03	0.4861	-5.829844	0.000899	8.991327	3.046344	0.071789
  15	7.0000e-03	0.5278	-5.595924	0.000586	5.859517	1.985258	0.046784
  16	7.5000e-03	0.5615	-5.136151	0.001152	11.516981	3.902059	0.091955
  17	8.0000e-03	0.6160	-5.055489	0.000202	2.020523	0.684572	0.016132
  18	8.5000e-03	0.6465	-4.632014	0.001061	10.607746	3.594002	0.084695
  19	9.0000e-03	0.6818	-4.269035	0.000909	9.092354	3.080573	0.072596
  20	9.5000e-03	0.7283	-4.039148	0.000576	5.758491	1.951029	0.045977
  21	1.0000e-02	0.7716	-3.845560	0.000485	4.849255	1.642972	0.038718
  22	1.0500e-02	0.8101	-3.381753	0.001162	11.618007	3.936287	0.092761
  23	1.1000e-02	0.8502	-3.188164	0.000485	4.849255	1.642972	0.038718
  24	1.1500e-02	0.8855	-3.055072	0.000333	3.333863	1.129543	0.026618
  25	1.2000e-02	0.9369	-2.768722	0.000717	7.172857	2.430230	0.057270
  26	1.2500e-02	0.9802	-2.349280	0.001051	10.506720	3.559773	0.083888
  27	1.3000e-02	1.0139	-2.010500	0.000849	8.486197	2.875201	0.067756
  28	1.3500e-02	1.0556	-1.748348	0.000657	6.566700	2.224858	0.052430
  29	1.4000e-02	1.0941	-1.574925	0.000434	4.344124	1.471829	0.034685
  30	1.4500e-02	1.1326	-1.272443	0.000758	7.576961	2.567144	0.060496
  31	1.5000e-02	1.1727	-0.816702	0.001142	11.415955	3.867830	0.091148
  32	1.5500e-02	1.2112	-0.522286	0.000737	7.374909	2.498687	0.058883
  33	1.6000e-02	1.2433	-0.393227	0.000323	3.232837	1.095315	0.025812
  34	1.6500e-02	1.2930	-0.014116	0.000950	9.496458	3.217487	0.075822
  35	1.7000e-02	1.3283	0.340797	0.000889	8.890301	3.012116	0.070983
  36	1.7500e-02	1.3716	0.578750	0.000596	5.960543	2.019487	0.047591
  37	1.8000e-02	1.4085	0.748140	0.000424	4.243098	1.437601	0.033878
  38	1.8500e-02	1.4438	1.248244	0.001253	12.527243	4.244345	0.100021
  39	1.9000e-02	1.4887	1.433767	0.000465	4.647203	1.574515	0.037105
  40	1.9500e-02	1.5304	1.849176	0.001041	10.405694	3.525544	0.083082
  41	2.0000e-02	1.5770	2.204088	0.000889	8.890301	3.012116	0.070983
  42	2.0500e-02	1.6139	2.510604	0.000768	7.677987	2.601373	0.061303
  43	2.1000e-02	1.6588	2.720325	0.000525	5.253360	1.779886	0.041944
  44	2.1500e-02	1.6877	3.115569	0.000990	9.900563	3.354401	0.079049
  45	2.2000e-02	1.7326	3.067171	-0.000121	-1.212314	-0.410743	-0.009679
  46	2.2500e-02	1.7663	3.518879	0.001131	11.314929	3.833602	0.090341
  47	2.3000e-02	1.8096	3.922188	0.001010	10.102615	3.422859	0.080662
  48	2.3500e-02	1.8465	4.168207	0.000616	6.162595	2.087944	0.049204
  49	2.4000e-02	1.8914	4.611848	0.001111	11.112877	3.765145	0.088728
  50	2.4500e-02	1.9219	4.910298	0.000748	7.475935	2.532915	0.059690
  51	2.5000e-02	1.9716	5.184548	0.000687	6.869778	2.327544	0.054850
  52	2.5500e-02	2.0037	5.499130	0.000788	7.880040	2.669830	0.062916
  53	2.6000e-02	2.0486	5.608024	0.000273	2.727706	0.924172	0.021779
  54	2.6500e-02	2.0871	6.007300	0.001000	10.001589	3.388630	0.079855
  55	2.7000e-02	2.1320	6.237187	0.000576	5.758491	1.951029	0.045977
  56	2.7500e-02	2.1785	6.543702	0.000768	7.677987	2.601373	0.061303
  57	2.8000e-02	2.2106	7.003476	0.001152	11.516981	3.902059	0.091955
  58	2.8500e-02	2.2556	7.160767	0.000394	3.940020	1.334915	0.031458
  59	2.9000e-02	2.2973	7.451150	0.000727	7.273883	2.464458	0.058077
  60	2.9500e-02	2.3293	7.854460	0.001010	10.102615	3.422859	0.080662
  61	3.0000e-02	2.3678	8.044015	0.000475	4.748229	1.608744	0.037911
  62	3.0500e-02	2.4128	8.298100	0.000636	6.364648	2.156401	0.050817
  63	3.1000e-02	2.4465	8.491689	0.000485	4.849255	1.642972	0.038718
  64	3.1500e-02	2.4946	8.874833	0.000960	9.597484	3.251716	0.076629
  65	3.2000e-02	2.5347	9.326541	0.001131	11.314929	3.833602	0.090341
  66	3.2500e-02	2.5780	9.620957	0.000737	7.374909	2.498687	0.058883
  67	3.3000e-02	2.6149	9.830678	0.000525	5.253360	1.779886	0.041944
  68	3.3500e-02	2.6598	10.112995	0.000707	7.071831	2.396001	0.056463
  69	3.4000e-02	2.6919	10.463874	0.000879	8.789275	2.977887	0.070176
  70	3.4500e-02	2.7304	10.927681	0.001162	11.618007	3.936287	0.092761
  71	3.5000e-02	2.7705	11.129336	0.000505	5.051308	1.711429	0.040331
  72	3.5500e-02	2.8090	11.544745	0.001041	10.405694	3.525544	0.083082
  73	3.6000e-02	2.8523	11.762532	0.000546	5.455412	1.848344	0.043557
  74	3.6500e-02	2.8988	12.101312	0.000849	8.486197	2.875201	0.067756
  75	3.7000e-02	2.9309	12.423960	0.000808	8.082092	2.738287	0.064530
  76	3.7500e-02	2.9694	12.694178	0.000677	6.768752	2.293315	0.054044
  77	3.8000e-02	3.0127	13.041024	0.000869	8.688249	2.943658	0.069369
  78	3.8500e-02	3.0513	13.347540	0.000768	7.677987	2.601373	0.061303
  79	3.9000e-02	3.0946	13.488698	0.000354	3.535915	1.198001	0.028232
  80	3.9500e-02	3.1299	13.823445	0.000839	8.385171	2.840973	0.066949
  81	4.0000e-02	3.1635	14.186424	0.000909	9.092354	3.080573	0.072596
  82	4.0500e-02	3.2101	14.682495	0.001243	12.426217	4.210116	0.099214
  83	4.1000e-02	3.2454	14.932548	0.000626	6.263621	2.122172	0.050010
  84	4.1500e-02	3.2871	14.989011	0.000141	1.414366	0.479200	0.011293
  85	4.2000e-02	3.3240	15.327791	0.000849	8.486197	2.875201	0.067756
  86	4.2500e-02	3.3705	15.775465	0.001121	11.213903	3.799373	0.089535
  87	4.3000e-02	3.4106	16.037617	0.000657	6.566700	2.224858	0.052430
  88	4.3500e-02	3.4507	16.178775	0.000354	3.535915	1.198001	0.028232
  89	4.4000e-02	3.4844	16.682912	0.001263	12.628269	4.278573	0.100827
  90	4.4500e-02	3.5373	17.017660	0.000839	8.385171	2.840973	0.066949
  91	4.5000e-02	3.5630	17.215281	0.000495	4.950281	1.677201	0.039524
  92	4.5500e-02	3.6095	17.469367	0.000636	6.364648	2.156401	0.050817
  93	4.6000e-02	3.6577	17.743617	0.000687	6.869778	2.327544	0.054850
  94	4.6500e-02	3.6785	18.251788	0.001273	12.729295	4.312802	0.101634
  95	4.7000e-02	3.7330	18.622833	0.000929	9.294406	3.149030	0.074209
  96	4.7500e-02	3.7603	18.905150	0.000707	7.071831	2.396001	0.056463
  97	4.8000e-02	3.8133	19.086639	0.000455	4.546177	1.540286	0.036298
  98	4.8500e-02	3.8566	19.352824	0.000667	6.667726	2.259087	0.053237
  99	4.9000e-02	3.8806	19.820663	0.001172	11.719033	3.970516	0.093568
 100	4.9500e-02	3.9320	19.897292	0.000192	1.919497	0.650343	0.015326
 101	5.0000e-02	3.9785	20.211874	0.000788	7.880040	2.669830	0.062916
 102	5.0500e-02	4.0138	20.647448	0.001091	10.910824	3.696687	0.087115
 103	5.1000e-02	4.0507	20.901534	0.000636	6.364648	2.156401	0.050817
 104	5.1500e-02	4.0908	21.441969	0.001354	13.537504	4.586631	0.108087
 105	5.2000e-02	4.1325	21.712186	0.000677	6.768752	2.293315	0.054044
 106	5.2500e-02	4.1726	21.804948	0.000232	2.323601	0.787257	0.018552
 107	5.3000e-02	4.2127	22.111463	0.000768	7.677987	2.601373	0.061303
 108	5.3500e-02	4.2480	22.688196	0.001445	14.446740	4.894688	0.115347
 109	5.4000e-02	4.2929	22.978579	0.000727	7.273883	2.464458	0.058077
 110	5.4500e-02	4.3314	23.309293	0.000828	8.284144	2.806744	0.066143
 111	5.5000e-02	4.3731	23.454485	0.000364	3.636941	1.232229	0.029038
 112	5.5500e-02	4.4100	23.583544	0.000323	3.232837	1.095315	0.025812
 113	5.6000e-02	4.4517	24.007019	0.001061	10.607746	3.594002	0.084695
 114	5.6500e-02	4.4838	24.478892	0.001182	11.820060	4.004745	0.094375
 115	5.7000e-02	4.5287	24.801540	0.000808	8.082092	2.738287	0.064530
 116	5.7500e-02	4.5673	25.116122	0.000788	7.880040	2.669830	0.062916
 117	5.8000e-02	4.6009	25.491200	0.000940	9.395432	3.183259	0.075016
 118	5.8500e-02	4.6475	25.773517	0.000707	7.071831	2.396001	0.056463
 119	5.9000e-02	4.6860	26.055834	0.000707	7.071831	2.396001	0.056463
 120	5.9500e-02	4.7341	26.362349	0.000768	7.677987	2.601373	0.061303
 121	6.0000e-02	4.7854	26.495441	0.000333	3.333863	1.129543	0.026618
 122	6.0500e-02	4.8127	26.898751	0.001010	10.102615	3.422859	0.080662
 123	6.1000e-02	4.8432	27.362557	0.001162	11.618007	3.936287	0.092761
 124	6.1500e-02	4.8945	27.552113	0.000475	4.748229	1.608744	0.037911
 125	6.2000e-02	4.9234	27.858629	0.000768	7.677987	2.601373	0.061303
 126	6.2500e-02	4.9779	28.362766	0.001263	12.628269	4.278573	0.100827
 127	6.3000e-02	5.0068	28.475693	0.000283	2.828732	0.958400	0.022585
 128	6.3500e-02	5.0485	28.596686	0.000303	3.030785	1.026858	0.024199
 129	6.4000e-02	5.0822	29.270213	0.001687	16.871367	5.716174	0.134705
 130	6.4500e-02	5.1255	29.451703	0.000455	4.546177	1.540286	0.036298
 131	6.5000e-02	5.1785	29.842913	0.000980	9.799537	3.320173	0.078242
 132	6.5500e-02	5.2138	30.306719	0.001162	11.618007	3.936287	0.092761
 133	6.6000e-02	5.2555	30.464010	0.000394	3.940020	1.334915	0.031458
 134	6.6500e-02	5.2876	30.689864	0.000566	5.657464	1.916801	0.045171
 135	6.7000e-02	5.3341	31.141571	0.001131	11.314929	3.833602	0.090341
 136	6.7500e-02	5.3806	31.609410	0.001172	11.719033	3.970516	0.093568
 137	6.8000e-02	5.4143	31.722337	0.000283	2.828732	0.958400	0.022585
 138	6.8500e-02	5.4383	32.121614	0.001000	10.001589	3.388630	0.079855
 139	6.9000e-02	5.4897	32.428129	0.000768	7.677987	2.601373	0.061303
 140	6.9500e-02	5.5362	32.625751	0.000495	4.950281	1.677201	0.039524
 141	7.0000e-02	5.5763	32.883869	0.000647	6.465674	2.190630	0.051624
 142	7.0500e-02	5.6068	33.388007	0.001263	12.628269	4.278573	0.100827
 143	7.1000e-02	5.6453	33.585629	0.000495	4.950281	1.677201	0.039524
 144	7.1500e-02	5.6966	33.791317	0.000515	5.152334	1.745658	0.041138
 145	7.2000e-02	5.7303	34.259156	0.001172	11.719033	3.970516	0.093568
 146	7.2500e-02	5.7817	34.533407	0.000687	6.869778	2.327544	0.054850
 147	7.3000e-02	5.8137	34.787492	0.000636	6.364648	2.156401	0.050817
 148	7.3500e-02	5.8587	35.033511	0.000616	6.162595	2.087944	0.049204
 149	7.4000e-02	5.8859	35.517483	0.001212	12.123138	4.107430	0.096794
 150	7.4500e-02	5.9276	35.860296	0.000859	8.587223	2.909430	0.068563
 151	7.5000e-02	5.9661	36.138580	0.000697	6.970804	2.361772	0.055657
 152	7.5500e-02	6.0143	36.344268	0.000515	5.152334	1.745658	0.041138
 153	7.6000e-02	6.0528	36.824207	0.001202	12.022112	4.073202	0.095988
 154	7.6500e-02	6.0961	37.058127	0.000586	5.859517	1.985258	0.046784
 155	7.7000e-02	6.1346	37.279947	0.000556	5.556438	1.882572	0.044364
 156	7.7500e-02	6.1747	37.707455	0.001071	10.708772	3.628230	0.085502
 157	7.8000e-02	6.2100	37.973640	0.000667	6.667726	2.259087	0.053237
 158	7.8500e-02	6.2501	38.445512	0.001182	11.820060	4.004745	0.094375
 159	7.9000e-02	6.2934	38.663300	0.000546	5.455412	1.848344	0.043557
 160	7.9500e-02	6.3255	38.917385	0.000636	6.364648	2.156401	0.050817
 161	8.0000e-02	6.3656	39.445721	0.001323	13.234426	4.483945	0.105667
 162	8.0500e-02	6.4073	39.659475	0.000535	5.354386	1.814115	0.042751
 163	8.1000e-02	6.4570	40.123281	0.001162	11.618007	3.936287	0.092761
 164	8.1500e-02	6.4907	40.482227	0.000899	8.991327	3.046344	0.071789
 165	8.2000e-02	6.5260	40.615319	0.000333	3.333863	1.129543	0.026618
 166	8.2500e-02	6.5774	40.792776	0.000445	4.445151	1.506058	0.035491
 167	8.3000e-02	6.6126	40.929901	0.000343	3.434889	1.163772	0.027425
 168	8.3500e-02	6.6576	41.377575	0.001121	11.213903	3.799373	0.089535
 169	8.4000e-02	6.6864	41.732488	0.000889	8.890301	3.012116	0.070983
 170	8.4500e-02	6.7282	42.135798	0.001010	10.102615	3.422859	0.080662
 171	8.5000e-02	6.7715	42.514909	0.000950	9.496458	3.217487	0.075822
 172	8.5500e-02	6.8084	42.748829	0.000586	5.859517	1.985258	0.046784
 173	8.6000e-02	6.8517	42.853689	0.000263	2.626680	0.889943	0.020972
 174	8.6500e-02	6.8918	43.414290	0.001404	14.042635	4.757774	0.112120
 175	8.7000e-02	6.9303	43.591746	0.000445	4.445151	1.506058	0.035491
 176	8.7500e-02	6.9848	43.946659	0.000889	8.890301	3.012116	0.070983
 177	8.8000e-02	7.0073	44.237042	0.000727	7.273883	2.464458	0.058077
 178	8.8500e-02	7.0474	44.503227	0.000667	6.667726	2.259087	0.053237
 179	8.9000e-02	7.0843	44.975099	0.001182	11.820060	4.004745	0.094375
 180	8.9500e-02	7.1372	45.261449	0.000717	7.172857	2.430230	0.057270
 181	9.0000e-02	7.1709	45.789785	0.001323	13.234426	4.483945	0.105667
 182	9.0500e-02	7.2046	46.019672	0.000576	5.758491	1.951029	0.045977
 183	9.1000e-02	7.2495	46.314088	0.000737	7.374909	2.498687	0.058883
 184	9.1500e-02	7.2848	46.628669	0.000788	7.880040	2.669830	0.062916
 185	9.2000e-02	7.3281	46.894854	0.000667	6.667726	2.259087	0.053237
 186	9.2500e-02	7.3714	47.346561	0.001131	11.314929	3.833602	0.090341
 187	9.3000e-02	7.4003	47.693408	0.000869	8.688249	2.943658	0.069369
 188	9.3500e-02	7.4485	47.915228	0.000556	5.556438	1.882572	0.044364
 189	9.4000e-02	7.4902	48.249975	0.000839	8.385171	2.840973	0.066949
 190	9.4500e-02	7.5287	48.435498	0.000465	4.647203	1.574515	0.037105
 191	9.5000e-02	7.5768	48.649252	0.000535	5.354386	1.814115	0.042751
 192	9.5500e-02	7.6105	49.056595	0.001020	10.203641	3.457087	0.081469
 193	9.6000e-02	7.6458	49.609129	0.001384	13.840583	4.689316	0.110507
 194	9.6500e-02	7.6907	49.782553	0.000434	4.344124	1.471829	0.034685
 195	9.7000e-02	7.7260	50.306855	0.001313	13.133400	4.449716	0.104861
 196	9.7500e-02	7.7757	50.536742	0.000576	5.758491	1.951029	0.045977
 197	9.8000e-02	7.8126	50.996515	0.001152	11.516981	3.902059	0.091955
 198	9.8500e-02	7.8559	51.182038	0.000465	4.647203	1.574515	0.037105
 199	9.9000e-02	7.8864	51.367560	0.000465	4.647203	1.574515	0.037105
 200	9.9500e-02	7.9361	51.694241	0.000818	8.183118	2.772516	0.065336
 201	1.0000e-01	7.9746	51.609546	-0.000212	-2.121549	-0.718800	-0.016939
 202	1.0050e-01	8.0099	52.101584	0.001233	12.325190	4.175888	0.098408
 203	1.0100e-01	8.0452	52.754946	0.001637	16.366236	5.545031	0.130672
 204	1.0150e-01	8.0837	52.912237	0.000394	3.940020	1.334915	0.031458
 205	1.0200e-01	8.1303	53.323613	0.001030	10.304667	3.491316	0.082275
 206	1.0250e-01	8.1768	53.545434	0.000556	5.556438	1.882572	0.044364
 207	1.0300e-01	8.2201	53.952777	0.001020	10.203641	3.457087	0.081469
 208	1.0350e-01	8.2458	54.174597	0.000556	5.556438	1.882572	0.044364
 209	1.0400e-01	8.2859	54.610172	0.001091	10.910824	3.696687	0.087115
 210	1.0450e-01	8.3324	54.666635	0.000141	1.414366	0.479200	0.011293
 211	1.0500e-01	8.3645	55.150607	0.001212	12.123138	4.107430	0.096794
 212	1.0550e-01	8.4078	55.436957	0.000717	7.172857	2.430230	0.057270
 213	1.0600e-01	8.4575	55.666843	0.000576	5.758491	1.951029	0.045977
 214	1.0650e-01	8.4768	56.170981	0.001263	12.628269	4.278573	0.100827
 215	1.0700e-01	8.5297	56.360536	0.000475	4.748229	1.608744	0.037911
 216	1.0750e-01	8.5698	56.667052	0.000768	7.677987	2.601373	0.061303
 217	1.0800e-01	8.6099	56.969534	0.000758	7.576961	2.567144	0.060496
 218	1.0850e-01	8.6500	57.449473	0.001202	12.022112	4.073202	0.095988
 219	1.0900e-01	8.6885	57.699525	0.000626	6.263621	2.122172	0.050010
 220	1.0950e-01	8.7286	58.155265	0.001142	11.415955	3.867830	0.091148
 221	1.1000e-01	8.7848	58.252060	0.000242	2.424628	0.821486	0.019359
 222	1.1050e-01	8.8153	58.598906	0.000869	8.688249	2.943658	0.069369
 223	1.1100e-01	8.8522	58.953819	0.000889	8.890301	3.012116	0.070983
 224	1.1150e-01	8.8874	59.361162	0.001020	10.203641	3.457087	0.081469
 225	1.1200e-01	8.9308	59.530552	0.000424	4.243098	1.437601	0.033878
 226	1.1250e-01	8.9693	59.764472	0.000586	5.859517	1.985258	0.046784
 227	1.1300e-01	9.0078	60.208112	0.001111	11.112877	3.765145	0.088728
 228	1.1350e-01	9.0479	60.494462	0.000717	7.172857	2.430230	0.057270
 229	1.1400e-01	9.0848	60.853408	0.000899	8.991327	3.046344	0.071789
 230	1.1450e-01	9.1249	61.002633	0.000374	3.737968	1.266458	0.029845
 231	1.1500e-01	9.1682	61.353512	0.000879	8.789275	2.977887	0.070176
 232	1.1550e-01	9.2099	61.845551	0.001233	12.325190	4.175888	0.098408
 233	1.1600e-01	9.2452	61.970577	0.000313	3.131811	1.061086	0.025005
 234	1.1650e-01	9.2901	62.321456	0.000879	8.789275	2.977887	0.070176
 235	1.1700e-01	9.3318	62.761064	0.001101	11.011850	3.730916	0.087922
 236	1.1750e-01	9.3639	63.031282	0.000677	6.768752	2.293315	0.054044
 237	1.1800e-01	9.4072	63.450724	0.001051	10.506720	3.559773	0.083888
 238	1.1850e-01	9.4618	63.519286	0.000172	1.717445	0.581886	0.013713
 239	1.1900e-01	9.4955	63.878232	0.000899	8.991327	3.046344	0.071789
 240	1.1950e-01	9.5388	64.160549	0.000707	7.071831	2.396001	0.056463
 241	1.2000e-01	9.5709	64.676786	0.001293	12.931347	4.381259	0.103247
 242	1.2050e-01	9.6158	64.910705	0.000586	5.859517	1.985258	0.046784
 243	1.2100e-01	9.6543	65.148658	0.000596	5.960543	2.019487	0.047591
 244	1.2150e-01	9.6848	65.539869	0.000980	9.799537	3.320173	0.078242
 245	1.2200e-01	9.7281	65.664895	0.000313	3.131811	1.061086	0.025005
 246	1.2250e-01	9.7666	66.128701	0.001162	11.618007	3.936287	0.092761
 247	1.2300e-01	9.8163	66.362621	0.000586	5.859517	1.985258	0.046784
 248	1.2350e-01	9.8564	66.612673	0.000626	6.263621	2.122172	0.050010
 249	1.2400e-01	9.8869	66.870791	0.000647	6.465674	2.190630	0.051624
 250	1.2450e-01	9.9286	67.395094	0.001313	13.133400	4.449716	0.104861
 251	1.2500e-01	9.9847	67.528186	0.000333	3.333863	1.129543	0.026618
 252	1.2550e-01	10.0104	67.790338	0.000657	6.566700	2.224858	0.052430
 253	1.2600e-01	10.0521	68.225913	0.001091	10.910824	3.696687	0.087115
 254	1.2650e-01	10.0938	68.661487	0.001091	10.910824	3.696687	0.087115
 255	1.2700e-01	10.1339	69.012367	0.000879	8.789275	2.977887	0.070176
 256	1.2750e-01	10.1740	69.169658	0.000394	3.940020	1.334915	0.031458
 257	1.2800e-01	10.2077	69.318882	0.000374	3.737968	1.266458	0.029845
 258	1.2850e-01	10.2446	69.843185	0.001313	13.133400	4.449716	0.104861
 259	1.2900e-01	10.2928	70.274727	0.001081	10.809798	3.662459	0.086308
 260	1.2950e-01	10.3361	70.500580	0.000566	5.657464	1.916801	0.045171
 261	1.3000e-01	10.3682	70.617540	0.000293	2.929758	0.992629	0.023392
 262	1.3050e-01	10.4115	71.166041	0.001374	13.739557	4.655088	0.109700
 263	1.3100e-01	10.4403	71.645980	0.001202	12.022112	4.073202	0.095988
 264	1.3150e-01	10.4901	71.891999	0.000616	6.162595	2.087944	0.049204
 265	1.3200e-01	10.5222	72.101720	0.000525	5.253360	1.779886	0.041944
 266	1.3250e-01	10.5719	72.315474	0.000535	5.354386	1.814115	0.042751
 267	1.3300e-01	10.6168	72.662321	0.000869	8.688249	2.943658	0.069369
 268	1.3350e-01	10.6585	72.948671	0.000717	7.172857	2.430230	0.057270
 269	1.3400e-01	10.6922	73.190657	0.000606	6.061569	2.053715	0.048397
 270	1.3450e-01	10.7371	73.468941	0.000697	6.970804	2.361772	0.055657
 271	1.3500e-01	10.7740	73.819820	0.000879	8.789275	2.977887	0.070176
 272	1.3550e-01	10.8125	74.086005	0.000667	6.667726	2.259087	0.053237
 273	1.3600e-01	10.8462	74.465116	0.000950	9.496458	3.217487	0.075822
 274	1.3650e-01	10.8911	74.884558	0.001051	10.506720	3.559773	0.083888
 275	1.3700e-01	10.9377	75.049915	0.000414	4.142072	1.403372	0.033071
 276	1.3750e-01	10.9730	75.316100	0.000667	6.667726	2.259087	0.053237
 277	1.3800e-01	11.0147	75.416927	0.000253	2.525654	0.855715	0.020165
 278	1.3850e-01	11.0516	76.050124	0.001586	15.861106	5.373888	0.126639
 279	1.3900e-01	11.0869	76.405036	0.000889	8.890301	3.012116	0.070983
 280	1.3950e-01	11.1238	76.417136	0.000030	0.303078	0.102686	0.002420
 281	1.4000e-01	11.1703	76.816413	0.001000	10.001589	3.388630	0.079855
 282	1.4050e-01	11.2072	77.268120	0.001131	11.314929	3.833602	0.090341
 283	1.4100e-01	11.2505	77.397179	0.000323	3.232837	1.095315	0.025812
 284	1.4150e-01	11.2890	77.651264	0.000636	6.364648	2.156401	0.050817
 285	1.4200e-01	11.3371	78.054574	0.001010	10.102615	3.422859	0.080662
 286	1.4250e-01	11.3740	78.098938	0.000111	1.111288	0.376514	0.008873
 287	1.4300e-01	11.4189	78.449817	0.000879	8.789275	2.977887	0.070176
 288	1.4350e-01	11.4526	78.808763	0.000899	8.991327	3.046344	0.071789
 289	1.4400e-01	11.4911	79.175775	0.000919	9.193380	3.114801	0.073402
 290	1.4450e-01	11.5296	79.502456	0.000818	8.183118	2.772516	0.065336
 291	1.4500e-01	11.5681	79.748475	0.000616	6.162595	2.087944	0.049204
 292	1.4550e-01	11.6114	80.079189	0.000828	8.284144	2.806744	0.066143
 293	1.4600e-01	11.6531	80.422003	0.000859	8.587223	2.909430	0.068563
 294	1.4650e-01	11.6900	80.877743	0.001142	11.415955	3.867830	0.091148
 295	1.4700e-01	11.7366	81.091497	0.000535	5.354386	1.814115	0.042751
 296	1.4750e-01	11.7751	81.426244	0.000839	8.385171	2.840973	0.066949
 297	1.4800e-01	11.8184	81.805355	0.000950	9.496458	3.217487	0.075822
 298	1.4850e-01	11.8569	82.063474	0.000647	6.465674	2.190630	0.051624
 299	1.4900e-01	11.8890	82.454684	0.000980	9.799537	3.320173	0.078242
 300	1.4950e-01	11.9339	82.571644	0.000293	2.929758	0.992629	0.023392
 301	1.5000e-01	11.9692	82.616008	0.000111	1.111288	0.376514	0.008873
 302	1.5050e-01	12.0029	83.148377	0.001334	13.335452	4.518173	0.106474
 303	1.5100e-01	12.0478	83.531522	0.000960	9.597484	3.251716	0.076629
 304	1.5150e-01	12.0927	83.733177	0.000505	5.051308	1.711429	0.040331
 305	1.5200e-01	12.1216	83.983229	0.000626	6.263621	2.122172	0.050010
 306	1.5250e-01	12.1713	84.338141	0.000889	8.890301	3.012116	0.070983
 307	1.5300e-01	12.2098	84.854378	0.001293	12.931347	4.381259	0.103247
 308	1.5350e-01	12.2547	84.943106	0.000222	2.222575	0.753029	0.017746
 309	1.5400e-01	12.2788	85.160894	0.000546	5.455412	1.848344	0.043557
 310	1.5450e-01	12.3333	85.499674	0.000849	8.486197	2.875201	0.067756
 311	1.5500e-01	12.3654	86.149003	0.001627	16.265210	5.510802	0.129866
 312	1.5550e-01	12.4103	86.322426	0.000434	4.344124	1.471829	0.034685
 313	1.5600e-01	12.4456	86.503915	0.000455	4.546177	1.540286	0.036298
 314	1.5650e-01	12.4873	86.653140	0.000374	3.737968	1.266458	0.029845
 315	1.5700e-01	12.5226	87.004020	0.000879	8.789275	2.977887	0.070176
 316	1.5750e-01	12.5772	87.209708	0.000515	5.152334	1.745658	0.041138
 317	1.5800e-01	12.6077	87.492025	0.000707	7.071831	2.396001	0.056463
 318	1.5850e-01	12.6494	87.879202	0.000970	9.698510	3.285944	0.077435
 319	1.5900e-01	12.6943	88.270413	0.000980	9.799537	3.320173	0.078242
 320	1.5950e-01	12.7328	88.367207	0.000242	2.424628	0.821486	0.019359
 321	1.6000e-01	12.7697	88.887477	0.001303	13.032373	4.415488	0.104054
 322	1.6050e-01	12.8178	89.137529	0.000626	6.263621	2.122172	0.050010
 323	1.6100e-01	12.8547	89.472276	0.000839	8.385171	2.840973	0.066949
 324	1.6150e-01	12.8948	90.133704	0.001657	16.568289	5.613488	0.132286
 325	1.6200e-01	12.9365	90.057075	-0.000192	-1.919497	-0.650343	-0.015326
 326	1.6250e-01	12.9702	90.311160	0.000636	6.364648	2.156401	0.050817
 327	1.6300e-01	13.0135	90.565246	0.000636	6.364648	2.156401	0.050817
 328	1.6350e-01	13.0520	90.843529	0.000697	6.970804	2.361772	0.055657
 329	1.6400e-01	13.0921	91.170210	0.000818	8.183118	2.772516	0.065336
 330	1.6450e-01	13.1258	91.400097	0.000576	5.758491	1.951029	0.045977
 331	1.6500e-01	13.1595	91.654182	0.000636	6.364648	2.156401	0.050817
 332	1.6550e-01	13.2125	92.057492	0.001010	10.102615	3.422859	0.080662
 333	1.6600e-01	13.2445	92.275279	0.000546	5.455412	1.848344	0.043557
 334	1.6650e-01	13.2863	92.747152	0.001182	11.820060	4.004745	0.094375
 335	1.6700e-01	13.3360	93.041568	0.000737	7.374909	2.498687	0.058883
 336	1.6750e-01	13.3713	92.908476	-0.000333	-3.333863	-1.129543	-0.026618
 337	1.6800e-01	13.3953	93.299687	0.000980	9.799537	3.320173	0.078242
 338	1.6850e-01	13.4467	93.711063	0.001030	10.304667	3.491316	0.082275
 339	1.6900e-01	13.4868	93.928850	0.000546	5.455412	1.848344	0.043557
 340	1.6950e-01	13.5397	94.303928	0.000940	9.395432	3.183259	0.075016
 341	1.7000e-01	13.5670	94.441053	0.000343	3.434889	1.163772	0.027425
 342	1.7050e-01	13.6103	94.981489	0.001354	13.537504	4.586631	0.108087
 343	1.7100e-01	13.6488	95.259772	0.000697	6.970804	2.361772	0.055657
 344	1.7150e-01	13.6857	95.622751	0.000909	9.092354	3.080573	0.072596
 345	1.7200e-01	13.7258	95.840539	0.000546	5.455412	1.848344	0.043557
 346	1.7250e-01	13.7643	96.046227	0.000515	5.152334	1.745658	0.041138
 347	1.7300e-01	13.8140	96.413239	0.000919	9.193380	3.114801	0.073402
 348	1.7350e-01	13.8461	96.614894	0.000505	5.051308	1.711429	0.040331
 349	1.7400e-01	13.8927	96.925442	0.000778	7.779014	2.635601	0.062110
 350	1.7450e-01	13.9296	97.235991	0.000778	7.779014	2.635601	0.062110
 351	1.7500e-01	13.9761	97.502175	0.000667	6.667726	2.259087	0.053237
 352	1.7550e-01	14.0050	98.070842	0.001424	14.244687	4.826231	0.113733
 353	1.7600e-01	14.0451	98.127306	0.000141	1.414366	0.479200	0.011293
 354	1.7650e-01	14.0884	98.498351	0.000929	9.294406	3.149030	0.074209
 355	1.7700e-01	14.1333	98.816965	0.000798	7.981066	2.704058	0.063723
 356	1.7750e-01	14.1734	99.058951	0.000606	6.061569	2.053715	0.048397
 357	1.7800e-01	14.2103	99.143646	0.000212	2.121549	0.718800	0.016939
 358	1.7850e-01	14.2520	99.538890	0.000990	9.900563	3.354401	0.079049
 359	1.7900e-01	14.2905	99.853472	0.000788	7.880040	2.669830	0.062916
 360	1.7950e-01	14.3162	100.333410	0.001202	12.022112	4.073202	0.095988
 361	1.8000e-01	14.3739	100.442304	0.000273	2.727706	0.924172	0.021779
 362	1.8050e-01	14.4124	100.938375	0.001243	12.426217	4.210116	0.099214
 363	1.8100e-01	14.4477	101.055335	0.000293	2.929758	0.992629	0.023392
 364	1.8150e-01	14.4814	101.390082	0.000839	8.385171	2.840973	0.066949
 365	1.8200e-01	14.5199	101.736929	0.000869	8.688249	2.943658	0.069369
 366	1.8250e-01	14.5696	101.874054	0.000343	3.434889	1.163772	0.027425
 367	1.8300e-01	14.6178	102.047477	0.000434	4.344124	1.471829	0.034685
 368	1.8350e-01	14.6434	102.337860	0.000727	7.273883	2.464458	0.058077
 369	1.8400e-01	14.6884	102.765369	0.001071	10.708772	3.628230	0.085502
 370	1.8450e-01	14.7253	102.995256	0.000576	5.758491	1.951029	0.045977
 371	1.8500e-01	14.7605	103.309837	0.000788	7.880040	2.669830	0.062916
 372	1.8550e-01	14.8119	103.749445	0.001101	11.011850	3.730916	0.087922
 373	1.8600e-01	14.8552	103.943034	0.000485	4.849255	1.642972	0.038718
 374	1.8650e-01	14.8889	104.100325	0.000394	3.940020	1.334915	0.031458
 375	1.8700e-01	14.9338	104.261649	0.000404	4.041046	1.369143	0.032265
 376	1.8750e-01	14.9691	104.519767	0.000647	6.465674	2.190630	0.051624
 377	1.8800e-01	15.0076	104.983573	0.001162	11.618007	3.936287	0.092761
 378	1.8850e-01	15.0477	105.205394	0.000556	5.556438	1.882572	0.044364
 379	1.8900e-01	15.0878	105.451413	0.000616	6.162595	2.087944	0.049204
 380	1.8950e-01	15.1295	105.802292	0.000879	8.789275	2.977887	0.070176
 381	1.9000e-01	15.1616	106.012013	0.000525	5.253360	1.779886	0.041944
 382	1.9050e-01	15.2145	106.366926	0.000889	8.890301	3.012116	0.070983
 383	1.9100e-01	15.2498	106.750070	0.000960	9.597484	3.251716	0.076629
 384	1.9150e-01	15.2819	106.754103	0.000010	0.101026	0.034229	0.000807
 385	1.9200e-01	15.3284	107.084818	0.000828	8.284144	2.806744	0.066143
 386	1.9250e-01	15.3718	107.407465	0.000808	8.082092	2.738287	0.064530
 387	1.9300e-01	15.4119	107.754312	0.000869	8.688249	2.943658	0.069369
 388	1.9350e-01	15.4472	107.939834	0.000465	4.647203	1.574515	0.037105
 389	1.9400e-01	15.4921	108.117291	0.000445	4.445151	1.506058	0.035491
 390	1.9450e-01	15.5274	108.359277	0.000606	6.061569	2.053715	0.048397
 391	1.9500e-01	15.5691	108.786785	0.001071	10.708772	3.628230	0.085502
 392	1.9550e-01	15.6092	109.129599	0.000859	8.587223	2.909430	0.068563
 393	1.9600e-01	15.6477	109.561140	0.001081	10.809798	3.662459	0.086308
 394	1.9650e-01	15.6830	109.795060	0.000586	5.859517	1.985258	0.046784
 395	1.9700e-01	15.7247	110.012847	0.000546	5.455412	1.848344	0.043557
 396	1.9750e-01	15.7680	110.319363	0.000768	7.677987	2.601373	0.061303
 397	1.9800e-01	15.7969	110.512951	0.000485	4.849255	1.642972	0.038718
 398	1.9850e-01	15.8546	110.633944	0.000303	3.030785	1.026858	0.024199
 399	1.9900e-01	15.8883	111.150181	0.001293	12.931347	4.381259	0.103247
 400	1.9950e-01	15.9268	111.359902	0.000525	5.253360	1.779886	0.041944
 401	2.0000e-01	15.9717	111.412332	0.000131	1.313340	0.444972	0.010486
 402	2.0050e-01	16.0086	111.686583	0.000687	6.869778	2.327544	0.054850
 403	2.0100e-01	16.0520	112.210886	0.001313	13.133400	4.449716	0.104861
 404	2.0150e-01	16.0889	112.477070	0.000667	6.667726	2.259087	0.053237
 405	2.0200e-01	16.1274	112.654527	0.000445	4.445151	1.506058	0.035491
 406	2.0250e-01	16.1707	112.981208	0.000818	8.183118	2.772516	0.065336
 407	2.0300e-01	16.2124	113.336120	0.000889	8.890301	3.012116	0.070983
 408	2.0350e-01	16.2525	113.465180	0.000323	3.232837	1.095315	0.025812
 409	2.0400e-01	16.2910	113.739430	0.000687	6.869778	2.327544	0.054850
 410	2.0450e-01	16.3311	114.191137	0.001131	11.314929	3.833602	0.090341
 411	2.0500e-01	16.3664	114.433123	0.000606	6.061569	2.053715	0.048397
 412	2.0550e-01	16.4145	114.574282	0.000354	3.535915	1.198001	0.028232
 413	2.0600e-01	16.4562	114.909029	0.000839	8.385171	2.840973	0.066949
 414	2.0650e-01	16.4819	115.376868	0.001172	11.719033	3.970516	0.093568
 415	2.0700e-01	16.5284	115.643053	0.000667	6.667726	2.259087	0.053237
 416	2.0750e-01	16.5701	115.985866	0.000859	8.587223	2.909430	0.068563
 417	2.0800e-01	16.6038	116.078627	0.000232	2.323601	0.787257	0.018552
 418	2.0850e-01	16.6407	116.248018	0.000424	4.243098	1.437601	0.033878
 419	2.0900e-01	16.6840	116.542434	0.000737	7.374909	2.498687	0.058883
 420	2.0950e-01	16.7338	116.828784	0.000717	7.172857	2.430230	0.057270
 421	2.1000e-01	16.7739	117.143365	0.000788	7.880040	2.669830	0.062916
 422	2.1050e-01	16.8027	117.466013	0.000808	8.082092	2.738287	0.064530
 423	2.1100e-01	16.8525	117.671701	0.000515	5.152334	1.745658	0.041138
 424	2.1150e-01	16.8894	117.772529	0.000253	2.525654	0.855715	0.020165
 425	2.1200e-01	16.9279	118.191971	0.001051	10.506720	3.559773	0.083888
 426	2.1250e-01	16.9728	118.442023	0.000626	6.263621	2.122172	0.050010
 427	2.1300e-01	17.0065	118.679976	0.000596	5.960543	2.019487	0.047591
 428	2.1350e-01	17.0482	119.095385	0.001041	10.405694	3.525544	0.083082
 429	2.1400e-01	17.0947	119.405934	0.000778	7.779014	2.635601	0.062110
 430	2.1450e-01	17.1316	119.672118	0.000667	6.667726	2.259087	0.053237
 431	2.1500e-01	17.1717	119.946369	0.000687	6.869778	2.327544	0.054850
 432	2.1550e-01	17.2054	120.099627	0.000384	3.838994	1.300686	0.030652
 433	2.1600e-01	17.2455	120.385977	0.000717	7.172857	2.430230	0.057270
 434	2.1650e-01	17.2920	120.716691	0.000828	8.284144	2.806744	0.066143
 435	2.1700e-01	17.3305	120.986908	0.000677	6.768752	2.293315	0.054044
 436	2.1750e-01	17.3738	121.240994	0.000636	6.364648	2.156401	0.050817
 437	2.1800e-01	17.4139	121.402318	0.000404	4.041046	1.369143	0.032265
 438	2.1850e-01	17.4460	121.745131	0.000859	8.587223	2.909430	0.068563
 439	2.1900e-01	17.4942	121.950819	0.000515	5.152334	1.745658	0.041138
 440	2.1950e-01	17.5327	122.233136	0.000707	7.071831	2.396001	0.056463
 441	2.2000e-01	17.5631	122.571916	0.000849	8.486197	2.875201	0.067756
 442	2.2050e-01	17.6097	122.809869	0.000596	5.960543	2.019487	0.047591
 443	2.2100e-01	17.6498	123.076053	0.000667	6.667726	2.259087	0.053237
 444	2.2150e-01	17.6979	123.483396	0.001020	10.203641	3.457087	0.081469
 445	2.2200e-01	17.7300	123.729415	0.000616	6.162595	2.087944	0.049204
 446	2.2250e-01	17.7573	124.189189	0.001152	11.516981	3.902059	0.091955
 447	2.2300e-01	17.8118	124.241619	0.000131	1.313340	0.444972	0.010486
 448	2.2350e-01	17.8567	124.495704	0.000636	6.364648	2.156401	0.050817
 449	2.2400e-01	17.8872	124.673161	0.000445	4.445151	1.506058	0.035491
 450	2.2450e-01	17.9321	124.967577	0.000737	7.374909	2.498687	0.058883
 451	2.2500e-01	17.9722	125.524144	0.001394	13.941609	4.723545	0.111314
 452	2.2550e-01	18.0139	125.633038	0.000273	2.727706	0.924172	0.021779
 453	2.2600e-01	18.0524	125.689501	0.000141	1.414366	0.479200	0.011293
 454	2.2650e-01	18.0845	126.044414	0.000889	8.890301	3.012116	0.070983
 455	2.2700e-01	18.1214	126.250102	0.000515	5.152334	1.745658	0.041138
 456	2.2750e-01	18.1711	126.665511	0.001041	10.405694	3.525544	0.083082
 457	2.2800e-01	18.2080	126.701809	0.000091	0.909235	0.308057	0.007260
 458	2.2850e-01	18.2514	127.068821	0.000919	9.193380	3.114801	0.073402
 459	2.2900e-01	18.2899	127.375337	0.000768	7.677987	2.601373	0.061303
 460	2.2950e-01	18.3428	127.581025	0.000515	5.152334	1.745658	0.041138
 461	2.3000e-01	18.3733	127.790746	0.000525	5.253360	1.779886	0.041944
 462	2.3050e-01	18.4102	128.177923	0.000970	9.698510	3.285944	0.077435
 463	2.3100e-01	18.4423	128.682061	0.001263	12.628269	4.278573	0.100827
 464	2.3150e-01	18.4856	128.887749	0.000515	5.152334	1.745658	0.041138
 465	2.3200e-01	18.5385	129.182165	0.000737	7.374909	2.498687	0.058883
 466	2.3250e-01	18.5594	129.440283	0.000647	6.465674	2.190630	0.051624
 467	2.3300e-01	18.6059	129.512879	0.000182	1.818471	0.616115	0.014519
 468	2.3350e-01	18.6524	129.815361	0.000758	7.576961	2.567144	0.060496
 469	2.3400e-01	18.6861	130.121877	0.000768	7.677987	2.601373	0.061303
 470	2.3450e-01	18.7278	130.581650	0.001152	11.516981	3.902059	0.091955
 471	2.3500e-01	18.7647	130.747007	0.000414	4.142072	1.403372	0.033071
 472	2.3550e-01	18.8112	130.928496	0.000455	4.546177	1.540286	0.036298
 473	2.3600e-01	18.8497	131.049489	0.000303	3.030785	1.026858	0.024199
 474	2.3650e-01	18.8898	131.279376	0.000576	5.758491	1.951029	0.045977
 475	2.3700e-01	18.9364	131.714951	0.001091	10.910824	3.696687	0.087115
 476	2.3750e-01	18.9636	131.739149	0.000061	0.606157	0.205372	0.004840
 477	2.3800e-01	19.0198	132.013400	0.000687	6.869778	2.327544	0.054850
 478	2.3850e-01	19.0438	132.436875	0.001061	10.607746	3.594002	0.084695
 479	2.3900e-01	19.0920	132.739358	0.000758	7.576961	2.567144	0.060496
 480	2.3950e-01	19.1353	132.953112	0.000535	5.354386	1.814115	0.042751
 481	2.4000e-01	19.1786	132.928913	-0.000061	-0.606157	-0.205372	-0.004840
 482	2.4050e-01	19.2107	133.489514	0.001404	14.042635	4.757774	0.112120
 483	2.4100e-01	19.2540	133.691169	0.000505	5.051308	1.711429	0.040331
 484	2.4150e-01	19.2877	134.005751	0.000788	7.880040	2.669830	0.062916
 485	2.4200e-01	19.3294	134.219505	0.000535	5.354386	1.814115	0.042751
 486	2.4250e-01	19.3679	134.909165	0.001728	17.275472	5.853088	0.137932
 487	2.4300e-01	19.4112	134.816404	-0.000232	-2.323601	-0.787257	-0.018552
 488	2.4350e-01	19.4513	134.719609	-0.000242	-2.424628	-0.821486	-0.019359
 489	2.4400e-01	19.4834	135.227780	0.001273	12.729295	4.312802	0.101634
 490	2.4450e-01	19.5251	135.457666	0.000576	5.758491	1.951029	0.045977
 491	2.4500e-01	19.5732	135.731917	0.000687	6.869778	2.327544	0.054850
 492	2.4550e-01	19.6085	135.856943	0.000313	3.131811	1.061086	0.025005
 493	2.4600e-01	19.6567	136.199756	0.000859	8.587223	2.909430	0.068563
 494	2.4650e-01	19.6936	136.582901	0.000960	9.597484	3.251716	0.076629
 495	2.4700e-01	19.7321	136.764390	0.000455	4.546177	1.540286	0.036298
 496	2.4750e-01	19.7754	137.171733	0.001020	10.203641	3.457087	0.081469
 497	2.4800e-01	19.8107	137.405653	0.000586	5.859517	1.985258	0.046784
 498	2.4850e-01	19.8476	137.538745	0.000333	3.333863	1.129543	0.026618
 499	2.4900e-01	19.8909	137.748466	0.000525	5.253360	1.779886	0.041944
 500	2.4950e-01	19.9278	138.143710	0.000990	9.900563	3.354401	0.079049
 501	2.5000e-01	19.9727	138.369563	0.000566	5.657464	1.916801	0.045171
 502	2.5050e-01	19.9807	138.252604	-0.000293	-2.929758	-0.992629	-0.023392
 503	2.5100e-01	19.9599	138.131611	0.000303	3.030785	1.026858	-0.024199
 504	2.5150e-01	19.9133	137.950121	0.000455	4.546177	1.540286	-0.036298
 505	2.5200e-01	19.8813	138.010618	-0.000152	-1.515392	-0.513429	0.012099
 506	2.5250e-01	19.8331	137.821062	0.000475	4.748229	1.608744	-0.037911
 507	2.5300e-01	19.7946	137.486315	0.000839	8.385171	2.840973	-0.066949
 508	2.5350e-01	19.7561	137.458083	0.000071	0.707183	0.239600	-0.005646
 509	2.5400e-01	19.7128	137.252395	0.000515	5.152334	1.745658	-0.041138
 510	2.5450e-01	19.6807	137.107204	0.000364	3.636941	1.232229	-0.029038
 511	2.5500e-01	19.6374	136.764390	0.000859	8.587223	2.909430	-0.068563
 512	2.5550e-01	19.5973	136.421577	0.000859	8.587223	2.909430	-0.068563
 513	2.5600e-01	19.5508	136.332849	0.000222	2.222575	0.753029	-0.017746
 514	2.5650e-01	19.5267	136.175558	0.000394	3.940020	1.334915	-0.031458
 515	2.5700e-01	19.4754	135.925506	0.000626	6.263621	2.122172	-0.050010
 516	2.5750e-01	19.4385	135.804513	0.000303	3.030785	1.026858	-0.024199
 517	2.5800e-01	19.3984	135.381037	0.001061	10.607746	3.594002	-0.084695
 518	2.5850e-01	19.3551	135.018058	0.000909	9.092354	3.080573	-0.072596
 519	2.5900e-01	19.3134	134.788172	0.000576	5.758491	1.951029	-0.045977
 520	2.5950e-01	19.2845	134.852701	-0.000162	-1.616418	-0.547657	0.012906
 521	2.6000e-01	19.2364	134.763973	0.000222	2.222575	0.753029	-0.017746
 522	2.6050e-01	19.2059	134.360663	0.001010	10.102615	3.422859	-0.080662
 523	2.6100e-01	19.1529	134.263869	0.000242	2.424628	0.821486	-0.019359
 524	2.6150e-01	19.1209	134.017850	0.000616	6.162595	2.087944	-0.049204
 525	2.6200e-01	19.0823	133.775864	0.000606	6.061569	2.053715	-0.048397
 526	2.6250e-01	19.0374	133.453216	0.000808	8.082092	2.738287	-0.064530
 527	2.6300e-01	18.9989	133.384654	0.000172	1.717445	0.581886	-0.013713
 528	2.6350e-01	18.9604	133.239462	0.000364	3.636941	1.232229	-0.029038
 529	2.6400e-01	18.9219	132.856318	0.000960	9.597484	3.251716	-0.076629
 530	2.6450e-01	18.8802	132.803887	0.000131	1.313340	0.444972	-0.010486
 531	2.6500e-01	18.8337	132.582067	0.000556	5.556438	1.882572	-0.044364
 532	2.6550e-01	18.8000	132.114227	0.001172	11.719033	3.970516	-0.093568
 533	2.6600e-01	18.7519	131.868208	0.000616	6.162595	2.087944	-0.049204
 534	2.6650e-01	18.7182	131.718984	0.000374	3.737968	1.266458	-0.029845
 535	2.6700e-01	18.6733	131.686719	0.000081	0.808209	0.273829	-0.006453
 536	2.6750e-01	18.6380	131.448766	0.000596	5.960543	2.019487	-0.047591
 537	2.6800e-01	18.5866	131.174515	0.000687	6.869778	2.327544	-0.054850
 538	2.6850e-01	18.5594	130.690544	0.001212	12.123138	4.107430	-0.096794
 539	2.6900e-01	18.5161	130.626014	0.000162	1.616418	0.547657	-0.012906
 540	2.6950e-01	18.4759	130.384028	0.000606	6.061569	2.053715	-0.048397
 541	2.7000e-01	18.4407	130.194473	0.000475	4.748229	1.608744	-0.037911
 542	2.7050e-01	18.4022	130.085579	0.000273	2.727706	0.924172	-0.021779
 543	2.7100e-01	18.3637	129.597574	0.001222	12.224164	4.141659	-0.097601
 544	2.7150e-01	18.3252	129.460449	0.000343	3.434889	1.163772	-0.027425
 545	2.7200e-01	18.2802	129.145867	0.000788	7.880040	2.669830	-0.062916
 546	2.7250e-01	18.2353	129.311224	-0.000414	-4.142072	-1.403372	0.033071
 547	2.7300e-01	18.1936	128.863550	0.001121	11.213903	3.799373	-0.089535
 548	2.7350e-01	18.1487	128.419909	0.001111	11.112877	3.765145	-0.088728
 549	2.7400e-01	18.1214	128.323115	0.000242	2.424628	0.821486	-0.019359
 550	2.7450e-01	18.0749	128.069030	0.000636	6.364648	2.156401	-0.050817
 551	2.7500e-01	18.0460	127.944004	0.000313	3.131811	1.061086	-0.025005
 552	2.7550e-01	18.0011	127.649587	0.000737	7.374909	2.498687	-0.058883
 553	2.7600e-01	17.9546	127.480197	0.000424	4.243098	1.437601	-0.033878
 554	2.7650e-01	17.9241	127.306774	0.000434	4.344124	1.471829	-0.034685
 555	2.7700e-01	17.8872	126.867166	0.001101	11.011850	3.730916	-0.087922
 556	2.7750e-01	17.8343	126.673577	0.000485	4.849255	1.642972	-0.038718
 557	2.7800e-01	17.8022	126.375128	0.000748	7.475935	2.532915	-0.059690
 558	2.7850e-01	17.7589	126.145242	0.000576	5.758491	1.951029	-0.045977
 559	2.7900e-01	17.7139	125.983918	0.000404	4.041046	1.369143	-0.032265
 560	2.7950e-01	17.6786	125.673369	0.000778	7.779014	2.635601	-0.062110
 561	2.8000e-01	17.6337	125.536244	0.000343	3.434889	1.163772	-0.027425
 562	2.8050e-01	17.6000	125.399118	0.000343	3.434889	1.163772	-0.027425
 563	2.8100e-01	17.5519	125.157132	0.000606	6.061569	2.053715	-0.048397
 564	2.8150e-01	17.5214	124.907080	0.000626	6.263621	2.122172	-0.050010
 565	2.8200e-01	17.4701	124.612664	0.000737	7.374909	2.498687	-0.058883
 566	2.8250e-01	17.4428	124.499737	0.000283	2.828732	0.958400	-0.022585
 567	2.8300e-01	17.4043	124.088361	0.001030	10.304667	3.491316	-0.082275
 568	2.8350e-01	17.3626	123.733449	0.000889	8.890301	3.012116	-0.070983
 569	2.8400e-01	17.3209	123.406768	0.000818	8.183118	2.772516	-0.065336
 570	2.8450e-01	17.2760	123.354337	0.000131	1.313340	0.444972	-0.010486
 571	2.8500e-01	17.2230	123.184947	0.000424	4.243098	1.437601	-0.033878
 572	2.8550e-01	17.1958	122.886498	0.000748	7.475935	2.532915	-0.059690
 573	2.8600e-01	17.1605	122.592082	0.000737	7.374909	2.498687	-0.058883
 574	2.8650e-01	17.1188	122.454956	0.000343	3.434889	1.163772	-0.027425
 575	2.8700e-01	17.0835	122.192805	0.000657	6.566700	2.224858	-0.052430
 576	2.8750e-01	17.0418	122.059713	0.000333	3.333863	1.129543	-0.026618
 577	2.8800e-01	16.9968	121.833859	0.000566	5.657464	1.916801	-0.045171
 578	2.8850e-01	16.9616	121.289391	0.001364	13.638530	4.620859	-0.108894
 579	2.8900e-01	16.9102	120.994975	0.000737	7.374909	2.498687	-0.058883
 580	2.8950e-01	16.8717	121.003041	-0.000020	-0.202052	-0.068457	0.001613
 581	2.9000e-01	16.8428	120.688459	0.000788	7.880040	2.669830	-0.062916
 582	2.9050e-01	16.7995	120.381944	0.000768	7.677987	2.601373	-0.061303
 583	2.9100e-01	16.7610	120.139958	0.000606	6.061569	2.053715	-0.048397
 584	2.9150e-01	16.7145	119.922170	0.000546	5.455412	1.848344	-0.043557
 585	2.9200e-01	16.6712	119.821343	0.000253	2.525654	0.855715	-0.020165
 586	2.9250e-01	16.6391	119.470463	0.000879	8.789275	2.977887	-0.070176
 587	2.9300e-01	16.5926	119.107484	0.000909	9.092354	3.080573	-0.072596
 588	2.9350e-01	16.5557	118.974392	0.000333	3.333863	1.129543	-0.026618
 589	2.9400e-01	16.5060	118.865499	0.000273	2.727706	0.924172	-0.021779
 590	2.9450e-01	16.4851	118.530751	0.000839	8.385171	2.840973	-0.066949
 591	2.9500e-01	16.4370	118.240368	0.000727	7.273883	2.464458	-0.058077
 592	2.9550e-01	16.3937	118.042746	0.000495	4.950281	1.677201	-0.039524
 593	2.9600e-01	16.3535	117.595072	0.001121	11.213903	3.799373	-0.089535
 594	2.9650e-01	16.3150	117.385351	0.000525	5.253360	1.779886	-0.041944
 595	2.9700e-01	16.2701	117.324855	0.000152	1.515392	0.513429	-0.012099
 596	2.9750e-01	16.2300	117.086902	0.000596	5.960543	2.019487	-0.047591
 597	2.9800e-01	16.1979	116.756188	0.000828	8.284144	2.806744	-0.066143
 598	2.9850e-01	16.1530	116.562599	0.000485	4.849255	1.642972	-0.038718
 599	2.9900e-01	16.1225	116.304481	0.000647	6.465674	2.190630	-0.051624
 600	2.9950e-01	16.0632	115.989899	0.000788	7.880040	2.669830	-0.062916
 601	3.0000e-01	16.0439	115.828575	0.000404	4.041046	1.369143	-0.032265
 602	3.0050e-01	16.0022	115.574490	0.000636	6.364648	2.156401	-0.050817
 603	3.0100e-01	15.9509	115.332504	0.000606	6.061569	2.053715	-0.048397
 604	3.0150e-01	15.9220	115.017922	0.000788	7.880040	2.669830	-0.062916
 605	3.0200e-01	15.8755	114.860632	0.000394	3.940020	1.334915	-0.031458
 606	3.0250e-01	15.8402	114.630745	0.000576	5.758491	1.951029	-0.045977
 607	3.0300e-01	15.7840	114.215336	0.001041	10.405694	3.525544	-0.083082
 608	3.0350e-01	15.7584	113.937052	0.000697	6.970804	2.361772	-0.055657
 609	3.0400e-01	15.7167	113.703132	0.000586	5.859517	1.985258	-0.046784
 610	3.0450e-01	15.6766	113.485345	0.000546	5.455412	1.848344	-0.043557
 611	3.0500e-01	15.6445	113.376451	0.000273	2.727706	0.924172	-0.021779
 612	3.0550e-01	15.5915	113.045737	0.000828	8.284144	2.806744	-0.066143
 613	3.0600e-01	15.5675	112.856182	0.000475	4.748229	1.608744	-0.037911
 614	3.0650e-01	15.5226	112.460938	0.000990	9.900563	3.354401	-0.079049
 615	3.0700e-01	15.4760	112.384309	0.000192	1.919497	0.650343	-0.015326
 616	3.0750e-01	15.4359	111.952768	0.001081	10.809798	3.662459	-0.086308
 617	3.0800e-01	15.3958	111.549458	0.001010	10.102615	3.422859	-0.080662
 618	3.0850e-01	15.3509	111.480895	0.000172	1.717445	0.581886	-0.013713
 619	3.0900e-01	15.3108	111.339737	0.000354	3.535915	1.198001	-0.028232
 620	3.0950e-01	15.2787	111.210677	0.000323	3.232837	1.095315	-0.025812
 621	3.1000e-01	15.2386	110.710573	0.001253	12.527243	4.244345	-0.100021
 622	3.1050e-01	15.1905	110.387925	0.000808	8.082092	2.738287	-0.064530
 623	3.1100e-01	15.1536	110.242734	0.000364	3.636941	1.232229	-0.029038
 624	3.1150e-01	15.1167	109.952351	0.000727	7.273883	2.464458	-0.058077
 625	3.1200e-01	15.0734	109.625670	0.000818	8.183118	2.772516	-0.065336
 626	3.1250e-01	15.0317	109.286889	0.000849	8.486197	2.875201	-0.067756
 627	3.1300e-01	14.9883	109.145731	0.000354	3.535915	1.198001	-0.028232
 628	3.1350e-01	14.9595	108.851315	0.000737	7.374909	2.498687	-0.058883
 629	3.1400e-01	14.9210	108.581097	0.000677	6.768752	2.293315	-0.054044
 630	3.1450e-01	14.8761	108.435906	0.000364	3.636941	1.232229	-0.029038
 631	3.1500e-01	14.8424	108.072927	0.000909	9.092354	3.080573	-0.072596
 632	3.1550e-01	14.7942	107.891437	0.000455	4.546177	1.540286	-0.036298
 633	3.1600e-01	14.7477	107.810775	0.000202	2.020523	0.684572	-0.016132
 634	3.1650e-01	14.7140	107.621220	0.000475	4.748229	1.608744	-0.037911
 635	3.1700e-01	14.6803	107.173546	0.001121	11.213903	3.799373	-0.089535
 636	3.1750e-01	14.6466	106.750070	0.001061	10.607746	3.594002	-0.084695
 637	3.1800e-01	14.6033	106.766203	-0.000040	-0.404105	-0.136914	0.003226
 638	3.1850e-01	14.5568	106.229801	0.001344	13.436478	4.552402	-0.107280
 639	3.1900e-01	14.5135	106.141072	0.000222	2.222575	0.753029	-0.017746
 640	3.1950e-01	14.4734	105.721630	0.001051	10.506720	3.559773	-0.083888
 641	3.2000e-01	14.4445	105.447380	0.000687	6.869778	2.327544	-0.054850
 642	3.2050e-01	14.4060	105.354618	0.000232	2.323601	0.787257	-0.018552
 643	3.2100e-01	14.3595	105.064235	0.000727	7.273883	2.464458	-0.058077
 644	3.2150e-01	14.3178	104.789984	0.000687	6.869778	2.327544	-0.054850
 645	3.2200e-01	14.2761	104.507668	0.000707	7.071831	2.396001	-0.056463
 646	3.2250e-01	14.2408	104.225351	0.000707	7.071831	2.396001	-0.056463
 647	3.2300e-01	14.1959	103.963199	0.000657	6.566700	2.224858	-0.052430
 648	3.2350e-01	14.1541	103.757511	0.000515	5.152334	1.745658	-0.041138
 649	3.2400e-01	14.1172	103.765577	-0.000020	-0.202052	-0.068457	0.001613
 650	3.2450e-01	14.0820	103.547790	0.000546	5.455412	1.848344	-0.043557
 651	3.2500e-01	14.0386	103.075918	0.001182	11.820060	4.004745	-0.094375
 652	3.2550e-01	13.9953	102.688740	0.000970	9.698510	3.285944	-0.077435
 653	3.2600e-01	13.9568	102.293496	0.000990	9.900563	3.354401	-0.079049
 654	3.2650e-01	13.9151	102.277364	0.000040	0.404105	0.136914	-0.003226
 655	3.2700e-01	13.8718	102.003113	0.000687	6.869778	2.327544	-0.054850
 656	3.2750e-01	13.8461	101.680465	0.000808	8.082092	2.738287	-0.064530
 657	3.2800e-01	13.8012	101.422347	0.000647	6.465674	2.190630	-0.051624
 658	3.2850e-01	13.7483	101.115832	0.000768	7.677987	2.601373	-0.061303
 659	3.2900e-01	13.7178	100.950475	0.000414	4.142072	1.403372	-0.033071
 660	3.2950e-01	13.6809	100.680257	0.000677	6.768752	2.293315	-0.054044
 661	3.3000e-01	13.6344	100.256782	0.001061	10.607746	3.594002	-0.084695
 662	3.3050e-01	13.5911	100.026895	0.000576	5.758491	1.951029	-0.045977
 663	3.3100e-01	13.5574	99.978498	0.000121	1.212314	0.410743	-0.009679
 664	3.3150e-01	13.5173	99.490493	0.001222	12.224164	4.141659	-0.097601
 665	3.3200e-01	13.4804	99.183977	0.000768	7.677987	2.601373	-0.061303
 666	3.3250e-01	13.4419	99.087183	0.000242	2.424628	0.821486	-0.019359
 667	3.3300e-01	13.4018	98.776634	0.000778	7.779014	2.635601	-0.062110
 668	3.3350e-01	13.3552	98.518516	0.000647	6.465674	2.190630	-0.051624
 669	3.3400e-01	13.3103	98.163603	0.000889	8.890301	3.012116	-0.070983
 670	3.3450e-01	13.2734	97.889353	0.000687	6.869778	2.327544	-0.054850
 671	3.3500e-01	13.2429	97.752227	0.000343	3.434889	1.163772	-0.027425
 672	3.3550e-01	13.1916	97.482010	0.000677	6.768752	2.293315	-0.054044
 673	3.3600e-01	13.1563	97.147263	0.000839	8.385171	2.840973	-0.066949
 674	3.3650e-01	13.1098	96.901244	0.000616	6.162595	2.087944	-0.049204
 675	3.3700e-01	13.0729	96.735887	0.000414	4.142072	1.403372	-0.033071
 676	3.3750e-01	13.0440	96.239815	0.001243	12.426217	4.210116	-0.099214
 677	3.3800e-01	12.9991	96.054293	0.000465	4.647203	1.574515	-0.037105
 678	3.3850e-01	12.9526	95.905068	0.000374	3.737968	1.266458	-0.029845
 679	3.3900e-01	12.9141	95.279938	0.001566	15.659053	5.305431	-0.125026
 680	3.3950e-01	12.8708	95.150879	0.000323	3.232837	1.095315	-0.025812
 681	3.4000e-01	12.8355	95.029886	0.000303	3.030785	1.026858	-0.024199
 682	3.4050e-01	12.8018	94.828231	0.000505	5.051308	1.711429	-0.040331
 683	3.4100e-01	12.7520	94.437020	0.000980	9.799537	3.320173	-0.078242
 684	3.4150e-01	12.7248	94.324094	0.000283	2.828732	0.958400	-0.022585
 685	3.4200e-01	12.6847	94.025644	0.000748	7.475935	2.532915	-0.059690
 686	3.4250e-01	12.6478	93.719129	0.000768	7.677987	2.601373	-0.061303
 687	3.4300e-01	12.5868	93.497308	0.000556	5.556438	1.882572	-0.044364
 688	3.4350e-01	12.5563	93.073833	0.001061	10.607746	3.594002	-0.084695
 689	3.4400e-01	12.5194	92.964939	0.000273	2.727706	0.924172	-0.021779
 690	3.4450e-01	12.4825	92.783450	0.000455	4.546177	1.540286	-0.036298
 691	3.4500e-01	12.4360	92.480967	0.000758	7.576961	2.567144	-0.060496
 692	3.4550e-01	12.4039	92.065558	0.001041	10.405694	3.525544	-0.083082
 693	3.4600e-01	12.3590	92.005062	0.000152	1.515392	0.513429	-0.012099
 694	3.4650e-01	12.3173	91.650149	0.000889	8.890301	3.012116	-0.070983
 695	3.4700e-01	12.2756	91.351700	0.000748	7.475935	2.532915	-0.059690
 696	3.4750e-01	12.2339	91.101648	0.000626	6.263621	2.122172	-0.050010
 697	3.4800e-01	12.1970	90.948390	0.000384	3.838994	1.300686	-0.030652
 698	3.4850e-01	12.1617	90.407955	0.001354	13.537504	4.586631	-0.108087
 699	3.4900e-01	12.1248	89.855420	0.001384	13.840583	4.689316	-0.110507
 700	3.4950e-01	12.0751	89.661832	0.000485	4.849255	1.642972	-0.038718
 701	3.5000e-01	12.0414	89.488408	0.000434	4.344124	1.471829	-0.034685
 702	3.5050e-01	11.9932	89.516640	-0.000071	-0.707183	-0.239600	0.005646
 703	3.5100e-01	11.9483	89.044767	0.001182	11.820060	4.004745	-0.094375
 704	3.5150e-01	11.9259	88.718087	0.000818	8.183118	2.772516	-0.065336
 705	3.5200e-01	11.8858	88.435770	0.000707	7.071831	2.396001	-0.056463
 706	3.5250e-01	11.8344	88.177651	0.000647	6.465674	2.190630	-0.051624
 707	3.5300e-01	11.7959	87.992129	0.000465	4.647203	1.574515	-0.037105
 708	3.5350e-01	11.7590	87.653348	0.000849	8.486197	2.875201	-0.067756
 709	3.5400e-01	11.7173	87.354899	0.000748	7.475935	2.532915	-0.059690
 710	3.5450e-01	11.6804	87.048384	0.000768	7.677987	2.601373	-0.061303
 711	3.5500e-01	11.6323	86.842696	0.000515	5.152334	1.745658	-0.041138
 712	3.5550e-01	11.6018	86.459551	0.000960	9.597484	3.251716	-0.076629
 713	3.5600e-01	11.5585	86.108672	0.000879	8.789275	2.977887	-0.070176
 714	3.5650e-01	11.5168	86.193367	-0.000212	-2.121549	-0.718800	0.016939
 715	3.5700e-01	11.4703	85.741660	0.001131	11.314929	3.833602	-0.090341
 716	3.5750e-01	11.4462	85.366582	0.000940	9.395432	3.183259	-0.075016
 717	3.5800e-01	11.3917	85.277853	0.000222	2.222575	0.753029	-0.017746
 718	3.5850e-01	11.3644	84.951172	0.000818	8.183118	2.772516	-0.065336
 719	3.5900e-01	11.3163	84.729352	0.000556	5.556438	1.882572	-0.044364
 720	3.5950e-01	11.2729	84.249413	0.001202	12.022112	4.073202	-0.095988
 721	3.6000e-01	11.2377	83.959030	0.000727	7.273883	2.464458	-0.058077
 722	3.6050e-01	11.1943	83.797706	0.000404	4.041046	1.369143	-0.032265
 723	3.6100e-01	11.1623	83.503290	0.000737	7.374909	2.498687	-0.058883
 724	3.6150e-01	11.1125	83.168543	0.000839	8.385171	2.840973	-0.066949
 725	3.6200e-01	11.0836	82.886226	0.000707	7.071831	2.396001	-0.056463
 726	3.6250e-01	11.0339	82.777332	0.000273	2.727706	0.924172	-0.021779
 727	3.6300e-01	10.9906	82.329658	0.001121	11.213903	3.799373	-0.089535
 728	3.6350e-01	10.9585	82.244963	0.000212	2.121549	0.718800	-0.016939
 729	3.6400e-01	10.9200	81.785190	0.001152	11.516981	3.902059	-0.091955
 730	3.6450e-01	10.8687	81.462542	0.000808	8.082092	2.738287	-0.064530
 731	3.6500e-01	10.8446	81.228622	0.000586	5.859517	1.985258	-0.046784
 732	3.6550e-01	10.7997	81.063265	0.000414	4.142072	1.403372	-0.033071
 733	3.6600e-01	10.7564	80.833379	0.000576	5.758491	1.951029	-0.045977
 734	3.6650e-01	10.7243	80.401837	0.001081	10.809798	3.662459	-0.086308
 735	3.6700e-01	10.6794	80.159851	0.000606	6.061569	2.053715	-0.048397
 736	3.6750e-01	10.6329	80.200182	-0.000101	-1.010262	-0.342286	0.008066
 737	3.6800e-01	10.5960	79.788806	0.001030	10.304667	3.491316	-0.082275
 738	3.6850e-01	10.5591	79.304834	0.001212	12.123138	4.107430	-0.096794
 739	3.6900e-01	10.5174	78.970087	0.000839	8.385171	2.840973	-0.066949
 740	3.6950e-01	10.4708	78.562744	0.001020	10.203641	3.457087	-0.081469
 741	3.7000e-01	10.4307	78.445784	0.000293	2.929758	0.992629	-0.023392
 742	3.7050e-01	10.3970	78.409486	0.000091	0.909235	0.308057	-0.007260
 743	3.7100e-01	10.3505	77.965846	0.001111	11.112877	3.765145	-0.088728
 744	3.7150e-01	10.3248	77.614966	0.000879	8.789275	2.977887	-0.070176
 745	3.7200e-01	10.2815	77.135027	0.001202	12.022112	4.073202	-0.095988
 746	3.7250e-01	10.2366	76.856744	0.000697	6.970804	2.361772	-0.055657
 747	3.7300e-01	10.2029	76.792214	0.000162	1.616418	0.547657	-0.012906
 748	3.7350e-01	10.1516	76.562327	0.000576	5.758491	1.951029	-0.045977
 749	3.7400e-01	10.1227	76.308242	0.000636	6.364648	2.156401	-0.050817
 750	3.7450e-01	10.0762	75.840403	0.001172	11.719033	3.970516	-0.093568
 751	3.7500e-01	10.0409	75.461291	0.000950	9.496458	3.217487	-0.075822
 752	3.7550e-01	10.0072	75.118478	0.000859	8.587223	2.909430	-0.068563
 753	3.7600e-01	9.9543	75.094279	0.000061	0.606157	0.205372	-0.004840
 754	3.7650e-01	9.9110	74.840194	0.000636	6.364648	2.156401	-0.050817
 755	3.7700e-01	9.8692	74.295726	0.001364	13.638530	4.620859	-0.108894
 756	3.7750e-01	9.8388	74.215064	0.000202	2.020523	0.684572	-0.016132
 757	3.7800e-01	9.8003	74.017442	0.000495	4.950281	1.677201	-0.039524
 758	3.7850e-01	9.7585	73.610099	0.001020	10.203641	3.457087	-0.081469
 759	3.7900e-01	9.7072	73.299551	0.000778	7.779014	2.635601	-0.062110
 760	3.7950e-01	9.6751	72.980936	0.000798	7.981066	2.704058	-0.063723
 761	3.8000e-01	9.6350	72.706685	0.000687	6.869778	2.327544	-0.054850
 762	3.8050e-01	9.5933	72.420335	0.000717	7.172857	2.430230	-0.057270
 763	3.8100e-01	9.5580	72.129952	0.000727	7.273883	2.464458	-0.058077
 764	3.8150e-01	9.5147	71.803271	0.000818	8.183118	2.772516	-0.065336
 765	3.8200e-01	9.4778	71.791172	0.000030	0.303078	0.102686	-0.002420
 766	3.8250e-01	9.4393	71.065214	0.001818	18.184707	6.161146	-0.145192
 767	3.8300e-01	9.4008	70.960353	0.000263	2.626680	0.889943	-0.020972
 768	3.8350e-01	9.3575	70.569143	0.000980	9.799537	3.320173	-0.078242
 769	3.8400e-01	9.3238	70.190032	0.000950	9.496458	3.217487	-0.075822
 770	3.8450e-01	9.2741	70.121469	0.000172	1.717445	0.581886	-0.013713
 771	3.8500e-01	9.2340	69.887549	0.000586	5.859517	1.985258	-0.046784
 772	3.8550e-01	9.2051	69.552802	0.000839	8.385171	2.840973	-0.066949
 773	3.8600e-01	9.1489	69.318882	0.000586	5.859517	1.985258	-0.046784
 774	3.8650e-01	9.1088	69.149492	0.000424	4.243098	1.437601	-0.033878
 775	3.8700e-01	9.0832	68.826844	0.000808	8.082092	2.738287	-0.064530
 776	3.8750e-01	9.0415	68.443700	0.000960	9.597484	3.251716	-0.076629
 777	3.8800e-01	8.9981	68.048456	0.000990	9.900563	3.354401	-0.079049
 778	3.8850e-01	8.9532	67.758073	0.000727	7.273883	2.464458	-0.058077
 779	3.8900e-01	8.9227	67.451558	0.000768	7.677987	2.601373	-0.061303
 780	3.8950e-01	8.8778	67.141009	0.000778	7.779014	2.635601	-0.062110
 781	3.9000e-01	8.8345	66.923222	0.000546	5.455412	1.848344	-0.043557
 782	3.9050e-01	8.8008	66.507813	0.001041	10.405694	3.525544	-0.083082
 783	3.9100e-01	8.7511	66.378753	0.000323	3.232837	1.095315	-0.025812
 784	3.9150e-01	8.7174	66.177098	0.000505	5.051308	1.711429	-0.040331
 785	3.9200e-01	8.6853	65.765722	0.001030	10.304667	3.491316	-0.082275
 786	3.9250e-01	8.6484	65.422909	0.000859	8.587223	2.909430	-0.068563
 787	3.9300e-01	8.5971	65.059930	0.000909	9.092354	3.080573	-0.072596
 788	3.9350e-01	8.5586	64.874408	0.000465	4.647203	1.574515	-0.037105
 789	3.9400e-01	8.5169	64.539660	0.000839	8.385171	2.840973	-0.066949
 790	3.9450e-01	8.4864	64.120218	0.001051	10.506720	3.559773	-0.083888
 791	3.9500e-01	8.4302	63.874199	0.000616	6.162595	2.087944	-0.049204
 792	3.9550e-01	8.3998	63.745140	0.000323	3.232837	1.095315	-0.025812
 793	3.9600e-01	8.3564	63.426525	0.000798	7.981066	2.704058	-0.063723
 794	3.9650e-01	8.3163	63.309565	0.000293	2.929758	0.992629	-0.023392
 795	3.9700e-01	8.2762	62.813494	0.001243	12.426217	4.210116	-0.099214
 796	3.9750e-01	8.2425	62.579574	0.000586	5.859517	1.985258	-0.046784
 797	3.9800e-01	8.2040	62.228695	0.000879	8.789275	2.977887	-0.070176
 798	3.9850e-01	8.1607	61.950411	0.000697	6.970804	2.361772	-0.055657
 799	3.9900e-01	8.1222	61.672127	0.000697	6.970804	2.361772	-0.055657
 800	3.9950e-01	8.0773	61.232520	0.001101	11.011850	3.730916	-0.087922
 801	4.0000e-01	8.0372	60.853408	0.000950	9.496458	3.217487	-0.075822
 802	4.0050e-01	7.9923	60.712250	0.000354	3.535915	1.198001	-0.028232
 803	4.0100e-01	7.9650	60.284741	0.001071	10.708772	3.628230	-0.085502
 804	4.0150e-01	7.9185	59.921762	0.000909	9.092354	3.080573	-0.072596
 805	4.0200e-01	7.8752	59.901597	0.000051	0.505131	0.171143	-0.004033
 806	4.0250e-01	7.8367	59.792703	0.000273	2.727706	0.924172	-0.021779
 807	4.0300e-01	7.8014	59.328897	0.001162	11.618007	3.936287	-0.092761
 808	4.0350e-01	7.7565	58.921554	0.001020	10.203641	3.457087	-0.081469
 809	4.0400e-01	7.7196	58.792495	0.000323	3.232837	1.095315	-0.025812
 810	4.0450e-01	7.6746	58.256093	0.001344	13.436478	4.552402	-0.107280
 811	4.0500e-01	7.6394	57.957643	0.000748	7.475935	2.532915	-0.059690
 812	4.0550e-01	7.6025	57.622896	0.000839	8.385171	2.840973	-0.066949
 813	4.0600e-01	7.5624	57.473672	0.000374	3.737968	1.266458	-0.029845
 814	4.0650e-01	7.5190	57.372844	0.000253	2.525654	0.855715	-0.020165
 815	4.0700e-01	7.4725	56.675118	0.001748	17.477524	5.921545	-0.139545
 816	4.0750e-01	7.4436	56.453298	0.000556	5.556438	1.882572	-0.044364
 817	4.0800e-01	7.4051	56.199212	0.000636	6.364648	2.156401	-0.050817
 818	4.0850e-01	7.3538	55.904796	0.000737	7.374909	2.498687	-0.058883
 819	4.0900e-01	7.3153	55.775737	0.000323	3.232837	1.095315	-0.025812
 820	4.0950e-01	7.2784	55.384527	0.000980	9.799537	3.320173	-0.078242
 821	4.1000e-01	7.2383	54.977184	0.001020	10.203641	3.457087	-0.081469
 822	4.1050e-01	7.1934	54.836025	0.000354	3.535915	1.198001	-0.028232
 823	4.1100e-01	7.1613	54.513377	0.000808	8.082092	2.738287	-0.064530
 824	4.1150e-01	7.1180	54.150398	0.000909	9.092354	3.080573	-0.072596
 825	4.1200e-01	7.0763	53.759188	0.000980	9.799537	3.320173	-0.078242
 826	4.1250e-01	7.0378	53.408308	0.000879	8.789275	2.977887	-0.070176
 827	4.1300e-01	6.9912	53.246984	0.000404	4.041046	1.369143	-0.032265
 828	4.1350e-01	6.9592	52.742847	0.001263	12.628269	4.278573	-0.100827
 829	4.1400e-01	6.9175	52.617821	0.000313	3.131811	1.061086	-0.025005
 830	4.1450e-01	6.8790	52.363736	0.000636	6.364648	2.156401	-0.050817
 831	4.1500e-01	6.8292	52.214511	0.000374	3.737968	1.266458	-0.029845
 832	4.1550e-01	6.7955	51.722473	0.001233	12.325190	4.175888	-0.098408
 833	4.1600e-01	6.7570	51.286898	0.001091	10.910824	3.696687	-0.087115
 834	4.1650e-01	6.7105	51.101376	0.000465	4.647203	1.574515	-0.037105
 835	4.1700e-01	6.6864	50.770662	0.000828	8.284144	2.806744	-0.066143
 836	4.1750e-01	6.6367	50.431881	0.000849	8.486197	2.875201	-0.067756
 837	4.1800e-01	6.6030	50.230227	0.000505	5.051308	1.711429	-0.040331
 838	4.1850e-01	6.5597	49.705924	0.001313	13.133400	4.449716	-0.104861
 839	4.1900e-01	6.5196	49.439739	0.000667	6.667726	2.259087	-0.053237
 840	4.1950e-01	6.4779	48.992065	0.001121	11.213903	3.799373	-0.089535
 841	4.2000e-01	6.4410	48.988032	0.000010	0.101026	0.034229	-0.000807
 842	4.2050e-01	6.3977	48.629086	0.000899	8.991327	3.046344	-0.071789
 843	4.2100e-01	6.3576	48.366935	0.000657	6.566700	2.224858	-0.052430
 844	4.2150e-01	6.3143	48.068486	0.000748	7.475935	2.532915	-0.059690
 845	4.2200e-01	6.2806	47.818434	0.000626	6.263621	2.122172	-0.050010
 846	4.2250e-01	6.2405	47.423190	0.000990	9.900563	3.354401	-0.079049
 847	4.2300e-01	6.1988	47.060211	0.000909	9.092354	3.080573	-0.072596
 848	4.2350e-01	6.1554	46.838391	0.000556	5.556438	1.882572	-0.044364
 849	4.2400e-01	6.1266	46.418948	0.001051	10.506720	3.559773	-0.083888
 850	4.2450e-01	6.0672	46.180996	0.000596	5.960543	2.019487	-0.047591
 851	4.2500e-01	6.0255	45.890612	0.000727	7.273883	2.464458	-0.058077
 852	4.2550e-01	6.0014	45.709123	0.000455	4.546177	1.540286	-0.036298
 853	4.2600e-01	5.9581	45.422773	0.000717	7.172857	2.430230	-0.057270
 854	4.2650e-01	5.9228	44.967033	0.001142	11.415955	3.867830	-0.091148
 855	4.2700e-01	5.8811	44.600021	0.000919	9.193380	3.114801	-0.073402
 856	4.2750e-01	5.8442	44.406432	0.000485	4.849255	1.642972	-0.038718
 857	4.2800e-01	5.7993	44.067652	0.000849	8.486197	2.875201	-0.067756
 858	4.2850e-01	5.7544	43.894229	0.000434	4.344124	1.471829	-0.034685
 859	4.2900e-01	5.7111	43.466720	0.001071	10.708772	3.628230	-0.085502
 860	4.2950e-01	5.6822	43.127940	0.000849	8.486197	2.875201	-0.067756
 861	4.3000e-01	5.6325	42.720597	0.001020	10.203641	3.457087	-0.081469
 862	4.3050e-01	5.6004	42.567339	0.000384	3.838994	1.300686	-0.030652
 863	4.3100e-01	5.5539	42.208393	0.000899	8.991327	3.046344	-0.071789
 864	4.3150e-01	5.5186	41.732488	0.001192	11.921086	4.038973	-0.095181
 865	4.3200e-01	5.4801	41.635693	0.000242	2.424628	0.821486	-0.019359
 866	4.3250e-01	5.4271	41.337244	0.000748	7.475935	2.532915	-0.059690
 867	4.3300e-01	5.4127	40.958133	0.000950	9.496458	3.217487	-0.075822
 868	4.3350e-01	5.3678	40.478194	0.001202	12.022112	4.073202	-0.095988
 869	4.3400e-01	5.3116	40.349135	0.000323	3.232837	1.095315	-0.025812
 870	4.3450e-01	5.2779	40.070851	0.000697	6.970804	2.361772	-0.055657
 871	4.3500e-01	5.2378	39.715938	0.000889	8.890301	3.012116	-0.070983
 872	4.3550e-01	5.1897	39.385224	0.000828	8.284144	2.806744	-0.066143
 873	4.3600e-01	5.1512	39.070643	0.000788	7.880040	2.669830	-0.062916
 874	4.3650e-01	5.1271	38.675399	0.000990	9.900563	3.354401	-0.079049
 875	4.3700e-01	5.0758	38.300321	0.000940	9.395432	3.183259	-0.075016
 876	4.3750e-01	5.0373	38.018004	0.000707	7.071831	2.396001	-0.056463
 877	4.3800e-01	4.9924	37.755853	0.000657	6.566700	2.224858	-0.052430
 878	4.3850e-01	4.9523	37.751819	0.000010	0.101026	0.034229	-0.000807
 879	4.3900e-01	4.9138	37.283980	0.001172	11.719033	3.970516	-0.093568
 880	4.3950e-01	4.8769	36.824207	0.001152	11.516981	3.902059	-0.091955
 881	4.4000e-01	4.8287	36.598353	0.000566	5.657464	1.916801	-0.045171
 882	4.4050e-01	4.7983	36.182944	0.001041	10.405694	3.525544	-0.083082
 883	4.4100e-01	4.7533	35.872396	0.000778	7.779014	2.635601	-0.062110
 884	4.4150e-01	4.7164	35.569913	0.000758	7.576961	2.567144	-0.060496
 885	4.4200e-01	4.6763	35.142405	0.001071	10.708772	3.628230	-0.085502
 886	4.4250e-01	4.6475	35.033511	0.000273	2.727706	0.924172	-0.021779
 887	4.4300e-01	4.6009	34.735062	0.000748	7.475935	2.532915	-0.059690
 888	4.4350e-01	4.5721	34.295454	0.001101	11.011850	3.730916	-0.087922
 889	4.4400e-01	4.5063	34.049435	0.000616	6.162595	2.087944	-0.049204
 890	4.4450e-01	4.4774	33.944574	0.000263	2.626680	0.889943	-0.020972
 891	4.4500e-01	4.4389	33.420272	0.001313	13.133400	4.449716	-0.104861
 892	4.4550e-01	4.3940	33.166186	0.000636	6.364648	2.156401	-0.050817
 893	4.4600e-01	4.3587	33.045193	0.000303	3.030785	1.026858	-0.024199
 894	4.4650e-01	4.3234	32.658016	0.000970	9.698510	3.285944	-0.077435
 895	4.4700e-01	4.2769	32.161945	0.001243	12.426217	4.210116	-0.099214
 896	4.4750e-01	4.2320	31.952224	0.000525	5.253360	1.779886	-0.041944
 897	4.4800e-01	4.2063	31.597311	0.000889	8.890301	3.012116	-0.070983
 898	4.4850e-01	4.1646	31.383557	0.000535	5.354386	1.814115	-0.042751
 899	4.4900e-01	4.1213	31.137538	0.000616	6.162595	2.087944	-0.049204
 900	4.4950e-01	4.0731	30.669698	0.001172	11.719033	3.970516	-0.093568
 901	4.5000e-01	4.0362	30.363183	0.000768	7.677987	2.601373	-0.061303
 902	4.5050e-01	4.0010	29.834847	0.001323	13.234426	4.483945	-0.105667
 903	4.5100e-01	3.9560	29.621093	0.000535	5.354386	1.814115	-0.042751
 904	4.5150e-01	3.9159	29.479934	0.000354	3.535915	1.198001	-0.028232
 905	4.5200e-01	3.8758	29.185518	0.000737	7.374909	2.498687	-0.058883
 906	4.5250e-01	3.8389	28.794307	0.000980	9.799537	3.320173	-0.078242
 907	4.5300e-01	3.7972	28.390998	0.001010	10.102615	3.422859	-0.080662
 908	4.5350e-01	3.7603	27.951390	0.001101	11.011850	3.730916	-0.087922
 909	4.5400e-01	3.7122	27.693272	0.000647	6.465674	2.190630	-0.051624
 910	4.5450e-01	3.6865	27.535981	0.000394	3.940020	1.334915	-0.031458
 911	4.5500e-01	3.6304	27.221399	0.000788	7.880040	2.669830	-0.062916
 912	4.5550e-01	3.5951	26.826155	0.000990	9.900563	3.354401	-0.079049
 913	4.5600e-01	3.5646	26.241356	0.001465	14.648792	4.963145	-0.116960
 914	4.5650e-01	3.5133	26.104231	0.000343	3.434889	1.163772	-0.027425
 915	4.5700e-01	3.4796	25.797715	0.000768	7.677987	2.601373	-0.061303
 916	4.5750e-01	3.4443	25.491200	0.000768	7.677987	2.601373	-0.061303
 917	4.5800e-01	3.3994	25.148386	0.000859	8.587223	2.909430	-0.068563
 918	4.5850e-01	3.3657	24.753143	0.000990	9.900563	3.354401	-0.079049
 919	4.5900e-01	3.3192	24.700712	0.000131	1.313340	0.444972	-0.010486
 920	4.5950e-01	3.2807	24.446627	0.000636	6.364648	2.156401	-0.050817
 921	4.6000e-01	3.2422	23.793265	0.001637	16.366236	5.545031	-0.130672
 922	4.6050e-01	3.1956	23.595643	0.000495	4.950281	1.677201	-0.039524
 923	4.6100e-01	3.1459	23.559345	0.000091	0.909235	0.308057	-0.007260
 924	4.6150e-01	3.1170	23.204433	0.000889	8.890301	3.012116	-0.070983
 925	4.6200e-01	3.0769	22.801123	0.001010	10.102615	3.422859	-0.080662
 926	4.6250e-01	3.0336	22.534938	0.000667	6.667726	2.259087	-0.053237
 927	4.6300e-01	2.9967	22.212291	0.000808	8.082092	2.738287	-0.064530
 928	4.6350e-01	2.9486	22.063066	0.000374	3.737968	1.266458	-0.029845
 929	4.6400e-01	2.9261	21.526664	0.001344	13.436478	4.552402	-0.107280
 930	4.6450e-01	2.8876	21.054791	0.001182	11.820060	4.004745	-0.094375
 931	4.6500e-01	2.8443	20.651481	0.001010	10.102615	3.422859	-0.080662
 932	4.6550e-01	2.7962	20.292536	0.000899	8.991327	3.046344	-0.071789
 933	4.6600e-01	2.7609	20.066682	0.000566	5.657464	1.916801	-0.045171
 934	4.6650e-01	2.7192	19.973921	0.000232	2.323601	0.787257	-0.018552
 935	4.6700e-01	2.6759	19.667405	0.000768	7.677987	2.601373	-0.061303
 936	4.6750e-01	2.6454	19.219731	0.001121	11.213903	3.799373	-0.089535
 937	4.6800e-01	2.6021	18.901117	0.000798	7.981066	2.704058	-0.063723
 938	4.6850e-01	2.5604	18.546204	0.000889	8.890301	3.012116	-0.070983
 939	4.6900e-01	2.5170	18.227589	0.000798	7.981066	2.704058	-0.063723
 940	4.6950e-01	2.4785	18.005769	0.000556	5.556438	1.882572	-0.044364
 941	4.7000e-01	2.4384	17.699253	0.000768	7.677987	2.601373	-0.061303
 942	4.7050e-01	2.3919	17.138653	0.001404	14.042635	4.757774	-0.112120
 943	4.7100e-01	2.3534	17.045891	0.000232	2.323601	0.787257	-0.018552
 944	4.7150e-01	2.3181	16.674846	0.000929	9.294406	3.149030	-0.074209
 945	4.7200e-01	2.2716	16.267503	0.001020	10.203641	3.457087	-0.081469
 946	4.7250e-01	2.2363	16.061815	0.000515	5.152334	1.745658	-0.041138
 947	4.7300e-01	2.2122	15.795631	0.000667	6.667726	2.259087	-0.053237
 948	4.7350e-01	2.1577	15.468950	0.000818	8.183118	2.772516	-0.065336
 949	4.7400e-01	2.1144	15.126136	0.000859	8.587223	2.909430	-0.068563
 950	4.7450e-01	2.0727	14.686529	0.001101	11.011850	3.730916	-0.087922
 951	4.7500e-01	2.0342	14.569569	0.000293	2.929758	0.992629	-0.023392
 952	4.7550e-01	2.0149	14.029133	0.001354	13.537504	4.586631	-0.108087
 953	4.7600e-01	1.9588	13.811346	0.000546	5.455412	1.848344	-0.043557
 954	4.7650e-01	1.9122	13.468533	0.000859	8.587223	2.909430	-0.068563
 955	4.7700e-01	1.8689	13.182183	0.000717	7.172857	2.430230	-0.057270
 956	4.7750e-01	1.8401	12.766774	0.001041	10.405694	3.525544	-0.083082
 957	4.7800e-01	1.7999	12.613516	0.000384	3.838994	1.300686	-0.030652
 958	4.7850e-01	1.7598	12.177941	0.001091	10.910824	3.696687	-0.087115
 959	4.7900e-01	1.7181	11.790764	0.000970	9.698510	3.285944	-0.077435
 960	4.7950e-01	1.6796	11.641539	0.000374	3.737968	1.266458	-0.029845
 961	4.8000e-01	1.6395	11.084972	0.001394	13.941609	4.723545	-0.111314
 962	4.8050e-01	1.5978	10.778456	0.000768	7.677987	2.601373	-0.061303
 963	4.8100e-01	1.5577	10.560669	0.000546	5.455412	1.848344	-0.043557
 964	4.8150e-01	1.5176	10.290451	0.000677	6.768752	2.293315	-0.054044
 965	4.8200e-01	1.4775	10.040399	0.000626	6.263621	2.122172	-0.050010
 966	4.8250e-01	1.4374	9.665321	0.000940	9.395432	3.183259	-0.075016
 967	4.8300e-01	1.4005	9.072455	0.001485	14.850844	5.031602	-0.118573
 968	4.8350e-01	1.3572	8.818370	0.000636	6.364648	2.156401	-0.050817
 969	4.8400e-01	1.3203	8.507822	0.000778	7.779014	2.635601	-0.062110
 970	4.8450e-01	1.2818	8.350531	0.000394	3.940020	1.334915	-0.031458
 971	4.8500e-01	1.2369	8.165008	0.000465	4.647203	1.574515	-0.037105
 972	4.8550e-01	1.1952	7.830261	0.000839	8.385171	2.840973	-0.066949
 973	4.8600e-01	1.1647	7.285793	0.001364	13.638530	4.620859	-0.108894
 974	4.8650e-01	1.1165	6.821986	0.001162	11.618007	3.936287	-0.092761
 975	4.8700e-01	1.0764	6.745357	0.000192	1.919497	0.650343	-0.015326
 976	4.8750e-01	1.0331	6.398511	0.000869	8.688249	2.943658	-0.069369
 977	4.8800e-01	0.9962	6.140393	0.000647	6.465674	2.190630	-0.051624
 978	4.8850e-01	0.9625	5.954870	0.000465	4.647203	1.574515	-0.037105
 979	4.8900e-01	0.9208	5.491064	0.001162	11.618007	3.936287	-0.092761
 980	4.8950e-01	0.8871	5.148250	0.000859	8.587223	2.909430	-0.068563
 981	4.9000e-01	0.8278	4.777205	0.000929	9.294406	3.149030	-0.074209
 982	4.9050e-01	0.7989	4.656212	0.000303	3.030785	1.026858	-0.024199
 983	4.9100e-01	0.7524	4.345664	0.000778	7.779014	2.635601	-0.062110
 984	4.9150e-01	0.7235	3.902023	0.001111	11.112877	3.765145	-0.088728
 985	4.9200e-01	0.6802	3.643905	0.000647	6.465674	2.190630	-0.051624
 986	4.9250e-01	0.6385	3.232529	0.001030	10.304667	3.491316	-0.082275
 987	4.9300e-01	0.6016	2.958278	0.000687	6.869778	2.327544	-0.054850
 988	4.9350e-01	0.5631	2.700160	0.000647	6.465674	2.190630	-0.051624
 989	4.9400e-01	0.5214	2.296850	0.001010	10.102615	3.422859	-0.080662
 990	4.9450e-01	0.4845	1.925805	0.000929	9.294406	3.149030	-0.074209
 991	4.9500e-01	0.4428	1.659620	0.000667	6.667726	2.259087	-0.053237
 992	4.9550e-01	0.3946	1.215979	0.001111	11.112877	3.765145	-0.088728
 993	4.9600e-01	0.3626	1.038523	0.000445	4.445151	1.506058	-0.035491
 994	4.9650e-01	0.3176	0.715875	0.000808	8.082092	2.738287	-0.064530
 995	4.9700e-01	0.2743	0.469856	0.000616	6.162595	2.087944	-0.049204
 996	4.9750e-01	0.2390	0.171407	0.000748	7.475935	2.532915	-0.059690
 997	4.9800e-01	0.2021	-0.183506	0.000889	8.890301	3.012116	-0.070983
 998	4.9850e-01	0.1572	-0.590849	0.001020	10.203641	3.457087	-0.081469
 999	4.9900e-01	0.1155	-0.840901	0.000626	6.263621	2.122172	-0.050010
1000	4.9950e-01	0.0834	-1.389402	0.001374	13.739557	4.655088	-0.109700
1001	5.0000e-01	0.0385	-1.780613	0.000980	9.799537	3.320173	-0.078242
1002	5.0050e-01	0.0064	-1.986301	0.000515	5.152334	1.745658	-0.041138
1003	5.0100e-01	-0.0337	-2.163757	0.000445	4.445151	1.506058	-0.035491
1004	5.0150e-01	-0.0770	-2.288783	0.000313	3.131811	1.061086	-0.025005
1005	5.0200e-01	-0.1123	-2.655795	0.000919	9.193380	3.114801	-0.073402
1006	5.0250e-01	-0.1508	-3.180098	0.001313	13.133400	4.449716	-0.104861
1007	5.0300e-01	-0.1957	-3.583408	0.001010	10.102615	3.422859	-0.080662
1008	5.0350e-01	-0.2406	-3.732633	0.000374	3.737968	1.266458	-0.029845
1009	5.0400e-01	-0.2775	-3.982685	0.000626	6.263621	2.122172	-0.050010
1010	5.0450e-01	-0.3225	-4.200472	0.000546	5.455412	1.848344	-0.043557
1011	5.0500e-01	-0.3545	-4.821569	0.001556	15.558027	5.271202	-0.124219
1012	5.0550e-01	-0.4011	-4.934496	0.000283	2.828732	0.958400	-0.022585
1013	5.0600e-01	-0.4347	-5.329740	0.000990	9.900563	3.354401	-0.079049
1014	5.0650e-01	-0.4700	-5.652388	0.000808	8.082092	2.738287	-0.064530
1015	5.0700e-01	-0.5214	-5.841943	0.000475	4.748229	1.608744	-0.037911
1016	5.0750e-01	-0.5519	-5.983102	0.000354	3.535915	1.198001	-0.028232
1017	5.0800e-01	-0.6016	-6.378345	0.000990	9.900563	3.354401	-0.079049
1018	5.0850e-01	-0.6321	-6.858284	0.001202	12.022112	4.073202	-0.095988
1019	5.0900e-01	-0.6786	-7.120436	0.000657	6.566700	2.224858	-0.052430
1020	5.0950e-01	-0.7155	-7.515679	0.000990	9.900563	3.354401	-0.079049
1021	5.1000e-01	-0.7588	-7.701202	0.000465	4.647203	1.574515	-0.037105
1022	5.1050e-01	-0.7941	-8.217438	0.001293	12.931347	4.381259	-0.103247
1023	5.1100e-01	-0.8454	-8.419093	0.000505	5.051308	1.711429	-0.040331
1024	5.1150e-01	-0.8695	-8.842569	0.001061	10.607746	3.594002	-0.084695
1025	5.1200e-01	-0.9048	-9.189415	0.000869	8.688249	2.943658	-0.069369
1026	5.1250e-01	-0.9545	-9.463666	0.000687	6.869778	2.327544	-0.054850
1027	5.1300e-01	-1.0026	-9.758082	0.000737	7.374909	2.498687	-0.058883
1028	5.1350e-01	-1.0331	-10.193657	0.001091	10.910824	3.696687	-0.087115
1029	5.1400e-01	-1.0796	-10.391279	0.000495	4.950281	1.677201	-0.039524
1030	5.1450e-01	-1.1165	-10.697794	0.000768	7.677987	2.601373	-0.061303
1031	5.1500e-01	-1.1583	-11.044641	0.000869	8.688249	2.943658	-0.069369
1032	5.1550e-01	-1.1903	-11.286626	0.000606	6.061569	2.053715	-0.048397
1033	5.1600e-01	-1.2304	-11.669771	0.000960	9.597484	3.251716	-0.076629
1034	5.1650e-01	-1.2818	-12.004518	0.000839	8.385171	2.840973	-0.066949
1035	5.1700e-01	-1.3123	-12.230372	0.000566	5.657464	1.916801	-0.045171
1036	5.1750e-01	-1.3556	-12.686112	0.001142	11.415955	3.867830	-0.091148
1037	5.1800e-01	-1.3989	-12.932131	0.000616	6.162595	2.087944	-0.049204
1038	5.1850e-01	-1.4438	-13.266878	0.000839	8.385171	2.840973	-0.066949
1039	5.1900e-01	-1.4759	-13.573393	0.000768	7.677987	2.601373	-0.061303
1040	5.1950e-01	-1.5192	-13.928306	0.000889	8.890301	3.012116	-0.070983
1041	5.2000e-01	-1.5577	-14.186424	0.000647	6.465674	2.190630	-0.051624
1042	5.2050e-01	-1.5994	-14.581668	0.000990	9.900563	3.354401	-0.079049
1043	5.2100e-01	-1.6363	-14.839786	0.000647	6.465674	2.190630	-0.051624
1044	5.2150e-01	-1.6877	-15.202765	0.000909	9.092354	3.080573	-0.072596
1045	5.2200e-01	-1.7197	-15.448784	0.000616	6.162595	2.087944	-0.049204
1046	5.2250e-01	-1.7566	-15.581876	0.000333	3.333863	1.129543	-0.026618
1047	5.2300e-01	-1.7967	-15.940822	0.000899	8.991327	3.046344	-0.071789
1048	5.2350e-01	-1.8288	-16.444960	0.001263	12.628269	4.278573	-0.100827
1049	5.2400e-01	-1.8834	-16.840203	0.000990	9.900563	3.354401	-0.079049
1050	5.2450e-01	-1.9138	-16.888600	0.000121	1.212314	0.410743	-0.009679
1051	5.2500e-01	-1.9588	-17.187050	0.000748	7.475935	2.532915	-0.059690
1052	5.2550e-01	-1.9892	-17.590360	0.001010	10.102615	3.422859	-0.080662
1053	5.2600e-01	-2.0294	-17.876710	0.000717	7.172857	2.430230	-0.057270
1054	5.2650e-01	-2.0775	-18.348582	0.001182	11.820060	4.004745	-0.094375
1055	5.2700e-01	-2.1160	-18.659131	0.000778	7.779014	2.635601	-0.062110
1056	5.2750e-01	-2.1577	-18.828521	0.000424	4.243098	1.437601	-0.033878
1057	5.2800e-01	-2.2026	-19.110838	0.000707	7.071831	2.396001	-0.056463
1058	5.2850e-01	-2.2283	-19.368956	0.000647	6.465674	2.190630	-0.051624
1059	5.2900e-01	-2.2812	-19.707736	0.000849	8.486197	2.875201	-0.067756
1060	5.2950e-01	-2.3181	-20.078781	0.000929	9.294406	3.149030	-0.074209
1061	5.3000e-01	-2.3582	-20.413529	0.000839	8.385171	2.840973	-0.066949
1062	5.3050e-01	-2.3999	-20.728110	0.000788	7.880040	2.669830	-0.062916
1063	5.3100e-01	-2.4352	-21.046725	0.000798	7.981066	2.704058	-0.063723
1064	5.3150e-01	-2.4737	-21.300810	0.000636	6.364648	2.156401	-0.050817
1065	5.3200e-01	-2.5251	-21.704120	0.001010	10.102615	3.422859	-0.080662
1066	5.3250e-01	-2.5507	-22.075165	0.000929	9.294406	3.149030	-0.074209
1067	5.3300e-01	-2.5892	-22.413945	0.000849	8.486197	2.875201	-0.067756
1068	5.3350e-01	-2.6309	-22.571236	0.000394	3.940020	1.334915	-0.031458
1069	5.3400e-01	-2.6727	-23.067307	0.001243	12.426217	4.210116	-0.099214
1070	5.3450e-01	-2.7144	-23.571445	0.001263	12.628269	4.278573	-0.100827
1071	5.3500e-01	-2.7561	-23.748901	0.000445	4.445151	1.506058	-0.035491
1072	5.3550e-01	-2.7962	-23.809398	0.000152	1.515392	0.513429	-0.012099
1073	5.3600e-01	-2.8347	-24.087681	0.000697	6.970804	2.361772	-0.055657
1074	5.3650e-01	-2.8796	-24.418395	0.000828	8.284144	2.806744	-0.066143
1075	5.3700e-01	-2.9213	-24.579719	0.000404	4.041046	1.369143	-0.032265
1076	5.3750e-01	-2.9630	-24.995129	0.001041	10.405694	3.525544	-0.083082
1077	5.3800e-01	-3.0047	-25.354074	0.000899	8.991327	3.046344	-0.071789
1078	5.3850e-01	-3.0336	-25.608160	0.000636	6.364648	2.156401	-0.050817
1079	5.3900e-01	-3.0753	-26.257488	0.001627	16.265210	5.510802	-0.129866
1080	5.3950e-01	-3.1138	-26.430912	0.000434	4.344124	1.471829	-0.034685
1081	5.4000e-01	-3.1603	-26.753560	0.000808	8.082092	2.738287	-0.064530
1082	5.4050e-01	-3.1908	-27.116538	0.000909	9.092354	3.080573	-0.072596
1083	5.4100e-01	-3.2373	-27.084274	-0.000081	-0.808209	-0.273829	0.006453
1084	5.4150e-01	-3.2791	-27.507749	0.001061	10.607746	3.594002	-0.084695
1085	5.4200e-01	-3.3111	-27.919125	0.001030	10.304667	3.491316	-0.082275
1086	5.4250e-01	-3.3577	-28.173210	0.000636	6.364648	2.156401	-0.050817
1087	5.4300e-01	-3.3962	-28.520057	0.000869	8.688249	2.943658	-0.069369
1088	5.4350e-01	-3.4475	-28.995962	0.001192	11.921086	4.038973	-0.095181
1089	5.4400e-01	-3.4764	-29.165353	0.000424	4.243098	1.437601	-0.033878
1090	5.4450e-01	-3.5149	-29.407338	0.000606	6.061569	2.053715	-0.048397
1091	5.4500e-01	-3.5630	-29.673523	0.000667	6.667726	2.259087	-0.053237
1092	5.4550e-01	-3.6015	-30.016336	0.000859	8.587223	2.909430	-0.068563
1093	5.4600e-01	-3.6368	-30.560805	0.001364	13.638530	4.620859	-0.108894
1094	5.4650e-01	-3.6721	-30.750360	0.000475	4.748229	1.608744	-0.037911
1095	5.4700e-01	-3.7234	-30.943949	0.000485	4.849255	1.642972	-0.038718
1096	5.4750e-01	-3.7555	-31.218200	0.000687	6.869778	2.327544	-0.054850
1097	5.4800e-01	-3.7988	-31.758635	0.001354	13.537504	4.586631	-0.108087
1098	5.4850e-01	-3.8389	-32.020786	0.000657	6.566700	2.224858	-0.052430
1099	5.4900e-01	-3.8758	-32.395865	0.000940	9.395432	3.183259	-0.075016
1100	5.4950e-01	-3.9191	-32.456361	0.000152	1.515392	0.513429	-0.012099
1101	5.5000e-01	-3.9641	-32.734645	0.000697	6.970804	2.361772	-0.055657
1102	5.5050e-01	-3.9945	-33.041160	0.000768	7.677987	2.601373	-0.061303
1103	5.5100e-01	-4.0379	-33.396073	0.000889	8.890301	3.012116	-0.070983
1104	5.5150e-01	-4.0796	-33.734853	0.000849	8.486197	2.875201	-0.067756
1105	5.5200e-01	-4.1165	-34.117998	0.000960	9.597484	3.251716	-0.076629
1106	5.5250e-01	-4.1582	-34.251090	0.000333	3.333863	1.129543	-0.026618
1107	5.5300e-01	-4.1967	-34.428546	0.000445	4.445151	1.506058	-0.035491
1108	5.5350e-01	-4.2384	-34.811691	0.000960	9.597484	3.251716	-0.076629
1109	5.5400e-01	-4.2753	-35.174669	0.000909	9.092354	3.080573	-0.072596
1110	5.5450e-01	-4.3170	-35.412622	0.000596	5.960543	2.019487	-0.047591
1111	5.5500e-01	-4.3555	-35.844164	0.001081	10.809798	3.662459	-0.086308
1112	5.5550e-01	-4.4052	-36.138580	0.000737	7.374909	2.498687	-0.058883
1113	5.5600e-01	-4.4389	-36.473327	0.000839	8.385171	2.840973	-0.066949
1114	5.5650e-01	-4.4806	-36.892769	0.001051	10.506720	3.559773	-0.083888
1115	5.5700e-01	-4.5223	-37.102491	0.000525	5.253360	1.779886	-0.041944
1116	5.5750e-01	-4.5528	-37.292046	0.000475	4.748229	1.608744	-0.037911
1117	5.5800e-01	-4.6009	-37.590496	0.000748	7.475935	2.532915	-0.059690
1118	5.5850e-01	-4.6410	-38.054302	0.001162	11.618007	3.936287	-0.092761
1119	5.5900e-01	-4.6795	-38.308387	0.000636	6.364648	2.156401	-0.050817
1120	5.5950e-01	-4.7148	-38.497943	0.000475	4.748229	1.608744	-0.037911
1121	5.6000e-01	-4.7614	-38.881087	0.000960	9.597484	3.251716	-0.076629
1122	5.6050e-01	-4.8015	-39.332794	0.001131	11.314929	3.833602	-0.090341
1123	5.6100e-01	-4.8400	-39.744170	0.001030	10.304667	3.491316	-0.082275
1124	5.6150e-01	-4.8801	-40.054719	0.000778	7.779014	2.635601	-0.062110
1125	5.6200e-01	-4.9170	-40.099083	0.000111	1.111288	0.376514	-0.008873
1126	5.6250e-01	-4.9507	-40.228142	0.000323	3.232837	1.095315	-0.025812
1127	5.6300e-01	-5.0004	-40.510459	0.000707	7.071831	2.396001	-0.056463
1128	5.6350e-01	-5.0437	-40.829074	0.000798	7.981066	2.704058	-0.063723
1129	5.6400e-01	-5.0758	-41.224317	0.000990	9.900563	3.354401	-0.079049
1130	5.6450e-01	-5.1191	-41.720388	0.001243	12.426217	4.210116	-0.099214
1131	5.6500e-01	-5.1576	-41.853481	0.000333	3.333863	1.129543	-0.026618
1132	5.6550e-01	-5.2025	-42.099500	0.000616	6.162595	2.087944	-0.049204
1133	5.6600e-01	-5.2362	-42.309221	0.000525	5.253360	1.779886	-0.041944
1134	5.6650e-01	-5.2811	-42.728663	0.001051	10.506720	3.559773	-0.083888
1135	5.6700e-01	-5.3132	-43.164238	0.001091	10.910824	3.696687	-0.087115
1136	5.6750e-01	-5.3501	-43.390091	0.000566	5.657464	1.916801	-0.045171
1137	5.6800e-01	-5.3918	-43.559481	0.000424	4.243098	1.437601	-0.033878
1138	5.6850e-01	-5.4319	-43.720805	0.000404	4.041046	1.369143	-0.032265
1139	5.6900e-01	-5.4833	-44.023288	0.000758	7.576961	2.567144	-0.060496
1140	5.6950e-01	-5.5170	-44.402399	0.000950	9.496458	3.217487	-0.075822
1141	5.7000e-01	-5.5490	-44.721014	0.000798	7.981066	2.704058	-0.063723
1142	5.7050e-01	-5.5908	-45.301780	0.001455	14.547766	4.928916	-0.116153
1143	5.7100e-01	-5.6309	-45.221118	-0.000202	-2.020523	-0.684572	0.016132
1144	5.7150e-01	-5.6790	-45.870447	0.001627	16.265210	5.510802	-0.129866
1145	5.7200e-01	-5.7239	-46.144698	0.000687	6.869778	2.327544	-0.054850
1146	5.7250e-01	-5.7592	-46.249558	0.000263	2.626680	0.889943	-0.020972
1147	5.7300e-01	-5.7993	-46.552041	0.000758	7.576961	2.567144	-0.060496
1148	5.7350e-01	-5.8394	-46.915019	0.000909	9.092354	3.080573	-0.072596
1149	5.7400e-01	-5.8795	-47.152972	0.000596	5.960543	2.019487	-0.047591
1150	5.7450e-01	-5.9180	-47.624845	0.001182	11.820060	4.004745	-0.094375
1151	5.7500e-01	-5.9597	-47.794235	0.000424	4.243098	1.437601	-0.033878
1152	5.7550e-01	-6.0079	-47.834566	0.000101	1.010262	0.342286	-0.008066
1153	5.7600e-01	-6.0239	-48.213677	0.000950	9.496458	3.217487	-0.075822
1154	5.7650e-01	-6.0720	-48.604888	0.000980	9.799537	3.320173	-0.078242
1155	5.7700e-01	-6.1153	-48.729914	0.000313	3.131811	1.061086	-0.025005
1156	5.7750e-01	-6.1570	-49.113058	0.000960	9.597484	3.251716	-0.076629
1157	5.7800e-01	-6.2004	-49.383276	0.000677	6.768752	2.293315	-0.054044
1158	5.7850e-01	-6.2373	-49.718023	0.000839	8.385171	2.840973	-0.066949
1159	5.7900e-01	-6.2806	-50.016472	0.000748	7.475935	2.532915	-0.059690
1160	5.7950e-01	-6.3143	-50.452047	0.001091	10.910824	3.696687	-0.087115
1161	5.8000e-01	-6.3560	-50.726298	0.000687	6.869778	2.327544	-0.054850
1162	5.8050e-01	-6.3977	-51.020714	0.000737	7.374909	2.498687	-0.058883
1163	5.8100e-01	-6.4346	-51.500653	0.001202	12.022112	4.073202	-0.095988
1164	5.8150e-01	-6.4795	-51.395792	-0.000263	-2.626680	-0.889943	0.020972
1165	5.8200e-01	-6.5116	-51.718440	0.000808	8.082092	2.738287	-0.064530
1166	5.8250e-01	-6.5485	-52.057220	0.000849	8.486197	2.875201	-0.067756
1167	5.8300e-01	-6.6030	-52.238710	0.000455	4.546177	1.540286	-0.036298
1168	5.8350e-01	-6.6319	-52.488762	0.000626	6.263621	2.122172	-0.050010
1169	5.8400e-01	-6.6752	-52.928370	0.001101	11.011850	3.730916	-0.087922
1170	5.8450e-01	-6.7233	-53.117925	0.000475	4.748229	1.608744	-0.037911
1171	5.8500e-01	-6.7554	-53.363944	0.000616	6.162595	2.087944	-0.049204
1172	5.8550e-01	-6.8003	-53.734989	0.000929	9.294406	3.149030	-0.074209
1173	5.8600e-01	-6.8340	-53.880181	0.000364	3.636941	1.232229	-0.029038
1174	5.8650e-01	-6.8838	-54.247193	0.000919	9.193380	3.114801	-0.073402
1175	5.8700e-01	-6.9142	-54.412550	0.000414	4.142072	1.403372	-0.033071
1176	5.8750e-01	-6.9592	-54.864257	0.001131	11.314929	3.833602	-0.090341
1177	5.8800e-01	-6.9929	-55.082044	0.000546	5.455412	1.848344	-0.043557
1178	5.8850e-01	-7.0522	-55.626512	0.001364	13.638530	4.620859	-0.108894
1179	5.8900e-01	-7.0731	-55.824134	0.000495	4.950281	1.677201	-0.039524
1180	5.8950e-01	-7.1068	-56.082253	0.000647	6.465674	2.190630	-0.051624
1181	5.9000e-01	-7.1549	-56.271808	0.000475	4.748229	1.608744	-0.037911
1182	5.9050e-01	-7.1934	-56.671085	0.001000	10.001589	3.388630	-0.079855
1183	5.9100e-01	-7.2303	-56.860641	0.000475	4.748229	1.608744	-0.037911
1184	5.9150e-01	-7.2736	-57.288149	0.001071	10.708772	3.628230	-0.085502
1185	5.9200e-01	-7.3249	-57.566433	0.000697	6.970804	2.361772	-0.055657
1186	5.9250e-01	-7.3554	-57.526102	-0.000101	-1.010262	-0.342286	0.008066
1187	5.9300e-01	-7.3859	-57.997974	0.001182	11.820060	4.004745	-0.094375
1188	5.9350e-01	-7.4356	-58.248027	0.000626	6.263621	2.122172	-0.050010
1189	5.9400e-01	-7.4870	-58.582774	0.000839	8.385171	2.840973	-0.066949
1190	5.9450e-01	-7.5206	-58.772329	0.000475	4.748229	1.608744	-0.037911
1191	5.9500e-01	-7.5479	-59.042547	0.000677	6.768752	2.293315	-0.054044
1192	5.9550e-01	-7.5928	-59.389393	0.000869	8.688249	2.943658	-0.069369
1193	5.9600e-01	-7.6361	-59.708008	0.000798	7.981066	2.704058	-0.063723
1194	5.9650e-01	-7.6650	-59.861266	0.000384	3.838994	1.300686	-0.030652
1195	5.9700e-01	-7.7228	-59.958060	0.000242	2.424628	0.821486	-0.019359
1196	5.9750e-01	-7.7565	-60.474297	0.001293	12.931347	4.381259	-0.103247
1197	5.9800e-01	-7.7966	-60.841309	0.000919	9.193380	3.114801	-0.073402
1198	5.9850e-01	-7.8303	-61.091361	0.000626	6.263621	2.122172	-0.050010
1199	5.9900e-01	-7.8688	-61.377711	0.000717	7.172857	2.430230	-0.057270
1200	5.9950e-01	-7.9169	-61.740690	0.000909	9.092354	3.080573	-0.072596
1201	6.0000e-01	-7.9490	-61.881848	0.000354	3.535915	1.198001	-0.028232
1202	6.0050e-01	-7.9971	-62.071404	0.000475	4.748229	1.608744	-0.037911
1203	6.0100e-01	-8.0356	-62.478747	0.001020	10.203641	3.457087	-0.081469
1204	6.0150e-01	-8.0677	-62.886090	0.001020	10.203641	3.457087	-0.081469
1205	6.0200e-01	-8.1078	-63.047414	0.000404	4.041046	1.369143	-0.032265
1206	6.0250e-01	-8.1575	-63.115977	0.000172	1.717445	0.581886	-0.013713
1207	6.0300e-01	-8.1944	-63.555584	0.001101	11.011850	3.730916	-0.087922
1208	6.0350e-01	-8.2297	-63.991159	0.001091	10.910824	3.696687	-0.087115
1209	6.0400e-01	-8.2762	-64.023424	0.000081	0.808209	0.273829	-0.006453
1210	6.0450e-01	-8.3067	-64.430767	0.001020	10.203641	3.457087	-0.081469
1211	6.0500e-01	-8.3564	-64.725183	0.000737	7.374909	2.498687	-0.058883
1212	6.0550e-01	-8.3917	-65.112360	0.000970	9.698510	3.285944	-0.077435
1213	6.0600e-01	-8.4383	-65.221254	0.000273	2.727706	0.924172	-0.021779
1214	6.0650e-01	-8.4736	-65.289817	0.000172	1.717445	0.581886	-0.013713
1215	6.0700e-01	-8.5121	-65.560034	0.000677	6.768752	2.293315	-0.054044
1216	6.0750e-01	-8.5490	-65.967377	0.001020	10.203641	3.457087	-0.081469
1217	6.0800e-01	-8.5923	-66.221463	0.000636	6.364648	2.156401	-0.050817
1218	6.0850e-01	-8.6388	-66.588474	0.000919	9.193380	3.114801	-0.073402
1219	6.0900e-01	-8.6805	-66.705434	0.000293	2.929758	0.992629	-0.023392
1220	6.0950e-01	-8.7174	-67.213605	0.001273	12.729295	4.312802	-0.101634
1221	6.1000e-01	-8.7511	-67.395094	0.000455	4.546177	1.540286	-0.036298
1222	6.1050e-01	-8.7944	-67.576584	0.000455	4.546177	1.540286	-0.036298
1223	6.1100e-01	-8.8281	-67.975860	0.001000	10.001589	3.388630	-0.079855
1224	6.1150e-01	-8.8746	-68.205747	0.000576	5.758491	1.951029	-0.045977
1225	6.1200e-01	-8.9243	-68.306574	0.000253	2.525654	0.855715	-0.020165
1226	6.1250e-01	-8.9516	-68.673586	0.000919	9.193380	3.114801	-0.073402
1227	6.1300e-01	-8.9949	-68.951870	0.000697	6.970804	2.361772	-0.055657
1228	6.1350e-01	-9.0366	-69.238220	0.000717	7.172857	2.430230	-0.057270
1229	6.1400e-01	-9.0751	-69.629431	0.000980	9.799537	3.320173	-0.078242
1230	6.1450e-01	-9.1104	-69.935946	0.000768	7.677987	2.601373	-0.061303
1231	6.1500e-01	-9.1473	-70.044840	0.000273	2.727706	0.924172	-0.021779
1232	6.1550e-01	-9.1939	-70.306991	0.000657	6.566700	2.224858	-0.052430
1233	6.1600e-01	-9.2324	-70.548977	0.000606	6.061569	2.053715	-0.048397
1234	6.1650e-01	-9.2757	-70.920022	0.000929	9.294406	3.149030	-0.074209
1235	6.1700e-01	-9.3190	-71.246703	0.000818	8.183118	2.772516	-0.065336
1236	6.1750e-01	-9.3495	-71.484656	0.000596	5.960543	2.019487	-0.047591
1237	6.1800e-01	-9.3976	-71.815370	0.000828	8.284144	2.806744	-0.066143
1238	6.1850e-01	-9.4377	-71.956529	0.000354	3.535915	1.198001	-0.028232
1239	6.1900e-01	-9.4730	-71.976694	0.000051	0.505131	0.171143	-0.004033
1240	6.1950e-01	-9.5099	-72.275144	0.000748	7.475935	2.532915	-0.059690
1241	6.2000e-01	-9.5612	-72.621990	0.000869	8.688249	2.943658	-0.069369
1242	6.2050e-01	-9.5933	-72.912373	0.000727	7.273883	2.464458	-0.058077
1243	6.2100e-01	-9.6366	-73.259220	0.000869	8.688249	2.943658	-0.069369
1244	6.2150e-01	-9.6751	-73.432643	0.000434	4.344124	1.471829	-0.034685
1245	6.2200e-01	-9.7200	-73.759324	0.000818	8.183118	2.772516	-0.065336
1246	6.2250e-01	-9.7553	-73.900482	0.000354	3.535915	1.198001	-0.028232
1247	6.2300e-01	-9.7858	-74.081972	0.000455	4.546177	1.540286	-0.036298
1248	6.2350e-01	-9.8356	-74.598208	0.001293	12.931347	4.381259	-0.103247
1249	6.2400e-01	-9.8692	-74.924889	0.000818	8.183118	2.772516	-0.065336
1250	6.2450e-01	-9.9126	-75.029750	0.000263	2.626680	0.889943	-0.020972
1251	6.2500e-01	-9.9607	-75.396762	0.000919	9.193380	3.114801	-0.073402
1252	6.2550e-01	-9.9944	-75.529854	0.000333	3.333863	1.129543	-0.026618
1253	6.2600e-01	-10.0457	-75.824270	0.000737	7.374909	2.498687	-0.058883
1254	6.2650e-01	-10.0666	-75.957363	0.000333	3.333863	1.129543	-0.026618
1255	6.2700e-01	-10.1179	-76.497798	0.001354	13.537504	4.586631	-0.108087
1256	6.2750e-01	-10.1500	-76.578460	0.000202	2.020523	0.684572	-0.016132
1257	6.2800e-01	-10.1917	-76.804313	0.000566	5.657464	1.916801	-0.045171
1258	6.2850e-01	-10.2398	-77.340715	0.001344	13.436478	4.552402	-0.107280
1259	6.2900e-01	-10.2799	-77.397179	0.000141	1.414366	0.479200	-0.011293
1260	6.2950e-01	-10.3200	-77.493973	0.000242	2.424628	0.821486	-0.019359
1261	6.3000e-01	-10.3553	-77.816621	0.000808	8.082092	2.738287	-0.064530
1262	6.3050e-01	-10.3954	-78.244129	0.001071	10.708772	3.628230	-0.085502
1263	6.3100e-01	-10.4339	-78.441751	0.000495	4.950281	1.677201	-0.039524
1264	6.3150e-01	-10.4788	-78.869260	0.001071	10.708772	3.628230	-0.085502
1265	6.3200e-01	-10.5190	-79.248371	0.000950	9.496458	3.217487	-0.075822
1266	6.3250e-01	-10.5607	-79.252404	0.000010	0.101026	0.034229	-0.000807
1267	6.3300e-01	-10.5976	-79.316934	0.000162	1.616418	0.547657	-0.012906
1268	6.3350e-01	-10.6409	-79.808972	0.001233	12.325190	4.175888	-0.098408
1269	6.3400e-01	-10.6762	-80.087255	0.000697	6.970804	2.361772	-0.055657
1270	6.3450e-01	-10.7147	-80.264712	0.000445	4.445151	1.506058	-0.035491
1271	6.3500e-01	-10.7532	-80.401837	0.000343	3.434889	1.163772	-0.027425
1272	6.3550e-01	-10.7901	-80.732551	0.000828	8.284144	2.806744	-0.066143
1273	6.3600e-01	-10.8414	-80.974537	0.000606	6.061569	2.053715	-0.048397
1274	6.3650e-01	-10.8719	-81.224589	0.000626	6.263621	2.122172	-0.050010
1275	6.3700e-01	-10.9072	-81.559336	0.000839	8.385171	2.840973	-0.066949
1276	6.3750e-01	-10.9569	-81.902150	0.000859	8.587223	2.909430	-0.068563
1277	6.3800e-01	-10.9970	-82.200599	0.000748	7.475935	2.532915	-0.059690
1278	6.3850e-01	-11.0387	-82.208665	0.000020	0.202052	0.068457	-0.001613
1279	6.3900e-01	-11.0756	-82.640207	0.001081	10.809798	3.662459	-0.086308
1280	6.3950e-01	-11.1189	-82.684571	0.000111	1.111288	0.376514	-0.008873
1281	6.4000e-01	-11.1574	-83.099980	0.001041	10.405694	3.525544	-0.083082
1282	6.4050e-01	-11.1895	-83.462959	0.000909	9.092354	3.080573	-0.072596
1283	6.4100e-01	-11.2393	-83.636382	0.000434	4.344124	1.471829	-0.034685
1284	6.4150e-01	-11.2681	-83.660581	0.000061	0.606157	0.205372	-0.004840
1285	6.4200e-01	-11.3195	-84.112288	0.001131	11.314929	3.833602	-0.090341
1286	6.4250e-01	-11.3532	-84.438969	0.000818	8.183118	2.772516	-0.065336
1287	6.4300e-01	-11.3933	-84.507532	0.000172	1.717445	0.581886	-0.013713
1288	6.4350e-01	-11.4478	-84.870510	0.000909	9.092354	3.080573	-0.072596
1289	6.4400e-01	-11.4735	-85.261721	0.000980	9.799537	3.320173	-0.078242
1290	6.4450e-01	-11.5152	-85.455310	0.000485	4.849255	1.642972	-0.038718
1291	6.4500e-01	-11.5585	-85.705362	0.000626	6.263621	2.122172	-0.050010
1292	6.4550e-01	-11.6018	-85.898951	0.000485	4.849255	1.642972	-0.038718
1293	6.4600e-01	-11.6371	-86.173201	0.000687	6.869778	2.327544	-0.054850
1294	6.4650e-01	-11.6740	-86.431320	0.000647	6.465674	2.190630	-0.051624
1295	6.4700e-01	-11.7253	-86.592644	0.000404	4.041046	1.369143	-0.032265
1296	6.4750e-01	-11.7574	-86.701537	0.000273	2.727706	0.924172	-0.021779
1297	6.4800e-01	-11.8007	-86.991920	0.000727	7.273883	2.464458	-0.058077
1298	6.4850e-01	-11.8473	-87.258105	0.000667	6.667726	2.259087	-0.053237
1299	6.4900e-01	-11.8697	-87.746110	0.001222	12.224164	4.141659	-0.097601
1300	6.4950e-01	-11.9114	-87.778375	0.000081	0.808209	0.273829	-0.006453
1301	6.5000e-01	-11.9547	-88.266379	0.001222	12.224164	4.141659	-0.097601
1302	6.5050e-01	-12.0029	-88.310744	0.000111	1.111288	0.376514	-0.008873
1303	6.5100e-01	-12.0414	-88.459968	0.000374	3.737968	1.266458	-0.029845
1304	6.5150e-01	-12.0799	-88.718087	0.000647	6.465674	2.190630	-0.051624
1305	6.5200e-01	-12.1232	-88.947973	0.000576	5.758491	1.951029	-0.045977
1306	6.5250e-01	-12.1569	-89.206091	0.000647	6.465674	2.190630	-0.051624
1307	6.5300e-01	-12.1986	-89.528739	0.000808	8.082092	2.738287	-0.064530
1308	6.5350e-01	-12.2403	-89.859453	0.000828	8.284144	2.806744	-0.066143
1309	6.5400e-01	-12.2740	-90.053042	0.000485	4.849255	1.642972	-0.038718
1310	6.5450e-01	-12.3141	-90.194201	0.000354	3.535915	1.198001	-0.028232
1311	6.5500e-01	-12.3686	-90.399889	0.000515	5.152334	1.745658	-0.041138
1312	6.5550e-01	-12.4071	-90.686239	0.000717	7.172857	2.430230	-0.057270
1313	6.5600e-01	-12.4296	-91.234740	0.001374	13.739557	4.655088	-0.109700
1314	6.5650e-01	-12.4745	-91.396064	0.000404	4.041046	1.369143	-0.032265
1315	6.5700e-01	-12.5178	-91.452527	0.000141	1.414366	0.479200	-0.011293
1316	6.5750e-01	-12.5660	-91.823572	0.000929	9.294406	3.149030	-0.074209
1317	6.5800e-01	-12.5996	-91.976830	0.000384	3.838994	1.300686	-0.030652
1318	6.5850e-01	-12.6414	-92.319644	0.000859	8.587223	2.909430	-0.068563
1319	6.5900e-01	-12.6799	-92.650358	0.000828	8.284144	2.806744	-0.066143
1320	6.5950e-01	-12.7135	-92.601960	-0.000121	-1.212314	-0.410743	0.009679
1321	6.6000e-01	-12.7504	-93.041568	0.001101	11.011850	3.730916	-0.087922
1322	6.6050e-01	-12.7954	-93.307753	0.000667	6.667726	2.259087	-0.053237
1323	6.6100e-01	-12.8419	-93.569904	0.000657	6.566700	2.224858	-0.052430
1324	6.6150e-01	-12.8772	-94.287796	0.001798	17.982655	6.092688	-0.143578
1325	6.6200e-01	-12.9173	-94.316027	0.000071	0.707183	0.239600	-0.005646
1326	6.6250e-01	-12.9526	-94.408789	0.000232	2.323601	0.787257	-0.018552
1327	6.6300e-01	-12.9959	-94.400722	-0.000020	-0.202052	-0.068457	0.001613
1328	6.6350e-01	-13.0408	-94.638675	0.000596	5.960543	2.019487	-0.047591
1329	6.6400e-01	-13.0777	-95.082316	0.001111	11.112877	3.765145	-0.088728
1330	6.6450e-01	-13.1082	-95.271872	0.000475	4.748229	1.608744	-0.037911
1331	6.6500e-01	-13.1515	-95.457394	0.000465	4.647203	1.574515	-0.037105
1332	6.6550e-01	-13.1996	-95.598553	0.000354	3.535915	1.198001	-0.028232
1333	6.6600e-01	-13.2478	-95.852638	0.000636	6.364648	2.156401	-0.050817
1334	6.6650e-01	-13.2798	-96.211584	0.000899	8.991327	3.046344	-0.071789
1335	6.6700e-01	-13.3167	-96.473735	0.000657	6.566700	2.224858	-0.052430
1336	6.6750e-01	-13.3488	-96.711688	0.000596	5.960543	2.019487	-0.047591
1337	6.6800e-01	-13.3986	-97.155329	0.001111	11.112877	3.765145	-0.088728
1338	6.6850e-01	-13.4322	-97.223891	0.000172	1.717445	0.581886	-0.013713
1339	6.6900e-01	-13.4691	-97.486043	0.000657	6.566700	2.224858	-0.052430
1340	6.6950e-01	-13.5076	-97.611069	0.000313	3.131811	1.061086	-0.025005
1341	6.7000e-01	-13.5526	-97.853055	0.000606	6.061569	2.053715	-0.048397
1342	6.7050e-01	-13.5911	-98.074875	0.000556	5.556438	1.882572	-0.044364
1343	6.7100e-01	-13.6296	-98.445920	0.000929	9.294406	3.149030	-0.074209
1344	6.7150e-01	-13.6697	-98.599178	0.000384	3.838994	1.300686	-0.030652
1345	6.7200e-01	-13.7162	-98.901660	0.000758	7.576961	2.567144	-0.060496
1346	6.7250e-01	-13.7531	-99.268672	0.000919	9.193380	3.114801	-0.073402
1347	6.7300e-01	-13.8012	-99.377566	0.000273	2.727706	0.924172	-0.021779
1348	6.7350e-01	-13.8397	-99.579221	0.000505	5.051308	1.711429	-0.040331
1349	6.7400e-01	-13.8718	-99.700214	0.000303	3.030785	1.026858	-0.024199
1350	6.7450e-01	-13.9199	-99.962365	0.000657	6.566700	2.224858	-0.052430
1351	6.7500e-01	-13.9536	-100.208384	0.000616	6.162595	2.087944	-0.049204
1352	6.7550e-01	-13.9953	-100.393907	0.000465	4.647203	1.574515	-0.037105
1353	6.7600e-01	-14.0322	-100.591529	0.000495	4.950281	1.677201	-0.039524
1354	6.7650e-01	-14.0836	-100.910144	0.000798	7.981066	2.704058	-0.063723
1355	6.7700e-01	-14.1172	-101.289255	0.000950	9.496458	3.217487	-0.075822
1356	6.7750e-01	-14.1574	-101.494943	0.000515	5.152334	1.745658	-0.041138
1357	6.7800e-01	-14.2007	-101.809525	0.000788	7.880040	2.669830	-0.062916
1358	6.7850e-01	-14.2344	-102.047477	0.000596	5.960543	2.019487	-0.047591
1359	6.7900e-01	-14.2793	-102.116040	0.000172	1.717445	0.581886	-0.013713
1360	6.7950e-01	-14.3178	-102.237033	0.000303	3.030785	1.026858	-0.024199
1361	6.8000e-01	-14.3563	-102.507251	0.000677	6.768752	2.293315	-0.054044
1362	6.8050e-01	-14.3916	-102.632277	0.000313	3.131811	1.061086	-0.025005
1363	6.8100e-01	-14.4397	-103.120282	0.001222	12.224164	4.141659	-0.097601
1364	6.8150e-01	-14.4702	-103.321937	0.000505	5.051308	1.711429	-0.040331
1365	6.8200e-01	-14.5103	-103.511492	0.000475	4.748229	1.608744	-0.037911
1366	6.8250e-01	-14.5504	-103.906736	0.000990	9.900563	3.354401	-0.079049
1367	6.8300e-01	-14.5937	-104.221318	0.000788	7.880040	2.669830	-0.062916
1368	6.8350e-01	-14.6290	-104.237450	0.000040	0.404105	0.136914	-0.003226
1369	6.8400e-01	-14.6723	-104.648826	0.001030	10.304667	3.491316	-0.082275
1370	6.8450e-01	-14.7220	-104.773852	0.000313	3.131811	1.061086	-0.025005
1371	6.8500e-01	-14.7573	-105.096500	0.000808	8.082092	2.738287	-0.064530
1372	6.8550e-01	-14.7862	-105.294122	0.000495	4.950281	1.677201	-0.039524
1373	6.8600e-01	-14.8327	-105.548207	0.000636	6.364648	2.156401	-0.050817
1374	6.8650e-01	-14.8696	-105.826491	0.000697	6.970804	2.361772	-0.055657
1375	6.8700e-01	-14.9146	-105.963616	0.000343	3.434889	1.163772	-0.027425
1376	6.8750e-01	-14.9547	-106.157205	0.000485	4.849255	1.642972	-0.038718
1377	6.8800e-01	-14.9996	-106.500018	0.000859	8.587223	2.909430	-0.068563
1378	6.8850e-01	-15.0333	-106.733938	0.000586	5.859517	1.985258	-0.046784
1379	6.8900e-01	-15.0686	-107.173546	0.001101	11.011850	3.730916	-0.087922
1380	6.8950e-01	-15.1022	-107.201777	0.000071	0.707183	0.239600	-0.005646
1381	6.9000e-01	-15.1536	-107.399399	0.000495	4.950281	1.677201	-0.039524
1382	6.9050e-01	-15.1873	-107.701882	0.000758	7.576961	2.567144	-0.060496
1383	6.9100e-01	-15.2354	-107.935801	0.000586	5.859517	1.985258	-0.046784
1384	6.9150e-01	-15.2675	-108.052761	0.000293	2.929758	0.992629	-0.023392
1385	6.9200e-01	-15.3156	-108.238284	0.000465	4.647203	1.574515	-0.037105
1386	6.9250e-01	-15.3621	-108.484303	0.000616	6.162595	2.087944	-0.049204
1387	6.9300e-01	-15.3974	-108.839215	0.000889	8.890301	3.012116	-0.070983
1388	6.9350e-01	-15.4311	-109.190095	0.000879	8.789275	2.977887	-0.070176
1389	6.9400e-01	-15.4760	-109.307055	0.000293	2.929758	0.992629	-0.023392
1390	6.9450e-01	-15.5177	-109.577272	0.000677	6.768752	2.293315	-0.054044
1391	6.9500e-01	-15.5514	-109.746663	0.000424	4.243098	1.437601	-0.033878
1392	6.9550e-01	-15.5883	-109.867656	0.000303	3.030785	1.026858	-0.024199
1393	6.9600e-01	-15.6365	-110.121741	0.000636	6.364648	2.156401	-0.050817
1394	6.9650e-01	-15.6669	-110.452455	0.000828	8.284144	2.806744	-0.066143
1395	6.9700e-01	-15.7151	-110.807368	0.000889	8.890301	3.012116	-0.070983
1396	6.9750e-01	-15.7520	-111.017089	0.000525	5.253360	1.779886	-0.041944
1397	6.9800e-01	-15.7921	-111.097751	0.000202	2.020523	0.684572	-0.016132
1398	6.9850e-01	-15.8338	-111.380068	0.000707	7.071831	2.396001	-0.056463
1399	6.9900e-01	-15.8723	-111.775311	0.000990	9.900563	3.354401	-0.079049
1400	6.9950e-01	-15.9108	-111.908403	0.000333	3.333863	1.129543	-0.026618
1401	7.0000e-01	-15.9525	-112.178621	0.000677	6.768752	2.293315	-0.054044
1402	7.0050e-01	-15.9974	-112.307680	0.000323	3.232837	1.095315	-0.025812
1403	7.0100e-01	-16.0407	-112.650494	0.000859	8.587223	2.909430	-0.068563
1404	7.0150e-01	-16.0728	-112.981208	0.000828	8.284144	2.806744	-0.066143
1405	7.0200e-01	-16.1177	-113.344187	0.000909	9.092354	3.080573	-0.072596
1406	7.0250e-01	-16.1626	-113.517610	0.000434	4.344124	1.471829	-0.034685
1407	7.0300e-01	-16.1931	-113.650702	0.000333	3.333863	1.129543	-0.026618
1408	7.0350e-01	-16.2316	-113.937052	0.000717	7.172857	2.430230	-0.057270
1409	7.0400e-01	-16.2814	-114.118542	0.000455	4.546177	1.540286	-0.036298
1410	7.0450e-01	-16.3231	-114.243568	0.000313	3.131811	1.061086	-0.025005
1411	7.0500e-01	-16.3519	-114.477487	0.000586	5.859517	1.985258	-0.046784
1412	7.0550e-01	-16.3824	-114.856599	0.000950	9.496458	3.217487	-0.075822
1413	7.0600e-01	-16.4370	-114.993724	0.000343	3.434889	1.163772	-0.027425
1414	7.0650e-01	-16.4803	-115.114717	0.000303	3.030785	1.026858	-0.024199
1415	7.0700e-01	-16.5156	-115.417199	0.000758	7.576961	2.567144	-0.060496
1416	7.0750e-01	-16.5573	-115.655152	0.000596	5.960543	2.019487	-0.047591
1417	7.0800e-01	-16.5958	-115.703549	0.000121	1.212314	0.410743	-0.009679
1418	7.0850e-01	-16.6311	-115.969734	0.000667	6.667726	2.259087	-0.053237
1419	7.0900e-01	-16.6824	-116.256084	0.000717	7.172857	2.430230	-0.057270
1420	7.0950e-01	-16.7161	-116.562599	0.000768	7.677987	2.601373	-0.061303
1421	7.1000e-01	-16.7610	-116.796519	0.000586	5.859517	1.985258	-0.046784
1422	7.1050e-01	-16.7867	-117.320822	0.001313	13.133400	4.449716	-0.104861
1423	7.1100e-01	-16.8332	-117.470046	0.000374	3.737968	1.266458	-0.029845
1424	7.1150e-01	-16.8733	-117.732198	0.000657	6.566700	2.224858	-0.052430
1425	7.1200e-01	-16.9231	-117.974184	0.000606	6.061569	2.053715	-0.048397
1426	7.1250e-01	-16.9487	-118.244401	0.000677	6.768752	2.293315	-0.054044
1427	7.1300e-01	-17.0049	-118.361361	0.000293	2.929758	0.992629	-0.023392
1428	7.1350e-01	-17.0337	-118.571082	0.000525	5.253360	1.779886	-0.041944
1429	7.1400e-01	-17.0722	-118.776770	0.000515	5.152334	1.745658	-0.041138
1430	7.1450e-01	-17.1220	-118.917929	0.000354	3.535915	1.198001	-0.028232
1431	7.1500e-01	-17.1653	-119.083286	0.000414	4.142072	1.403372	-0.033071
1432	7.1550e-01	-17.1958	-119.599523	0.001293	12.931347	4.381259	-0.103247
1433	7.1600e-01	-17.2391	-119.599523	-0.000000	-0.000000	-0.000000	0.000000
1434	7.1650e-01	-17.2696	-120.152057	0.001384	13.840583	4.689316	-0.110507
1435	7.1700e-01	-17.3081	-120.482771	0.000828	8.284144	2.806744	-0.066143
1436	7.1750e-01	-17.3498	-120.607797	0.000313	3.131811	1.061086	-0.025005
1437	7.1800e-01	-17.3963	-120.708625	0.000253	2.525654	0.855715	-0.020165
1438	7.1850e-01	-17.4316	-121.120001	0.001030	10.304667	3.491316	-0.082275
1439	7.1900e-01	-17.4733	-121.273258	0.000384	3.838994	1.300686	-0.030652
1440	7.1950e-01	-17.5086	-121.680601	0.001020	10.203641	3.457087	-0.081469
1441	7.2000e-01	-17.5551	-121.934687	0.000636	6.364648	2.156401	-0.050817
1442	7.2050e-01	-17.5888	-122.269434	0.000839	8.385171	2.840973	-0.066949
1443	7.2100e-01	-17.6353	-122.329930	0.000152	1.515392	0.513429	-0.012099
1444	7.2150e-01	-17.6754	-122.495287	0.000414	4.142072	1.403372	-0.033071
1445	7.2200e-01	-17.7107	-122.737273	0.000606	6.061569	2.053715	-0.048397
1446	7.2250e-01	-17.7589	-123.035723	0.000748	7.475935	2.532915	-0.059690
1447	7.2300e-01	-17.8022	-123.120418	0.000212	2.121549	0.718800	-0.016939
1448	7.2350e-01	-17.8310	-123.503562	0.000960	9.597484	3.251716	-0.076629
1449	7.2400e-01	-17.8776	-123.826210	0.000808	8.082092	2.738287	-0.064530
1450	7.2450e-01	-17.9209	-124.035931	0.000525	5.253360	1.779886	-0.041944
1451	7.2500e-01	-17.9610	-124.386811	0.000879	8.789275	2.977887	-0.070176
1452	7.2550e-01	-17.9947	-124.608631	0.000556	5.556438	1.882572	-0.044364
1453	7.2600e-01	-18.0332	-124.870782	0.000657	6.566700	2.224858	-0.052430
1454	7.2650e-01	-18.0781	-125.197463	0.000818	8.183118	2.772516	-0.065336
1455	7.2700e-01	-18.1102	-125.475747	0.000697	6.970804	2.361772	-0.055657
1456	7.2750e-01	-18.1519	-125.624972	0.000374	3.737968	1.266458	-0.029845
1457	7.2800e-01	-18.1936	-125.713700	0.000222	2.222575	0.753029	-0.017746
1458	7.2850e-01	-18.2401	-126.080712	0.000919	9.193380	3.114801	-0.073402
1459	7.2900e-01	-18.2722	-126.391261	0.000778	7.779014	2.635601	-0.062110
1460	7.2950e-01	-18.3107	-126.492088	0.000253	2.525654	0.855715	-0.020165
1461	7.3000e-01	-18.3604	-126.943795	0.001131	11.314929	3.833602	-0.090341
1462	7.3050e-01	-18.3925	-127.222079	0.000697	6.970804	2.361772	-0.055657
1463	7.3100e-01	-18.4294	-127.633455	0.001030	10.304667	3.491316	-0.082275
1464	7.3150e-01	-18.4727	-127.839143	0.000515	5.152334	1.745658	-0.041138
1465	7.3200e-01	-18.5225	-128.141625	0.000758	7.576961	2.567144	-0.060496
1466	7.3250e-01	-18.5610	-128.294883	0.000384	3.838994	1.300686	-0.030652
1467	7.3300e-01	-18.5947	-128.544935	0.000626	6.263621	2.122172	-0.050010
1468	7.3350e-01	-18.6332	-128.851451	0.000768	7.677987	2.601373	-0.061303
1469	7.3400e-01	-18.6733	-128.891782	0.000101	1.010262	0.342286	-0.008066
1470	7.3450e-01	-18.7214	-129.222496	0.000828	8.284144	2.806744	-0.066143
1471	7.3500e-01	-18.7487	-129.625806	0.001010	10.102615	3.422859	-0.080662
1472	7.3550e-01	-18.7856	-129.867792	0.000606	6.061569	2.053715	-0.048397
1473	7.3600e-01	-18.8401	-130.355796	0.001222	12.224164	4.141659	-0.097601
1474	7.3650e-01	-18.8754	-130.388061	0.000081	0.808209	0.273829	-0.006453
1475	7.3700e-01	-18.9123	-130.747007	0.000899	8.991327	3.046344	-0.071789
1476	7.3750e-01	-18.9572	-130.835735	0.000222	2.222575	0.753029	-0.017746
1477	7.3800e-01	-18.9973	-131.243078	0.001020	10.203641	3.457087	-0.081469
1478	7.3850e-01	-19.0374	-131.432634	0.000475	4.748229	1.608744	-0.037911
1479	7.3900e-01	-19.0695	-131.896440	0.001162	11.618007	3.936287	-0.092761
1480	7.3950e-01	-19.1032	-132.126327	0.000576	5.758491	1.951029	-0.045977
1481	7.4000e-01	-19.1529	-132.473173	0.000869	8.688249	2.943658	-0.069369
1482	7.4050e-01	-19.1914	-132.743391	0.000677	6.768752	2.293315	-0.054044
1483	7.4100e-01	-19.2331	-132.977311	0.000586	5.859517	1.985258	-0.046784
1484	7.4150e-01	-19.2781	-133.299958	0.000808	8.082092	2.738287	-0.064530
1485	7.4200e-01	-19.3053	-133.630673	0.000828	8.284144	2.806744	-0.066143
1486	7.4250e-01	-19.3535	-133.941221	0.000778	7.779014	2.635601	-0.062110
1487	7.4300e-01	-19.3968	-134.199339	0.000647	6.465674	2.190630	-0.051624
1488	7.4350e-01	-19.4401	-134.509888	0.000778	7.779014	2.635601	-0.062110
1489	7.4400e-01	-19.4658	-134.792205	0.000707	7.071831	2.396001	-0.056463
1490	7.4450e-01	-19.5043	-134.868834	0.000192	1.919497	0.650343	-0.015326
1491	7.4500e-01	-19.5556	-135.155184	0.000717	7.172857	2.430230	-0.057270
1492	7.4550e-01	-19.5893	-135.510096	0.000889	8.890301	3.012116	-0.070983
1493	7.4600e-01	-19.6294	-135.659321	0.000374	3.737968	1.266458	-0.029845
1494	7.4650e-01	-19.6791	-135.860976	0.000505	5.051308	1.711429	-0.040331
1495	7.4700e-01	-19.7176	-136.207823	0.000869	8.688249	2.943658	-0.069369
1496	7.4750e-01	-19.7529	-136.502239	0.000737	7.374909	2.498687	-0.058883
1497	7.4800e-01	-19.7914	-136.764390	0.000657	6.566700	2.224858	-0.052430
1498	7.4850e-01	-19.8331	-137.143501	0.000950	9.496458	3.217487	-0.075822
1499	7.4900e-01	-19.8748	-137.599242	0.001142	11.415955	3.867830	-0.091148
1500	7.4950e-01	-19.9037	-137.841227	0.000606	6.061569	2.053715	-0.048397
1501	7.5000e-01	-19.9502	-138.103379	0.000657	6.566700	2.224858	-0.052430
1502	7.5050e-01	-19.9583	-138.167908	0.000162	1.616418	0.547657	-0.012906
1503	7.5100e-01	-19.9406	-138.216306	-0.000121	-1.212314	-0.410743	-0.009679
1504	7.5150e-01	-19.8973	-138.369563	-0.000384	-3.838994	-1.300686	-0.030652
1505	7.5200e-01	-19.8684	-138.212273	0.000394	3.940020	1.334915	0.031458
1506	7.5250e-01	-19.8155	-138.050949	0.000404	4.041046	1.369143	0.032265
1507	7.5300e-01	-19.7882	-138.188074	-0.000343	-3.434889	-1.163772	-0.027425
1508	7.5350e-01	-19.7433	-137.857360	0.000828	8.284144	2.806744	0.066143
1509	7.5400e-01	-19.6968	-137.736367	0.000303	3.030785	1.026858	0.024199
1510	7.5450e-01	-19.6567	-137.808963	-0.000182	-1.818471	-0.616115	-0.014519
1511	7.5500e-01	-19.6198	-137.812996	-0.000010	-0.101026	-0.034229	-0.000807
1512	7.5550e-01	-19.5877	-137.679904	0.000333	3.333863	1.129543	0.026618
1513	7.5600e-01	-19.5347	-137.566977	0.000283	2.828732	0.958400	0.022585
1514	7.5650e-01	-19.5027	-137.429851	0.000343	3.434889	1.163772	0.027425
1515	7.5700e-01	-19.4545	-137.292726	0.000343	3.434889	1.163772	0.027425
1516	7.5750e-01	-19.4192	-137.244329	0.000121	1.212314	0.410743	0.009679
1517	7.5800e-01	-19.3727	-137.171733	0.000182	1.818471	0.616115	0.014519
1518	7.5850e-01	-19.3358	-136.768423	0.001010	10.102615	3.422859	0.080662
1519	7.5900e-01	-19.3037	-136.792622	-0.000061	-0.606157	-0.205372	-0.004840
1520	7.5950e-01	-19.2540	-136.744225	0.000121	1.212314	0.410743	0.009679
1521	7.6000e-01	-19.2251	-136.933780	-0.000475	-4.748229	-1.608744	-0.037911
1522	7.6050e-01	-19.1882	-136.711960	0.000556	5.556438	1.882572	0.044364
1523	7.6100e-01	-19.1497	-136.514338	0.000495	4.950281	1.677201	0.039524
1524	7.6150e-01	-19.0968	-136.461908	0.000131	1.313340	0.444972	0.010486
1525	7.6200e-01	-19.0727	-136.219922	0.000606	6.061569	2.053715	0.048397
1526	7.6250e-01	-19.0278	-136.320749	-0.000253	-2.525654	-0.855715	-0.020165
1527	7.6300e-01	-18.9893	-136.022300	0.000748	7.475935	2.532915	0.059690
1528	7.6350e-01	-18.9444	-135.877108	0.000364	3.636941	1.232229	0.029038
1529	7.6400e-01	-18.9059	-135.768215	0.000273	2.727706	0.924172	0.021779
1530	7.6450e-01	-18.8642	-135.836777	-0.000172	-1.717445	-0.581886	-0.013713
1531	7.6500e-01	-18.8193	-135.647222	0.000475	4.748229	1.608744	0.037911
1532	7.6550e-01	-18.7808	-135.510096	0.000343	3.434889	1.163772	0.027425
1533	7.6600e-01	-18.7471	-135.296342	0.000535	5.354386	1.814115	0.042751
1534	7.6650e-01	-18.7038	-135.179382	0.000293	2.929758	0.992629	0.023392
1535	7.6700e-01	-18.6669	-134.977727	0.000505	5.051308	1.711429	0.040331
1536	7.6750e-01	-18.6187	-134.876900	0.000253	2.525654	0.855715	0.020165
1537	7.6800e-01	-18.5850	-134.751874	0.000313	3.131811	1.061086	0.025005
1538	7.6850e-01	-18.5417	-134.691377	0.000152	1.515392	0.513429	0.012099
1539	7.6900e-01	-18.5064	-134.763973	-0.000182	-1.818471	-0.616115	-0.014519
1540	7.6950e-01	-18.4695	-134.284035	0.001202	12.022112	4.073202	0.095988
1541	7.7000e-01	-18.4230	-134.255803	0.000071	0.707183	0.239600	0.005646
1542	7.7050e-01	-18.3797	-133.933155	0.000808	8.082092	2.738287	0.064530
1543	7.7100e-01	-18.3444	-133.864592	0.000172	1.717445	0.581886	0.013713
1544	7.7150e-01	-18.3091	-133.852493	0.000030	0.303078	0.102686	0.002420
1545	7.7200e-01	-18.2530	-133.973486	-0.000303	-3.030785	-1.026858	-0.024199
1546	7.7250e-01	-18.2193	-133.747632	0.000566	5.657464	1.916801	0.045171
1547	7.7300e-01	-18.1872	-133.441117	0.000768	7.677987	2.601373	0.061303
1548	7.7350e-01	-18.1375	-133.170899	0.000677	6.768752	2.293315	0.054044
1549	7.7400e-01	-18.1038	-132.973277	0.000495	4.950281	1.677201	0.039524
1550	7.7450e-01	-18.0588	-132.924880	0.000121	1.212314	0.410743	0.009679
1551	7.7500e-01	-18.0364	-132.836152	0.000222	2.222575	0.753029	0.017746
1552	7.7550e-01	-17.9802	-132.743391	0.000232	2.323601	0.787257	0.018552
1553	7.7600e-01	-17.9433	-132.557868	0.000465	4.647203	1.574515	0.037105
1554	7.7650e-01	-17.8984	-132.364280	0.000485	4.849255	1.642972	0.038718
1555	7.7700e-01	-17.8615	-132.190856	0.000434	4.344124	1.471829	0.034685
1556	7.7750e-01	-17.8182	-131.896440	0.000737	7.374909	2.498687	0.058883
1557	7.7800e-01	-17.7861	-131.844010	0.000131	1.313340	0.444972	0.010486
1558	7.7850e-01	-17.7380	-131.569759	0.000687	6.869778	2.327544	0.054850
1559	7.7900e-01	-17.7059	-131.513296	0.000141	1.414366	0.479200	0.011293
1560	7.7950e-01	-17.6530	-131.456832	0.000141	1.414366	0.479200	0.011293
1561	7.8000e-01	-17.6337	-131.368104	0.000222	2.222575	0.753029	0.017746
1562	7.8050e-01	-17.5728	-131.275343	0.000232	2.323601	0.787257	0.018552
1563	7.8100e-01	-17.5423	-131.049489	0.000566	5.657464	1.916801	0.045171
1564	7.8150e-01	-17.4990	-131.025291	0.000061	0.606157	0.205372	0.004840
1565	7.8200e-01	-17.4637	-130.799437	0.000566	5.657464	1.916801	0.045171
1566	7.8250e-01	-17.4268	-130.448558	0.000879	8.789275	2.977887	0.070176
1567	7.8300e-01	-17.3867	-130.319499	0.000323	3.232837	1.095315	0.025812
1568	7.8350e-01	-17.3498	-130.238837	0.000202	2.020523	0.684572	0.016132
1569	7.8400e-01	-17.3033	-129.956520	0.000707	7.071831	2.396001	0.056463
1570	7.8450e-01	-17.2631	-129.863758	0.000232	2.323601	0.787257	0.018552
1571	7.8500e-01	-17.2198	-129.633872	0.000576	5.758491	1.951029	0.045977
1572	7.8550e-01	-17.1845	-129.654037	-0.000051	-0.505131	-0.171143	-0.004033
1573	7.8600e-01	-17.1444	-129.520945	0.000333	3.333863	1.129543	0.026618
1574	7.8650e-01	-17.0963	-129.250727	0.000677	6.768752	2.293315	0.054044
1575	7.8700e-01	-17.0546	-129.085370	0.000414	4.142072	1.403372	0.033071
1576	7.8750e-01	-17.0193	-128.972444	0.000283	2.828732	0.958400	0.022585
1577	7.8800e-01	-16.9840	-128.722392	0.000626	6.263621	2.122172	0.050010
1578	7.8850e-01	-16.9327	-128.496538	0.000566	5.657464	1.916801	0.045171
1579	7.8900e-01	-16.9022	-128.387644	0.000273	2.727706	0.924172	0.021779
1580	7.8950e-01	-16.8605	-128.198089	0.000475	4.748229	1.608744	0.037911
1581	7.9000e-01	-16.8156	-127.968202	0.000576	5.758491	1.951029	0.045977
1582	7.9050e-01	-16.7803	-127.758481	0.000525	5.253360	1.779886	0.041944
1583	7.9100e-01	-16.7450	-127.722183	0.000091	0.909235	0.308057	0.007260
1584	7.9150e-01	-16.7017	-127.722183	0.000000	0.000000	0.000000	0.000000
1585	7.9200e-01	-16.6648	-127.330973	0.000980	9.799537	3.320173	0.078242
1586	7.9250e-01	-16.6215	-127.258377	0.000182	1.818471	0.616115	0.014519
1587	7.9300e-01	-16.5894	-127.137384	0.000303	3.030785	1.026858	0.024199
1588	7.9350e-01	-16.5348	-127.036556	0.000253	2.525654	0.855715	0.020165
1589	7.9400e-01	-16.4963	-126.645346	0.000980	9.799537	3.320173	0.078242
1590	7.9450e-01	-16.4610	-126.399327	0.000616	6.162595	2.087944	0.049204
1591	7.9500e-01	-16.4273	-126.217837	0.000455	4.546177	1.540286	0.036298
1592	7.9550e-01	-16.3808	-126.282367	-0.000162	-1.616418	-0.547657	-0.012906
1593	7.9600e-01	-16.3359	-125.899223	0.000960	9.597484	3.251716	0.076629
1594	7.9650e-01	-16.2990	-125.830660	0.000172	1.717445	0.581886	0.013713
1595	7.9700e-01	-16.2669	-125.576575	0.000636	6.364648	2.156401	0.050817
1596	7.9750e-01	-16.2204	-125.479780	0.000242	2.424628	0.821486	0.019359
1597	7.9800e-01	-16.1851	-125.318456	0.000404	4.041046	1.369143	0.032265
1598	7.9850e-01	-16.1402	-124.967577	0.000879	8.789275	2.977887	0.070176
1599	7.9900e-01	-16.0969	-124.931279	0.000091	0.909235	0.308057	0.007260
1600	7.9950e-01	-16.0632	-124.632830	0.000748	7.475935	2.532915	0.059690
1601	8.0000e-01	-16.0151	-124.644929	-0.000030	-0.303078	-0.102686	-0.002420
1602	8.0050e-01	-15.9894	-124.423108	0.000556	5.556438	1.882572	0.044364
1603	8.0100e-01	-15.9397	-124.193222	0.000576	5.758491	1.951029	0.045977
1604	8.0150e-01	-15.8947	-123.906872	0.000717	7.172857	2.430230	0.057270
1605	8.0200e-01	-15.8643	-123.725382	0.000455	4.546177	1.540286	0.036298
1606	8.0250e-01	-15.8129	-123.451132	0.000687	6.869778	2.327544	0.054850
1607	8.0300e-01	-15.7808	-123.491463	-0.000101	-1.010262	-0.342286	-0.008066
1608	8.0350e-01	-15.7423	-123.394668	0.000242	2.424628	0.821486	0.019359
1609	8.0400e-01	-15.7038	-123.152682	0.000606	6.061569	2.053715	0.048397
1610	8.0450e-01	-15.6589	-122.777604	0.000940	9.395432	3.183259	0.075016
1611	8.0500e-01	-15.6300	-122.575949	0.000505	5.051308	1.711429	0.040331
1612	8.0550e-01	-15.5803	-122.450923	0.000313	3.131811	1.061086	0.025005
1613	8.0600e-01	-15.5402	-122.253301	0.000495	4.950281	1.677201	0.039524
1614	8.0650e-01	-15.5033	-122.128275	0.000313	3.131811	1.061086	0.025005
1615	8.0700e-01	-15.4616	-121.854025	0.000687	6.869778	2.327544	0.054850
1616	8.0750e-01	-15.4279	-121.603973	0.000626	6.263621	2.122172	0.050010
1617	8.0800e-01	-15.3878	-121.370053	0.000586	5.859517	1.985258	0.046784
1618	8.0850e-01	-15.3349	-121.390218	-0.000051	-0.505131	-0.171143	-0.004033
1619	8.0900e-01	-15.3028	-121.128067	0.000657	6.566700	2.224858	0.052430
1620	8.0950e-01	-15.2595	-121.019173	0.000273	2.727706	0.924172	0.021779
1621	8.1000e-01	-15.2178	-120.640062	0.000950	9.496458	3.217487	0.075822
1622	8.1050e-01	-15.1760	-120.406142	0.000586	5.859517	1.985258	0.046784
1623	8.1100e-01	-15.1359	-120.135925	0.000677	6.768752	2.293315	0.054044
1624	8.1150e-01	-15.0990	-119.990733	0.000364	3.636941	1.232229	0.029038
1625	8.1200e-01	-15.0702	-119.748747	0.000606	6.061569	2.053715	0.048397
1626	8.1250e-01	-15.0172	-119.740681	0.000020	0.202052	0.068457	0.001613
1627	8.1300e-01	-14.9787	-119.781012	-0.000101	-1.010262	-0.342286	-0.008066
1628	8.1350e-01	-14.9370	-119.514827	0.000667	6.667726	2.259087	0.053237
1629	8.1400e-01	-14.9065	-119.357537	0.000394	3.940020	1.334915	0.031458
1630	8.1450e-01	-14.8584	-119.051021	0.000768	7.677987	2.601373	0.061303
1631	8.1500e-01	-14.8151	-118.913896	0.000343	3.434889	1.163772	0.027425
1632	8.1550e-01	-14.7798	-118.841300	0.000182	1.818471	0.616115	0.014519
1633	8.1600e-01	-14.7477	-118.474288	0.000919	9.193380	3.114801	0.073402
1634	8.1650e-01	-14.6980	-118.300865	0.000434	4.344124	1.471829	0.034685
1635	8.1700e-01	-14.6531	-117.941919	0.000899	8.991327	3.046344	0.071789
1636	8.1750e-01	-14.6178	-117.945952	-0.000010	-0.101026	-0.034229	-0.000807
1637	8.1800e-01	-14.5793	-117.582973	0.000909	9.092354	3.080573	0.072596
1638	8.1850e-01	-14.5472	-117.582973	0.000000	0.000000	0.000000	0.000000
1639	8.1900e-01	-14.4991	-117.433749	0.000374	3.737968	1.266458	0.029845
1640	8.1950e-01	-14.4590	-117.010273	0.001061	10.607746	3.594002	0.084695
1641	8.2000e-01	-14.4317	-116.731989	0.000697	6.970804	2.361772	0.055657
1642	8.2050e-01	-14.3916	-116.586798	0.000364	3.636941	1.232229	0.029038
1643	8.2100e-01	-14.3467	-116.453706	0.000333	3.333863	1.129543	0.026618
1644	8.2150e-01	-14.3049	-116.288349	0.000414	4.142072	1.403372	0.033071
1645	8.2200e-01	-14.2584	-116.058462	0.000576	5.758491	1.951029	0.045977
1646	8.2250e-01	-14.2247	-116.022164	0.000091	0.909235	0.308057	0.007260
1647	8.2300e-01	-14.1830	-115.792277	0.000576	5.758491	1.951029	0.045977
1648	8.2350e-01	-14.1381	-115.570457	0.000556	5.556438	1.882572	0.044364
1649	8.2400e-01	-14.1092	-115.082452	0.001222	12.224164	4.141659	0.097601
1650	8.2450e-01	-14.0611	-114.675109	0.001020	10.203641	3.457087	0.081469
1651	8.2500e-01	-14.0146	-114.812234	-0.000343	-3.434889	-1.163772	-0.027425
1652	8.2550e-01	-13.9921	-114.501686	0.000778	7.779014	2.635601	0.062110
1653	8.2600e-01	-13.9520	-114.376660	0.000313	3.131811	1.061086	0.025005
1654	8.2650e-01	-13.9007	-114.340362	0.000091	0.909235	0.308057	0.007260
1655	8.2700e-01	-13.8734	-113.840258	0.001253	12.527243	4.244345	0.100021
1656	8.2750e-01	-13.8269	-113.533742	0.000768	7.677987	2.601373	0.061303
1657	8.2800e-01	-13.7788	-113.561974	-0.000071	-0.707183	-0.239600	-0.005646
1658	8.2850e-01	-13.7451	-113.428882	0.000333	3.333863	1.129543	0.026618
1659	8.2900e-01	-13.7066	-113.138499	0.000727	7.273883	2.464458	0.058077
1660	8.2950e-01	-13.6552	-112.823917	0.000788	7.880040	2.669830	0.062916
1661	8.3000e-01	-13.6264	-112.602096	0.000556	5.556438	1.882572	0.044364
1662	8.3050e-01	-13.5830	-112.598063	0.000010	0.101026	0.034229	0.000807
1663	8.3100e-01	-13.5477	-112.295581	0.000758	7.576961	2.567144	0.060496
1664	8.3150e-01	-13.5044	-112.146356	0.000374	3.737968	1.266458	0.029845
1665	8.3200e-01	-13.4643	-111.851940	0.000737	7.374909	2.498687	0.058883
1666	8.3250e-01	-13.4194	-111.722881	0.000323	3.232837	1.095315	0.025812
1667	8.3300e-01	-13.3857	-111.561557	0.000404	4.041046	1.369143	0.032265
1668	8.3350e-01	-13.3360	-111.380068	0.000455	4.546177	1.540286	0.036298
1669	8.3400e-01	-13.2943	-110.912228	0.001172	11.719033	3.970516	0.093568
1670	8.3450e-01	-13.2654	-110.819467	0.000232	2.323601	0.787257	0.018552
1671	8.3500e-01	-13.2141	-110.577481	0.000606	6.061569	2.053715	0.048397
1672	8.3550e-01	-13.1772	-110.549249	0.000071	0.707183	0.239600	0.005646
1673	8.3600e-01	-13.1355	-110.154006	0.000990	9.900563	3.354401	0.079049
1674	8.3650e-01	-13.0937	-110.117708	0.000091	0.909235	0.308057	0.007260
1675	8.3700e-01	-13.0617	-109.835391	0.000707	7.071831	2.396001	0.056463
1676	8.3750e-01	-13.0167	-109.581306	0.000636	6.364648	2.156401	0.050817
1677	8.3800e-01	-12.9863	-109.242525	0.000849	8.486197	2.875201	0.067756
1678	8.3850e-01	-12.9365	-109.077168	0.000414	4.142072	1.403372	0.033071
1679	8.3900e-01	-12.9093	-108.564965	0.001283	12.830321	4.347030	0.102441
1680	8.3950e-01	-12.8611	-108.722256	-0.000394	-3.940020	-1.334915	-0.031458
1681	8.4000e-01	-12.8210	-108.573031	0.000374	3.737968	1.266458	0.029845
1682	8.4050e-01	-12.7825	-108.423806	0.000374	3.737968	1.266458	0.029845
1683	8.4100e-01	-12.7456	-108.274582	0.000374	3.737968	1.266458	0.029845
1684	8.4150e-01	-12.7055	-108.000331	0.000687	6.869778	2.327544	0.054850
1685	8.4200e-01	-12.6622	-107.895470	0.000263	2.626680	0.889943	0.020972
1686	8.4250e-01	-12.6269	-107.427631	0.001172	11.719033	3.970516	0.093568
1687	8.4300e-01	-12.5932	-107.020288	0.001020	10.203641	3.457087	0.081469
1688	8.4350e-01	-12.5419	-106.935593	0.000212	2.121549	0.718800	0.016939
1689	8.4400e-01	-12.5082	-106.612945	0.000808	8.082092	2.738287	0.064530
1690	8.4450e-01	-12.4649	-106.685541	-0.000182	-1.818471	-0.616115	-0.014519
1691	8.4500e-01	-12.4216	-106.544382	0.000354	3.535915	1.198001	0.028232
1692	8.4550e-01	-12.3767	-106.217701	0.000818	8.183118	2.772516	0.065336
1693	8.4600e-01	-12.3414	-105.919252	0.000748	7.475935	2.532915	0.059690
1694	8.4650e-01	-12.3045	-105.649034	0.000677	6.768752	2.293315	0.054044
1695	8.4700e-01	-12.2676	-105.564339	0.000212	2.121549	0.718800	0.016939
1696	8.4750e-01	-12.2178	-105.245725	0.000798	7.981066	2.704058	0.063723
1697	8.4800e-01	-12.1825	-104.991639	0.000636	6.364648	2.156401	0.050817
1698	8.4850e-01	-12.1473	-104.616561	0.000940	9.395432	3.183259	0.075016
1699	8.4900e-01	-12.0975	-104.439105	0.000445	4.445151	1.506058	0.035491
1700	8.4950e-01	-12.0606	-104.354410	0.000212	2.121549	0.718800	0.016939
1701	8.5000e-01	-12.0157	-104.374575	-0.000051	-0.505131	-0.171143	-0.004033
1702	8.5050e-01	-11.9916	-103.943034	0.001081	10.809798	3.662459	0.086308
1703	8.5100e-01	-11.9419	-103.777677	0.000414	4.142072	1.403372	0.033071
1704	8.5150e-01	-11.8938	-103.523591	0.000636	6.364648	2.156401	0.050817
1705	8.5200e-01	-11.8649	-103.273539	0.000626	6.263621	2.122172	0.050010
1706	8.5250e-01	-11.8264	-103.027520	0.000616	6.162595	2.087944	0.049204
1707	8.5300e-01	-11.7799	-102.620177	0.001020	10.203641	3.457087	0.081469
1708	8.5350e-01	-11.7478	-102.555648	0.000162	1.616418	0.547657	0.012906
1709	8.5400e-01	-11.7013	-102.329794	0.000566	5.657464	1.916801	0.045171
1710	8.5450e-01	-11.6612	-102.172503	0.000394	3.940020	1.334915	0.031458
1711	8.5500e-01	-11.6179	-101.982948	0.000475	4.748229	1.608744	0.037911
1712	8.5550e-01	-11.5826	-101.829690	0.000384	3.838994	1.300686	0.030652
1713	8.5600e-01	-11.5409	-101.583671	0.000616	6.162595	2.087944	0.049204
1714	8.5650e-01	-11.5040	-101.305387	0.000697	6.970804	2.361772	0.055657
1715	8.5700e-01	-11.4703	-101.006938	0.000748	7.475935	2.532915	0.059690
1716	8.5750e-01	-11.4286	-100.926276	0.000202	2.020523	0.684572	0.016132
1717	8.5800e-01	-11.3901	-100.595562	0.000828	8.284144	2.806744	0.066143
1718	8.5850e-01	-11.3403	-100.462470	0.000333	3.333863	1.129543	0.026618
1719	8.5900e-01	-11.2986	-100.155954	0.000768	7.677987	2.601373	0.061303
1720	8.5950e-01	-11.2601	-99.845406	0.000778	7.779014	2.635601	0.062110
1721	8.6000e-01	-11.2264	-99.671982	0.000434	4.344124	1.471829	0.034685
1722	8.6050e-01	-11.1799	-99.611486	0.000152	1.515392	0.513429	0.012099
1723	8.6100e-01	-11.1478	-99.425963	0.000465	4.647203	1.574515	0.037105
1724	8.6150e-01	-11.0997	-99.099282	0.000818	8.183118	2.772516	0.065336
1725	8.6200e-01	-11.0692	-98.700006	0.001000	10.001589	3.388630	0.079855
1726	8.6250e-01	-11.0211	-98.550781	0.000374	3.737968	1.266458	0.029845
1727	8.6300e-01	-10.9922	-98.050677	0.001253	12.527243	4.244345	0.100021
1728	8.6350e-01	-10.9441	-97.978081	0.000182	1.818471	0.616115	0.014519
1729	8.6400e-01	-10.9120	-97.840956	0.000343	3.434889	1.163772	0.027425
1730	8.6450e-01	-10.8687	-97.611069	0.000576	5.758491	1.951029	0.045977
1731	8.6500e-01	-10.8206	-97.425546	0.000465	4.647203	1.574515	0.037105
1732	8.6550e-01	-10.7853	-97.211792	0.000535	5.354386	1.814115	0.042751
1733	8.6600e-01	-10.7419	-97.078700	0.000333	3.333863	1.129543	0.026618
1734	8.6650e-01	-10.7083	-96.610860	0.001172	11.719033	3.970516	0.093568
1735	8.6700e-01	-10.6585	-96.469702	0.000354	3.535915	1.198001	0.028232
1736	8.6750e-01	-10.6152	-96.328544	0.000354	3.535915	1.198001	0.028232
1737	8.6800e-01	-10.5879	-95.945399	0.000960	9.597484	3.251716	0.076629
1738	8.6850e-01	-10.5398	-95.820373	0.000313	3.131811	1.061086	0.025005
1739	8.6900e-01	-10.5045	-95.655016	0.000414	4.142072	1.403372	0.033071
1740	8.6950e-01	-10.4580	-95.263806	0.000980	9.799537	3.320173	0.078242
1741	8.7000e-01	-10.4195	-95.167011	0.000242	2.424628	0.821486	0.019359
1742	8.7050e-01	-10.3762	-95.082316	0.000212	2.121549	0.718800	0.016939
1743	8.7100e-01	-10.3393	-94.570113	0.001283	12.830321	4.347030	0.102441
1744	8.7150e-01	-10.3088	-94.299895	0.000677	6.768752	2.293315	0.054044
1745	8.7200e-01	-10.2623	-94.061942	0.000596	5.960543	2.019487	0.047591
1746	8.7250e-01	-10.2238	-93.836089	0.000566	5.657464	1.916801	0.045171
1747	8.7300e-01	-10.1821	-93.598136	0.000596	5.960543	2.019487	0.047591
1748	8.7350e-01	-10.1420	-93.501341	0.000242	2.424628	0.821486	0.019359
1749	8.7400e-01	-10.1035	-93.146429	0.000889	8.890301	3.012116	0.070983
1750	8.7450e-01	-10.0537	-92.956873	0.000475	4.748229	1.608744	0.037911
1751	8.7500e-01	-10.0152	-92.722953	0.000586	5.859517	1.985258	0.046784
1752	8.7550e-01	-9.9799	-92.513232	0.000525	5.253360	1.779886	0.041944
1753	8.7600e-01	-9.9446	-92.182518	0.000828	8.284144	2.806744	0.066143
1754	8.7650e-01	-9.9029	-91.908267	0.000687	6.869778	2.327544	0.054850
1755	8.7700e-01	-9.8548	-91.654182	0.000636	6.364648	2.156401	0.050817
1756	8.7750e-01	-9.8163	-91.383965	0.000677	6.768752	2.293315	0.054044
1757	8.7800e-01	-9.7810	-91.041151	0.000859	8.587223	2.909430	0.068563
1758	8.7850e-01	-9.7425	-90.972589	0.000172	1.717445	0.581886	0.013713
1759	8.7900e-01	-9.7024	-90.839496	0.000333	3.333863	1.129543	0.026618
1760	8.7950e-01	-9.6559	-90.500716	0.000849	8.486197	2.875201	0.067756
1761	8.8000e-01	-9.6238	-90.186134	0.000788	7.880040	2.669830	0.062916
1762	8.8050e-01	-9.5885	-89.895751	0.000727	7.273883	2.464458	0.058077
1763	8.8100e-01	-9.5484	-89.677964	0.000546	5.455412	1.848344	0.043557
1764	8.8150e-01	-9.5083	-89.403713	0.000687	6.869778	2.327544	0.054850
1765	8.8200e-01	-9.4553	-89.254489	0.000374	3.737968	1.266458	0.029845
1766	8.8250e-01	-9.4249	-88.956039	0.000748	7.475935	2.532915	0.059690
1767	8.8300e-01	-9.3799	-88.831013	0.000313	3.131811	1.061086	0.025005
1768	8.8350e-01	-9.3463	-88.802782	0.000071	0.707183	0.239600	0.005646
1769	8.8400e-01	-9.2965	-88.504332	0.000748	7.475935	2.532915	0.059690
1770	8.8450e-01	-9.2693	-88.020360	0.001212	12.123138	4.107430	0.096794
1771	8.8500e-01	-9.2259	-87.750143	0.000677	6.768752	2.293315	0.054044
1772	8.8550e-01	-9.1794	-87.701746	0.000121	1.212314	0.410743	0.009679
1773	8.8600e-01	-9.1377	-87.415396	0.000717	7.172857	2.430230	0.057270
1774	8.8650e-01	-9.1056	-86.987887	0.001071	10.708772	3.628230	0.085502
1775	8.8700e-01	-9.0687	-87.028218	-0.000101	-1.010262	-0.342286	-0.008066
1776	8.8750e-01	-9.0174	-86.620875	0.001020	10.203641	3.457087	0.081469
1777	8.8800e-01	-8.9837	-86.318393	0.000758	7.576961	2.567144	0.060496
1778	8.8850e-01	-8.9484	-86.040109	0.000697	6.970804	2.361772	0.055657
1779	8.8900e-01	-8.8907	-85.790057	0.000626	6.263621	2.122172	0.050010
1780	8.8950e-01	-8.8618	-85.592435	0.000495	4.950281	1.677201	0.039524
1781	8.9000e-01	-8.8281	-85.261721	0.000828	8.284144	2.806744	0.066143
1782	8.9050e-01	-8.7896	-85.285920	-0.000061	-0.606157	-0.205372	-0.004840
1783	8.9100e-01	-8.7415	-84.979404	0.000768	7.677987	2.601373	0.061303
1784	8.9150e-01	-8.6982	-84.672889	0.000768	7.677987	2.601373	0.061303
1785	8.9200e-01	-8.6693	-84.443002	0.000576	5.758491	1.951029	0.045977
1786	8.9250e-01	-8.6228	-84.205049	0.000596	5.960543	2.019487	0.047591
1787	8.9300e-01	-8.5907	-83.870302	0.000839	8.385171	2.840973	0.066949
1788	8.9350e-01	-8.5441	-83.753342	0.000293	2.929758	0.992629	0.023392
1789	8.9400e-01	-8.4960	-83.652515	0.000253	2.525654	0.855715	0.020165
1790	8.9450e-01	-8.4543	-83.132245	0.001303	13.032373	4.415488	0.104054
1791	8.9500e-01	-8.4302	-82.797498	0.000839	8.385171	2.840973	0.066949
1792	8.9550e-01	-8.3805	-82.797498	0.000000	0.000000	0.000000	0.000000
1793	8.9600e-01	-8.3484	-82.454684	0.000859	8.587223	2.909430	0.068563
1794	8.9650e-01	-8.3003	-82.156235	0.000748	7.475935	2.532915	0.059690
1795	8.9700e-01	-8.2602	-81.962646	0.000485	4.849255	1.642972	0.038718
1796	8.9750e-01	-8.2137	-81.696462	0.000667	6.667726	2.259087	0.053237
1797	8.9800e-01	-8.1832	-81.583535	0.000283	2.828732	0.958400	0.022585
1798	8.9850e-01	-8.1527	-81.164093	0.001051	10.506720	3.559773	0.083888
1799	8.9900e-01	-8.1014	-81.010835	0.000384	3.838994	1.300686	0.030652
1800	8.9950e-01	-8.0581	-80.583327	0.001071	10.708772	3.628230	0.085502
1801	9.0000e-01	-8.0212	-80.438135	0.000364	3.636941	1.232229	0.029038
1802	9.0050e-01	-7.9778	-80.159851	0.000697	6.970804	2.361772	0.055657
1803	9.0100e-01	-7.9361	-79.974329	0.000465	4.647203	1.574515	0.037105
1804	9.0150e-01	-7.9073	-79.776707	0.000495	4.950281	1.677201	0.039524
1805	9.0200e-01	-7.8704	-79.663780	0.000283	2.828732	0.958400	0.022585
1806	9.0250e-01	-7.8238	-79.320967	0.000859	8.587223	2.909430	0.068563
1807	9.0300e-01	-7.7789	-79.163676	0.000394	3.940020	1.334915	0.031458
1808	9.0350e-01	-7.7436	-78.832962	0.000828	8.284144	2.806744	0.066143
1809	9.0400e-01	-7.7035	-78.328825	0.001263	12.628269	4.278573	0.100827
1810	9.0450e-01	-7.6618	-78.034408	0.000737	7.374909	2.498687	0.058883
1811	9.0500e-01	-7.6281	-77.856952	0.000445	4.445151	1.506058	0.035491
1812	9.0550e-01	-7.5864	-77.639165	0.000546	5.455412	1.848344	0.043557
1813	9.0600e-01	-7.5463	-77.437510	0.000505	5.051308	1.711429	0.040331
1814	9.0650e-01	-7.5014	-77.284252	0.000384	3.838994	1.300686	0.030652
1815	9.0700e-01	-7.4597	-76.921273	0.000909	9.092354	3.080573	0.072596
1816	9.0750e-01	-7.4260	-76.663155	0.000647	6.465674	2.190630	0.051624
1817	9.0800e-01	-7.3811	-76.445367	0.000546	5.455412	1.848344	0.043557
1818	9.0850e-01	-7.3410	-76.223547	0.000556	5.556438	1.882572	0.044364
1819	9.0900e-01	-7.3041	-75.763774	0.001152	11.516981	3.902059	0.091955
1820	9.0950e-01	-7.2575	-75.509689	0.000636	6.364648	2.156401	0.050817
1821	9.1000e-01	-7.2207	-75.271736	0.000596	5.960543	2.019487	0.047591
1822	9.1050e-01	-7.1789	-75.074114	0.000495	4.950281	1.677201	0.039524
1823	9.1100e-01	-7.1453	-74.759532	0.000788	7.880040	2.669830	0.062916
1824	9.1150e-01	-7.1035	-74.465116	0.000737	7.374909	2.498687	0.058883
1825	9.1200e-01	-7.0634	-74.134402	0.000828	8.284144	2.806744	0.066143
1826	9.1250e-01	-7.0281	-73.924681	0.000525	5.253360	1.779886	0.041944
1827	9.1300e-01	-6.9752	-73.678662	0.000616	6.162595	2.087944	0.049204
1828	9.1350e-01	-6.9383	-73.549603	0.000323	3.232837	1.095315	0.025812
1829	9.1400e-01	-6.8998	-73.275352	0.000687	6.869778	2.327544	0.054850
1830	9.1450e-01	-6.8517	-73.081763	0.000485	4.849255	1.642972	0.038718
1831	9.1500e-01	-6.8212	-72.755082	0.000818	8.183118	2.772516	0.065336
1832	9.1550e-01	-6.7843	-72.573593	0.000455	4.546177	1.540286	0.036298
1833	9.1600e-01	-6.7378	-72.206581	0.000919	9.193380	3.114801	0.073402
1834	9.1650e-01	-6.7073	-71.924264	0.000707	7.071831	2.396001	0.056463
1835	9.1700e-01	-6.6608	-71.629848	0.000737	7.374909	2.498687	0.058883
1836	9.1750e-01	-6.6239	-71.399961	0.000576	5.758491	1.951029	0.045977
1837	9.1800e-01	-6.5758	-71.287034	0.000283	2.828732	0.958400	0.022585
1838	9.1850e-01	-6.5421	-70.907923	0.000950	9.496458	3.217487	0.075822
1839	9.1900e-01	-6.5148	-70.750632	0.000394	3.940020	1.334915	0.031458
1840	9.1950e-01	-6.4554	-70.266660	0.001212	12.123138	4.107430	0.096794
1841	9.2000e-01	-6.4185	-70.311024	-0.000111	-1.111288	-0.376514	-0.008873
1842	9.2050e-01	-6.3768	-69.859317	0.001131	11.314929	3.833602	0.090341
1843	9.2100e-01	-6.3496	-69.480206	0.000950	9.496458	3.217487	0.075822
1844	9.2150e-01	-6.3062	-69.363246	0.000293	2.929758	0.992629	0.023392
1845	9.2200e-01	-6.2709	-69.101095	0.000657	6.566700	2.224858	0.052430
1846	9.2250e-01	-6.2244	-68.693752	0.001020	10.203641	3.457087	0.081469
1847	9.2300e-01	-6.1859	-68.496130	0.000495	4.950281	1.677201	0.039524
1848	9.2350e-01	-6.1378	-68.193648	0.000758	7.576961	2.567144	0.060496
1849	9.2400e-01	-6.0993	-67.766139	0.001071	10.708772	3.628230	0.085502
1850	9.2450e-01	-6.0624	-67.733874	0.000081	0.808209	0.273829	0.006453
1851	9.2500e-01	-6.0127	-67.512054	0.000556	5.556438	1.882572	0.044364
1852	9.2550e-01	-5.9918	-67.145042	0.000919	9.193380	3.114801	0.073402
1853	9.2600e-01	-5.9389	-66.822394	0.000808	8.082092	2.738287	0.064530
1854	9.2650e-01	-5.9020	-66.515879	0.000768	7.677987	2.601373	0.061303
1855	9.2700e-01	-5.8667	-66.318257	0.000495	4.950281	1.677201	0.039524
1856	9.2750e-01	-5.8218	-66.080304	0.000596	5.960543	2.019487	0.047591
1857	9.2800e-01	-5.7849	-65.802020	0.000697	6.970804	2.361772	0.055657
1858	9.2850e-01	-5.7367	-65.681027	0.000303	3.030785	1.026858	0.024199
1859	9.2900e-01	-5.7063	-65.160758	0.001303	13.032373	4.415488	0.104054
1860	9.2950e-01	-5.6597	-64.987334	0.000434	4.344124	1.471829	0.034685
1861	9.3000e-01	-5.6212	-64.539660	0.001121	11.213903	3.799373	0.089535
1862	9.3050e-01	-5.5843	-64.394469	0.000364	3.636941	1.232229	0.029038
1863	9.3100e-01	-5.5426	-64.100053	0.000737	7.374909	2.498687	0.058883
1864	9.3150e-01	-5.5025	-63.850001	0.000626	6.263621	2.122172	0.050010
1865	9.3200e-01	-5.4656	-63.696743	0.000384	3.838994	1.300686	0.030652
1866	9.3250e-01	-5.4239	-63.382161	0.000788	7.880040	2.669830	0.062916
1867	9.3300e-01	-5.3790	-63.059513	0.000808	8.082092	2.738287	0.064530
1868	9.3350e-01	-5.3469	-62.748965	0.000778	7.779014	2.635601	0.062110
1869	9.3400e-01	-5.3052	-62.535210	0.000535	5.354386	1.814115	0.042751
1870	9.3450e-01	-5.2603	-62.248860	0.000717	7.172857	2.430230	0.057270
1871	9.3500e-01	-5.2250	-62.027040	0.000556	5.556438	1.882572	0.044364
1872	9.3550e-01	-5.1801	-61.684227	0.000859	8.587223	2.909430	0.068563
1873	9.3600e-01	-5.1496	-61.490638	0.000485	4.849255	1.642972	0.038718
1874	9.3650e-01	-5.1047	-61.135725	0.000889	8.890301	3.012116	0.070983
1875	9.3700e-01	-5.0662	-61.010699	0.000313	3.131811	1.061086	0.025005
1876	9.3750e-01	-5.0132	-60.647720	0.000909	9.092354	3.080573	0.072596
1877	9.3800e-01	-4.9731	-60.502529	0.000364	3.636941	1.232229	0.029038
1878	9.3850e-01	-4.9394	-60.058888	0.001111	11.112877	3.765145	0.088728
1879	9.3900e-01	-4.9041	-59.607181	0.001131	11.314929	3.833602	0.090341
1880	9.3950e-01	-4.8672	-59.163540	0.001111	11.112877	3.765145	0.088728
1881	9.4000e-01	-4.8336	-58.953819	0.000525	5.253360	1.779886	0.041944
1882	9.4050e-01	-4.7758	-58.752164	0.000505	5.051308	1.711429	0.040331
1883	9.4100e-01	-4.7421	-58.502112	0.000626	6.263621	2.122172	0.050010
1884	9.4150e-01	-4.6988	-58.308523	0.000485	4.849255	1.642972	0.038718
1885	9.4200e-01	-4.6635	-58.094769	0.000535	5.354386	1.814115	0.042751
1886	9.4250e-01	-4.6218	-57.872948	0.000556	5.556438	1.882572	0.044364
1887	9.4300e-01	-4.5721	-57.538201	0.000839	8.385171	2.840973	0.066949
1888	9.4350e-01	-4.5368	-57.296215	0.000606	6.061569	2.053715	0.048397
1889	9.4400e-01	-4.5095	-56.981634	0.000788	7.880040	2.669830	0.062916
1890	9.4450e-01	-4.4742	-56.667052	0.000788	7.880040	2.669830	0.062916
1891	9.4500e-01	-4.4293	-56.421033	0.000616	6.162595	2.087944	0.049204
1892	9.4550e-01	-4.3844	-56.066120	0.000889	8.890301	3.012116	0.070983
1893	9.4600e-01	-4.3443	-55.876565	0.000475	4.748229	1.608744	0.037911
1894	9.4650e-01	-4.3042	-55.678943	0.000495	4.950281	1.677201	0.039524
1895	9.4700e-01	-4.2705	-55.243368	0.001091	10.910824	3.696687	0.087115
1896	9.4750e-01	-4.2223	-54.961051	0.000707	7.071831	2.396001	0.056463
1897	9.4800e-01	-4.1919	-54.755363	0.000515	5.152334	1.745658	0.041138
1898	9.4850e-01	-4.1421	-54.606139	0.000374	3.737968	1.266458	0.029845
1899	9.4900e-01	-4.1068	-54.053604	0.001384	13.840583	4.689316	0.110507
1900	9.4950e-01	-4.0603	-53.666427	0.000970	9.698510	3.285944	0.077435
1901	9.5000e-01	-4.0202	-53.613996	0.000131	1.313340	0.444972	0.010486
1902	9.5050e-01	-3.9833	-53.182455	0.001081	10.809798	3.662459	0.086308
1903	9.5100e-01	-3.9400	-52.879972	0.000758	7.576961	2.567144	0.060496
1904	9.5150e-01	-3.8967	-52.847708	0.000081	0.808209	0.273829	0.006453
1905	9.5200e-01	-3.8630	-52.670251	0.000445	4.445151	1.506058	0.035491
1906	9.5250e-01	-3.8277	-52.287107	0.000960	9.597484	3.251716	0.076629
1907	9.5300e-01	-3.7876	-51.787003	0.001253	12.527243	4.244345	0.100021
1908	9.5350e-01	-3.7475	-51.625679	0.000404	4.041046	1.369143	0.032265
1909	9.5400e-01	-3.6945	-51.186071	0.001101	11.011850	3.730916	0.087922
1910	9.5450e-01	-3.6609	-50.996515	0.000475	4.748229	1.608744	0.037911
1911	9.5500e-01	-3.6208	-50.625470	0.000929	9.294406	3.149030	0.074209
1912	9.5550e-01	-3.5887	-50.391550	0.000586	5.859517	1.985258	0.046784
1913	9.5600e-01	-3.5438	-50.165697	0.000566	5.657464	1.916801	0.045171
1914	9.5650e-01	-3.5069	-49.722056	0.001111	11.112877	3.765145	0.088728
1915	9.5700e-01	-3.4667	-49.314713	0.001020	10.203641	3.457087	0.081469
1916	9.5750e-01	-3.4186	-49.234051	0.000202	2.020523	0.684572	0.016132
1917	9.5800e-01	-3.3801	-49.141290	0.000232	2.323601	0.787257	0.018552
1918	9.5850e-01	-3.3416	-48.701682	0.001101	11.011850	3.730916	0.087922
1919	9.5900e-01	-3.3015	-48.379034	0.000808	8.082092	2.738287	0.064530
1920	9.5950e-01	-3.2566	-48.254008	0.000313	3.131811	1.061086	0.025005
1921	9.6000e-01	-3.2293	-47.850698	0.001010	10.102615	3.422859	0.080662
1922	9.6050e-01	-3.1764	-47.596613	0.000636	6.364648	2.156401	0.050817
1923	9.6100e-01	-3.1411	-47.229601	0.000919	9.193380	3.114801	0.073402
1924	9.6150e-01	-3.1010	-46.862589	0.000919	9.193380	3.114801	0.073402
1925	9.6200e-01	-3.0657	-46.777894	0.000212	2.121549	0.718800	0.016939
1926	9.6250e-01	-3.0272	-46.487511	0.000727	7.273883	2.464458	0.058077
1927	9.6300e-01	-2.9855	-46.132598	0.000889	8.890301	3.012116	0.070983
1928	9.6350e-01	-2.9438	-45.991440	0.000354	3.535915	1.198001	0.028232
1929	9.6400e-01	-2.8956	-45.705090	0.000717	7.172857	2.430230	0.057270
1930	9.6450e-01	-2.8603	-45.225151	0.001202	12.022112	4.073202	0.095988
1931	9.6500e-01	-2.8267	-45.051728	0.000434	4.344124	1.471829	0.034685
1932	9.6550e-01	-2.7801	-44.789577	0.000657	6.566700	2.224858	0.052430
1933	9.6600e-01	-2.7464	-44.156380	0.001586	15.861106	5.373888	0.126639
1934	9.6650e-01	-2.7015	-43.958758	0.000495	4.950281	1.677201	0.039524
1935	9.6700e-01	-2.6630	-43.789368	0.000424	4.243098	1.437601	0.033878
1936	9.6750e-01	-2.6213	-43.490919	0.000748	7.475935	2.532915	0.059690
1937	9.6800e-01	-2.5700	-43.313462	0.000445	4.445151	1.506058	0.035491
1938	9.6850e-01	-2.5315	-43.023079	0.000727	7.273883	2.464458	0.058077
1939	9.6900e-01	-2.5058	-42.474578	0.001374	13.739557	4.655088	0.109700
1940	9.6950e-01	-2.4657	-42.022871	0.001131	11.314929	3.833602	0.090341
1941	9.7000e-01	-2.4192	-41.885746	0.000343	3.434889	1.163772	0.027425
1942	9.7050e-01	-2.3839	-41.700223	0.000465	4.647203	1.574515	0.037105
1943	9.7100e-01	-2.3358	-41.478403	0.000556	5.556438	1.882572	0.044364
1944	9.7150e-01	-2.2973	-41.264648	0.000535	5.354386	1.814115	0.042751
1945	9.7200e-01	-2.2700	-40.845206	0.001051	10.506720	3.559773	0.083888
1946	9.7250e-01	-2.2219	-40.574988	0.000677	6.768752	2.293315	0.054044
1947	9.7300e-01	-2.1834	-40.111182	0.001162	11.618007	3.936287	0.092761
1948	9.7350e-01	-2.1433	-39.728038	0.000960	9.597484	3.251716	0.076629
1949	9.7400e-01	-2.1064	-39.457820	0.000677	6.768752	2.293315	0.054044
1950	9.7450e-01	-2.0566	-39.231967	0.000566	5.657464	1.916801	0.045171
1951	9.7500e-01	-2.0261	-38.864955	0.000919	9.193380	3.114801	0.073402
1952	9.7550e-01	-1.9748	-38.852855	0.000030	0.303078	0.102686	0.002420
1953	9.7600e-01	-1.9427	-38.526174	0.000818	8.183118	2.772516	0.065336
1954	9.7650e-01	-1.8962	-38.098666	0.001071	10.708772	3.628230	0.085502
1955	9.7700e-01	-1.8721	-37.711488	0.000970	9.698510	3.285944	0.077435
1956	9.7750e-01	-1.8368	-37.529999	0.000455	4.546177	1.540286	0.036298
1957	9.7800e-01	-1.7919	-37.243649	0.000717	7.172857	2.430230	0.057270
1958	9.7850e-01	-1.7422	-36.711280	0.001334	13.335452	4.518173	0.106474
1959	9.7900e-01	-1.7021	-36.747578	-0.000091	-0.909235	-0.308057	-0.007260
1960	9.7950e-01	-1.6604	-36.441062	0.000768	7.677987	2.601373	0.061303
1961	9.8000e-01	-1.6187	-36.045819	0.000990	9.900563	3.354401	0.079049
1962	9.8050e-01	-1.5802	-35.626377	0.001051	10.506720	3.559773	0.083888
1963	9.8100e-01	-1.5449	-35.247265	0.000950	9.496458	3.217487	0.075822
1964	9.8150e-01	-1.5096	-34.884286	0.000909	9.092354	3.080573	0.072596
1965	9.8200e-01	-1.4615	-34.775393	0.000273	2.727706	0.924172	0.021779
1966	9.8250e-01	-1.4246	-34.545506	0.000576	5.758491	1.951029	0.045977
1967	9.8300e-01	-1.3845	-34.214792	0.000828	8.284144	2.806744	0.066143
1968	9.8350e-01	-1.3363	-34.081700	0.000333	3.333863	1.129543	0.026618
1969	9.8400e-01	-1.3058	-33.771151	0.000778	7.779014	2.635601	0.062110
1970	9.8450e-01	-1.2545	-33.383974	0.000970	9.698510	3.285944	0.077435
1971	9.8500e-01	-1.2192	-33.041160	0.000859	8.587223	2.909430	0.068563
1972	9.8550e-01	-1.1743	-32.730612	0.000778	7.779014	2.635601	0.062110
1973	9.8600e-01	-1.1502	-32.476526	0.000636	6.364648	2.156401	0.050817
1974	9.8650e-01	-1.0973	-31.940124	0.001344	13.436478	4.552402	0.107280
1975	9.8700e-01	-1.0588	-31.629576	0.000778	7.779014	2.635601	0.062110
1976	9.8750e-01	-1.0283	-31.262564	0.000919	9.193380	3.114801	0.073402
1977	9.8800e-01	-0.9770	-31.149637	0.000283	2.828732	0.958400	0.022585
1978	9.8850e-01	-0.9289	-31.008479	0.000354	3.535915	1.198001	0.028232
1979	9.8900e-01	-0.9064	-30.488209	0.001303	13.032373	4.415488	0.104054
1980	9.8950e-01	-0.8583	-30.246223	0.000606	6.061569	2.053715	0.048397
1981	9.9000e-01	-0.8182	-29.931641	0.000788	7.880040	2.669830	0.062916
1982	9.9050e-01	-0.7781	-29.500100	0.001081	10.809798	3.662459	0.086308
1983	9.9100e-01	-0.7460	-29.290379	0.000525	5.253360	1.779886	0.041944
1984	9.9150e-01	-0.7027	-29.185518	0.000263	2.626680	0.889943	0.020972
1985	9.9200e-01	-0.6625	-28.685414	0.001253	12.527243	4.244345	0.100021
1986	9.9250e-01	-0.6273	-28.318402	0.000919	9.193380	3.114801	0.073402
1987	9.9300e-01	-0.5807	-28.100615	0.000546	5.455412	1.848344	0.043557
1988	9.9350e-01	-0.5406	-27.802165	0.000748	7.475935	2.532915	0.059690
1989	9.9400e-01	-0.5037	-27.414988	0.000970	9.698510	3.285944	0.077435
1990	9.9450e-01	-0.4540	-27.088307	0.000818	8.183118	2.772516	0.065336
1991	9.9500e-01	-0.4315	-26.761626	0.000818	8.183118	2.772516	0.065336
1992	9.9550e-01	-0.3738	-26.463176	0.000748	7.475935	2.532915	0.059690
1993	9.9600e-01	-0.3369	-26.358316	0.000263	2.626680	0.889943	0.020972
1994	9.9650e-01	-0.2984	-25.991304	0.000919	9.193380	3.114801	0.073402
1995	9.9700e-01	-0.2647	-25.515398	0.001192	11.921086	4.038973	0.095181
1996	9.9750e-01	-0.2150	-25.216949	0.000748	7.475935	2.532915	0.059690
1997	9.9800e-01	-0.1733	-25.140320	0.000192	1.919497	0.650343	0.015326
1998	9.9850e-01	-0.1428	-24.829772	0.000778	7.779014	2.635601	0.062110
1999	9.9900e-01	-0.1027	-24.555521	0.000687	6.869778	2.327544	0.054850
2000	9.9950e-01	-0.0706	-24.123979	0.001081	10.809798	3.662459	0.086308
2001	1.0000e+00	-0.0225	-23.982821	0.001081	10.809798	3.662459	0.028232

PMax (uC/cm2):	1.47e+02
Pr (uC/cm2):	7.09e+00
-Pr (uC/cm2):	-1.49e+01
PLoss (uC/cm2):	-1.50e+01
-Vc:	-8.97e-01
C (Max-Eff) (nF):	7.38e-01
K (Eff):	2.50e+03
Vert. (+/-Pr) Shift (uC/cm2):	-3.89e+00
Offset (uC/cm2):	9.11e+00

A (Loop Area - uC/cm2·Volts):	-2.48e-01



Hysteresis Version: 5.48.1 - Radiant Technologies, Inc., 1999 - 9/12/24

