»»»»»»»»»»»»»»»»»»»»»»»»»»»»»»»»»»»» Hysteresis ««««««««««««««««««««««««««««««««««««
»»»  Executed Version:	5.48.1
»»»  Vision Version:	5.48.4 (R)
»»»  Vision Compiled:	9/18/24
»»»  Driver Version:	5.47.0
»»»  Windows Version:	Windows 8 or 8.1
»»»  Processor Information:	x86 (AMD or Intel) - 32 Processors
»»»  Tester Name:	PMF21124-494 (100V)
»»»  Tester S/N:	PMF21124-494
»»»  Internal Amp Type:	100V RevK 270k
»»»  Internal Amp S/N:	iAB2-596/K     
»»»  Execution Count:	1
»»»»»»»»»»»»»»»»»»»»»»»»»»»»»»»»»»»»»»»»»»««««««««««««««««««««««««««««««««««««««««««

Stored:	6/18/2025 - 13:59:14
Configured:	06/18/25 09:47:30 AM
Executed:	06/18/25 01:58:51 PM

»»»»»»»»»»»»»»»»»»»»»»»»»»»»»»»»»»» Sample Info ««««««««««««««««««««««««««««««««««««
Sample Name:	
Lot Name:	
Wafer Name:	
Die Row/Column:	0/0
Capacitor Number:	0
Sample Area (cm2):	1.00e-04
Sample Thickness (microns):	3.00e-01

Amplifier:	Internal

»»»»»»»»»»»»»»»»»»»»»»»»»»»»»»»»»»» Tester Info «««««««««««««««««««««««««««««««««««
Tester Name:	PMF21124-494 (100V)
Tester Serial Number:	PMF21124-494
Return Signal Amp. Level:	0.19 [Index: 3]

»»»»»»»»»»»»»»»»»»»»»»»»»»»»»»»» Hysteresis Info ««««««««««««««««««««««««««««««««««
Task Name:	Hyst-554
Volts:	20.00
Field:	666.67 (kV/cm)
DCBias:	0.00
DCField:	0.00 (kV/cm)
Hysteresis Period (ms):	1.00e+00
Preset:	Enabled
Preset Delay (ms):	1.00e+03
Profile:	Standard Bipolar

»»»»»»»»»»»»»»»»»»»»»»»»»»»»»»»»»»»»»» Data «««««««««««««««««««««««««««««««««««««««
Points:	2001

Valid Data

Point	Time (ms)	Drive Voltage	Measured Polarization (uC/cm2)	Capacitance (uF)	Normalized Capacitance (uF/cm2)	Dielectric Constant	Instantaneous Current (mA)
   1	0.0000e+00	0.0144	-14.000902	0.000212	2.121634	0.718829	0.016939
   2	5.0000e-04	0.0321	-13.916207	0.000212	2.121634	0.718829	0.016939
   3	1.0000e-03	0.0594	-13.916207	0.000000	0.000000	0.000000	0.000000
   4	1.5000e-03	0.0946	-13.787148	0.000323	3.232967	1.095359	0.025812
   5	2.0000e-03	0.1348	-13.545162	0.000606	6.061813	2.053798	0.048397
   6	2.5000e-03	0.1749	-13.371738	0.000434	4.344299	1.471888	0.034685
   7	3.0000e-03	0.2086	-13.133786	0.000596	5.960782	2.019568	0.047591
   8	3.5000e-03	0.2535	-12.895833	0.000596	5.960782	2.019568	0.047591
   9	4.0000e-03	0.2984	-12.589317	0.000768	7.678296	2.601477	0.061303
  10	4.5000e-03	0.3465	-12.359431	0.000576	5.758722	1.951108	0.045977
  11	5.0000e-03	0.3642	-12.060981	0.000748	7.476236	2.533017	0.059690
  12	5.5000e-03	0.4123	-11.794797	0.000667	6.667994	2.259177	0.053237
  13	6.0000e-03	0.4460	-11.504414	0.000727	7.274175	2.464557	0.058077
  14	6.5000e-03	0.4957	-11.165633	0.000849	8.486538	2.875317	0.067756
  15	7.0000e-03	0.5278	-10.879283	0.000717	7.173145	2.430327	0.057270
  16	7.5000e-03	0.5695	-10.564702	0.000788	7.880356	2.669937	0.062916
  17	8.0000e-03	0.6128	-10.266252	0.000748	7.476236	2.533017	0.059690
  18	8.5000e-03	0.6545	-9.939572	0.000818	8.183447	2.772627	0.065336
  19	9.0000e-03	0.6850	-9.673387	0.000667	6.667994	2.259177	0.053237
  20	9.5000e-03	0.7379	-9.419302	0.000636	6.364903	2.156488	0.050817
  21	1.0000e-02	0.7652	-9.128919	0.000727	7.274175	2.464557	0.058077
  22	1.0500e-02	0.8214	-8.753841	0.000940	9.395810	3.183386	0.075016
  23	1.1000e-02	0.8615	-8.491689	0.000657	6.566964	2.224948	0.052430
  24	1.1500e-02	0.8903	-8.217438	0.000687	6.870054	2.327637	0.054850
  25	1.2000e-02	0.9321	-7.894791	0.000808	8.082417	2.738397	0.064530
  26	1.2500e-02	0.9754	-7.580209	0.000788	7.880356	2.669937	0.062916
  27	1.3000e-02	1.0187	-7.265627	0.000788	7.880356	2.669937	0.062916
  28	1.3500e-02	1.0572	-6.995410	0.000677	6.769024	2.293407	0.054044
  29	1.4000e-02	1.0973	-6.709060	0.000717	7.173145	2.430327	0.057270
  30	1.4500e-02	1.1406	-6.422710	0.000717	7.173145	2.430327	0.057270
  31	1.5000e-02	1.1823	-6.055698	0.000919	9.193749	3.114927	0.073402
  32	1.5500e-02	1.2112	-5.781447	0.000687	6.870054	2.327637	0.054850
  33	1.6000e-02	1.2561	-5.454766	0.000818	8.183447	2.772627	0.065336
  34	1.6500e-02	1.2930	-5.099853	0.000889	8.890659	3.012237	0.070983
  35	1.7000e-02	1.3219	-4.821569	0.000697	6.971085	2.361867	0.055657
  36	1.7500e-02	1.3716	-4.519087	0.000758	7.577266	2.567247	0.060496
  37	1.8000e-02	1.4101	-4.188373	0.000828	8.284477	2.806857	0.066143
  38	1.8500e-02	1.4534	-3.906056	0.000707	7.072115	2.396097	0.056463
  39	1.9000e-02	1.4967	-3.599541	0.000768	7.678296	2.601477	0.061303
  40	1.9500e-02	1.5353	-3.357555	0.000606	6.061813	2.053798	0.048397
  41	2.0000e-02	1.5738	-2.990543	0.000919	9.193749	3.114927	0.073402
  42	2.0500e-02	1.6203	-2.671928	0.000798	7.981387	2.704167	0.063723
  43	2.1000e-02	1.6540	-2.385578	0.000717	7.173145	2.430327	0.057270
  44	2.1500e-02	1.6989	-2.091162	0.000738	7.375205	2.498787	0.058883
  45	2.2000e-02	1.7294	-1.760448	0.000828	8.284477	2.806857	0.066143
  46	2.2500e-02	1.7727	-1.478131	0.000707	7.072115	2.396097	0.056463
  47	2.3000e-02	1.8080	-1.159516	0.000798	7.981387	2.704167	0.063723
  48	2.3500e-02	1.8465	-0.768305	0.000980	9.799930	3.320306	0.078242
  49	2.4000e-02	1.8994	-0.473889	0.000738	7.375205	2.498787	0.058883
  50	2.4500e-02	1.9299	-0.139142	0.000839	8.385507	2.841087	0.066949
  51	2.5000e-02	1.9812	0.090745	0.000576	5.758722	1.951108	0.045977
  52	2.5500e-02	2.0181	0.469856	0.000950	9.496840	3.217616	0.075822
  53	2.6000e-02	2.0486	0.736040	0.000667	6.667994	2.259177	0.053237
  54	2.6500e-02	2.0999	1.010291	0.000687	6.870054	2.327637	0.054850
  55	2.7000e-02	2.1336	1.490230	0.001202	12.022595	4.073365	0.095988
  56	2.7500e-02	2.1673	1.639455	0.000374	3.738118	1.266509	0.029845
  57	2.8000e-02	2.2138	1.950003	0.000778	7.779326	2.635707	0.062110
  58	2.8500e-02	2.2507	2.300883	0.000879	8.789628	2.978007	0.070176
  59	2.9000e-02	2.3021	2.571100	0.000677	6.769024	2.293407	0.054044
  60	2.9500e-02	2.3358	2.865517	0.000738	7.375205	2.498787	0.058883
  61	3.0000e-02	2.3791	3.280926	0.001041	10.406112	3.525686	0.083082
  62	3.0500e-02	2.4240	3.526945	0.000616	6.162843	2.088028	0.049204
  63	3.1000e-02	2.4545	3.833460	0.000768	7.678296	2.601477	0.061303
  64	3.1500e-02	2.4914	4.119810	0.000717	7.173145	2.430327	0.057270
  65	3.2000e-02	2.5251	4.430359	0.000778	7.779326	2.635707	0.062110
  66	3.2500e-02	2.5716	4.757040	0.000818	8.183447	2.772627	0.065336
  67	3.3000e-02	2.6133	5.095820	0.000849	8.486538	2.875317	0.067756
  68	3.3500e-02	2.6486	5.406369	0.000778	7.779326	2.635707	0.062110
  69	3.4000e-02	2.6999	5.749182	0.000859	8.587568	2.909547	0.068563
  70	3.4500e-02	2.7320	6.019400	0.000677	6.769024	2.293407	0.054044
  71	3.5000e-02	2.7705	6.382379	0.000909	9.092719	3.080697	0.072596
  72	3.5500e-02	2.8106	6.705026	0.000808	8.082417	2.738397	0.064530
  73	3.6000e-02	2.8459	6.975244	0.000677	6.769024	2.293407	0.054044
  74	3.6500e-02	2.8972	7.305958	0.000828	8.284477	2.806857	0.066143
  75	3.7000e-02	2.9406	7.600374	0.000738	7.375205	2.498787	0.058883
  76	3.7500e-02	2.9694	7.862526	0.000657	6.566964	2.224948	0.052430
  77	3.8000e-02	3.0160	8.273902	0.001031	10.305081	3.491456	0.082275
  78	3.8500e-02	3.0513	8.576384	0.000758	7.577266	2.567247	0.060496
  79	3.9000e-02	3.0962	8.830469	0.000636	6.364903	2.156488	0.050817
  80	3.9500e-02	3.1234	9.189415	0.000899	8.991689	3.046467	0.071789
  81	4.0000e-02	3.1603	9.568526	0.000950	9.496840	3.217616	0.075822
  82	4.0500e-02	3.2181	9.866976	0.000748	7.476236	2.533017	0.059690
  83	4.1000e-02	3.2550	10.193657	0.000818	8.183447	2.772627	0.065336
  84	4.1500e-02	3.2935	10.467907	0.000687	6.870054	2.327637	0.054850
  85	4.2000e-02	3.3256	10.790555	0.000808	8.082417	2.738397	0.064530
  86	4.2500e-02	3.3705	11.097071	0.000768	7.678296	2.601477	0.061303
  87	4.3000e-02	3.4106	11.419719	0.000808	8.082417	2.738397	0.064530
  88	4.3500e-02	3.4555	11.730267	0.000778	7.779326	2.635707	0.062110
  89	4.4000e-02	3.4940	12.065014	0.000839	8.385507	2.841087	0.066949
  90	4.4500e-02	3.5245	12.355398	0.000727	7.274175	2.464557	0.058077
  91	4.5000e-02	3.5726	12.661913	0.000768	7.678296	2.601477	0.061303
  92	4.5500e-02	3.6127	13.053124	0.000980	9.799930	3.320306	0.078242
  93	4.6000e-02	3.6528	13.351573	0.000748	7.476236	2.533017	0.059690
  94	4.6500e-02	3.6945	13.682287	0.000828	8.284477	2.806857	0.066143
  95	4.7000e-02	3.7266	14.013001	0.000828	8.284477	2.806857	0.066143
  96	4.7500e-02	3.7748	14.355814	0.000859	8.587568	2.909547	0.068563
  97	4.8000e-02	3.8197	14.650231	0.000738	7.375205	2.498787	0.058883
  98	4.8500e-02	3.8550	14.976912	0.000818	8.183447	2.772627	0.065336
  99	4.9000e-02	3.8983	15.319725	0.000859	8.587568	2.909547	0.068563
 100	4.9500e-02	3.9368	15.610108	0.000727	7.274175	2.464557	0.058077
 101	5.0000e-02	3.9705	15.900491	0.000727	7.274175	2.464557	0.058077
 102	5.0500e-02	4.0170	16.194907	0.000738	7.375205	2.498787	0.058883
 103	5.1000e-02	4.0539	16.505456	0.000778	7.779326	2.635707	0.062110
 104	5.1500e-02	4.0988	16.824071	0.000798	7.981387	2.704167	0.063723
 105	5.2000e-02	4.1261	17.183017	0.000899	8.991689	3.046467	0.071789
 106	5.2500e-02	4.1742	17.481466	0.000748	7.476236	2.533017	0.059690
 107	5.3000e-02	4.2191	17.824279	0.000859	8.587568	2.909547	0.068563
 108	5.3500e-02	4.2576	18.187258	0.000909	9.092719	3.080697	0.072596
 109	5.4000e-02	4.2881	18.477641	0.000727	7.274175	2.464557	0.058077
 110	5.4500e-02	4.3346	18.836587	0.000899	8.991689	3.046467	0.071789
 111	5.5000e-02	4.3796	19.110838	0.000687	6.870054	2.327637	0.054850
 112	5.5500e-02	4.4197	19.469784	0.000899	8.991689	3.046467	0.071789
 113	5.6000e-02	4.4485	19.752100	0.000707	7.072115	2.396097	0.056463
 114	5.6500e-02	4.4935	20.139278	0.000970	9.698900	3.286076	0.077435
 115	5.7000e-02	4.5400	20.453860	0.000788	7.880356	2.669937	0.062916
 116	5.7500e-02	4.5753	20.732143	0.000697	6.971085	2.361867	0.055657
 117	5.8000e-02	4.6106	21.095122	0.000909	9.092719	3.080697	0.072596
 118	5.8500e-02	4.6507	21.393572	0.000748	7.476236	2.533017	0.059690
 119	5.9000e-02	4.6924	21.784782	0.000980	9.799930	3.320306	0.078242
 120	5.9500e-02	4.7373	21.998536	0.000535	5.354601	1.814188	0.042751
 121	6.0000e-02	4.7630	22.373614	0.000940	9.395810	3.183386	0.075016
 122	6.0500e-02	4.8127	22.680130	0.000768	7.678296	2.601477	0.061303
 123	6.1000e-02	4.8496	23.014877	0.000839	8.385507	2.841087	0.066949
 124	6.1500e-02	4.8913	23.357691	0.000859	8.587568	2.909547	0.068563
 125	6.2000e-02	4.9362	23.724703	0.000919	9.193749	3.114927	0.073402
 126	6.2500e-02	4.9699	24.039284	0.000788	7.880356	2.669937	0.062916
 127	6.3000e-02	5.0036	24.361932	0.000808	8.082417	2.738397	0.064530
 128	6.3500e-02	5.0421	24.624084	0.000657	6.566964	2.224948	0.052430
 129	6.4000e-02	5.1015	24.950765	0.000818	8.183447	2.772627	0.065336
 130	6.4500e-02	5.1368	25.293578	0.000859	8.587568	2.909547	0.068563
 131	6.5000e-02	5.1769	25.579928	0.000717	7.173145	2.430327	0.057270
 132	6.5500e-02	5.2073	25.975172	0.000990	9.900961	3.354536	0.079049
 133	6.6000e-02	5.2474	26.257488	0.000707	7.072115	2.396097	0.056463
 134	6.6500e-02	5.2988	26.616434	0.000899	8.991689	3.046467	0.071789
 135	6.7000e-02	5.3293	26.979413	0.000909	9.092719	3.080697	0.072596
 136	6.7500e-02	5.3790	27.241565	0.000657	6.566964	2.224948	0.052430
 137	6.8000e-02	5.4079	27.588411	0.000869	8.688598	2.943777	0.069369
 138	6.8500e-02	5.4576	27.911059	0.000808	8.082417	2.738397	0.064530
 139	6.9000e-02	5.4961	28.189343	0.000697	6.971085	2.361867	0.055657
 140	6.9500e-02	5.5394	28.544255	0.000889	8.890659	3.012237	0.070983
 141	7.0000e-02	5.5699	28.899168	0.000889	8.890659	3.012237	0.070983
 142	7.0500e-02	5.6004	29.205684	0.000768	7.678296	2.601477	0.061303
 143	7.1000e-02	5.6549	29.540431	0.000839	8.385507	2.841087	0.066949
 144	7.1500e-02	5.6822	29.850979	0.000778	7.779326	2.635707	0.062110
 145	7.2000e-02	5.7367	30.161528	0.000778	7.779326	2.635707	0.062110
 146	7.2500e-02	5.7784	30.455944	0.000738	7.375205	2.498787	0.058883
 147	7.3000e-02	5.8073	30.822956	0.000919	9.193749	3.114927	0.073402
 148	7.3500e-02	5.8587	31.109306	0.000717	7.173145	2.430327	0.057270
 149	7.4000e-02	5.9036	31.504550	0.000990	9.900961	3.354536	0.079049
 150	7.4500e-02	5.9405	31.794933	0.000727	7.274175	2.464557	0.058077
 151	7.5000e-02	5.9790	32.081283	0.000717	7.173145	2.430327	0.057270
 152	7.5500e-02	6.0143	32.436196	0.000889	8.890659	3.012237	0.070983
 153	7.6000e-02	6.0447	32.774976	0.000849	8.486538	2.875317	0.067756
 154	7.6500e-02	6.0897	33.129888	0.000889	8.890659	3.012237	0.070983
 155	7.7000e-02	6.1346	33.428338	0.000748	7.476236	2.533017	0.059690
 156	7.7500e-02	6.1747	33.779217	0.000879	8.789628	2.978007	0.070176
 157	7.8000e-02	6.2052	34.113965	0.000839	8.385507	2.841087	0.066949
 158	7.8500e-02	6.2597	34.432579	0.000798	7.981387	2.704167	0.063723
 159	7.9000e-02	6.2886	34.779426	0.000869	8.688598	2.943777	0.069369
 160	7.9500e-02	6.3239	35.094007	0.000788	7.880356	2.669937	0.062916
 161	8.0000e-02	6.3672	35.404556	0.000778	7.779326	2.635707	0.062110
 162	8.0500e-02	6.3993	35.682840	0.000697	6.971085	2.361867	0.055657
 163	8.1000e-02	6.4458	36.001455	0.000798	7.981387	2.704167	0.063723
 164	8.1500e-02	6.5004	36.388632	0.000970	9.698900	3.286076	0.077435
 165	8.2000e-02	6.5324	36.739512	0.000879	8.789628	2.978007	0.070176
 166	8.2500e-02	6.5774	36.973431	0.000586	5.859752	1.985338	0.046784
 167	8.3000e-02	6.6094	37.279947	0.000768	7.678296	2.601477	0.061303
 168	8.3500e-02	6.6463	37.646959	0.000919	9.193749	3.114927	0.073402
 169	8.4000e-02	6.6897	37.957507	0.000778	7.779326	2.635707	0.062110
 170	8.4500e-02	6.7346	38.308387	0.000879	8.789628	2.978007	0.070176
 171	8.5000e-02	6.7795	38.614903	0.000768	7.678296	2.601477	0.061303
 172	8.5500e-02	6.8212	38.913352	0.000748	7.476236	2.533017	0.059690
 173	8.6000e-02	6.8549	39.336827	0.001061	10.608172	3.594146	0.084695
 174	8.6500e-02	6.8950	39.655442	0.000798	7.981387	2.704167	0.063723
 175	8.7000e-02	6.9335	39.949858	0.000738	7.375205	2.498787	0.058883
 176	8.7500e-02	6.9768	40.276539	0.000818	8.183447	2.772627	0.065336
 177	8.8000e-02	7.0073	40.587088	0.000778	7.779326	2.635707	0.062110
 178	8.8500e-02	7.0458	40.917802	0.000828	8.284477	2.806857	0.066143
 179	8.9000e-02	7.0875	41.220284	0.000758	7.577266	2.567247	0.060496
 180	8.9500e-02	7.1324	41.571164	0.000879	8.789628	2.978007	0.070176
 181	9.0000e-02	7.1805	41.869613	0.000748	7.476236	2.533017	0.059690
 182	9.0500e-02	7.2142	42.180162	0.000778	7.779326	2.635707	0.062110
 183	9.1000e-02	7.2495	42.494743	0.000788	7.880356	2.669937	0.062916
 184	9.1500e-02	7.2880	42.817391	0.000808	8.082417	2.738397	0.064530
 185	9.2000e-02	7.3362	43.095675	0.000697	6.971085	2.361867	0.055657
 186	9.2500e-02	7.3714	43.438488	0.000859	8.587568	2.909547	0.068563
 187	9.3000e-02	7.4003	43.745004	0.000768	7.678296	2.601477	0.061303
 188	9.3500e-02	7.4468	44.116049	0.000929	9.294779	3.149157	0.074209
 189	9.4000e-02	7.4966	44.434664	0.000798	7.981387	2.704167	0.063723
 190	9.4500e-02	7.5367	44.781510	0.000869	8.688598	2.943777	0.069369
 191	9.5000e-02	7.5736	45.092059	0.000778	7.779326	2.635707	0.062110
 192	9.5500e-02	7.6169	45.406641	0.000788	7.880356	2.669937	0.062916
 193	9.6000e-02	7.6442	45.769619	0.000909	9.092719	3.080697	0.072596
 194	9.6500e-02	7.6875	46.027738	0.000647	6.465933	2.190718	0.051624
 195	9.7000e-02	7.7260	46.410882	0.000960	9.597870	3.251846	0.076629
 196	9.7500e-02	7.7725	46.596405	0.000465	4.647390	1.574578	0.037105
 197	9.8000e-02	7.8190	47.068277	0.001182	11.820535	4.004906	0.094375
 198	9.8500e-02	7.8511	47.366727	0.000748	7.476236	2.533017	0.059690
 199	9.9000e-02	7.8928	47.697441	0.000828	8.284477	2.806857	0.066143
 200	9.9500e-02	7.9377	48.016055	0.000798	7.981387	2.704167	0.063723
 201	1.0000e-01	7.9730	48.322571	0.000768	7.678296	2.601477	0.061303
 202	1.0050e-01	8.0099	48.746046	0.001061	10.608172	3.594146	0.084695
 203	1.0100e-01	8.0516	48.996098	0.000626	6.263873	2.122258	0.050010
 204	1.0150e-01	8.0950	49.290515	0.000738	7.375205	2.498787	0.058883
 205	1.0200e-01	8.1367	49.584931	0.000738	7.375205	2.498787	0.058883
 206	1.0250e-01	8.1671	49.955976	0.000929	9.294779	3.149157	0.074209
 207	1.0300e-01	8.2169	50.282657	0.000818	8.183447	2.772627	0.065336
 208	1.0350e-01	8.2506	50.548841	0.000667	6.667994	2.259177	0.053237
 209	1.0400e-01	8.2971	50.915853	0.000919	9.193749	3.114927	0.073402
 210	1.0450e-01	8.3308	51.198170	0.000707	7.072115	2.396097	0.056463
 211	1.0500e-01	8.3693	51.508719	0.000778	7.779326	2.635707	0.062110
 212	1.0550e-01	8.4094	51.887830	0.000950	9.496840	3.217616	0.075822
 213	1.0600e-01	8.4559	52.214511	0.000818	8.183447	2.772627	0.065336
 214	1.0650e-01	8.4864	52.480696	0.000667	6.667994	2.259177	0.053237
 215	1.0700e-01	8.5329	52.839641	0.000899	8.991689	3.046467	0.071789
 216	1.0750e-01	8.5714	53.158256	0.000798	7.981387	2.704167	0.063723
 217	1.0800e-01	8.6131	53.456705	0.000748	7.476236	2.533017	0.059690
 218	1.0850e-01	8.6500	53.775320	0.000798	7.981387	2.704167	0.063723
 219	1.0900e-01	8.6869	54.142332	0.000919	9.193749	3.114927	0.073402
 220	1.0950e-01	8.7318	54.416583	0.000687	6.870054	2.327637	0.054850
 221	1.1000e-01	8.7719	54.678734	0.000657	6.566964	2.224948	0.052430
 222	1.1050e-01	8.8137	55.005415	0.000818	8.183447	2.772627	0.065336
 223	1.1100e-01	8.8538	55.364361	0.000899	8.991689	3.046467	0.071789
 224	1.1150e-01	8.8891	55.687009	0.000808	8.082417	2.738397	0.064530
 225	1.1200e-01	8.9292	56.001591	0.000788	7.880356	2.669937	0.062916
 226	1.1250e-01	8.9757	56.320205	0.000798	7.981387	2.704167	0.063723
 227	1.1300e-01	9.0142	56.646886	0.000818	8.183447	2.772627	0.065336
 228	1.1350e-01	9.0591	56.933236	0.000717	7.173145	2.430327	0.057270
 229	1.1400e-01	9.0816	57.276050	0.000859	8.587568	2.909547	0.068563
 230	1.1450e-01	9.1281	57.618863	0.000859	8.587568	2.909547	0.068563
 231	1.1500e-01	9.1746	57.969743	0.000879	8.789628	2.978007	0.070176
 232	1.1550e-01	9.2163	58.203662	0.000586	5.859752	1.985338	0.046784
 233	1.1600e-01	9.2580	58.530343	0.000818	8.183447	2.772627	0.065336
 234	1.1650e-01	9.2981	58.828793	0.000748	7.476236	2.533017	0.059690
 235	1.1700e-01	9.3318	59.163540	0.000839	8.385507	2.841087	0.066949
 236	1.1750e-01	9.3719	59.490221	0.000818	8.183447	2.772627	0.065336
 237	1.1800e-01	9.4136	59.833034	0.000859	8.587568	2.909547	0.068563
 238	1.1850e-01	9.4553	60.115351	0.000707	7.072115	2.396097	0.056463
 239	1.1900e-01	9.4938	60.405734	0.000727	7.274175	2.464557	0.058077
 240	1.1950e-01	9.5388	60.768713	0.000909	9.092719	3.080697	0.072596
 241	1.2000e-01	9.5741	61.042964	0.000687	6.870054	2.327637	0.054850
 242	1.2050e-01	9.6158	61.313182	0.000677	6.769024	2.293407	0.054044
 243	1.2100e-01	9.6575	61.684227	0.000929	9.294779	3.149157	0.074209
 244	1.2150e-01	9.6896	61.982676	0.000748	7.476236	2.533017	0.059690
 245	1.2200e-01	9.7345	62.333555	0.000879	8.789628	2.978007	0.070176
 246	1.2250e-01	9.7730	62.619905	0.000717	7.173145	2.430327	0.057270
 247	1.2300e-01	9.8147	62.845759	0.000566	5.657692	1.916878	0.045171
 248	1.2350e-01	9.8564	63.216804	0.000929	9.294779	3.149157	0.074209
 249	1.2400e-01	9.8885	63.491055	0.000687	6.870054	2.327637	0.054850
 250	1.2450e-01	9.9302	63.902431	0.001031	10.305081	3.491456	0.082275
 251	1.2500e-01	9.9751	64.200880	0.000748	7.476236	2.533017	0.059690
 252	1.2550e-01	10.0104	64.511429	0.000778	7.779326	2.635707	0.062110
 253	1.2600e-01	10.0553	64.765514	0.000636	6.364903	2.156488	0.050817
 254	1.2650e-01	10.0922	65.104294	0.000849	8.486538	2.875317	0.067756
 255	1.2700e-01	10.1323	65.426942	0.000808	8.082417	2.738397	0.064530
 256	1.2750e-01	10.1660	65.818153	0.000980	9.799930	3.320306	0.078242
 257	1.2800e-01	10.2125	66.092403	0.000687	6.870054	2.327637	0.054850
 258	1.2850e-01	10.2591	66.386820	0.000738	7.375205	2.498787	0.058883
 259	1.2900e-01	10.2944	66.749798	0.000909	9.092719	3.080697	0.072596
 260	1.2950e-01	10.3313	67.011950	0.000657	6.566964	2.224948	0.052430
 261	1.3000e-01	10.3698	67.322498	0.000778	7.779326	2.635707	0.062110
 262	1.3050e-01	10.4147	67.588683	0.000667	6.667994	2.259177	0.053237
 263	1.3100e-01	10.4484	67.915364	0.000818	8.183447	2.772627	0.065336
 264	1.3150e-01	10.4933	68.270277	0.000889	8.890659	3.012237	0.070983
 265	1.3200e-01	10.5318	68.588891	0.000798	7.981387	2.704167	0.063723
 266	1.3250e-01	10.5687	68.887341	0.000748	7.476236	2.533017	0.059690
 267	1.3300e-01	10.6184	69.230154	0.000859	8.587568	2.909547	0.068563
 268	1.3350e-01	10.6457	69.621365	0.000980	9.799930	3.320306	0.078242
 269	1.3400e-01	10.6922	69.835119	0.000535	5.354601	1.814188	0.042751
 270	1.3450e-01	10.7323	70.137601	0.000758	7.577266	2.567247	0.060496
 271	1.3500e-01	10.7676	70.492514	0.000889	8.890659	3.012237	0.070983
 272	1.3550e-01	10.8093	70.746599	0.000636	6.364903	2.156488	0.050817
 273	1.3600e-01	10.8430	71.077313	0.000828	8.284477	2.806857	0.066143
 274	1.3650e-01	10.8863	71.468524	0.000980	9.799930	3.320306	0.078242
 275	1.3700e-01	10.9361	71.742774	0.000687	6.870054	2.327637	0.054850
 276	1.3750e-01	10.9730	72.000893	0.000647	6.465933	2.190718	0.051624
 277	1.3800e-01	11.0098	72.335640	0.000839	8.385507	2.841087	0.066949
 278	1.3850e-01	11.0564	72.565527	0.000576	5.758722	1.951108	0.045977
 279	1.3900e-01	11.0869	72.904307	0.000849	8.486538	2.875317	0.067756
 280	1.3950e-01	11.1270	73.283418	0.000950	9.496840	3.217616	0.075822
 281	1.4000e-01	11.1655	73.525404	0.000606	6.061813	2.053798	0.048397
 282	1.4050e-01	11.2056	73.831920	0.000768	7.678296	2.601477	0.061303
 283	1.4100e-01	11.2505	74.126336	0.000738	7.375205	2.498787	0.058883
 284	1.4150e-01	11.2842	74.448984	0.000808	8.082417	2.738397	0.064530
 285	1.4200e-01	11.3275	74.747433	0.000748	7.476236	2.533017	0.059690
 286	1.4250e-01	11.3708	75.078147	0.000828	8.284477	2.806857	0.066143
 287	1.4300e-01	11.4189	75.352398	0.000687	6.870054	2.327637	0.054850
 288	1.4350e-01	11.4606	75.614549	0.000657	6.566964	2.224948	0.052430
 289	1.4400e-01	11.4911	75.945263	0.000828	8.284477	2.806857	0.066143
 290	1.4450e-01	11.5392	76.259845	0.000788	7.880356	2.669937	0.062916
 291	1.4500e-01	11.5665	76.542162	0.000707	7.072115	2.396097	0.056463
 292	1.4550e-01	11.6114	76.816413	0.000687	6.870054	2.327637	0.054850
 293	1.4600e-01	11.6564	77.167292	0.000879	8.789628	2.978007	0.070176
 294	1.4650e-01	11.6949	77.485907	0.000798	7.981387	2.704167	0.063723
 295	1.4700e-01	11.7350	77.788389	0.000758	7.577266	2.567247	0.060496
 296	1.4750e-01	11.7622	78.058607	0.000677	6.769024	2.293407	0.054044
 297	1.4800e-01	11.8120	78.421586	0.000909	9.092719	3.080697	0.072596
 298	1.4850e-01	11.8521	78.671638	0.000626	6.263873	2.122258	0.050010
 299	1.4900e-01	11.8809	78.945889	0.000687	6.870054	2.327637	0.054850
 300	1.4950e-01	11.9339	79.300801	0.000889	8.890659	3.012237	0.070983
 301	1.5000e-01	11.9676	79.603284	0.000758	7.577266	2.567247	0.060496
 302	1.5050e-01	12.0125	79.917865	0.000788	7.880356	2.669937	0.062916
 303	1.5100e-01	12.0462	80.228414	0.000778	7.779326	2.635707	0.062110
 304	1.5150e-01	12.0895	80.498632	0.000677	6.769024	2.293407	0.054044
 305	1.5200e-01	12.1376	80.829346	0.000828	8.284477	2.806857	0.066143
 306	1.5250e-01	12.1874	81.103596	0.000687	6.870054	2.327637	0.054850
 307	1.5300e-01	12.2130	81.418178	0.000788	7.880356	2.669937	0.062916
 308	1.5350e-01	12.2467	81.680329	0.000657	6.566964	2.224948	0.052430
 309	1.5400e-01	12.2852	82.007010	0.000818	8.183447	2.772627	0.065336
 310	1.5450e-01	12.3382	82.285294	0.000697	6.971085	2.361867	0.055657
 311	1.5500e-01	12.3638	82.543413	0.000647	6.465933	2.190718	0.051624
 312	1.5550e-01	12.4232	82.870094	0.000818	8.183447	2.772627	0.065336
 313	1.5600e-01	12.4553	83.172576	0.000758	7.577266	2.567247	0.060496
 314	1.5650e-01	12.4873	83.483125	0.000778	7.779326	2.635707	0.062110
 315	1.5700e-01	12.5355	83.765441	0.000707	7.072115	2.396097	0.056463
 316	1.5750e-01	12.5772	84.112288	0.000869	8.688598	2.943777	0.069369
 317	1.5800e-01	12.6237	84.354274	0.000606	6.061813	2.053798	0.048397
 318	1.5850e-01	12.6606	84.628525	0.000687	6.870054	2.327637	0.054850
 319	1.5900e-01	12.6991	84.963272	0.000839	8.385507	2.841087	0.066949
 320	1.5950e-01	12.7392	85.281886	0.000798	7.981387	2.704167	0.063723
 321	1.6000e-01	12.7745	85.544038	0.000657	6.566964	2.224948	0.052430
 322	1.6050e-01	12.8210	85.834421	0.000727	7.274175	2.464557	0.058077
 323	1.6100e-01	12.8483	86.132870	0.000748	7.476236	2.533017	0.059690
 324	1.6150e-01	12.8916	86.459551	0.000818	8.183447	2.772627	0.065336
 325	1.6200e-01	12.9397	86.753967	0.000738	7.375205	2.498787	0.058883
 326	1.6250e-01	12.9670	87.012086	0.000647	6.465933	2.190718	0.051624
 327	1.6300e-01	13.0103	87.358932	0.000869	8.688598	2.943777	0.069369
 328	1.6350e-01	13.0504	87.641249	0.000707	7.072115	2.396097	0.056463
 329	1.6400e-01	13.0905	87.919533	0.000697	6.971085	2.361867	0.055657
 330	1.6450e-01	13.1339	88.286545	0.000919	9.193749	3.114927	0.073402
 331	1.6500e-01	13.1659	88.556763	0.000677	6.769024	2.293407	0.054044
 332	1.6550e-01	13.2109	88.839079	0.000707	7.072115	2.396097	0.056463
 333	1.6600e-01	13.2429	89.157694	0.000798	7.981387	2.704167	0.063723
 334	1.6650e-01	13.2911	89.419846	0.000657	6.566964	2.224948	0.052430
 335	1.6700e-01	13.3312	89.681997	0.000657	6.566964	2.224948	0.052430
 336	1.6750e-01	13.3697	89.956248	0.000687	6.870054	2.327637	0.054850
 337	1.6800e-01	13.4130	90.307127	0.000879	8.789628	2.978007	0.070176
 338	1.6850e-01	13.4483	90.645908	0.000849	8.486538	2.875317	0.067756
 339	1.6900e-01	13.4900	90.891927	0.000616	6.162843	2.088028	0.049204
 340	1.6950e-01	13.5333	91.226674	0.000839	8.385507	2.841087	0.066949
 341	1.7000e-01	13.5686	91.537222	0.000778	7.779326	2.635707	0.062110
 342	1.7050e-01	13.6071	91.803407	0.000667	6.667994	2.259177	0.053237
 343	1.7100e-01	13.6520	92.065558	0.000657	6.566964	2.224948	0.052430
 344	1.7150e-01	13.6857	92.295445	0.000576	5.758722	1.951108	0.045977
 345	1.7200e-01	13.7258	92.614060	0.000798	7.981387	2.704167	0.063723
 346	1.7250e-01	13.7772	92.940741	0.000818	8.183447	2.772627	0.065336
 347	1.7300e-01	13.8076	93.255322	0.000788	7.880356	2.669937	0.062916
 348	1.7350e-01	13.8461	93.561838	0.000768	7.678296	2.601477	0.061303
 349	1.7400e-01	13.8894	93.795758	0.000586	5.859752	1.985338	0.046784
 350	1.7450e-01	13.9231	94.142604	0.000869	8.688598	2.943777	0.069369
 351	1.7500e-01	13.9665	94.445087	0.000758	7.577266	2.567247	0.060496
 352	1.7550e-01	14.0194	94.711271	0.000667	6.667994	2.259177	0.053237
 353	1.7600e-01	14.0595	94.981489	0.000677	6.769024	2.293407	0.054044
 354	1.7650e-01	14.0932	95.296070	0.000788	7.880356	2.669937	0.062916
 355	1.7700e-01	14.1381	95.558222	0.000657	6.566964	2.224948	0.052430
 356	1.7750e-01	14.1702	95.816340	0.000647	6.465933	2.190718	0.051624
 357	1.7800e-01	14.2055	96.102690	0.000717	7.173145	2.430327	0.057270
 358	1.7850e-01	14.2536	96.453570	0.000879	8.789628	2.978007	0.070176
 359	1.7900e-01	14.2873	96.731853	0.000697	6.971085	2.361867	0.055657
 360	1.7950e-01	14.3354	97.030303	0.000748	7.476236	2.533017	0.059690
 361	1.8000e-01	14.3675	97.304553	0.000687	6.870054	2.327637	0.054850
 362	1.8050e-01	14.4140	97.590903	0.000717	7.173145	2.430327	0.057270
 363	1.8100e-01	14.4493	97.925651	0.000839	8.385507	2.841087	0.066949
 364	1.8150e-01	14.4958	98.199901	0.000687	6.870054	2.327637	0.054850
 365	1.8200e-01	14.5343	98.470119	0.000677	6.769024	2.293407	0.054044
 366	1.8250e-01	14.5712	98.768568	0.000748	7.476236	2.533017	0.059690
 367	1.8300e-01	14.6033	99.075084	0.000768	7.678296	2.601477	0.061303
 368	1.8350e-01	14.6450	99.341268	0.000667	6.667994	2.259177	0.053237
 369	1.8400e-01	14.6900	99.611486	0.000677	6.769024	2.293407	0.054044
 370	1.8450e-01	14.7365	99.982531	0.000929	9.294779	3.149157	0.074209
 371	1.8500e-01	14.7638	100.268881	0.000717	7.173145	2.430327	0.057270
 372	1.8550e-01	14.8103	100.535065	0.000667	6.667994	2.259177	0.053237
 373	1.8600e-01	14.8552	100.773018	0.000596	5.960782	2.019568	0.047591
 374	1.8650e-01	14.8985	101.059368	0.000717	7.173145	2.430327	0.057270
 375	1.8700e-01	14.9274	101.309420	0.000626	6.263873	2.122258	0.050010
 376	1.8750e-01	14.9675	101.595770	0.000717	7.173145	2.430327	0.057270
 377	1.8800e-01	15.0140	101.934551	0.000849	8.486538	2.875317	0.067756
 378	1.8850e-01	15.0493	102.257199	0.000808	8.082417	2.738397	0.064530
 379	1.8900e-01	15.0958	102.571780	0.000788	7.880356	2.669937	0.062916
 380	1.8950e-01	15.1263	102.825865	0.000636	6.364903	2.156488	0.050817
 381	1.9000e-01	15.1696	103.136414	0.000778	7.779326	2.635707	0.062110
 382	1.9050e-01	15.2081	103.442930	0.000768	7.678296	2.601477	0.061303
 383	1.9100e-01	15.2434	103.701048	0.000647	6.465933	2.190718	0.051624
 384	1.9150e-01	15.2835	104.007563	0.000768	7.678296	2.601477	0.061303
 385	1.9200e-01	15.3381	104.297946	0.000727	7.274175	2.464557	0.058077
 386	1.9250e-01	15.3686	104.535899	0.000596	5.960782	2.019568	0.047591
 387	1.9300e-01	15.4119	104.814183	0.000697	6.971085	2.361867	0.055657
 388	1.9350e-01	15.4407	105.177162	0.000909	9.092719	3.080697	0.072596
 389	1.9400e-01	15.4889	105.423181	0.000616	6.162843	2.088028	0.049204
 390	1.9450e-01	15.5354	105.677266	0.000636	6.364903	2.156488	0.050817
 391	1.9500e-01	15.5723	106.012013	0.000839	8.385507	2.841087	0.066949
 392	1.9550e-01	15.6060	106.270132	0.000647	6.465933	2.190718	0.051624
 393	1.9600e-01	15.6509	106.544382	0.000687	6.870054	2.327637	0.054850
 394	1.9650e-01	15.6878	106.854931	0.000778	7.779326	2.635707	0.062110
 395	1.9700e-01	15.7343	107.169513	0.000788	7.880356	2.669937	0.062916
 396	1.9750e-01	15.7744	107.431664	0.000657	6.566964	2.224948	0.052430
 397	1.9800e-01	15.8097	107.637352	0.000515	5.152541	1.745728	0.041138
 398	1.9850e-01	15.8514	107.951934	0.000788	7.880356	2.669937	0.062916
 399	1.9900e-01	15.8899	108.218118	0.000667	6.667994	2.259177	0.053237
 400	1.9950e-01	15.9300	108.524634	0.000768	7.678296	2.601477	0.061303
 401	2.0000e-01	15.9685	108.867447	0.000859	8.587568	2.909547	0.068563
 402	2.0050e-01	16.0151	109.153797	0.000717	7.173145	2.430327	0.057270
 403	2.0100e-01	16.0552	109.428048	0.000687	6.870054	2.327637	0.054850
 404	2.0150e-01	16.0969	109.714398	0.000717	7.173145	2.430327	0.057270
 405	2.0200e-01	16.1338	109.972516	0.000647	6.465933	2.190718	0.051624
 406	2.0250e-01	16.1755	110.303230	0.000828	8.284477	2.806857	0.066143
 407	2.0300e-01	16.2092	110.508918	0.000515	5.152541	1.745728	0.041138
 408	2.0350e-01	16.2461	110.952559	0.001111	11.113323	3.765296	0.088728
 409	2.0400e-01	16.2910	111.109850	0.000394	3.940178	1.334969	0.031458
 410	2.0450e-01	16.3311	111.323604	0.000535	5.354601	1.814188	0.042751
 411	2.0500e-01	16.3760	111.626087	0.000758	7.577266	2.567247	0.060496
 412	2.0550e-01	16.4097	111.985032	0.000899	8.991689	3.046467	0.071789
 413	2.0600e-01	16.4498	112.186687	0.000505	5.051511	1.711498	0.040331
 414	2.0650e-01	16.4931	112.541600	0.000889	8.890659	3.012237	0.070983
 415	2.0700e-01	16.5300	112.719056	0.000445	4.445329	1.506118	0.035491
 416	2.0750e-01	16.5717	113.090101	0.000929	9.294779	3.149157	0.074209
 417	2.0800e-01	16.6134	113.307889	0.000546	5.455631	1.848418	0.043557
 418	2.0850e-01	16.6567	113.646669	0.000849	8.486538	2.875317	0.067756
 419	2.0900e-01	16.6904	113.924953	0.000697	6.971085	2.361867	0.055657
 420	2.0950e-01	16.7386	114.150806	0.000566	5.657692	1.916878	0.045171
 421	2.1000e-01	16.7706	114.441189	0.000727	7.274175	2.464557	0.058077
 422	2.1050e-01	16.8092	114.775937	0.000839	8.385507	2.841087	0.066949
 423	2.1100e-01	16.8557	115.005823	0.000576	5.758722	1.951108	0.045977
 424	2.1150e-01	16.8958	115.308306	0.000758	7.577266	2.567247	0.060496
 425	2.1200e-01	16.9263	115.663218	0.000889	8.890659	3.012237	0.070983
 426	2.1250e-01	16.9760	115.905204	0.000606	6.061813	2.053798	0.048397
 427	2.1300e-01	17.0193	116.211720	0.000768	7.678296	2.601477	0.061303
 428	2.1350e-01	17.0482	116.506136	0.000738	7.375205	2.498787	0.058883
 429	2.1400e-01	17.0915	116.707791	0.000505	5.051511	1.711498	0.040331
 430	2.1450e-01	17.1316	117.050604	0.000859	8.587568	2.909547	0.068563
 431	2.1500e-01	17.1701	117.264358	0.000535	5.354601	1.814188	0.042751
 432	2.1550e-01	17.2150	117.510377	0.000616	6.162843	2.088028	0.049204
 433	2.1600e-01	17.2583	117.780595	0.000677	6.769024	2.293407	0.054044
 434	2.1650e-01	17.2904	118.038713	0.000647	6.465933	2.190718	0.051624
 435	2.1700e-01	17.3289	118.280699	0.000606	6.061813	2.053798	0.048397
 436	2.1750e-01	17.3787	118.647711	0.000919	9.193749	3.114927	0.073402
 437	2.1800e-01	17.4107	118.966326	0.000798	7.981387	2.704167	0.063723
 438	2.1850e-01	17.4444	119.256709	0.000727	7.274175	2.464557	0.058077
 439	2.1900e-01	17.4990	119.478530	0.000556	5.556662	1.882648	0.044364
 440	2.1950e-01	17.5311	119.776979	0.000748	7.476236	2.533017	0.059690
 441	2.2000e-01	17.5808	120.047196	0.000677	6.769024	2.293407	0.054044
 442	2.2050e-01	17.6193	120.293215	0.000616	6.162843	2.088028	0.049204
 443	2.2100e-01	17.6530	120.611830	0.000798	7.981387	2.704167	0.063723
 444	2.2150e-01	17.6883	120.873982	0.000657	6.566964	2.224948	0.052430
 445	2.2200e-01	17.7268	121.176464	0.000758	7.577266	2.567247	0.060496
 446	2.2250e-01	17.7781	121.442649	0.000667	6.667994	2.259177	0.053237
 447	2.2300e-01	17.8166	121.688668	0.000616	6.162843	2.088028	0.049204
 448	2.2350e-01	17.8519	121.999216	0.000778	7.779326	2.635707	0.062110
 449	2.2400e-01	17.8968	122.277500	0.000697	6.971085	2.361867	0.055657
 450	2.2450e-01	17.9289	122.559817	0.000707	7.072115	2.396097	0.056463
 451	2.2500e-01	17.9770	122.878432	0.000798	7.981387	2.704167	0.063723
 452	2.2550e-01	18.0139	123.184947	0.000768	7.678296	2.601477	0.061303
 453	2.2600e-01	18.0588	123.378536	0.000485	4.849450	1.643038	0.038718
 454	2.2650e-01	18.0957	123.628588	0.000626	6.263873	2.122258	0.050010
 455	2.2700e-01	18.1375	123.886706	0.000647	6.465933	2.190718	0.051624
 456	2.2750e-01	18.1727	124.169023	0.000707	7.072115	2.396097	0.056463
 457	2.2800e-01	18.2129	124.495704	0.000818	8.183447	2.772627	0.065336
 458	2.2850e-01	18.2626	124.842551	0.000869	8.688598	2.943777	0.069369
 459	2.2900e-01	18.2947	125.036139	0.000485	4.849450	1.643038	0.038718
 460	2.2950e-01	18.3396	125.310390	0.000687	6.870054	2.327637	0.054850
 461	2.3000e-01	18.3685	125.564475	0.000636	6.364903	2.156488	0.050817
 462	2.3050e-01	18.4198	125.870991	0.000768	7.678296	2.601477	0.061303
 463	2.3100e-01	18.4567	126.173473	0.000758	7.577266	2.567247	0.060496
 464	2.3150e-01	18.4920	126.375128	0.000505	5.051511	1.711498	0.040331
 465	2.3200e-01	18.5273	126.669544	0.000738	7.375205	2.498787	0.058883
 466	2.3250e-01	18.5802	126.935729	0.000667	6.667994	2.259177	0.053237
 467	2.3300e-01	18.6139	127.254344	0.000798	7.981387	2.704167	0.063723
 468	2.3350e-01	18.6524	127.520528	0.000667	6.667994	2.259177	0.053237
 469	2.3400e-01	18.6989	127.782680	0.000657	6.566964	2.224948	0.052430
 470	2.3450e-01	18.7406	128.020632	0.000596	5.960782	2.019568	0.047591
 471	2.3500e-01	18.7743	128.306982	0.000717	7.173145	2.430327	0.057270
 472	2.3550e-01	18.8160	128.565101	0.000647	6.465933	2.190718	0.051624
 473	2.3600e-01	18.8513	128.835318	0.000677	6.769024	2.293407	0.054044
 474	2.3650e-01	18.8947	129.133768	0.000748	7.476236	2.533017	0.059690
 475	2.3700e-01	18.9364	129.399952	0.000667	6.667994	2.259177	0.053237
 476	2.3750e-01	18.9797	129.738732	0.000849	8.486538	2.875317	0.067756
 477	2.3800e-01	19.0198	129.964586	0.000566	5.657692	1.916878	0.045171
 478	2.3850e-01	19.0647	130.174307	0.000525	5.253571	1.779958	0.041944
 479	2.3900e-01	19.0920	130.500988	0.000818	8.183447	2.772627	0.065336
 480	2.3950e-01	19.1305	130.767173	0.000667	6.667994	2.259177	0.053237
 481	2.4000e-01	19.1722	131.081754	0.000788	7.880356	2.669937	0.062916
 482	2.4050e-01	19.2171	131.279376	0.000495	4.950480	1.677268	0.039524
 483	2.4100e-01	19.2588	131.606057	0.000818	8.183447	2.772627	0.065336
 484	2.4150e-01	19.2845	131.779480	0.000434	4.344299	1.471888	0.034685
 485	2.4200e-01	19.3358	132.085996	0.000768	7.678296	2.601477	0.061303
 486	2.4250e-01	19.3791	132.424776	0.000849	8.486538	2.875317	0.067756
 487	2.4300e-01	19.4128	132.723225	0.000748	7.476236	2.533017	0.059690
 488	2.4350e-01	19.4593	132.896649	0.000434	4.344299	1.471888	0.034685
 489	2.4400e-01	19.4914	133.150734	0.000636	6.364903	2.156488	0.050817
 490	2.4450e-01	19.5363	133.424985	0.000687	6.870054	2.327637	0.054850
 491	2.4500e-01	19.5732	133.755699	0.000828	8.284477	2.806857	0.066143
 492	2.4550e-01	19.6166	133.993651	0.000596	5.960782	2.019568	0.047591
 493	2.4600e-01	19.6519	134.292101	0.000748	7.476236	2.533017	0.059690
 494	2.4650e-01	19.6823	134.542153	0.000626	6.263873	2.122258	0.050010
 495	2.4700e-01	19.7240	134.812370	0.000677	6.769024	2.293407	0.054044
 496	2.4750e-01	19.7674	135.050323	0.000596	5.960782	2.019568	0.047591
 497	2.4800e-01	19.8043	135.296342	0.000616	6.162843	2.088028	0.049204
 498	2.4850e-01	19.8508	135.627056	0.000828	8.284477	2.806857	0.066143
 499	2.4900e-01	19.8893	135.917439	0.000727	7.274175	2.464557	0.058077
 500	2.4950e-01	19.9358	136.094896	0.000445	4.445329	1.506118	0.035491
 501	2.5000e-01	19.9743	136.405444	0.000778	7.779326	2.635707	0.062110
 502	2.5050e-01	19.9759	136.683728	0.000697	6.971085	2.361867	0.055657
 503	2.5100e-01	19.9502	136.760357	-0.000192	-1.919574	-0.650369	0.015326
 504	2.5150e-01	19.9133	136.816820	-0.000141	-1.414423	-0.479219	0.011293
 505	2.5200e-01	19.8813	136.736158	0.000202	2.020604	0.684599	-0.016132
 506	2.5250e-01	19.8331	136.619199	0.000293	2.929876	0.992669	-0.023392
 507	2.5300e-01	19.7914	136.482073	0.000344	3.435027	1.163819	-0.027425
 508	2.5350e-01	19.7577	136.324782	0.000394	3.940178	1.334969	-0.031458
 509	2.5400e-01	19.7080	136.163458	0.000404	4.041208	1.369198	-0.032265
 510	2.5450e-01	19.6743	136.002135	0.000404	4.041208	1.369198	-0.032265
 511	2.5500e-01	19.6342	135.760149	0.000606	6.061813	2.053798	-0.048397
 512	2.5550e-01	19.5957	135.506063	0.000636	6.364903	2.156488	-0.050817
 513	2.5600e-01	19.5540	135.324574	0.000455	4.546359	1.540348	-0.036298
 514	2.5650e-01	19.5203	135.179382	0.000364	3.637088	1.232279	-0.029038
 515	2.5700e-01	19.4706	134.957562	0.000556	5.556662	1.882648	-0.044364
 516	2.5750e-01	19.4369	134.763973	0.000485	4.849450	1.643038	-0.038718
 517	2.5800e-01	19.3952	134.566351	0.000495	4.950480	1.677268	-0.039524
 518	2.5850e-01	19.3631	134.259836	0.000768	7.678296	2.601477	-0.061303
 519	2.5900e-01	19.3053	134.167075	0.000232	2.323695	0.787289	-0.018552
 520	2.5950e-01	19.2733	133.904923	0.000657	6.566964	2.224948	-0.052430
 521	2.6000e-01	19.2331	133.691169	0.000535	5.354601	1.814188	-0.042751
 522	2.6050e-01	19.1946	133.465315	0.000566	5.657692	1.916878	-0.045171
 523	2.6100e-01	19.1529	133.344323	0.000303	3.030906	1.026899	-0.024199
 524	2.6150e-01	19.1112	133.090237	0.000636	6.364903	2.156488	-0.050817
 525	2.6200e-01	19.0807	132.888582	0.000505	5.051511	1.711498	-0.040331
 526	2.6250e-01	19.0455	132.614332	0.000687	6.870054	2.327637	-0.054850
 527	2.6300e-01	19.0005	132.408644	0.000515	5.152541	1.745728	-0.041138
 528	2.6350e-01	18.9556	132.186823	0.000556	5.556662	1.882648	-0.044364
 529	2.6400e-01	18.9139	131.965003	0.000556	5.556662	1.882648	-0.044364
 530	2.6450e-01	18.8770	131.783513	0.000455	4.546359	1.540348	-0.036298
 531	2.6500e-01	18.8417	131.529428	0.000636	6.364903	2.156488	-0.050817
 532	2.6550e-01	18.7920	131.368104	0.000404	4.041208	1.369198	-0.032265
 533	2.6600e-01	18.7487	131.069655	0.000748	7.476236	2.533017	-0.059690
 534	2.6650e-01	18.7246	130.872033	0.000495	4.950480	1.677268	-0.039524
 535	2.6700e-01	18.6781	130.674411	0.000495	4.950480	1.677268	-0.039524
 536	2.6750e-01	18.6396	130.496955	0.000445	4.445329	1.506118	-0.035491
 537	2.6800e-01	18.5931	130.250936	0.000616	6.162843	2.088028	-0.049204
 538	2.6850e-01	18.5497	129.944420	0.000768	7.678296	2.601477	-0.061303
 539	2.6900e-01	18.5064	129.770997	0.000434	4.344299	1.471888	-0.034685
 540	2.6950e-01	18.4759	129.541111	0.000576	5.758722	1.951108	-0.045977
 541	2.7000e-01	18.4310	129.323323	0.000546	5.455631	1.848418	-0.043557
 542	2.7050e-01	18.3925	129.121668	0.000505	5.051511	1.711498	-0.040331
 543	2.7100e-01	18.3556	128.887749	0.000586	5.859752	1.985338	-0.046784
 544	2.7150e-01	18.3155	128.710292	0.000445	4.445329	1.506118	-0.035491
 545	2.7200e-01	18.2738	128.460240	0.000626	6.263873	2.122258	-0.050010
 546	2.7250e-01	18.2385	128.210188	0.000626	6.263873	2.122258	-0.050010
 547	2.7300e-01	18.1904	128.040798	0.000424	4.243269	1.437658	-0.033878
 548	2.7350e-01	18.1599	127.835110	0.000515	5.152541	1.745728	-0.041138
 549	2.7400e-01	18.1150	127.597157	0.000596	5.960782	2.019568	-0.047591
 550	2.7450e-01	18.0685	127.326939	0.000677	6.769024	2.293407	-0.054044
 551	2.7500e-01	18.0284	127.028490	0.000748	7.476236	2.533017	-0.059690
 552	2.7550e-01	17.9995	126.790537	0.000596	5.960782	2.019568	-0.047591
 553	2.7600e-01	17.9546	126.584849	0.000515	5.152541	1.745728	-0.041138
 554	2.7650e-01	17.9161	126.379161	0.000515	5.152541	1.745728	-0.041138
 555	2.7700e-01	17.8808	126.185573	0.000485	4.849450	1.643038	-0.038718
 556	2.7750e-01	17.8278	125.967785	0.000546	5.455631	1.848418	-0.043557
 557	2.7800e-01	17.7845	125.685468	0.000707	7.072115	2.396097	-0.056463
 558	2.7850e-01	17.7460	125.451549	0.000586	5.859752	1.985338	-0.046784
 559	2.7900e-01	17.7059	125.213596	0.000596	5.960782	2.019568	-0.047591
 560	2.7950e-01	17.6738	125.032106	0.000455	4.546359	1.540348	-0.036298
 561	2.8000e-01	17.6321	124.818352	0.000535	5.354601	1.814188	-0.042751
 562	2.8050e-01	17.5968	124.588465	0.000576	5.758722	1.951108	-0.045977
 563	2.8100e-01	17.5599	124.285983	0.000758	7.577266	2.567247	-0.060496
 564	2.8150e-01	17.5166	124.072229	0.000535	5.354601	1.814188	-0.042751
 565	2.8200e-01	17.4685	123.822177	0.000626	6.263873	2.122258	-0.050010
 566	2.8250e-01	17.4412	123.580191	0.000606	6.061813	2.053798	-0.048397
 567	2.8300e-01	17.3995	123.386602	0.000485	4.849450	1.643038	-0.038718
 568	2.8350e-01	17.3578	123.148649	0.000596	5.960782	2.019568	-0.047591
 569	2.8400e-01	17.3161	122.906663	0.000606	6.061813	2.053798	-0.048397
 570	2.8450e-01	17.2744	122.624346	0.000707	7.072115	2.396097	-0.056463
 571	2.8500e-01	17.2295	122.471089	0.000384	3.839148	1.300739	-0.030652
 572	2.8550e-01	17.1894	122.301699	0.000424	4.243269	1.437658	-0.033878
 573	2.8600e-01	17.1541	121.987117	0.000788	7.880356	2.669937	-0.062916
 574	2.8650e-01	17.1268	121.700767	0.000717	7.173145	2.430327	-0.057270
 575	2.8700e-01	17.0722	121.503145	0.000495	4.950480	1.677268	-0.039524
 576	2.8750e-01	17.0321	121.293424	0.000525	5.253571	1.779958	-0.041944
 577	2.8800e-01	16.9985	121.035306	0.000647	6.465933	2.190718	-0.051624
 578	2.8850e-01	16.9487	120.797353	0.000596	5.960782	2.019568	-0.047591
 579	2.8900e-01	16.9134	120.551334	0.000616	6.162843	2.088028	-0.049204
 580	2.8950e-01	16.8813	120.289182	0.000657	6.566964	2.224948	-0.052430
 581	2.9000e-01	16.8364	120.039130	0.000626	6.263873	2.122258	-0.050010
 582	2.9050e-01	16.7931	119.877806	0.000404	4.041208	1.369198	-0.032265
 583	2.9100e-01	16.7578	119.551125	0.000818	8.183447	2.772627	-0.065336
 584	2.9150e-01	16.7145	119.301073	0.000626	6.263873	2.122258	-0.050010
 585	2.9200e-01	16.6696	119.083286	0.000546	5.455631	1.848418	-0.043557
 586	2.9250e-01	16.6327	118.873565	0.000525	5.253571	1.779958	-0.041944
 587	2.9300e-01	16.6022	118.615446	0.000647	6.465933	2.190718	-0.051624
 588	2.9350e-01	16.5605	118.385560	0.000576	5.758722	1.951108	-0.045977
 589	2.9400e-01	16.5092	118.119375	0.000667	6.667994	2.259177	-0.053237
 590	2.9450e-01	16.4610	117.933853	0.000465	4.647390	1.574578	-0.037105
 591	2.9500e-01	16.4338	117.699933	0.000586	5.859752	1.985338	-0.046784
 592	2.9550e-01	16.3921	117.429715	0.000677	6.769024	2.293407	-0.054044
 593	2.9600e-01	16.3471	117.183696	0.000616	6.162843	2.088028	-0.049204
 594	2.9650e-01	16.3199	116.969942	0.000535	5.354601	1.814188	-0.042751
 595	2.9700e-01	16.2669	116.731989	0.000596	5.960782	2.019568	-0.047591
 596	2.9750e-01	16.2396	116.417408	0.000788	7.880356	2.669937	-0.062916
 597	2.9800e-01	16.1947	116.187521	0.000576	5.758722	1.951108	-0.045977
 598	2.9850e-01	16.1578	115.933436	0.000636	6.364903	2.156488	-0.050817
 599	2.9900e-01	16.1129	115.743880	0.000475	4.748420	1.608808	-0.037911
 600	2.9950e-01	16.0792	115.457530	0.000717	7.173145	2.430327	-0.057270
 601	3.0000e-01	16.0359	115.231677	0.000566	5.657692	1.916878	-0.045171
 602	3.0050e-01	16.0006	114.997757	0.000586	5.859752	1.985338	-0.046784
 603	3.0100e-01	15.9573	114.759804	0.000596	5.960782	2.019568	-0.047591
 604	3.0150e-01	15.9220	114.473454	0.000717	7.173145	2.430327	-0.057270
 605	3.0200e-01	15.8659	114.267766	0.000515	5.152541	1.745728	-0.041138
 606	3.0250e-01	15.8354	114.017714	0.000626	6.263873	2.122258	-0.050010
 607	3.0300e-01	15.7921	113.783794	0.000586	5.859752	1.985338	-0.046784
 608	3.0350e-01	15.7584	113.481312	0.000758	7.577266	2.567247	-0.060496
 609	3.0400e-01	15.7215	113.251425	0.000576	5.758722	1.951108	-0.045977
 610	3.0450e-01	15.6701	112.973141	0.000697	6.971085	2.361867	-0.055657
 611	3.0500e-01	15.6316	112.755354	0.000546	5.455631	1.848418	-0.043557
 612	3.0550e-01	15.5947	112.594030	0.000404	4.041208	1.369198	-0.032265
 613	3.0600e-01	15.5595	112.287515	0.000768	7.678296	2.601477	-0.061303
 614	3.0650e-01	15.5113	112.061661	0.000566	5.657692	1.916878	-0.045171
 615	3.0700e-01	15.4696	111.775311	0.000717	7.173145	2.430327	-0.057270
 616	3.0750e-01	15.4472	111.529292	0.000616	6.162843	2.088028	-0.049204
 617	3.0800e-01	15.3942	111.343770	0.000465	4.647390	1.574578	-0.037105
 618	3.0850e-01	15.3493	110.984824	0.000899	8.991689	3.046467	-0.071789
 619	3.0900e-01	15.3156	110.823500	0.000404	4.041208	1.369198	-0.032265
 620	3.0950e-01	15.2739	110.496819	0.000818	8.183447	2.772627	-0.065336
 621	3.1000e-01	15.2386	110.270965	0.000566	5.657692	1.916878	-0.045171
 622	3.1050e-01	15.1969	110.097542	0.000434	4.344299	1.471888	-0.034685
 623	3.1100e-01	15.1488	109.762795	0.000839	8.385507	2.841087	-0.066949
 624	3.1150e-01	15.1135	109.500644	0.000657	6.566964	2.224948	-0.052430
 625	3.1200e-01	15.0670	109.238492	0.000657	6.566964	2.224948	-0.052430
 626	3.1250e-01	15.0333	109.020705	0.000546	5.455631	1.848418	-0.043557
 627	3.1300e-01	14.9932	108.823083	0.000495	4.950480	1.677268	-0.039524
 628	3.1350e-01	14.9547	108.488336	0.000839	8.385507	2.841087	-0.066949
 629	3.1400e-01	14.9113	108.254416	0.000586	5.859752	1.985338	-0.046784
 630	3.1450e-01	14.8761	107.968066	0.000717	7.173145	2.430327	-0.057270
 631	3.1500e-01	14.8343	107.754312	0.000535	5.354601	1.814188	-0.042751
 632	3.1550e-01	14.7894	107.471995	0.000707	7.072115	2.396097	-0.056463
 633	3.1600e-01	14.7493	107.306638	0.000414	4.142239	1.403428	-0.033071
 634	3.1650e-01	14.7124	106.979957	0.000818	8.183447	2.772627	-0.065336
 635	3.1700e-01	14.6787	106.754103	0.000566	5.657692	1.916878	-0.045171
 636	3.1750e-01	14.6370	106.475820	0.000697	6.971085	2.361867	-0.055657
 637	3.1800e-01	14.5969	106.177370	0.000748	7.476236	2.533017	-0.059690
 638	3.1850e-01	14.5632	105.878921	0.000748	7.476236	2.533017	-0.059690
 639	3.1900e-01	14.5183	105.616770	0.000657	6.566964	2.224948	-0.052430
 640	3.1950e-01	14.4798	105.407049	0.000525	5.253571	1.779958	-0.041944
 641	3.2000e-01	14.4285	105.144897	0.000657	6.566964	2.224948	-0.052430
 642	3.2050e-01	14.3980	104.919044	0.000566	5.657692	1.916878	-0.045171
 643	3.2100e-01	14.3547	104.640760	0.000697	6.971085	2.361867	-0.055657
 644	3.2150e-01	14.3082	104.418939	0.000556	5.556662	1.882648	-0.044364
 645	3.2200e-01	14.2680	104.128556	0.000727	7.274175	2.464557	-0.058077
 646	3.2250e-01	14.2360	103.922868	0.000515	5.152541	1.745728	-0.041138
 647	3.2300e-01	14.1830	103.624419	0.000748	7.476236	2.533017	-0.059690
 648	3.2350e-01	14.1638	103.390499	0.000586	5.859752	1.985338	-0.046784
 649	3.2400e-01	14.1189	103.092050	0.000748	7.476236	2.533017	-0.059690
 650	3.2450e-01	14.0691	102.862163	0.000576	5.758722	1.951108	-0.045977
 651	3.2500e-01	14.0322	102.575813	0.000717	7.173145	2.430327	-0.057270
 652	3.2550e-01	13.9953	102.398357	0.000445	4.445329	1.506118	-0.035491
 653	3.2600e-01	13.9536	102.043444	0.000889	8.890659	3.012237	-0.070983
 654	3.2650e-01	13.9183	101.801458	0.000606	6.061813	2.053798	-0.048397
 655	3.2700e-01	13.8830	101.559472	0.000606	6.061813	2.053798	-0.048397
 656	3.2750e-01	13.8461	101.277156	0.000707	7.072115	2.396097	-0.056463
 657	3.2800e-01	13.7868	101.067434	0.000525	5.253571	1.779958	-0.041944
 658	3.2850e-01	13.7467	100.817382	0.000626	6.263873	2.122258	-0.050010
 659	3.2900e-01	13.7162	100.531032	0.000717	7.173145	2.430327	-0.057270
 660	3.2950e-01	13.6761	100.272914	0.000647	6.465933	2.190718	-0.051624
 661	3.3000e-01	13.6296	99.918001	0.000889	8.890659	3.012237	-0.070983
 662	3.3050e-01	13.5959	99.676015	0.000606	6.061813	2.053798	-0.048397
 663	3.3100e-01	13.5574	99.462261	0.000535	5.354601	1.814188	-0.042751
 664	3.3150e-01	13.5141	99.216242	0.000616	6.162843	2.088028	-0.049204
 665	3.3200e-01	13.4723	98.958124	0.000647	6.465933	2.190718	-0.051624
 666	3.3250e-01	13.4371	98.635476	0.000808	8.082417	2.738397	-0.064530
 667	3.3300e-01	13.3986	98.393490	0.000606	6.061813	2.053798	-0.048397
 668	3.3350e-01	13.3520	98.135372	0.000647	6.465933	2.190718	-0.051624
 669	3.3400e-01	13.3232	97.901452	0.000586	5.859752	1.985338	-0.046784
 670	3.3450e-01	13.2766	97.691731	0.000525	5.253571	1.779958	-0.041944
 671	3.3500e-01	13.2301	97.336818	0.000889	8.890659	3.012237	-0.070983
 672	3.3550e-01	13.1884	97.070634	0.000667	6.667994	2.259177	-0.053237
 673	3.3600e-01	13.1483	96.852846	0.000546	5.455631	1.848418	-0.043557
 674	3.3650e-01	13.1162	96.542298	0.000778	7.779326	2.635707	-0.062110
 675	3.3700e-01	13.0745	96.300312	0.000606	6.061813	2.053798	-0.048397
 676	3.3750e-01	13.0344	96.062359	0.000596	5.960782	2.019568	-0.047591
 677	3.3800e-01	12.9927	95.780042	0.000707	7.072115	2.396097	-0.056463
 678	3.3850e-01	12.9558	95.554189	0.000566	5.657692	1.916878	-0.045171
 679	3.3900e-01	12.9093	95.207342	0.000869	8.688598	2.943777	-0.069369
 680	3.3950e-01	12.8724	95.041985	0.000414	4.142239	1.403428	-0.033071
 681	3.4000e-01	12.8339	94.711271	0.000828	8.284477	2.806857	-0.066143
 682	3.4050e-01	12.8002	94.453153	0.000647	6.465933	2.190718	-0.051624
 683	3.4100e-01	12.7504	94.215200	0.000596	5.960782	2.019568	-0.047591
 684	3.4150e-01	12.7168	93.884486	0.000828	8.284477	2.806857	-0.066143
 685	3.4200e-01	12.6799	93.662665	0.000556	5.556662	1.882648	-0.044364
 686	3.4250e-01	12.6398	93.444878	0.000546	5.455631	1.848418	-0.043557
 687	3.4300e-01	12.5916	93.057701	0.000970	9.698900	3.286076	-0.077435
 688	3.4350e-01	12.5708	92.884277	0.000434	4.344299	1.471888	-0.034685
 689	3.4400e-01	12.5082	92.561629	0.000808	8.082417	2.738397	-0.064530
 690	3.4450e-01	12.4729	92.303511	0.000647	6.465933	2.190718	-0.051624
 691	3.4500e-01	12.4360	92.017161	0.000717	7.173145	2.430327	-0.057270
 692	3.4550e-01	12.3975	91.706613	0.000778	7.779326	2.635707	-0.062110
 693	3.4600e-01	12.3606	91.500925	0.000515	5.152541	1.745728	-0.041138
 694	3.4650e-01	12.3221	91.230707	0.000677	6.769024	2.293407	-0.054044
 695	3.4700e-01	12.2772	90.980655	0.000626	6.263873	2.122258	-0.050010
 696	3.4750e-01	12.2291	90.706404	0.000687	6.870054	2.327637	-0.054850
 697	3.4800e-01	12.1970	90.375690	0.000828	8.284477	2.806857	-0.066143
 698	3.4850e-01	12.1633	90.121605	0.000636	6.364903	2.156488	-0.050817
 699	3.4900e-01	12.1216	89.847354	0.000687	6.870054	2.327637	-0.054850
 700	3.4950e-01	12.0719	89.577137	0.000677	6.769024	2.293407	-0.054044
 701	3.5000e-01	12.0382	89.319018	0.000647	6.465933	2.190718	-0.051624
 702	3.5050e-01	11.9981	89.052834	0.000667	6.667994	2.259177	-0.053237
 703	3.5100e-01	11.9612	88.774550	0.000697	6.971085	2.361867	-0.055657
 704	3.5150e-01	11.9130	88.500299	0.000687	6.870054	2.327637	-0.054850
 705	3.5200e-01	11.8745	88.230082	0.000677	6.769024	2.293407	-0.054044
 706	3.5250e-01	11.8360	87.955831	0.000687	6.870054	2.327637	-0.054850
 707	3.5300e-01	11.7911	87.649315	0.000768	7.678296	2.601477	-0.061303
 708	3.5350e-01	11.7462	87.358932	0.000727	7.274175	2.464557	-0.058077
 709	3.5400e-01	11.7109	87.112913	0.000616	6.162843	2.088028	-0.049204
 710	3.5450e-01	11.6772	86.883027	0.000576	5.758722	1.951108	-0.045977
 711	3.5500e-01	11.6371	86.600710	0.000707	7.072115	2.396097	-0.056463
 712	3.5550e-01	11.5938	86.362757	0.000596	5.960782	2.019568	-0.047591
 713	3.5600e-01	11.5521	86.032043	0.000828	8.284477	2.806857	-0.066143
 714	3.5650e-01	11.5168	85.773925	0.000647	6.465933	2.190718	-0.051624
 715	3.5700e-01	11.4719	85.455310	0.000798	7.981387	2.704167	-0.063723
 716	3.5750e-01	11.4382	85.217357	0.000596	5.960782	2.019568	-0.047591
 717	3.5800e-01	11.3997	84.975371	0.000606	6.061813	2.053798	-0.048397
 718	3.5850e-01	11.3499	84.624491	0.000879	8.789628	2.978007	-0.070176
 719	3.5900e-01	11.3227	84.374439	0.000626	6.263873	2.122258	-0.050010
 720	3.5950e-01	11.2762	84.136486	0.000596	5.960782	2.019568	-0.047591
 721	3.6000e-01	11.2377	83.858203	0.000697	6.971085	2.361867	-0.055657
 722	3.6050e-01	11.1879	83.551687	0.000768	7.678296	2.601477	-0.061303
 723	3.6100e-01	11.1494	83.337933	0.000535	5.354601	1.814188	-0.042751
 724	3.6150e-01	11.1221	83.039484	0.000748	7.476236	2.533017	-0.059690
 725	3.6200e-01	11.0852	82.692637	0.000869	8.688598	2.943777	-0.069369
 726	3.6250e-01	11.0323	82.442585	0.000626	6.263873	2.122258	-0.050010
 727	3.6300e-01	10.9938	82.140103	0.000758	7.577266	2.567247	-0.060496
 728	3.6350e-01	10.9633	81.857786	0.000707	7.072115	2.396097	-0.056463
 729	3.6400e-01	10.9216	81.639998	0.000546	5.455631	1.848418	-0.043557
 730	3.6450e-01	10.8751	81.293152	0.000869	8.688598	2.943777	-0.069369
 731	3.6500e-01	10.8302	81.031001	0.000657	6.566964	2.224948	-0.052430
 732	3.6550e-01	10.7981	80.712386	0.000798	7.981387	2.704167	-0.063723
 733	3.6600e-01	10.7548	80.438135	0.000687	6.870054	2.327637	-0.054850
 734	3.6650e-01	10.7195	80.167917	0.000677	6.769024	2.293407	-0.054044
 735	3.6700e-01	10.6730	79.877534	0.000727	7.274175	2.464557	-0.058077
 736	3.6750e-01	10.6264	79.651681	0.000566	5.657692	1.916878	-0.045171
 737	3.6800e-01	10.5944	79.381463	0.000677	6.769024	2.293407	-0.054044
 738	3.6850e-01	10.5510	79.155610	0.000566	5.657692	1.916878	-0.045171
 739	3.6900e-01	10.5157	78.800697	0.000889	8.890659	3.012237	-0.070983
 740	3.6950e-01	10.4821	78.506281	0.000738	7.375205	2.498787	-0.058883
 741	3.7000e-01	10.4339	78.211865	0.000738	7.375205	2.498787	-0.058883
 742	3.7050e-01	10.3890	77.953746	0.000647	6.465933	2.190718	-0.051624
 743	3.7100e-01	10.3617	77.667396	0.000717	7.173145	2.430327	-0.057270
 744	3.7150e-01	10.3152	77.344748	0.000808	8.082417	2.738397	-0.064530
 745	3.7200e-01	10.2879	77.082597	0.000657	6.566964	2.224948	-0.052430
 746	3.7250e-01	10.2302	76.784148	0.000748	7.476236	2.533017	-0.059690
 747	3.7300e-01	10.1949	76.558294	0.000566	5.657692	1.916878	-0.045171
 748	3.7350e-01	10.1548	76.255812	0.000758	7.577266	2.567247	-0.060496
 749	3.7400e-01	10.1227	76.001727	0.000636	6.364903	2.156488	-0.050817
 750	3.7450e-01	10.0634	75.683112	0.000798	7.981387	2.704167	-0.063723
 751	3.7500e-01	10.0249	75.368530	0.000788	7.880356	2.669937	-0.062916
 752	3.7550e-01	10.0008	75.098313	0.000677	6.769024	2.293407	-0.054044
 753	3.7600e-01	9.9639	74.795830	0.000758	7.577266	2.567247	-0.060496
 754	3.7650e-01	9.9045	74.549811	0.000616	6.162843	2.088028	-0.049204
 755	3.7700e-01	9.8741	74.259428	0.000727	7.274175	2.464557	-0.058077
 756	3.7750e-01	9.8339	73.920648	0.000849	8.486538	2.875317	-0.067756
 757	3.7800e-01	9.8051	73.662529	0.000647	6.465933	2.190718	-0.051624
 758	3.7850e-01	9.7585	73.360047	0.000758	7.577266	2.567247	-0.060496
 759	3.7900e-01	9.7168	73.061598	0.000748	7.476236	2.533017	-0.059690
 760	3.7950e-01	9.6751	72.819612	0.000606	6.061813	2.053798	-0.048397
 761	3.8000e-01	9.6318	72.585692	0.000586	5.859752	1.985338	-0.046784
 762	3.8050e-01	9.5933	72.250945	0.000839	8.385507	2.841087	-0.066949
 763	3.8100e-01	9.5548	71.879900	0.000929	9.294779	3.149157	-0.074209
 764	3.8150e-01	9.5195	71.613715	0.000667	6.667994	2.259177	-0.053237
 765	3.8200e-01	9.4730	71.383829	0.000576	5.758722	1.951108	-0.045977
 766	3.8250e-01	9.4377	71.008751	0.000940	9.395810	3.183386	-0.075016
 767	3.8300e-01	9.3928	70.754665	0.000636	6.364903	2.156488	-0.050817
 768	3.8350e-01	9.3463	70.540911	0.000535	5.354601	1.814188	-0.042751
 769	3.8400e-01	9.3126	70.302958	0.000596	5.960782	2.019568	-0.047591
 770	3.8450e-01	9.2773	69.992410	0.000778	7.779326	2.635707	-0.062110
 771	3.8500e-01	9.2372	69.677828	0.000788	7.880356	2.669937	-0.062916
 772	3.8550e-01	9.2035	69.407610	0.000677	6.769024	2.293407	-0.054044
 773	3.8600e-01	9.1586	69.141426	0.000667	6.667994	2.259177	-0.053237
 774	3.8650e-01	9.1136	68.810712	0.000828	8.284477	2.806857	-0.066143
 775	3.8700e-01	9.0735	68.536461	0.000687	6.870054	2.327637	-0.054850
 776	3.8750e-01	9.0415	68.225913	0.000778	7.779326	2.635707	-0.062110
 777	3.8800e-01	9.0030	67.939563	0.000717	7.173145	2.430327	-0.057270
 778	3.8850e-01	8.9548	67.649179	0.000727	7.274175	2.464557	-0.058077
 779	3.8900e-01	8.9131	67.338631	0.000778	7.779326	2.635707	-0.062110
 780	3.8950e-01	8.8634	67.060347	0.000697	6.971085	2.361867	-0.055657
 781	3.9000e-01	8.8265	66.790129	0.000677	6.769024	2.293407	-0.054044
 782	3.9050e-01	8.7992	66.455382	0.000839	8.385507	2.841087	-0.066949
 783	3.9100e-01	8.7543	66.124668	0.000828	8.284477	2.806857	-0.066143
 784	3.9150e-01	8.7190	65.923013	0.000505	5.051511	1.711498	-0.040331
 785	3.9200e-01	8.6789	65.604398	0.000798	7.981387	2.704167	-0.063723
 786	3.9250e-01	8.6324	65.301916	0.000758	7.577266	2.567247	-0.060496
 787	3.9300e-01	8.5907	64.995401	0.000768	7.678296	2.601477	-0.061303
 788	3.9350e-01	8.5602	64.741315	0.000636	6.364903	2.156488	-0.050817
 789	3.9400e-01	8.5169	64.402535	0.000849	8.486538	2.875317	-0.067756
 790	3.9450e-01	8.4687	64.100053	0.000758	7.577266	2.567247	-0.060496
 791	3.9500e-01	8.4383	63.821769	0.000697	6.971085	2.361867	-0.055657
 792	3.9550e-01	8.3982	63.531386	0.000727	7.274175	2.464557	-0.058077
 793	3.9600e-01	8.3468	63.208738	0.000808	8.082417	2.738397	-0.064530
 794	3.9650e-01	8.3179	62.906255	0.000758	7.577266	2.567247	-0.060496
 795	3.9700e-01	8.2698	62.615872	0.000727	7.274175	2.464557	-0.058077
 796	3.9750e-01	8.2393	62.321456	0.000738	7.375205	2.498787	-0.058883
 797	3.9800e-01	8.1912	62.075437	0.000616	6.162843	2.088028	-0.049204
 798	3.9850e-01	8.1495	61.732624	0.000859	8.587568	2.909547	-0.068563
 799	3.9900e-01	8.1174	61.442241	0.000727	7.274175	2.464557	-0.058077
 800	3.9950e-01	8.0677	61.115560	0.000818	8.183447	2.772627	-0.065336
 801	4.0000e-01	8.0308	60.825177	0.000727	7.274175	2.464557	-0.058077
 802	4.0050e-01	7.9939	60.571091	0.000636	6.364903	2.156488	-0.050817
 803	4.0100e-01	7.9554	60.260543	0.000778	7.779326	2.635707	-0.062110
 804	4.0150e-01	7.9153	59.937895	0.000808	8.082417	2.738397	-0.064530
 805	4.0200e-01	7.8720	59.695909	0.000606	6.061813	2.053798	-0.048397
 806	4.0250e-01	7.8271	59.381327	0.000788	7.880356	2.669937	-0.062916
 807	4.0300e-01	7.7950	59.086911	0.000738	7.375205	2.498787	-0.058883
 808	4.0350e-01	7.7533	58.764263	0.000808	8.082417	2.738397	-0.064530
 809	4.0400e-01	7.7115	58.461781	0.000758	7.577266	2.567247	-0.060496
 810	4.0450e-01	7.6666	58.191563	0.000677	6.769024	2.293407	-0.054044
 811	4.0500e-01	7.6313	57.917312	0.000687	6.870054	2.327637	-0.054850
 812	4.0550e-01	7.5896	57.610797	0.000768	7.678296	2.601477	-0.061303
 813	4.0600e-01	7.5511	57.259917	0.000879	8.789628	2.978007	-0.070176
 814	4.0650e-01	7.5174	56.969534	0.000727	7.274175	2.464557	-0.058077
 815	4.0700e-01	7.4757	56.687217	0.000707	7.072115	2.396097	-0.056463
 816	4.0750e-01	7.4340	56.340371	0.000869	8.688598	2.943777	-0.069369
 817	4.0800e-01	7.3971	56.070153	0.000677	6.769024	2.293407	-0.054044
 818	4.0850e-01	7.3538	55.884631	0.000465	4.647390	1.574578	-0.037105
 819	4.0900e-01	7.3057	55.525685	0.000899	8.991689	3.046467	-0.071789
 820	4.0950e-01	7.2768	55.223203	0.000758	7.577266	2.567247	-0.060496
 821	4.1000e-01	7.2255	54.864257	0.000899	8.991689	3.046467	-0.071789
 822	4.1050e-01	7.1902	54.602105	0.000657	6.566964	2.224948	-0.052430
 823	4.1100e-01	7.1549	54.267358	0.000839	8.385507	2.841087	-0.066949
 824	4.1150e-01	7.1116	53.944710	0.000808	8.082417	2.738397	-0.064530
 825	4.1200e-01	7.0699	53.642228	0.000758	7.577266	2.567247	-0.060496
 826	4.1250e-01	7.0362	53.343779	0.000748	7.476236	2.533017	-0.059690
 827	4.1300e-01	6.9945	53.186488	0.000394	3.940178	1.334969	-0.031458
 828	4.1350e-01	6.9479	52.807377	0.000950	9.496840	3.217616	-0.075822
 829	4.1400e-01	6.9094	52.448431	0.000899	8.991689	3.046467	-0.071789
 830	4.1450e-01	6.8773	52.214511	0.000586	5.859752	1.985338	-0.046784
 831	4.1500e-01	6.8292	51.944293	0.000677	6.769024	2.293407	-0.054044
 832	4.1550e-01	6.7923	51.581315	0.000909	9.092719	3.080697	-0.072596
 833	4.1600e-01	6.7554	51.282865	0.000748	7.476236	2.533017	-0.059690
 834	4.1650e-01	6.7249	50.972317	0.000778	7.779326	2.635707	-0.062110
 835	4.1700e-01	6.6720	50.685967	0.000717	7.173145	2.430327	-0.057270
 836	4.1750e-01	6.6335	50.327021	0.000899	8.991689	3.046467	-0.071789
 837	4.1800e-01	6.5886	49.996307	0.000828	8.284477	2.806857	-0.066143
 838	4.1850e-01	6.5549	49.718023	0.000697	6.971085	2.361867	-0.055657
 839	4.1900e-01	6.5196	49.447805	0.000677	6.769024	2.293407	-0.054044
 840	4.1950e-01	6.4779	49.104992	0.000859	8.587568	2.909547	-0.068563
 841	4.2000e-01	6.4378	48.778311	0.000818	8.183447	2.772627	-0.065336
 842	4.2050e-01	6.3977	48.427431	0.000879	8.789628	2.978007	-0.070176
 843	4.2100e-01	6.3544	48.141081	0.000717	7.173145	2.430327	-0.057270
 844	4.2150e-01	6.3159	47.891029	0.000626	6.263873	2.122258	-0.050010
 845	4.2200e-01	6.2790	47.596613	0.000738	7.375205	2.498787	-0.058883
 846	4.2250e-01	6.2228	47.282031	0.000788	7.880356	2.669937	-0.062916
 847	4.2300e-01	6.1955	47.044079	0.000596	5.960782	2.019568	-0.047591
 848	4.2350e-01	6.1586	46.697232	0.000869	8.688598	2.943777	-0.069369
 849	4.2400e-01	6.1089	46.370551	0.000818	8.183447	2.772627	-0.065336
 850	4.2450e-01	6.0704	46.096300	0.000687	6.870054	2.327637	-0.054850
 851	4.2500e-01	6.0319	45.801884	0.000738	7.375205	2.498787	-0.058883
 852	4.2550e-01	5.9854	45.414707	0.000970	9.698900	3.286076	-0.077435
 853	4.2600e-01	5.9517	45.124324	0.000727	7.274175	2.464557	-0.058077
 854	4.2650e-01	5.9228	44.837974	0.000717	7.173145	2.430327	-0.057270
 855	4.2700e-01	5.8827	44.563723	0.000687	6.870054	2.327637	-0.054850
 856	4.2750e-01	5.8314	44.212843	0.000879	8.789628	2.978007	-0.070176
 857	4.2800e-01	5.7929	43.922460	0.000727	7.274175	2.464557	-0.058077
 858	4.2850e-01	5.7560	43.579647	0.000859	8.587568	2.909547	-0.068563
 859	4.2900e-01	5.7175	43.269098	0.000778	7.779326	2.635707	-0.062110
 860	4.2950e-01	5.6790	42.938384	0.000828	8.284477	2.806857	-0.066143
 861	4.3000e-01	5.6357	42.656067	0.000707	7.072115	2.396097	-0.056463
 862	4.3050e-01	5.6004	42.365684	0.000727	7.274175	2.464557	-0.058077
 863	4.3100e-01	5.5587	42.043036	0.000808	8.082417	2.738397	-0.064530
 864	4.3150e-01	5.5105	41.748620	0.000738	7.375205	2.498787	-0.058883
 865	4.3200e-01	5.4833	41.353377	0.000990	9.900961	3.354536	-0.079049
 866	4.3250e-01	5.4287	41.103324	0.000626	6.263873	2.122258	-0.050010
 867	4.3300e-01	5.3982	40.841173	0.000657	6.566964	2.224948	-0.052430
 868	4.3350e-01	5.3533	40.530624	0.000778	7.779326	2.635707	-0.062110
 869	4.3400e-01	5.3180	40.216043	0.000788	7.880356	2.669937	-0.062916
 870	4.3450e-01	5.2747	39.885329	0.000828	8.284477	2.806857	-0.066143
 871	4.3500e-01	5.2378	39.550581	0.000839	8.385507	2.841087	-0.066949
 872	4.3550e-01	5.2057	39.163404	0.000970	9.698900	3.286076	-0.077435
 873	4.3600e-01	5.1624	38.909319	0.000636	6.364903	2.156488	-0.050817
 874	4.3650e-01	5.1143	38.631035	0.000697	6.971085	2.361867	-0.055657
 875	4.3700e-01	5.0742	38.356784	0.000687	6.870054	2.327637	-0.054850
 876	4.3750e-01	5.0405	38.005905	0.000879	8.789628	2.978007	-0.070176
 877	4.3800e-01	4.9940	37.739720	0.000667	6.667994	2.259177	-0.053237
 878	4.3850e-01	4.9587	37.384807	0.000889	8.890659	3.012237	-0.070983
 879	4.3900e-01	4.9170	37.017796	0.000919	9.193749	3.114927	-0.073402
 880	4.3950e-01	4.8849	36.715313	0.000758	7.577266	2.567247	-0.060496
 881	4.4000e-01	4.8336	36.400731	0.000788	7.880356	2.669937	-0.062916
 882	4.4050e-01	4.7951	36.150679	0.000626	6.263873	2.122258	-0.050010
 883	4.4100e-01	4.7549	35.791734	0.000899	8.991689	3.046467	-0.071789
 884	4.4150e-01	4.7052	35.493284	0.000748	7.476236	2.533017	-0.059690
 885	4.4200e-01	4.6747	35.227100	0.000667	6.667994	2.259177	-0.053237
 886	4.4250e-01	4.6314	34.819757	0.001020	10.204051	3.457226	-0.081469
 887	4.4300e-01	4.5993	34.541473	0.000697	6.971085	2.361867	-0.055657
 888	4.4350e-01	4.5592	34.263189	0.000697	6.971085	2.361867	-0.055657
 889	4.4400e-01	4.5239	33.896177	0.000919	9.193749	3.114927	-0.073402
 890	4.4450e-01	4.4790	33.589662	0.000768	7.678296	2.601477	-0.061303
 891	4.4500e-01	4.4357	33.323477	0.000667	6.667994	2.259177	-0.053237
 892	4.4550e-01	4.3972	32.988730	0.000839	8.385507	2.841087	-0.066949
 893	4.4600e-01	4.3587	32.641884	0.000869	8.688598	2.943777	-0.069369
 894	4.4650e-01	4.3122	32.307136	0.000839	8.385507	2.841087	-0.066949
 895	4.4700e-01	4.2737	32.028853	0.000697	6.971085	2.361867	-0.055657
 896	4.4750e-01	4.2272	31.734436	0.000738	7.375205	2.498787	-0.058883
 897	4.4800e-01	4.1951	31.395656	0.000849	8.486538	2.875317	-0.067756
 898	4.4850e-01	4.1662	31.093174	0.000758	7.577266	2.567247	-0.060496
 899	4.4900e-01	4.1068	30.814890	0.000697	6.971085	2.361867	-0.055657
 900	4.4950e-01	4.0667	30.476110	0.000849	8.486538	2.875317	-0.067756
 901	4.5000e-01	4.0362	30.121197	0.000889	8.890659	3.012237	-0.070983
 902	4.5050e-01	3.9945	29.790483	0.000828	8.284477	2.806857	-0.066143
 903	4.5100e-01	3.9448	29.451703	0.000849	8.486538	2.875317	-0.067756
 904	4.5150e-01	3.9063	29.157286	0.000738	7.375205	2.498787	-0.058883
 905	4.5200e-01	3.8774	28.822539	0.000839	8.385507	2.841087	-0.066949
 906	4.5250e-01	3.8341	28.544255	0.000697	6.971085	2.361867	-0.055657
 907	4.5300e-01	3.7908	28.177243	0.000919	9.193749	3.114927	-0.073402
 908	4.5350e-01	3.7539	27.866695	0.000778	7.779326	2.635707	-0.062110
 909	4.5400e-01	3.7202	27.552113	0.000788	7.880356	2.669937	-0.062916
 910	4.5450e-01	3.6721	27.257697	0.000738	7.375205	2.498787	-0.058883
 911	4.5500e-01	3.6240	26.939082	0.000798	7.981387	2.704167	-0.063723
 912	4.5550e-01	3.5983	26.652732	0.000717	7.173145	2.430327	-0.057270
 913	4.5600e-01	3.5470	26.277654	0.000940	9.395810	3.183386	-0.075016
 914	4.5650e-01	3.5117	26.003403	0.000687	6.870054	2.327637	-0.054850
 915	4.5700e-01	3.4732	25.688822	0.000788	7.880356	2.669937	-0.062916
 916	4.5750e-01	3.4379	25.350041	0.000849	8.486538	2.875317	-0.067756
 917	4.5800e-01	3.3962	25.027393	0.000808	8.082417	2.738397	-0.064530
 918	4.5850e-01	3.3577	24.753143	0.000687	6.870054	2.327637	-0.054850
 919	4.5900e-01	3.3143	24.382098	0.000929	9.294779	3.149157	-0.074209
 920	4.5950e-01	3.2726	23.994920	0.000970	9.698900	3.286076	-0.077435
 921	4.6000e-01	3.2357	23.716636	0.000697	6.971085	2.361867	-0.055657
 922	4.6050e-01	3.1940	23.373823	0.000859	8.587568	2.909547	-0.068563
 923	4.6100e-01	3.1668	23.075374	0.000748	7.476236	2.533017	-0.059690
 924	4.6150e-01	3.1170	22.768858	0.000768	7.678296	2.601477	-0.061303
 925	4.6200e-01	3.0753	22.401846	0.000919	9.193749	3.114927	-0.073402
 926	4.6250e-01	3.0352	22.107430	0.000738	7.375205	2.498787	-0.058883
 927	4.6300e-01	2.9983	21.821080	0.000717	7.173145	2.430327	-0.057270
 928	4.6350e-01	2.9614	21.502465	0.000798	7.981387	2.704167	-0.063723
 929	4.6400e-01	2.9213	21.131420	0.000929	9.294779	3.149157	-0.074209
 930	4.6450e-01	2.8732	20.788607	0.000859	8.587568	2.909547	-0.068563
 931	4.6500e-01	2.8347	20.510323	0.000697	6.971085	2.361867	-0.055657
 932	4.6550e-01	2.7946	20.219940	0.000727	7.274175	2.464557	-0.058077
 933	4.6600e-01	2.7577	19.869060	0.000879	8.789628	2.978007	-0.070176
 934	4.6650e-01	2.7112	19.586743	0.000707	7.072115	2.396097	-0.056463
 935	4.6700e-01	2.6807	19.264095	0.000808	8.082417	2.738397	-0.064530
 936	4.6750e-01	2.6325	18.901117	0.000909	9.092719	3.080697	-0.072596
 937	4.6800e-01	2.5973	18.530072	0.000929	9.294779	3.149157	-0.074209
 938	4.6850e-01	2.5539	18.292119	0.000596	5.960782	2.019568	-0.047591
 939	4.6900e-01	2.5202	17.921074	0.000929	9.294779	3.149157	-0.074209
 940	4.6950e-01	2.4801	17.606492	0.000788	7.880356	2.669937	-0.062916
 941	4.7000e-01	2.4336	17.295943	0.000778	7.779326	2.635707	-0.062110
 942	4.7050e-01	2.3983	16.993461	0.000758	7.577266	2.567247	-0.060496
 943	4.7100e-01	2.3534	16.626449	0.000919	9.193749	3.114927	-0.073402
 944	4.7150e-01	2.3037	16.271536	0.000889	8.890659	3.012237	-0.070983
 945	4.7200e-01	2.2684	15.960988	0.000778	7.779326	2.635707	-0.062110
 946	4.7250e-01	2.2299	15.678671	0.000707	7.072115	2.396097	-0.056463
 947	4.7300e-01	2.1946	15.335857	0.000859	8.587568	2.909547	-0.068563
 948	4.7350e-01	2.1545	14.984978	0.000879	8.789628	2.978007	-0.070176
 949	4.7400e-01	2.1176	14.686529	0.000748	7.476236	2.533017	-0.059690
 950	4.7450e-01	2.0775	14.400179	0.000717	7.173145	2.430327	-0.057270
 951	4.7500e-01	2.0358	14.073498	0.000818	8.183447	2.772627	-0.065336
 952	4.7550e-01	1.9989	13.726651	0.000869	8.688598	2.943777	-0.069369
 953	4.7600e-01	1.9540	13.355606	0.000929	9.294779	3.149157	-0.074209
 954	4.7650e-01	1.9138	13.085388	0.000677	6.769024	2.293407	-0.054044
 955	4.7700e-01	1.8866	12.742575	0.000859	8.587568	2.909547	-0.068563
 956	4.7750e-01	1.8385	12.432026	0.000778	7.779326	2.635707	-0.062110
 957	4.7800e-01	1.7935	12.149710	0.000707	7.072115	2.396097	-0.056463
 958	4.7850e-01	1.7470	11.762532	0.000970	9.698900	3.286076	-0.077435
 959	4.7900e-01	1.7085	11.476182	0.000717	7.173145	2.430327	-0.057270
 960	4.7950e-01	1.6748	11.141435	0.000839	8.385507	2.841087	-0.066949
 961	4.8000e-01	1.6315	10.859118	0.000707	7.072115	2.396097	-0.056463
 962	4.8050e-01	1.5898	10.484040	0.000940	9.395810	3.183386	-0.075016
 963	4.8100e-01	1.5561	10.205756	0.000697	6.971085	2.361867	-0.055657
 964	4.8150e-01	1.5128	9.838744	0.000919	9.193749	3.114927	-0.073402
 965	4.8200e-01	1.4727	9.491898	0.000869	8.688598	2.943777	-0.069369
 966	4.8250e-01	1.4294	9.189415	0.000758	7.577266	2.567247	-0.060496
 967	4.8300e-01	1.4005	8.874833	0.000788	7.880356	2.669937	-0.062916
 968	4.8350e-01	1.3572	8.560252	0.000788	7.880356	2.669937	-0.062916
 969	4.8400e-01	1.3171	8.201306	0.000899	8.991689	3.046467	-0.071789
 970	4.8450e-01	1.2738	7.894791	0.000768	7.678296	2.601477	-0.061303
 971	4.8500e-01	1.2304	7.471315	0.001061	10.608172	3.594146	-0.084695
 972	4.8550e-01	1.1871	7.281760	0.000475	4.748420	1.608808	-0.037911
 973	4.8600e-01	1.1534	6.914748	0.000919	9.193749	3.114927	-0.073402
 974	4.8650e-01	1.1005	6.567901	0.000869	8.688598	2.943777	-0.069369
 975	4.8700e-01	1.0780	6.269452	0.000748	7.476236	2.533017	-0.059690
 976	4.8750e-01	1.0251	5.962936	0.000768	7.678296	2.601477	-0.061303
 977	4.8800e-01	0.9882	5.620123	0.000859	8.587568	2.909547	-0.068563
 978	4.8850e-01	0.9593	5.305541	0.000788	7.880356	2.669937	-0.062916
 979	4.8900e-01	0.9192	4.999026	0.000768	7.678296	2.601477	-0.061303
 980	4.8950e-01	0.8727	4.656212	0.000859	8.587568	2.909547	-0.068563
 981	4.9000e-01	0.8326	4.289200	0.000919	9.193749	3.114927	-0.073402
 982	4.9050e-01	0.7941	3.978652	0.000778	7.779326	2.635707	-0.062110
 983	4.9100e-01	0.7636	3.635838	0.000859	8.587568	2.909547	-0.068563
 984	4.9150e-01	0.7059	3.301091	0.000839	8.385507	2.841087	-0.066949
 985	4.9200e-01	0.6770	2.950212	0.000879	8.789628	2.978007	-0.070176
 986	4.9250e-01	0.6385	2.679994	0.000677	6.769024	2.293407	-0.054044
 987	4.9300e-01	0.5871	2.401710	0.000697	6.971085	2.361867	-0.055657
 988	4.9350e-01	0.5519	2.022599	0.000950	9.496840	3.217616	-0.075822
 989	4.9400e-01	0.5101	1.699951	0.000808	8.082417	2.738397	-0.064530
 990	4.9450e-01	0.4781	1.341005	0.000899	8.991689	3.046467	-0.071789
 991	4.9500e-01	0.4412	1.038523	0.000758	7.577266	2.567247	-0.060496
 992	4.9550e-01	0.3914	0.695710	0.000859	8.587568	2.909547	-0.068563
 993	4.9600e-01	0.3513	0.429525	0.000667	6.667994	2.259177	-0.053237
 994	4.9650e-01	0.3096	0.022182	0.001020	10.204051	3.457226	-0.081469
 995	4.9700e-01	0.2743	-0.296433	0.000798	7.981387	2.704167	-0.063723
 996	4.9750e-01	0.2374	-0.651345	0.000889	8.890659	3.012237	-0.070983
 997	4.9800e-01	0.1925	-0.921563	0.000677	6.769024	2.293407	-0.054044
 998	4.9850e-01	0.1572	-1.220012	0.000748	7.476236	2.533017	-0.059690
 999	4.9900e-01	0.1091	-1.534594	0.000788	7.880356	2.669937	-0.062916
1000	4.9950e-01	0.0770	-1.929838	0.000990	9.900961	3.354536	-0.079049
1001	5.0000e-01	0.0353	-2.224254	0.000738	7.375205	2.498787	-0.058883
1002	5.0050e-01	0.0064	-2.559001	0.000839	8.385507	2.841087	-0.066949
1003	5.0100e-01	-0.0321	-2.841318	0.000707	7.072115	2.396097	-0.056463
1004	5.0150e-01	-0.0770	-3.095403	0.000636	6.364903	2.156488	-0.050817
1005	5.0200e-01	-0.1267	-3.470481	0.000940	9.395810	3.183386	-0.075016
1006	5.0250e-01	-0.1572	-3.829427	0.000899	8.991689	3.046467	-0.071789
1007	5.0300e-01	-0.2069	-4.123843	0.000738	7.375205	2.498787	-0.058883
1008	5.0350e-01	-0.2294	-4.430359	0.000768	7.678296	2.601477	-0.061303
1009	5.0400e-01	-0.2839	-4.712676	0.000707	7.072115	2.396097	-0.056463
1010	5.0450e-01	-0.3112	-5.067588	0.000889	8.890659	3.012237	-0.070983
1011	5.0500e-01	-0.3610	-5.414435	0.000869	8.688598	2.943777	-0.069369
1012	5.0550e-01	-0.3914	-5.704818	0.000727	7.274175	2.464557	-0.058077
1013	5.0600e-01	-0.4347	-6.055698	0.000879	8.789628	2.978007	-0.070176
1014	5.0650e-01	-0.4893	-6.414643	0.000899	8.991689	3.046467	-0.071789
1015	5.0700e-01	-0.5278	-6.640497	0.000566	5.657692	1.916878	-0.045171
1016	5.0750e-01	-0.5599	-6.995410	0.000889	8.890659	3.012237	-0.070983
1017	5.0800e-01	-0.5936	-7.382587	0.000970	9.698900	3.286076	-0.077435
1018	5.0850e-01	-0.6353	-7.685069	0.000758	7.577266	2.567247	-0.060496
1019	5.0900e-01	-0.6882	-7.987552	0.000758	7.577266	2.567247	-0.060496
1020	5.0950e-01	-0.7091	-8.330365	0.000859	8.587568	2.909547	-0.068563
1021	5.1000e-01	-0.7604	-8.644947	0.000788	7.880356	2.669937	-0.062916
1022	5.1050e-01	-0.8053	-8.971628	0.000818	8.183447	2.772627	-0.065336
1023	5.1100e-01	-0.8374	-9.310408	0.000849	8.486538	2.875317	-0.067756
1024	5.1150e-01	-0.8839	-9.572560	0.000657	6.566964	2.224948	-0.052430
1025	5.1200e-01	-0.9160	-9.899241	0.000818	8.183447	2.772627	-0.065336
1026	5.1250e-01	-0.9529	-10.201723	0.000758	7.577266	2.567247	-0.060496
1027	5.1300e-01	-1.0107	-10.613099	0.001031	10.305081	3.491456	-0.082275
1028	5.1350e-01	-1.0460	-10.923648	0.000778	7.779326	2.635707	-0.062110
1029	5.1400e-01	-1.0780	-11.193865	0.000677	6.769024	2.293407	-0.054044
1030	5.1450e-01	-1.1182	-11.556844	0.000909	9.092719	3.080697	-0.072596
1031	5.1500e-01	-1.1615	-11.891591	0.000839	8.385507	2.841087	-0.066949
1032	5.1550e-01	-1.2032	-12.218272	0.000818	8.183447	2.772627	-0.065336
1033	5.1600e-01	-1.2513	-12.569152	0.000879	8.789628	2.978007	-0.070176
1034	5.1650e-01	-1.2786	-12.875667	0.000768	7.678296	2.601477	-0.061303
1035	5.1700e-01	-1.3155	-13.178150	0.000758	7.577266	2.567247	-0.060496
1036	5.1750e-01	-1.3572	-13.504831	0.000818	8.183447	2.772627	-0.065336
1037	5.1800e-01	-1.4005	-13.863776	0.000899	8.991689	3.046467	-0.071789
1038	5.1850e-01	-1.4390	-14.142060	0.000697	6.971085	2.361867	-0.055657
1039	5.1900e-01	-1.4759	-14.420344	0.000697	6.971085	2.361867	-0.055657
1040	5.1950e-01	-1.5144	-14.839786	0.001051	10.507142	3.559916	-0.083888
1041	5.2000e-01	-1.5593	-15.110004	0.000677	6.769024	2.293407	-0.054044
1042	5.2050e-01	-1.5946	-15.400387	0.000727	7.274175	2.464557	-0.058077
1043	5.2100e-01	-1.6459	-15.791598	0.000980	9.799930	3.320306	-0.078242
1044	5.2150e-01	-1.6812	-16.053749	0.000657	6.566964	2.224948	-0.052430
1045	5.2200e-01	-1.7133	-16.259437	0.000515	5.152541	1.745728	-0.041138
1046	5.2250e-01	-1.7550	-16.682912	0.001061	10.608172	3.594146	-0.084695
1047	5.2300e-01	-1.7999	-16.973295	0.000727	7.274175	2.464557	-0.058077
1048	5.2350e-01	-1.8417	-17.352407	0.000950	9.496840	3.217616	-0.075822
1049	5.2400e-01	-1.8818	-17.658922	0.000768	7.678296	2.601477	-0.061303
1050	5.2450e-01	-1.9155	-17.993669	0.000839	8.385507	2.841087	-0.066949
1051	5.2500e-01	-1.9572	-18.352615	0.000899	8.991689	3.046467	-0.071789
1052	5.2550e-01	-2.0005	-18.590568	0.000596	5.960782	2.019568	-0.047591
1053	5.2600e-01	-2.0229	-18.969679	0.000950	9.496840	3.217616	-0.075822
1054	5.2650e-01	-2.0791	-19.256029	0.000717	7.173145	2.430327	-0.057270
1055	5.2700e-01	-2.1224	-19.558512	0.000758	7.577266	2.567247	-0.060496
1056	5.2750e-01	-2.1609	-19.889226	0.000828	8.284477	2.806857	-0.066143
1057	5.2800e-01	-2.1914	-20.223973	0.000839	8.385507	2.841087	-0.066949
1058	5.2850e-01	-2.2379	-20.498224	0.000687	6.870054	2.327637	-0.054850
1059	5.2900e-01	-2.2780	-20.832971	0.000839	8.385507	2.841087	-0.066949
1060	5.2950e-01	-2.3181	-21.252413	0.001051	10.507142	3.559916	-0.083888
1061	5.3000e-01	-2.3630	-21.466167	0.000535	5.354601	1.814188	-0.042751
1062	5.3050e-01	-2.3983	-21.792848	0.000818	8.183447	2.772627	-0.065336
1063	5.3100e-01	-2.4336	-22.127595	0.000839	8.385507	2.841087	-0.066949
1064	5.3150e-01	-2.4785	-22.434111	0.000768	7.678296	2.601477	-0.061303
1065	5.3200e-01	-2.5251	-22.776924	0.000859	8.587568	2.909547	-0.068563
1066	5.3250e-01	-2.5652	-23.107638	0.000828	8.284477	2.806857	-0.066143
1067	5.3300e-01	-2.6005	-23.410121	0.000758	7.577266	2.567247	-0.060496
1068	5.3350e-01	-2.6454	-23.720669	0.000778	7.779326	2.635707	-0.062110
1069	5.3400e-01	-2.6759	-24.055417	0.000839	8.385507	2.841087	-0.066949
1070	5.3450e-01	-2.7192	-24.374031	0.000798	7.981387	2.704167	-0.063723
1071	5.3500e-01	-2.7545	-24.716845	0.000859	8.587568	2.909547	-0.068563
1072	5.3550e-01	-2.7946	-24.987062	0.000677	6.769024	2.293407	-0.054044
1073	5.3600e-01	-2.8491	-25.265346	0.000697	6.971085	2.361867	-0.055657
1074	5.3650e-01	-2.8796	-25.604126	0.000849	8.486538	2.875317	-0.067756
1075	5.3700e-01	-2.9181	-25.906609	0.000758	7.577266	2.567247	-0.060496
1076	5.3750e-01	-2.9582	-26.225224	0.000798	7.981387	2.704167	-0.063723
1077	5.3800e-01	-2.9983	-26.539805	0.000788	7.880356	2.669937	-0.062916
1078	5.3850e-01	-3.0352	-26.858420	0.000798	7.981387	2.704167	-0.063723
1079	5.3900e-01	-3.0801	-27.177035	0.000798	7.981387	2.704167	-0.063723
1080	5.3950e-01	-3.1170	-27.540014	0.000909	9.092719	3.080697	-0.072596
1081	5.4000e-01	-3.1603	-27.846529	0.000768	7.678296	2.601477	-0.061303
1082	5.4050e-01	-3.1956	-28.161111	0.000788	7.880356	2.669937	-0.062916
1083	5.4100e-01	-3.2325	-28.427295	0.000667	6.667994	2.259177	-0.053237
1084	5.4150e-01	-3.2758	-28.717679	0.000727	7.274175	2.464557	-0.058077
1085	5.4200e-01	-3.3224	-29.028227	0.000778	7.779326	2.635707	-0.062110
1086	5.4250e-01	-3.3528	-29.395239	0.000919	9.193749	3.114927	-0.073402
1087	5.4300e-01	-3.3962	-29.653357	0.000647	6.465933	2.190718	-0.051624
1088	5.4350e-01	-3.4411	-29.955840	0.000758	7.577266	2.567247	-0.060496
1089	5.4400e-01	-3.4748	-30.250256	0.000738	7.375205	2.498787	-0.058883
1090	5.4450e-01	-3.5149	-30.609202	0.000899	8.991689	3.046467	-0.071789
1091	5.4500e-01	-3.5598	-30.947982	0.000849	8.486538	2.875317	-0.067756
1092	5.4550e-01	-3.6047	-31.238365	0.000727	7.274175	2.464557	-0.058077
1093	5.4600e-01	-3.6352	-31.512616	0.000687	6.870054	2.327637	-0.054850
1094	5.4650e-01	-3.6801	-31.815098	0.000758	7.577266	2.567247	-0.060496
1095	5.4700e-01	-3.7154	-32.186143	0.000929	9.294779	3.149157	-0.074209
1096	5.4750e-01	-3.7587	-32.472493	0.000717	7.173145	2.430327	-0.057270
1097	5.4800e-01	-3.8004	-32.855638	0.000960	9.597870	3.251846	-0.076629
1098	5.4850e-01	-3.8389	-33.093591	0.000596	5.960782	2.019568	-0.047591
1099	5.4900e-01	-3.8822	-33.388007	0.000738	7.375205	2.498787	-0.058883
1100	5.4950e-01	-3.9143	-33.690489	0.000758	7.577266	2.567247	-0.060496
1101	5.5000e-01	-3.9625	-33.972806	0.000707	7.072115	2.396097	-0.056463
1102	5.5050e-01	-4.0010	-34.279322	0.000768	7.678296	2.601477	-0.061303
1103	5.5100e-01	-4.0507	-34.513241	0.000586	5.859752	1.985338	-0.046784
1104	5.5150e-01	-4.0764	-34.956882	0.001111	11.113323	3.765296	-0.088728
1105	5.5200e-01	-4.1116	-35.235166	0.000697	6.971085	2.361867	-0.055657
1106	5.5250e-01	-4.1598	-35.561847	0.000818	8.183447	2.772627	-0.065336
1107	5.5300e-01	-4.1999	-35.892561	0.000828	8.284477	2.806857	-0.066143
1108	5.5350e-01	-4.2432	-36.231341	0.000849	8.486538	2.875317	-0.067756
1109	5.5400e-01	-4.2881	-36.517691	0.000717	7.173145	2.430327	-0.057270
1110	5.5450e-01	-4.3202	-36.755644	0.000596	5.960782	2.019568	-0.047591
1111	5.5500e-01	-4.3619	-37.292046	0.001344	13.437018	4.552585	-0.107280
1112	5.5550e-01	-4.3988	-37.404973	0.000283	2.828846	0.958439	-0.022585
1113	5.5600e-01	-4.4437	-37.731654	0.000818	8.183447	2.772627	-0.065336
1114	5.5650e-01	-4.4790	-37.937342	0.000515	5.152541	1.745728	-0.041138
1115	5.5700e-01	-4.5207	-38.251924	0.000788	7.880356	2.669937	-0.062916
1116	5.5750e-01	-4.5592	-38.558439	0.000768	7.678296	2.601477	-0.061303
1117	5.5800e-01	-4.5993	-38.852855	0.000738	7.375205	2.498787	-0.058883
1118	5.5850e-01	-4.6426	-39.236000	0.000960	9.597870	3.251846	-0.076629
1119	5.5900e-01	-4.6763	-39.477986	0.000606	6.061813	2.053798	-0.048397
1120	5.5950e-01	-4.7132	-39.820799	0.000859	8.587568	2.909547	-0.068563
1121	5.6000e-01	-4.7678	-40.103116	0.000707	7.072115	2.396097	-0.056463
1122	5.6050e-01	-4.8047	-40.401565	0.000748	7.476236	2.533017	-0.059690
1123	5.6100e-01	-4.8432	-40.776643	0.000940	9.395810	3.183386	-0.075016
1124	5.6150e-01	-4.8913	-41.058960	0.000707	7.072115	2.396097	-0.056463
1125	5.6200e-01	-4.9298	-41.381608	0.000808	8.082417	2.738397	-0.064530
1126	5.6250e-01	-4.9619	-41.643760	0.000657	6.566964	2.224948	-0.052430
1127	5.6300e-01	-4.9972	-41.918010	0.000687	6.870054	2.327637	-0.054850
1128	5.6350e-01	-5.0357	-42.200327	0.000707	7.072115	2.396097	-0.056463
1129	5.6400e-01	-5.0838	-42.506843	0.000768	7.678296	2.601477	-0.061303
1130	5.6450e-01	-5.1271	-42.825458	0.000798	7.981387	2.704167	-0.063723
1131	5.6500e-01	-5.1496	-43.103741	0.000697	6.971085	2.361867	-0.055657
1132	5.6550e-01	-5.1929	-43.402191	0.000748	7.476236	2.533017	-0.059690
1133	5.6600e-01	-5.2442	-43.700640	0.000748	7.476236	2.533017	-0.059690
1134	5.6650e-01	-5.2892	-44.007155	0.000768	7.678296	2.601477	-0.061303
1135	5.6700e-01	-5.3228	-44.329803	0.000808	8.082417	2.738397	-0.064530
1136	5.6750e-01	-5.3630	-44.628253	0.000748	7.476236	2.533017	-0.059690
1137	5.6800e-01	-5.4063	-44.942834	0.000788	7.880356	2.669937	-0.062916
1138	5.6850e-01	-5.4367	-45.200953	0.000647	6.465933	2.190718	-0.051624
1139	5.6900e-01	-5.4817	-45.487303	0.000717	7.173145	2.430327	-0.057270
1140	5.6950e-01	-5.5234	-45.801884	0.000788	7.880356	2.669937	-0.062916
1141	5.7000e-01	-5.5619	-46.068069	0.000667	6.667994	2.259177	-0.053237
1142	5.7050e-01	-5.6036	-46.366518	0.000748	7.476236	2.533017	-0.059690
1143	5.7100e-01	-5.6437	-46.697232	0.000828	8.284477	2.806857	-0.066143
1144	5.7150e-01	-5.6854	-47.027946	0.000828	8.284477	2.806857	-0.066143
1145	5.7200e-01	-5.7239	-47.326396	0.000748	7.476236	2.533017	-0.059690
1146	5.7250e-01	-5.7624	-47.608712	0.000707	7.072115	2.396097	-0.056463
1147	5.7300e-01	-5.7993	-47.886996	0.000697	6.971085	2.361867	-0.055657
1148	5.7350e-01	-5.8362	-48.133015	0.000616	6.162843	2.088028	-0.049204
1149	5.7400e-01	-5.8779	-48.471796	0.000849	8.486538	2.875317	-0.067756
1150	5.7450e-01	-5.9276	-48.802510	0.000828	8.284477	2.806857	-0.066143
1151	5.7500e-01	-5.9629	-49.076760	0.000687	6.870054	2.327637	-0.054850
1152	5.7550e-01	-5.9982	-49.322779	0.000616	6.162843	2.088028	-0.049204
1153	5.7600e-01	-6.0512	-49.633328	0.000778	7.779326	2.635707	-0.062110
1154	5.7650e-01	-6.0768	-49.883380	0.000626	6.263873	2.122258	-0.050010
1155	5.7700e-01	-6.1169	-50.254425	0.000929	9.294779	3.149157	-0.074209
1156	5.7750e-01	-6.1522	-50.492378	0.000596	5.960782	2.019568	-0.047591
1157	5.7800e-01	-6.1955	-50.794860	0.000758	7.577266	2.567247	-0.060496
1158	5.7850e-01	-6.2421	-51.065078	0.000677	6.769024	2.293407	-0.054044
1159	5.7900e-01	-6.2693	-51.359494	0.000738	7.375205	2.498787	-0.058883
1160	5.7950e-01	-6.3287	-51.666010	0.000768	7.678296	2.601477	-0.061303
1161	5.8000e-01	-6.3624	-51.928161	0.000657	6.566964	2.224948	-0.052430
1162	5.8050e-01	-6.3945	-52.218544	0.000727	7.274175	2.464557	-0.058077
1163	5.8100e-01	-6.4362	-52.549258	0.000828	8.284477	2.806857	-0.066143
1164	5.8150e-01	-6.4747	-52.795277	0.000616	6.162843	2.088028	-0.049204
1165	5.8200e-01	-6.5100	-53.138091	0.000859	8.587568	2.909547	-0.068563
1166	5.8250e-01	-6.5597	-53.392176	0.000636	6.364903	2.156488	-0.050817
1167	5.8300e-01	-6.5998	-53.682559	0.000727	7.274175	2.464557	-0.058077
1168	5.8350e-01	-6.6415	-53.904379	0.000556	5.556662	1.882648	-0.044364
1169	5.8400e-01	-6.6720	-54.247193	0.000859	8.587568	2.909547	-0.068563
1170	5.8450e-01	-6.7201	-54.517410	0.000677	6.769024	2.293407	-0.054044
1171	5.8500e-01	-6.7634	-54.819893	0.000758	7.577266	2.567247	-0.060496
1172	5.8550e-01	-6.7859	-55.106243	0.000717	7.173145	2.430327	-0.057270
1173	5.8600e-01	-6.8372	-55.360328	0.000636	6.364903	2.156488	-0.050817
1174	5.8650e-01	-6.8757	-55.662810	0.000758	7.577266	2.567247	-0.060496
1175	5.8700e-01	-6.9158	-55.924962	0.000657	6.566964	2.224948	-0.052430
1176	5.8750e-01	-6.9592	-56.175014	0.000626	6.263873	2.122258	-0.050010
1177	5.8800e-01	-6.9896	-56.493629	0.000798	7.981387	2.704167	-0.063723
1178	5.8850e-01	-7.0442	-56.820310	0.000818	8.183447	2.772627	-0.065336
1179	5.8900e-01	-7.0682	-57.054229	0.000586	5.859752	1.985338	-0.046784
1180	5.8950e-01	-7.1164	-57.376877	0.000808	8.082417	2.738397	-0.064530
1181	5.9000e-01	-7.1501	-57.659194	0.000707	7.072115	2.396097	-0.056463
1182	5.9050e-01	-7.1998	-57.977809	0.000798	7.981387	2.704167	-0.063723
1183	5.9100e-01	-7.2303	-58.280291	0.000758	7.577266	2.567247	-0.060496
1184	5.9150e-01	-7.2800	-58.502112	0.000556	5.556662	1.882648	-0.044364
1185	5.9200e-01	-7.3153	-58.772329	0.000677	6.769024	2.293407	-0.054044
1186	5.9250e-01	-7.3586	-59.066746	0.000738	7.375205	2.498787	-0.058883
1187	5.9300e-01	-7.4019	-59.336963	0.000677	6.769024	2.293407	-0.054044
1188	5.9350e-01	-7.4340	-59.635412	0.000748	7.476236	2.533017	-0.059690
1189	5.9400e-01	-7.4789	-59.954027	0.000798	7.981387	2.704167	-0.063723
1190	5.9450e-01	-7.5174	-60.220212	0.000667	6.667994	2.259177	-0.053237
1191	5.9500e-01	-7.5543	-60.526727	0.000768	7.678296	2.601477	-0.061303
1192	5.9550e-01	-7.5960	-60.736448	0.000525	5.253571	1.779958	-0.041944
1193	5.9600e-01	-7.6410	-61.063129	0.000818	8.183447	2.772627	-0.065336
1194	5.9650e-01	-7.6698	-61.337380	0.000687	6.870054	2.327637	-0.054850
1195	5.9700e-01	-7.7228	-61.607598	0.000677	6.769024	2.293407	-0.054044
1196	5.9750e-01	-7.7597	-61.897981	0.000727	7.274175	2.464557	-0.058077
1197	5.9800e-01	-7.7950	-62.152066	0.000636	6.364903	2.156488	-0.050817
1198	5.9850e-01	-7.8287	-62.466648	0.000788	7.880356	2.669937	-0.062916
1199	5.9900e-01	-7.8752	-62.712667	0.000616	6.162843	2.088028	-0.049204
1200	5.9950e-01	-7.9201	-63.011116	0.000748	7.476236	2.533017	-0.059690
1201	6.0000e-01	-7.9554	-63.309565	0.000748	7.476236	2.533017	-0.059690
1202	6.0050e-01	-7.9923	-63.499121	0.000475	4.748420	1.608808	-0.037911
1203	6.0100e-01	-8.0356	-63.785471	0.000717	7.173145	2.430327	-0.057270
1204	6.0150e-01	-8.0693	-64.091986	0.000768	7.678296	2.601477	-0.061303
1205	6.0200e-01	-8.1158	-64.406568	0.000788	7.880356	2.669937	-0.062916
1206	6.0250e-01	-8.1591	-64.636455	0.000576	5.758722	1.951108	-0.045977
1207	6.0300e-01	-8.2024	-64.902639	0.000667	6.667994	2.259177	-0.053237
1208	6.0350e-01	-8.2442	-65.233353	0.000828	8.284477	2.806857	-0.066143
1209	6.0400e-01	-8.2746	-65.491472	0.000647	6.465933	2.190718	-0.051624
1210	6.0450e-01	-8.3147	-65.717325	0.000566	5.657692	1.916878	-0.045171
1211	6.0500e-01	-8.3613	-65.991576	0.000687	6.870054	2.327637	-0.054850
1212	6.0550e-01	-8.3966	-66.290025	0.000748	7.476236	2.533017	-0.059690
1213	6.0600e-01	-8.4399	-66.560243	0.000677	6.769024	2.293407	-0.054044
1214	6.0650e-01	-8.4703	-66.782063	0.000556	5.556662	1.882648	-0.044364
1215	6.0700e-01	-8.5169	-67.084546	0.000758	7.577266	2.567247	-0.060496
1216	6.0750e-01	-8.5570	-67.395094	0.000778	7.779326	2.635707	-0.062110
1217	6.0800e-01	-8.6099	-67.653213	0.000647	6.465933	2.190718	-0.051624
1218	6.0850e-01	-8.6388	-67.911331	0.000647	6.465933	2.190718	-0.051624
1219	6.0900e-01	-8.6677	-68.133151	0.000556	5.556662	1.882648	-0.044364
1220	6.0950e-01	-8.7174	-68.443700	0.000778	7.779326	2.635707	-0.062110
1221	6.1000e-01	-8.7639	-68.826844	0.000960	9.597870	3.251846	-0.076629
1222	6.1050e-01	-8.8008	-69.076896	0.000626	6.263873	2.122258	-0.050010
1223	6.1100e-01	-8.8377	-69.290651	0.000535	5.354601	1.814188	-0.042751
1224	6.1150e-01	-8.8762	-69.556835	0.000667	6.667994	2.259177	-0.053237
1225	6.1200e-01	-8.9163	-69.831086	0.000687	6.870054	2.327637	-0.054850
1226	6.1250e-01	-8.9436	-70.141634	0.000778	7.779326	2.635707	-0.062110
1227	6.1300e-01	-8.9981	-70.315058	0.000434	4.344299	1.471888	-0.034685
1228	6.1350e-01	-9.0366	-70.609474	0.000738	7.375205	2.498787	-0.058883
1229	6.1400e-01	-9.0735	-70.859526	0.000626	6.263873	2.122258	-0.050010
1230	6.1450e-01	-9.1201	-71.149909	0.000727	7.274175	2.464557	-0.058077
1231	6.1500e-01	-9.1521	-71.399961	0.000626	6.263873	2.122258	-0.050010
1232	6.1550e-01	-9.1971	-71.690344	0.000727	7.274175	2.464557	-0.058077
1233	6.1600e-01	-9.2452	-71.952496	0.000657	6.566964	2.224948	-0.052430
1234	6.1650e-01	-9.2741	-72.202548	0.000626	6.263873	2.122258	-0.050010
1235	6.1700e-01	-9.3206	-72.480832	0.000697	6.971085	2.361867	-0.055657
1236	6.1750e-01	-9.3559	-72.771215	0.000727	7.274175	2.464557	-0.058077
1237	6.1800e-01	-9.3992	-73.049498	0.000697	6.971085	2.361867	-0.055657
1238	6.1850e-01	-9.4473	-73.287451	0.000596	5.960782	2.019568	-0.047591
1239	6.1900e-01	-9.4794	-73.581867	0.000738	7.375205	2.498787	-0.058883
1240	6.1950e-01	-9.5211	-73.823853	0.000606	6.061813	2.053798	-0.048397
1241	6.2000e-01	-9.5612	-74.061806	0.000596	5.960782	2.019568	-0.047591
1242	6.2050e-01	-9.5965	-74.348156	0.000717	7.173145	2.430327	-0.057270
1243	6.2100e-01	-9.6302	-74.614341	0.000667	6.667994	2.259177	-0.053237
1244	6.2150e-01	-9.6815	-75.017651	0.001010	10.103021	3.422996	-0.080662
1245	6.2200e-01	-9.7184	-75.146710	0.000323	3.232967	1.095359	-0.025812
1246	6.2250e-01	-9.7505	-75.364497	0.000546	5.455631	1.848418	-0.043557
1247	6.2300e-01	-9.7922	-75.711344	0.000869	8.688598	2.943777	-0.069369
1248	6.2350e-01	-9.8356	-75.965429	0.000636	6.364903	2.156488	-0.050817
1249	6.2400e-01	-9.8757	-76.183216	0.000546	5.455631	1.848418	-0.043557
1250	6.2450e-01	-9.9222	-76.372772	0.000475	4.748420	1.608808	-0.037911
1251	6.2500e-01	-9.9543	-76.550228	0.000445	4.445329	1.506118	-0.035491
1252	6.2550e-01	-9.9992	-76.929339	0.000950	9.496840	3.217616	-0.075822
1253	6.2600e-01	-10.0393	-77.183425	0.000636	6.364903	2.156488	-0.050817
1254	6.2650e-01	-10.0714	-77.485907	0.000758	7.577266	2.567247	-0.060496
1255	6.2700e-01	-10.1243	-77.707727	0.000556	5.556662	1.882648	-0.044364
1256	6.2750e-01	-10.1628	-78.010210	0.000758	7.577266	2.567247	-0.060496
1257	6.2800e-01	-10.1981	-78.203798	0.000485	4.849450	1.643038	-0.038718
1258	6.2850e-01	-10.2414	-78.550645	0.000869	8.688598	2.943777	-0.069369
1259	6.2900e-01	-10.2751	-78.816829	0.000667	6.667994	2.259177	-0.053237
1260	6.2950e-01	-10.3168	-79.034617	0.000546	5.455631	1.848418	-0.043557
1261	6.3000e-01	-10.3489	-79.365331	0.000828	8.284477	2.806857	-0.066143
1262	6.3050e-01	-10.3970	-79.591184	0.000566	5.657692	1.916878	-0.045171
1263	6.3100e-01	-10.4403	-79.813005	0.000556	5.556662	1.882648	-0.044364
1264	6.3150e-01	-10.4724	-80.083222	0.000677	6.769024	2.293407	-0.054044
1265	6.3200e-01	-10.5222	-80.313109	0.000576	5.758722	1.951108	-0.045977
1266	6.3250e-01	-10.5542	-80.619625	0.000768	7.678296	2.601477	-0.061303
1267	6.3300e-01	-10.5992	-80.833379	0.000535	5.354601	1.814188	-0.042751
1268	6.3350e-01	-10.6345	-81.063265	0.000576	5.758722	1.951108	-0.045977
1269	6.3400e-01	-10.6874	-81.361715	0.000748	7.476236	2.533017	-0.059690
1270	6.3450e-01	-10.7147	-81.623866	0.000657	6.566964	2.224948	-0.052430
1271	6.3500e-01	-10.7580	-81.890051	0.000667	6.667994	2.259177	-0.053237
1272	6.3550e-01	-10.7949	-82.160268	0.000677	6.769024	2.293407	-0.054044
1273	6.3600e-01	-10.8318	-82.430486	0.000677	6.769024	2.293407	-0.054044
1274	6.3650e-01	-10.8703	-82.676505	0.000616	6.162843	2.088028	-0.049204
1275	6.3700e-01	-10.9152	-82.930590	0.000636	6.364903	2.156488	-0.050817
1276	6.3750e-01	-10.9537	-83.136278	0.000515	5.152541	1.745728	-0.041138
1277	6.3800e-01	-10.9890	-83.402463	0.000667	6.667994	2.259177	-0.053237
1278	6.3850e-01	-11.0339	-83.632349	0.000576	5.758722	1.951108	-0.045977
1279	6.3900e-01	-11.0740	-83.910633	0.000697	6.971085	2.361867	-0.055657
1280	6.3950e-01	-11.1157	-84.229248	0.000798	7.981387	2.704167	-0.063723
1281	6.4000e-01	-11.1558	-84.406704	0.000445	4.445329	1.506118	-0.035491
1282	6.4050e-01	-11.2024	-84.628525	0.000556	5.556662	1.882648	-0.044364
1283	6.4100e-01	-11.2393	-84.886643	0.000647	6.465933	2.190718	-0.051624
1284	6.4150e-01	-11.2794	-85.197191	0.000778	7.779326	2.635707	-0.062110
1285	6.4200e-01	-11.3179	-85.443210	0.000616	6.162843	2.088028	-0.049204
1286	6.4250e-01	-11.3628	-85.697296	0.000636	6.364903	2.156488	-0.050817
1287	6.4300e-01	-11.3981	-85.951381	0.000636	6.364903	2.156488	-0.050817
1288	6.4350e-01	-11.4366	-86.201433	0.000626	6.263873	2.122258	-0.050010
1289	6.4400e-01	-11.4831	-86.407121	0.000515	5.152541	1.745728	-0.041138
1290	6.4450e-01	-11.5200	-86.693471	0.000717	7.173145	2.430327	-0.057270
1291	6.4500e-01	-11.5633	-86.939490	0.000616	6.162843	2.088028	-0.049204
1292	6.4550e-01	-11.6002	-87.201641	0.000657	6.566964	2.224948	-0.052430
1293	6.4600e-01	-11.6387	-87.504124	0.000758	7.577266	2.567247	-0.060496
1294	6.4650e-01	-11.6788	-87.721911	0.000546	5.455631	1.848418	-0.043557
1295	6.4700e-01	-11.7173	-87.967930	0.000616	6.162843	2.088028	-0.049204
1296	6.4750e-01	-11.7590	-88.242181	0.000687	6.870054	2.327637	-0.054850
1297	6.4800e-01	-11.7959	-88.472067	0.000576	5.758722	1.951108	-0.045977
1298	6.4850e-01	-11.8408	-88.653557	0.000455	4.546359	1.540348	-0.036298
1299	6.4900e-01	-11.8809	-88.899576	0.000616	6.162843	2.088028	-0.049204
1300	6.4950e-01	-11.9211	-89.113330	0.000535	5.354601	1.814188	-0.042751
1301	6.5000e-01	-11.9580	-89.415813	0.000758	7.577266	2.567247	-0.060496
1302	6.5050e-01	-11.9981	-89.694096	0.000697	6.971085	2.361867	-0.055657
1303	6.5100e-01	-12.0366	-89.911884	0.000546	5.455631	1.848418	-0.043557
1304	6.5150e-01	-12.0799	-90.165969	0.000636	6.364903	2.156488	-0.050817
1305	6.5200e-01	-12.1184	-90.403922	0.000596	5.960782	2.019568	-0.047591
1306	6.5250e-01	-12.1553	-90.702371	0.000748	7.476236	2.533017	-0.059690
1307	6.5300e-01	-12.2050	-90.960489	0.000647	6.465933	2.190718	-0.051624
1308	6.5350e-01	-12.2355	-91.178277	0.000546	5.455631	1.848418	-0.043557
1309	6.5400e-01	-12.2772	-91.375898	0.000495	4.950480	1.677268	-0.039524
1310	6.5450e-01	-12.3189	-91.654182	0.000697	6.971085	2.361867	-0.055657
1311	6.5500e-01	-12.3670	-91.871970	0.000546	5.455631	1.848418	-0.043557
1312	6.5550e-01	-12.3943	-92.154287	0.000707	7.072115	2.396097	-0.056463
1313	6.5600e-01	-12.4376	-92.343842	0.000475	4.748420	1.608808	-0.037911
1314	6.5650e-01	-12.4809	-92.618093	0.000687	6.870054	2.327637	-0.054850
1315	6.5700e-01	-12.5162	-92.880244	0.000657	6.566964	2.224948	-0.052430
1316	6.5750e-01	-12.5531	-93.110131	0.000576	5.758722	1.951108	-0.045977
1317	6.5800e-01	-12.6012	-93.352117	0.000606	6.061813	2.053798	-0.048397
1318	6.5850e-01	-12.6414	-93.630401	0.000697	6.971085	2.361867	-0.055657
1319	6.5900e-01	-12.6766	-93.819956	0.000475	4.748420	1.608808	-0.037911
1320	6.5950e-01	-12.7184	-94.118406	0.000748	7.476236	2.533017	-0.059690
1321	6.6000e-01	-12.7585	-94.275696	0.000394	3.940178	1.334969	-0.031458
1322	6.6050e-01	-12.8002	-94.654808	0.000950	9.496840	3.217616	-0.075822
1323	6.6100e-01	-12.8371	-94.840330	0.000465	4.647390	1.574578	-0.037105
1324	6.6150e-01	-12.8804	-95.134746	0.000738	7.375205	2.498787	-0.058883
1325	6.6200e-01	-12.9189	-95.344468	0.000525	5.253571	1.779958	-0.041944
1326	6.6250e-01	-12.9606	-95.558222	0.000535	5.354601	1.814188	-0.042751
1327	6.6300e-01	-12.9959	-95.784075	0.000566	5.657692	1.916878	-0.045171
1328	6.6350e-01	-13.0344	-96.013962	0.000576	5.758722	1.951108	-0.045977
1329	6.6400e-01	-13.0825	-96.243848	0.000576	5.758722	1.951108	-0.045977
1330	6.6450e-01	-13.1146	-96.510033	0.000667	6.667994	2.259177	-0.053237
1331	6.6500e-01	-13.1595	-96.719754	0.000525	5.253571	1.779958	-0.041944
1332	6.6550e-01	-13.1916	-96.965773	0.000616	6.162843	2.088028	-0.049204
1333	6.6600e-01	-13.2365	-97.227925	0.000657	6.566964	2.224948	-0.052430
1334	6.6650e-01	-13.2798	-97.469910	0.000606	6.061813	2.053798	-0.048397
1335	6.6700e-01	-13.3183	-97.707863	0.000596	5.960782	2.019568	-0.047591
1336	6.6750e-01	-13.3552	-97.957915	0.000626	6.263873	2.122258	-0.050010
1337	6.6800e-01	-13.4034	-98.216034	0.000647	6.465933	2.190718	-0.051624
1338	6.6850e-01	-13.4419	-98.429788	0.000535	5.354601	1.814188	-0.042751
1339	6.6900e-01	-13.4723	-98.647575	0.000546	5.455631	1.848418	-0.043557
1340	6.6950e-01	-13.5125	-98.865363	0.000546	5.455631	1.848418	-0.043557
1341	6.7000e-01	-13.5606	-99.115415	0.000626	6.263873	2.122258	-0.050010
1342	6.7050e-01	-13.5959	-99.393699	0.000697	6.971085	2.361867	-0.055657
1343	6.7100e-01	-13.6344	-99.615519	0.000556	5.556662	1.882648	-0.044364
1344	6.7150e-01	-13.6713	-99.821207	0.000515	5.152541	1.745728	-0.041138
1345	6.7200e-01	-13.7226	-100.099491	0.000697	6.971085	2.361867	-0.055657
1346	6.7250e-01	-13.7643	-100.333410	0.000586	5.859752	1.985338	-0.046784
1347	6.7300e-01	-13.7964	-100.563297	0.000576	5.758722	1.951108	-0.045977
1348	6.7350e-01	-13.8317	-100.833515	0.000677	6.769024	2.293407	-0.054044
1349	6.7400e-01	-13.8862	-101.063401	0.000576	5.758722	1.951108	-0.045977
1350	6.7450e-01	-13.9151	-101.256990	0.000485	4.849450	1.643038	-0.038718
1351	6.7500e-01	-13.9600	-101.543340	0.000717	7.173145	2.430327	-0.057270
1352	6.7550e-01	-14.0001	-101.777260	0.000586	5.859752	1.985338	-0.046784
1353	6.7600e-01	-14.0242	-101.970849	0.000485	4.849450	1.643038	-0.038718
1354	6.7650e-01	-14.0691	-102.241066	0.000677	6.769024	2.293407	-0.054044
1355	6.7700e-01	-14.1189	-102.398357	0.000394	3.940178	1.334969	-0.031458
1356	6.7750e-01	-14.1622	-102.696806	0.000748	7.476236	2.533017	-0.059690
1357	6.7800e-01	-14.1943	-102.942825	0.000616	6.162843	2.088028	-0.049204
1358	6.7850e-01	-14.2328	-103.160613	0.000546	5.455631	1.848418	-0.043557
1359	6.7900e-01	-14.2841	-103.434863	0.000687	6.870054	2.327637	-0.054850
1360	6.7950e-01	-14.3178	-103.660717	0.000566	5.657692	1.916878	-0.045171
1361	6.8000e-01	-14.3579	-103.866405	0.000515	5.152541	1.745728	-0.041138
1362	6.8050e-01	-14.3948	-104.108391	0.000606	6.061813	2.053798	-0.048397
1363	6.8100e-01	-14.4461	-104.342310	0.000586	5.859752	1.985338	-0.046784
1364	6.8150e-01	-14.4782	-104.576230	0.000586	5.859752	1.985338	-0.046784
1365	6.8200e-01	-14.5135	-104.818216	0.000606	6.061813	2.053798	-0.048397
1366	6.8250e-01	-14.5584	-105.068268	0.000626	6.263873	2.122258	-0.050010
1367	6.8300e-01	-14.6001	-105.241691	0.000434	4.344299	1.471888	-0.034685
1368	6.8350e-01	-14.6370	-105.443346	0.000505	5.051511	1.711498	-0.040331
1369	6.8400e-01	-14.6691	-105.729696	0.000717	7.173145	2.430327	-0.057270
1370	6.8450e-01	-14.7253	-105.995881	0.000667	6.667994	2.259177	-0.053237
1371	6.8500e-01	-14.7638	-106.185437	0.000475	4.748420	1.608808	-0.037911
1372	6.8550e-01	-14.7974	-106.439522	0.000636	6.364903	2.156488	-0.050817
1373	6.8600e-01	-14.8424	-106.665375	0.000566	5.657692	1.916878	-0.045171
1374	6.8650e-01	-14.8825	-106.915427	0.000626	6.263873	2.122258	-0.050010
1375	6.8700e-01	-14.9210	-107.165480	0.000626	6.263873	2.122258	-0.050010
1376	6.8750e-01	-14.9482	-107.399399	0.000586	5.859752	1.985338	-0.046784
1377	6.8800e-01	-14.9964	-107.601054	0.000505	5.051511	1.711498	-0.040331
1378	6.8850e-01	-15.0397	-107.830941	0.000576	5.758722	1.951108	-0.045977
1379	6.8900e-01	-15.0894	-108.048728	0.000546	5.455631	1.848418	-0.043557
1380	6.8950e-01	-15.1199	-108.274582	0.000566	5.657692	1.916878	-0.045171
1381	6.9000e-01	-15.1536	-108.528667	0.000636	6.364903	2.156488	-0.050817
1382	6.9050e-01	-15.1953	-108.722256	0.000485	4.849450	1.643038	-0.038718
1383	6.9100e-01	-15.2354	-109.020705	0.000748	7.476236	2.533017	-0.059690
1384	6.9150e-01	-15.2851	-109.214294	0.000485	4.849450	1.643038	-0.038718
1385	6.9200e-01	-15.3220	-109.456280	0.000606	6.061813	2.053798	-0.048397
1386	6.9250e-01	-15.3429	-109.686166	0.000576	5.758722	1.951108	-0.045977
1387	6.9300e-01	-15.3974	-109.831358	0.000364	3.637088	1.232279	-0.029038
1388	6.9350e-01	-15.4391	-110.186270	0.000889	8.890659	3.012237	-0.070983
1389	6.9400e-01	-15.4776	-110.391958	0.000515	5.152541	1.745728	-0.041138
1390	6.9450e-01	-15.5177	-110.642011	0.000626	6.263873	2.122258	-0.050010
1391	6.9500e-01	-15.5578	-110.968691	0.000818	8.183447	2.772627	-0.065336
1392	6.9550e-01	-15.5931	-111.138082	0.000424	4.243269	1.437658	-0.033878
1393	6.9600e-01	-15.6493	-111.404266	0.000667	6.667994	2.259177	-0.053237
1394	6.9650e-01	-15.6798	-111.521226	0.000293	2.929876	0.992669	-0.023392
1395	6.9700e-01	-15.7167	-111.755146	0.000586	5.859752	1.985338	-0.046784
1396	6.9750e-01	-15.7648	-112.021330	0.000667	6.667994	2.259177	-0.053237
1397	6.9800e-01	-15.8033	-112.299614	0.000697	6.971085	2.361867	-0.055657
1398	6.9850e-01	-15.8386	-112.469004	0.000424	4.243269	1.437658	-0.033878
1399	6.9900e-01	-15.8803	-112.727122	0.000647	6.465933	2.190718	-0.051624
1400	6.9950e-01	-15.9156	-112.904579	0.000445	4.445329	1.506118	-0.035491
1401	7.0000e-01	-15.9509	-113.166730	0.000657	6.566964	2.224948	-0.052430
1402	7.0050e-01	-15.9926	-113.396617	0.000576	5.758722	1.951108	-0.045977
1403	7.0100e-01	-16.0375	-113.561974	0.000414	4.142239	1.403428	-0.033071
1404	7.0150e-01	-16.0776	-113.868489	0.000768	7.678296	2.601477	-0.061303
1405	7.0200e-01	-16.1113	-114.146773	0.000697	6.971085	2.361867	-0.055657
1406	7.0250e-01	-16.1562	-114.251634	0.000263	2.626785	0.889979	-0.020972
1407	7.0300e-01	-16.1931	-114.517818	0.000667	6.667994	2.259177	-0.053237
1408	7.0350e-01	-16.2413	-114.731572	0.000535	5.354601	1.814188	-0.042751
1409	7.0400e-01	-16.2798	-114.957426	0.000566	5.657692	1.916878	-0.045171
1410	7.0450e-01	-16.3183	-115.239743	0.000707	7.072115	2.396097	-0.056463
1411	7.0500e-01	-16.3600	-115.473663	0.000586	5.859752	1.985338	-0.046784
1412	7.0550e-01	-16.3953	-115.703549	0.000576	5.758722	1.951108	-0.045977
1413	7.0600e-01	-16.4354	-115.941502	0.000596	5.960782	2.019568	-0.047591
1414	7.0650e-01	-16.4771	-116.147190	0.000515	5.152541	1.745728	-0.041138
1415	7.0700e-01	-16.5156	-116.377077	0.000576	5.758722	1.951108	-0.045977
1416	7.0750e-01	-16.5493	-116.610996	0.000586	5.859752	1.985338	-0.046784
1417	7.0800e-01	-16.5990	-116.824751	0.000535	5.354601	1.814188	-0.042751
1418	7.0850e-01	-16.6359	-117.014306	0.000475	4.748420	1.608808	-0.037911
1419	7.0900e-01	-16.6728	-117.260325	0.000616	6.162843	2.088028	-0.049204
1420	7.0950e-01	-16.7081	-117.514411	0.000636	6.364903	2.156488	-0.050817
1421	7.1000e-01	-16.7642	-117.703966	0.000475	4.748420	1.608808	-0.037911
1422	7.1050e-01	-16.7947	-117.962084	0.000647	6.465933	2.190718	-0.051624
1423	7.1100e-01	-16.8396	-118.212137	0.000626	6.263873	2.122258	-0.050010
1424	7.1150e-01	-16.8765	-118.450089	0.000596	5.960782	2.019568	-0.047591
1425	7.1200e-01	-16.9231	-118.700142	0.000626	6.263873	2.122258	-0.050010
1426	7.1250e-01	-16.9551	-118.917929	0.000546	5.455631	1.848418	-0.043557
1427	7.1300e-01	-16.9904	-119.143782	0.000566	5.657692	1.916878	-0.045171
1428	7.1350e-01	-17.0321	-119.357537	0.000535	5.354601	1.814188	-0.042751
1429	7.1400e-01	-17.0819	-119.567258	0.000525	5.253571	1.779958	-0.041944
1430	7.1450e-01	-17.1204	-119.817310	0.000626	6.263873	2.122258	-0.050010
1431	7.1500e-01	-17.1589	-120.083494	0.000667	6.667994	2.259177	-0.053237
1432	7.1550e-01	-17.2070	-120.305315	0.000556	5.556662	1.882648	-0.044364
1433	7.1600e-01	-17.2327	-120.486804	0.000455	4.546359	1.540348	-0.036298
1434	7.1650e-01	-17.2760	-120.720724	0.000586	5.859752	1.985338	-0.046784
1435	7.1700e-01	-17.3177	-120.970776	0.000626	6.263873	2.122258	-0.050010
1436	7.1750e-01	-17.3626	-121.192596	0.000556	5.556662	1.882648	-0.044364
1437	7.1800e-01	-17.4027	-121.426516	0.000586	5.859752	1.985338	-0.046784
1438	7.1850e-01	-17.4396	-121.644303	0.000546	5.455631	1.848418	-0.043557
1439	7.1900e-01	-17.4813	-121.849992	0.000515	5.152541	1.745728	-0.041138
1440	7.1950e-01	-17.5198	-122.120209	0.000677	6.769024	2.293407	-0.054044
1441	7.2000e-01	-17.5551	-122.342030	0.000556	5.556662	1.882648	-0.044364
1442	7.2050e-01	-17.6049	-122.547718	0.000515	5.152541	1.745728	-0.041138
1443	7.2100e-01	-17.6417	-122.785670	0.000596	5.960782	2.019568	-0.047591
1444	7.2150e-01	-17.6754	-123.043789	0.000647	6.465933	2.190718	-0.051624
1445	7.2200e-01	-17.7220	-123.314006	0.000677	6.769024	2.293407	-0.054044
1446	7.2250e-01	-17.7589	-123.503562	0.000475	4.748420	1.608808	-0.037911
1447	7.2300e-01	-17.7974	-123.713283	0.000525	5.253571	1.779958	-0.041944
1448	7.2350e-01	-17.8262	-124.011732	0.000748	7.476236	2.533017	-0.059690
1449	7.2400e-01	-17.8744	-124.257751	0.000616	6.162843	2.088028	-0.049204
1450	7.2450e-01	-17.9145	-124.415042	0.000394	3.940178	1.334969	-0.031458
1451	7.2500e-01	-17.9594	-124.628796	0.000535	5.354601	1.814188	-0.042751
1452	7.2550e-01	-18.0011	-124.866749	0.000596	5.960782	2.019568	-0.047591
1453	7.2600e-01	-18.0316	-125.124868	0.000647	6.465933	2.190718	-0.051624
1454	7.2650e-01	-18.0813	-125.407184	0.000707	7.072115	2.396097	-0.056463
1455	7.2700e-01	-18.1070	-125.564475	0.000394	3.940178	1.334969	-0.031458
1456	7.2750e-01	-18.1551	-125.826627	0.000657	6.566964	2.224948	-0.052430
1457	7.2800e-01	-18.1984	-125.903256	0.000192	1.919574	0.650369	-0.015326
1458	7.2850e-01	-18.2417	-126.298499	0.000990	9.900961	3.354536	-0.079049
1459	7.2900e-01	-18.2802	-126.540485	0.000606	6.061813	2.053798	-0.048397
1460	7.2950e-01	-18.3139	-126.798604	0.000647	6.465933	2.190718	-0.051624
1461	7.3000e-01	-18.3572	-126.959927	0.000404	4.041208	1.369198	-0.032265
1462	7.3050e-01	-18.3973	-127.278542	0.000798	7.981387	2.704167	-0.063723
1463	7.3100e-01	-18.4374	-127.488263	0.000525	5.253571	1.779958	-0.041944
1464	7.3150e-01	-18.4743	-127.693951	0.000515	5.152541	1.745728	-0.041138
1465	7.3200e-01	-18.5225	-127.939970	0.000616	6.162843	2.088028	-0.049204
1466	7.3250e-01	-18.5562	-128.165824	0.000566	5.657692	1.916878	-0.045171
1467	7.3300e-01	-18.5979	-128.411843	0.000616	6.162843	2.088028	-0.049204
1468	7.3350e-01	-18.6316	-128.633663	0.000556	5.556662	1.882648	-0.044364
1469	7.3400e-01	-18.6829	-128.887749	0.000636	6.364903	2.156488	-0.050817
1470	7.3450e-01	-18.7150	-129.109569	0.000556	5.556662	1.882648	-0.044364
1471	7.3500e-01	-18.7583	-129.291058	0.000455	4.546359	1.540348	-0.036298
1472	7.3550e-01	-18.8032	-129.565309	0.000687	6.870054	2.327637	-0.054850
1473	7.3600e-01	-18.8369	-129.787130	0.000556	5.556662	1.882648	-0.044364
1474	7.3650e-01	-18.8738	-130.033149	0.000616	6.162843	2.088028	-0.049204
1475	7.3700e-01	-18.9219	-130.267068	0.000586	5.859752	1.985338	-0.046784
1476	7.3750e-01	-18.9476	-130.509054	0.000606	6.061813	2.053798	-0.048397
1477	7.3800e-01	-18.9957	-130.759106	0.000626	6.263873	2.122258	-0.050010
1478	7.3850e-01	-19.0390	-131.013192	0.000636	6.364903	2.156488	-0.050817
1479	7.3900e-01	-19.0759	-131.235012	0.000556	5.556662	1.882648	-0.044364
1480	7.3950e-01	-19.1176	-131.485064	0.000626	6.263873	2.122258	-0.050010
1481	7.4000e-01	-19.1513	-131.678653	0.000485	4.849450	1.643038	-0.038718
1482	7.4050e-01	-19.2027	-131.916606	0.000596	5.960782	2.019568	-0.047591
1483	7.4100e-01	-19.2492	-132.158592	0.000606	6.061813	2.053798	-0.048397
1484	7.4150e-01	-19.2781	-132.436875	0.000697	6.971085	2.361867	-0.055657
1485	7.4200e-01	-19.3246	-132.670795	0.000586	5.859752	1.985338	-0.046784
1486	7.4250e-01	-19.3631	-132.892615	0.000556	5.556662	1.882648	-0.044364
1487	7.4300e-01	-19.4064	-133.166866	0.000687	6.870054	2.327637	-0.054850
1488	7.4350e-01	-19.4369	-133.336256	0.000424	4.243269	1.437658	-0.033878
1489	7.4400e-01	-19.4802	-133.598408	0.000657	6.566964	2.224948	-0.052430
1490	7.4450e-01	-19.5251	-133.787963	0.000475	4.748420	1.608808	-0.037911
1491	7.4500e-01	-19.5540	-134.029949	0.000606	6.061813	2.053798	-0.048397
1492	7.4550e-01	-19.5925	-134.308233	0.000697	6.971085	2.361867	-0.055657
1493	7.4600e-01	-19.6422	-134.574418	0.000667	6.667994	2.259177	-0.053237
1494	7.4650e-01	-19.6855	-134.804304	0.000576	5.758722	1.951108	-0.045977
1495	7.4700e-01	-19.7160	-134.993860	0.000475	4.748420	1.608808	-0.037911
1496	7.4750e-01	-19.7577	-135.340706	0.000869	8.688598	2.943777	-0.069369
1497	7.4800e-01	-19.7930	-135.550427	0.000525	5.253571	1.779958	-0.041944
1498	7.4850e-01	-19.8379	-135.780314	0.000576	5.758722	1.951108	-0.045977
1499	7.4900e-01	-19.8684	-136.002135	0.000556	5.556662	1.882648	-0.044364
1500	7.4950e-01	-19.9230	-136.260253	0.000647	6.465933	2.190718	-0.051624
1501	7.5000e-01	-19.9583	-136.526437	0.000667	6.667994	2.259177	-0.053237
1502	7.5050e-01	-19.9534	-136.695827	-0.000424	-4.243269	-1.437658	-0.033878
1503	7.5100e-01	-19.9326	-136.816820	-0.000303	-3.030906	-1.026899	-0.024199
1504	7.5150e-01	-19.8957	-136.812787	0.000010	0.101030	0.034230	0.000807
1505	7.5200e-01	-19.8604	-136.816820	-0.000010	-0.101030	-0.034230	-0.000807
1506	7.5250e-01	-19.8203	-136.752291	0.000162	1.616483	0.547679	0.012906
1507	7.5300e-01	-19.7770	-136.631298	0.000303	3.030906	1.026899	0.024199
1508	7.5350e-01	-19.7337	-136.578868	0.000131	1.313393	0.444990	0.010486
1509	7.5400e-01	-19.7032	-136.405444	0.000434	4.344299	1.471888	0.034685
1510	7.5450e-01	-19.6583	-136.288485	0.000293	2.929876	0.992669	0.023392
1511	7.5500e-01	-19.6214	-136.256220	0.000081	0.808242	0.273840	0.006453
1512	7.5550e-01	-19.5797	-136.106995	0.000374	3.738118	1.266509	0.029845
1513	7.5600e-01	-19.5347	-135.925506	0.000455	4.546359	1.540348	0.036298
1514	7.5650e-01	-19.4930	-135.800480	0.000313	3.131937	1.061129	0.025005
1515	7.5700e-01	-19.4609	-135.707718	0.000232	2.323695	0.787289	0.018552
1516	7.5750e-01	-19.4176	-135.538328	0.000424	4.243269	1.437658	0.033878
1517	7.5800e-01	-19.3743	-135.393137	0.000364	3.637088	1.232279	0.029038
1518	7.5850e-01	-19.3358	-135.223746	0.000424	4.243269	1.437658	0.033878
1519	7.5900e-01	-19.2957	-135.106787	0.000293	2.929876	0.992669	0.023392
1520	7.5950e-01	-19.2700	-134.965628	0.000354	3.536057	1.198049	0.028232
1521	7.6000e-01	-19.2187	-134.804304	0.000404	4.041208	1.369198	0.032265
1522	7.6050e-01	-19.1802	-134.707510	0.000242	2.424725	0.821519	0.019359
1523	7.6100e-01	-19.1433	-134.590550	0.000293	2.929876	0.992669	0.023392
1524	7.6150e-01	-19.0904	-134.396961	0.000485	4.849450	1.643038	0.038718
1525	7.6200e-01	-19.0647	-134.235637	0.000404	4.041208	1.369198	0.032265
1526	7.6250e-01	-19.0198	-134.106578	0.000323	3.232967	1.095359	0.025812
1527	7.6300e-01	-18.9829	-134.009784	0.000242	2.424725	0.821519	0.019359
1528	7.6350e-01	-18.9476	-133.844427	0.000414	4.142239	1.403428	0.033071
1529	7.6400e-01	-18.9107	-133.679070	0.000414	4.142239	1.403428	0.033071
1530	7.6450e-01	-18.8513	-133.594375	0.000212	2.121634	0.718829	0.016939
1531	7.6500e-01	-18.8144	-133.380620	0.000535	5.354601	1.814188	0.042751
1532	7.6550e-01	-18.7808	-133.243495	0.000344	3.435027	1.163819	0.027425
1533	7.6600e-01	-18.7390	-133.062006	0.000455	4.546359	1.540348	0.036298
1534	7.6650e-01	-18.6941	-132.924880	0.000344	3.435027	1.163819	0.027425
1535	7.6700e-01	-18.6652	-132.775656	0.000374	3.738118	1.266509	0.029845
1536	7.6750e-01	-18.6235	-132.638530	0.000344	3.435027	1.163819	0.027425
1537	7.6800e-01	-18.5882	-132.481239	0.000394	3.940178	1.334969	0.031458
1538	7.6850e-01	-18.5481	-132.336048	0.000364	3.637088	1.232279	0.029038
1539	7.6900e-01	-18.4952	-132.150525	0.000465	4.647390	1.574578	0.037105
1540	7.6950e-01	-18.4519	-132.001301	0.000374	3.738118	1.266509	0.029845
1541	7.7000e-01	-18.4262	-131.860142	0.000354	3.536057	1.198049	0.028232
1542	7.7050e-01	-18.3797	-131.686719	0.000434	4.344299	1.471888	0.034685
1543	7.7100e-01	-18.3444	-131.424568	0.000657	6.566964	2.224948	0.052430
1544	7.7150e-01	-18.2995	-131.364071	0.000152	1.515453	0.513449	0.012099
1545	7.7200e-01	-18.2514	-131.158383	0.000515	5.152541	1.745728	0.041138
1546	7.7250e-01	-18.2193	-130.997059	0.000404	4.041208	1.369198	0.032265
1547	7.7300e-01	-18.1808	-130.876066	0.000303	3.030906	1.026899	0.024199
1548	7.7350e-01	-18.1487	-130.710709	0.000414	4.142239	1.403428	0.033071
1549	7.7400e-01	-18.1006	-130.500988	0.000525	5.253571	1.779958	0.041944
1550	7.7450e-01	-18.0637	-130.311432	0.000475	4.748420	1.608808	0.037911
1551	7.7500e-01	-18.0236	-130.162208	0.000374	3.738118	1.266509	0.029845
1552	7.7550e-01	-17.9802	-130.045248	0.000293	2.929876	0.992669	0.023392
1553	7.7600e-01	-17.9449	-129.871825	0.000434	4.344299	1.471888	0.034685
1554	7.7650e-01	-17.8904	-129.658070	0.000535	5.354601	1.814188	0.042751
1555	7.7700e-01	-17.8744	-129.448349	0.000525	5.253571	1.779958	0.041944
1556	7.7750e-01	-17.8150	-129.339456	0.000273	2.727816	0.924209	0.021779
1557	7.7800e-01	-17.7877	-129.153933	0.000465	4.647390	1.574578	0.037105
1558	7.7850e-01	-17.7348	-128.952278	0.000505	5.051511	1.711498	0.040331
1559	7.7900e-01	-17.6947	-128.819186	0.000333	3.333997	1.129589	0.026618
1560	7.7950e-01	-17.6658	-128.653829	0.000414	4.142239	1.403428	0.033071
1561	7.8000e-01	-17.6145	-128.492505	0.000404	4.041208	1.369198	0.032265
1562	7.8050e-01	-17.5808	-128.270684	0.000556	5.556662	1.882648	0.044364
1563	7.8100e-01	-17.5455	-128.097261	0.000434	4.344299	1.471888	0.034685
1564	7.8150e-01	-17.5022	-127.944004	0.000384	3.839148	1.300739	0.030652
1565	7.8200e-01	-17.4685	-127.782680	0.000404	4.041208	1.369198	0.032265
1566	7.8250e-01	-17.4204	-127.593124	0.000475	4.748420	1.608808	0.037911
1567	7.8300e-01	-17.3883	-127.367270	0.000566	5.657692	1.916878	0.045171
1568	7.8350e-01	-17.3450	-127.242244	0.000313	3.131937	1.061129	0.025005
1569	7.8400e-01	-17.2984	-127.016391	0.000566	5.657692	1.916878	0.045171
1570	7.8450e-01	-17.2631	-126.903464	0.000283	2.828846	0.958439	0.022585
1571	7.8500e-01	-17.2295	-126.709875	0.000485	4.849450	1.643038	0.038718
1572	7.8550e-01	-17.1845	-126.524353	0.000465	4.647390	1.574578	0.037105
1573	7.8600e-01	-17.1396	-126.350930	0.000434	4.344299	1.471888	0.034685
1574	7.8650e-01	-17.1043	-126.209771	0.000354	3.536057	1.198049	0.028232
1575	7.8700e-01	-17.0642	-126.012149	0.000495	4.950480	1.677268	0.039524
1576	7.8750e-01	-17.0145	-125.826627	0.000465	4.647390	1.574578	0.037105
1577	7.8800e-01	-16.9888	-125.657237	0.000424	4.243269	1.437658	0.033878
1578	7.8850e-01	-16.9423	-125.435416	0.000556	5.556662	1.882648	0.044364
1579	7.8900e-01	-16.9054	-125.270059	0.000414	4.142239	1.403428	0.033071
1580	7.8950e-01	-16.8589	-125.084537	0.000465	4.647390	1.574578	0.037105
1581	7.9000e-01	-16.8236	-124.874815	0.000525	5.253571	1.779958	0.041944
1582	7.9050e-01	-16.7867	-124.689293	0.000465	4.647390	1.574578	0.037105
1583	7.9100e-01	-16.7402	-124.507804	0.000455	4.546359	1.540348	0.036298
1584	7.9150e-01	-16.6904	-124.294049	0.000535	5.354601	1.814188	0.042751
1585	7.9200e-01	-16.6680	-124.100461	0.000485	4.849450	1.643038	0.038718
1586	7.9250e-01	-16.6247	-123.923004	0.000445	4.445329	1.506118	0.035491
1587	7.9300e-01	-16.5797	-123.822177	0.000253	2.525755	0.855749	0.020165
1588	7.9350e-01	-16.5380	-123.640687	0.000455	4.546359	1.540348	0.036298
1589	7.9400e-01	-16.5027	-123.434999	0.000515	5.152541	1.745728	0.041138
1590	7.9450e-01	-16.4610	-123.249477	0.000465	4.647390	1.574578	0.037105
1591	7.9500e-01	-16.4289	-122.991358	0.000647	6.465933	2.190718	0.051624
1592	7.9550e-01	-16.3760	-122.858266	0.000333	3.333997	1.129589	0.026618
1593	7.9600e-01	-16.3407	-122.672744	0.000465	4.647390	1.574578	0.037105
1594	7.9650e-01	-16.3102	-122.475122	0.000495	4.950480	1.677268	0.039524
1595	7.9700e-01	-16.2637	-122.269434	0.000515	5.152541	1.745728	0.041138
1596	7.9750e-01	-16.2172	-122.100044	0.000424	4.243269	1.437658	0.033878
1597	7.9800e-01	-16.1787	-121.866124	0.000586	5.859752	1.985338	0.046784
1598	7.9850e-01	-16.1386	-121.817727	0.000121	1.212363	0.410760	0.009679
1599	7.9900e-01	-16.0905	-121.527344	0.000727	7.274175	2.464557	0.058077
1600	7.9950e-01	-16.0600	-121.374086	0.000384	3.839148	1.300739	0.030652
1601	8.0000e-01	-16.0183	-121.353920	0.000051	0.505151	0.171150	0.004033
1602	8.0050e-01	-15.9717	-120.970776	0.000960	9.597870	3.251846	0.076629
1603	8.0100e-01	-15.9397	-120.765088	0.000515	5.152541	1.745728	0.041138
1604	8.0150e-01	-15.9060	-120.575532	0.000475	4.748420	1.608808	0.037911
1605	8.0200e-01	-15.8562	-120.361778	0.000535	5.354601	1.814188	0.042751
1606	8.0250e-01	-15.8177	-120.148024	0.000535	5.354601	1.814188	0.042751
1607	8.0300e-01	-15.7840	-120.067362	0.000202	2.020604	0.684599	0.016132
1608	8.0350e-01	-15.7359	-119.813277	0.000636	6.364903	2.156488	0.050817
1609	8.0400e-01	-15.7119	-119.579357	0.000586	5.859752	1.985338	0.046784
1610	8.0450e-01	-15.6621	-119.434165	0.000364	3.637088	1.232279	0.029038
1611	8.0500e-01	-15.6172	-119.204279	0.000576	5.758722	1.951108	0.045977
1612	8.0550e-01	-15.5851	-118.998591	0.000515	5.152541	1.745728	0.041138
1613	8.0600e-01	-15.5338	-118.889697	0.000273	2.727816	0.924209	0.021779
1614	8.0650e-01	-15.4969	-118.663844	0.000566	5.657692	1.916878	0.045171
1615	8.0700e-01	-15.4600	-118.494453	0.000424	4.243269	1.437658	0.033878
1616	8.0750e-01	-15.4087	-118.268600	0.000566	5.657692	1.916878	0.045171
1617	8.0800e-01	-15.3862	-118.054846	0.000535	5.354601	1.814188	0.042751
1618	8.0850e-01	-15.3333	-117.833025	0.000556	5.556662	1.882648	0.044364
1619	8.0900e-01	-15.3028	-117.691867	0.000354	3.536057	1.198049	0.028232
1620	8.0950e-01	-15.2659	-117.453914	0.000596	5.960782	2.019568	0.047591
1621	8.1000e-01	-15.2274	-117.288557	0.000414	4.142239	1.403428	0.033071
1622	8.1050e-01	-15.1744	-117.062703	0.000566	5.657692	1.916878	0.045171
1623	8.1100e-01	-15.1295	-116.897346	0.000414	4.142239	1.403428	0.033071
1624	8.1150e-01	-15.1006	-116.719890	0.000445	4.445329	1.506118	0.035491
1625	8.1200e-01	-15.0637	-116.473871	0.000616	6.162843	2.088028	0.049204
1626	8.1250e-01	-15.0236	-116.328680	0.000364	3.637088	1.232279	0.029038
1627	8.1300e-01	-14.9787	-116.090727	0.000596	5.960782	2.019568	0.047591
1628	8.1350e-01	-14.9402	-115.909237	0.000455	4.546359	1.540348	0.036298
1629	8.1400e-01	-14.8969	-115.683384	0.000566	5.657692	1.916878	0.045171
1630	8.1450e-01	-14.8600	-115.469630	0.000535	5.354601	1.814188	0.042751
1631	8.1500e-01	-14.8119	-115.255875	0.000535	5.354601	1.814188	0.042751
1632	8.1550e-01	-14.7750	-115.062287	0.000485	4.849450	1.643038	0.038718
1633	8.1600e-01	-14.7429	-114.832400	0.000576	5.758722	1.951108	0.045977
1634	8.1650e-01	-14.6916	-114.675109	0.000394	3.940178	1.334969	0.031458
1635	8.1700e-01	-14.6579	-114.477487	0.000495	4.950480	1.677268	0.039524
1636	8.1750e-01	-14.6210	-114.259700	0.000546	5.455631	1.848418	0.043557
1637	8.1800e-01	-14.5809	-114.114508	0.000364	3.637088	1.232279	0.029038
1638	8.1850e-01	-14.5440	-113.908820	0.000515	5.152541	1.745728	0.041138
1639	8.1900e-01	-14.5039	-113.666834	0.000606	6.061813	2.053798	0.048397
1640	8.1950e-01	-14.4525	-113.469213	0.000495	4.950480	1.677268	0.039524
1641	8.2000e-01	-14.4140	-113.307889	0.000404	4.041208	1.369198	0.032265
1642	8.2050e-01	-14.3819	-113.102201	0.000515	5.152541	1.745728	0.041138
1643	8.2100e-01	-14.3402	-112.868281	0.000586	5.859752	1.985338	0.046784
1644	8.2150e-01	-14.2985	-112.702924	0.000414	4.142239	1.403428	0.033071
1645	8.2200e-01	-14.2600	-112.416574	0.000717	7.173145	2.430327	0.057270
1646	8.2250e-01	-14.2231	-112.247184	0.000424	4.243269	1.437658	0.033878
1647	8.2300e-01	-14.1830	-112.009231	0.000596	5.960782	2.019568	0.047591
1648	8.2350e-01	-14.1381	-111.783377	0.000566	5.657692	1.916878	0.045171
1649	8.2400e-01	-14.0964	-111.646252	0.000344	3.435027	1.163819	0.027425
1650	8.2450e-01	-14.0579	-111.436531	0.000525	5.253571	1.779958	0.041944
1651	8.2500e-01	-14.0130	-111.202611	0.000586	5.859752	1.985338	0.046784
1652	8.2550e-01	-13.9825	-111.000956	0.000505	5.051511	1.711498	0.040331
1653	8.2600e-01	-13.9360	-110.763003	0.000596	5.960782	2.019568	0.047591
1654	8.2650e-01	-13.8862	-110.605713	0.000394	3.940178	1.334969	0.031458
1655	8.2700e-01	-13.8477	-110.416157	0.000475	4.748420	1.608808	0.037911
1656	8.2750e-01	-13.8173	-110.206436	0.000525	5.253571	1.779958	0.041944
1657	8.2800e-01	-13.7804	-109.972516	0.000586	5.859752	1.985338	0.046784
1658	8.2850e-01	-13.7403	-109.774894	0.000495	4.950480	1.677268	0.039524
1659	8.2900e-01	-13.6953	-109.581306	0.000485	4.849450	1.643038	0.038718
1660	8.2950e-01	-13.6536	-109.383684	0.000495	4.950480	1.677268	0.039524
1661	8.3000e-01	-13.6151	-109.149764	0.000586	5.859752	1.985338	0.046784
1662	8.3050e-01	-13.5750	-108.879546	0.000677	6.769024	2.293407	0.054044
1663	8.3100e-01	-13.5349	-108.681925	0.000495	4.950480	1.677268	0.039524
1664	8.3150e-01	-13.4980	-108.544799	0.000344	3.435027	1.163819	0.027425
1665	8.3200e-01	-13.4627	-108.282648	0.000657	6.566964	2.224948	0.052430
1666	8.3250e-01	-13.4146	-108.072927	0.000525	5.253571	1.779958	0.041944
1667	8.3300e-01	-13.3857	-107.851106	0.000556	5.556662	1.882648	0.044364
1668	8.3350e-01	-13.3424	-107.621220	0.000576	5.758722	1.951108	0.045977
1669	8.3400e-01	-13.2991	-107.471995	0.000374	3.738118	1.266509	0.029845
1670	8.3450e-01	-13.2670	-107.238075	0.000586	5.859752	1.985338	0.046784
1671	8.3500e-01	-13.2205	-107.217910	0.000051	0.505151	0.171150	0.004033
1672	8.3550e-01	-13.1708	-106.782335	0.001091	10.911263	3.696836	0.087115
1673	8.3600e-01	-13.1339	-106.560515	0.000556	5.556662	1.882648	0.044364
1674	8.3650e-01	-13.1082	-106.322562	0.000596	5.960782	2.019568	0.047591
1675	8.3700e-01	-13.0633	-106.165271	0.000394	3.940178	1.334969	0.031458
1676	8.3750e-01	-13.0151	-105.971682	0.000485	4.849450	1.643038	0.038718
1677	8.3800e-01	-12.9782	-105.782127	0.000475	4.748420	1.608808	0.037911
1678	8.3850e-01	-12.9462	-105.540141	0.000606	6.061813	2.053798	0.048397
1679	8.3900e-01	-12.8916	-105.286056	0.000636	6.364903	2.156488	0.050817
1680	8.3950e-01	-12.8499	-105.044070	0.000606	6.061813	2.053798	0.048397
1681	8.4000e-01	-12.8307	-104.886779	0.000394	3.940178	1.334969	0.031458
1682	8.4050e-01	-12.7841	-104.681091	0.000515	5.152541	1.745728	0.041138
1683	8.4100e-01	-12.7376	-104.479436	0.000505	5.051511	1.711498	0.040331
1684	8.4150e-01	-12.7007	-104.281814	0.000495	4.950480	1.677268	0.039524
1685	8.4200e-01	-12.6558	-103.999497	0.000707	7.072115	2.396097	0.056463
1686	8.4250e-01	-12.6141	-103.846239	0.000384	3.839148	1.300739	0.030652
1687	8.4300e-01	-12.5852	-103.571989	0.000687	6.870054	2.327637	0.054850
1688	8.4350e-01	-12.5499	-103.394532	0.000445	4.445329	1.506118	0.035491
1689	8.4400e-01	-12.4986	-103.152546	0.000606	6.061813	2.053798	0.048397
1690	8.4450e-01	-12.4649	-102.942825	0.000525	5.253571	1.779958	0.041944
1691	8.4500e-01	-12.4216	-102.781501	0.000404	4.041208	1.369198	0.032265
1692	8.4550e-01	-12.3879	-102.479019	0.000758	7.577266	2.567247	0.060496
1693	8.4600e-01	-12.3430	-102.273331	0.000515	5.152541	1.745728	0.041138
1694	8.4650e-01	-12.2964	-102.015213	0.000647	6.465933	2.190718	0.051624
1695	8.4700e-01	-12.2515	-101.865988	0.000374	3.738118	1.266509	0.029845
1696	8.4750e-01	-12.2146	-101.603837	0.000657	6.566964	2.224948	0.052430
1697	8.4800e-01	-12.1761	-101.406215	0.000495	4.950480	1.677268	0.039524
1698	8.4850e-01	-12.1296	-101.196494	0.000525	5.253571	1.779958	0.041944
1699	8.4900e-01	-12.0959	-100.930309	0.000667	6.667994	2.259177	0.053237
1700	8.4950e-01	-12.0654	-100.704456	0.000566	5.657692	1.916878	0.045171
1701	8.5000e-01	-12.0237	-100.522966	0.000455	4.546359	1.540348	0.036298
1702	8.5050e-01	-11.9820	-100.256782	0.000667	6.667994	2.259177	0.053237
1703	8.5100e-01	-11.9499	-100.071259	0.000465	4.647390	1.574578	0.037105
1704	8.5150e-01	-11.9050	-99.849439	0.000556	5.556662	1.882648	0.044364
1705	8.5200e-01	-11.8569	-99.627618	0.000556	5.556662	1.882648	0.044364
1706	8.5250e-01	-11.8104	-99.421930	0.000515	5.152541	1.745728	0.041138
1707	8.5300e-01	-11.7719	-99.151713	0.000677	6.769024	2.293407	0.054044
1708	8.5350e-01	-11.7494	-98.921826	0.000576	5.758722	1.951108	0.045977
1709	8.5400e-01	-11.7013	-98.748403	0.000434	4.344299	1.471888	0.034685
1710	8.5450e-01	-11.6644	-98.550781	0.000495	4.950480	1.677268	0.039524
1711	8.5500e-01	-11.6211	-98.300729	0.000626	6.263873	2.122258	0.050010
1712	8.5550e-01	-11.5745	-98.010346	0.000727	7.274175	2.464557	0.058077
1713	8.5600e-01	-11.5441	-97.836922	0.000434	4.344299	1.471888	0.034685
1714	8.5650e-01	-11.5023	-97.562672	0.000687	6.870054	2.327637	0.054850
1715	8.5700e-01	-11.4590	-97.300520	0.000657	6.566964	2.224948	0.052430
1716	8.5750e-01	-11.4253	-97.151296	0.000374	3.738118	1.266509	0.029845
1717	8.5800e-01	-11.3788	-96.913343	0.000596	5.960782	2.019568	0.047591
1718	8.5850e-01	-11.3291	-96.747986	0.000414	4.142239	1.403428	0.033071
1719	8.5900e-01	-11.2986	-96.465669	0.000707	7.072115	2.396097	0.056463
1720	8.5950e-01	-11.2505	-96.219650	0.000616	6.162843	2.088028	0.049204
1721	8.6000e-01	-11.2120	-96.005896	0.000535	5.354601	1.814188	0.042751
1722	8.6050e-01	-11.1751	-95.743744	0.000657	6.566964	2.224948	0.052430
1723	8.6100e-01	-11.1366	-95.525957	0.000546	5.455631	1.848418	0.043557
1724	8.6150e-01	-11.0933	-95.320269	0.000515	5.152541	1.745728	0.041138
1725	8.6200e-01	-11.0580	-95.102482	0.000546	5.455631	1.848418	0.043557
1726	8.6250e-01	-11.0195	-94.896794	0.000515	5.152541	1.745728	0.041138
1727	8.6300e-01	-10.9762	-94.618510	0.000697	6.971085	2.361867	0.055657
1728	8.6350e-01	-10.9393	-94.432987	0.000465	4.647390	1.574578	0.037105
1729	8.6400e-01	-10.9008	-94.174869	0.000647	6.465933	2.190718	0.051624
1730	8.6450e-01	-10.8639	-93.924817	0.000626	6.263873	2.122258	0.050010
1731	8.6500e-01	-10.8222	-93.715096	0.000525	5.253571	1.779958	0.041944
1732	8.6550e-01	-10.7756	-93.513441	0.000505	5.051511	1.711498	0.040331
1733	8.6600e-01	-10.7387	-93.271455	0.000606	6.061813	2.053798	0.048397
1734	8.6650e-01	-10.6938	-93.013337	0.000647	6.465933	2.190718	0.051624
1735	8.6700e-01	-10.6601	-92.739086	0.000687	6.870054	2.327637	0.054850
1736	8.6750e-01	-10.6168	-92.529365	0.000525	5.253571	1.779958	0.041944
1737	8.6800e-01	-10.5783	-92.291412	0.000596	5.960782	2.019568	0.047591
1738	8.6850e-01	-10.5446	-92.093790	0.000495	4.950480	1.677268	0.039524
1739	8.6900e-01	-10.4997	-91.839705	0.000636	6.364903	2.156488	0.050817
1740	8.6950e-01	-10.4644	-91.634017	0.000515	5.152541	1.745728	0.041138
1741	8.7000e-01	-10.4099	-91.335567	0.000748	7.476236	2.533017	0.059690
1742	8.7050e-01	-10.3746	-91.146012	0.000475	4.748420	1.608808	0.037911
1743	8.7100e-01	-10.3409	-90.908059	0.000596	5.960782	2.019568	0.047591
1744	8.7150e-01	-10.2960	-90.726570	0.000455	4.546359	1.540348	0.036298
1745	8.7200e-01	-10.2687	-90.492650	0.000586	5.859752	1.985338	0.046784
1746	8.7250e-01	-10.2142	-90.222432	0.000677	6.769024	2.293407	0.054044
1747	8.7300e-01	-10.1756	-90.028844	0.000485	4.849450	1.643038	0.038718
1748	8.7350e-01	-10.1323	-89.738460	0.000727	7.274175	2.464557	0.058077
1749	8.7400e-01	-10.1051	-89.480342	0.000647	6.465933	2.190718	0.051624
1750	8.7450e-01	-10.0553	-89.270621	0.000525	5.253571	1.779958	0.041944
1751	8.7500e-01	-10.0120	-89.012503	0.000647	6.465933	2.190718	0.051624
1752	8.7550e-01	-9.9783	-88.778583	0.000586	5.859752	1.985338	0.046784
1753	8.7600e-01	-9.9430	-88.576928	0.000505	5.051511	1.711498	0.040331
1754	8.7650e-01	-9.9045	-88.355108	0.000556	5.556662	1.882648	0.044364
1755	8.7700e-01	-9.8580	-88.125221	0.000576	5.758722	1.951108	0.045977
1756	8.7750e-01	-9.8163	-87.875169	0.000626	6.263873	2.122258	0.050010
1757	8.7800e-01	-9.7842	-87.629150	0.000616	6.162843	2.088028	0.049204
1758	8.7850e-01	-9.7409	-87.403296	0.000566	5.657692	1.916878	0.045171
1759	8.7900e-01	-9.6944	-87.185509	0.000546	5.455631	1.848418	0.043557
1760	8.7950e-01	-9.6575	-86.887060	0.000748	7.476236	2.533017	0.059690
1761	8.8000e-01	-9.6238	-86.637008	0.000626	6.263873	2.122258	0.050010
1762	8.8050e-01	-9.5773	-86.439386	0.000495	4.950480	1.677268	0.039524
1763	8.8100e-01	-9.5452	-86.177234	0.000657	6.566964	2.224948	0.052430
1764	8.8150e-01	-9.5035	-85.963480	0.000535	5.354601	1.814188	0.042751
1765	8.8200e-01	-9.4489	-85.673097	0.000727	7.274175	2.464557	0.058077
1766	8.8250e-01	-9.4136	-85.471442	0.000505	5.051511	1.711498	0.040331
1767	8.8300e-01	-9.3816	-85.237522	0.000586	5.859752	1.985338	0.046784
1768	8.8350e-01	-9.3447	-84.995536	0.000606	6.061813	2.053798	0.048397
1769	8.8400e-01	-9.3062	-84.717253	0.000697	6.971085	2.361867	0.055657
1770	8.8450e-01	-9.2644	-84.438969	0.000697	6.971085	2.361867	0.055657
1771	8.8500e-01	-9.2163	-84.217148	0.000556	5.556662	1.882648	0.044364
1772	8.8550e-01	-9.1842	-83.971129	0.000616	6.162843	2.088028	0.049204
1773	8.8600e-01	-9.1329	-83.696879	0.000687	6.870054	2.327637	0.054850
1774	8.8650e-01	-9.0928	-83.519422	0.000445	4.445329	1.506118	0.035491
1775	8.8700e-01	-9.0639	-83.261304	0.000647	6.465933	2.190718	0.051624
1776	8.8750e-01	-9.0238	-83.035451	0.000566	5.657692	1.916878	0.045171
1777	8.8800e-01	-8.9805	-82.728935	0.000768	7.678296	2.601477	0.061303
1778	8.8850e-01	-8.9436	-82.523247	0.000515	5.152541	1.745728	0.041138
1779	8.8900e-01	-8.9019	-82.281261	0.000606	6.061813	2.053798	0.048397
1780	8.8950e-01	-8.8506	-81.994911	0.000717	7.173145	2.430327	0.057270
1781	8.9000e-01	-8.8201	-81.765025	0.000576	5.758722	1.951108	0.045977
1782	8.9050e-01	-8.7703	-81.523039	0.000606	6.061813	2.053798	0.048397
1783	8.9100e-01	-8.7415	-81.289119	0.000586	5.859752	1.985338	0.046784
1784	8.9150e-01	-8.6917	-81.075365	0.000535	5.354601	1.814188	0.042751
1785	8.9200e-01	-8.6516	-80.845478	0.000576	5.758722	1.951108	0.045977
1786	8.9250e-01	-8.6195	-80.575260	0.000677	6.769024	2.293407	0.054044
1787	8.9300e-01	-8.5842	-80.333275	0.000606	6.061813	2.053798	0.048397
1788	8.9350e-01	-8.5457	-80.063057	0.000677	6.769024	2.293407	0.054044
1789	8.9400e-01	-8.4976	-79.813005	0.000626	6.263873	2.122258	0.050010
1790	8.9450e-01	-8.4607	-79.575052	0.000596	5.960782	2.019568	0.047591
1791	8.9500e-01	-8.4206	-79.325000	0.000626	6.263873	2.122258	0.050010
1792	8.9550e-01	-8.3725	-79.066882	0.000647	6.465933	2.190718	0.051624
1793	8.9600e-01	-8.3388	-78.796664	0.000677	6.769024	2.293407	0.054044
1794	8.9650e-01	-8.3003	-78.530479	0.000667	6.667994	2.259177	0.053237
1795	8.9700e-01	-8.2554	-78.288494	0.000606	6.061813	2.053798	0.048397
1796	8.9750e-01	-8.2233	-78.054574	0.000586	5.859752	1.985338	0.046784
1797	8.9800e-01	-8.1800	-77.828720	0.000566	5.657692	1.916878	0.045171
1798	8.9850e-01	-8.1415	-77.570602	0.000647	6.465933	2.190718	0.051624
1799	8.9900e-01	-8.0998	-77.324583	0.000616	6.162843	2.088028	0.049204
1800	8.9950e-01	-8.0645	-77.054365	0.000677	6.769024	2.293407	0.054044
1801	9.0000e-01	-8.0212	-76.832545	0.000556	5.556662	1.882648	0.044364
1802	9.0050e-01	-7.9795	-76.570394	0.000657	6.566964	2.224948	0.052430
1803	9.0100e-01	-7.9361	-76.288077	0.000707	7.072115	2.396097	0.056463
1804	9.0150e-01	-7.8912	-75.993660	0.000738	7.375205	2.498787	0.058883
1805	9.0200e-01	-7.8591	-75.715377	0.000697	6.971085	2.361867	0.055657
1806	9.0250e-01	-7.8238	-75.525821	0.000475	4.748420	1.608808	0.037911
1807	9.0300e-01	-7.7725	-75.267703	0.000647	6.465933	2.190718	0.051624
1808	9.0350e-01	-7.7292	-75.021684	0.000616	6.162843	2.088028	0.049204
1809	9.0400e-01	-7.7019	-74.739367	0.000707	7.072115	2.396097	0.056463
1810	9.0450e-01	-7.6618	-74.465116	0.000687	6.870054	2.327637	0.054850
1811	9.0500e-01	-7.6249	-74.037608	0.001071	10.709202	3.628376	0.085502
1812	9.0550e-01	-7.5784	-73.924681	0.000283	2.828846	0.958439	0.022585
1813	9.0600e-01	-7.5415	-73.735125	0.000475	4.748420	1.608808	0.037911
1814	9.0650e-01	-7.4918	-73.460874	0.000687	6.870054	2.327637	0.054850
1815	9.0700e-01	-7.4533	-73.182591	0.000697	6.971085	2.361867	0.055657
1816	9.0750e-01	-7.4180	-72.948671	0.000586	5.859752	1.985338	0.046784
1817	9.0800e-01	-7.3747	-72.658288	0.000727	7.274175	2.464557	0.058077
1818	9.0850e-01	-7.3490	-72.380004	0.000697	6.971085	2.361867	0.055657
1819	9.0900e-01	-7.2977	-72.142051	0.000596	5.960782	2.019568	0.047591
1820	9.0950e-01	-7.2527	-71.928297	0.000535	5.354601	1.814188	0.042751
1821	9.1000e-01	-7.2207	-71.621782	0.000768	7.678296	2.601477	0.061303
1822	9.1050e-01	-7.1789	-71.347531	0.000687	6.870054	2.327637	0.054850
1823	9.1100e-01	-7.1340	-71.121677	0.000566	5.657692	1.916878	0.045171
1824	9.1150e-01	-7.0955	-70.875658	0.000616	6.162843	2.088028	0.049204
1825	9.1200e-01	-7.0586	-70.524779	0.000879	8.789628	2.978007	0.070176
1826	9.1250e-01	-7.0137	-70.302958	0.000556	5.556662	1.882648	0.044364
1827	9.1300e-01	-6.9768	-70.024674	0.000697	6.971085	2.361867	0.055657
1828	9.1350e-01	-6.9351	-69.806887	0.000546	5.455631	1.848418	0.043557
1829	9.1400e-01	-6.8998	-69.552802	0.000636	6.364903	2.156488	0.050817
1830	9.1450e-01	-6.8581	-69.286617	0.000667	6.667994	2.259177	0.053237
1831	9.1500e-01	-6.8228	-69.024466	0.000657	6.566964	2.224948	0.052430
1832	9.1550e-01	-6.7811	-68.750215	0.000687	6.870054	2.327637	0.054850
1833	9.1600e-01	-6.7426	-68.488064	0.000657	6.566964	2.224948	0.052430
1834	9.1650e-01	-6.6913	-68.246078	0.000606	6.061813	2.053798	0.048397
1835	9.1700e-01	-6.6624	-67.907298	0.000849	8.486538	2.875317	0.067756
1836	9.1750e-01	-6.6159	-67.713709	0.000485	4.849450	1.643038	0.038718
1837	9.1800e-01	-6.5741	-67.419293	0.000738	7.375205	2.498787	0.058883
1838	9.1850e-01	-6.5469	-67.153108	0.000667	6.667994	2.259177	0.053237
1839	9.1900e-01	-6.4971	-66.959520	0.000485	4.849450	1.643038	0.038718
1840	9.1950e-01	-6.4602	-66.636872	0.000808	8.082417	2.738397	0.064530
1841	9.2000e-01	-6.4169	-66.374720	0.000657	6.566964	2.224948	0.052430
1842	9.2050e-01	-6.3688	-66.116602	0.000647	6.465933	2.190718	0.051624
1843	9.2100e-01	-6.3415	-65.789921	0.000818	8.183447	2.772627	0.065336
1844	9.2150e-01	-6.2998	-65.604398	0.000465	4.647390	1.574578	0.037105
1845	9.2200e-01	-6.2597	-65.257552	0.000869	8.688598	2.943777	0.069369
1846	9.2250e-01	-6.2276	-64.995401	0.000657	6.566964	2.224948	0.052430
1847	9.2300e-01	-6.1795	-64.729216	0.000667	6.667994	2.259177	0.053237
1848	9.2350e-01	-6.1314	-64.479164	0.000626	6.263873	2.122258	0.050010
1849	9.2400e-01	-6.1009	-64.196847	0.000707	7.072115	2.396097	0.056463
1850	9.2450e-01	-6.0576	-64.015358	0.000455	4.546359	1.540348	0.036298
1851	9.2500e-01	-6.0271	-63.700776	0.000788	7.880356	2.669937	0.062916
1852	9.2550e-01	-5.9790	-63.390227	0.000778	7.779326	2.635707	0.062110
1853	9.2600e-01	-5.9373	-63.103877	0.000717	7.173145	2.430327	0.057270
1854	9.2650e-01	-5.8972	-62.841726	0.000657	6.566964	2.224948	0.052430
1855	9.2700e-01	-5.8635	-62.571508	0.000677	6.769024	2.293407	0.054044
1856	9.2750e-01	-5.8250	-62.325489	0.000616	6.162843	2.088028	0.049204
1857	9.2800e-01	-5.7784	-62.047205	0.000697	6.971085	2.361867	0.055657
1858	9.2850e-01	-5.7399	-61.764889	0.000707	7.072115	2.396097	0.056463
1859	9.2900e-01	-5.7030	-61.494671	0.000677	6.769024	2.293407	0.054044
1860	9.2950e-01	-5.6533	-61.256718	0.000596	5.960782	2.019568	0.047591
1861	9.3000e-01	-5.6244	-61.010699	0.000616	6.162843	2.088028	0.049204
1862	9.3050e-01	-5.5747	-60.740481	0.000677	6.769024	2.293407	0.054044
1863	9.3100e-01	-5.5490	-60.393635	0.000869	8.688598	2.943777	0.069369
1864	9.3150e-01	-5.4945	-60.159715	0.000586	5.859752	1.985338	0.046784
1865	9.3200e-01	-5.4560	-59.877398	0.000707	7.072115	2.396097	0.056463
1866	9.3250e-01	-5.4207	-59.550717	0.000818	8.183447	2.772627	0.065336
1867	9.3300e-01	-5.3790	-59.280500	0.000677	6.769024	2.293407	0.054044
1868	9.3350e-01	-5.3389	-58.965918	0.000788	7.880356	2.669937	0.062916
1869	9.3400e-01	-5.3068	-58.727965	0.000596	5.960782	2.019568	0.047591
1870	9.3450e-01	-5.2507	-58.473880	0.000636	6.364903	2.156488	0.050817
1871	9.3500e-01	-5.2202	-58.183497	0.000727	7.274175	2.464557	0.058077
1872	9.3550e-01	-5.1769	-57.864882	0.000798	7.981387	2.704167	0.063723
1873	9.3600e-01	-5.1528	-57.618863	0.000616	6.162843	2.088028	0.049204
1874	9.3650e-01	-5.1031	-57.352679	0.000667	6.667994	2.259177	0.053237
1875	9.3700e-01	-5.0565	-57.134891	0.000546	5.455631	1.848418	0.043557
1876	9.3750e-01	-5.0148	-56.792078	0.000859	8.587568	2.909547	0.068563
1877	9.3800e-01	-4.9811	-56.554125	0.000596	5.960782	2.019568	0.047591
1878	9.3850e-01	-4.9442	-56.211312	0.000859	8.587568	2.909547	0.068563
1879	9.3900e-01	-4.8945	-55.969326	0.000606	6.061813	2.053798	0.048397
1880	9.3950e-01	-4.8624	-55.678943	0.000727	7.274175	2.464557	0.058077
1881	9.4000e-01	-4.8175	-55.279666	0.001000	10.001991	3.388766	0.079855
1882	9.4050e-01	-4.7806	-55.219170	0.000152	1.515453	0.513449	0.012099
1883	9.4100e-01	-4.7405	-54.795694	0.001061	10.608172	3.594146	0.084695
1884	9.4150e-01	-4.7020	-54.541609	0.000636	6.364903	2.156488	0.050817
1885	9.4200e-01	-4.6667	-54.218961	0.000808	8.082417	2.738397	0.064530
1886	9.4250e-01	-4.6250	-53.997141	0.000556	5.556662	1.882648	0.044364
1887	9.4300e-01	-4.5721	-53.763221	0.000586	5.859752	1.985338	0.046784
1888	9.4350e-01	-4.5304	-53.436540	0.000818	8.183447	2.772627	0.065336
1889	9.4400e-01	-4.4967	-53.186488	0.000626	6.263873	2.122258	0.050010
1890	9.4450e-01	-4.4614	-52.863840	0.000808	8.082417	2.738397	0.064530
1891	9.4500e-01	-4.4229	-52.601689	0.000657	6.566964	2.224948	0.052430
1892	9.4550e-01	-4.3844	-52.287107	0.000788	7.880356	2.669937	0.062916
1893	9.4600e-01	-4.3459	-51.996724	0.000727	7.274175	2.464557	0.058077
1894	9.4650e-01	-4.3090	-51.702308	0.000738	7.375205	2.498787	0.058883
1895	9.4700e-01	-4.2576	-51.440156	0.000657	6.566964	2.224948	0.052430
1896	9.4750e-01	-4.2143	-51.133641	0.000768	7.678296	2.601477	0.061303
1897	9.4800e-01	-4.1903	-50.871489	0.000657	6.566964	2.224948	0.052430
1898	9.4850e-01	-4.1357	-50.609338	0.000657	6.566964	2.224948	0.052430
1899	9.4900e-01	-4.1020	-50.282657	0.000818	8.183447	2.772627	0.065336
1900	9.4950e-01	-4.0667	-49.980174	0.000758	7.577266	2.567247	0.060496
1901	9.5000e-01	-4.0234	-49.734155	0.000616	6.162843	2.088028	0.049204
1902	9.5050e-01	-3.9865	-49.427640	0.000768	7.678296	2.601477	0.061303
1903	9.5100e-01	-3.9480	-49.121124	0.000768	7.678296	2.601477	0.061303
1904	9.5150e-01	-3.9047	-48.846874	0.000687	6.870054	2.327637	0.054850
1905	9.5200e-01	-3.8598	-48.560524	0.000717	7.173145	2.430327	0.057270
1906	9.5250e-01	-3.8261	-48.249975	0.000778	7.779326	2.635707	0.062110
1907	9.5300e-01	-3.7908	-47.931360	0.000798	7.981387	2.704167	0.063723
1908	9.5350e-01	-3.7443	-47.721639	0.000525	5.253571	1.779958	0.041944
1909	9.5400e-01	-3.7042	-47.439322	0.000707	7.072115	2.396097	0.056463
1910	9.5450e-01	-3.6560	-47.104575	0.000839	8.385507	2.841087	0.066949
1911	9.5500e-01	-3.6256	-46.830324	0.000687	6.870054	2.327637	0.054850
1912	9.5550e-01	-3.5790	-46.531875	0.000748	7.476236	2.533017	0.059690
1913	9.5600e-01	-3.5261	-46.245525	0.000717	7.173145	2.430327	0.057270
1914	9.5650e-01	-3.4908	-45.999506	0.000616	6.162843	2.088028	0.049204
1915	9.5700e-01	-3.4667	-45.628461	0.000929	9.294779	3.149157	0.074209
1916	9.5750e-01	-3.4266	-45.281615	0.000869	8.688598	2.943777	0.069369
1917	9.5800e-01	-3.3817	-45.104158	0.000445	4.445329	1.506118	0.035491
1918	9.5850e-01	-3.3352	-44.733113	0.000929	9.294779	3.149157	0.074209
1919	9.5900e-01	-3.3031	-44.446763	0.000717	7.173145	2.430327	0.057270
1920	9.5950e-01	-3.2662	-44.180579	0.000667	6.667994	2.259177	0.053237
1921	9.6000e-01	-3.2197	-43.926493	0.000636	6.364903	2.156488	0.050817
1922	9.6050e-01	-3.1796	-43.615945	0.000778	7.779326	2.635707	0.062110
1923	9.6100e-01	-3.1459	-43.265065	0.000879	8.789628	2.978007	0.070176
1924	9.6150e-01	-3.0898	-42.998881	0.000667	6.667994	2.259177	0.053237
1925	9.6200e-01	-3.0641	-42.760928	0.000596	5.960782	2.019568	0.047591
1926	9.6250e-01	-3.0144	-42.422148	0.000849	8.486538	2.875317	0.067756
1927	9.6300e-01	-2.9823	-42.135798	0.000717	7.173145	2.430327	0.057270
1928	9.6350e-01	-2.9325	-41.825249	0.000778	7.779326	2.635707	0.062110
1929	9.6400e-01	-2.9037	-41.555031	0.000677	6.769024	2.293407	0.054044
1930	9.6450e-01	-2.8555	-41.252549	0.000758	7.577266	2.567247	0.060496
1931	9.6500e-01	-2.8218	-40.917802	0.000839	8.385507	2.841087	0.066949
1932	9.6550e-01	-2.7737	-40.663717	0.000636	6.364903	2.156488	0.050817
1933	9.6600e-01	-2.7448	-40.345102	0.000798	7.981387	2.704167	0.063723
1934	9.6650e-01	-2.7160	-40.018421	0.000818	8.183447	2.772627	0.065336
1935	9.6700e-01	-2.6646	-39.740137	0.000697	6.971085	2.361867	0.055657
1936	9.6750e-01	-2.6229	-39.433622	0.000768	7.678296	2.601477	0.061303
1937	9.6800e-01	-2.5812	-39.115007	0.000798	7.981387	2.704167	0.063723
1938	9.6850e-01	-2.5379	-38.792359	0.000808	8.082417	2.738397	0.064530
1939	9.6900e-01	-2.4994	-38.534241	0.000647	6.465933	2.190718	0.051624
1940	9.6950e-01	-2.4561	-38.223692	0.000778	7.779326	2.635707	0.062110
1941	9.7000e-01	-2.4272	-37.876846	0.000869	8.688598	2.943777	0.069369
1942	9.7050e-01	-2.3871	-37.570330	0.000768	7.678296	2.601477	0.061303
1943	9.7100e-01	-2.3406	-37.328344	0.000606	6.061813	2.053798	0.048397
1944	9.7150e-01	-2.2924	-37.029895	0.000748	7.476236	2.533017	0.059690
1945	9.7200e-01	-2.2572	-36.691115	0.000849	8.486538	2.875317	0.067756
1946	9.7250e-01	-2.2122	-36.432996	0.000647	6.465933	2.190718	0.051624
1947	9.7300e-01	-2.1769	-36.130514	0.000758	7.577266	2.567247	0.060496
1948	9.7350e-01	-2.1320	-35.791734	0.000849	8.486538	2.875317	0.067756
1949	9.7400e-01	-2.0983	-35.481185	0.000778	7.779326	2.635707	0.062110
1950	9.7450e-01	-2.0679	-35.182736	0.000748	7.476236	2.533017	0.059690
1951	9.7500e-01	-2.0197	-35.126272	0.000141	1.414423	0.479219	0.011293
1952	9.7550e-01	-1.9909	-34.581804	0.001364	13.639078	4.621045	0.108894
1953	9.7600e-01	-1.9411	-34.275288	0.000768	7.678296	2.601477	0.061303
1954	9.7650e-01	-1.9058	-33.968773	0.000768	7.678296	2.601477	0.061303
1955	9.7700e-01	-1.8561	-33.690489	0.000697	6.971085	2.361867	0.055657
1956	9.7750e-01	-1.8160	-33.388007	0.000758	7.577266	2.567247	0.060496
1957	9.7800e-01	-1.7823	-33.069392	0.000798	7.981387	2.704167	0.063723
1958	9.7850e-01	-1.7390	-32.770943	0.000748	7.476236	2.533017	0.059690
1959	9.7900e-01	-1.7037	-32.411997	0.000899	8.991689	3.046467	0.071789
1960	9.7950e-01	-1.6540	-32.186143	0.000566	5.657692	1.916878	0.045171
1961	9.8000e-01	-1.6235	-31.907860	0.000697	6.971085	2.361867	0.055657
1962	9.8050e-01	-1.5754	-31.577146	0.000828	8.284477	2.806857	0.066143
1963	9.8100e-01	-1.5417	-31.238365	0.000849	8.486538	2.875317	0.067756
1964	9.8150e-01	-1.5032	-30.887486	0.000879	8.789628	2.978007	0.070176
1965	9.8200e-01	-1.4582	-30.625334	0.000657	6.566964	2.224948	0.052430
1966	9.8250e-01	-1.4117	-30.351084	0.000687	6.870054	2.327637	0.054850
1967	9.8300e-01	-1.3877	-30.028436	0.000808	8.082417	2.738397	0.064530
1968	9.8350e-01	-1.3460	-29.701755	0.000818	8.183447	2.772627	0.065336
1969	9.8400e-01	-1.2994	-29.362974	0.000849	8.486538	2.875317	0.067756
1970	9.8450e-01	-1.2577	-29.056459	0.000768	7.678296	2.601477	0.061303
1971	9.8500e-01	-1.2208	-28.790274	0.000667	6.667994	2.259177	0.053237
1972	9.8550e-01	-1.1807	-28.463593	0.000818	8.183447	2.772627	0.065336
1973	9.8600e-01	-1.1326	-28.052217	0.001031	10.305081	3.491456	0.082275
1974	9.8650e-01	-1.1037	-27.786033	0.000667	6.667994	2.259177	0.053237
1975	9.8700e-01	-1.0732	-27.483550	0.000758	7.577266	2.567247	0.060496
1976	9.8750e-01	-1.0187	-27.140737	0.000859	8.587568	2.909547	0.068563
1977	9.8800e-01	-0.9882	-26.870519	0.000677	6.769024	2.293407	0.054044
1978	9.8850e-01	-0.9465	-26.551905	0.000798	7.981387	2.704167	0.063723
1979	9.8900e-01	-0.9016	-26.293786	0.000647	6.465933	2.190718	0.051624
1980	9.8950e-01	-0.8679	-25.967105	0.000818	8.183447	2.772627	0.065336
1981	9.9000e-01	-0.8214	-25.656557	0.000778	7.779326	2.635707	0.062110
1982	9.9050e-01	-0.7813	-25.333909	0.000808	8.082417	2.738397	0.064530
1983	9.9100e-01	-0.7331	-25.031426	0.000758	7.577266	2.567247	0.060496
1984	9.9150e-01	-0.6994	-24.757176	0.000687	6.870054	2.327637	0.054850
1985	9.9200e-01	-0.6738	-24.438561	0.000798	7.981387	2.704167	0.063723
1986	9.9250e-01	-0.6305	-24.099781	0.000849	8.486538	2.875317	0.067756
1987	9.9300e-01	-0.5791	-23.720669	0.000950	9.496840	3.217616	0.075822
1988	9.9350e-01	-0.5406	-23.482717	0.000596	5.960782	2.019568	0.047591
1989	9.9400e-01	-0.4989	-23.152003	0.000828	8.284477	2.806857	0.066143
1990	9.9450e-01	-0.4588	-22.841454	0.000778	7.779326	2.635707	0.062110
1991	9.9500e-01	-0.4123	-22.494607	0.000869	8.688598	2.943777	0.069369
1992	9.9550e-01	-0.3786	-22.180026	0.000788	7.880356	2.669937	0.062916
1993	9.9600e-01	-0.3465	-21.889643	0.000727	7.274175	2.464557	0.058077
1994	9.9650e-01	-0.3016	-21.587160	0.000758	7.577266	2.567247	0.060496
1995	9.9700e-01	-0.2599	-21.288711	0.000748	7.476236	2.533017	0.059690
1996	9.9750e-01	-0.2262	-20.970096	0.000798	7.981387	2.704167	0.063723
1997	9.9800e-01	-0.1925	-20.619217	0.000879	8.789628	2.978007	0.070176
1998	9.9850e-01	-0.1444	-20.316734	0.000758	7.577266	2.567247	0.060496
1999	9.9900e-01	-0.1107	-19.977954	0.000849	8.486538	2.875317	0.067756
2000	9.9950e-01	-0.0610	-19.606909	0.000929	9.294779	3.149157	0.074209
2001	1.0000e+00	-0.0144	-19.352824	0.000929	9.294779	3.149157	0.050817

PMax (uC/cm2):	1.51e+02
Pr (uC/cm2):	1.14e+01
-Pr (uC/cm2):	-5.39e+00
PLoss (uC/cm2):	-5.35e+00
-Vc:	-1.41e+00
C (Max-Eff) (nF):	7.54e-01
K (Eff):	2.56e+03
Vert. (+/-Pr) Shift (uC/cm2):	2.99e+00
Offset (uC/cm2):	1.40e+01

A (Loop Area - uC/cm2·Volts):	-8.43e-03



Hysteresis Version: 5.48.1 - Radiant Technologies, Inc., 1999 - 9/12/24

