»»»»»»»»»»»»»»»»»»»»»»»»»»»»»»»»»»»» Hysteresis ««««««««««««««««««««««««««««««««««««
»»»  Executed Version:	5.48.1
»»»  Vision Version:	5.48.4 (R)
»»»  Vision Compiled:	9/18/24
»»»  Driver Version:	5.47.0
»»»  Windows Version:	Windows 8 or 8.1
»»»  Processor Information:	x86 (AMD or Intel) - 32 Processors
»»»  Tester Name:	PMF21124-494 (100V)
»»»  Tester S/N:	PMF21124-494
»»»  Internal Amp Type:	100V RevK 270k
»»»  Internal Amp S/N:	iAB2-596/K     
»»»  Execution Count:	1
»»»»»»»»»»»»»»»»»»»»»»»»»»»»»»»»»»»»»»»»»»««««««««««««««««««««««««««««««««««««««««««

Stored:	6/18/2025 - 13:55:38
Configured:	06/18/25 09:47:30 AM
Executed:	06/18/25 01:55:12 PM

»»»»»»»»»»»»»»»»»»»»»»»»»»»»»»»»»»» Sample Info ««««««««««««««««««««««««««««««««««««
Sample Name:	
Lot Name:	
Wafer Name:	
Die Row/Column:	0/0
Capacitor Number:	0
Sample Area (cm2):	1.00e-04
Sample Thickness (microns):	3.00e-01

Amplifier:	Internal

»»»»»»»»»»»»»»»»»»»»»»»»»»»»»»»»»»» Tester Info «««««««««««««««««««««««««««««««««««
Tester Name:	PMF21124-494 (100V)
Tester Serial Number:	PMF21124-494
Return Signal Amp. Level:	0.19 [Index: 3]

»»»»»»»»»»»»»»»»»»»»»»»»»»»»»»»» Hysteresis Info ««««««««««««««««««««««««««««««««««
Task Name:	Hyst-554
Volts:	20.00
Field:	666.67 (kV/cm)
DCBias:	0.00
DCField:	0.00 (kV/cm)
Hysteresis Period (ms):	1.00e+00
Preset:	Enabled
Preset Delay (ms):	1.00e+03
Profile:	Standard Bipolar

»»»»»»»»»»»»»»»»»»»»»»»»»»»»»»»»»»»»»» Data «««««««««««««««««««««««««««««««««««««««
Points:	2001

Valid Data

Point	Time (ms)	Drive Voltage	Measured Polarization (uC/cm2)	Capacitance (uF)	Normalized Capacitance (uF/cm2)	Dielectric Constant	Instantaneous Current (mA)
   1	0.0000e+00	0.0241	-12.062998	0.000697	6.972486	2.362342	0.055657
   2	5.0000e-04	0.0289	-11.784714	0.000697	6.972486	2.362342	0.055657
   3	1.0000e-03	0.0561	-11.562894	0.000556	5.557778	1.883026	0.044364
   4	1.5000e-03	0.0946	-11.381404	0.000455	4.547273	1.540658	0.036298
   5	2.0000e-03	0.1348	-11.203948	0.000445	4.446223	1.506421	0.035491
   6	2.5000e-03	0.1652	-11.006326	0.000495	4.951475	1.677605	0.039524
   7	3.0000e-03	0.2086	-10.800638	0.000515	5.153576	1.746079	0.041138
   8	3.5000e-03	0.2471	-10.582851	0.000546	5.456728	1.848789	0.043557
   9	4.0000e-03	0.2872	-10.231971	0.000879	8.791395	2.978605	0.070176
  10	4.5000e-03	0.3305	-9.699602	0.001334	13.338668	4.519263	0.106474
  11	5.0000e-03	0.3722	-9.453583	0.000616	6.164081	2.088447	0.049204
  12	5.5000e-03	0.4027	-9.251928	0.000505	5.052526	1.711842	0.040331
  13	6.0000e-03	0.4460	-8.840552	0.001031	10.307153	3.492158	0.082275
  14	6.5000e-03	0.4893	-8.505805	0.000839	8.387193	2.841658	0.066949
  15	7.0000e-03	0.5246	-8.215422	0.000728	7.275637	2.465053	0.058077
  16	7.5000e-03	0.5743	-8.243654	-0.000071	-0.707354	-0.239658	-0.005646
  17	8.0000e-03	0.6096	-7.848410	0.000990	9.902950	3.355210	0.079049
  18	8.5000e-03	0.6513	-7.533828	0.000788	7.881940	2.670474	0.062916
  19	9.0000e-03	0.6866	-7.178916	0.000889	8.892445	3.012842	0.070983
  20	9.5000e-03	0.7347	-6.896599	0.000707	7.073536	2.396579	0.056463
  21	1.0000e-02	0.7668	-6.759473	0.000344	3.435718	1.164053	0.027425
  22	1.0500e-02	0.8117	-6.448925	0.000778	7.780890	2.636237	0.062110
  23	1.1000e-02	0.8535	-6.178707	0.000677	6.770385	2.293868	0.054044
  24	1.1500e-02	0.9016	-6.037549	0.000354	3.536768	1.198289	0.028232
  25	1.2000e-02	0.9321	-5.698768	0.000849	8.488243	2.875895	0.067756
  26	1.2500e-02	0.9754	-5.275293	0.001061	10.610304	3.594868	0.084695
  27	1.3000e-02	1.0123	-5.041373	0.000586	5.860930	1.985737	0.046784
  28	1.3500e-02	1.0428	-4.771156	0.000677	6.770385	2.293868	0.054044
  29	1.4000e-02	1.0909	-4.525137	0.000616	6.164081	2.088447	0.049204
  30	1.4500e-02	1.1246	-4.186356	0.000849	8.488243	2.875895	0.067756
  31	1.5000e-02	1.1711	-3.936304	0.000627	6.265132	2.122684	0.050010
  32	1.5500e-02	1.2128	-3.561226	0.000940	9.397698	3.184026	0.075016
  33	1.6000e-02	1.2609	-3.367637	0.000485	4.850425	1.643368	0.038718
  34	1.6500e-02	1.2930	-3.165982	0.000505	5.052526	1.711842	0.040331
  35	1.7000e-02	1.3315	-2.738474	0.001071	10.711355	3.629105	0.085502
  36	1.7500e-02	1.3716	-2.415826	0.000808	8.084041	2.738947	0.064530
  37	1.8000e-02	1.4085	-2.141575	0.000687	6.871435	2.328105	0.054850
  38	1.8500e-02	1.4406	-1.758431	0.000960	9.599799	3.252500	0.076629
  39	1.9000e-02	1.4807	-1.641471	0.000293	2.930465	0.992868	0.023392
  40	1.9500e-02	1.5369	-1.532577	0.000273	2.728364	0.924395	0.021779
  41	2.0000e-02	1.5673	-1.072804	0.001152	11.519759	3.903000	0.091955
  42	2.0500e-02	1.6090	-0.500104	0.001435	14.349173	4.861631	0.114540
  43	2.1000e-02	1.6492	-0.362979	0.000344	3.435718	1.164053	0.027425
  44	2.1500e-02	1.6925	-0.213754	0.000374	3.738869	1.266763	0.029845
  45	2.2000e-02	1.7278	0.262151	0.001192	11.923961	4.039947	0.095181
  46	2.2500e-02	1.7775	0.443641	0.000455	4.547273	1.540658	0.036298
  47	2.3000e-02	1.8144	0.806620	0.000909	9.094546	3.081316	0.072596
  48	2.3500e-02	1.8513	0.984076	0.000445	4.446223	1.506421	0.035491
  49	2.4000e-02	1.8898	1.310757	0.000819	8.185092	2.773184	0.065336
  50	2.4500e-02	1.9347	1.693901	0.000960	9.599799	3.252500	0.076629
  51	2.5000e-02	1.9620	1.843126	0.000374	3.738869	1.266763	0.029845
  52	2.5500e-02	2.0085	2.206105	0.000909	9.094546	3.081316	0.072596
  53	2.6000e-02	2.0486	2.516654	0.000778	7.780890	2.636237	0.062110
  54	2.6500e-02	2.0967	2.746540	0.000576	5.759879	1.951500	0.045977
  55	2.7000e-02	2.1176	2.940129	0.000485	4.850425	1.643368	0.038718
  56	2.7500e-02	2.1689	3.234545	0.000738	7.376688	2.499289	0.058883
  57	2.8000e-02	2.2058	3.734649	0.001253	12.530264	4.245368	0.100021
  58	2.8500e-02	2.2491	3.956470	0.000556	5.557778	1.883026	0.044364
  59	2.9000e-02	2.2924	4.258952	0.000758	7.578789	2.567763	0.060496
  60	2.9500e-02	2.3293	4.436408	0.000445	4.446223	1.506421	0.035491
  61	3.0000e-02	2.3791	4.767123	0.000829	8.286142	2.807421	0.066143
  62	3.0500e-02	2.4063	5.162366	0.000990	9.902950	3.355210	0.079049
  63	3.1000e-02	2.4497	5.210763	0.000121	1.212606	0.410842	0.009679
  64	3.1500e-02	2.4994	5.561643	0.000879	8.791395	2.978605	0.070176
  65	3.2000e-02	2.5251	6.069813	0.001273	12.732365	4.313842	0.101634
  66	3.2500e-02	2.5732	6.364230	0.000738	7.376688	2.499289	0.058883
  67	3.3000e-02	2.6021	6.477156	0.000283	2.829414	0.958632	0.022585
  68	3.3500e-02	2.6470	6.993393	0.001293	12.934466	4.382316	0.103247
  69	3.4000e-02	2.6855	7.408802	0.001041	10.408203	3.526395	0.083082
  70	3.4500e-02	2.7288	7.594325	0.000465	4.648324	1.574895	0.037105
  71	3.5000e-02	2.7689	7.787913	0.000485	4.850425	1.643368	0.038718
  72	3.5500e-02	2.8170	8.179124	0.000980	9.801900	3.320974	0.078242
  73	3.6000e-02	2.8539	8.578401	0.001000	10.004001	3.389447	0.079855
  74	3.6500e-02	2.8892	8.723592	0.000364	3.637819	1.232526	0.029038
  75	3.7000e-02	2.9341	9.042207	0.000798	7.982991	2.704710	0.063723
  76	3.7500e-02	2.9807	9.155134	0.000283	2.829414	0.958632	0.022585
  77	3.8000e-02	3.0015	9.719768	0.001415	14.147072	4.793158	0.112927
  78	3.8500e-02	3.0609	10.050482	0.000829	8.286142	2.807421	0.066143
  79	3.9000e-02	3.0898	10.187607	0.000344	3.435718	1.164053	0.027425
  80	3.9500e-02	3.1234	10.514288	0.000819	8.185092	2.773184	0.065336
  81	4.0000e-02	3.1764	10.808704	0.000738	7.376688	2.499289	0.058883
  82	4.0500e-02	3.2133	11.268477	0.001152	11.519759	3.903000	0.091955
  83	4.1000e-02	3.2550	11.445934	0.000445	4.446223	1.506421	0.035491
  84	4.1500e-02	3.2903	11.647589	0.000505	5.052526	1.711842	0.040331
  85	4.2000e-02	3.3304	11.909740	0.000657	6.568283	2.225395	0.052430
  86	4.2500e-02	3.3737	12.216256	0.000768	7.679839	2.602000	0.061303
  87	4.3000e-02	3.4074	12.631665	0.001041	10.408203	3.526395	0.083082
  88	4.3500e-02	3.4523	12.974478	0.000859	8.589294	2.910132	0.068563
  89	4.4000e-02	3.4956	13.123703	0.000374	3.738869	1.266763	0.029845
  90	4.4500e-02	3.5245	13.486682	0.000909	9.094546	3.081316	0.072596
  91	4.5000e-02	3.5662	13.789164	0.000758	7.578789	2.567763	0.060496
  92	4.5500e-02	3.6063	14.059382	0.000677	6.770385	2.293868	0.054044
  93	4.6000e-02	3.6464	14.422361	0.000909	9.094546	3.081316	0.072596
  94	4.6500e-02	3.6913	14.753075	0.000829	8.286142	2.807421	0.066143
  95	4.7000e-02	3.7282	14.946663	0.000485	4.850425	1.643368	0.038718
  96	4.7500e-02	3.7699	15.349973	0.001011	10.105052	3.423684	0.080662
  97	4.8000e-02	3.8084	15.483066	0.000333	3.334667	1.129816	0.026618
  98	4.8500e-02	3.8421	15.906541	0.001061	10.610304	3.594868	0.084695
  99	4.9000e-02	3.8903	16.184825	0.000697	6.972486	2.362342	0.055657
 100	4.9500e-02	3.9304	16.576035	0.000980	9.801900	3.320974	0.078242
 101	5.0000e-02	3.9801	16.846253	0.000677	6.770385	2.293868	0.054044
 102	5.0500e-02	4.0106	16.959180	0.000283	2.829414	0.958632	0.022585
 103	5.1000e-02	4.0539	17.491549	0.001334	13.338668	4.519263	0.106474
 104	5.1500e-02	4.1020	17.709336	0.000546	5.456728	1.848789	0.043557
 105	5.2000e-02	4.1373	17.943256	0.000586	5.860930	1.985737	0.046784
 106	5.2500e-02	4.1694	18.459492	0.001293	12.934466	4.382316	0.103247
 107	5.3000e-02	4.2095	18.657114	0.000495	4.951475	1.677605	0.039524
 108	5.3500e-02	4.2576	18.999928	0.000859	8.589294	2.910132	0.068563
 109	5.4000e-02	4.2865	19.262079	0.000657	6.568283	2.225395	0.052430
 110	5.4500e-02	4.3298	19.697654	0.001091	10.913456	3.697579	0.087115
 111	5.5000e-02	4.3747	19.871077	0.000435	4.345172	1.472184	0.034685
 112	5.5500e-02	4.4116	20.141294	0.000677	6.770385	2.293868	0.054044
 113	5.6000e-02	4.4421	20.395380	0.000637	6.366182	2.156921	0.050817
 114	5.6500e-02	4.4838	20.713994	0.000798	7.982991	2.704710	0.063723
 115	5.7000e-02	4.5255	21.085039	0.000930	9.296647	3.149789	0.074209
 116	5.7500e-02	4.5769	21.351224	0.000667	6.669334	2.259632	0.053237
 117	5.8000e-02	4.6170	21.806964	0.001142	11.418708	3.868763	0.091148
 118	5.8500e-02	4.6378	22.258671	0.001132	11.317658	3.834526	0.090341
 119	5.9000e-02	4.6972	22.428061	0.000424	4.244122	1.437947	0.033878
 120	5.9500e-02	4.7261	22.718444	0.000728	7.275637	2.465053	0.058077
 121	6.0000e-02	4.7694	22.924132	0.000515	5.153576	1.746079	0.041138
 122	6.0500e-02	4.8255	23.254847	0.000829	8.286142	2.807421	0.066143
 123	6.1000e-02	4.8576	23.408104	0.000384	3.839920	1.301000	0.030652
 124	6.1500e-02	4.8913	23.835613	0.001071	10.711355	3.629105	0.085502
 125	6.2000e-02	4.9298	24.057433	0.000556	5.557778	1.883026	0.044364
 126	6.2500e-02	4.9747	24.218757	0.000404	4.042021	1.369474	0.032265
 127	6.3000e-02	5.0148	24.634166	0.001041	10.408203	3.526395	0.083082
 128	6.3500e-02	5.0501	25.110072	0.001192	11.923961	4.039947	0.095181
 129	6.4000e-02	5.0742	25.505316	0.000990	9.902950	3.355210	0.079049
 130	6.4500e-02	5.1223	25.779566	0.000687	6.871435	2.328105	0.054850
 131	6.5000e-02	5.1688	25.961056	0.000455	4.547273	1.540658	0.036298
 132	6.5500e-02	5.2105	26.356299	0.000990	9.902950	3.355210	0.079049
 133	6.6000e-02	5.2474	26.634583	0.000697	6.972486	2.362342	0.055657
 134	6.6500e-02	5.2795	27.045959	0.001031	10.307153	3.492158	0.082275
 135	6.7000e-02	5.3325	27.267780	0.000556	5.557778	1.883026	0.044364
 136	6.7500e-02	5.3726	27.542030	0.000687	6.871435	2.328105	0.054850
 137	6.8000e-02	5.4127	27.937274	0.000990	9.902950	3.355210	0.079049
 138	6.8500e-02	5.4512	28.098598	0.000404	4.042021	1.369474	0.032265
 139	6.9000e-02	5.4833	28.481742	0.000960	9.599799	3.252500	0.076629
 140	6.9500e-02	5.5298	28.755993	0.000687	6.871435	2.328105	0.054850
 141	7.0000e-02	5.5683	29.151237	0.000990	9.902950	3.355210	0.079049
 142	7.0500e-02	5.6132	29.453719	0.000758	7.578789	2.567763	0.060496
 143	7.1000e-02	5.6453	29.473885	0.000051	0.505253	0.171184	0.004033
 144	7.1500e-02	5.6838	29.945757	0.001182	11.822910	4.005710	0.094375
 145	7.2000e-02	5.7223	30.349067	0.001011	10.105052	3.423684	0.080662
 146	7.2500e-02	5.7752	30.591053	0.000606	6.063031	2.054210	0.048397
 147	7.3000e-02	5.8041	31.010495	0.001051	10.509254	3.560631	0.083888
 148	7.3500e-02	5.8458	31.312978	0.000758	7.578789	2.567763	0.060496
 149	7.4000e-02	5.8891	31.635625	0.000808	8.084041	2.738947	0.064530
 150	7.4500e-02	5.9389	31.800982	0.000414	4.143071	1.403710	0.033071
 151	7.5000e-02	5.9710	32.180094	0.000950	9.498748	3.218263	0.075822
 152	7.5500e-02	6.0095	32.438212	0.000647	6.467233	2.191158	0.051624
 153	7.6000e-02	6.0512	32.736661	0.000748	7.477738	2.533526	0.059690
 154	7.6500e-02	6.0961	32.954449	0.000546	5.456728	1.848789	0.043557
 155	7.7000e-02	6.1298	33.204501	0.000627	6.265132	2.122684	0.050010
 156	7.7500e-02	6.1731	33.527149	0.000808	8.084041	2.738947	0.064530
 157	7.8000e-02	6.2100	33.809466	0.000707	7.073536	2.396579	0.056463
 158	7.8500e-02	6.2597	34.184544	0.000940	9.397698	3.184026	0.075016
 159	7.9000e-02	6.2918	34.515258	0.000829	8.286142	2.807421	0.066143
 160	7.9500e-02	6.3287	34.910502	0.000990	9.902950	3.355210	0.079049
 161	8.0000e-02	6.3736	35.128289	0.000546	5.456728	1.848789	0.043557
 162	8.0500e-02	6.3993	35.366242	0.000596	5.961980	2.019974	0.047591
 163	8.1000e-02	6.4522	36.051868	0.001718	17.178588	5.820263	0.137125
 164	8.1500e-02	6.4923	36.108332	0.000141	1.414707	0.479316	0.011293
 165	8.2000e-02	6.5340	36.205126	0.000243	2.425212	0.821684	0.019359
 166	8.2500e-02	6.5741	36.487443	0.000707	7.073536	2.396579	0.056463
 167	8.3000e-02	6.6110	37.031911	0.001364	13.641820	4.621974	0.108894
 168	8.3500e-02	6.6576	37.322294	0.000728	7.275637	2.465053	0.058077
 169	8.4000e-02	6.6832	37.620744	0.000748	7.477738	2.533526	0.059690
 170	8.4500e-02	6.7282	37.794167	0.000435	4.345172	1.472184	0.034685
 171	8.5000e-02	6.7683	38.286205	0.001233	12.328163	4.176895	0.098408
 172	8.5500e-02	6.8116	38.415264	0.000323	3.233616	1.095579	0.025812
 173	8.6000e-02	6.8549	38.822607	0.001021	10.206102	3.457921	0.081469
 174	8.6500e-02	6.8886	39.036361	0.000536	5.355677	1.814553	0.042751
 175	8.7000e-02	6.9287	39.266248	0.000576	5.759879	1.951500	0.045977
 176	8.7500e-02	6.9688	39.730054	0.001162	11.620809	3.937237	0.092761
 177	8.8000e-02	7.0105	40.060768	0.000829	8.286142	2.807421	0.066143
 178	8.8500e-02	7.0458	40.395516	0.000839	8.387193	2.841658	0.066949
 179	8.9000e-02	7.0891	40.621369	0.000566	5.658829	1.917263	0.045171
 180	8.9500e-02	7.1324	41.040811	0.001051	10.509254	3.560631	0.083888
 181	9.0000e-02	7.1677	41.169871	0.000323	3.233616	1.095579	0.025812
 182	9.0500e-02	7.2046	41.476386	0.000768	7.679839	2.602000	0.061303
 183	9.1000e-02	7.2447	41.807100	0.000829	8.286142	2.807421	0.066143
 184	9.1500e-02	7.2816	42.162013	0.000889	8.892445	3.012842	0.070983
 185	9.2000e-02	7.3362	42.254774	0.000232	2.324162	0.787447	0.018552
 186	9.2500e-02	7.3731	42.758911	0.001263	12.631314	4.279605	0.100827
 187	9.3000e-02	7.3987	43.210618	0.001132	11.317658	3.834526	0.090341
 188	9.3500e-02	7.4485	43.335644	0.000313	3.132566	1.061342	0.025005
 189	9.4000e-02	7.5030	43.593763	0.000647	6.467233	2.191158	0.051624
 190	9.4500e-02	7.5239	43.751054	0.000394	3.940970	1.335237	0.031458
 191	9.5000e-02	7.5720	44.126132	0.000940	9.397698	3.184026	0.075016
 192	9.5500e-02	7.6153	44.682699	0.001394	13.944971	4.724684	0.111314
 193	9.6000e-02	7.6554	45.154572	0.001182	11.822910	4.005710	0.094375
 194	9.6500e-02	7.6939	44.952917	-0.000505	-5.052526	-1.711842	-0.040331
 195	9.7000e-02	7.7212	45.513518	0.001405	14.046022	4.758921	0.112120
 196	9.7500e-02	7.7629	45.912794	0.001000	10.004001	3.389447	0.079855
 197	9.8000e-02	7.8078	46.263674	0.000879	8.791395	2.978605	0.070176
 198	9.8500e-02	7.8623	46.308038	0.000111	1.111556	0.376605	0.008873
 199	9.9000e-02	7.8848	46.554057	0.000616	6.164081	2.088447	0.049204
 200	9.9500e-02	7.9361	47.021897	0.001172	11.721860	3.971474	0.093568
 201	1.0000e-01	7.9778	47.102559	0.000202	2.021010	0.684737	0.016132
 202	1.0050e-01	8.0067	47.489736	0.000970	9.700849	3.286737	0.077435
 203	1.0100e-01	8.0420	48.183429	0.001738	17.380689	5.888737	0.138739
 204	1.0150e-01	8.0918	48.143098	-0.000101	-1.010505	-0.342368	-0.008066
 205	1.0200e-01	8.1190	48.477845	0.000839	8.387193	2.841658	0.066949
 206	1.0250e-01	8.1655	48.981983	0.001263	12.631314	4.279605	0.100827
 207	1.0300e-01	8.2121	48.998115	0.000040	0.404202	0.136947	0.003226
 208	1.0350e-01	8.2522	49.300597	0.000758	7.578789	2.567763	0.060496
 209	1.0400e-01	8.2907	49.514352	0.000536	5.355677	1.814553	0.042751
 210	1.0450e-01	8.3212	50.006390	0.001233	12.328163	4.176895	0.098408
 211	1.0500e-01	8.3629	50.325004	0.000798	7.982991	2.704710	0.063723
 212	1.0550e-01	8.4142	50.579090	0.000637	6.366182	2.156921	0.050817
 213	1.0600e-01	8.4447	51.002565	0.001061	10.610304	3.594868	0.084695
 214	1.0650e-01	8.4880	50.998532	-0.000010	-0.101051	-0.034237	-0.000807
 215	1.0700e-01	8.5345	51.349411	0.000879	8.791395	2.978605	0.070176
 216	1.0750e-01	8.5746	51.619629	0.000677	6.770385	2.293868	0.054044
 217	1.0800e-01	8.6147	51.914045	0.000738	7.376688	2.499289	0.058883
 218	1.0850e-01	8.6500	52.430282	0.001293	12.934466	4.382316	0.103247
 219	1.0900e-01	8.6789	52.591606	0.000404	4.042021	1.369474	0.032265
 220	1.0950e-01	8.7350	53.091710	0.001253	12.530264	4.245368	0.100021
 221	1.1000e-01	8.7752	53.414358	0.000808	8.084041	2.738947	0.064530
 222	1.1050e-01	8.8104	53.696675	0.000707	7.073536	2.396579	0.056463
 223	1.1100e-01	8.8489	53.918495	0.000556	5.557778	1.883026	0.044364
 224	1.1150e-01	8.8907	54.120150	0.000505	5.052526	1.711842	0.040331
 225	1.1200e-01	8.9308	54.596056	0.001192	11.923961	4.039947	0.095181
 226	1.1250e-01	8.9693	54.866273	0.000677	6.770385	2.293868	0.054044
 227	1.1300e-01	9.0110	54.971134	0.000263	2.627313	0.890158	0.020972
 228	1.1350e-01	9.0463	55.326047	0.000889	8.892445	3.012842	0.070983
 229	1.1400e-01	9.0928	55.858416	0.001334	13.338668	4.519263	0.106474
 230	1.1450e-01	9.1281	56.003607	0.000364	3.637819	1.232526	0.029038
 231	1.1500e-01	9.1730	56.164931	0.000404	4.042021	1.369474	0.032265
 232	1.1550e-01	9.2195	56.540009	0.000940	9.397698	3.184026	0.075016
 233	1.1600e-01	9.2532	56.894922	0.000889	8.892445	3.012842	0.070983
 234	1.1650e-01	9.2949	57.205471	0.000778	7.780890	2.636237	0.062110
 235	1.1700e-01	9.3302	57.225636	0.000051	0.505253	0.171184	0.004033
 236	1.1750e-01	9.3655	57.673310	0.001122	11.216607	3.800289	0.089535
 237	1.1800e-01	9.4152	57.951594	0.000697	6.972486	2.362342	0.055657
 238	1.1850e-01	9.4521	58.326672	0.000940	9.397698	3.184026	0.075016
 239	1.1900e-01	9.4955	58.568658	0.000606	6.063031	2.054210	0.048397
 240	1.1950e-01	9.5372	58.863074	0.000738	7.376688	2.499289	0.058883
 241	1.2000e-01	9.5789	59.004233	0.000354	3.536768	1.198289	0.028232
 242	1.2050e-01	9.6061	59.480138	0.001192	11.923961	4.039947	0.095181
 243	1.2100e-01	9.6511	59.943945	0.001162	11.620809	3.937237	0.092761
 244	1.2150e-01	9.6896	60.319023	0.000940	9.397698	3.184026	0.075016
 245	1.2200e-01	9.7265	60.677968	0.000899	8.993496	3.047079	0.071789
 246	1.2250e-01	9.7730	60.690068	0.000030	0.303152	0.102711	0.002420
 247	1.2300e-01	9.8035	60.968352	0.000697	6.972486	2.362342	0.055657
 248	1.2350e-01	9.8500	61.077245	0.000273	2.728364	0.924395	0.021779
 249	1.2400e-01	9.8869	61.407959	0.000829	8.286142	2.807421	0.066143
 250	1.2450e-01	9.9334	61.831435	0.001061	10.610304	3.594868	0.084695
 251	1.2500e-01	9.9751	62.186347	0.000889	8.892445	3.012842	0.070983
 252	1.2550e-01	10.0120	62.573525	0.000970	9.700849	3.286737	0.077435
 253	1.2600e-01	10.0569	62.867941	0.000738	7.376688	2.499289	0.058883
 254	1.2650e-01	10.1067	62.658220	-0.000525	-5.254627	-1.780316	-0.041944
 255	1.2700e-01	10.1323	63.134126	0.001192	11.923961	4.039947	0.095181
 256	1.2750e-01	10.1724	63.529369	0.000990	9.902950	3.355210	0.079049
 257	1.2800e-01	10.2077	63.940745	0.001031	10.307153	3.492158	0.082275
 258	1.2850e-01	10.2559	64.456982	0.001293	12.934466	4.382316	0.103247
 259	1.2900e-01	10.2928	64.485214	0.000071	0.707354	0.239658	0.005646
 260	1.2950e-01	10.3313	64.711067	0.000566	5.658829	1.917263	0.045171
 261	1.3000e-01	10.3746	65.094211	0.000960	9.599799	3.252500	0.076629
 262	1.3050e-01	10.4002	65.356363	0.000657	6.568283	2.225395	0.052430
 263	1.3100e-01	10.4532	65.630614	0.000687	6.871435	2.328105	0.054850
 264	1.3150e-01	10.4965	66.070221	0.001101	11.014506	3.731816	0.087922
 265	1.3200e-01	10.5270	66.263810	0.000485	4.850425	1.643368	0.038718
 266	1.3250e-01	10.5735	66.546127	0.000707	7.073536	2.396579	0.056463
 267	1.3300e-01	10.6152	66.909106	0.000909	9.094546	3.081316	0.072596
 268	1.3350e-01	10.6553	67.155125	0.000616	6.164081	2.088447	0.049204
 269	1.3400e-01	10.6826	67.268052	0.000283	2.829414	0.958632	0.022585
 270	1.3450e-01	10.7371	67.562468	0.000738	7.376688	2.499289	0.058883
 271	1.3500e-01	10.7676	67.824619	0.000657	6.568283	2.225395	0.052430
 272	1.3550e-01	10.8061	68.179532	0.000889	8.892445	3.012842	0.070983
 273	1.3600e-01	10.8510	68.603007	0.001061	10.610304	3.594868	0.084695
 274	1.3650e-01	10.8911	68.986152	0.000960	9.599799	3.252500	0.076629
 275	1.3700e-01	10.9264	69.123277	0.000344	3.435718	1.164053	0.027425
 276	1.3750e-01	10.9617	69.574984	0.001132	11.317658	3.834526	0.090341
 277	1.3800e-01	11.0115	69.841168	0.000667	6.669334	2.259632	0.053237
 278	1.3850e-01	11.0500	70.107353	0.000667	6.669334	2.259632	0.053237
 279	1.3900e-01	11.0981	70.478398	0.000930	9.296647	3.149789	0.074209
 280	1.3950e-01	11.1286	70.571159	0.000232	2.324162	0.787447	0.018552
 281	1.4000e-01	11.1655	71.030933	0.001152	11.519759	3.903000	0.091955
 282	1.4050e-01	11.2104	71.297117	0.000667	6.669334	2.259632	0.053237
 283	1.4100e-01	11.2473	71.692361	0.000990	9.902950	3.355210	0.079049
 284	1.4150e-01	11.2970	71.781089	0.000222	2.223111	0.753211	0.017746
 285	1.4200e-01	11.3323	72.115836	0.000839	8.387193	2.841658	0.066949
 286	1.4250e-01	11.3692	72.244895	0.000323	3.233616	1.095579	0.025812
 287	1.4300e-01	11.4093	72.478815	0.000586	5.860930	1.985737	0.046784
 288	1.4350e-01	11.4510	72.910357	0.001081	10.812405	3.663342	0.086308
 289	1.4400e-01	11.4943	73.059581	0.000374	3.738869	1.266763	0.029845
 290	1.4450e-01	11.5296	73.305600	0.000616	6.164081	2.088447	0.049204
 291	1.4500e-01	11.5697	73.729076	0.001061	10.610304	3.594868	0.084695
 292	1.4550e-01	11.6066	74.003326	0.000687	6.871435	2.328105	0.054850
 293	1.4600e-01	11.6596	74.386471	0.000960	9.599799	3.252500	0.076629
 294	1.4650e-01	11.6949	74.793814	0.001021	10.206102	3.457921	0.081469
 295	1.4700e-01	11.7382	74.834145	0.000101	1.010505	0.342368	0.008066
 296	1.4750e-01	11.7703	75.297951	0.001162	11.620809	3.937237	0.092761
 297	1.4800e-01	11.8136	75.362480	0.000162	1.616808	0.547789	0.012906
 298	1.4850e-01	11.8441	75.689161	0.000819	8.185092	2.773184	0.065336
 299	1.4900e-01	11.8858	76.072306	0.000960	9.599799	3.252500	0.076629
 300	1.4950e-01	11.9323	76.358656	0.000717	7.174587	2.430816	0.057270
 301	1.5000e-01	11.9660	76.636940	0.000697	6.972486	2.362342	0.055657
 302	1.5050e-01	12.0061	76.842628	0.000515	5.153576	1.746079	0.041138
 303	1.5100e-01	12.0542	77.108812	0.000667	6.669334	2.259632	0.053237
 304	1.5150e-01	12.0911	77.544387	0.001091	10.913456	3.697579	0.087115
 305	1.5200e-01	12.1344	77.887200	0.000859	8.589294	2.910132	0.068563
 306	1.5250e-01	12.1777	77.875101	-0.000030	-0.303152	-0.102711	-0.002420
 307	1.5300e-01	12.2146	78.334874	0.001152	11.519759	3.903000	0.091955
 308	1.5350e-01	12.2499	78.709952	0.000940	9.397698	3.184026	0.075016
 309	1.5400e-01	12.3013	78.883376	0.000435	4.345172	1.472184	0.034685
 310	1.5450e-01	12.3366	78.976137	0.000232	2.324162	0.787447	0.018552
 311	1.5500e-01	12.3654	79.222156	0.000616	6.164081	2.088447	0.049204
 312	1.5550e-01	12.4152	79.617400	0.000990	9.902950	3.355210	0.079049
 313	1.5600e-01	12.4488	79.956180	0.000849	8.488243	2.875895	0.067756
 314	1.5650e-01	12.4922	80.323192	0.000920	9.195597	3.115553	0.073402
 315	1.5700e-01	12.5387	80.561145	0.000596	5.961980	2.019974	0.047591
 316	1.5750e-01	12.5740	80.851528	0.000728	7.275637	2.465053	0.058077
 317	1.5800e-01	12.6173	81.037050	0.000465	4.648324	1.574895	0.037105
 318	1.5850e-01	12.6494	81.347599	0.000778	7.780890	2.636237	0.062110
 319	1.5900e-01	12.6943	81.952564	0.001516	15.157577	5.135526	0.120993
 320	1.5950e-01	12.7328	81.920299	-0.000081	-0.808404	-0.273895	-0.006453
 321	1.6000e-01	12.7697	82.121954	0.000505	5.052526	1.711842	0.040331
 322	1.6050e-01	12.8098	82.521231	0.001000	10.004001	3.389447	0.079855
 323	1.6100e-01	12.8531	82.751117	0.000576	5.759879	1.951500	0.045977
 324	1.6150e-01	12.8964	83.372214	0.001556	15.561779	5.272474	0.124219
 325	1.6200e-01	12.9333	83.485141	0.000283	2.829414	0.958632	0.022585
 326	1.6250e-01	12.9734	83.622266	0.000344	3.435718	1.164053	0.027425
 327	1.6300e-01	13.0087	83.928782	0.000768	7.679839	2.602000	0.061303
 328	1.6350e-01	13.0440	84.049775	0.000303	3.031515	1.027105	0.024199
 329	1.6400e-01	13.0841	84.239331	0.000475	4.749374	1.609132	0.037911
 330	1.6450e-01	13.1274	84.428886	0.000475	4.749374	1.609132	0.037911
 331	1.6500e-01	13.1627	84.779766	0.000879	8.791395	2.978605	0.070176
 332	1.6550e-01	13.2093	85.098381	0.000798	7.982991	2.704710	0.063723
 333	1.6600e-01	13.2462	85.630750	0.001334	13.338668	4.519263	0.106474
 334	1.6650e-01	13.2975	85.751742	0.000303	3.031515	1.027105	0.024199
 335	1.6700e-01	13.3183	85.896934	0.000364	3.637819	1.232526	0.029038
 336	1.6750e-01	13.3729	86.332509	0.001091	10.913456	3.697579	0.087115
 337	1.6800e-01	13.4066	86.643057	0.000778	7.780890	2.636237	0.062110
 338	1.6850e-01	13.4451	86.909242	0.000667	6.669334	2.259632	0.053237
 339	1.6900e-01	13.4964	87.292386	0.000960	9.599799	3.252500	0.076629
 340	1.6950e-01	13.5317	87.740060	0.001122	11.216607	3.800289	0.089535
 341	1.7000e-01	13.5654	87.780391	0.000101	1.010505	0.342368	0.008066
 342	1.7050e-01	13.6071	88.159502	0.000950	9.498748	3.218263	0.075822
 343	1.7100e-01	13.6440	88.381323	0.000556	5.557778	1.883026	0.044364
 344	1.7150e-01	13.6793	88.712037	0.000829	8.286142	2.807421	0.066143
 345	1.7200e-01	13.7274	88.828997	0.000293	2.930465	0.992868	0.023392
 346	1.7250e-01	13.7659	89.058883	0.000576	5.759879	1.951500	0.045977
 347	1.7300e-01	13.8108	89.300869	0.000606	6.063031	2.054210	0.048397
 348	1.7350e-01	13.8509	89.736444	0.001091	10.913456	3.697579	0.087115
 349	1.7400e-01	13.8894	89.889702	0.000384	3.839920	1.301000	0.030652
 350	1.7450e-01	13.9215	90.228482	0.000849	8.488243	2.875895	0.067756
 351	1.7500e-01	13.9632	90.418038	0.000475	4.749374	1.609132	0.037911
 352	1.7550e-01	14.0130	90.781016	0.000909	9.094546	3.081316	0.072596
 353	1.7600e-01	14.0579	91.111731	0.000829	8.286142	2.807421	0.066143
 354	1.7650e-01	14.0932	91.309352	0.000495	4.951475	1.677605	0.039524
 355	1.7700e-01	14.1333	91.394047	0.000212	2.122061	0.718974	0.016939
 356	1.7750e-01	14.1622	91.886085	0.001233	12.328163	4.176895	0.098408
 357	1.7800e-01	14.1991	92.265197	0.000950	9.498748	3.218263	0.075822
 358	1.7850e-01	14.2456	92.353925	0.000222	2.223111	0.753211	0.017746
 359	1.7900e-01	14.2825	92.539447	0.000465	4.648324	1.574895	0.037105
 360	1.7950e-01	14.3338	92.668507	0.000323	3.233616	1.095579	0.025812
 361	1.8000e-01	14.3595	93.104081	0.001091	10.913456	3.697579	0.087115
 362	1.8050e-01	14.4140	93.463027	0.000899	8.993496	3.047079	0.071789
 363	1.8100e-01	14.4381	93.676781	0.000536	5.355677	1.814553	0.042751
 364	1.8150e-01	14.4894	93.999429	0.000808	8.084041	2.738947	0.064530
 365	1.8200e-01	14.5327	94.439037	0.001101	11.014506	3.731816	0.087922
 366	1.8250e-01	14.5600	94.765718	0.000819	8.185092	2.773184	0.065336
 367	1.8300e-01	14.6049	95.011737	0.000616	6.164081	2.088447	0.049204
 368	1.8350e-01	14.6482	95.294054	0.000707	7.073536	2.396579	0.056463
 369	1.8400e-01	14.6948	95.511841	0.000546	5.456728	1.848789	0.043557
 370	1.8450e-01	14.7397	95.661066	0.000374	3.738869	1.266763	0.029845
 371	1.8500e-01	14.7686	96.032111	0.000930	9.296647	3.149789	0.074209
 372	1.8550e-01	14.8055	96.274097	0.000606	6.063031	2.054210	0.048397
 373	1.8600e-01	14.8520	96.443487	0.000424	4.244122	1.437947	0.033878
 374	1.8650e-01	14.8969	96.693539	0.000627	6.265132	2.122684	0.050010
 375	1.8700e-01	14.9306	96.915359	0.000556	5.557778	1.883026	0.044364
 376	1.8750e-01	14.9659	97.387232	0.001182	11.822910	4.005710	0.094375
 377	1.8800e-01	15.0028	97.588887	0.000505	5.052526	1.711842	0.040331
 378	1.8850e-01	15.0541	97.895402	0.000768	7.679839	2.602000	0.061303
 379	1.8900e-01	15.0878	98.097057	0.000505	5.052526	1.711842	0.040331
 380	1.8950e-01	15.1295	98.335010	0.000596	5.961980	2.019974	0.047591
 381	1.9000e-01	15.1712	98.702022	0.000920	9.195597	3.115553	0.073402
 382	1.9050e-01	15.2065	98.984339	0.000707	7.073536	2.396579	0.056463
 383	1.9100e-01	15.2498	99.226325	0.000606	6.063031	2.054210	0.048397
 384	1.9150e-01	15.2883	99.375550	0.000374	3.738869	1.266763	0.029845
 385	1.9200e-01	15.3284	99.694164	0.000798	7.982991	2.704710	0.063723
 386	1.9250e-01	15.3653	100.000680	0.000768	7.679839	2.602000	0.061303
 387	1.9300e-01	15.4038	100.238633	0.000596	5.961980	2.019974	0.047591
 388	1.9350e-01	15.4520	100.577413	0.000849	8.488243	2.875895	0.067756
 389	1.9400e-01	15.4857	100.843597	0.000667	6.669334	2.259632	0.053237
 390	1.9450e-01	15.5274	101.045252	0.000505	5.052526	1.711842	0.040331
 391	1.9500e-01	15.5627	101.388066	0.000859	8.589294	2.910132	0.068563
 392	1.9550e-01	15.6220	101.714747	0.000819	8.185092	2.773184	0.065336
 393	1.9600e-01	15.6413	101.855905	0.000354	3.536768	1.198289	0.028232
 394	1.9650e-01	15.6782	102.105957	0.000627	6.265132	2.122684	0.050010
 395	1.9700e-01	15.7327	102.351976	0.000616	6.164081	2.088447	0.049204
 396	1.9750e-01	15.7712	102.751253	0.001000	10.004001	3.389447	0.079855
 397	1.9800e-01	15.8161	102.900478	0.000374	3.738869	1.266763	0.029845
 398	1.9850e-01	15.8418	103.219093	0.000798	7.982991	2.704710	0.063723
 399	1.9900e-01	15.8835	103.424781	0.000515	5.153576	1.746079	0.041138
 400	1.9950e-01	15.9220	103.561906	0.000344	3.435718	1.164053	0.027425
 401	2.0000e-01	15.9621	104.017646	0.001142	11.418708	3.868763	0.091148
 402	2.0050e-01	16.0054	104.364493	0.000869	8.690344	2.944368	0.069369
 403	2.0100e-01	16.0503	104.622611	0.000647	6.467233	2.191158	0.051624
 404	2.0150e-01	16.0856	104.941226	0.000798	7.982991	2.704710	0.063723
 405	2.0200e-01	16.1209	105.284039	0.000859	8.589294	2.910132	0.068563
 406	2.0250e-01	16.1610	105.521992	0.000596	5.961980	2.019974	0.047591
 407	2.0300e-01	16.2092	105.663150	0.000354	3.536768	1.198289	0.028232
 408	2.0350e-01	16.2477	105.893037	0.000576	5.759879	1.951500	0.045977
 409	2.0400e-01	16.2974	106.167288	0.000687	6.871435	2.328105	0.054850
 410	2.0450e-01	16.3375	106.481869	0.000788	7.881940	2.670474	0.062916
 411	2.0500e-01	16.3776	106.711756	0.000576	5.759879	1.951500	0.045977
 412	2.0550e-01	16.4241	106.913411	0.000505	5.052526	1.711842	0.040331
 413	2.0600e-01	16.4450	107.223959	0.000778	7.780890	2.636237	0.062110
 414	2.0650e-01	16.4835	107.490144	0.000667	6.669334	2.259632	0.053237
 415	2.0700e-01	16.5284	107.760362	0.000677	6.770385	2.293868	0.054044
 416	2.0750e-01	16.5605	107.945884	0.000465	4.648324	1.574895	0.037105
 417	2.0800e-01	16.6070	108.191903	0.000616	6.164081	2.088447	0.049204
 418	2.0850e-01	16.6423	108.587147	0.000990	9.902950	3.355210	0.079049
 419	2.0900e-01	16.6824	108.712173	0.000313	3.132566	1.061342	0.025005
 420	2.0950e-01	16.7402	108.905762	0.000485	4.850425	1.643368	0.038718
 421	2.1000e-01	16.7642	109.200178	0.000738	7.376688	2.499289	0.058883
 422	2.1050e-01	16.8124	109.494594	0.000738	7.376688	2.499289	0.058883
 423	2.1100e-01	16.8557	109.829341	0.000839	8.387193	2.841658	0.066949
 424	2.1150e-01	16.8942	110.160055	0.000829	8.286142	2.807421	0.066143
 425	2.1200e-01	16.9375	110.385909	0.000566	5.658829	1.917263	0.045171
 426	2.1250e-01	16.9648	110.644027	0.000647	6.467233	2.191158	0.051624
 427	2.1300e-01	17.0177	110.853748	0.000525	5.254627	1.780316	0.041944
 428	2.1350e-01	17.0514	110.994907	0.000354	3.536768	1.198289	0.028232
 429	2.1400e-01	17.0931	111.269157	0.000687	6.871435	2.328105	0.054850
 430	2.1450e-01	17.1332	111.736997	0.001172	11.721860	3.971474	0.093568
 431	2.1500e-01	17.1669	112.047545	0.000778	7.780890	2.636237	0.062110
 432	2.1550e-01	17.2198	112.176605	0.000323	3.233616	1.095579	0.025812
 433	2.1600e-01	17.2503	112.398425	0.000556	5.557778	1.883026	0.044364
 434	2.1650e-01	17.2856	112.781569	0.000960	9.599799	3.252500	0.076629
 435	2.1700e-01	17.3209	113.156647	0.000940	9.397698	3.184026	0.075016
 436	2.1750e-01	17.3674	113.402666	0.000616	6.164081	2.088447	0.049204
 437	2.1800e-01	17.4043	113.572057	0.000424	4.244122	1.437947	0.033878
 438	2.1850e-01	17.4428	113.721281	0.000374	3.738869	1.266763	0.029845
 439	2.1900e-01	17.4813	113.995532	0.000687	6.871435	2.328105	0.054850
 440	2.1950e-01	17.5230	114.346412	0.000879	8.791395	2.978605	0.070176
 441	2.2000e-01	17.5663	114.572265	0.000566	5.658829	1.917263	0.045171
 442	2.2050e-01	17.6065	115.076402	0.001263	12.631314	4.279605	0.100827
 443	2.2100e-01	17.6482	115.229660	0.000384	3.839920	1.301000	0.030652
 444	2.2150e-01	17.6883	115.322421	0.000232	2.324162	0.787447	0.018552
 445	2.2200e-01	17.7252	115.681367	0.000899	8.993496	3.047079	0.071789
 446	2.2250e-01	17.7669	115.685400	0.000010	0.101051	0.034237	0.000807
 447	2.2300e-01	17.8054	116.181471	0.001243	12.429213	4.211131	0.099214
 448	2.2350e-01	17.8535	116.431524	0.000627	6.265132	2.122684	0.050010
 449	2.2400e-01	17.8840	116.600914	0.000424	4.244122	1.437947	0.033878
 450	2.2450e-01	17.9241	116.697708	0.000243	2.425212	0.821684	0.019359
 451	2.2500e-01	17.9706	116.927595	0.000576	5.759879	1.951500	0.045977
 452	2.2550e-01	18.0043	117.367202	0.001101	11.014506	3.731816	0.087922
 453	2.2600e-01	18.0556	117.617255	0.000627	6.265132	2.122684	0.050010
 454	2.2650e-01	18.1006	117.939902	0.000808	8.084041	2.738947	0.064530
 455	2.2700e-01	18.1246	118.242385	0.000758	7.578789	2.567763	0.060496
 456	2.2750e-01	18.1695	118.415808	0.000435	4.345172	1.472184	0.034685
 457	2.2800e-01	18.2032	118.722324	0.000768	7.679839	2.602000	0.061303
 458	2.2850e-01	18.2449	119.069170	0.000869	8.690344	2.944368	0.069369
 459	2.2900e-01	18.2850	119.222428	0.000384	3.839920	1.301000	0.030652
 460	2.2950e-01	18.3268	119.532976	0.000778	7.780890	2.636237	0.062110
 461	2.3000e-01	18.3620	119.895955	0.000909	9.094546	3.081316	0.072596
 462	2.3050e-01	18.4102	119.960485	0.000162	1.616808	0.547789	0.012906
 463	2.3100e-01	18.4455	120.331530	0.000930	9.296647	3.149789	0.074209
 464	2.3150e-01	18.4904	120.500920	0.000424	4.244122	1.437947	0.033878
 465	2.3200e-01	18.5273	120.928428	0.001071	10.711355	3.629105	0.085502
 466	2.3250e-01	18.5626	120.940528	0.000030	0.303152	0.102711	0.002420
 467	2.3300e-01	18.6091	121.295440	0.000889	8.892445	3.012842	0.070983
 468	2.3350e-01	18.6524	121.553559	0.000647	6.467233	2.191158	0.051624
 469	2.3400e-01	18.6909	121.601956	0.000121	1.212606	0.410842	0.009679
 470	2.3450e-01	18.7294	121.900405	0.000748	7.477738	2.533526	0.059690
 471	2.3500e-01	18.7727	122.360178	0.001152	11.519759	3.903000	0.091955
 472	2.3550e-01	18.8144	122.731224	0.000930	9.296647	3.149789	0.074209
 473	2.3600e-01	18.8497	122.686859	-0.000111	-1.111556	-0.376605	-0.008873
 474	2.3650e-01	18.8979	123.037739	0.000879	8.791395	2.978605	0.070176
 475	2.3700e-01	18.9299	123.227295	0.000475	4.749374	1.609132	0.037911
 476	2.3750e-01	18.9701	123.638671	0.001031	10.307153	3.492158	0.082275
 477	2.3800e-01	19.0134	123.888723	0.000627	6.265132	2.122684	0.050010
 478	2.3850e-01	19.0599	124.086345	0.000495	4.951475	1.677605	0.039524
 479	2.3900e-01	19.0920	124.263801	0.000445	4.446223	1.506421	0.035491
 480	2.3950e-01	19.1353	124.457390	0.000485	4.850425	1.643368	0.038718
 481	2.4000e-01	19.1722	124.771971	0.000788	7.881940	2.670474	0.062916
 482	2.4050e-01	19.2107	125.058321	0.000717	7.174587	2.430816	0.057270
 483	2.4100e-01	19.2588	125.106719	0.000121	1.212606	0.410842	0.009679
 484	2.4150e-01	19.2925	125.489863	0.000960	9.599799	3.252500	0.076629
 485	2.4200e-01	19.3246	125.937537	0.001122	11.216607	3.800289	0.089535
 486	2.4250e-01	19.3679	126.352946	0.001041	10.408203	3.526395	0.083082
 487	2.4300e-01	19.4144	126.336814	-0.000040	-0.404202	-0.136947	-0.003226
 488	2.4350e-01	19.4513	126.542502	0.000515	5.153576	1.746079	0.041138
 489	2.4400e-01	19.4914	126.844984	0.000758	7.578789	2.567763	0.060496
 490	2.4450e-01	19.5283	127.103102	0.000647	6.467233	2.191158	0.051624
 491	2.4500e-01	19.5636	127.316857	0.000536	5.355677	1.814553	0.042751
 492	2.4550e-01	19.6085	127.651604	0.000839	8.387193	2.841658	0.066949
 493	2.4600e-01	19.6502	127.901656	0.000627	6.265132	2.122684	0.050010
 494	2.4650e-01	19.6871	128.107344	0.000515	5.153576	1.746079	0.041138
 495	2.4700e-01	19.7305	128.397727	0.000728	7.275637	2.465053	0.058077
 496	2.4750e-01	19.7641	128.619548	0.000556	5.557778	1.883026	0.044364
 497	2.4800e-01	19.8107	128.873633	0.000637	6.366182	2.156921	0.050817
 498	2.4850e-01	19.8524	129.184181	0.000778	7.780890	2.636237	0.062110
 499	2.4900e-01	19.8893	129.470531	0.000717	7.174587	2.430816	0.057270
 500	2.4950e-01	19.9278	129.752848	0.000707	7.073536	2.396579	0.056463
 501	2.5000e-01	19.9711	129.853676	0.000253	2.526263	0.855921	0.020165
 502	2.5050e-01	19.9759	129.760914	-0.000232	-2.324162	-0.787447	-0.018552
 503	2.5100e-01	19.9615	129.571359	0.000475	4.749374	1.609132	-0.037911
 504	2.5150e-01	19.9166	129.498763	0.000182	1.818909	0.616263	-0.014519
 505	2.5200e-01	19.8764	129.236612	0.000657	6.568283	2.225395	-0.052430
 506	2.5250e-01	19.8379	129.155950	0.000202	2.021010	0.684737	-0.016132
 507	2.5300e-01	19.7914	128.809103	0.000869	8.690344	2.944368	-0.069369
 508	2.5350e-01	19.7545	128.833302	-0.000061	-0.606303	-0.205421	0.004840
 509	2.5400e-01	19.7176	128.716342	0.000293	2.930465	0.992868	-0.023392
 510	2.5450e-01	19.6791	128.434025	0.000707	7.073536	2.396579	-0.056463
 511	2.5500e-01	19.6374	128.264635	0.000424	4.244122	1.437947	-0.033878
 512	2.5550e-01	19.5941	128.139609	0.000313	3.132566	1.061342	-0.025005
 513	2.5600e-01	19.5572	127.804862	0.000839	8.387193	2.841658	-0.066949
 514	2.5650e-01	19.5187	127.538677	0.000667	6.669334	2.259632	-0.053237
 515	2.5700e-01	19.4754	127.478181	0.000152	1.515758	0.513553	-0.012099
 516	2.5750e-01	19.4385	127.187798	0.000728	7.275637	2.465053	-0.058077
 517	2.5800e-01	19.3936	126.828852	0.000899	8.993496	3.047079	-0.071789
 518	2.5850e-01	19.3535	126.671561	0.000394	3.940970	1.335237	-0.031458
 519	2.5900e-01	19.3134	126.602998	0.000172	1.717859	0.582026	-0.013713
 520	2.5950e-01	19.2797	126.490071	0.000283	2.829414	0.958632	-0.022585
 521	2.6000e-01	19.2444	126.110960	0.000950	9.498748	3.218263	-0.075822
 522	2.6050e-01	19.1946	126.086762	0.000061	0.606303	0.205421	-0.004840
 523	2.6100e-01	19.1561	125.816544	0.000677	6.770385	2.293868	-0.054044
 524	2.6150e-01	19.1128	125.606823	0.000525	5.254627	1.780316	-0.041944
 525	2.6200e-01	19.0807	125.268043	0.000849	8.488243	2.875895	-0.067756
 526	2.6250e-01	19.0390	125.191414	0.000192	1.919960	0.650500	-0.015326
 527	2.6300e-01	18.9989	124.993792	0.000495	4.951475	1.677605	-0.039524
 528	2.6350e-01	18.9636	124.614681	0.000950	9.498748	3.218263	-0.075822
 529	2.6400e-01	18.9203	124.372695	0.000606	6.063031	2.054210	-0.048397
 530	2.6450e-01	18.8786	124.094411	0.000697	6.972486	2.362342	-0.055657
 531	2.6500e-01	18.8385	124.098444	-0.000010	-0.101051	-0.034237	0.000807
 532	2.6550e-01	18.7968	123.908888	0.000475	4.749374	1.609132	-0.037911
 533	2.6600e-01	18.7551	123.549943	0.000899	8.993496	3.047079	-0.071789
 534	2.6650e-01	18.7182	123.348288	0.000505	5.052526	1.711842	-0.040331
 535	2.6700e-01	18.6749	123.166798	0.000455	4.547273	1.540658	-0.036298
 536	2.6750e-01	18.6332	123.094202	0.000182	1.818909	0.616263	-0.014519
 537	2.6800e-01	18.5931	122.868349	0.000566	5.658829	1.917263	-0.045171
 538	2.6850e-01	18.5642	122.549734	0.000798	7.982991	2.704710	-0.063723
 539	2.6900e-01	18.5112	122.448907	0.000253	2.526263	0.855921	-0.020165
 540	2.6950e-01	18.4759	121.944769	0.001263	12.631314	4.279605	-0.100827
 541	2.7000e-01	18.4391	121.698750	0.000616	6.164081	2.088447	-0.049204
 542	2.7050e-01	18.4038	121.646320	0.000131	1.313657	0.445079	-0.010486
 543	2.7100e-01	18.3508	121.537426	0.000273	2.728364	0.924395	-0.021779
 544	2.7150e-01	18.3107	121.214778	0.000808	8.084041	2.738947	-0.064530
 545	2.7200e-01	18.2834	120.843733	0.000930	9.296647	3.149789	-0.074209
 546	2.7250e-01	18.2337	120.670310	0.000435	4.345172	1.472184	-0.034685
 547	2.7300e-01	18.2032	120.400093	0.000677	6.770385	2.293868	-0.054044
 548	2.7350e-01	18.1551	120.226669	0.000435	4.345172	1.472184	-0.034685
 549	2.7400e-01	18.1134	120.000816	0.000566	5.658829	1.917263	-0.045171
 550	2.7450e-01	18.0749	119.835459	0.000414	4.143071	1.403710	-0.033071
 551	2.7500e-01	18.0396	119.653969	0.000455	4.547273	1.540658	-0.036298
 552	2.7550e-01	17.9979	119.375686	0.000697	6.972486	2.362342	-0.055657
 553	2.7600e-01	17.9610	119.109501	0.000667	6.669334	2.259632	-0.053237
 554	2.7650e-01	17.9193	118.972376	0.000344	3.435718	1.164053	-0.027425
 555	2.7700e-01	17.8808	118.641662	0.000829	8.286142	2.807421	-0.066143
 556	2.7750e-01	17.8359	118.262550	0.000950	9.498748	3.218263	-0.075822
 557	2.7800e-01	17.7925	118.310947	-0.000121	-1.212606	-0.410842	0.009679
 558	2.7850e-01	17.7556	118.000399	0.000778	7.780890	2.636237	-0.062110
 559	2.7900e-01	17.7268	117.758413	0.000606	6.063031	2.054210	-0.048397
 560	2.7950e-01	17.6770	117.512394	0.000616	6.164081	2.088447	-0.049204
 561	2.8000e-01	17.6369	117.201845	0.000778	7.780890	2.636237	-0.062110
 562	2.8050e-01	17.5936	117.064720	0.000344	3.435718	1.164053	-0.027425
 563	2.8100e-01	17.5535	117.052621	0.000030	0.303152	0.102711	-0.002420
 564	2.8150e-01	17.5198	116.798536	0.000637	6.366182	2.156921	-0.050817
 565	2.8200e-01	17.4781	116.383126	0.001041	10.408203	3.526395	-0.083082
 566	2.8250e-01	17.4284	116.270200	0.000283	2.829414	0.958632	-0.022585
 567	2.8300e-01	17.3931	116.120975	0.000374	3.738869	1.266763	-0.029845
 568	2.8350e-01	17.3514	115.729764	0.000980	9.801900	3.320974	-0.078242
 569	2.8400e-01	17.3129	115.600705	0.000323	3.233616	1.095579	-0.025812
 570	2.8450e-01	17.2888	115.213528	0.000970	9.700849	3.286737	-0.077435
 571	2.8500e-01	17.2359	115.019939	0.000485	4.850425	1.643368	-0.038718
 572	2.8550e-01	17.1990	114.781986	0.000596	5.961980	2.019974	-0.047591
 573	2.8600e-01	17.1573	114.471438	0.000778	7.780890	2.636237	-0.062110
 574	2.8650e-01	17.1107	114.390776	0.000202	2.021010	0.684737	-0.016132
 575	2.8700e-01	17.0738	114.245584	0.000364	3.637819	1.232526	-0.029038
 576	2.8750e-01	17.0370	114.160889	0.000212	2.122061	0.718974	-0.016939
 577	2.8800e-01	16.9872	113.814043	0.000869	8.690344	2.944368	-0.069369
 578	2.8850e-01	16.9616	113.350236	0.001162	11.620809	3.937237	-0.092761
 579	2.8900e-01	16.9118	113.196978	0.000384	3.839920	1.301000	-0.030652
 580	2.8950e-01	16.8765	113.019522	0.000445	4.446223	1.506421	-0.035491
 581	2.9000e-01	16.8396	112.753338	0.000667	6.669334	2.259632	-0.053237
 582	2.9050e-01	16.7915	112.503286	0.000627	6.265132	2.122684	-0.050010
 583	2.9100e-01	16.7530	112.333895	0.000424	4.244122	1.437947	-0.033878
 584	2.9150e-01	16.7145	112.156439	0.000445	4.446223	1.506421	-0.035491
 585	2.9200e-01	16.6744	111.769262	0.000970	9.700849	3.286737	-0.077435
 586	2.9250e-01	16.6407	111.611971	0.000394	3.940970	1.335237	-0.031458
 587	2.9300e-01	16.5974	111.188495	0.001061	10.610304	3.594868	-0.084695
 588	2.9350e-01	16.5557	110.898112	0.000728	7.275637	2.465053	-0.058077
 589	2.9400e-01	16.5204	110.821483	0.000192	1.919960	0.650500	-0.015326
 590	2.9450e-01	16.4771	110.656126	0.000414	4.143071	1.403710	-0.033071
 591	2.9500e-01	16.4289	110.406074	0.000627	6.265132	2.122684	-0.050010
 592	2.9550e-01	16.3969	110.268949	0.000344	3.435718	1.164053	-0.027425
 593	2.9600e-01	16.3552	110.022930	0.000616	6.164081	2.088447	-0.049204
 594	2.9650e-01	16.3167	109.732547	0.000728	7.275637	2.465053	-0.058077
 595	2.9700e-01	16.2717	109.478462	0.000637	6.366182	2.156921	-0.050817
 596	2.9750e-01	16.2380	109.292939	0.000465	4.648324	1.574895	-0.037105
 597	2.9800e-01	16.1963	108.982390	0.000778	7.780890	2.636237	-0.062110
 598	2.9850e-01	16.1578	108.671842	0.000778	7.780890	2.636237	-0.062110
 599	2.9900e-01	16.1049	108.474220	0.000495	4.951475	1.677605	-0.039524
 600	2.9950e-01	16.0744	108.224168	0.000627	6.265132	2.122684	-0.050010
 601	3.0000e-01	16.0375	108.115274	0.000273	2.728364	0.924395	-0.021779
 602	3.0050e-01	15.9990	107.724064	0.000980	9.801900	3.320974	-0.078242
 603	3.0100e-01	15.9525	107.445780	0.000697	6.972486	2.362342	-0.055657
 604	3.0150e-01	15.9172	107.264290	0.000455	4.547273	1.540658	-0.036298
 605	3.0200e-01	15.8739	107.078768	0.000465	4.648324	1.574895	-0.037105
 606	3.0250e-01	15.8354	106.772252	0.000768	7.679839	2.602000	-0.061303
 607	3.0300e-01	15.7905	106.623028	0.000374	3.738869	1.266763	-0.029845
 608	3.0350e-01	15.7504	106.352810	0.000677	6.770385	2.293868	-0.054044
 609	3.0400e-01	15.7070	106.260049	0.000232	2.324162	0.787447	-0.018552
 610	3.0450e-01	15.6782	106.038228	0.000556	5.557778	1.883026	-0.044364
 611	3.0500e-01	15.6413	105.788176	0.000627	6.265132	2.122684	-0.050010
 612	3.0550e-01	15.5980	105.380833	0.001021	10.206102	3.457921	-0.081469
 613	3.0600e-01	15.5530	105.251774	0.000323	3.233616	1.095579	-0.025812
 614	3.0650e-01	15.5226	105.086417	0.000414	4.143071	1.403710	-0.033071
 615	3.0700e-01	15.4712	104.590346	0.001243	12.429213	4.211131	-0.099214
 616	3.0750e-01	15.4407	104.243500	0.000869	8.690344	2.944368	-0.069369
 617	3.0800e-01	15.4006	104.227367	0.000040	0.404202	0.136947	-0.003226
 618	3.0850e-01	15.3541	104.074109	0.000384	3.839920	1.301000	-0.030652
 619	3.0900e-01	15.3108	103.775660	0.000748	7.477738	2.533526	-0.059690
 620	3.0950e-01	15.2803	103.674833	0.000253	2.526263	0.855921	-0.020165
 621	3.1000e-01	15.2386	103.307821	0.000920	9.195597	3.115553	-0.073402
 622	3.1050e-01	15.1969	103.090033	0.000546	5.456728	1.848789	-0.043557
 623	3.1100e-01	15.1584	102.739154	0.000879	8.791395	2.978605	-0.070176
 624	3.1150e-01	15.1183	102.501201	0.000596	5.961980	2.019974	-0.047591
 625	3.1200e-01	15.0814	102.239050	0.000657	6.568283	2.225395	-0.052430
 626	3.1250e-01	15.0397	102.037395	0.000505	5.052526	1.711842	-0.040331
 627	3.1300e-01	15.0060	101.698614	0.000849	8.488243	2.875895	-0.067756
 628	3.1350e-01	14.9579	101.634085	0.000162	1.616808	0.547789	-0.012906
 629	3.1400e-01	14.9194	101.375966	0.000647	6.467233	2.191158	-0.051624
 630	3.1450e-01	14.8744	101.033153	0.000859	8.589294	2.910132	-0.068563
 631	3.1500e-01	14.8424	100.645976	0.000970	9.700849	3.286737	-0.077435
 632	3.1550e-01	14.7958	100.436254	0.000525	5.254627	1.780316	-0.041944
 633	3.1600e-01	14.7509	100.258798	0.000445	4.446223	1.506421	-0.035491
 634	3.1650e-01	14.7253	100.024878	0.000586	5.860930	1.985737	-0.046784
 635	3.1700e-01	14.6787	99.859521	0.000414	4.143071	1.403710	-0.033071
 636	3.1750e-01	14.6370	99.605436	0.000637	6.366182	2.156921	-0.050817
 637	3.1800e-01	14.6097	99.387649	0.000546	5.456728	1.848789	-0.043557
 638	3.1850e-01	14.5568	98.956107	0.001081	10.812405	3.663342	-0.086308
 639	3.1900e-01	14.5151	98.649592	0.000768	7.679839	2.602000	-0.061303
 640	3.1950e-01	14.4718	98.464069	0.000465	4.648324	1.574895	-0.037105
 641	3.2000e-01	14.4413	98.298712	0.000414	4.143071	1.403710	-0.033071
 642	3.2050e-01	14.3980	98.125289	0.000435	4.345172	1.472184	-0.034685
 643	3.2100e-01	14.3579	97.810707	0.000788	7.881940	2.670474	-0.062916
 644	3.2150e-01	14.3065	97.693747	0.000293	2.930465	0.992868	-0.023392
 645	3.2200e-01	14.2713	97.556622	0.000344	3.435718	1.164053	-0.027425
 646	3.2250e-01	14.2344	97.391265	0.000414	4.143071	1.403710	-0.033071
 647	3.2300e-01	14.1991	97.000054	0.000980	9.801900	3.320974	-0.078242
 648	3.2350e-01	14.1590	96.685473	0.000788	7.881940	2.670474	-0.062916
 649	3.2400e-01	14.1156	96.278130	0.001021	10.206102	3.457921	-0.081469
 650	3.2450e-01	14.0836	96.153104	0.000313	3.132566	1.061342	-0.025005
 651	3.2500e-01	14.0354	95.899019	0.000637	6.366182	2.156921	-0.050817
 652	3.2550e-01	14.0001	95.753827	0.000364	3.637819	1.232526	-0.029038
 653	3.2600e-01	13.9616	95.290021	0.001162	11.620809	3.937237	-0.092761
 654	3.2650e-01	13.9215	94.963340	0.000819	8.185092	2.773184	-0.065336
 655	3.2700e-01	13.8798	94.898810	0.000162	1.616808	0.547789	-0.012906
 656	3.2750e-01	13.8349	94.636659	0.000657	6.568283	2.225395	-0.052430
 657	3.2800e-01	13.7964	94.346276	0.000728	7.275637	2.465053	-0.058077
 658	3.2850e-01	13.7563	94.023628	0.000808	8.084041	2.738947	-0.064530
 659	3.2900e-01	13.7194	93.809873	0.000536	5.355677	1.814553	-0.042751
 660	3.2950e-01	13.6793	93.588053	0.000556	5.557778	1.883026	-0.044364
 661	3.3000e-01	13.6408	93.208942	0.000950	9.498748	3.218263	-0.075822
 662	3.3050e-01	13.5959	92.938724	0.000677	6.770385	2.293868	-0.054044
 663	3.3100e-01	13.5574	92.761268	0.000445	4.446223	1.506421	-0.035491
 664	3.3150e-01	13.5108	92.769334	-0.000020	-0.202101	-0.068474	0.001613
 665	3.3200e-01	13.4772	92.273263	0.001243	12.429213	4.211131	-0.099214
 666	3.3250e-01	13.4338	92.111939	0.000404	4.042021	1.369474	-0.032265
 667	3.3300e-01	13.3873	92.156303	-0.000111	-1.111556	-0.376605	0.008873
 668	3.3350e-01	13.3520	91.603769	0.001384	13.843921	4.690447	-0.110507
 669	3.3400e-01	13.3103	91.148028	0.001142	11.418708	3.868763	-0.091148
 670	3.3450e-01	13.2798	90.978638	0.000424	4.244122	1.437947	-0.033878
 671	3.3500e-01	13.2462	90.793116	0.000465	4.648324	1.574895	-0.037105
 672	3.3550e-01	13.1916	90.692288	0.000253	2.526263	0.855921	-0.020165
 673	3.3600e-01	13.1595	90.389806	0.000758	7.578789	2.567763	-0.060496
 674	3.3650e-01	13.1226	89.998595	0.000980	9.801900	3.320974	-0.078242
 675	3.3700e-01	13.0777	89.635616	0.000909	9.094546	3.081316	-0.072596
 676	3.3750e-01	13.0360	89.546888	0.000222	2.223111	0.753211	-0.017746
 677	3.3800e-01	12.9911	89.325068	0.000556	5.557778	1.883026	-0.044364
 678	3.3850e-01	12.9558	89.204075	0.000303	3.031515	1.027105	-0.024199
 679	3.3900e-01	12.9221	88.627342	0.001445	14.450224	4.895868	-0.115347
 680	3.3950e-01	12.8804	88.470051	0.000394	3.940970	1.335237	-0.031458
 681	3.4000e-01	12.8339	88.260330	0.000525	5.254627	1.780316	-0.041944
 682	3.4050e-01	12.8034	87.990112	0.000677	6.770385	2.293868	-0.054044
 683	3.4100e-01	12.7697	87.683597	0.000768	7.679839	2.602000	-0.061303
 684	3.4150e-01	12.7119	87.582769	0.000253	2.526263	0.855921	-0.020165
 685	3.4200e-01	12.6831	87.167360	0.001041	10.408203	3.526395	-0.083082
 686	3.4250e-01	12.6285	87.276254	-0.000273	-2.728364	-0.924395	0.021779
 687	3.4300e-01	12.5980	86.929407	0.000869	8.690344	2.944368	-0.069369
 688	3.4350e-01	12.5660	86.425270	0.001263	12.631314	4.279605	-0.100827
 689	3.4400e-01	12.5226	86.159085	0.000667	6.669334	2.259632	-0.053237
 690	3.4450e-01	12.4777	85.985662	0.000435	4.345172	1.472184	-0.034685
 691	3.4500e-01	12.4376	85.667047	0.000798	7.982991	2.704710	-0.063723
 692	3.4550e-01	12.3911	85.473459	0.000485	4.850425	1.643368	-0.038718
 693	3.4600e-01	12.3638	85.316168	0.000394	3.940970	1.335237	-0.031458
 694	3.4650e-01	12.3269	84.896726	0.001051	10.509254	3.560631	-0.083888
 695	3.4700e-01	12.2900	84.739435	0.000394	3.940970	1.335237	-0.031458
 696	3.4750e-01	12.2371	84.134470	0.001516	15.157577	5.135526	-0.120993
 697	3.4800e-01	12.1938	84.186900	-0.000131	-1.313657	-0.445079	0.010486
 698	3.4850e-01	12.1489	83.896517	0.000728	7.275637	2.465053	-0.058077
 699	3.4900e-01	12.1200	83.634366	0.000657	6.568283	2.225395	-0.052430
 700	3.4950e-01	12.0767	83.299619	0.000839	8.387193	2.841658	-0.066949
 701	3.5000e-01	12.0398	82.985037	0.000788	7.881940	2.670474	-0.062916
 702	3.5050e-01	12.0013	82.997136	-0.000030	-0.303152	-0.102711	0.002420
 703	3.5100e-01	11.9580	82.682554	0.000788	7.881940	2.670474	-0.062916
 704	3.5150e-01	11.9194	82.541396	0.000354	3.536768	1.198289	-0.028232
 705	3.5200e-01	11.8793	82.073557	0.001172	11.721860	3.971474	-0.093568
 706	3.5250e-01	11.8408	81.791240	0.000707	7.073536	2.396579	-0.056463
 707	3.5300e-01	11.8007	81.541188	0.000627	6.265132	2.122684	-0.050010
 708	3.5350e-01	11.7478	81.262904	0.000697	6.972486	2.362342	-0.055657
 709	3.5400e-01	11.7221	80.819263	0.001112	11.115557	3.766053	-0.088728
 710	3.5450e-01	11.6820	80.645840	0.000435	4.345172	1.472184	-0.034685
 711	3.5500e-01	11.6403	80.456284	0.000475	4.749374	1.609132	-0.037911
 712	3.5550e-01	11.5986	80.186066	0.000677	6.770385	2.293868	-0.054044
 713	3.5600e-01	11.5681	80.036842	0.000374	3.738869	1.266763	-0.029845
 714	3.5650e-01	11.5168	79.839220	0.000495	4.951475	1.677605	-0.039524
 715	3.5700e-01	11.4799	79.661764	0.000445	4.446223	1.506421	-0.035491
 716	3.5750e-01	11.4446	79.282652	0.000950	9.498748	3.218263	-0.075822
 717	3.5800e-01	11.3997	79.129395	0.000384	3.839920	1.301000	-0.030652
 718	3.5850e-01	11.3548	78.951938	0.000445	4.446223	1.506421	-0.035491
 719	3.5900e-01	11.3195	78.572827	0.000950	9.498748	3.218263	-0.075822
 720	3.5950e-01	11.2665	78.403437	0.000424	4.244122	1.437947	-0.033878
 721	3.6000e-01	11.2409	77.919465	0.001213	12.126062	4.108421	-0.096794
 722	3.6050e-01	11.1975	77.516155	0.001011	10.105052	3.423684	-0.080662
 723	3.6100e-01	11.1639	77.193507	0.000808	8.084041	2.738947	-0.064530
 724	3.6150e-01	11.1189	77.032183	0.000404	4.042021	1.369474	-0.032265
 725	3.6200e-01	11.0756	76.975720	0.000141	1.414707	0.479316	-0.011293
 726	3.6250e-01	11.0387	76.741800	0.000586	5.860930	1.985737	-0.046784
 727	3.6300e-01	11.0066	76.177166	0.001415	14.147072	4.793158	-0.112927
 728	3.6350e-01	10.9601	76.140869	0.000091	0.909455	0.308132	-0.007260
 729	3.6400e-01	10.9088	76.015842	0.000313	3.132566	1.061342	-0.025005
 730	3.6450e-01	10.8879	75.600433	0.001041	10.408203	3.526395	-0.083082
 731	3.6500e-01	10.8382	75.237454	0.000909	9.094546	3.081316	-0.072596
 732	3.6550e-01	10.7965	74.963204	0.000687	6.871435	2.328105	-0.054850
 733	3.6600e-01	10.7612	74.624423	0.000849	8.488243	2.875895	-0.067756
 734	3.6650e-01	10.7163	74.604258	0.000051	0.505253	0.171184	-0.004033
 735	3.6700e-01	10.6714	74.289676	0.000788	7.881940	2.670474	-0.062916
 736	3.6750e-01	10.6345	74.075922	0.000536	5.355677	1.814553	-0.042751
 737	3.6800e-01	10.5976	73.583884	0.001233	12.328163	4.176895	-0.098408
 738	3.6850e-01	10.5687	73.329799	0.000637	6.366182	2.156921	-0.050817
 739	3.6900e-01	10.5174	73.079747	0.000627	6.265132	2.122684	-0.050010
 740	3.6950e-01	10.4740	72.821628	0.000647	6.467233	2.191158	-0.051624
 741	3.7000e-01	10.4323	72.664338	0.000394	3.940970	1.335237	-0.031458
 742	3.7050e-01	10.3970	72.301359	0.000909	9.094546	3.081316	-0.072596
 743	3.7100e-01	10.3585	71.934347	0.000920	9.195597	3.115553	-0.073402
 744	3.7150e-01	10.3200	71.877883	0.000141	1.414707	0.479316	-0.011293
 745	3.7200e-01	10.2783	71.518938	0.000899	8.993496	3.047079	-0.071789
 746	3.7250e-01	10.2270	71.434242	0.000212	2.122061	0.718974	-0.016939
 747	3.7300e-01	10.1965	71.079330	0.000889	8.892445	3.012842	-0.070983
 748	3.7350e-01	10.1532	70.667954	0.001031	10.307153	3.492158	-0.082275
 749	3.7400e-01	10.1163	70.571159	0.000243	2.425212	0.821684	-0.019359
 750	3.7450e-01	10.0730	70.337240	0.000586	5.860930	1.985737	-0.046784
 751	3.7500e-01	10.0361	69.958128	0.000950	9.498748	3.218263	-0.075822
 752	3.7550e-01	10.0024	69.736308	0.000556	5.557778	1.883026	-0.044364
 753	3.7600e-01	9.9495	69.421726	0.000788	7.881940	2.670474	-0.062916
 754	3.7650e-01	9.9190	69.014383	0.001021	10.206102	3.457921	-0.081469
 755	3.7700e-01	9.8628	68.784497	0.000576	5.759879	1.951500	-0.045977
 756	3.7750e-01	9.8339	68.300525	0.001213	12.126062	4.108421	-0.096794
 757	3.7800e-01	9.7922	68.062572	0.000596	5.961980	2.019974	-0.047591
 758	3.7850e-01	9.7553	68.115002	-0.000131	-1.313657	-0.445079	0.010486
 759	3.7900e-01	9.7152	67.647163	0.001172	11.721860	3.971474	-0.093568
 760	3.7950e-01	9.6735	67.360813	0.000717	7.174587	2.430816	-0.057270
 761	3.8000e-01	9.6382	67.122860	0.000596	5.961980	2.019974	-0.047591
 762	3.8050e-01	9.5997	67.090595	0.000081	0.808404	0.273895	-0.006453
 763	3.8100e-01	9.5596	66.538061	0.001384	13.843921	4.690447	-0.110507
 764	3.8150e-01	9.5211	66.429167	0.000273	2.728364	0.924395	-0.021779
 765	3.8200e-01	9.4826	66.110552	0.000798	7.982991	2.704710	-0.063723
 766	3.8250e-01	9.4361	65.767739	0.000859	8.589294	2.910132	-0.068563
 767	3.8300e-01	9.4024	65.642713	0.000313	3.132566	1.061342	-0.025005
 768	3.8350e-01	9.3623	65.352330	0.000728	7.275637	2.465053	-0.058077
 769	3.8400e-01	9.3206	64.836093	0.001293	12.934466	4.382316	-0.103247
 770	3.8450e-01	9.2757	64.743332	0.000232	2.324162	0.787447	-0.018552
 771	3.8500e-01	9.2340	64.634438	0.000273	2.728364	0.924395	-0.021779
 772	3.8550e-01	9.1906	64.130301	0.001263	12.631314	4.279605	-0.100827
 773	3.8600e-01	9.1505	63.904447	0.000566	5.658829	1.917263	-0.045171
 774	3.8650e-01	9.1201	63.593899	0.000778	7.780890	2.636237	-0.062110
 775	3.8700e-01	9.0687	63.335780	0.000647	6.467233	2.191158	-0.051624
 776	3.8750e-01	9.0382	63.113960	0.000556	5.557778	1.883026	-0.044364
 777	3.8800e-01	8.9949	62.839709	0.000687	6.871435	2.328105	-0.054850
 778	3.8850e-01	8.9532	62.432366	0.001021	10.206102	3.457921	-0.081469
 779	3.8900e-01	8.9067	62.254910	0.000445	4.446223	1.506421	-0.035491
 780	3.8950e-01	8.8810	61.879832	0.000940	9.397698	3.184026	-0.075016
 781	3.9000e-01	8.8281	61.617680	0.000657	6.568283	2.225395	-0.052430
 782	3.9050e-01	8.8008	61.311165	0.000768	7.679839	2.602000	-0.061303
 783	3.9100e-01	8.7607	61.145808	0.000414	4.143071	1.403710	-0.033071
 784	3.9150e-01	8.7254	60.907855	0.000596	5.961980	2.019974	-0.047591
 785	3.9200e-01	8.6757	60.621505	0.000717	7.174587	2.430816	-0.057270
 786	3.9250e-01	8.6340	60.306923	0.000788	7.881940	2.670474	-0.062916
 787	3.9300e-01	8.5923	59.907647	0.001000	10.004001	3.389447	-0.079855
 788	3.9350e-01	8.5570	59.851183	0.000141	1.414707	0.479316	-0.011293
 789	3.9400e-01	8.5121	59.601131	0.000627	6.265132	2.122684	-0.050010
 790	3.9450e-01	8.4768	59.149424	0.001132	11.317658	3.834526	-0.090341
 791	3.9500e-01	8.4431	58.939703	0.000525	5.254627	1.780316	-0.041944
 792	3.9550e-01	8.3982	58.568658	0.000930	9.296647	3.149789	-0.074209
 793	3.9600e-01	8.3500	58.270209	0.000748	7.477738	2.533526	-0.059690
 794	3.9650e-01	8.3131	58.068554	0.000505	5.052526	1.711842	-0.040331
 795	3.9700e-01	8.2666	57.874965	0.000485	4.850425	1.643368	-0.038718
 796	3.9750e-01	8.2425	57.516019	0.000899	8.993496	3.047079	-0.071789
 797	3.9800e-01	8.2008	57.177239	0.000849	8.488243	2.875895	-0.067756
 798	3.9850e-01	8.1623	56.862657	0.000788	7.881940	2.670474	-0.062916
 799	3.9900e-01	8.1158	56.495645	0.000920	9.195597	3.115553	-0.073402
 800	3.9950e-01	8.0741	56.322222	0.000435	4.345172	1.472184	-0.034685
 801	4.0000e-01	8.0324	56.084269	0.000596	5.961980	2.019974	-0.047591
 802	4.0050e-01	8.0019	55.914879	0.000424	4.244122	1.437947	-0.033878
 803	4.0100e-01	7.9618	55.644661	0.000677	6.770385	2.293868	-0.054044
 804	4.0150e-01	7.9105	55.192954	0.001132	11.317658	3.834526	-0.090341
 805	4.0200e-01	7.8816	54.967101	0.000566	5.658829	1.917263	-0.045171
 806	4.0250e-01	7.8383	54.660585	0.000768	7.679839	2.602000	-0.061303
 807	4.0300e-01	7.7950	54.386335	0.000687	6.871435	2.328105	-0.054850
 808	4.0350e-01	7.7581	54.249209	0.000344	3.435718	1.164053	-0.027425
 809	4.0400e-01	7.7164	53.817668	0.001081	10.812405	3.663342	-0.086308
 810	4.0450e-01	7.6795	53.535351	0.000707	7.073536	2.396579	-0.056463
 811	4.0500e-01	7.6329	53.297398	0.000596	5.961980	2.019974	-0.047591
 812	4.0550e-01	7.6025	53.140107	0.000394	3.940970	1.335237	-0.031458
 813	4.0600e-01	7.5591	52.877956	0.000657	6.568283	2.225395	-0.052430
 814	4.0650e-01	7.5158	52.486745	0.000980	9.801900	3.320974	-0.078242
 815	4.0700e-01	7.4773	52.216528	0.000677	6.770385	2.293868	-0.054044
 816	4.0750e-01	7.4308	52.131833	0.000212	2.122061	0.718974	-0.016939
 817	4.0800e-01	7.3987	51.587364	0.001364	13.641820	4.621974	-0.108894
 818	4.0850e-01	7.3554	51.280849	0.000768	7.679839	2.602000	-0.061303
 819	4.0900e-01	7.3169	50.970300	0.000778	7.780890	2.636237	-0.062110
 820	4.0950e-01	7.2736	50.772678	0.000495	4.951475	1.677605	-0.039524
 821	4.1000e-01	7.2319	50.437931	0.000839	8.387193	2.841658	-0.066949
 822	4.1050e-01	7.1886	50.078985	0.000899	8.993496	3.047079	-0.071789
 823	4.1100e-01	7.1469	49.820867	0.000647	6.467233	2.191158	-0.051624
 824	4.1150e-01	7.1212	49.506285	0.000788	7.881940	2.670474	-0.062916
 825	4.1200e-01	7.0795	49.280432	0.000566	5.658829	1.917263	-0.045171
 826	4.1250e-01	7.0362	48.844857	0.001091	10.913456	3.697579	-0.087115
 827	4.1300e-01	7.0025	48.820659	0.000061	0.606303	0.205421	-0.004840
 828	4.1350e-01	6.9608	48.425415	0.000990	9.902950	3.355210	-0.079049
 829	4.1400e-01	6.9110	48.058403	0.000920	9.195597	3.115553	-0.073402
 830	4.1450e-01	6.8822	47.961609	0.000243	2.425212	0.821684	-0.019359
 831	4.1500e-01	6.8356	47.772053	0.000475	4.749374	1.609132	-0.037911
 832	4.1550e-01	6.7971	47.259849	0.001283	12.833415	4.348079	-0.102441
 833	4.1600e-01	6.7490	46.941235	0.000798	7.982991	2.704710	-0.063723
 834	4.1650e-01	6.7201	46.671017	0.000677	6.770385	2.293868	-0.054044
 835	4.1700e-01	6.6672	46.408866	0.000657	6.568283	2.225395	-0.052430
 836	4.1750e-01	6.6431	45.953125	0.001142	11.418708	3.868763	-0.091148
 837	4.1800e-01	6.5982	45.666775	0.000717	7.174587	2.430816	-0.057270
 838	4.1850e-01	6.5581	45.497385	0.000424	4.244122	1.437947	-0.033878
 839	4.1900e-01	6.5276	45.190870	0.000768	7.679839	2.602000	-0.061303
 840	4.1950e-01	6.4811	44.759328	0.001081	10.812405	3.663342	-0.086308
 841	4.2000e-01	6.4346	44.509276	0.000627	6.265132	2.122684	-0.050010
 842	4.2050e-01	6.4025	44.428614	0.000202	2.021010	0.684737	-0.016132
 843	4.2100e-01	6.3576	44.210827	0.000546	5.456728	1.848789	-0.043557
 844	4.2150e-01	6.3207	43.819616	0.000980	9.801900	3.320974	-0.078242
 845	4.2200e-01	6.2806	43.484869	0.000839	8.387193	2.841658	-0.066949
 846	4.2250e-01	6.2340	43.271115	0.000536	5.355677	1.814553	-0.042751
 847	4.2300e-01	6.1939	42.948467	0.000808	8.084041	2.738947	-0.064530
 848	4.2350e-01	6.1586	42.811342	0.000344	3.435718	1.164053	-0.027425
 849	4.2400e-01	6.1137	42.432230	0.000950	9.498748	3.218263	-0.075822
 850	4.2450e-01	6.0736	42.190244	0.000606	6.063031	2.054210	-0.048397
 851	4.2500e-01	6.0271	41.831299	0.000899	8.993496	3.047079	-0.071789
 852	4.2550e-01	6.0030	41.512684	0.000798	7.982991	2.704710	-0.063723
 853	4.2600e-01	5.9597	41.367492	0.000364	3.637819	1.232526	-0.029038
 854	4.2650e-01	5.9100	41.016613	0.000879	8.791395	2.978605	-0.070176
 855	4.2700e-01	5.8763	40.585071	0.001081	10.812405	3.663342	-0.086308
 856	4.2750e-01	5.8362	40.238225	0.000869	8.690344	2.944368	-0.069369
 857	4.2800e-01	5.7961	40.234192	0.000010	0.101051	0.034237	-0.000807
 858	4.2850e-01	5.7560	39.762319	0.001182	11.822910	4.005710	-0.094375
 859	4.2900e-01	5.7255	39.213818	0.001374	13.742870	4.656210	-0.109700
 860	4.2950e-01	5.6742	38.979898	0.000586	5.860930	1.985737	-0.046784
 861	4.3000e-01	5.6405	38.629018	0.000879	8.791395	2.978605	-0.070176
 862	4.3050e-01	5.6020	38.467694	0.000404	4.042021	1.369474	-0.032265
 863	4.3100e-01	5.5539	38.374933	0.000232	2.324162	0.787447	-0.018552
 864	4.3150e-01	5.5121	38.141013	0.000586	5.860930	1.985737	-0.046784
 865	4.3200e-01	5.4672	37.596545	0.001364	13.641820	4.621974	-0.108894
 866	4.3250e-01	5.4383	37.515883	0.000202	2.021010	0.684737	-0.016132
 867	4.3300e-01	5.3950	37.165004	0.000879	8.791395	2.978605	-0.070176
 868	4.3350e-01	5.3517	36.971415	0.000485	4.850425	1.643368	-0.038718
 869	4.3400e-01	5.3164	36.406781	0.001415	14.147072	4.793158	-0.112927
 870	4.3450e-01	5.2779	36.172861	0.000586	5.860930	1.985737	-0.046784
 871	4.3500e-01	5.2314	36.116398	0.000141	1.414707	0.479316	-0.011293
 872	4.3550e-01	5.2041	35.789717	0.000819	8.185092	2.773184	-0.065336
 873	4.3600e-01	5.1560	35.237182	0.001384	13.843921	4.690447	-0.110507
 874	4.3650e-01	5.1191	35.188785	0.000121	1.212606	0.410842	-0.009679
 875	4.3700e-01	5.0806	34.737078	0.001132	11.317658	3.834526	-0.090341
 876	4.3750e-01	5.0357	34.382166	0.000889	8.892445	3.012842	-0.070983
 877	4.3800e-01	4.9956	34.289404	0.000232	2.324162	0.787447	-0.018552
 878	4.3850e-01	4.9587	33.809466	0.001203	12.025011	4.074184	-0.095988
 879	4.3900e-01	4.9186	33.470685	0.000849	8.488243	2.875895	-0.067756
 880	4.3950e-01	4.8753	33.200468	0.000677	6.770385	2.293868	-0.054044
 881	4.4000e-01	4.8416	32.914118	0.000717	7.174587	2.430816	-0.057270
 882	4.4050e-01	4.7951	32.660032	0.000637	6.366182	2.156921	-0.050817
 883	4.4100e-01	4.7549	32.450311	0.000525	5.254627	1.780316	-0.041944
 884	4.4150e-01	4.7164	32.167994	0.000707	7.073536	2.396579	-0.056463
 885	4.4200e-01	4.6924	31.696122	0.001182	11.822910	4.005710	-0.094375
 886	4.4250e-01	4.6330	31.599328	0.000243	2.425212	0.821684	-0.019359
 887	4.4300e-01	4.5929	31.292812	0.000768	7.679839	2.602000	-0.061303
 888	4.4350e-01	4.5656	31.115356	0.000445	4.446223	1.506421	-0.035491
 889	4.4400e-01	4.5159	30.631384	0.001213	12.126062	4.108421	-0.096794
 890	4.4450e-01	4.4790	30.365199	0.000667	6.669334	2.259632	-0.053237
 891	4.4500e-01	4.4325	30.046585	0.000798	7.982991	2.704710	-0.063723
 892	4.4550e-01	4.3940	29.514216	0.001334	13.338668	4.519263	-0.106474
 893	4.4600e-01	4.3555	29.530348	-0.000040	-0.404202	-0.136947	0.003226
 894	4.4650e-01	4.3186	29.167369	0.000909	9.094546	3.081316	-0.072596
 895	4.4700e-01	4.2737	28.695497	0.001182	11.822910	4.005710	-0.094375
 896	4.4750e-01	4.2368	28.372849	0.000808	8.084041	2.738947	-0.064530
 897	4.4800e-01	4.1903	28.235723	0.000344	3.435718	1.164053	-0.027425
 898	4.4850e-01	4.1614	27.888877	0.000869	8.690344	2.944368	-0.069369
 899	4.4900e-01	4.1181	27.658990	0.000576	5.759879	1.951500	-0.045977
 900	4.4950e-01	4.0683	27.372640	0.000717	7.174587	2.430816	-0.057270
 901	4.5000e-01	4.0346	27.227449	0.000364	3.637819	1.232526	-0.029038
 902	4.5050e-01	4.0010	26.759609	0.001172	11.721860	3.971474	-0.093568
 903	4.5100e-01	3.9528	26.461160	0.000748	7.477738	2.533526	-0.059690
 904	4.5150e-01	3.9127	26.041718	0.001051	10.509254	3.560631	-0.083888
 905	4.5200e-01	3.8726	25.719070	0.000808	8.084041	2.738947	-0.064530
 906	4.5250e-01	3.8470	25.460951	0.000647	6.467233	2.191158	-0.051624
 907	4.5300e-01	3.8004	25.198800	0.000657	6.568283	2.225395	-0.052430
 908	4.5350e-01	3.7523	25.001178	0.000495	4.951475	1.677605	-0.039524
 909	4.5400e-01	3.7106	24.726928	0.000687	6.871435	2.328105	-0.054850
 910	4.5450e-01	3.6673	24.468809	0.000647	6.467233	2.191158	-0.051624
 911	4.5500e-01	3.6416	23.940473	0.001324	13.237617	4.485026	-0.105667
 912	4.5550e-01	3.5999	23.637991	0.000758	7.578789	2.567763	-0.060496
 913	4.5600e-01	3.5582	23.379873	0.000647	6.467233	2.191158	-0.051624
 914	4.5650e-01	3.5229	23.008828	0.000930	9.296647	3.149789	-0.074209
 915	4.5700e-01	3.4780	22.960430	0.000121	1.212606	0.410842	-0.009679
 916	4.5750e-01	3.4331	22.456293	0.001263	12.631314	4.279605	-0.100827
 917	4.5800e-01	3.3994	22.327234	0.000323	3.233616	1.095579	-0.025812
 918	4.5850e-01	3.3593	21.948123	0.000950	9.498748	3.218263	-0.075822
 919	4.5900e-01	3.3143	21.621442	0.000819	8.185092	2.773184	-0.065336
 920	4.5950e-01	3.2726	21.379456	0.000606	6.063031	2.054210	-0.048397
 921	4.6000e-01	3.2341	20.879351	0.001253	12.530264	4.245368	-0.100021
 922	4.6050e-01	3.1924	20.613167	0.000667	6.669334	2.259632	-0.053237
 923	4.6100e-01	3.1571	20.415545	0.000495	4.951475	1.677605	-0.039524
 924	4.6150e-01	3.1106	20.113063	0.000758	7.578789	2.567763	-0.060496
 925	4.6200e-01	3.0785	19.883176	0.000576	5.759879	1.951500	-0.045977
 926	4.6250e-01	3.0336	19.528263	0.000889	8.892445	3.012842	-0.070983
 927	4.6300e-01	2.9855	19.177384	0.000879	8.791395	2.978605	-0.070176
 928	4.6350e-01	2.9582	18.943464	0.000586	5.860930	1.985737	-0.046784
 929	4.6400e-01	2.9213	18.419161	0.001314	13.136567	4.450789	-0.104861
 930	4.6450e-01	2.8860	18.197341	0.000556	5.557778	1.883026	-0.044364
 931	4.6500e-01	2.8299	17.991653	0.000515	5.153576	1.746079	-0.041138
 932	4.6550e-01	2.7994	17.592376	0.001000	10.004001	3.389447	-0.079855
 933	4.6600e-01	2.7625	17.455251	0.000344	3.435718	1.164053	-0.027425
 934	4.6650e-01	2.7160	17.116470	0.000849	8.488243	2.875895	-0.067756
 935	4.6700e-01	2.6759	16.737359	0.000950	9.498748	3.218263	-0.075822
 936	4.6750e-01	2.6325	16.438910	0.000748	7.477738	2.533526	-0.059690
 937	4.6800e-01	2.5924	16.301785	0.000344	3.435718	1.164053	-0.027425
 938	4.6850e-01	2.5588	15.825879	0.001192	11.923961	4.039947	-0.095181
 939	4.6900e-01	2.5170	15.483066	0.000859	8.589294	2.910132	-0.068563
 940	4.6950e-01	2.4737	15.103954	0.000950	9.498748	3.218263	-0.075822
 941	4.7000e-01	2.4368	14.607883	0.001243	12.429213	4.211131	-0.099214
 942	4.7050e-01	2.3967	14.377997	0.000576	5.759879	1.951500	-0.045977
 943	4.7100e-01	2.3502	14.341699	0.000091	0.909455	0.308132	-0.007260
 944	4.7150e-01	2.3213	14.071481	0.000677	6.770385	2.293868	-0.054044
 945	4.7200e-01	2.2844	13.700436	0.000930	9.296647	3.149789	-0.074209
 946	4.7250e-01	2.2315	13.377788	0.000808	8.084041	2.738947	-0.064530
 947	4.7300e-01	2.1882	12.970445	0.001021	10.206102	3.457921	-0.081469
 948	4.7350e-01	2.1561	12.792989	0.000445	4.446223	1.506421	-0.035491
 949	4.7400e-01	2.1208	12.405811	0.000970	9.700849	3.286737	-0.077435
 950	4.7450e-01	2.0775	12.123494	0.000707	7.073536	2.396579	-0.056463
 951	4.7500e-01	2.0358	11.889575	0.000586	5.860930	1.985737	-0.046784
 952	4.7550e-01	1.9989	11.518530	0.000930	9.296647	3.149789	-0.074209
 953	4.7600e-01	1.9507	11.449967	0.000172	1.717859	0.582026	-0.013713
 954	4.7650e-01	1.9138	11.268477	0.000455	4.547273	1.540658	-0.036298
 955	4.7700e-01	1.8705	10.659480	0.001526	15.258628	5.169763	-0.121800
 956	4.7750e-01	1.8385	10.336832	0.000808	8.084041	2.738947	-0.064530
 957	4.7800e-01	1.7871	10.231971	0.000263	2.627313	0.890158	-0.020972
 958	4.7850e-01	1.7534	9.844794	0.000970	9.700849	3.286737	-0.077435
 959	4.7900e-01	1.7149	9.393087	0.001132	11.317658	3.834526	-0.090341
 960	4.7950e-01	1.6732	9.134968	0.000647	6.467233	2.191158	-0.051624
 961	4.8000e-01	1.6331	8.759890	0.000940	9.397698	3.184026	-0.075016
 962	4.8050e-01	1.5930	8.348514	0.001031	10.307153	3.492158	-0.082275
 963	4.8100e-01	1.5497	8.033932	0.000788	7.881940	2.670474	-0.062916
 964	4.8150e-01	1.5128	8.098462	-0.000162	-1.616808	-0.547789	0.012906
 965	4.8200e-01	1.4791	7.662887	0.001091	10.913456	3.697579	-0.087115
 966	4.8250e-01	1.4390	7.356372	0.000768	7.679839	2.602000	-0.061303
 967	4.8300e-01	1.3941	7.061956	0.000738	7.376688	2.499289	-0.058883
 968	4.8350e-01	1.3556	6.711076	0.000879	8.791395	2.978605	-0.070176
 969	4.8400e-01	1.3123	6.388428	0.000808	8.084041	2.738947	-0.064530
 970	4.8450e-01	1.2818	5.989151	0.001000	10.004001	3.389447	-0.079855
 971	4.8500e-01	1.2369	5.581808	0.001021	10.206102	3.457921	-0.081469
 972	4.8550e-01	1.1919	5.327723	0.000637	6.366182	2.156921	-0.050817
 973	4.8600e-01	1.1567	5.126068	0.000505	5.052526	1.711842	-0.040331
 974	4.8650e-01	1.1198	4.839718	0.000717	7.174587	2.430816	-0.057270
 975	4.8700e-01	1.0716	4.670328	0.000424	4.244122	1.437947	-0.033878
 976	4.8750e-01	1.0203	4.472706	0.000495	4.951475	1.677605	-0.039524
 977	4.8800e-01	0.9930	3.936304	0.001344	13.439718	4.553500	-0.107280
 978	4.8850e-01	0.9577	3.440233	0.001243	12.429213	4.211131	-0.099214
 979	4.8900e-01	0.9176	3.133718	0.000768	7.679839	2.602000	-0.061303
 980	4.8950e-01	0.8727	3.049023	0.000212	2.122061	0.718974	-0.016939
 981	4.9000e-01	0.8422	2.690077	0.000899	8.993496	3.047079	-0.071789
 982	4.9050e-01	0.7861	2.202072	0.001223	12.227112	4.142658	-0.097601
 983	4.9100e-01	0.7572	2.028649	0.000435	4.345172	1.472184	-0.034685
 984	4.9150e-01	0.7107	1.786663	0.000606	6.063031	2.054210	-0.048397
 985	4.9200e-01	0.6802	1.516445	0.000677	6.770385	2.293868	-0.054044
 986	4.9250e-01	0.6289	1.121201	0.000990	9.902950	3.355210	-0.079049
 987	4.9300e-01	0.5952	0.955844	0.000414	4.143071	1.403710	-0.033071
 988	4.9350e-01	0.5567	0.653362	0.000758	7.578789	2.567763	-0.060496
 989	4.9400e-01	0.5182	0.112927	0.001354	13.540769	4.587737	-0.108087
 990	4.9450e-01	0.4765	-0.153258	0.000667	6.669334	2.259632	-0.053237
 991	4.9500e-01	0.4396	-0.326681	0.000435	4.345172	1.472184	-0.034685
 992	4.9550e-01	0.3962	-0.592865	0.000667	6.669334	2.259632	-0.053237
 993	4.9600e-01	0.3674	-1.004242	0.001031	10.307153	3.492158	-0.082275
 994	4.9650e-01	0.3128	-1.250261	0.000616	6.164081	2.088447	-0.049204
 995	4.9700e-01	0.2759	-1.625339	0.000940	9.397698	3.184026	-0.075016
 996	4.9750e-01	0.2326	-2.056880	0.001081	10.812405	3.663342	-0.086308
 997	4.9800e-01	0.1973	-2.214171	0.000394	3.940970	1.335237	-0.031458
 998	4.9850e-01	0.1620	-2.484389	0.000677	6.770385	2.293868	-0.054044
 999	4.9900e-01	0.1155	-2.734441	0.000627	6.265132	2.122684	-0.050010
1000	4.9950e-01	0.0754	-3.291008	0.001394	13.944971	4.724684	-0.111314
1001	5.0000e-01	0.0337	-3.597524	0.000768	7.679839	2.602000	-0.061303
1002	5.0050e-01	0.0016	-3.891940	0.000738	7.376688	2.499289	-0.058883
1003	5.0100e-01	-0.0401	-3.960503	0.000172	1.717859	0.582026	-0.013713
1004	5.0150e-01	-0.0722	-4.331548	0.000930	9.296647	3.149789	-0.074209
1005	5.0200e-01	-0.1187	-4.629997	0.000748	7.477738	2.533526	-0.059690
1006	5.0250e-01	-0.1524	-4.892149	0.000657	6.568283	2.225395	-0.052430
1007	5.0300e-01	-0.1973	-5.331756	0.001101	11.014506	3.731816	-0.087922
1008	5.0350e-01	-0.2390	-5.489047	0.000394	3.940970	1.335237	-0.031458
1009	5.0400e-01	-0.2791	-5.626173	0.000344	3.435718	1.164053	-0.027425
1010	5.0450e-01	-0.3192	-5.948820	0.000808	8.084041	2.738947	-0.064530
1011	5.0500e-01	-0.3529	-6.404561	0.001142	11.418708	3.868763	-0.091148
1012	5.0550e-01	-0.4011	-6.799804	0.000990	9.902950	3.355210	-0.079049
1013	5.0600e-01	-0.4364	-6.993393	0.000485	4.850425	1.643368	-0.038718
1014	5.0650e-01	-0.4749	-7.279743	0.000717	7.174587	2.430816	-0.057270
1015	5.0700e-01	-0.5118	-7.662887	0.000960	9.599799	3.252500	-0.076629
1016	5.0750e-01	-0.5503	-8.090396	0.001071	10.711355	3.629105	-0.085502
1017	5.0800e-01	-0.6032	-8.288018	0.000495	4.951475	1.677605	-0.039524
1018	5.0850e-01	-0.6353	-8.562268	0.000687	6.871435	2.328105	-0.054850
1019	5.0900e-01	-0.6818	-8.913148	0.000879	8.791395	2.978605	-0.070176
1020	5.0950e-01	-0.7075	-9.126902	0.000536	5.355677	1.814553	-0.042751
1021	5.1000e-01	-0.7524	-9.457616	0.000829	8.286142	2.807421	-0.066143
1022	5.1050e-01	-0.7957	-9.816562	0.000899	8.993496	3.047079	-0.071789
1023	5.1100e-01	-0.8438	-10.123077	0.000768	7.679839	2.602000	-0.061303
1024	5.1150e-01	-0.8775	-10.510255	0.000970	9.700849	3.286737	-0.077435
1025	5.1200e-01	-0.9144	-10.627215	0.000293	2.930465	0.992868	-0.023392
1026	5.1250e-01	-0.9706	-11.082955	0.001142	11.418708	3.868763	-0.091148
1027	5.1300e-01	-1.0091	-11.264444	0.000455	4.547273	1.540658	-0.036298
1028	5.1350e-01	-1.0395	-11.635489	0.000930	9.296647	3.149789	-0.074209
1029	5.1400e-01	-1.0845	-12.179958	0.001364	13.641820	4.621974	-0.108894
1030	5.1450e-01	-1.1214	-12.377580	0.000495	4.951475	1.677605	-0.039524
1031	5.1500e-01	-1.1631	-12.454208	0.000192	1.919960	0.650500	-0.015326
1032	5.1550e-01	-1.1887	-12.954313	0.001253	12.530264	4.245368	-0.100021
1033	5.1600e-01	-1.2369	-13.180166	0.000566	5.658829	1.917263	-0.045171
1034	5.1650e-01	-1.2786	-13.353589	0.000435	4.345172	1.472184	-0.034685
1035	5.1700e-01	-1.3171	-13.752866	0.001000	10.004001	3.389447	-0.079855
1036	5.1750e-01	-1.3588	-14.006951	0.000637	6.366182	2.156921	-0.050817
1037	5.1800e-01	-1.3957	-14.301368	0.000738	7.376688	2.499289	-0.058883
1038	5.1850e-01	-1.4342	-14.611916	0.000778	7.780890	2.636237	-0.062110
1039	5.1900e-01	-1.4759	-14.825670	0.000536	5.355677	1.814553	-0.042751
1040	5.1950e-01	-1.5160	-15.317708	0.001233	12.328163	4.176895	-0.098408
1041	5.2000e-01	-1.5561	-15.483066	0.000414	4.143071	1.403710	-0.033071
1042	5.2050e-01	-1.5898	-15.918640	0.001091	10.913456	3.697579	-0.087115
1043	5.2100e-01	-1.6475	-16.281619	0.000909	9.094546	3.081316	-0.072596
1044	5.2150e-01	-1.6764	-16.668797	0.000970	9.700849	3.286737	-0.077435
1045	5.2200e-01	-1.7181	-16.745425	0.000192	1.919960	0.650500	-0.015326
1046	5.2250e-01	-1.7534	-17.152768	0.001021	10.206102	3.457921	-0.081469
1047	5.2300e-01	-1.7983	-17.366523	0.000536	5.355677	1.814553	-0.042751
1048	5.2350e-01	-1.8368	-17.685137	0.000798	7.982991	2.704710	-0.063723
1049	5.2400e-01	-1.8802	-17.983587	0.000748	7.477738	2.533526	-0.059690
1050	5.2450e-01	-1.9171	-18.116679	0.000333	3.334667	1.129816	-0.026618
1051	5.2500e-01	-1.9540	-18.483691	0.000920	9.195597	3.115553	-0.073402
1052	5.2550e-01	-2.0069	-18.822471	0.000849	8.488243	2.875895	-0.067756
1053	5.2600e-01	-2.0374	-19.024126	0.000505	5.052526	1.711842	-0.040331
1054	5.2650e-01	-2.0743	-19.245947	0.000556	5.557778	1.883026	-0.044364
1055	5.2700e-01	-2.1144	-19.899309	0.001637	16.370183	5.546368	-0.130672
1056	5.2750e-01	-2.1593	-20.129195	0.000576	5.759879	1.951500	-0.045977
1057	5.2800e-01	-2.1978	-20.314718	0.000465	4.648324	1.574895	-0.037105
1058	5.2850e-01	-2.2331	-20.552670	0.000596	5.961980	2.019974	-0.047591
1059	5.2900e-01	-2.2716	-20.960013	0.001021	10.206102	3.457921	-0.081469
1060	5.2950e-01	-2.3197	-21.129404	0.000424	4.244122	1.437947	-0.033878
1061	5.3000e-01	-2.3550	-21.516581	0.000970	9.700849	3.286737	-0.077435
1062	5.3050e-01	-2.3951	-21.948123	0.001081	10.812405	3.663342	-0.086308
1063	5.3100e-01	-2.4432	-22.238506	0.000728	7.275637	2.465053	-0.058077
1064	5.3150e-01	-2.4834	-22.456293	0.000546	5.456728	1.848789	-0.043557
1065	5.3200e-01	-2.5235	-22.750709	0.000738	7.376688	2.499289	-0.058883
1066	5.3250e-01	-2.5652	-23.105622	0.000889	8.892445	3.012842	-0.070983
1067	5.3300e-01	-2.5908	-23.367773	0.000657	6.568283	2.225395	-0.052430
1068	5.3350e-01	-2.6422	-23.593627	0.000566	5.658829	1.917263	-0.045171
1069	5.3400e-01	-2.6823	-23.843679	0.000627	6.265132	2.122684	-0.050010
1070	5.3450e-01	-2.7128	-24.057433	0.000536	5.355677	1.814553	-0.042751
1071	5.3500e-01	-2.7641	-24.468809	0.001031	10.307153	3.492158	-0.082275
1072	5.3550e-01	-2.7978	-24.730961	0.000657	6.568283	2.225395	-0.052430
1073	5.3600e-01	-2.8411	-25.166535	0.001091	10.913456	3.697579	-0.087115
1074	5.3650e-01	-2.8700	-25.573878	0.001021	10.206102	3.457921	-0.081469
1075	5.3700e-01	-2.9181	-25.694871	0.000303	3.031515	1.027105	-0.024199
1076	5.3750e-01	-2.9598	-25.819897	0.000313	3.132566	1.061342	-0.025005
1077	5.3800e-01	-3.0047	-26.259505	0.001101	11.014506	3.731816	-0.087922
1078	5.3850e-01	-3.0400	-26.586186	0.000819	8.185092	2.773184	-0.065336
1079	5.3900e-01	-3.0865	-26.880602	0.000738	7.376688	2.499289	-0.058883
1080	5.3950e-01	-3.1202	-27.203250	0.000808	8.084041	2.738947	-0.064530
1081	5.4000e-01	-3.1587	-27.485567	0.000707	7.073536	2.396579	-0.056463
1082	5.4050e-01	-3.2037	-27.727553	0.000606	6.063031	2.054210	-0.048397
1083	5.4100e-01	-3.2389	-28.017936	0.000728	7.275637	2.465053	-0.058077
1084	5.4150e-01	-3.2855	-28.138929	0.000303	3.031515	1.027105	-0.024199
1085	5.4200e-01	-3.3176	-28.558371	0.001051	10.509254	3.560631	-0.083888
1086	5.4250e-01	-3.3464	-28.760026	0.000505	5.052526	1.711842	-0.040331
1087	5.4300e-01	-3.3994	-29.405322	0.001617	16.168082	5.477895	-0.129059
1088	5.4350e-01	-3.4315	-29.756201	0.000879	8.791395	2.978605	-0.070176
1089	5.4400e-01	-3.4764	-29.953823	0.000495	4.951475	1.677605	-0.039524
1090	5.4450e-01	-3.5101	-30.119180	0.000414	4.143071	1.403710	-0.033071
1091	5.4500e-01	-3.5646	-30.139346	0.000051	0.505253	0.171184	-0.004033
1092	5.4550e-01	-3.6063	-30.429729	0.000728	7.275637	2.465053	-0.058077
1093	5.4600e-01	-3.6352	-30.917734	0.001223	12.227112	4.142658	-0.097601
1094	5.4650e-01	-3.6849	-31.191985	0.000687	6.871435	2.328105	-0.054850
1095	5.4700e-01	-3.7090	-31.587228	0.000990	9.902950	3.355210	-0.079049
1096	5.4750e-01	-3.7507	-31.921975	0.000839	8.387193	2.841658	-0.066949
1097	5.4800e-01	-3.8101	-32.188160	0.000667	6.669334	2.259632	-0.053237
1098	5.4850e-01	-3.8277	-32.434179	0.000616	6.164081	2.088447	-0.049204
1099	5.4900e-01	-3.8806	-32.764893	0.000829	8.286142	2.807421	-0.066143
1100	5.4950e-01	-3.9191	-33.208534	0.001112	11.115557	3.766053	-0.088728
1101	5.5000e-01	-3.9625	-33.285163	0.000192	1.919960	0.650500	-0.015326
1102	5.5050e-01	-3.9913	-33.793333	0.001273	12.732365	4.313842	-0.101634
1103	5.5100e-01	-4.0314	-33.982889	0.000475	4.749374	1.609132	-0.037911
1104	5.5150e-01	-4.0731	-34.172444	0.000475	4.749374	1.609132	-0.037911
1105	5.5200e-01	-4.1181	-34.325702	0.000384	3.839920	1.301000	-0.030652
1106	5.5250e-01	-4.1502	-34.712880	0.000970	9.700849	3.286737	-0.077435
1107	5.5300e-01	-4.2111	-35.007296	0.000738	7.376688	2.499289	-0.058883
1108	5.5350e-01	-4.2336	-35.160554	0.000384	3.839920	1.301000	-0.030652
1109	5.5400e-01	-4.2817	-35.668724	0.001273	12.732365	4.313842	-0.101634
1110	5.5450e-01	-4.3234	-35.769552	0.000253	2.526263	0.855921	-0.020165
1111	5.5500e-01	-4.3491	-36.249490	0.001203	12.025011	4.074184	-0.095988
1112	5.5550e-01	-4.4036	-36.382582	0.000333	3.334667	1.129816	-0.026618
1113	5.5600e-01	-4.4469	-36.584237	0.000505	5.052526	1.711842	-0.040331
1114	5.5650e-01	-4.4838	-36.894786	0.000778	7.780890	2.636237	-0.062110
1115	5.5700e-01	-4.5127	-37.140805	0.000616	6.164081	2.088447	-0.049204
1116	5.5750e-01	-4.5512	-37.600578	0.001152	11.519759	3.903000	-0.091955
1117	5.5800e-01	-4.5961	-37.870796	0.000677	6.770385	2.293868	-0.054044
1118	5.5850e-01	-4.6346	-38.278139	0.001021	10.206102	3.457921	-0.081469
1119	5.5900e-01	-4.6763	-38.286205	0.000020	0.202101	0.068474	-0.001613
1120	5.5950e-01	-4.7180	-38.600787	0.000788	7.881940	2.670474	-0.062916
1121	5.6000e-01	-4.7517	-39.088792	0.001223	12.227112	4.142658	-0.097601
1122	5.6050e-01	-4.7951	-39.399340	0.000778	7.780890	2.636237	-0.062110
1123	5.6100e-01	-4.8368	-39.500168	0.000253	2.526263	0.855921	-0.020165
1124	5.6150e-01	-4.8672	-39.746187	0.000616	6.164081	2.088447	-0.049204
1125	5.6200e-01	-4.9154	-40.072868	0.000819	8.185092	2.773184	-0.065336
1126	5.6250e-01	-4.9603	-40.355185	0.000707	7.073536	2.396579	-0.056463
1127	5.6300e-01	-4.9972	-40.564906	0.000525	5.254627	1.780316	-0.041944
1128	5.6350e-01	-5.0373	-41.032745	0.001172	11.721860	3.971474	-0.093568
1129	5.6400e-01	-5.0726	-41.177937	0.000364	3.637819	1.232526	-0.029038
1130	5.6450e-01	-5.1159	-41.524783	0.000869	8.690344	2.944368	-0.069369
1131	5.6500e-01	-5.1608	-41.976490	0.001132	11.317658	3.834526	-0.090341
1132	5.6550e-01	-5.1945	-42.242675	0.000667	6.669334	2.259632	-0.053237
1133	5.6600e-01	-5.2442	-42.351568	0.000273	2.728364	0.924395	-0.021779
1134	5.6650e-01	-5.2795	-42.706481	0.000889	8.892445	3.012842	-0.070983
1135	5.6700e-01	-5.3228	-42.835540	0.000323	3.233616	1.095579	-0.025812
1136	5.6750e-01	-5.3662	-42.912169	0.000192	1.919960	0.650500	-0.015326
1137	5.6800e-01	-5.4015	-43.202552	0.000728	7.275637	2.465053	-0.058077
1138	5.6850e-01	-5.4400	-43.730888	0.001324	13.237617	4.485026	-0.105667
1139	5.6900e-01	-5.4833	-43.984973	0.000637	6.366182	2.156921	-0.050817
1140	5.6950e-01	-5.5170	-44.186628	0.000505	5.052526	1.711842	-0.040331
1141	5.7000e-01	-5.5571	-44.702865	0.001293	12.934466	4.382316	-0.103247
1142	5.7050e-01	-5.6068	-44.815792	0.000283	2.829414	0.958632	-0.022585
1143	5.7100e-01	-5.6309	-45.033579	0.000546	5.456728	1.848789	-0.043557
1144	5.7150e-01	-5.6806	-45.444955	0.001031	10.307153	3.492158	-0.082275
1145	5.7200e-01	-5.7111	-45.682908	0.000596	5.961980	2.019974	-0.047591
1146	5.7250e-01	-5.7576	-46.017655	0.000839	8.387193	2.841658	-0.066949
1147	5.7300e-01	-5.7977	-46.126549	0.000273	2.728364	0.924395	-0.021779
1148	5.7350e-01	-5.8314	-46.699249	0.001435	14.349173	4.861631	-0.114540
1149	5.7400e-01	-5.8811	-46.779911	0.000202	2.021010	0.684737	-0.016132
1150	5.7450e-01	-5.9260	-47.086426	0.000768	7.679839	2.602000	-0.061303
1151	5.7500e-01	-5.9661	-47.243717	0.000394	3.940970	1.335237	-0.031458
1152	5.7550e-01	-5.9950	-47.413107	0.000424	4.244122	1.437947	-0.033878
1153	5.7600e-01	-6.0431	-47.804318	0.000980	9.801900	3.320974	-0.078242
1154	5.7650e-01	-6.0849	-48.114866	0.000778	7.780890	2.636237	-0.062110
1155	5.7700e-01	-6.1137	-48.542375	0.001071	10.711355	3.629105	-0.085502
1156	5.7750e-01	-6.1506	-48.619004	0.000192	1.919960	0.650500	-0.015326
1157	5.7800e-01	-6.1972	-48.901321	0.000707	7.073536	2.396579	-0.056463
1158	5.7850e-01	-6.2324	-49.207836	0.000768	7.679839	2.602000	-0.061303
1159	5.7900e-01	-6.2758	-49.703907	0.001243	12.429213	4.211131	-0.099214
1160	5.7950e-01	-6.3111	-49.957992	0.000637	6.366182	2.156921	-0.050817
1161	5.8000e-01	-6.3608	-49.949926	-0.000020	-0.202101	-0.068474	0.001613
1162	5.8050e-01	-6.3945	-50.349203	0.001000	10.004001	3.389447	-0.079855
1163	5.8100e-01	-6.4266	-51.184054	0.002092	20.917457	7.087026	-0.166970
1164	5.8150e-01	-6.4827	-51.022730	-0.000404	-4.042021	-1.369474	0.032265
1165	5.8200e-01	-6.5180	-51.099359	0.000192	1.919960	0.650500	-0.015326
1166	5.8250e-01	-6.5549	-51.337312	0.000596	5.961980	2.019974	-0.047591
1167	5.8300e-01	-6.5934	-51.615596	0.000697	6.972486	2.362342	-0.055657
1168	5.8350e-01	-6.6479	-51.889847	0.000687	6.871435	2.328105	-0.054850
1169	5.8400e-01	-6.6640	-52.168130	0.000697	6.972486	2.362342	-0.055657
1170	5.8450e-01	-6.7121	-52.498845	0.000829	8.286142	2.807421	-0.066143
1171	5.8500e-01	-6.7602	-52.635970	0.000344	3.435718	1.164053	-0.027425
1172	5.8550e-01	-6.7987	-52.781161	0.000364	3.637819	1.232526	-0.029038
1173	5.8600e-01	-6.8324	-53.196571	0.001041	10.408203	3.526395	-0.083082
1174	5.8650e-01	-6.8693	-53.583748	0.000970	9.700849	3.286737	-0.077435
1175	5.8700e-01	-6.9158	-54.168547	0.001465	14.652325	4.964342	-0.116960
1176	5.8750e-01	-6.9527	-54.305673	0.000344	3.435718	1.164053	-0.027425
1177	5.8800e-01	-6.9993	-54.438765	0.000333	3.334667	1.129816	-0.026618
1178	5.8850e-01	-7.0330	-54.608155	0.000424	4.244122	1.437947	-0.033878
1179	5.8900e-01	-7.0747	-54.825942	0.000546	5.456728	1.848789	-0.043557
1180	5.8950e-01	-7.1164	-55.051796	0.000566	5.658829	1.917263	-0.045171
1181	5.9000e-01	-7.1533	-55.289749	0.000596	5.961980	2.019974	-0.047591
1182	5.9050e-01	-7.1950	-55.789853	0.001253	12.530264	4.245368	-0.100021
1183	5.9100e-01	-7.2319	-56.023773	0.000586	5.860930	1.985737	-0.046784
1184	5.9150e-01	-7.2832	-56.181064	0.000394	3.940970	1.335237	-0.031458
1185	5.9200e-01	-7.3249	-56.439182	0.000647	6.467233	2.191158	-0.051624
1186	5.9250e-01	-7.3474	-56.790061	0.000879	8.791395	2.978605	-0.070176
1187	5.9300e-01	-7.3939	-57.044147	0.000637	6.366182	2.156921	-0.050817
1188	5.9350e-01	-7.4324	-57.407126	0.000909	9.094546	3.081316	-0.072596
1189	5.9400e-01	-7.4725	-57.669277	0.000657	6.568283	2.225395	-0.052430
1190	5.9450e-01	-7.5158	-57.927395	0.000647	6.467233	2.191158	-0.051624
1191	5.9500e-01	-7.5559	-58.197613	0.000677	6.770385	2.293868	-0.054044
1192	5.9550e-01	-7.5960	-58.435566	0.000596	5.961980	2.019974	-0.047591
1193	5.9600e-01	-7.6313	-58.613022	0.000445	4.446223	1.506421	-0.035491
1194	5.9650e-01	-7.6827	-58.850975	0.000596	5.961980	2.019974	-0.047591
1195	5.9700e-01	-7.7132	-59.096994	0.000616	6.164081	2.088447	-0.049204
1196	5.9750e-01	-7.7629	-59.383344	0.000717	7.174587	2.430816	-0.057270
1197	5.9800e-01	-7.7934	-59.754389	0.000930	9.296647	3.149789	-0.074209
1198	5.9850e-01	-7.8399	-59.960077	0.000515	5.153576	1.746079	-0.041138
1199	5.9900e-01	-7.8736	-60.230295	0.000677	6.770385	2.293868	-0.054044
1200	5.9950e-01	-7.9153	-60.544876	0.000788	7.881940	2.670474	-0.062916
1201	6.0000e-01	-7.9522	-60.919954	0.000940	9.397698	3.184026	-0.075016
1202	6.0050e-01	-7.9987	-60.992550	0.000182	1.818909	0.616263	-0.014519
1203	6.0100e-01	-8.0324	-61.367628	0.000940	9.397698	3.184026	-0.075016
1204	6.0150e-01	-8.0773	-61.641879	0.000687	6.871435	2.328105	-0.054850
1205	6.0200e-01	-8.1222	-61.649945	0.000020	0.202101	0.068474	-0.001613
1206	6.0250e-01	-8.1607	-62.049222	0.001000	10.004001	3.389447	-0.079855
1207	6.0300e-01	-8.1976	-62.262976	0.000536	5.355677	1.814553	-0.042751
1208	6.0350e-01	-8.2233	-62.597723	0.000839	8.387193	2.841658	-0.066949
1209	6.0400e-01	-8.2794	-62.742915	0.000364	3.637819	1.232526	-0.029038
1210	6.0450e-01	-8.3179	-63.013133	0.000677	6.770385	2.293868	-0.054044
1211	6.0500e-01	-8.3548	-63.319648	0.000768	7.679839	2.602000	-0.061303
1212	6.0550e-01	-8.3933	-63.529369	0.000525	5.254627	1.780316	-0.041944
1213	6.0600e-01	-8.4383	-63.759256	0.000576	5.759879	1.951500	-0.045977
1214	6.0650e-01	-8.4768	-63.876216	0.000293	2.930465	0.992868	-0.023392
1215	6.0700e-01	-8.5105	-64.255327	0.000950	9.498748	3.218263	-0.075822
1216	6.0750e-01	-8.5474	-64.541677	0.000717	7.174587	2.430816	-0.057270
1217	6.0800e-01	-8.5939	-64.642504	0.000253	2.526263	0.855921	-0.020165
1218	6.0850e-01	-8.6292	-65.166807	0.001314	13.136567	4.450789	-0.104861
1219	6.0900e-01	-8.6741	-65.461223	0.000738	7.376688	2.499289	-0.058883
1220	6.0950e-01	-8.7158	-65.824202	0.000909	9.094546	3.081316	-0.072596
1221	6.1000e-01	-8.7543	-65.937129	0.000283	2.829414	0.958632	-0.022585
1222	6.1050e-01	-8.8008	-66.041990	0.000263	2.627313	0.890158	-0.020972
1223	6.1100e-01	-8.8345	-66.372704	0.000829	8.286142	2.807421	-0.066143
1224	6.1150e-01	-8.8810	-66.606623	0.000586	5.860930	1.985737	-0.046784
1225	6.1200e-01	-8.9211	-66.711484	0.000263	2.627313	0.890158	-0.020972
1226	6.1250e-01	-8.9532	-66.957503	0.000616	6.164081	2.088447	-0.049204
1227	6.1300e-01	-8.9949	-67.360813	0.001011	10.105052	3.423684	-0.080662
1228	6.1350e-01	-9.0334	-67.836718	0.001192	11.923961	4.039947	-0.095181
1229	6.1400e-01	-9.0735	-68.018208	0.000455	4.547273	1.540658	-0.036298
1230	6.1450e-01	-9.1136	-68.231962	0.000536	5.355677	1.814553	-0.042751
1231	6.1500e-01	-9.1538	-68.369088	0.000344	3.435718	1.164053	-0.027425
1232	6.1550e-01	-9.1955	-68.594941	0.000566	5.658829	1.917263	-0.045171
1233	6.1600e-01	-9.2308	-68.816761	0.000556	5.557778	1.883026	-0.044364
1234	6.1650e-01	-9.2773	-69.010350	0.000485	4.850425	1.643368	-0.038718
1235	6.1700e-01	-9.3126	-69.248303	0.000596	5.961980	2.019974	-0.047591
1236	6.1750e-01	-9.3559	-69.566918	0.000798	7.982991	2.704710	-0.063723
1237	6.1800e-01	-9.3960	-69.941996	0.000940	9.397698	3.184026	-0.075016
1238	6.1850e-01	-9.4281	-70.224313	0.000707	7.073536	2.396579	-0.056463
1239	6.1900e-01	-9.4778	-70.333207	0.000273	2.728364	0.924395	-0.021779
1240	6.1950e-01	-9.5083	-70.748616	0.001041	10.408203	3.526395	-0.083082
1241	6.2000e-01	-9.5644	-70.825245	0.000192	1.919960	0.650500	-0.015326
1242	6.2050e-01	-9.5917	-71.212422	0.000970	9.700849	3.286737	-0.077435
1243	6.2100e-01	-9.6430	-71.567335	0.000889	8.892445	3.012842	-0.070983
1244	6.2150e-01	-9.6783	-71.611699	0.000111	1.111556	0.376605	-0.008873
1245	6.2200e-01	-9.7233	-71.821420	0.000525	5.254627	1.780316	-0.041944
1246	6.2250e-01	-9.7585	-72.341690	0.001304	13.035516	4.416553	-0.104054
1247	6.2300e-01	-9.7987	-72.349756	0.000020	0.202101	0.068474	-0.001613
1248	6.2350e-01	-9.8323	-72.619973	0.000677	6.770385	2.293868	-0.054044
1249	6.2400e-01	-9.8724	-72.833728	0.000536	5.355677	1.814553	-0.042751
1250	6.2450e-01	-9.9158	-73.208806	0.000940	9.397698	3.184026	-0.075016
1251	6.2500e-01	-9.9543	-73.418527	0.000525	5.254627	1.780316	-0.041944
1252	6.2550e-01	-9.9928	-73.527421	0.000273	2.728364	0.924395	-0.021779
1253	6.2600e-01	-10.0329	-73.870234	0.000859	8.589294	2.910132	-0.068563
1254	6.2650e-01	-10.0778	-74.132385	0.000657	6.568283	2.225395	-0.052430
1255	6.2700e-01	-10.1131	-74.180783	0.000121	1.212606	0.410842	-0.009679
1256	6.2750e-01	-10.1548	-74.503430	0.000808	8.084041	2.738947	-0.064530
1257	6.2800e-01	-10.2029	-74.842211	0.000849	8.488243	2.875895	-0.067756
1258	6.2850e-01	-10.2366	-75.116461	0.000687	6.871435	2.328105	-0.054850
1259	6.2900e-01	-10.2767	-75.314083	0.000495	4.951475	1.677605	-0.039524
1260	6.2950e-01	-10.3200	-75.560102	0.000616	6.164081	2.088447	-0.049204
1261	6.3000e-01	-10.3505	-75.814188	0.000637	6.366182	2.156921	-0.050817
1262	6.3050e-01	-10.4018	-76.048107	0.000586	5.860930	1.985737	-0.046784
1263	6.3100e-01	-10.4355	-76.431252	0.000960	9.599799	3.252500	-0.076629
1264	6.3150e-01	-10.4772	-76.636940	0.000515	5.153576	1.746079	-0.041138
1265	6.3200e-01	-10.5174	-76.895058	0.000647	6.467233	2.191158	-0.051624
1266	6.3250e-01	-10.5526	-76.987819	0.000232	2.324162	0.787447	-0.018552
1267	6.3300e-01	-10.5944	-77.185441	0.000495	4.951475	1.677605	-0.039524
1268	6.3350e-01	-10.6361	-77.439526	0.000637	6.366182	2.156921	-0.050817
1269	6.3400e-01	-10.6778	-77.883167	0.001112	11.115557	3.766053	-0.088728
1270	6.3450e-01	-10.7307	-78.072723	0.000475	4.749374	1.609132	-0.037911
1271	6.3500e-01	-10.7516	-78.189683	0.000293	2.930465	0.992868	-0.023392
1272	6.3550e-01	-10.8061	-78.346973	0.000394	3.940970	1.335237	-0.031458
1273	6.3600e-01	-10.8302	-78.661555	0.000788	7.881940	2.670474	-0.062916
1274	6.3650e-01	-10.8783	-79.113262	0.001132	11.317658	3.834526	-0.090341
1275	6.3700e-01	-10.9184	-79.363314	0.000627	6.265132	2.122684	-0.050010
1276	6.3750e-01	-10.9489	-79.581102	0.000546	5.456728	1.848789	-0.043557
1277	6.3800e-01	-10.9954	-79.597234	0.000040	0.404202	0.136947	-0.003226
1278	6.3850e-01	-11.0355	-79.863419	0.000667	6.669334	2.259632	-0.053237
1279	6.3900e-01	-11.0708	-80.226397	0.000909	9.094546	3.081316	-0.072596
1280	6.3950e-01	-11.1205	-80.375622	0.000374	3.738869	1.266763	-0.029845
1281	6.4000e-01	-11.1510	-80.694237	0.000798	7.982991	2.704710	-0.063723
1282	6.4050e-01	-11.1975	-81.024951	0.000829	8.286142	2.807421	-0.066143
1283	6.4100e-01	-11.2360	-81.210473	0.000465	4.648324	1.574895	-0.037105
1284	6.4150e-01	-11.2729	-81.363731	0.000384	3.839920	1.301000	-0.030652
1285	6.4200e-01	-11.3227	-81.621850	0.000647	6.467233	2.191158	-0.051624
1286	6.4250e-01	-11.3467	-81.972729	0.000879	8.791395	2.978605	-0.070176
1287	6.4300e-01	-11.3997	-82.130020	0.000394	3.940970	1.335237	-0.031458
1288	6.4350e-01	-11.4398	-82.372006	0.000606	6.063031	2.054210	-0.048397
1289	6.4400e-01	-11.4735	-82.593826	0.000556	5.557778	1.883026	-0.044364
1290	6.4450e-01	-11.5184	-82.771283	0.000445	4.446223	1.506421	-0.035491
1291	6.4500e-01	-11.5569	-83.150394	0.000950	9.498748	3.218263	-0.075822
1292	6.4550e-01	-11.5970	-83.323817	0.000435	4.345172	1.472184	-0.034685
1293	6.4600e-01	-11.6467	-83.456909	0.000333	3.334667	1.129816	-0.026618
1294	6.4650e-01	-11.6772	-83.819888	0.000909	9.094546	3.081316	-0.072596
1295	6.4700e-01	-11.7109	-84.017510	0.000495	4.951475	1.677605	-0.039524
1296	6.4750e-01	-11.7542	-84.251430	0.000586	5.860930	1.985737	-0.046784
1297	6.4800e-01	-11.7959	-84.307893	0.000141	1.414707	0.479316	-0.011293
1298	6.4850e-01	-11.8392	-84.646673	0.000849	8.488243	2.875895	-0.067756
1299	6.4900e-01	-11.8729	-84.973354	0.000819	8.185092	2.773184	-0.065336
1300	6.4950e-01	-11.9114	-85.364565	0.000980	9.801900	3.320974	-0.078242
1301	6.5000e-01	-11.9499	-85.449260	0.000212	2.122061	0.718974	-0.016939
1302	6.5050e-01	-11.9916	-85.763842	0.000788	7.881940	2.670474	-0.062916
1303	6.5100e-01	-12.0334	-85.961464	0.000495	4.951475	1.677605	-0.039524
1304	6.5150e-01	-12.0719	-86.066324	0.000263	2.627313	0.890158	-0.020972
1305	6.5200e-01	-12.1087	-86.397038	0.000829	8.286142	2.807421	-0.066143
1306	6.5250e-01	-12.1585	-86.792282	0.000990	9.902950	3.355210	-0.079049
1307	6.5300e-01	-12.2066	-86.776150	-0.000040	-0.404202	-0.136947	0.003226
1308	6.5350e-01	-12.2387	-87.155261	0.000950	9.498748	3.218263	-0.075822
1309	6.5400e-01	-12.2724	-87.437578	0.000707	7.073536	2.396579	-0.056463
1310	6.5450e-01	-12.3173	-87.663431	0.000566	5.658829	1.917263	-0.045171
1311	6.5500e-01	-12.3542	-87.857020	0.000485	4.850425	1.643368	-0.038718
1312	6.5550e-01	-12.3927	-87.941715	0.000212	2.122061	0.718974	-0.016939
1313	6.5600e-01	-12.4376	-88.232098	0.000728	7.275637	2.465053	-0.058077
1314	6.5650e-01	-12.4761	-88.349058	0.000293	2.930465	0.992868	-0.023392
1315	6.5700e-01	-12.5226	-88.345025	-0.000010	-0.101051	-0.034237	0.000807
1316	6.5750e-01	-12.5531	-88.703971	0.000899	8.993496	3.047079	-0.071789
1317	6.5800e-01	-12.5980	-89.018552	0.000788	7.881940	2.670474	-0.062916
1318	6.5850e-01	-12.6430	-89.268604	0.000627	6.265132	2.122684	-0.050010
1319	6.5900e-01	-12.6718	-89.595285	0.000819	8.185092	2.773184	-0.065336
1320	6.5950e-01	-12.7184	-89.538822	-0.000141	-1.414707	-0.479316	0.011293
1321	6.6000e-01	-12.7553	-90.006662	0.001172	11.721860	3.971474	-0.093568
1322	6.6050e-01	-12.7889	-90.409971	0.001011	10.105052	3.423684	-0.080662
1323	6.6100e-01	-12.8371	-90.607593	0.000495	4.951475	1.677605	-0.039524
1324	6.6150e-01	-12.8740	-91.148028	0.001354	13.540769	4.587737	-0.108087
1325	6.6200e-01	-12.9221	-91.083499	-0.000162	-1.616808	-0.547789	0.012906
1326	6.6250e-01	-12.9542	-91.196426	0.000283	2.829414	0.958632	-0.022585
1327	6.6300e-01	-12.9927	-91.337584	0.000354	3.536768	1.198289	-0.028232
1328	6.6350e-01	-13.0328	-91.664265	0.000819	8.185092	2.773184	-0.065336
1329	6.6400e-01	-13.0809	-91.894152	0.000576	5.759879	1.951500	-0.045977
1330	6.6450e-01	-13.1194	-92.128071	0.000586	5.860930	1.985737	-0.046784
1331	6.6500e-01	-13.1531	-92.309561	0.000455	4.547273	1.540658	-0.036298
1332	6.6550e-01	-13.1916	-92.624143	0.000788	7.881940	2.670474	-0.062916
1333	6.6600e-01	-13.2349	-92.954857	0.000829	8.286142	2.807421	-0.066143
1334	6.6650e-01	-13.2654	-93.075850	0.000303	3.031515	1.027105	-0.024199
1335	6.6700e-01	-13.3151	-93.293637	0.000546	5.456728	1.848789	-0.043557
1336	6.6750e-01	-13.3552	-93.261372	-0.000081	-0.808404	-0.273895	0.006453
1337	6.6800e-01	-13.3873	-93.725178	0.001162	11.620809	3.937237	-0.092761
1338	6.6850e-01	-13.4274	-93.922800	0.000495	4.951475	1.677605	-0.039524
1339	6.6900e-01	-13.4788	-94.092190	0.000424	4.244122	1.437947	-0.033878
1340	6.6950e-01	-13.5141	-94.322077	0.000576	5.759879	1.951500	-0.045977
1341	6.7000e-01	-13.5622	-94.568096	0.000616	6.164081	2.088447	-0.049204
1342	6.7050e-01	-13.5959	-94.660857	0.000232	2.324162	0.787447	-0.018552
1343	6.7100e-01	-13.6344	-95.193226	0.001334	13.338668	4.519263	-0.106474
1344	6.7150e-01	-13.6793	-95.290021	0.000243	2.425212	0.821684	-0.019359
1345	6.7200e-01	-13.7178	-95.612669	0.000808	8.084041	2.738947	-0.064530
1346	6.7250e-01	-13.7515	-95.669132	0.000141	1.414707	0.479316	-0.011293
1347	6.7300e-01	-13.7980	-96.116806	0.001122	11.216607	3.800289	-0.089535
1348	6.7350e-01	-13.8301	-96.330560	0.000536	5.355677	1.814553	-0.042751
1349	6.7400e-01	-13.8782	-96.447520	0.000293	2.930465	0.992868	-0.023392
1350	6.7450e-01	-13.9215	-96.689506	0.000606	6.063031	2.054210	-0.048397
1351	6.7500e-01	-13.9552	-96.899227	0.000525	5.254627	1.780316	-0.041944
1352	6.7550e-01	-13.9985	-97.149279	0.000627	6.265132	2.122684	-0.050010
1353	6.7600e-01	-14.0354	-97.302537	0.000384	3.839920	1.301000	-0.030652
1354	6.7650e-01	-14.0771	-97.552589	0.000627	6.265132	2.122684	-0.050010
1355	6.7700e-01	-14.1172	-97.689714	0.000344	3.435718	1.164053	-0.027425
1356	6.7750e-01	-14.1590	-98.101090	0.001031	10.307153	3.492158	-0.082275
1357	6.7800e-01	-14.1975	-98.250315	0.000374	3.738869	1.266763	-0.029845
1358	6.7850e-01	-14.2279	-98.496334	0.000616	6.164081	2.088447	-0.049204
1359	6.7900e-01	-14.2793	-98.782684	0.000717	7.174587	2.430816	-0.057270
1360	6.7950e-01	-14.3178	-98.915776	0.000333	3.334667	1.129816	-0.026618
1361	6.8000e-01	-14.3595	-99.105332	0.000475	4.749374	1.609132	-0.037911
1362	6.8050e-01	-14.4012	-99.286821	0.000455	4.547273	1.540658	-0.036298
1363	6.8100e-01	-14.4413	-99.508642	0.000556	5.557778	1.883026	-0.044364
1364	6.8150e-01	-14.4734	-99.799025	0.000728	7.275637	2.465053	-0.058077
1365	6.8200e-01	-14.5231	-99.915985	0.000293	2.930465	0.992868	-0.023392
1366	6.8250e-01	-14.5552	-100.266864	0.000879	8.791395	2.978605	-0.070176
1367	6.8300e-01	-14.5937	-100.307195	0.000101	1.010505	0.342368	-0.008066
1368	6.8350e-01	-14.6402	-100.533049	0.000566	5.658829	1.917263	-0.045171
1369	6.8400e-01	-14.6691	-100.920226	0.000970	9.700849	3.286737	-0.077435
1370	6.8450e-01	-14.7060	-101.017021	0.000243	2.425212	0.821684	-0.019359
1371	6.8500e-01	-14.7477	-101.307404	0.000728	7.275637	2.465053	-0.058077
1372	6.8550e-01	-14.7958	-101.581654	0.000687	6.871435	2.328105	-0.054850
1373	6.8600e-01	-14.8359	-101.819607	0.000596	5.961980	2.019974	-0.047591
1374	6.8650e-01	-14.8825	-102.005130	0.000465	4.648324	1.574895	-0.037105
1375	6.8700e-01	-14.9194	-102.170487	0.000414	4.143071	1.403710	-0.033071
1376	6.8750e-01	-14.9531	-102.448771	0.000697	6.972486	2.362342	-0.055657
1377	6.8800e-01	-14.9964	-102.460870	0.000030	0.303152	0.102711	-0.002420
1378	6.8850e-01	-15.0381	-102.739154	0.000697	6.972486	2.362342	-0.055657
1379	6.8900e-01	-15.0750	-103.033570	0.000738	7.376688	2.499289	-0.058883
1380	6.8950e-01	-15.1183	-103.428814	0.000990	9.902950	3.355210	-0.079049
1381	6.9000e-01	-15.1584	-103.477211	0.000121	1.212606	0.410842	-0.009679
1382	6.9050e-01	-15.1937	-103.799859	0.000808	8.084041	2.738947	-0.064530
1383	6.9100e-01	-15.2354	-103.916819	0.000293	2.930465	0.992868	-0.023392
1384	6.9150e-01	-15.2755	-104.154771	0.000596	5.961980	2.019974	-0.047591
1385	6.9200e-01	-15.3204	-104.299963	0.000364	3.637819	1.232526	-0.029038
1386	6.9250e-01	-15.3477	-104.404824	0.000263	2.627313	0.890158	-0.020972
1387	6.9300e-01	-15.4006	-104.796034	0.000980	9.801900	3.320974	-0.078242
1388	6.9350e-01	-15.4391	-105.187245	0.000980	9.801900	3.320974	-0.078242
1389	6.9400e-01	-15.4744	-105.449396	0.000657	6.568283	2.225395	-0.052430
1390	6.9450e-01	-15.5226	-105.513926	0.000162	1.616808	0.547789	-0.012906
1391	6.9500e-01	-15.5514	-105.735746	0.000556	5.557778	1.883026	-0.044364
1392	6.9550e-01	-15.5947	-105.840607	0.000263	2.627313	0.890158	-0.020972
1393	6.9600e-01	-15.6316	-106.167288	0.000819	8.185092	2.773184	-0.065336
1394	6.9650e-01	-15.6734	-106.385075	0.000546	5.456728	1.848789	-0.043557
1395	6.9700e-01	-15.7183	-106.574631	0.000475	4.749374	1.609132	-0.037911
1396	6.9750e-01	-15.7552	-106.679491	0.000263	2.627313	0.890158	-0.020972
1397	6.9800e-01	-15.7953	-106.945676	0.000667	6.669334	2.259632	-0.053237
1398	6.9850e-01	-15.8306	-107.215893	0.000677	6.770385	2.293868	-0.054044
1399	6.9900e-01	-15.8787	-107.461912	0.000616	6.164081	2.088447	-0.049204
1400	6.9950e-01	-15.9172	-107.695832	0.000586	5.860930	1.985737	-0.046784
1401	7.0000e-01	-15.9477	-108.038645	0.000859	8.589294	2.910132	-0.068563
1402	7.0050e-01	-15.9910	-108.095109	0.000141	1.414707	0.479316	-0.011293
1403	7.0100e-01	-16.0375	-108.212069	0.000293	2.930465	0.992868	-0.023392
1404	7.0150e-01	-16.0792	-108.458088	0.000616	6.164081	2.088447	-0.049204
1405	7.0200e-01	-16.1161	-108.889629	0.001081	10.812405	3.663342	-0.086308
1406	7.0250e-01	-16.1530	-109.071119	0.000455	4.547273	1.540658	-0.036298
1407	7.0300e-01	-16.1963	-109.147747	0.000192	1.919960	0.650500	-0.015326
1408	7.0350e-01	-16.2364	-109.369568	0.000556	5.557778	1.883026	-0.044364
1409	7.0400e-01	-16.2814	-109.712381	0.000859	8.589294	2.910132	-0.068563
1410	7.0450e-01	-16.3150	-109.946301	0.000586	5.860930	1.985737	-0.046784
1411	7.0500e-01	-16.3519	-110.426240	0.001203	12.025011	4.074184	-0.095988
1412	7.0550e-01	-16.3888	-110.268949	-0.000394	-3.940970	-1.335237	0.031458
1413	7.0600e-01	-16.4370	-110.668226	0.001000	10.004001	3.389447	-0.079855
1414	7.0650e-01	-16.4803	-110.837616	0.000424	4.244122	1.437947	-0.033878
1415	7.0700e-01	-16.5172	-110.853748	0.000040	0.404202	0.136947	-0.003226
1416	7.0750e-01	-16.5525	-111.244959	0.000980	9.801900	3.320974	-0.078242
1417	7.0800e-01	-16.5926	-111.261091	0.000040	0.404202	0.136947	-0.003226
1418	7.0850e-01	-16.6407	-111.418382	0.000394	3.940970	1.335237	-0.031458
1419	7.0900e-01	-16.6824	-111.579706	0.000404	4.042021	1.369474	-0.032265
1420	7.0950e-01	-16.7177	-111.870089	0.000728	7.275637	2.465053	-0.058077
1421	7.1000e-01	-16.7562	-112.136274	0.000667	6.669334	2.259632	-0.053237
1422	7.1050e-01	-16.7915	-112.378259	0.000606	6.063031	2.054210	-0.048397
1423	7.1100e-01	-16.8300	-112.587981	0.000525	5.254627	1.780316	-0.041944
1424	7.1150e-01	-16.8765	-112.866264	0.000697	6.972486	2.362342	-0.055657
1425	7.1200e-01	-16.9198	-113.132449	0.000667	6.669334	2.259632	-0.053237
1426	7.1250e-01	-16.9567	-113.225210	0.000232	2.324162	0.787447	-0.018552
1427	7.1300e-01	-16.9856	-113.487362	0.000657	6.568283	2.225395	-0.052430
1428	7.1350e-01	-17.0353	-113.628520	0.000354	3.536768	1.198289	-0.028232
1429	7.1400e-01	-17.0771	-113.838241	0.000525	5.254627	1.780316	-0.041944
1430	7.1450e-01	-17.1204	-113.963267	0.000313	3.132566	1.061342	-0.025005
1431	7.1500e-01	-17.1589	-114.346412	0.000960	9.599799	3.252500	-0.076629
1432	7.1550e-01	-17.1878	-114.483537	0.000344	3.435718	1.164053	-0.027425
1433	7.1600e-01	-17.2343	-114.838450	0.000889	8.892445	3.012842	-0.070983
1434	7.1650e-01	-17.2808	-115.132866	0.000738	7.376688	2.499289	-0.058883
1435	7.1700e-01	-17.3097	-115.342587	0.000525	5.254627	1.780316	-0.041944
1436	7.1750e-01	-17.3546	-115.572474	0.000576	5.759879	1.951500	-0.045977
1437	7.1800e-01	-17.3963	-115.681367	0.000273	2.728364	0.924395	-0.021779
1438	7.1850e-01	-17.4380	-116.052412	0.000930	9.296647	3.149789	-0.074209
1439	7.1900e-01	-17.4717	-116.310531	0.000647	6.467233	2.191158	-0.051624
1440	7.1950e-01	-17.5134	-116.358928	0.000121	1.212606	0.410842	-0.009679
1441	7.2000e-01	-17.5567	-116.528318	0.000424	4.244122	1.437947	-0.033878
1442	7.2050e-01	-17.5984	-116.588814	0.000152	1.515758	0.513553	-0.012099
1443	7.2100e-01	-17.6337	-116.971959	0.000960	9.599799	3.252500	-0.076629
1444	7.2150e-01	-17.6674	-117.161514	0.000475	4.749374	1.609132	-0.037911
1445	7.2200e-01	-17.7155	-117.367202	0.000515	5.153576	1.746079	-0.041138
1446	7.2250e-01	-17.7605	-117.560791	0.000485	4.850425	1.643368	-0.038718
1447	7.2300e-01	-17.7990	-117.774545	0.000536	5.355677	1.814553	-0.042751
1448	7.2350e-01	-17.8407	-118.137524	0.000909	9.094546	3.081316	-0.072596
1449	7.2400e-01	-17.8679	-118.419841	0.000707	7.073536	2.396579	-0.056463
1450	7.2450e-01	-17.9145	-118.452106	0.000081	0.808404	0.273895	-0.006453
1451	7.2500e-01	-17.9610	-118.661827	0.000525	5.254627	1.780316	-0.041944
1452	7.2550e-01	-17.9979	-118.867515	0.000515	5.153576	1.746079	-0.041138
1453	7.2600e-01	-18.0348	-119.206295	0.000849	8.488243	2.875895	-0.067756
1454	7.2650e-01	-18.0717	-119.488612	0.000707	7.073536	2.396579	-0.056463
1455	7.2700e-01	-18.1150	-119.621705	0.000333	3.334667	1.129816	-0.026618
1456	7.2750e-01	-18.1551	-119.670102	0.000121	1.212606	0.410842	-0.009679
1457	7.2800e-01	-18.1936	-120.121809	0.001132	11.317658	3.834526	-0.090341
1458	7.2850e-01	-18.2385	-120.404126	0.000707	7.073536	2.396579	-0.056463
1459	7.2900e-01	-18.2834	-120.537218	0.000333	3.334667	1.129816	-0.026618
1460	7.2950e-01	-18.3075	-120.783237	0.000616	6.164081	2.088447	-0.049204
1461	7.3000e-01	-18.3540	-120.916329	0.000333	3.334667	1.129816	-0.026618
1462	7.3050e-01	-18.4022	-121.101852	0.000465	4.648324	1.574895	-0.037105
1463	7.3100e-01	-18.4358	-121.468864	0.000920	9.195597	3.115553	-0.073402
1464	7.3150e-01	-18.4759	-121.714883	0.000616	6.164081	2.088447	-0.049204
1465	7.3200e-01	-18.5193	-121.880240	0.000414	4.143071	1.403710	-0.033071
1466	7.3250e-01	-18.5546	-122.061729	0.000455	4.547273	1.540658	-0.036298
1467	7.3300e-01	-18.6011	-122.166590	0.000263	2.627313	0.890158	-0.020972
1468	7.3350e-01	-18.6316	-122.380344	0.000536	5.355677	1.814553	-0.042751
1469	7.3400e-01	-18.6797	-122.521502	0.000354	3.536768	1.198289	-0.028232
1470	7.3450e-01	-18.7262	-122.904647	0.000960	9.599799	3.252500	-0.076629
1471	7.3500e-01	-18.7567	-123.049838	0.000364	3.637819	1.232526	-0.029038
1472	7.3550e-01	-18.8016	-123.368453	0.000798	7.982991	2.704710	-0.063723
1473	7.3600e-01	-18.8449	-123.489446	0.000303	3.031515	1.027105	-0.024199
1474	7.3650e-01	-18.8674	-123.755631	0.000667	6.669334	2.259632	-0.053237
1475	7.3700e-01	-18.9155	-124.154907	0.001000	10.004001	3.389447	-0.079855
1476	7.3750e-01	-18.9588	-124.300099	0.000364	3.637819	1.232526	-0.029038
1477	7.3800e-01	-19.0005	-124.352529	0.000131	1.313657	0.445079	-0.010486
1478	7.3850e-01	-19.0230	-124.707442	0.000889	8.892445	3.012842	-0.070983
1479	7.3900e-01	-19.0711	-124.864733	0.000394	3.940970	1.335237	-0.031458
1480	7.3950e-01	-19.1192	-124.909097	0.000111	1.111556	0.376605	-0.008873
1481	7.4000e-01	-19.1513	-125.239811	0.000829	8.286142	2.807421	-0.066143
1482	7.4050e-01	-19.2011	-125.485830	0.000616	6.164081	2.088447	-0.049204
1483	7.4100e-01	-19.2428	-125.824610	0.000849	8.488243	2.875895	-0.067756
1484	7.4150e-01	-19.2749	-126.070629	0.000616	6.164081	2.088447	-0.049204
1485	7.4200e-01	-19.3118	-126.482005	0.001031	10.307153	3.492158	-0.082275
1486	7.4250e-01	-19.3679	-126.421509	-0.000152	-1.515758	-0.513553	0.012099
1487	7.4300e-01	-19.3904	-126.562667	0.000354	3.536768	1.198289	-0.028232
1488	7.4350e-01	-19.4305	-126.905481	0.000859	8.589294	2.910132	-0.068563
1489	7.4400e-01	-19.4770	-127.159566	0.000637	6.366182	2.156921	-0.050817
1490	7.4450e-01	-19.5123	-127.308790	0.000374	3.738869	1.266763	-0.029845
1491	7.4500e-01	-19.5524	-127.478181	0.000424	4.244122	1.437947	-0.033878
1492	7.4550e-01	-19.5909	-127.760498	0.000707	7.073536	2.396579	-0.056463
1493	7.4600e-01	-19.6374	-127.986351	0.000566	5.658829	1.917263	-0.045171
1494	7.4650e-01	-19.6759	-128.236403	0.000627	6.265132	2.122684	-0.050010
1495	7.4700e-01	-19.7064	-128.341264	0.000263	2.627313	0.890158	-0.020972
1496	7.4750e-01	-19.7561	-128.494521	0.000384	3.839920	1.301000	-0.030652
1497	7.4800e-01	-19.7994	-128.671978	0.000445	4.446223	1.506421	-0.035491
1498	7.4850e-01	-19.8395	-128.974460	0.000758	7.578789	2.567763	-0.060496
1499	7.4900e-01	-19.8829	-129.305174	0.000829	8.286142	2.807421	-0.066143
1500	7.4950e-01	-19.9166	-129.482631	0.000445	4.446223	1.506421	-0.035491
1501	7.5000e-01	-19.9599	-129.591524	0.000273	2.728364	0.924395	-0.021779
1502	7.5050e-01	-19.9631	-129.853676	0.000657	6.568283	2.225395	-0.052430
1503	7.5100e-01	-19.9390	-129.736716	0.000293	2.930465	0.992868	0.023392
1504	7.5150e-01	-19.9021	-129.664120	0.000182	1.818909	0.616263	0.014519
1505	7.5200e-01	-19.8524	-129.361638	0.000758	7.578789	2.567763	0.060496
1506	7.5250e-01	-19.8203	-129.317274	0.000111	1.111556	0.376605	0.008873
1507	7.5300e-01	-19.7850	-129.357605	-0.000101	-1.010505	-0.342368	-0.008066
1508	7.5350e-01	-19.7497	-129.224512	0.000333	3.334667	1.129816	0.026618
1509	7.5400e-01	-19.7080	-129.075288	0.000374	3.738869	1.266763	0.029845
1510	7.5450e-01	-19.6615	-128.752640	0.000808	8.084041	2.738947	0.064530
1511	7.5500e-01	-19.6182	-128.748607	0.000010	0.101051	0.034237	0.000807
1512	7.5550e-01	-19.5813	-128.546952	0.000505	5.052526	1.711842	0.040331
1513	7.5600e-01	-19.5428	-128.409826	0.000344	3.435718	1.164053	0.027425
1514	7.5650e-01	-19.5011	-128.260602	0.000374	3.738869	1.266763	0.029845
1515	7.5700e-01	-19.4561	-128.163807	0.000243	2.425212	0.821684	0.019359
1516	7.5750e-01	-19.4257	-127.941987	0.000556	5.557778	1.883026	0.044364
1517	7.5800e-01	-19.3807	-127.752431	0.000475	4.749374	1.609132	0.037911
1518	7.5850e-01	-19.3342	-127.534644	0.000546	5.456728	1.848789	0.043557
1519	7.5900e-01	-19.2989	-127.675802	-0.000354	-3.536768	-1.198289	-0.028232
1520	7.5950e-01	-19.2652	-127.353155	0.000808	8.084041	2.738947	0.064530
1521	7.6000e-01	-19.2283	-127.216029	0.000344	3.435718	1.164053	0.027425
1522	7.6050e-01	-19.1802	-127.147467	0.000172	1.717859	0.582026	0.013713
1523	7.6100e-01	-19.1433	-126.982109	0.000414	4.143071	1.403710	0.033071
1524	7.6150e-01	-19.0968	-126.893381	0.000222	2.223111	0.753211	0.017746
1525	7.6200e-01	-19.0647	-126.776421	0.000293	2.930465	0.992868	0.023392
1526	7.6250e-01	-19.0262	-126.578800	0.000495	4.951475	1.677605	0.039524
1527	7.6300e-01	-18.9829	-126.453774	0.000313	3.132566	1.061342	0.025005
1528	7.6350e-01	-18.9364	-126.312615	0.000354	3.536768	1.198289	0.028232
1529	7.6400e-01	-18.9123	-125.917371	0.000990	9.902950	3.355210	0.079049
1530	7.6450e-01	-18.8545	-126.038364	-0.000303	-3.031515	-1.027105	-0.024199
1531	7.6500e-01	-18.8241	-125.929471	0.000273	2.728364	0.924395	0.021779
1532	7.6550e-01	-18.7904	-125.675386	0.000637	6.366182	2.156921	0.050817
1533	7.6600e-01	-18.7374	-125.461631	0.000536	5.355677	1.814553	0.042751
1534	7.6650e-01	-18.7021	-125.546326	-0.000212	-2.122061	-0.718974	-0.016939
1535	7.6700e-01	-18.6636	-125.235778	0.000778	7.780890	2.636237	0.062110
1536	7.6750e-01	-18.6251	-124.901031	0.000839	8.387193	2.841658	0.066949
1537	7.6800e-01	-18.5866	-124.840534	0.000152	1.515758	0.513553	0.012099
1538	7.6850e-01	-18.5433	-124.836501	0.000010	0.101051	0.034237	0.000807
1539	7.6900e-01	-18.5032	-124.598548	0.000596	5.961980	2.019974	0.047591
1540	7.6950e-01	-18.4695	-124.308165	0.000728	7.275637	2.465053	0.058077
1541	7.7000e-01	-18.4230	-124.255735	0.000131	1.313657	0.445079	0.010486
1542	7.7050e-01	-18.3909	-124.142808	0.000283	2.829414	0.958632	0.022585
1543	7.7100e-01	-18.3428	-123.892756	0.000627	6.265132	2.122684	0.050010
1544	7.7150e-01	-18.3091	-123.691101	0.000505	5.052526	1.711842	0.040331
1545	7.7200e-01	-18.2562	-123.549943	0.000354	3.536768	1.198289	0.028232
1546	7.7250e-01	-18.2273	-123.279725	0.000677	6.770385	2.293868	0.054044
1547	7.7300e-01	-18.1888	-123.082103	0.000495	4.951475	1.677605	0.039524
1548	7.7350e-01	-18.1455	-123.053871	0.000071	0.707354	0.239658	0.005646
1549	7.7400e-01	-18.1134	-122.949011	0.000263	2.627313	0.890158	0.020972
1550	7.7450e-01	-18.0556	-122.614264	0.000839	8.387193	2.841658	0.066949
1551	7.7500e-01	-18.0155	-122.594098	0.000051	0.505253	0.171184	0.004033
1552	7.7550e-01	-17.9851	-122.279517	0.000788	7.881940	2.670474	0.062916
1553	7.7600e-01	-17.9369	-122.412609	-0.000333	-3.334667	-1.129816	-0.026618
1554	7.7650e-01	-17.9048	-122.166590	0.000616	6.164081	2.088447	0.049204
1555	7.7700e-01	-17.8631	-121.714883	0.001132	11.317658	3.834526	0.090341
1556	7.7750e-01	-17.8310	-121.702783	0.000030	0.303152	0.102711	0.002420
1557	7.7800e-01	-17.7893	-121.505162	0.000495	4.951475	1.677605	0.039524
1558	7.7850e-01	-17.7412	-121.424500	0.000202	2.021010	0.684737	0.016132
1559	7.7900e-01	-17.7011	-121.210745	0.000536	5.355677	1.814553	0.042751
1560	7.7950e-01	-17.6690	-120.956660	0.000637	6.366182	2.156921	0.050817
1561	7.8000e-01	-17.6241	-121.037322	-0.000202	-2.021010	-0.684737	-0.016132
1562	7.8050e-01	-17.5824	-120.799369	0.000596	5.961980	2.019974	0.047591
1563	7.8100e-01	-17.5471	-120.585615	0.000536	5.355677	1.814553	0.042751
1564	7.8150e-01	-17.5022	-120.392026	0.000485	4.850425	1.643368	0.038718
1565	7.8200e-01	-17.4685	-120.150040	0.000606	6.063031	2.054210	0.048397
1566	7.8250e-01	-17.4300	-119.839492	0.000778	7.780890	2.636237	0.062110
1567	7.8300e-01	-17.3835	-119.710433	0.000323	3.233616	1.095579	0.025812
1568	7.8350e-01	-17.3434	-119.702367	0.000020	0.202101	0.068474	0.001613
1569	7.8400e-01	-17.3017	-119.424083	0.000697	6.972486	2.362342	0.055657
1570	7.8450e-01	-17.2583	-119.049005	0.000940	9.397698	3.184026	0.075016
1571	7.8500e-01	-17.2246	-119.109501	-0.000152	-1.515758	-0.513553	-0.012099
1572	7.8550e-01	-17.1910	-119.105468	0.000010	0.101051	0.034237	0.000807
1573	7.8600e-01	-17.1525	-118.742489	0.000909	9.094546	3.081316	0.072596
1574	7.8650e-01	-17.0995	-118.625529	0.000293	2.930465	0.992868	0.023392
1575	7.8700e-01	-17.0642	-118.548900	0.000192	1.919960	0.650500	0.015326
1576	7.8750e-01	-17.0225	-118.234319	0.000788	7.881940	2.670474	0.062916
1577	7.8800e-01	-16.9872	-118.089127	0.000364	3.637819	1.232526	0.029038
1578	7.8850e-01	-16.9279	-117.968134	0.000303	3.031515	1.027105	0.024199
1579	7.8900e-01	-16.8942	-117.762446	0.000515	5.153576	1.746079	0.041138
1580	7.8950e-01	-16.8605	-117.443831	0.000798	7.982991	2.704710	0.063723
1581	7.9000e-01	-16.8300	-117.266375	0.000445	4.446223	1.506421	0.035491
1582	7.9050e-01	-16.7819	-117.092952	0.000435	4.345172	1.472184	0.034685
1583	7.9100e-01	-16.7370	-117.060687	0.000081	0.808404	0.273895	0.006453
1584	7.9150e-01	-16.7001	-116.822734	0.000596	5.961980	2.019974	0.047591
1585	7.9200e-01	-16.6696	-116.697708	0.000313	3.132566	1.061342	0.025005
1586	7.9250e-01	-16.6150	-116.552517	0.000364	3.637819	1.232526	0.029038
1587	7.9300e-01	-16.5830	-116.149207	0.001011	10.105052	3.423684	0.080662
1588	7.9350e-01	-16.5461	-116.165339	-0.000040	-0.404202	-0.136947	-0.003226
1589	7.9400e-01	-16.5043	-115.862857	0.000758	7.578789	2.567763	0.060496
1590	7.9450e-01	-16.4691	-115.850757	0.000030	0.303152	0.102711	0.002420
1591	7.9500e-01	-16.4322	-115.608771	0.000606	6.063031	2.054210	0.048397
1592	7.9550e-01	-16.3840	-115.443414	0.000414	4.143071	1.403710	0.033071
1593	7.9600e-01	-16.3439	-115.298223	0.000364	3.637819	1.232526	0.029038
1594	7.9650e-01	-16.3070	-115.003807	0.000738	7.376688	2.499289	0.058883
1595	7.9700e-01	-16.2573	-114.652927	0.000879	8.791395	2.978605	0.070176
1596	7.9750e-01	-16.2204	-114.632762	0.000051	0.505253	0.171184	0.004033
1597	7.9800e-01	-16.1883	-114.467405	0.000414	4.143071	1.403710	0.033071
1598	7.9850e-01	-16.1386	-114.177021	0.000728	7.275637	2.465053	0.058077
1599	7.9900e-01	-16.0985	-113.987466	0.000475	4.749374	1.609132	0.037911
1600	7.9950e-01	-16.0568	-113.842274	0.000364	3.637819	1.232526	0.029038
1601	8.0000e-01	-16.0215	-113.660785	0.000455	4.547273	1.540658	0.036298
1602	8.0050e-01	-15.9894	-113.693050	-0.000081	-0.808404	-0.273895	-0.006453
1603	8.0100e-01	-15.9477	-113.334104	0.000899	8.993496	3.047079	0.071789
1604	8.0150e-01	-15.8996	-113.196978	0.000344	3.435718	1.164053	0.027425
1605	8.0200e-01	-15.8610	-112.765437	0.001081	10.812405	3.663342	0.086308
1606	8.0250e-01	-15.8242	-112.676709	0.000222	2.223111	0.753211	0.017746
1607	8.0300e-01	-15.7857	-112.575881	0.000253	2.526263	0.855921	0.020165
1608	8.0350e-01	-15.7439	-112.269366	0.000768	7.679839	2.602000	0.061303
1609	8.0400e-01	-15.7119	-112.305664	-0.000091	-0.909455	-0.308132	-0.007260
1610	8.0450e-01	-15.6477	-112.233068	0.000182	1.818909	0.616263	0.014519
1611	8.0500e-01	-15.6268	-111.954784	0.000697	6.972486	2.362342	0.055657
1612	8.0550e-01	-15.5899	-111.789427	0.000414	4.143071	1.403710	0.033071
1613	8.0600e-01	-15.5402	-111.579706	0.000525	5.254627	1.780316	0.041944
1614	8.0650e-01	-15.5033	-111.313521	0.000667	6.669334	2.259632	0.053237
1615	8.0700e-01	-15.4696	-111.007006	0.000768	7.679839	2.602000	0.061303
1616	8.0750e-01	-15.4279	-110.829550	0.000445	4.446223	1.506421	0.035491
1617	8.0800e-01	-15.3766	-110.756954	0.000182	1.818909	0.616263	0.014519
1618	8.0850e-01	-15.3381	-110.603696	0.000384	3.839920	1.301000	0.030652
1619	8.0900e-01	-15.3092	-110.414140	0.000475	4.749374	1.609132	0.037911
1620	8.0950e-01	-15.2659	-110.131824	0.000707	7.073536	2.396579	0.056463
1621	8.1000e-01	-15.2210	-109.954367	0.000445	4.446223	1.506421	0.035491
1622	8.1050e-01	-15.1873	-109.893871	0.000152	1.515758	0.513553	0.012099
1623	8.1100e-01	-15.1407	-109.571223	0.000808	8.084041	2.738947	0.064530
1624	8.1150e-01	-15.1135	-109.494594	0.000192	1.919960	0.650500	0.015326
1625	8.1200e-01	-15.0589	-109.184045	0.000778	7.780890	2.636237	0.062110
1626	8.1250e-01	-15.0204	-109.038854	0.000364	3.637819	1.232526	0.029038
1627	8.1300e-01	-14.9835	-108.784769	0.000637	6.366182	2.156921	0.050817
1628	8.1350e-01	-14.9482	-108.538750	0.000616	6.164081	2.088447	0.049204
1629	8.1400e-01	-14.8953	-108.413724	0.000313	3.132566	1.061342	0.025005
1630	8.1450e-01	-14.8520	-108.329028	0.000212	2.122061	0.718974	0.016939
1631	8.1500e-01	-14.8247	-108.099142	0.000576	5.759879	1.951500	0.045977
1632	8.1550e-01	-14.7782	-107.796659	0.000758	7.578789	2.567763	0.060496
1633	8.1600e-01	-14.7493	-107.752295	0.000111	1.111556	0.376605	0.008873
1634	8.1650e-01	-14.7012	-107.586938	0.000414	4.143071	1.403710	0.033071
1635	8.1700e-01	-14.6659	-107.276390	0.000778	7.780890	2.636237	0.062110
1636	8.1750e-01	-14.6274	-106.792418	0.001213	12.126062	4.108421	0.096794
1637	8.1800e-01	-14.5857	-106.780319	0.000030	0.303152	0.102711	0.002420
1638	8.1850e-01	-14.5311	-106.711756	0.000172	1.717859	0.582026	0.013713
1639	8.1900e-01	-14.5039	-106.344744	0.000920	9.195597	3.115553	0.073402
1640	8.1950e-01	-14.4590	-106.320545	0.000061	0.606303	0.205421	0.004840
1641	8.2000e-01	-14.4221	-106.143089	0.000445	4.446223	1.506421	0.035491
1642	8.2050e-01	-14.3819	-105.913202	0.000576	5.759879	1.951500	0.045977
1643	8.2100e-01	-14.3386	-105.574422	0.000849	8.488243	2.875895	0.067756
1644	8.2150e-01	-14.2985	-105.461495	0.000283	2.829414	0.958632	0.022585
1645	8.2200e-01	-14.2600	-105.251774	0.000525	5.254627	1.780316	0.041944
1646	8.2250e-01	-14.2199	-105.150947	0.000253	2.526263	0.855921	0.020165
1647	8.2300e-01	-14.1878	-104.953325	0.000495	4.951475	1.677605	0.039524
1648	8.2350e-01	-14.1493	-104.630677	0.000808	8.084041	2.738947	0.064530
1649	8.2400e-01	-14.0996	-104.497585	0.000333	3.334667	1.129816	0.026618
1650	8.2450e-01	-14.0579	-104.219301	0.000697	6.972486	2.362342	0.055657
1651	8.2500e-01	-14.0226	-104.001514	0.000546	5.456728	1.848789	0.043557
1652	8.2550e-01	-13.9825	-103.832124	0.000424	4.244122	1.437947	0.033878
1653	8.2600e-01	-13.9392	-103.876488	-0.000111	-1.111556	-0.376605	-0.008873
1654	8.2650e-01	-13.9055	-103.561906	0.000788	7.881940	2.670474	0.062916
1655	8.2700e-01	-13.8654	-103.336052	0.000566	5.658829	1.917263	0.045171
1656	8.2750e-01	-13.8205	-103.194894	0.000354	3.536768	1.198289	0.028232
1657	8.2800e-01	-13.7852	-102.940809	0.000637	6.366182	2.156921	0.050817
1658	8.2850e-01	-13.7483	-102.614128	0.000819	8.185092	2.773184	0.065336
1659	8.2900e-01	-13.7050	-102.299546	0.000788	7.881940	2.670474	0.062916
1660	8.2950e-01	-13.6584	-102.259215	0.000101	1.010505	0.342368	0.008066
1661	8.3000e-01	-13.6247	-102.186619	0.000182	1.818909	0.616263	0.014519
1662	8.3050e-01	-13.5798	-101.948666	0.000596	5.961980	2.019974	0.047591
1663	8.3100e-01	-13.5445	-101.609886	0.000849	8.488243	2.875895	0.067756
1664	8.3150e-01	-13.5125	-101.525191	0.000212	2.122061	0.718974	0.016939
1665	8.3200e-01	-13.4659	-101.400165	0.000313	3.132566	1.061342	0.025005
1666	8.3250e-01	-13.4162	-100.996855	0.001011	10.105052	3.423684	0.080662
1667	8.3300e-01	-13.3793	-100.839564	0.000394	3.940970	1.335237	0.031458
1668	8.3350e-01	-13.3360	-100.545148	0.000738	7.376688	2.499289	0.058883
1669	8.3400e-01	-13.2975	-100.311228	0.000586	5.860930	1.985737	0.046784
1670	8.3450e-01	-13.2590	-100.311228	0.000000	0.000000	0.000000	0.000000
1671	8.3500e-01	-13.2301	-99.855488	0.001142	11.418708	3.868763	0.091148
1672	8.3550e-01	-13.1724	-99.839356	0.000040	0.404202	0.136947	0.003226
1673	8.3600e-01	-13.1499	-99.569138	0.000677	6.770385	2.293868	0.054044
1674	8.3650e-01	-13.1002	-99.339252	0.000576	5.759879	1.951500	0.045977
1675	8.3700e-01	-13.0552	-99.444112	-0.000263	-2.627313	-0.890158	-0.020972
1676	8.3750e-01	-13.0264	-99.105332	0.000849	8.488243	2.875895	0.067756
1677	8.3800e-01	-12.9798	-98.859313	0.000616	6.164081	2.088447	0.049204
1678	8.3850e-01	-12.9349	-98.697989	0.000404	4.042021	1.369474	0.032265
1679	8.3900e-01	-12.9012	-98.222083	0.001192	11.923961	4.039947	0.095181
1680	8.3950e-01	-12.8579	-98.286613	-0.000162	-1.616808	-0.547789	-0.012906
1681	8.4000e-01	-12.8290	-97.931700	0.000889	8.892445	3.012842	0.070983
1682	8.4050e-01	-12.7745	-97.822807	0.000273	2.728364	0.924395	0.021779
1683	8.4100e-01	-12.7392	-97.746178	0.000192	1.919960	0.650500	0.015326
1684	8.4150e-01	-12.7103	-97.314636	0.001081	10.812405	3.663342	0.086308
1685	8.4200e-01	-12.6670	-97.068617	0.000616	6.164081	2.088447	0.049204
1686	8.4250e-01	-12.6189	-97.064584	0.000010	0.101051	0.034237	0.000807
1687	8.4300e-01	-12.5756	-96.770168	0.000738	7.376688	2.499289	0.058883
1688	8.4350e-01	-12.5499	-96.512050	0.000647	6.467233	2.191158	0.051624
1689	8.4400e-01	-12.5034	-96.362825	0.000374	3.738869	1.266763	0.029845
1690	8.4450e-01	-12.4617	-96.145038	0.000546	5.456728	1.848789	0.043557
1691	8.4500e-01	-12.4168	-95.919184	0.000566	5.658829	1.917263	0.045171
1692	8.4550e-01	-12.3847	-95.838522	0.000202	2.021010	0.684737	0.016132
1693	8.4600e-01	-12.3462	-95.463444	0.000940	9.397698	3.184026	0.075016
1694	8.4650e-01	-12.3045	-95.181127	0.000707	7.073536	2.396579	0.056463
1695	8.4700e-01	-12.2692	-95.011737	0.000424	4.244122	1.437947	0.033878
1696	8.4750e-01	-12.2243	-94.789916	0.000556	5.557778	1.883026	0.044364
1697	8.4800e-01	-12.1874	-94.685056	0.000263	2.627313	0.890158	0.020972
1698	8.4850e-01	-12.1424	-94.519699	0.000414	4.143071	1.403710	0.033071
1699	8.4900e-01	-12.0991	-94.205117	0.000788	7.881940	2.670474	0.062916
1700	8.4950e-01	-12.0638	-94.205117	0.000000	0.000000	0.000000	0.000000
1701	8.5000e-01	-12.0253	-93.866337	0.000849	8.488243	2.875895	0.067756
1702	8.5050e-01	-11.9788	-93.535623	0.000829	8.286142	2.807421	0.066143
1703	8.5100e-01	-11.9371	-93.362200	0.000435	4.345172	1.472184	0.034685
1704	8.5150e-01	-11.9066	-92.975022	0.000970	9.700849	3.286737	0.077435
1705	8.5200e-01	-11.8665	-92.979055	-0.000010	-0.101051	-0.034237	-0.000807
1706	8.5250e-01	-11.8232	-92.914526	0.000162	1.616808	0.547789	0.012906
1707	8.5300e-01	-11.7895	-92.700771	0.000536	5.355677	1.814553	0.042751
1708	8.5350e-01	-11.7318	-92.491050	0.000525	5.254627	1.780316	0.041944
1709	8.5400e-01	-11.7061	-91.994979	0.001243	12.429213	4.211131	0.099214
1710	8.5450e-01	-11.6612	-91.954648	0.000101	1.010505	0.342368	0.008066
1711	8.5500e-01	-11.6195	-91.797357	0.000394	3.940970	1.335237	0.031458
1712	8.5550e-01	-11.5970	-91.381948	0.001041	10.408203	3.526395	0.083082
1713	8.5600e-01	-11.5441	-91.127863	0.000637	6.366182	2.156921	0.050817
1714	8.5650e-01	-11.5184	-91.131896	-0.000010	-0.101051	-0.034237	-0.000807
1715	8.5700e-01	-11.4590	-90.893943	0.000596	5.961980	2.019974	0.047591
1716	8.5750e-01	-11.4334	-90.466435	0.001071	10.711355	3.629105	0.085502
1717	8.5800e-01	-11.3740	-90.333342	0.000333	3.334667	1.129816	0.026618
1718	8.5850e-01	-11.3483	-90.208316	0.000313	3.132566	1.061342	0.025005
1719	8.5900e-01	-11.3082	-89.938099	0.000677	6.770385	2.293868	0.054044
1720	8.5950e-01	-11.2665	-89.825172	0.000283	2.829414	0.958632	0.022585
1721	8.6000e-01	-11.2248	-89.486392	0.000849	8.488243	2.875895	0.067756
1722	8.6050e-01	-11.1815	-89.183909	0.000758	7.578789	2.567763	0.060496
1723	8.6100e-01	-11.1414	-89.248439	-0.000162	-1.616808	-0.547789	-0.012906
1724	8.6150e-01	-11.1045	-88.816897	0.001081	10.812405	3.663342	0.086308
1725	8.6200e-01	-11.0660	-88.474084	0.000859	8.589294	2.910132	0.068563
1726	8.6250e-01	-11.0227	-88.316793	0.000394	3.940970	1.335237	0.031458
1727	8.6300e-01	-10.9890	-88.018344	0.000748	7.477738	2.533526	0.059690
1728	8.6350e-01	-10.9377	-88.062708	-0.000111	-1.111556	-0.376605	-0.008873
1729	8.6400e-01	-10.8976	-87.828788	0.000586	5.860930	1.985737	0.046784
1730	8.6450e-01	-10.8639	-87.566637	0.000657	6.568283	2.225395	0.052430
1731	8.6500e-01	-10.8270	-87.437578	0.000323	3.233616	1.095579	0.025812
1732	8.6550e-01	-10.7869	-87.102831	0.000839	8.387193	2.841658	0.066949
1733	8.6600e-01	-10.7500	-86.792282	0.000778	7.780890	2.636237	0.062110
1734	8.6650e-01	-10.7066	-86.489800	0.000758	7.578789	2.567763	0.060496
1735	8.6700e-01	-10.6585	-86.513998	-0.000061	-0.606303	-0.205421	-0.004840
1736	8.6750e-01	-10.6136	-86.388972	0.000313	3.132566	1.061342	0.025005
1737	8.6800e-01	-10.5863	-86.167152	0.000556	5.557778	1.883026	0.044364
1738	8.6850e-01	-10.5430	-85.884835	0.000707	7.073536	2.396579	0.056463
1739	8.6900e-01	-10.5077	-85.606551	0.000697	6.972486	2.362342	0.055657
1740	8.6950e-01	-10.4724	-85.324234	0.000707	7.073536	2.396579	0.056463
1741	8.7000e-01	-10.4227	-85.122579	0.000505	5.052526	1.711842	0.040331
1742	8.7050e-01	-10.3794	-84.900759	0.000556	5.557778	1.883026	0.044364
1743	8.7100e-01	-10.3409	-84.578111	0.000808	8.084041	2.738947	0.064530
1744	8.7150e-01	-10.3040	-84.235297	0.000859	8.589294	2.910132	0.068563
1745	8.7200e-01	-10.2607	-84.263529	-0.000071	-0.707354	-0.239658	-0.005646
1746	8.7250e-01	-10.2286	-84.082040	0.000455	4.547273	1.540658	0.036298
1747	8.7300e-01	-10.1821	-83.791657	0.000728	7.275637	2.465053	0.058077
1748	8.7350e-01	-10.1420	-83.529505	0.000657	6.568283	2.225395	0.052430
1749	8.7400e-01	-10.1067	-83.154427	0.000940	9.397698	3.184026	0.075016
1750	8.7450e-01	-10.0634	-82.876143	0.000697	6.972486	2.362342	0.055657
1751	8.7500e-01	-10.0249	-82.892276	-0.000040	-0.404202	-0.136947	-0.003226
1752	8.7550e-01	-9.9751	-82.779349	0.000283	2.829414	0.958632	0.022585
1753	8.7600e-01	-9.9478	-82.396204	0.000960	9.599799	3.252500	0.076629
1754	8.7650e-01	-9.8981	-82.339741	0.000141	1.414707	0.479316	0.011293
1755	8.7700e-01	-9.8676	-82.101788	0.000596	5.961980	2.019974	0.047591
1756	8.7750e-01	-9.8259	-81.819471	0.000707	7.073536	2.396579	0.056463
1757	8.7800e-01	-9.7810	-81.666214	0.000384	3.839920	1.301000	0.030652
1758	8.7850e-01	-9.7393	-81.262904	0.001011	10.105052	3.423684	0.080662
1759	8.7900e-01	-9.7024	-81.008819	0.000637	6.366182	2.156921	0.050817
1760	8.7950e-01	-9.6655	-80.702303	0.000768	7.679839	2.602000	0.061303
1761	8.8000e-01	-9.6286	-80.379655	0.000808	8.084041	2.738947	0.064530
1762	8.8050e-01	-9.5901	-80.129603	0.000627	6.265132	2.122684	0.050010
1763	8.8100e-01	-9.5420	-80.097338	0.000081	0.808404	0.273895	0.006453
1764	8.8150e-01	-9.5019	-80.012643	0.000212	2.122061	0.718974	0.016939
1765	8.8200e-01	-9.4650	-79.742426	0.000677	6.770385	2.293868	0.054044
1766	8.8250e-01	-9.4217	-79.403645	0.000849	8.488243	2.875895	0.067756
1767	8.8300e-01	-9.3832	-79.089064	0.000788	7.881940	2.670474	0.062916
1768	8.8350e-01	-9.3479	-78.992269	0.000243	2.425212	0.821684	0.019359
1769	8.8400e-01	-9.3013	-78.649456	0.000859	8.589294	2.910132	0.068563
1770	8.8450e-01	-9.2677	-78.431669	0.000546	5.456728	1.848789	0.043557
1771	8.8500e-01	-9.2179	-78.225980	0.000515	5.153576	1.746079	0.041138
1772	8.8550e-01	-9.1842	-77.774273	0.001132	11.317658	3.834526	0.090341
1773	8.8600e-01	-9.1441	-77.508089	0.000667	6.669334	2.259632	0.053237
1774	8.8650e-01	-9.1024	-77.374997	0.000333	3.334667	1.129816	0.026618
1775	8.8700e-01	-9.0703	-77.149143	0.000566	5.658829	1.917263	0.045171
1776	8.8750e-01	-9.0238	-76.951521	0.000495	4.951475	1.677605	0.039524
1777	8.8800e-01	-8.9837	-76.798264	0.000384	3.839920	1.301000	0.030652
1778	8.8850e-01	-8.9436	-76.515947	0.000707	7.073536	2.396579	0.056463
1779	8.8900e-01	-8.9115	-76.310259	0.000515	5.153576	1.746079	0.041138
1780	8.8950e-01	-8.8586	-75.967445	0.000859	8.589294	2.910132	0.068563
1781	8.9000e-01	-8.8233	-75.826287	0.000354	3.536768	1.198289	0.028232
1782	8.9050e-01	-8.7864	-75.668996	0.000394	3.940970	1.335237	0.031458
1783	8.9100e-01	-8.7431	-75.237454	0.001081	10.812405	3.663342	0.086308
1784	8.9150e-01	-8.7030	-75.225355	0.000030	0.303152	0.102711	0.002420
1785	8.9200e-01	-8.6645	-75.003535	0.000556	5.557778	1.883026	0.044364
1786	8.9250e-01	-8.6147	-74.741383	0.000657	6.568283	2.225395	0.052430
1787	8.9300e-01	-8.5859	-74.600225	0.000354	3.536768	1.198289	0.028232
1788	8.9350e-01	-8.5425	-74.281610	0.000798	7.982991	2.704710	0.063723
1789	8.9400e-01	-8.5105	-73.785539	0.001243	12.429213	4.211131	0.099214
1790	8.9450e-01	-8.4655	-73.539520	0.000616	6.164081	2.088447	0.049204
1791	8.9500e-01	-8.4158	-73.450792	0.000222	2.223111	0.753211	0.017746
1792	8.9550e-01	-8.3853	-73.285435	0.000414	4.143071	1.403710	0.033071
1793	8.9600e-01	-8.3452	-72.886158	0.001000	10.004001	3.389447	0.079855
1794	8.9650e-01	-8.3051	-72.619973	0.000667	6.669334	2.259632	0.053237
1795	8.9700e-01	-8.2602	-72.551411	0.000172	1.717859	0.582026	0.013713
1796	8.9750e-01	-8.2217	-72.337657	0.000536	5.355677	1.814553	0.042751
1797	8.9800e-01	-8.1768	-71.982744	0.000889	8.892445	3.012842	0.070983
1798	8.9850e-01	-8.1415	-71.760923	0.000556	5.557778	1.883026	0.044364
1799	8.9900e-01	-8.0982	-71.611699	0.000374	3.738869	1.266763	0.029845
1800	8.9950e-01	-8.0693	-71.151926	0.001152	11.519759	3.903000	0.091955
1801	9.0000e-01	-8.0131	-70.962370	0.000475	4.749374	1.609132	0.037911
1802	9.0050e-01	-7.9843	-70.922039	0.000101	1.010505	0.342368	0.008066
1803	9.0100e-01	-7.9426	-70.655854	0.000667	6.669334	2.259632	0.053237
1804	9.0150e-01	-7.9041	-70.256578	0.001000	10.004001	3.389447	0.079855
1805	9.0200e-01	-7.8575	-70.208180	0.000121	1.212606	0.410842	0.009679
1806	9.0250e-01	-7.8174	-69.857301	0.000879	8.791395	2.978605	0.070176
1807	9.0300e-01	-7.7821	-69.534653	0.000808	8.084041	2.738947	0.064530
1808	9.0350e-01	-7.7404	-69.405594	0.000323	3.233616	1.095579	0.025812
1809	9.0400e-01	-7.7099	-69.103111	0.000758	7.578789	2.567763	0.060496
1810	9.0450e-01	-7.6618	-68.849026	0.000637	6.366182	2.156921	0.050817
1811	9.0500e-01	-7.6281	-68.417485	0.001081	10.812405	3.663342	0.086308
1812	9.0550e-01	-7.5864	-68.389253	0.000071	0.707354	0.239658	0.005646
1813	9.0600e-01	-7.5479	-68.211797	0.000445	4.446223	1.506421	0.035491
1814	9.0650e-01	-7.4998	-67.925447	0.000717	7.174587	2.430816	0.057270
1815	9.0700e-01	-7.4661	-67.699593	0.000566	5.658829	1.917263	0.045171
1816	9.0750e-01	-7.4180	-67.465673	0.000586	5.860930	1.985737	0.046784
1817	9.0800e-01	-7.3811	-67.130926	0.000839	8.387193	2.841658	0.066949
1818	9.0850e-01	-7.3313	-66.804245	0.000819	8.185092	2.773184	0.065336
1819	9.0900e-01	-7.3073	-66.763914	0.000101	1.010505	0.342368	0.008066
1820	9.0950e-01	-7.2640	-66.493697	0.000677	6.770385	2.293868	0.054044
1821	9.1000e-01	-7.2223	-66.247678	0.000616	6.164081	2.088447	0.049204
1822	9.1050e-01	-7.1886	-65.759673	0.001223	12.227112	4.142658	0.097601
1823	9.1100e-01	-7.1436	-65.622547	0.000344	3.435718	1.164053	0.027425
1824	9.1150e-01	-7.0987	-65.320065	0.000758	7.578789	2.567763	0.060496
1825	9.1200e-01	-7.0570	-65.001450	0.000798	7.982991	2.704710	0.063723
1826	9.1250e-01	-7.0217	-64.924821	0.000192	1.919960	0.650500	0.015326
1827	9.1300e-01	-6.9832	-64.662670	0.000657	6.568283	2.225395	0.052430
1828	9.1350e-01	-6.9415	-64.428750	0.000586	5.860930	1.985737	0.046784
1829	9.1400e-01	-6.9014	-64.162566	0.000667	6.669334	2.259632	0.053237
1830	9.1450e-01	-6.8581	-63.993176	0.000424	4.244122	1.437947	0.033878
1831	9.1500e-01	-6.8212	-63.751190	0.000606	6.063031	2.054210	0.048397
1832	9.1550e-01	-6.7875	-63.553568	0.000495	4.951475	1.677605	0.039524
1833	9.1600e-01	-6.7426	-63.206721	0.000869	8.690344	2.944368	0.069369
1834	9.1650e-01	-6.7041	-62.819544	0.000970	9.700849	3.286737	0.077435
1835	9.1700e-01	-6.6495	-62.565459	0.000637	6.366182	2.156921	0.050817
1836	9.1750e-01	-6.6175	-62.339605	0.000566	5.658829	1.917263	0.045171
1837	9.1800e-01	-6.5854	-62.117785	0.000556	5.557778	1.883026	0.044364
1838	9.1850e-01	-6.5389	-61.811269	0.000768	7.679839	2.602000	0.061303
1839	9.1900e-01	-6.5052	-61.516853	0.000738	7.376688	2.499289	0.058883
1840	9.1950e-01	-6.4570	-61.000616	0.001293	12.934466	4.382316	0.103247
1841	9.2000e-01	-6.4314	-60.996583	0.000010	0.101051	0.034237	0.000807
1842	9.2050e-01	-6.3832	-60.863491	0.000333	3.334667	1.129816	0.026618
1843	9.2100e-01	-6.3351	-60.677968	0.000465	4.648324	1.574895	0.037105
1844	9.2150e-01	-6.3094	-60.508578	0.000424	4.244122	1.437947	0.033878
1845	9.2200e-01	-6.2661	-60.169798	0.000849	8.488243	2.875895	0.067756
1846	9.2250e-01	-6.2276	-59.738256	0.001081	10.812405	3.663342	0.086308
1847	9.2300e-01	-6.1827	-59.625330	0.000283	2.829414	0.958632	0.022585
1848	9.2350e-01	-6.1346	-59.173623	0.001132	11.317658	3.834526	0.090341
1849	9.2400e-01	-6.1025	-59.028431	0.000364	3.637819	1.232526	0.029038
1850	9.2450e-01	-6.0640	-58.746114	0.000707	7.073536	2.396579	0.056463
1851	9.2500e-01	-6.0303	-58.641254	0.000263	2.627313	0.890158	0.020972
1852	9.2550e-01	-5.9886	-58.512195	0.000323	3.233616	1.095579	0.025812
1853	9.2600e-01	-5.9517	-57.999991	0.001283	12.833415	4.348079	0.102441
1854	9.2650e-01	-5.9068	-57.741873	0.000647	6.467233	2.191158	0.051624
1855	9.2700e-01	-5.8619	-57.556350	0.000465	4.648324	1.574895	0.037105
1856	9.2750e-01	-5.8250	-57.161106	0.000990	9.902950	3.355210	0.079049
1857	9.2800e-01	-5.7801	-57.128842	0.000081	0.808404	0.273895	0.006453
1858	9.2850e-01	-5.7464	-56.846525	0.000707	7.073536	2.396579	0.056463
1859	9.2900e-01	-5.7047	-56.644870	0.000505	5.052526	1.711842	0.040331
1860	9.2950e-01	-5.6629	-56.209295	0.001091	10.913456	3.697579	0.087115
1861	9.3000e-01	-5.6293	-55.894714	0.000788	7.881940	2.670474	0.062916
1862	9.3050e-01	-5.5779	-55.584165	0.000778	7.780890	2.636237	0.062110
1863	9.3100e-01	-5.5426	-55.531735	0.000131	1.313657	0.445079	0.010486
1864	9.3150e-01	-5.5057	-55.172789	0.000899	8.993496	3.047079	0.071789
1865	9.3200e-01	-5.4656	-54.749314	0.001061	10.610304	3.594868	0.084695
1866	9.3250e-01	-5.4255	-54.571857	0.000445	4.446223	1.506421	0.035491
1867	9.3300e-01	-5.3838	-54.531526	0.000101	1.010505	0.342368	0.008066
1868	9.3350e-01	-5.3485	-54.172580	0.000899	8.993496	3.047079	0.071789
1869	9.3400e-01	-5.3052	-53.801535	0.000930	9.296647	3.149789	0.074209
1870	9.3450e-01	-5.2603	-53.547450	0.000637	6.366182	2.156921	0.050817
1871	9.3500e-01	-5.2282	-53.180438	0.000920	9.195597	3.115553	0.073402
1872	9.3550e-01	-5.1849	-52.873923	0.000768	7.679839	2.602000	0.061303
1873	9.3600e-01	-5.1416	-52.720665	0.000384	3.839920	1.301000	0.030652
1874	9.3650e-01	-5.1047	-52.696466	0.000061	0.606303	0.205421	0.004840
1875	9.3700e-01	-5.0662	-52.224594	0.001182	11.822910	4.005710	0.094375
1876	9.3750e-01	-5.0148	-52.059237	0.000414	4.143071	1.403710	0.033071
1877	9.3800e-01	-4.9860	-51.704324	0.000889	8.892445	3.012842	0.070983
1878	9.3850e-01	-4.9378	-51.296981	0.001021	10.206102	3.457921	0.081469
1879	9.3900e-01	-4.8961	-51.244551	0.000131	1.313657	0.445079	0.010486
1880	9.3950e-01	-4.8705	-50.990466	0.000637	6.366182	2.156921	0.050817
1881	9.4000e-01	-4.8255	-50.744447	0.000616	6.164081	2.088447	0.049204
1882	9.4050e-01	-4.7806	-50.425832	0.000798	7.982991	2.704710	0.063723
1883	9.4100e-01	-4.7421	-50.264508	0.000404	4.042021	1.369474	0.032265
1884	9.4150e-01	-4.7100	-49.772470	0.001233	12.328163	4.176895	0.098408
1885	9.4200e-01	-4.6667	-49.639378	0.000333	3.334667	1.129816	0.026618
1886	9.4250e-01	-4.6202	-49.385292	0.000637	6.366182	2.156921	0.050817
1887	9.4300e-01	-4.5833	-49.082810	0.000758	7.578789	2.567763	0.060496
1888	9.4350e-01	-4.5448	-48.707732	0.000940	9.397698	3.184026	0.075016
1889	9.4400e-01	-4.5063	-48.493978	0.000536	5.355677	1.814553	0.042751
1890	9.4450e-01	-4.4726	-48.260058	0.000586	5.860930	1.985737	0.046784
1891	9.4500e-01	-4.4165	-47.884980	0.000940	9.397698	3.184026	0.075016
1892	9.4550e-01	-4.3860	-47.586530	0.000748	7.477738	2.533526	0.059690
1893	9.4600e-01	-4.3507	-47.388909	0.000495	4.951475	1.677605	0.039524
1894	9.4650e-01	-4.3122	-47.159022	0.000576	5.759879	1.951500	0.045977
1895	9.4700e-01	-4.2657	-46.844440	0.000788	7.881940	2.670474	0.062916
1896	9.4750e-01	-4.2304	-46.594388	0.000627	6.265132	2.122684	0.050010
1897	9.4800e-01	-4.1951	-46.174946	0.001051	10.509254	3.560631	0.083888
1898	9.4850e-01	-4.1534	-46.025721	0.000374	3.738869	1.266763	0.029845
1899	9.4900e-01	-4.1084	-45.751471	0.000687	6.871435	2.328105	0.054850
1900	9.4950e-01	-4.0635	-45.332028	0.001051	10.509254	3.560631	0.083888
1901	9.5000e-01	-4.0298	-45.061811	0.000677	6.770385	2.293868	0.054044
1902	9.5050e-01	-3.9865	-44.904520	0.000394	3.940970	1.335237	0.031458
1903	9.5100e-01	-3.9448	-44.710931	0.000485	4.850425	1.643368	0.038718
1904	9.5150e-01	-3.9047	-44.392316	0.000798	7.982991	2.704710	0.063723
1905	9.5200e-01	-3.8646	-44.118066	0.000687	6.871435	2.328105	0.054850
1906	9.5250e-01	-3.8229	-44.045470	0.000182	1.818909	0.616263	0.014519
1907	9.5300e-01	-3.7796	-43.448571	0.001496	14.955476	5.067053	0.119380
1908	9.5350e-01	-3.7507	-43.428406	0.000051	0.505253	0.171184	0.004033
1909	9.5400e-01	-3.7010	-43.073493	0.000889	8.892445	3.012842	0.070983
1910	9.5450e-01	-3.6705	-42.811342	0.000657	6.568283	2.225395	0.052430
1911	9.5500e-01	-3.6159	-42.391899	0.001051	10.509254	3.560631	0.083888
1912	9.5550e-01	-3.5839	-42.036987	0.000889	8.892445	3.012842	0.070983
1913	9.5600e-01	-3.5405	-41.899861	0.000344	3.435718	1.164053	0.027425
1914	9.5650e-01	-3.5036	-41.698206	0.000505	5.052526	1.711842	0.040331
1915	9.5700e-01	-3.4603	-41.351360	0.000869	8.690344	2.944368	0.069369
1916	9.5750e-01	-3.4266	-41.153738	0.000495	4.951475	1.677605	0.039524
1917	9.5800e-01	-3.3833	-40.641535	0.001283	12.833415	4.348079	0.102441
1918	9.5850e-01	-3.3432	-40.568939	0.000182	1.818909	0.616263	0.014519
1919	9.5900e-01	-3.3095	-40.298721	0.000677	6.770385	2.293868	0.054044
1920	9.5950e-01	-3.2662	-39.980106	0.000798	7.982991	2.704710	0.063723
1921	9.6000e-01	-3.2325	-39.572763	0.001021	10.206102	3.457921	0.081469
1922	9.6050e-01	-3.1812	-39.516300	0.000141	1.414707	0.479316	0.011293
1923	9.6100e-01	-3.1411	-39.064593	0.001132	11.317658	3.834526	0.090341
1924	9.6150e-01	-3.1058	-38.907302	0.000394	3.940970	1.335237	0.031458
1925	9.6200e-01	-3.0673	-38.653217	0.000637	6.366182	2.156921	0.050817
1926	9.6250e-01	-3.0240	-38.197477	0.001142	11.418708	3.868763	0.091148
1927	9.6300e-01	-2.9855	-38.011954	0.000465	4.648324	1.574895	0.037105
1928	9.6350e-01	-2.9470	-37.778035	0.000586	5.860930	1.985737	0.046784
1929	9.6400e-01	-2.8988	-37.523949	0.000637	6.366182	2.156921	0.050817
1930	9.6450e-01	-2.8555	-37.124673	0.001000	10.004001	3.389447	0.079855
1931	9.6500e-01	-2.8234	-36.866554	0.000647	6.467233	2.191158	0.051624
1932	9.6550e-01	-2.7833	-36.612469	0.000637	6.366182	2.156921	0.050817
1933	9.6600e-01	-2.7384	-36.269656	0.000859	8.589294	2.910132	0.068563
1934	9.6650e-01	-2.7031	-35.999438	0.000677	6.770385	2.293868	0.054044
1935	9.6700e-01	-2.6646	-35.628393	0.000930	9.296647	3.149789	0.074209
1936	9.6750e-01	-2.6197	-35.422705	0.000515	5.153576	1.746079	0.041138
1937	9.6800e-01	-2.5764	-35.100057	0.000808	8.084041	2.738947	0.064530
1938	9.6850e-01	-2.5459	-34.845972	0.000637	6.366182	2.156921	0.050817
1939	9.6900e-01	-2.4914	-34.636251	0.000525	5.254627	1.780316	0.041944
1940	9.6950e-01	-2.4577	-34.366033	0.000677	6.770385	2.293868	0.054044
1941	9.7000e-01	-2.4240	-34.144213	0.000556	5.557778	1.883026	0.044364
1942	9.7050e-01	-2.3855	-33.978856	0.000414	4.143071	1.403710	0.033071
1943	9.7100e-01	-2.3422	-33.615877	0.000909	9.094546	3.081316	0.072596
1944	9.7150e-01	-2.3005	-33.107706	0.001273	12.732365	4.313842	0.101634
1945	9.7200e-01	-2.2620	-32.772959	0.000839	8.387193	2.841658	0.066949
1946	9.7250e-01	-2.2219	-32.543073	0.000576	5.759879	1.951500	0.045977
1947	9.7300e-01	-2.1946	-32.260756	0.000707	7.073536	2.396579	0.056463
1948	9.7350e-01	-2.1433	-31.776784	0.001213	12.126062	4.108421	0.096794
1949	9.7400e-01	-2.1015	-31.712254	0.000162	1.616808	0.547789	0.012906
1950	9.7450e-01	-2.0630	-31.341209	0.000930	9.296647	3.149789	0.074209
1951	9.7500e-01	-2.0229	-31.252481	0.000222	2.223111	0.753211	0.017746
1952	9.7550e-01	-1.9828	-31.006462	0.000616	6.164081	2.088447	0.049204
1953	9.7600e-01	-1.9443	-30.655582	0.000879	8.791395	2.978605	0.070176
1954	9.7650e-01	-1.9010	-30.336968	0.000798	7.982991	2.704710	0.063723
1955	9.7700e-01	-1.8577	-30.086916	0.000627	6.265132	2.122684	0.050010
1956	9.7750e-01	-1.8240	-29.679573	0.001021	10.206102	3.457921	0.081469
1957	9.7800e-01	-1.7807	-29.401289	0.000697	6.972486	2.362342	0.055657
1958	9.7850e-01	-1.7406	-29.175435	0.000566	5.658829	1.917263	0.045171
1959	9.7900e-01	-1.7101	-28.804390	0.000930	9.296647	3.149789	0.074209
1960	9.7950e-01	-1.6700	-28.590636	0.000536	5.355677	1.814553	0.042751
1961	9.8000e-01	-1.6203	-28.259922	0.000829	8.286142	2.807421	0.066143
1962	9.8050e-01	-1.5834	-27.900976	0.000899	8.993496	3.047079	0.071789
1963	9.8100e-01	-1.5369	-27.529931	0.000930	9.296647	3.149789	0.074209
1964	9.8150e-01	-1.5080	-27.437170	0.000232	2.324162	0.787447	0.018552
1965	9.8200e-01	-1.4599	-27.138720	0.000748	7.477738	2.533526	0.059690
1966	9.8250e-01	-1.4230	-26.787841	0.000879	8.791395	2.978605	0.070176
1967	9.8300e-01	-1.3780	-26.440994	0.000869	8.690344	2.944368	0.069369
1968	9.8350e-01	-1.3443	-26.194975	0.000616	6.164081	2.088447	0.049204
1969	9.8400e-01	-1.2994	-26.049784	0.000364	3.637819	1.232526	0.029038
1970	9.8450e-01	-1.2593	-25.610176	0.001101	11.014506	3.731816	0.087922
1971	9.8500e-01	-1.2240	-25.444819	0.000414	4.143071	1.403710	0.033071
1972	9.8550e-01	-1.1823	-25.037476	0.001021	10.206102	3.457921	0.081469
1973	9.8600e-01	-1.1454	-24.730961	0.000768	7.679839	2.602000	0.061303
1974	9.8650e-01	-1.1037	-24.363949	0.000920	9.195597	3.115553	0.073402
1975	9.8700e-01	-1.0668	-24.251022	0.000283	2.829414	0.958632	0.022585
1976	9.8750e-01	-1.0235	-23.851745	0.001000	10.004001	3.389447	0.079855
1977	9.8800e-01	-0.9946	-23.476667	0.000940	9.397698	3.184026	0.075016
1978	9.8850e-01	-0.9449	-23.295178	0.000455	4.547273	1.540658	0.036298
1979	9.8900e-01	-0.8968	-22.908000	0.000970	9.700849	3.286737	0.077435
1980	9.8950e-01	-0.8647	-22.815239	0.000232	2.324162	0.787447	0.018552
1981	9.9000e-01	-0.8230	-22.424028	0.000980	9.801900	3.320974	0.078242
1982	9.9050e-01	-0.7797	-22.149778	0.000687	6.871435	2.328105	0.054850
1983	9.9100e-01	-0.7572	-21.762600	0.000970	9.700849	3.286737	0.077435
1984	9.9150e-01	-0.6994	-21.468184	0.000738	7.376688	2.499289	0.058883
1985	9.9200e-01	-0.6609	-21.383489	0.000212	2.122061	0.718974	0.016939
1986	9.9250e-01	-0.6112	-21.028576	0.000889	8.892445	3.012842	0.070983
1987	9.9300e-01	-0.5968	-20.580902	0.001122	11.216607	3.800289	0.089535
1988	9.9350e-01	-0.5519	-20.363115	0.000546	5.456728	1.848789	0.043557
1989	9.9400e-01	-0.5021	-20.145328	0.000546	5.456728	1.848789	0.043557
1990	9.9450e-01	-0.4652	-19.746051	0.001000	10.004001	3.389447	0.079855
1991	9.9500e-01	-0.4235	-19.354840	0.000980	9.801900	3.320974	0.078242
1992	9.9550e-01	-0.3834	-19.245947	0.000273	2.728364	0.924395	0.021779
1993	9.9600e-01	-0.3465	-18.967663	0.000697	6.972486	2.362342	0.055657
1994	9.9650e-01	-0.3080	-18.536121	0.001081	10.812405	3.663342	0.086308
1995	9.9700e-01	-0.2647	-18.265904	0.000677	6.770385	2.293868	0.054044
1996	9.9750e-01	-0.2278	-18.019885	0.000616	6.164081	2.088447	0.049204
1997	9.9800e-01	-0.1829	-17.487516	0.001334	13.338668	4.519263	0.106474
1998	9.9850e-01	-0.1492	-17.374589	0.000283	2.829414	0.958632	0.022585
1999	9.9900e-01	-0.0946	-17.144702	0.000576	5.759879	1.951500	0.045977
2000	9.9950e-01	-0.0674	-16.797856	0.000869	8.690344	2.944368	0.069369
2001	1.0000e+00	-0.0305	-16.434877	0.000869	8.690344	2.944368	0.072596

PMax (uC/cm2):	1.42e+02
Pr (uC/cm2):	8.12e+00
-Pr (uC/cm2):	-4.42e+00
PLoss (uC/cm2):	-4.37e+00
-Vc:	-1.07e+00
C (Max-Eff) (nF):	7.10e-01
K (Eff):	2.40e+03
Vert. (+/-Pr) Shift (uC/cm2):	1.85e+00
Offset (uC/cm2):	1.20e+01

A (Loop Area - uC/cm2·Volts):	-2.14e-01



Hysteresis Version: 5.48.1 - Radiant Technologies, Inc., 1999 - 9/12/24

