»»»»»»»»»»»»»»»»»»»»»»»»»»»»»»»»»»»» Hysteresis ««««««««««««««««««««««««««««««««««««
»»»  Executed Version:	5.48.1
»»»  Vision Version:	5.48.4 (R)
»»»  Vision Compiled:	9/18/24
»»»  Driver Version:	5.47.0
»»»  Windows Version:	Windows 8 or 8.1
»»»  Processor Information:	x86 (AMD or Intel) - 32 Processors
»»»  Tester Name:	PMF21124-494 (100V)
»»»  Tester S/N:	PMF21124-494
»»»  Internal Amp Type:	100V RevK 270k
»»»  Internal Amp S/N:	iAB2-596/K     
»»»  Execution Count:	1
»»»»»»»»»»»»»»»»»»»»»»»»»»»»»»»»»»»»»»»»»»««««««««««««««««««««««««««««««««««««««««««

Stored:	6/18/2025 - 13:52:25
Configured:	06/18/25 09:47:30 AM
Executed:	06/18/25 01:51:54 PM

»»»»»»»»»»»»»»»»»»»»»»»»»»»»»»»»»»» Sample Info ««««««««««««««««««««««««««««««««««««
Sample Name:	
Lot Name:	
Wafer Name:	
Die Row/Column:	0/0
Capacitor Number:	0
Sample Area (cm2):	1.00e-04
Sample Thickness (microns):	3.00e-01

Amplifier:	Internal

»»»»»»»»»»»»»»»»»»»»»»»»»»»»»»»»»»» Tester Info «««««««««««««««««««««««««««««««««««
Tester Name:	PMF21124-494 (100V)
Tester Serial Number:	PMF21124-494
Return Signal Amp. Level:	0.19 [Index: 3]

»»»»»»»»»»»»»»»»»»»»»»»»»»»»»»»» Hysteresis Info ««««««««««««««««««««««««««««««««««
Task Name:	Hyst-554
Volts:	20.00
Field:	666.67 (kV/cm)
DCBias:	0.00
DCField:	0.00 (kV/cm)
Hysteresis Period (ms):	2.00e+02
Preset:	Enabled
Preset Delay (ms):	1.00e+03
Profile:	Standard Bipolar

»»»»»»»»»»»»»»»»»»»»»»»»»»»»»»»»»»»»»» Data «««««««««««««««««««««««««««««««««««««««
Points:	2009

Valid Data

Point	Time (ms)	Drive Voltage	Measured Polarization (uC/cm2)	Capacitance (uF)	Normalized Capacitance (uF/cm2)	Dielectric Constant	Instantaneous Current (mA)
   1	0.0000e+00	0.0064	-10.936601	0.000507	5.069052	1.717441	0.000203
   2	9.9500e-02	0.0305	-10.734744	0.000507	5.069052	1.717441	0.000203
   3	1.9900e-01	0.0658	-10.504627	0.000578	5.778720	1.957883	0.000231
   4	2.9850e-01	0.1171	-10.173582	0.000831	8.313246	2.816604	0.000333
   5	3.9800e-01	0.1476	-9.971725	0.000507	5.069052	1.717441	0.000203
   6	4.9750e-01	0.1957	-9.697200	0.000689	6.893911	2.335720	0.000276
   7	5.9700e-01	0.2374	-9.426712	0.000679	6.792530	2.301372	0.000272
   8	6.9650e-01	0.2727	-9.180447	0.000618	6.184244	2.095279	0.000248
   9	7.9600e-01	0.3096	-8.897847	0.000710	7.096673	2.404418	0.000284
  10	8.9550e-01	0.3497	-8.607173	0.000730	7.299436	2.473116	0.000292
  11	9.9500e-01	0.3930	-8.352834	0.000639	6.387006	2.163976	0.000256
  12	1.0945e+00	0.4315	-8.066197	0.000720	7.198055	2.438767	0.000288
  13	1.1940e+00	0.4636	-7.819932	0.000618	6.184244	2.095279	0.000248
  14	1.2935e+00	0.5053	-7.545407	0.000689	6.893911	2.335720	0.000276
  15	1.3930e+00	0.5470	-7.287030	0.000649	6.488387	2.198325	0.000260
  16	1.4925e+00	0.5871	-7.036728	0.000629	6.285625	2.129627	0.000252
  17	1.5920e+00	0.6321	-6.750091	0.000720	7.198055	2.438767	0.000288
  18	1.6915e+00	0.6754	-6.431157	0.000801	8.009103	2.713558	0.000321
  19	1.7910e+00	0.7171	-6.221226	0.000527	5.271815	1.786139	0.000211
  20	1.8905e+00	0.7444	-5.906330	0.000791	7.907722	2.679209	0.000316
  21	1.9900e+00	0.7893	-5.647953	0.000649	6.488387	2.198325	0.000260
  22	2.0895e+00	0.8294	-5.401688	0.000618	6.184244	2.095279	0.000248
  23	2.1890e+00	0.8615	-5.115051	0.000720	7.198055	2.438767	0.000288
  24	2.2885e+00	0.9144	-4.860711	0.000639	6.387006	2.163976	0.000256
  25	2.3880e+00	0.9433	-4.598298	0.000659	6.589768	2.232674	0.000264
  26	2.4875e+00	0.9818	-4.279364	0.000801	8.009103	2.713558	0.000321
  27	2.5870e+00	1.0395	-4.008876	0.000679	6.792530	2.301372	0.000272
  28	2.6865e+00	1.0732	-3.750499	0.000649	6.488387	2.198325	0.000260
  29	2.7860e+00	1.1101	-3.451751	0.000750	7.502198	2.541813	0.000300
  30	2.8855e+00	1.1438	-3.205486	0.000618	6.184244	2.095279	0.000248
  31	2.9850e+00	1.1839	-2.882515	0.000811	8.110484	2.747906	0.000325
  32	3.0845e+00	1.2304	-2.664510	0.000547	5.474577	1.854837	0.000219
  33	3.1840e+00	1.2689	-2.349613	0.000791	7.907722	2.679209	0.000316
  34	3.2835e+00	1.3010	-2.091236	0.000649	6.488387	2.198325	0.000260
  35	3.3830e+00	1.3492	-1.772303	0.000801	8.009103	2.713558	0.000321
  36	3.4825e+00	1.3925	-1.481629	0.000730	7.299436	2.473116	0.000292
  37	3.5820e+00	1.4246	-1.243438	0.000598	5.981482	2.026581	0.000239
  38	3.6815e+00	1.4743	-0.952764	0.000730	7.299436	2.473116	0.000292
  39	3.7810e+00	1.5096	-0.690350	0.000659	6.589768	2.232674	0.000264
  40	3.8805e+00	1.5577	-0.431974	0.000649	6.488387	2.198325	0.000260
  41	3.9800e+00	1.5866	-0.109003	0.000811	8.110484	2.747906	0.000325
  42	4.0795e+00	1.6251	0.153411	0.000659	6.589768	2.232674	0.000264
  43	4.1790e+00	1.6812	0.452159	0.000750	7.502198	2.541813	0.000300
  44	4.2785e+00	1.7085	0.706499	0.000639	6.387006	2.163976	0.000256
  45	4.3780e+00	1.7534	1.005247	0.000750	7.502198	2.541813	0.000300
  46	4.4775e+00	1.7919	1.271698	0.000669	6.691149	2.267023	0.000268
  47	4.5770e+00	1.8208	1.566409	0.000740	7.400817	2.507465	0.000296
  48	4.6765e+00	1.8593	1.849008	0.000710	7.096673	2.404418	0.000284
  49	4.7760e+00	1.9122	2.123533	0.000689	6.893911	2.335720	0.000276
  50	4.8755e+00	1.9540	2.377873	0.000639	6.387006	2.163976	0.000256
  51	4.9750e+00	1.9892	2.680658	0.000760	7.603579	2.576162	0.000304
  52	5.0745e+00	2.0213	2.902701	0.000558	5.575958	1.889186	0.000223
  53	5.1740e+00	2.0727	3.245857	0.000862	8.617389	2.919651	0.000345
  54	5.2735e+00	2.1015	3.516345	0.000679	6.792530	2.301372	0.000272
  55	5.3730e+00	2.1368	3.798945	0.000710	7.096673	2.404418	0.000284
  56	5.4725e+00	2.1834	4.069433	0.000679	6.792530	2.301372	0.000272
  57	5.5720e+00	2.2187	4.364144	0.000740	7.400817	2.507465	0.000296
  58	5.6715e+00	2.2572	4.654818	0.000730	7.299436	2.473116	0.000292
  59	5.7710e+00	2.3037	4.953566	0.000750	7.502198	2.541813	0.000300
  60	5.8705e+00	2.3454	5.248276	0.000740	7.400817	2.507465	0.000296
  61	5.9700e+00	2.3903	5.522802	0.000689	6.893911	2.335720	0.000276
  62	6.0695e+00	2.4224	5.829624	0.000770	7.704960	2.610511	0.000308
  63	6.1690e+00	2.4593	6.088001	0.000649	6.488387	2.198325	0.000260
  64	6.2685e+00	2.5058	6.346377	0.000649	6.488387	2.198325	0.000260
  65	6.3680e+00	2.5363	6.624940	0.000700	6.995292	2.370069	0.000280
  66	6.4675e+00	2.5812	6.935799	0.000781	7.806341	2.644860	0.000312
  67	6.5670e+00	2.6277	7.210324	0.000689	6.893911	2.335720	0.000276
  68	6.6665e+00	2.6598	7.500998	0.000730	7.299436	2.473116	0.000292
  69	6.7660e+00	2.7015	7.759375	0.000649	6.488387	2.198325	0.000260
  70	6.8655e+00	2.7448	8.041974	0.000710	7.096673	2.404418	0.000284
  71	6.9650e+00	2.7833	8.368982	0.000821	8.211865	2.782255	0.000329
  72	7.0645e+00	2.8170	8.643508	0.000689	6.893911	2.335720	0.000276
  73	7.1640e+00	2.8587	8.913996	0.000679	6.792530	2.301372	0.000272
  74	7.2635e+00	2.9101	9.224855	0.000781	7.806341	2.644860	0.000312
  75	7.3630e+00	2.9518	9.450935	0.000568	5.677339	1.923534	0.000227
  76	7.4625e+00	2.9807	9.802166	0.000882	8.820151	2.988348	0.000353
  77	7.5620e+00	3.0224	10.064579	0.000659	6.589768	2.232674	0.000264
  78	7.6615e+00	3.0561	10.335067	0.000679	6.792530	2.301372	0.000272
  79	7.7610e+00	3.0994	10.678224	0.000862	8.617389	2.919651	0.000345
  80	7.8605e+00	3.1443	10.928526	0.000629	6.285625	2.129627	0.000252
  81	7.9600e+00	3.1732	11.215163	0.000720	7.198055	2.438767	0.000288
  82	8.0595e+00	3.2213	11.517948	0.000760	7.603579	2.576162	0.000304
  83	8.1590e+00	3.2582	11.796511	0.000700	6.995292	2.370069	0.000280
  84	8.2585e+00	3.2967	12.062962	0.000669	6.691149	2.267023	0.000268
  85	8.3580e+00	3.3368	12.357672	0.000740	7.400817	2.507465	0.000296
  86	8.4575e+00	3.3721	12.624123	0.000669	6.691149	2.267023	0.000268
  87	8.5570e+00	3.4218	12.959206	0.000841	8.414627	2.850953	0.000337
  88	8.6565e+00	3.4587	13.209508	0.000629	6.285625	2.129627	0.000252
  89	8.7560e+00	3.5020	13.520368	0.000781	7.806341	2.644860	0.000312
  90	8.8555e+00	3.5405	13.819116	0.000750	7.502198	2.541813	0.000300
  91	8.9550e+00	3.5774	14.101715	0.000710	7.096673	2.404418	0.000284
  92	9.0545e+00	3.6111	14.368166	0.000669	6.691149	2.267023	0.000268
  93	9.1540e+00	3.6577	14.650766	0.000710	7.096673	2.404418	0.000284
  94	9.2535e+00	3.6994	14.957588	0.000770	7.704960	2.610511	0.000308
  95	9.3530e+00	3.7427	15.232113	0.000689	6.893911	2.335720	0.000276
  96	9.4525e+00	3.7812	15.534898	0.000760	7.603579	2.576162	0.000304
  97	9.5520e+00	3.8165	15.813461	0.000700	6.995292	2.370069	0.000280
  98	9.6515e+00	3.8550	16.124320	0.000781	7.806341	2.644860	0.000312
  99	9.7510e+00	3.9015	16.362511	0.000598	5.981482	2.026581	0.000239
 100	9.8505e+00	3.9480	16.681445	0.000801	8.009103	2.713558	0.000321
 101	9.9500e+00	3.9753	17.024601	0.000862	8.617389	2.919651	0.000345
 102	1.0050e+01	4.0266	17.287015	0.000659	6.589768	2.232674	0.000264
 103	1.0149e+01	4.0587	17.549429	0.000659	6.589768	2.232674	0.000264
 104	1.0248e+01	4.0892	17.827991	0.000700	6.995292	2.370069	0.000280
 105	1.0348e+01	4.1389	18.138851	0.000781	7.806341	2.644860	0.000312
 106	1.0447e+01	4.1726	18.393190	0.000639	6.387006	2.163976	0.000256
 107	1.0547e+01	4.2272	18.704050	0.000781	7.806341	2.644860	0.000312
 108	1.0646e+01	4.2544	19.022984	0.000801	8.009103	2.713558	0.000321
 109	1.0746e+01	4.2993	19.277323	0.000639	6.387006	2.163976	0.000256
 110	1.0845e+01	4.3411	19.592220	0.000791	7.907722	2.679209	0.000316
 111	1.0945e+01	4.3812	19.878856	0.000720	7.198055	2.438767	0.000288
 112	1.1044e+01	4.4181	20.161456	0.000710	7.096673	2.404418	0.000284
 113	1.1144e+01	4.4517	20.448093	0.000720	7.198055	2.438767	0.000288
 114	1.1243e+01	4.5047	20.702432	0.000639	6.387006	2.163976	0.000256
 115	1.1343e+01	4.5416	21.025403	0.000811	8.110484	2.747906	0.000325
 116	1.1443e+01	4.5737	21.267631	0.000608	6.082863	2.060930	0.000243
 117	1.1542e+01	4.6122	21.562342	0.000740	7.400817	2.507465	0.000296
 118	1.1642e+01	4.6587	21.869164	0.000770	7.704960	2.610511	0.000308
 119	1.1741e+01	4.6892	22.163875	0.000740	7.400817	2.507465	0.000296
 120	1.1841e+01	4.7357	22.410140	0.000618	6.184244	2.095279	0.000248
 121	1.1940e+01	4.7758	22.741186	0.000831	8.313246	2.816604	0.000333
 122	1.2040e+01	4.8159	23.007637	0.000669	6.691149	2.267023	0.000268
 123	1.2139e+01	4.8560	23.302347	0.000740	7.400817	2.507465	0.000296
 124	1.2239e+01	4.8913	23.593021	0.000730	7.299436	2.473116	0.000292
 125	1.2338e+01	4.9314	23.863509	0.000679	6.792530	2.301372	0.000272
 126	1.2438e+01	4.9827	24.182443	0.000801	8.009103	2.713558	0.000321
 127	1.2537e+01	5.0084	24.456968	0.000689	6.893911	2.335720	0.000276
 128	1.2636e+01	5.0549	24.771865	0.000791	7.907722	2.679209	0.000316
 129	1.2736e+01	5.0934	25.006019	0.000588	5.880101	1.992232	0.000235
 130	1.2835e+01	5.1368	25.337064	0.000831	8.313246	2.816604	0.000333
 131	1.2935e+01	5.1753	25.607552	0.000679	6.792530	2.301372	0.000272
 132	1.3034e+01	5.2057	25.922449	0.000791	7.907722	2.679209	0.000316
 133	1.3134e+01	5.2683	26.221197	0.000750	7.502198	2.541813	0.000300
 134	1.3233e+01	5.2972	26.479573	0.000649	6.488387	2.198325	0.000260
 135	1.3333e+01	5.3341	26.758136	0.000700	6.995292	2.370069	0.000280
 136	1.3432e+01	5.3710	27.081107	0.000811	8.110484	2.747906	0.000325
 137	1.3532e+01	5.4127	27.351595	0.000679	6.792530	2.301372	0.000272
 138	1.3632e+01	5.4528	27.618046	0.000669	6.691149	2.267023	0.000268
 139	1.3731e+01	5.4913	27.904682	0.000720	7.198055	2.438767	0.000288
 140	1.3831e+01	5.5266	28.187282	0.000710	7.096673	2.404418	0.000284
 141	1.3930e+01	5.5635	28.498141	0.000781	7.806341	2.644860	0.000312
 142	1.4030e+01	5.6100	28.780741	0.000710	7.096673	2.404418	0.000284
 143	1.4129e+01	5.6533	29.107749	0.000821	8.211865	2.782255	0.000329
 144	1.4229e+01	5.6886	29.370162	0.000659	6.589768	2.232674	0.000264
 145	1.4328e+01	5.7415	29.681022	0.000781	7.806341	2.644860	0.000312
 146	1.4428e+01	5.7688	29.935361	0.000639	6.387006	2.163976	0.000256
 147	1.4527e+01	5.8169	30.230072	0.000740	7.400817	2.507465	0.000296
 148	1.4627e+01	5.8522	30.508635	0.000700	6.995292	2.370069	0.000280
 149	1.4726e+01	5.8988	30.811420	0.000760	7.603579	2.576162	0.000304
 150	1.4825e+01	5.9292	31.106131	0.000740	7.400817	2.507465	0.000296
 151	1.4925e+01	5.9694	31.368545	0.000659	6.589768	2.232674	0.000264
 152	1.5024e+01	6.0191	31.643070	0.000689	6.893911	2.335720	0.000276
 153	1.5124e+01	6.0576	31.970078	0.000821	8.211865	2.782255	0.000329
 154	1.5223e+01	6.0897	32.212306	0.000608	6.082863	2.060930	0.000243
 155	1.5323e+01	6.1282	32.527203	0.000791	7.907722	2.679209	0.000316
 156	1.5422e+01	6.1651	32.858248	0.000831	8.313246	2.816604	0.000333
 157	1.5522e+01	6.2100	33.088365	0.000578	5.778720	1.957883	0.000231
 158	1.5621e+01	6.2533	33.395187	0.000770	7.704960	2.610511	0.000308
 159	1.5721e+01	6.2886	33.714121	0.000801	8.009103	2.713558	0.000321
 160	1.5820e+01	6.3255	33.996720	0.000710	7.096673	2.404418	0.000284
 161	1.5920e+01	6.3688	34.255097	0.000649	6.488387	2.198325	0.000260
 162	1.6020e+01	6.4121	34.545771	0.000730	7.299436	2.473116	0.000292
 163	1.6119e+01	6.4522	34.824333	0.000700	6.995292	2.370069	0.000280
 164	1.6218e+01	6.4891	35.090784	0.000669	6.691149	2.267023	0.000268
 165	1.6318e+01	6.5260	35.357235	0.000669	6.691149	2.267023	0.000268
 166	1.6418e+01	6.5645	35.660020	0.000760	7.603579	2.576162	0.000304
 167	1.6517e+01	6.6078	36.019325	0.000902	9.022913	3.057046	0.000361
 168	1.6616e+01	6.6511	36.261553	0.000608	6.082863	2.060930	0.000243
 169	1.6716e+01	6.6864	36.544153	0.000710	7.096673	2.404418	0.000284
 170	1.6816e+01	6.7265	36.814641	0.000679	6.792530	2.301372	0.000272
 171	1.6915e+01	6.7618	37.149723	0.000841	8.414627	2.850953	0.000337
 172	1.7015e+01	6.8164	37.440397	0.000730	7.299436	2.473116	0.000292
 173	1.7114e+01	6.8437	37.698774	0.000649	6.488387	2.198325	0.000260
 174	1.7213e+01	6.8854	37.941002	0.000608	6.082863	2.060930	0.000243
 175	1.7313e+01	6.9191	38.227638	0.000720	7.198055	2.438767	0.000288
 176	1.7413e+01	6.9656	38.578869	0.000882	8.820151	2.988348	0.000353
 177	1.7512e+01	7.0105	38.849357	0.000679	6.792530	2.301372	0.000272
 178	1.7611e+01	7.0458	39.148105	0.000750	7.502198	2.541813	0.000300
 179	1.7711e+01	7.0779	39.410519	0.000659	6.589768	2.232674	0.000264
 180	1.7811e+01	7.1228	39.689081	0.000700	6.995292	2.370069	0.000280
 181	1.7910e+01	7.1629	39.975718	0.000720	7.198055	2.438767	0.000288
 182	1.8009e+01	7.2078	40.238132	0.000659	6.589768	2.232674	0.000264
 183	1.8109e+01	7.2447	40.532843	0.000740	7.400817	2.507465	0.000296
 184	1.8209e+01	7.2832	40.803331	0.000679	6.792530	2.301372	0.000272
 185	1.8308e+01	7.3346	41.130339	0.000821	8.211865	2.782255	0.000329
 186	1.8407e+01	7.3554	41.372567	0.000608	6.082863	2.060930	0.000243
 187	1.8507e+01	7.4051	41.634981	0.000659	6.589768	2.232674	0.000264
 188	1.8607e+01	7.4420	41.974100	0.000852	8.516008	2.885302	0.000341
 189	1.8706e+01	7.4837	42.268811	0.000740	7.400817	2.507465	0.000296
 190	1.8805e+01	7.5174	42.587745	0.000801	8.009103	2.713558	0.000321
 191	1.8905e+01	7.5672	42.842084	0.000639	6.387006	2.163976	0.000256
 192	1.9005e+01	7.6025	43.140832	0.000750	7.502198	2.541813	0.000300
 193	1.9104e+01	7.6474	43.419395	0.000700	6.995292	2.370069	0.000280
 194	1.9203e+01	7.6795	43.693920	0.000689	6.893911	2.335720	0.000276
 195	1.9303e+01	7.7276	43.964408	0.000679	6.792530	2.301372	0.000272
 196	1.9402e+01	7.7613	44.259119	0.000740	7.400817	2.507465	0.000296
 197	1.9502e+01	7.8094	44.553830	0.000740	7.400817	2.507465	0.000296
 198	1.9602e+01	7.8431	44.820281	0.000669	6.691149	2.267023	0.000268
 199	1.9701e+01	7.8864	45.114992	0.000740	7.400817	2.507465	0.000296
 200	1.9800e+01	7.9297	45.401629	0.000720	7.198055	2.438767	0.000288
 201	1.9900e+01	7.9602	45.696339	0.000740	7.400817	2.507465	0.000296
 202	2.0000e+01	7.9987	45.966828	0.000679	6.792530	2.301372	0.000272
 203	2.0099e+01	8.0468	46.265576	0.000750	7.502198	2.541813	0.000300
 204	2.0198e+01	8.0821	46.564324	0.000750	7.502198	2.541813	0.000300
 205	2.0298e+01	8.1303	46.786366	0.000558	5.575958	1.889186	0.000223
 206	2.0398e+01	8.1607	47.105300	0.000801	8.009103	2.713558	0.000321
 207	2.0497e+01	8.1992	47.371751	0.000669	6.691149	2.267023	0.000268
 208	2.0596e+01	8.2345	47.682610	0.000781	7.806341	2.644860	0.000312
 209	2.0696e+01	8.2778	47.969247	0.000720	7.198055	2.438767	0.000288
 210	2.0796e+01	8.3196	48.263958	0.000740	7.400817	2.507465	0.000296
 211	2.0895e+01	8.3693	48.542520	0.000700	6.995292	2.370069	0.000280
 212	2.0994e+01	8.4046	48.849342	0.000770	7.704960	2.610511	0.000308
 213	2.1094e+01	8.4415	49.079459	0.000578	5.778720	1.957883	0.000231
 214	2.1194e+01	8.4848	49.394356	0.000791	7.907722	2.679209	0.000316
 215	2.1293e+01	8.5169	49.668881	0.000689	6.893911	2.335720	0.000276
 216	2.1392e+01	8.5586	49.919183	0.000629	6.285625	2.129627	0.000252
 217	2.1492e+01	8.5939	50.230043	0.000781	7.806341	2.644860	0.000312
 218	2.1591e+01	8.6404	50.528791	0.000750	7.502198	2.541813	0.000300
 219	2.1691e+01	8.6741	50.791205	0.000659	6.589768	2.232674	0.000264
 220	2.1791e+01	8.7238	51.077841	0.000720	7.198055	2.438767	0.000288
 221	2.1890e+01	8.7559	51.344292	0.000669	6.691149	2.267023	0.000268
 222	2.1989e+01	8.7960	51.634966	0.000730	7.299436	2.473116	0.000292
 223	2.2089e+01	8.8409	51.905454	0.000679	6.792530	2.301372	0.000272
 224	2.2189e+01	8.8730	52.216314	0.000781	7.806341	2.644860	0.000312
 225	2.2288e+01	8.9163	52.511025	0.000740	7.400817	2.507465	0.000296
 226	2.2387e+01	8.9596	52.712881	0.000507	5.069052	1.717441	0.000203
 227	2.2487e+01	8.9933	53.043926	0.000831	8.313246	2.816604	0.000333
 228	2.2587e+01	9.0350	53.310377	0.000669	6.691149	2.267023	0.000268
 229	2.2686e+01	9.0816	53.629311	0.000801	8.009103	2.713558	0.000321
 230	2.2785e+01	9.1153	53.847316	0.000547	5.474577	1.854837	0.000219
 231	2.2885e+01	9.1570	54.162213	0.000791	7.907722	2.679209	0.000316
 232	2.2985e+01	9.1987	54.448850	0.000720	7.198055	2.438767	0.000288
 233	2.3084e+01	9.2356	54.691078	0.000608	6.082863	2.060930	0.000243
 234	2.3183e+01	9.2741	54.985789	0.000740	7.400817	2.507465	0.000296
 235	2.3283e+01	9.3222	55.264351	0.000700	6.995292	2.370069	0.000280
 236	2.3383e+01	9.3655	55.579248	0.000791	7.907722	2.679209	0.000316
 237	2.3482e+01	9.4072	55.886070	0.000770	7.704960	2.610511	0.000308
 238	2.3581e+01	9.4409	56.104075	0.000547	5.474577	1.854837	0.000219
 239	2.3681e+01	9.4778	56.410898	0.000770	7.704960	2.610511	0.000308
 240	2.3780e+01	9.5227	56.689460	0.000700	6.995292	2.370069	0.000280
 241	2.3880e+01	9.5564	56.972060	0.000710	7.096673	2.404418	0.000284
 242	2.3980e+01	9.5869	57.214288	0.000608	6.082863	2.060930	0.000243
 243	2.4079e+01	9.6334	57.533221	0.000801	8.009103	2.713558	0.000321
 244	2.4178e+01	9.6687	57.791598	0.000649	6.488387	2.198325	0.000260
 245	2.4278e+01	9.7072	58.054012	0.000659	6.589768	2.232674	0.000264
 246	2.4378e+01	9.7473	58.308351	0.000639	6.387006	2.163976	0.000256
 247	2.4477e+01	9.7987	58.603062	0.000740	7.400817	2.507465	0.000296
 248	2.4576e+01	9.8356	58.893736	0.000730	7.299436	2.473116	0.000292
 249	2.4676e+01	9.8757	59.144039	0.000629	6.285625	2.129627	0.000252
 250	2.4776e+01	9.9254	59.438749	0.000740	7.400817	2.507465	0.000296
 251	2.4875e+01	9.9511	59.713275	0.000689	6.893911	2.335720	0.000276
 252	2.4974e+01	9.9928	59.987800	0.000689	6.893911	2.335720	0.000276
 253	2.5074e+01	10.0313	60.282511	0.000740	7.400817	2.507465	0.000296
 254	2.5174e+01	10.0682	60.552999	0.000679	6.792530	2.301372	0.000272
 255	2.5273e+01	10.1195	60.839636	0.000720	7.198055	2.438767	0.000288
 256	2.5372e+01	10.1548	61.114161	0.000689	6.893911	2.335720	0.000276
 257	2.5472e+01	10.1853	61.392723	0.000700	6.995292	2.370069	0.000280
 258	2.5572e+01	10.2350	61.691471	0.000750	7.502198	2.541813	0.000300
 259	2.5671e+01	10.2735	61.917551	0.000568	5.677339	1.923534	0.000227
 260	2.5770e+01	10.3232	62.276856	0.000902	9.022913	3.057046	0.000361
 261	2.5870e+01	10.3505	62.462564	0.000466	4.663528	1.580046	0.000187
 262	2.5970e+01	10.3890	62.777461	0.000791	7.907722	2.679209	0.000316
 263	2.6069e+01	10.4275	63.043912	0.000669	6.691149	2.267023	0.000268
 264	2.6169e+01	10.4708	63.346697	0.000760	7.603579	2.576162	0.000304
 265	2.6268e+01	10.5013	63.609111	0.000659	6.589768	2.232674	0.000264
 266	2.6367e+01	10.5478	63.883636	0.000689	6.893911	2.335720	0.000276
 267	2.6467e+01	10.5847	64.125864	0.000608	6.082863	2.060930	0.000243
 268	2.6567e+01	10.6296	64.440761	0.000791	7.907722	2.679209	0.000316
 269	2.6666e+01	10.6681	64.743546	0.000760	7.603579	2.576162	0.000304
 270	2.6765e+01	10.7147	65.034220	0.000730	7.299436	2.473116	0.000292
 271	2.6865e+01	10.7435	65.264336	0.000578	5.778720	1.957883	0.000231
 272	2.6965e+01	10.7869	65.559047	0.000740	7.400817	2.507465	0.000296
 273	2.7064e+01	10.8270	65.789164	0.000578	5.778720	1.957883	0.000231
 274	2.7163e+01	10.8607	66.079838	0.000730	7.299436	2.473116	0.000292
 275	2.7263e+01	10.9152	66.374549	0.000740	7.400817	2.507465	0.000296
 276	2.7363e+01	10.9473	66.632925	0.000649	6.488387	2.198325	0.000260
 277	2.7462e+01	10.9938	66.907451	0.000689	6.893911	2.335720	0.000276
 278	2.7561e+01	11.0339	67.173902	0.000669	6.691149	2.267023	0.000268
 279	2.7661e+01	11.0692	67.436315	0.000659	6.589768	2.232674	0.000264
 280	2.7761e+01	11.1093	67.698729	0.000659	6.589768	2.232674	0.000264
 281	2.7860e+01	11.1526	67.985366	0.000720	7.198055	2.438767	0.000288
 282	2.7959e+01	11.1879	68.280077	0.000740	7.400817	2.507465	0.000296
 283	2.8059e+01	11.2264	68.550565	0.000679	6.792530	2.301372	0.000272
 284	2.8159e+01	11.2745	68.792793	0.000608	6.082863	2.060930	0.000243
 285	2.8258e+01	11.3130	69.071355	0.000700	6.995292	2.370069	0.000280
 286	2.8358e+01	11.3499	69.374141	0.000760	7.603579	2.576162	0.000304
 287	2.8457e+01	11.3901	69.600220	0.000568	5.677339	1.923534	0.000227
 288	2.8556e+01	11.4270	69.923191	0.000811	8.110484	2.747906	0.000325
 289	2.8656e+01	11.4671	70.141196	0.000547	5.474577	1.854837	0.000219
 290	2.8756e+01	11.5056	70.399573	0.000649	6.488387	2.198325	0.000260
 291	2.8855e+01	11.5457	70.710432	0.000781	7.806341	2.644860	0.000312
 292	2.8954e+01	11.5842	70.972846	0.000659	6.589768	2.232674	0.000264
 293	2.9054e+01	11.6291	71.263520	0.000730	7.299436	2.473116	0.000292
 294	2.9154e+01	11.6708	71.521897	0.000649	6.488387	2.198325	0.000260
 295	2.9253e+01	11.7173	71.796422	0.000689	6.893911	2.335720	0.000276
 296	2.9352e+01	11.7494	72.050762	0.000639	6.387006	2.163976	0.000256
 297	2.9452e+01	11.7799	72.325287	0.000689	6.893911	2.335720	0.000276
 298	2.9552e+01	11.8296	72.599812	0.000689	6.893911	2.335720	0.000276
 299	2.9651e+01	11.8665	72.870300	0.000679	6.792530	2.301372	0.000272
 300	2.9750e+01	11.9098	73.165011	0.000740	7.400817	2.507465	0.000296
 301	2.9850e+01	11.9419	73.407239	0.000608	6.082863	2.060930	0.000243
 302	2.9950e+01	11.9884	73.685801	0.000700	6.995292	2.370069	0.000280
 303	3.0049e+01	12.0317	74.000698	0.000791	7.907722	2.679209	0.000316
 304	3.0148e+01	12.0686	74.238889	0.000598	5.981482	2.026581	0.000239
 305	3.0248e+01	12.1007	74.501303	0.000659	6.589768	2.232674	0.000264
 306	3.0348e+01	12.1392	74.775828	0.000689	6.893911	2.335720	0.000276
 307	3.0447e+01	12.1890	75.014019	0.000598	5.981482	2.026581	0.000239
 308	3.0547e+01	12.2307	75.332953	0.000801	8.009103	2.713558	0.000321
 309	3.0646e+01	12.2547	75.534810	0.000507	5.069052	1.717441	0.000203
 310	3.0745e+01	12.3045	75.845669	0.000781	7.806341	2.644860	0.000312
 311	3.0845e+01	12.3462	76.124231	0.000700	6.995292	2.370069	0.000280
 312	3.0945e+01	12.3799	76.386645	0.000659	6.589768	2.232674	0.000264
 313	3.1044e+01	12.4296	76.657133	0.000679	6.792530	2.301372	0.000272
 314	3.1143e+01	12.4601	76.911473	0.000639	6.387006	2.163976	0.000256
 315	3.1243e+01	12.4954	77.214258	0.000760	7.603579	2.576162	0.000304
 316	3.1343e+01	12.5451	77.432263	0.000547	5.474577	1.854837	0.000219
 317	3.1442e+01	12.5804	77.710826	0.000700	6.995292	2.370069	0.000280
 318	3.1541e+01	12.6221	77.997462	0.000720	7.198055	2.438767	0.000288
 319	3.1641e+01	12.6638	78.292173	0.000740	7.400817	2.507465	0.000296
 320	3.1741e+01	12.7087	78.566699	0.000689	6.893911	2.335720	0.000276
 321	3.1840e+01	12.7488	78.833150	0.000669	6.691149	2.267023	0.000268
 322	3.1939e+01	12.7841	79.107675	0.000689	6.893911	2.335720	0.000276
 323	3.2039e+01	12.8194	79.374126	0.000669	6.691149	2.267023	0.000268
 324	3.2139e+01	12.8692	79.628465	0.000639	6.387006	2.163976	0.000256
 325	3.2238e+01	12.8996	79.886842	0.000649	6.488387	2.198325	0.000260
 326	3.2337e+01	12.9446	80.161367	0.000689	6.893911	2.335720	0.000276
 327	3.2437e+01	12.9750	80.415707	0.000639	6.387006	2.163976	0.000256
 328	3.2536e+01	13.0183	80.678121	0.000659	6.589768	2.232674	0.000264
 329	3.2636e+01	13.0569	80.960720	0.000710	7.096673	2.404418	0.000284
 330	3.2736e+01	13.1066	81.202948	0.000608	6.082863	2.060930	0.000243
 331	3.2835e+01	13.1355	81.493622	0.000730	7.299436	2.473116	0.000292
 332	3.2934e+01	13.1836	81.768147	0.000689	6.893911	2.335720	0.000276
 333	3.3034e+01	13.2173	82.026524	0.000649	6.488387	2.198325	0.000260
 334	3.3133e+01	13.2606	82.292975	0.000669	6.691149	2.267023	0.000268
 335	3.3233e+01	13.2959	82.571537	0.000700	6.995292	2.370069	0.000280
 336	3.3333e+01	13.3392	82.817803	0.000618	6.184244	2.095279	0.000248
 337	3.3432e+01	13.3713	83.100402	0.000710	7.096673	2.404418	0.000284
 338	3.3532e+01	13.4226	83.362816	0.000659	6.589768	2.232674	0.000264
 339	3.3631e+01	13.4611	83.673675	0.000781	7.806341	2.644860	0.000312
 340	3.3730e+01	13.4900	83.915903	0.000608	6.082863	2.060930	0.000243
 341	3.3830e+01	13.5429	84.158132	0.000608	6.082863	2.060930	0.000243
 342	3.3929e+01	13.5750	84.468991	0.000781	7.806341	2.644860	0.000312
 343	3.4029e+01	13.6231	84.719293	0.000629	6.285625	2.129627	0.000252
 344	3.4129e+01	13.6520	84.993819	0.000689	6.893911	2.335720	0.000276
 345	3.4228e+01	13.6905	85.268344	0.000689	6.893911	2.335720	0.000276
 346	3.4328e+01	13.7338	85.514609	0.000618	6.184244	2.095279	0.000248
 347	3.4427e+01	13.7820	85.797209	0.000710	7.096673	2.404418	0.000284
 348	3.4526e+01	13.8157	86.055585	0.000649	6.488387	2.198325	0.000260
 349	3.4626e+01	13.8606	86.342222	0.000720	7.198055	2.438767	0.000288
 350	3.4725e+01	13.8911	86.600599	0.000649	6.488387	2.198325	0.000260
 351	3.4825e+01	13.9360	86.822641	0.000558	5.575958	1.889186	0.000223
 352	3.4925e+01	13.9809	87.117352	0.000740	7.400817	2.507465	0.000296
 353	3.5024e+01	14.0194	87.391877	0.000689	6.893911	2.335720	0.000276
 354	3.5123e+01	14.0659	87.662365	0.000679	6.792530	2.301372	0.000272
 355	3.5223e+01	14.1044	87.928816	0.000669	6.691149	2.267023	0.000268
 356	3.5322e+01	14.1365	88.207379	0.000700	6.995292	2.370069	0.000280
 357	3.5422e+01	14.1814	88.429421	0.000558	5.575958	1.889186	0.000223
 358	3.5522e+01	14.2119	88.748355	0.000801	8.009103	2.713558	0.000321
 359	3.5621e+01	14.2552	89.006732	0.000649	6.488387	2.198325	0.000260
 360	3.5721e+01	14.2985	89.269145	0.000659	6.589768	2.232674	0.000264
 361	3.5820e+01	14.3450	89.511374	0.000608	6.082863	2.060930	0.000243
 362	3.5919e+01	14.3739	89.802047	0.000730	7.299436	2.473116	0.000292
 363	3.6019e+01	14.4253	90.080610	0.000700	6.995292	2.370069	0.000280
 364	3.6118e+01	14.4541	90.310726	0.000578	5.778720	1.957883	0.000231
 365	3.6218e+01	14.4878	90.601400	0.000730	7.299436	2.473116	0.000292
 366	3.6318e+01	14.5360	90.847666	0.000618	6.184244	2.095279	0.000248
 367	3.6417e+01	14.5729	91.077782	0.000578	5.778720	1.957883	0.000231
 368	3.6517e+01	14.6114	91.408827	0.000831	8.313246	2.816604	0.000333
 369	3.6616e+01	14.6515	91.626833	0.000547	5.474577	1.854837	0.000219
 370	3.6715e+01	14.6964	91.941729	0.000791	7.907722	2.679209	0.000316
 371	3.6815e+01	14.7285	92.175883	0.000588	5.880101	1.992232	0.000235
 372	3.6914e+01	14.7766	92.430223	0.000639	6.387006	2.163976	0.000256
 373	3.7014e+01	14.8071	92.720896	0.000730	7.299436	2.473116	0.000292
 374	3.7114e+01	14.8584	92.959088	0.000598	5.981482	2.026581	0.000239
 375	3.7213e+01	14.8905	93.249761	0.000730	7.299436	2.473116	0.000292
 376	3.7313e+01	14.9226	93.540435	0.000730	7.299436	2.473116	0.000292
 377	3.7412e+01	14.9643	93.770552	0.000578	5.778720	1.957883	0.000231
 378	3.7511e+01	15.0188	93.996631	0.000568	5.677339	1.923534	0.000227
 379	3.7611e+01	15.0605	94.307491	0.000781	7.806341	2.644860	0.000312
 380	3.7711e+01	15.0942	94.573942	0.000669	6.691149	2.267023	0.000268
 381	3.7810e+01	15.1279	94.852504	0.000700	6.995292	2.370069	0.000280
 382	3.7910e+01	15.1712	95.090695	0.000598	5.981482	2.026581	0.000239
 383	3.8009e+01	15.2129	95.336960	0.000618	6.184244	2.095279	0.000248
 384	3.8108e+01	15.2482	95.615523	0.000700	6.995292	2.370069	0.000280
 385	3.8208e+01	15.2851	95.890048	0.000689	6.893911	2.335720	0.000276
 386	3.8307e+01	15.3268	96.152462	0.000659	6.589768	2.232674	0.000264
 387	3.8407e+01	15.3669	96.386616	0.000588	5.880101	1.992232	0.000235
 388	3.8507e+01	15.4119	96.644992	0.000649	6.488387	2.198325	0.000260
 389	3.8606e+01	15.4520	96.931629	0.000720	7.198055	2.438767	0.000288
 390	3.8706e+01	15.4825	97.165783	0.000588	5.880101	1.992232	0.000235
 391	3.8805e+01	15.5370	97.452420	0.000720	7.198055	2.438767	0.000288
 392	3.8904e+01	15.5739	97.710796	0.000649	6.488387	2.198325	0.000260
 393	3.9004e+01	15.6140	97.989359	0.000700	6.995292	2.370069	0.000280
 394	3.9103e+01	15.6493	98.187178	0.000497	4.967671	1.683093	0.000199
 395	3.9203e+01	15.6878	98.473815	0.000720	7.198055	2.438767	0.000288
 396	3.9303e+01	15.7279	98.784674	0.000781	7.806341	2.644860	0.000312
 397	3.9402e+01	15.7664	99.022865	0.000598	5.981482	2.026581	0.000239
 398	3.9502e+01	15.7969	99.269131	0.000618	6.184244	2.095279	0.000248
 399	3.9601e+01	15.8450	99.523470	0.000639	6.387006	2.163976	0.000256
 400	3.9700e+01	15.8899	99.806070	0.000710	7.096673	2.404418	0.000284
 401	3.9800e+01	15.9316	100.040224	0.000588	5.880101	1.992232	0.000235
 402	3.9900e+01	15.9782	100.294563	0.000639	6.387006	2.163976	0.000256
 403	3.9999e+01	16.0054	100.601385	0.000770	7.704960	2.610511	0.000308
 404	4.0099e+01	16.0439	100.815354	0.000537	5.373196	1.820488	0.000215
 405	4.0198e+01	16.0856	101.085842	0.000679	6.792530	2.301372	0.000272
 406	4.0297e+01	16.1209	101.352293	0.000669	6.691149	2.267023	0.000268
 407	4.0397e+01	16.1642	101.582409	0.000578	5.778720	1.957883	0.000231
 408	4.0496e+01	16.2092	101.869046	0.000720	7.198055	2.438767	0.000288
 409	4.0596e+01	16.2525	102.111274	0.000608	6.082863	2.060930	0.000243
 410	4.0696e+01	16.2862	102.349465	0.000598	5.981482	2.026581	0.000239
 411	4.0795e+01	16.3167	102.607842	0.000649	6.488387	2.198325	0.000260
 412	4.0895e+01	16.3712	102.862181	0.000639	6.387006	2.163976	0.000256
 413	4.0994e+01	16.4129	103.156892	0.000740	7.400817	2.507465	0.000296
 414	4.1093e+01	16.4562	103.399121	0.000608	6.082863	2.060930	0.000243
 415	4.1193e+01	16.4835	103.629237	0.000578	5.778720	1.957883	0.000231
 416	4.1292e+01	16.5300	103.883577	0.000639	6.387006	2.163976	0.000256
 417	4.1392e+01	16.5637	104.174251	0.000730	7.299436	2.473116	0.000292
 418	4.1492e+01	16.6118	104.428590	0.000639	6.387006	2.163976	0.000256
 419	4.1591e+01	16.6455	104.662744	0.000588	5.880101	1.992232	0.000235
 420	4.1691e+01	16.6792	104.937269	0.000689	6.893911	2.335720	0.000276
 421	4.1790e+01	16.7273	105.147200	0.000527	5.271815	1.786139	0.000211
 422	4.1889e+01	16.7578	105.433837	0.000720	7.198055	2.438767	0.000288
 423	4.1989e+01	16.8075	105.704325	0.000679	6.792530	2.301372	0.000272
 424	4.2089e+01	16.8412	105.910219	0.000517	5.170434	1.751790	0.000207
 425	4.2188e+01	16.8829	106.200893	0.000730	7.299436	2.473116	0.000292
 426	4.2288e+01	16.9263	106.426972	0.000568	5.677339	1.923534	0.000227
 427	4.2387e+01	16.9583	106.749943	0.000811	8.110484	2.747906	0.000325
 428	4.2486e+01	17.0033	106.963911	0.000537	5.373196	1.820488	0.000215
 429	4.2586e+01	17.0418	107.230362	0.000669	6.691149	2.267023	0.000268
 430	4.2685e+01	17.0819	107.504888	0.000689	6.893911	2.335720	0.000276
 431	4.2785e+01	17.1220	107.763264	0.000649	6.488387	2.198325	0.000260
 432	4.2885e+01	17.1717	108.009530	0.000618	6.184244	2.095279	0.000248
 433	4.2984e+01	17.2070	108.267906	0.000649	6.488387	2.198325	0.000260
 434	4.3084e+01	17.2487	108.493986	0.000568	5.677339	1.923534	0.000227
 435	4.3183e+01	17.2904	108.756400	0.000659	6.589768	2.232674	0.000264
 436	4.3282e+01	17.3289	108.994591	0.000598	5.981482	2.026581	0.000239
 437	4.3382e+01	17.3594	109.265079	0.000679	6.792530	2.301372	0.000272
 438	4.3481e+01	17.4107	109.503270	0.000598	5.981482	2.026581	0.000239
 439	4.3581e+01	17.4476	109.781832	0.000700	6.995292	2.370069	0.000280
 440	4.3681e+01	17.4829	109.999837	0.000547	5.474577	1.854837	0.000219
 441	4.3780e+01	17.5246	110.266288	0.000669	6.691149	2.267023	0.000268
 442	4.3880e+01	17.5696	110.532739	0.000669	6.691149	2.267023	0.000268
 443	4.3979e+01	17.6032	110.791116	0.000649	6.488387	2.198325	0.000260
 444	4.4078e+01	17.6417	111.025270	0.000588	5.880101	1.992232	0.000235
 445	4.4178e+01	17.6883	111.291721	0.000669	6.691149	2.267023	0.000268
 446	4.4278e+01	17.7252	111.529912	0.000598	5.981482	2.026581	0.000239
 447	4.4377e+01	17.7605	111.772140	0.000608	6.082863	2.060930	0.000243
 448	4.4477e+01	17.7974	112.046665	0.000689	6.893911	2.335720	0.000276
 449	4.4576e+01	17.8439	112.292931	0.000618	6.184244	2.095279	0.000248
 450	4.4675e+01	17.8776	112.486713	0.000487	4.866290	1.648744	0.000195
 451	4.4775e+01	17.9257	112.781424	0.000740	7.400817	2.507465	0.000296
 452	4.4874e+01	17.9642	112.987318	0.000517	5.170434	1.751790	0.000207
 453	4.4974e+01	17.9995	113.253769	0.000669	6.691149	2.267023	0.000268
 454	4.5074e+01	18.0460	113.532331	0.000700	6.995292	2.370069	0.000280
 455	4.5173e+01	18.0797	113.754374	0.000558	5.575958	1.889186	0.000223
 456	4.5273e+01	18.1182	114.004676	0.000629	6.285625	2.129627	0.000252
 457	4.5372e+01	18.1631	114.218644	0.000537	5.373196	1.820488	0.000215
 458	4.5471e+01	18.2080	114.513355	0.000740	7.400817	2.507465	0.000296
 459	4.5571e+01	18.2481	114.755583	0.000608	6.082863	2.060930	0.000243
 460	4.5670e+01	18.2818	114.985700	0.000578	5.778720	1.957883	0.000231
 461	4.5770e+01	18.3123	115.219854	0.000588	5.880101	1.992232	0.000235
 462	4.5870e+01	18.3653	115.462082	0.000608	6.082863	2.060930	0.000243
 463	4.5969e+01	18.4118	115.712385	0.000629	6.285625	2.129627	0.000252
 464	4.6069e+01	18.4407	115.958650	0.000618	6.184244	2.095279	0.000248
 465	4.6168e+01	18.4856	116.204915	0.000618	6.184244	2.095279	0.000248
 466	4.6267e+01	18.5128	116.459255	0.000639	6.387006	2.163976	0.000256
 467	4.6367e+01	18.5642	116.701483	0.000608	6.082863	2.060930	0.000243
 468	4.6467e+01	18.5979	116.959859	0.000649	6.488387	2.198325	0.000260
 469	4.6566e+01	18.6396	117.189976	0.000578	5.778720	1.957883	0.000231
 470	4.6666e+01	18.6765	117.424130	0.000588	5.880101	1.992232	0.000235
 471	4.6765e+01	18.7214	117.690581	0.000669	6.691149	2.267023	0.000268
 472	4.6864e+01	18.7631	117.961069	0.000679	6.792530	2.301372	0.000272
 473	4.6964e+01	18.8032	118.183112	0.000558	5.575958	1.889186	0.000223
 474	4.7063e+01	18.8385	118.465711	0.000710	7.096673	2.404418	0.000284
 475	4.7163e+01	18.8674	118.679679	0.000537	5.373196	1.820488	0.000215
 476	4.7263e+01	18.9203	118.921907	0.000608	6.082863	2.060930	0.000243
 477	4.7362e+01	18.9588	119.164136	0.000608	6.082863	2.060930	0.000243
 478	4.7462e+01	19.0005	119.434624	0.000679	6.792530	2.301372	0.000272
 479	4.7561e+01	19.0342	119.668778	0.000588	5.880101	1.992232	0.000235
 480	4.7660e+01	19.0775	119.894857	0.000568	5.677339	1.923534	0.000227
 481	4.7760e+01	19.1192	120.096714	0.000507	5.069052	1.717441	0.000203
 482	4.7859e+01	19.1577	120.367202	0.000679	6.792530	2.301372	0.000272
 483	4.7959e+01	19.1914	120.617504	0.000629	6.285625	2.129627	0.000252
 484	4.8059e+01	19.2315	120.859733	0.000608	6.082863	2.060930	0.000243
 485	4.8158e+01	19.2877	121.093886	0.000588	5.880101	1.992232	0.000235
 486	4.8258e+01	19.3182	121.328040	0.000588	5.880101	1.992232	0.000235
 487	4.8357e+01	19.3615	121.586417	0.000649	6.488387	2.198325	0.000260
 488	4.8456e+01	19.3984	121.844794	0.000649	6.488387	2.198325	0.000260
 489	4.8556e+01	19.4353	122.103170	0.000649	6.488387	2.198325	0.000260
 490	4.8656e+01	19.4706	122.276767	0.000436	4.359385	1.477000	0.000174
 491	4.8755e+01	19.5123	122.539181	0.000659	6.589768	2.232674	0.000264
 492	4.8855e+01	19.5508	122.801595	0.000659	6.589768	2.232674	0.000264
 493	4.8954e+01	19.5957	123.039786	0.000598	5.981482	2.026581	0.000239
 494	4.9053e+01	19.6342	123.261828	0.000558	5.575958	1.889186	0.000223
 495	4.9153e+01	19.6743	123.520205	0.000649	6.488387	2.198325	0.000260
 496	4.9252e+01	19.7080	123.758396	0.000598	5.981482	2.026581	0.000239
 497	4.9352e+01	19.7513	123.984476	0.000568	5.677339	1.923534	0.000227
 498	4.9452e+01	19.7962	124.234778	0.000629	6.285625	2.129627	0.000252
 499	4.9551e+01	19.8444	124.477006	0.000608	6.082863	2.060930	0.000243
 500	4.9651e+01	19.8620	124.707123	0.000578	5.778720	1.957883	0.000231
 501	4.9750e+01	19.9166	124.949351	0.000608	6.082863	2.060930	0.000243
 502	4.9849e+01	19.9551	125.167356	0.000547	5.474577	1.854837	0.000219
 503	4.9949e+01	19.9952	125.445919	0.000700	6.995292	2.370069	0.000280
 504	5.0048e+01	19.9518	125.276359	0.000426	4.258004	1.442651	-0.000170
 505	5.0148e+01	19.9133	125.102762	0.000436	4.359385	1.477000	-0.000174
 506	5.0248e+01	19.8732	124.921091	0.000456	4.562147	1.545697	-0.000183
 507	5.0347e+01	19.8379	124.719234	0.000507	5.069052	1.717441	-0.000203
 508	5.0447e+01	19.7930	124.549675	0.000426	4.258004	1.442651	-0.000170
 509	5.0546e+01	19.7561	124.368004	0.000456	4.562147	1.545697	-0.000183
 510	5.0645e+01	19.7224	124.162110	0.000517	5.170434	1.751790	-0.000207
 511	5.0745e+01	19.6823	123.992550	0.000426	4.258004	1.442651	-0.000170
 512	5.0844e+01	19.6390	123.786656	0.000517	5.170434	1.751790	-0.000207
 513	5.0944e+01	19.5877	123.600948	0.000466	4.663528	1.580046	-0.000187
 514	5.1044e+01	19.5556	123.358720	0.000608	6.082863	2.060930	-0.000243
 515	5.1143e+01	19.5075	123.168974	0.000476	4.764909	1.614395	-0.000191
 516	5.1242e+01	19.4674	122.983266	0.000466	4.663528	1.580046	-0.000187
 517	5.1342e+01	19.4305	122.813706	0.000426	4.258004	1.442651	-0.000170
 518	5.1441e+01	19.3920	122.595701	0.000547	5.474577	1.854837	-0.000219
 519	5.1541e+01	19.3583	122.409993	0.000466	4.663528	1.580046	-0.000187
 520	5.1641e+01	19.3198	122.220247	0.000476	4.764909	1.614395	-0.000191
 521	5.1740e+01	19.2797	121.982056	0.000598	5.981482	2.026581	-0.000239
 522	5.1840e+01	19.2331	121.776162	0.000517	5.170434	1.751790	-0.000207
 523	5.1939e+01	19.2027	121.594491	0.000456	4.562147	1.545697	-0.000183
 524	5.2038e+01	19.1545	121.392635	0.000507	5.069052	1.717441	-0.000203
 525	5.2138e+01	19.1064	121.190778	0.000507	5.069052	1.717441	-0.000203
 526	5.2237e+01	19.0759	120.984884	0.000517	5.170434	1.751790	-0.000207
 527	5.2337e+01	19.0310	120.783027	0.000507	5.069052	1.717441	-0.000203
 528	5.2437e+01	18.9989	120.556947	0.000568	5.677339	1.923534	-0.000227
 529	5.2536e+01	18.9556	120.342979	0.000537	5.373196	1.820488	-0.000215
 530	5.2636e+01	18.9219	120.197642	0.000365	3.649718	1.236558	-0.000146
 531	5.2735e+01	18.8818	119.979637	0.000547	5.474577	1.854837	-0.000219
 532	5.2834e+01	18.8401	119.761632	0.000547	5.474577	1.854837	-0.000219
 533	5.2934e+01	18.7984	119.559775	0.000507	5.069052	1.717441	-0.000203
 534	5.3033e+01	18.7583	119.357918	0.000507	5.069052	1.717441	-0.000203
 535	5.3133e+01	18.7134	119.131838	0.000568	5.677339	1.923534	-0.000227
 536	5.3233e+01	18.6861	118.921907	0.000527	5.271815	1.786139	-0.000211
 537	5.3332e+01	18.6380	118.736199	0.000466	4.663528	1.580046	-0.000187
 538	5.3431e+01	18.6011	118.510120	0.000568	5.677339	1.923534	-0.000227
 539	5.3531e+01	18.5449	118.288077	0.000558	5.575958	1.889186	-0.000223
 540	5.3630e+01	18.5145	118.142740	0.000365	3.649718	1.236558	-0.000146
 541	5.3730e+01	18.4824	117.892438	0.000629	6.285625	2.129627	-0.000252
 542	5.3830e+01	18.4407	117.690581	0.000507	5.069052	1.717441	-0.000203
 543	5.3929e+01	18.4070	117.480650	0.000527	5.271815	1.786139	-0.000211
 544	5.4029e+01	18.3620	117.282830	0.000497	4.967671	1.683093	-0.000199
 545	5.4128e+01	18.3219	117.080974	0.000507	5.069052	1.717441	-0.000203
 546	5.4227e+01	18.2738	116.810485	0.000679	6.792530	2.301372	-0.000272
 547	5.4327e+01	18.2433	116.640926	0.000426	4.258004	1.442651	-0.000170
 548	5.4426e+01	18.2016	116.426958	0.000537	5.373196	1.820488	-0.000215
 549	5.4526e+01	18.1663	116.164544	0.000659	6.589768	2.232674	-0.000264
 550	5.4626e+01	18.1134	115.999021	0.000416	4.156623	1.408302	-0.000166
 551	5.4725e+01	18.0797	115.801202	0.000497	4.967671	1.683093	-0.000199
 552	5.4825e+01	18.0428	115.579159	0.000558	5.575958	1.889186	-0.000223
 553	5.4924e+01	18.0075	115.397488	0.000456	4.562147	1.545697	-0.000183
 554	5.5023e+01	17.9674	115.147186	0.000629	6.285625	2.129627	-0.000252
 555	5.5123e+01	17.9177	114.921106	0.000568	5.677339	1.923534	-0.000227
 556	5.5222e+01	17.8840	114.711175	0.000527	5.271815	1.786139	-0.000211
 557	5.5322e+01	17.8455	114.541615	0.000426	4.258004	1.442651	-0.000170
 558	5.5422e+01	17.8070	114.299387	0.000608	6.082863	2.060930	-0.000243
 559	5.5521e+01	17.7637	114.093493	0.000517	5.170434	1.751790	-0.000207
 560	5.5620e+01	17.7204	113.875488	0.000547	5.474577	1.854837	-0.000219
 561	5.5720e+01	17.6786	113.665557	0.000527	5.271815	1.786139	-0.000211
 562	5.5819e+01	17.6434	113.471774	0.000487	4.866290	1.648744	-0.000195
 563	5.5919e+01	17.6049	113.241657	0.000578	5.778720	1.957883	-0.000231
 564	5.6019e+01	17.5680	113.011541	0.000578	5.778720	1.957883	-0.000231
 565	5.6118e+01	17.5118	112.761238	0.000629	6.285625	2.129627	-0.000252
 566	5.6218e+01	17.4765	112.547270	0.000537	5.373196	1.820488	-0.000215
 567	5.6317e+01	17.4412	112.369636	0.000446	4.460766	1.511348	-0.000179
 568	5.6416e+01	17.4059	112.139519	0.000578	5.778720	1.957883	-0.000231
 569	5.6516e+01	17.3610	111.925551	0.000537	5.373196	1.820488	-0.000215
 570	5.6615e+01	17.3225	111.691397	0.000588	5.880101	1.992232	-0.000235
 571	5.6715e+01	17.2840	111.465318	0.000568	5.677339	1.923534	-0.000227
 572	5.6815e+01	17.2503	111.247312	0.000547	5.474577	1.854837	-0.000219
 573	5.6914e+01	17.2070	111.013159	0.000588	5.880101	1.992232	-0.000235
 574	5.7014e+01	17.1669	110.831487	0.000456	4.562147	1.545697	-0.000183
 575	5.7113e+01	17.1204	110.617519	0.000537	5.373196	1.820488	-0.000215
 576	5.7212e+01	17.0787	110.367217	0.000629	6.285625	2.129627	-0.000252
 577	5.7312e+01	17.0450	110.165360	0.000507	5.069052	1.717441	-0.000203
 578	5.7411e+01	17.0065	109.939280	0.000568	5.677339	1.923534	-0.000227
 579	5.7511e+01	16.9648	109.721275	0.000547	5.474577	1.854837	-0.000219
 580	5.7611e+01	16.9166	109.487121	0.000588	5.880101	1.992232	-0.000235
 581	5.7710e+01	16.8749	109.257004	0.000578	5.778720	1.957883	-0.000231
 582	5.7809e+01	16.8364	109.055148	0.000507	5.069052	1.717441	-0.000203
 583	5.7909e+01	16.8108	108.845217	0.000527	5.271815	1.786139	-0.000211
 584	5.8008e+01	16.7690	108.643360	0.000507	5.069052	1.717441	-0.000203
 585	5.8108e+01	16.7193	108.397095	0.000618	6.184244	2.095279	-0.000248
 586	5.8208e+01	16.6840	108.179089	0.000547	5.474577	1.854837	-0.000219
 587	5.8307e+01	16.6487	107.953010	0.000568	5.677339	1.923534	-0.000227
 588	5.8407e+01	16.6070	107.755190	0.000497	4.967671	1.683093	-0.000199
 589	5.8506e+01	16.5621	107.508925	0.000618	6.184244	2.095279	-0.000248
 590	5.8605e+01	16.5300	107.266697	0.000608	6.082863	2.060930	-0.000243
 591	5.8705e+01	16.4899	107.056766	0.000527	5.271815	1.786139	-0.000211
 592	5.8804e+01	16.4434	106.838760	0.000547	5.474577	1.854837	-0.000219
 593	5.8904e+01	16.4081	106.628829	0.000527	5.271815	1.786139	-0.000211
 594	5.9004e+01	16.3616	106.382564	0.000618	6.184244	2.095279	-0.000248
 595	5.9103e+01	16.3247	106.168596	0.000537	5.373196	1.820488	-0.000215
 596	5.9203e+01	16.2846	105.942516	0.000568	5.677339	1.923534	-0.000227
 597	5.9302e+01	16.2525	105.768919	0.000436	4.359385	1.477000	-0.000174
 598	5.9401e+01	16.2092	105.470171	0.000750	7.502198	2.541813	-0.000300
 599	5.9501e+01	16.1771	105.260240	0.000527	5.271815	1.786139	-0.000211
 600	5.9600e+01	16.1241	105.078569	0.000456	4.562147	1.545697	-0.000183
 601	5.9700e+01	16.0905	104.844415	0.000588	5.880101	1.992232	-0.000235
 602	5.9800e+01	16.0536	104.598150	0.000618	6.184244	2.095279	-0.000248
 603	5.9899e+01	16.0118	104.436664	0.000406	4.055242	1.373953	-0.000162
 604	5.9998e+01	15.9685	104.174251	0.000659	6.589768	2.232674	-0.000264
 605	6.0098e+01	15.9348	103.972394	0.000507	5.069052	1.717441	-0.000203
 606	6.0197e+01	15.8899	103.693831	0.000700	6.995292	2.370069	-0.000280
 607	6.0297e+01	15.8370	103.532346	0.000406	4.055242	1.373953	-0.000162
 608	6.0397e+01	15.8129	103.237635	0.000740	7.400817	2.507465	-0.000296
 609	6.0496e+01	15.7728	103.011555	0.000568	5.677339	1.923534	-0.000227
 610	6.0596e+01	15.7343	102.825847	0.000466	4.663528	1.580046	-0.000187
 611	6.0695e+01	15.6830	102.599768	0.000568	5.677339	1.923534	-0.000227
 612	6.0794e+01	15.6509	102.377725	0.000558	5.575958	1.889186	-0.000223
 613	6.0894e+01	15.6060	102.147608	0.000578	5.778720	1.957883	-0.000231
 614	6.0993e+01	15.5659	101.913455	0.000588	5.880101	1.992232	-0.000235
 615	6.1093e+01	15.5306	101.683338	0.000578	5.778720	1.957883	-0.000231
 616	6.1193e+01	15.4825	101.453221	0.000578	5.778720	1.957883	-0.000231
 617	6.1292e+01	15.4520	101.190807	0.000659	6.589768	2.232674	-0.000264
 618	6.1392e+01	15.4071	100.988950	0.000507	5.069052	1.717441	-0.000203
 619	6.1491e+01	15.3702	100.750759	0.000598	5.981482	2.026581	-0.000239
 620	6.1590e+01	15.3381	100.500457	0.000629	6.285625	2.129627	-0.000252
 621	6.1690e+01	15.3012	100.270340	0.000578	5.778720	1.957883	-0.000231
 622	6.1789e+01	15.2514	100.028112	0.000608	6.082863	2.060930	-0.000243
 623	6.1889e+01	15.2129	99.797995	0.000578	5.778720	1.957883	-0.000231
 624	6.1989e+01	15.1744	99.628436	0.000426	4.258004	1.442651	-0.000170
 625	6.2088e+01	15.1199	99.366022	0.000659	6.589768	2.232674	-0.000264
 626	6.2188e+01	15.0878	99.139942	0.000568	5.677339	1.923534	-0.000227
 627	6.2287e+01	15.0605	98.889640	0.000629	6.285625	2.129627	-0.000252
 628	6.2386e+01	15.0188	98.683746	0.000517	5.170434	1.751790	-0.000207
 629	6.2486e+01	14.9723	98.401146	0.000710	7.096673	2.404418	-0.000284
 630	6.2586e+01	14.9386	98.179104	0.000558	5.575958	1.889186	-0.000223
 631	6.2685e+01	14.8921	97.977247	0.000507	5.069052	1.717441	-0.000203
 632	6.2785e+01	14.8552	97.751168	0.000568	5.677339	1.923534	-0.000227
 633	6.2884e+01	14.8167	97.525088	0.000568	5.677339	1.923534	-0.000227
 634	6.2983e+01	14.7734	97.270748	0.000639	6.387006	2.163976	-0.000256
 635	6.3083e+01	14.7349	97.064855	0.000517	5.170434	1.751790	-0.000207
 636	6.3182e+01	14.6916	96.842812	0.000558	5.575958	1.889186	-0.000223
 637	6.3282e+01	14.6499	96.564250	0.000700	6.995292	2.370069	-0.000280
 638	6.3382e+01	14.6226	96.326059	0.000598	5.981482	2.026581	-0.000239
 639	6.3481e+01	14.5729	96.128239	0.000497	4.967671	1.683093	-0.000199
 640	6.3581e+01	14.5408	95.894085	0.000588	5.880101	1.992232	-0.000235
 641	6.3680e+01	14.5023	95.676080	0.000547	5.474577	1.854837	-0.000219
 642	6.3779e+01	14.4493	95.393480	0.000710	7.096673	2.404418	-0.000284
 643	6.3879e+01	14.4140	95.203735	0.000476	4.764909	1.614395	-0.000191
 644	6.3978e+01	14.3739	94.989767	0.000537	5.373196	1.820488	-0.000215
 645	6.4078e+01	14.3450	94.711204	0.000700	6.995292	2.370069	-0.000280
 646	6.4177e+01	14.2985	94.473013	0.000598	5.981482	2.026581	-0.000239
 647	6.4277e+01	14.2616	94.279231	0.000487	4.866290	1.648744	-0.000195
 648	6.4376e+01	14.2199	94.041040	0.000598	5.981482	2.026581	-0.000239
 649	6.4476e+01	14.1830	93.770552	0.000679	6.792530	2.301372	-0.000272
 650	6.4576e+01	14.1317	93.576769	0.000487	4.866290	1.648744	-0.000195
 651	6.4675e+01	14.0996	93.314355	0.000659	6.589768	2.232674	-0.000264
 652	6.4775e+01	14.0659	93.068090	0.000618	6.184244	2.095279	-0.000248
 653	6.4874e+01	14.0178	92.846048	0.000558	5.575958	1.889186	-0.000223
 654	6.4974e+01	13.9809	92.607857	0.000598	5.981482	2.026581	-0.000239
 655	6.5073e+01	13.9376	92.341406	0.000669	6.691149	2.267023	-0.000268
 656	6.5172e+01	13.8959	92.143586	0.000497	4.967671	1.683093	-0.000199
 657	6.5272e+01	13.8606	91.897321	0.000618	6.184244	2.095279	-0.000248
 658	6.5371e+01	13.8092	91.647018	0.000629	6.285625	2.129627	-0.000252
 659	6.5471e+01	13.7852	91.424976	0.000558	5.575958	1.889186	-0.000223
 660	6.5570e+01	13.7419	91.170636	0.000639	6.387006	2.163976	-0.000256
 661	6.5670e+01	13.7001	90.952631	0.000547	5.474577	1.854837	-0.000219
 662	6.5769e+01	13.6520	90.726551	0.000568	5.677339	1.923534	-0.000227
 663	6.5869e+01	13.6119	90.480286	0.000618	6.184244	2.095279	-0.000248
 664	6.5969e+01	13.5782	90.250169	0.000578	5.778720	1.957883	-0.000231
 665	6.6068e+01	13.5413	89.987756	0.000659	6.589768	2.232674	-0.000264
 666	6.6168e+01	13.4996	89.749565	0.000598	5.981482	2.026581	-0.000239
 667	6.6267e+01	13.4579	89.531559	0.000547	5.474577	1.854837	-0.000219
 668	6.6367e+01	13.4146	89.285294	0.000618	6.184244	2.095279	-0.000248
 669	6.6466e+01	13.3841	89.067289	0.000547	5.474577	1.854837	-0.000219
 670	6.6566e+01	13.3440	88.825061	0.000608	6.082863	2.060930	-0.000243
 671	6.6665e+01	13.2991	88.570721	0.000639	6.387006	2.163976	-0.000256
 672	6.6764e+01	13.2606	88.332530	0.000598	5.981482	2.026581	-0.000239
 673	6.6864e+01	13.2173	88.082228	0.000629	6.285625	2.129627	-0.000252
 674	6.6963e+01	13.1756	87.823851	0.000649	6.488387	2.198325	-0.000260
 675	6.7063e+01	13.1371	87.609883	0.000537	5.373196	1.820488	-0.000215
 676	6.7162e+01	13.0889	87.343432	0.000669	6.691149	2.267023	-0.000268
 677	6.7262e+01	13.0633	87.101204	0.000608	6.082863	2.060930	-0.000243
 678	6.7362e+01	13.0200	86.903384	0.000497	4.967671	1.683093	-0.000199
 679	6.7461e+01	12.9815	86.628859	0.000689	6.893911	2.335720	-0.000276
 680	6.7561e+01	12.9478	86.427002	0.000507	5.069052	1.717441	-0.000203
 681	6.7660e+01	12.9061	86.200922	0.000568	5.677339	1.923534	-0.000227
 682	6.7760e+01	12.8643	85.906211	0.000740	7.400817	2.507465	-0.000296
 683	6.7859e+01	12.8162	85.668020	0.000598	5.981482	2.026581	-0.000239
 684	6.7959e+01	12.7905	85.458089	0.000527	5.271815	1.786139	-0.000211
 685	6.8058e+01	12.7456	85.219898	0.000598	5.981482	2.026581	-0.000239
 686	6.8157e+01	12.7023	84.965559	0.000639	6.387006	2.163976	-0.000256
 687	6.8257e+01	12.6606	84.743516	0.000558	5.575958	1.889186	-0.000223
 688	6.8356e+01	12.6125	84.485140	0.000649	6.488387	2.198325	-0.000260
 689	6.8456e+01	12.5868	84.234837	0.000629	6.285625	2.129627	-0.000252
 690	6.8555e+01	12.5515	83.988572	0.000618	6.184244	2.095279	-0.000248
 691	6.8655e+01	12.5002	83.762492	0.000568	5.677339	1.923534	-0.000227
 692	6.8754e+01	12.4681	83.516227	0.000618	6.184244	2.095279	-0.000248
 693	6.8854e+01	12.4296	83.265925	0.000629	6.285625	2.129627	-0.000252
 694	6.8954e+01	12.3847	83.027734	0.000598	5.981482	2.026581	-0.000239
 695	6.9053e+01	12.3446	82.777431	0.000629	6.285625	2.129627	-0.000252
 696	6.9153e+01	12.2997	82.523092	0.000639	6.387006	2.163976	-0.000256
 697	6.9252e+01	12.2708	82.325272	0.000497	4.967671	1.683093	-0.000199
 698	6.9352e+01	12.2339	82.050747	0.000689	6.893911	2.335720	-0.000276
 699	6.9451e+01	12.1809	81.768147	0.000710	7.096673	2.404418	-0.000284
 700	6.9550e+01	12.1505	81.558216	0.000527	5.271815	1.786139	-0.000211
 701	6.9650e+01	12.1007	81.315988	0.000608	6.082863	2.060930	-0.000243
 702	6.9749e+01	12.0654	81.065686	0.000629	6.285625	2.129627	-0.000252
 703	6.9849e+01	12.0253	80.831532	0.000588	5.880101	1.992232	-0.000235
 704	6.9948e+01	11.9868	80.593341	0.000598	5.981482	2.026581	-0.000239
 705	7.0048e+01	11.9435	80.355150	0.000598	5.981482	2.026581	-0.000239
 706	7.0147e+01	11.9098	80.108884	0.000618	6.184244	2.095279	-0.000248
 707	7.0247e+01	11.8729	79.822248	0.000720	7.198055	2.438767	-0.000288
 708	7.0347e+01	11.8280	79.636540	0.000466	4.663528	1.580046	-0.000187
 709	7.0446e+01	11.7991	79.398349	0.000598	5.981482	2.026581	-0.000239
 710	7.0546e+01	11.7494	79.123823	0.000689	6.893911	2.335720	-0.000276
 711	7.0645e+01	11.7109	78.889669	0.000588	5.880101	1.992232	-0.000235
 712	7.0745e+01	11.6660	78.639367	0.000629	6.285625	2.129627	-0.000252
 713	7.0844e+01	11.6339	78.368879	0.000679	6.792530	2.301372	-0.000272
 714	7.0944e+01	11.5922	78.142799	0.000568	5.677339	1.923534	-0.000227
 715	7.1043e+01	11.5505	77.884423	0.000649	6.488387	2.198325	-0.000260
 716	7.1142e+01	11.5104	77.650269	0.000588	5.880101	1.992232	-0.000235
 717	7.1242e+01	11.4703	77.383818	0.000669	6.691149	2.267023	-0.000268
 718	7.1341e+01	11.4366	77.141590	0.000608	6.082863	2.060930	-0.000243
 719	7.1441e+01	11.3917	76.887250	0.000639	6.387006	2.163976	-0.000256
 720	7.1540e+01	11.3451	76.657133	0.000578	5.778720	1.957883	-0.000231
 721	7.1640e+01	11.3114	76.402794	0.000639	6.387006	2.163976	-0.000256
 722	7.1740e+01	11.2713	76.180751	0.000558	5.575958	1.889186	-0.000223
 723	7.1839e+01	11.2232	75.890078	0.000730	7.299436	2.473116	-0.000292
 724	7.1939e+01	11.1879	75.668035	0.000558	5.575958	1.889186	-0.000223
 725	7.2038e+01	11.1478	75.405621	0.000659	6.589768	2.232674	-0.000264
 726	7.2138e+01	11.1125	75.175505	0.000578	5.778720	1.957883	-0.000231
 727	7.2237e+01	11.0628	74.888868	0.000720	7.198055	2.438767	-0.000288
 728	7.2337e+01	11.0307	74.678937	0.000527	5.271815	1.786139	-0.000211
 729	7.2436e+01	10.9922	74.420560	0.000649	6.488387	2.198325	-0.000260
 730	7.2535e+01	10.9393	74.170258	0.000629	6.285625	2.129627	-0.000252
 731	7.2635e+01	10.9136	73.911881	0.000649	6.488387	2.198325	-0.000260
 732	7.2734e+01	10.8655	73.681764	0.000578	5.778720	1.957883	-0.000231
 733	7.2834e+01	10.8318	73.419351	0.000659	6.589768	2.232674	-0.000264
 734	7.2933e+01	10.7901	73.136751	0.000710	7.096673	2.404418	-0.000284
 735	7.3033e+01	10.7484	72.926820	0.000527	5.271815	1.786139	-0.000211
 736	7.3132e+01	10.7131	72.688629	0.000598	5.981482	2.026581	-0.000239
 737	7.3232e+01	10.6698	72.426215	0.000659	6.589768	2.232674	-0.000264
 738	7.3332e+01	10.6329	72.183987	0.000608	6.082863	2.060930	-0.000243
 739	7.3431e+01	10.5831	71.909462	0.000689	6.893911	2.335720	-0.000276
 740	7.3531e+01	10.5542	71.659159	0.000629	6.285625	2.129627	-0.000252
 741	7.3630e+01	10.5109	71.445191	0.000537	5.373196	1.820488	-0.000215
 742	7.3730e+01	10.4805	71.198926	0.000618	6.184244	2.095279	-0.000248
 743	7.3829e+01	10.4275	70.855769	0.000862	8.617389	2.919651	-0.000345
 744	7.3928e+01	10.3954	70.645838	0.000527	5.271815	1.786139	-0.000211
 745	7.4028e+01	10.3569	70.363239	0.000710	7.096673	2.404418	-0.000284
 746	7.4127e+01	10.3168	70.185605	0.000446	4.460766	1.511348	-0.000179
 747	7.4227e+01	10.2719	69.927228	0.000649	6.488387	2.198325	-0.000260
 748	7.4326e+01	10.2318	69.636554	0.000730	7.299436	2.473116	-0.000292
 749	7.4426e+01	10.1981	69.398363	0.000598	5.981482	2.026581	-0.000239
 750	7.4525e+01	10.1548	69.148061	0.000629	6.285625	2.129627	-0.000252
 751	7.4625e+01	10.1131	68.873536	0.000689	6.893911	2.335720	-0.000276
 752	7.4725e+01	10.0714	68.643419	0.000578	5.778720	1.957883	-0.000231
 753	7.4824e+01	10.0265	68.356782	0.000720	7.198055	2.438767	-0.000288
 754	7.4924e+01	9.9992	68.086294	0.000679	6.792530	2.301372	-0.000272
 755	7.5023e+01	9.9559	67.876363	0.000527	5.271815	1.786139	-0.000211
 756	7.5123e+01	9.9206	67.609912	0.000669	6.691149	2.267023	-0.000268
 757	7.5222e+01	9.8724	67.355573	0.000639	6.387006	2.163976	-0.000256
 758	7.5322e+01	9.8227	67.081047	0.000689	6.893911	2.335720	-0.000276
 759	7.5421e+01	9.7922	66.883228	0.000497	4.967671	1.683093	-0.000199
 760	7.5520e+01	9.7553	66.588517	0.000740	7.400817	2.507465	-0.000296
 761	7.5620e+01	9.7088	66.330140	0.000649	6.488387	2.198325	-0.000260
 762	7.5719e+01	9.6735	66.075801	0.000639	6.387006	2.163976	-0.000256
 763	7.5819e+01	9.6302	65.857795	0.000547	5.474577	1.854837	-0.000219
 764	7.5918e+01	9.5965	65.599419	0.000649	6.488387	2.198325	-0.000260
 765	7.6018e+01	9.5516	65.308745	0.000730	7.299436	2.473116	-0.000292
 766	7.6118e+01	9.5099	65.070554	0.000598	5.981482	2.026581	-0.000239
 767	7.6217e+01	9.4714	64.800066	0.000679	6.792530	2.301372	-0.000272
 768	7.6317e+01	9.4377	64.578023	0.000558	5.575958	1.889186	-0.000223
 769	7.6416e+01	9.3992	64.295424	0.000710	7.096673	2.404418	-0.000284
 770	7.6516e+01	9.3543	64.033010	0.000659	6.589768	2.232674	-0.000264
 771	7.6615e+01	9.3142	63.782708	0.000629	6.285625	2.129627	-0.000252
 772	7.6715e+01	9.2789	63.568739	0.000537	5.373196	1.820488	-0.000215
 773	7.6814e+01	9.2356	63.261917	0.000770	7.704960	2.610511	-0.000308
 774	7.6913e+01	9.2051	63.015652	0.000618	6.184244	2.095279	-0.000248
 775	7.7013e+01	9.1505	62.749201	0.000669	6.691149	2.267023	-0.000268
 776	7.7112e+01	9.1088	62.494861	0.000639	6.387006	2.163976	-0.000256
 777	7.7212e+01	9.0735	62.216299	0.000700	6.995292	2.370069	-0.000280
 778	7.7311e+01	9.0366	61.949848	0.000669	6.691149	2.267023	-0.000268
 779	7.7411e+01	8.9885	61.747991	0.000507	5.069052	1.717441	-0.000203
 780	7.7510e+01	8.9548	61.469429	0.000700	6.995292	2.370069	-0.000280
 781	7.7610e+01	8.9356	61.198941	0.000679	6.792530	2.301372	-0.000272
 782	7.7710e+01	8.8810	60.972861	0.000568	5.677339	1.923534	-0.000227
 783	7.7809e+01	8.8345	60.686224	0.000720	7.198055	2.438767	-0.000288
 784	7.7909e+01	8.7992	60.415736	0.000679	6.792530	2.301372	-0.000272
 785	7.8008e+01	8.7607	60.145248	0.000679	6.792530	2.301372	-0.000272
 786	7.8108e+01	8.7158	59.898983	0.000618	6.184244	2.095279	-0.000248
 787	7.8207e+01	8.6741	59.632532	0.000669	6.691149	2.267023	-0.000268
 788	7.8306e+01	8.6436	59.353970	0.000700	6.995292	2.370069	-0.000280
 789	7.8406e+01	8.5939	59.075407	0.000700	6.995292	2.370069	-0.000280
 790	7.8505e+01	8.5666	58.857402	0.000547	5.474577	1.854837	-0.000219
 791	7.8605e+01	8.5137	58.611137	0.000618	6.184244	2.095279	-0.000248
 792	7.8704e+01	8.4784	58.320463	0.000730	7.299436	2.473116	-0.000292
 793	7.8804e+01	8.4415	58.037863	0.000710	7.096673	2.404418	-0.000284
 794	7.8903e+01	8.3982	57.775450	0.000659	6.589768	2.232674	-0.000264
 795	7.9003e+01	8.3677	57.533221	0.000608	6.082863	2.060930	-0.000243
 796	7.9103e+01	8.3147	57.262733	0.000679	6.792530	2.301372	-0.000272
 797	7.9202e+01	8.2794	57.012431	0.000629	6.285625	2.129627	-0.000252
 798	7.9302e+01	8.2313	56.733869	0.000700	6.995292	2.370069	-0.000280
 799	7.9401e+01	8.1944	56.487603	0.000618	6.184244	2.095279	-0.000248
 800	7.9501e+01	8.1639	56.233264	0.000639	6.387006	2.163976	-0.000256
 801	7.9600e+01	8.1238	55.982961	0.000629	6.285625	2.129627	-0.000252
 802	7.9700e+01	8.0757	55.700362	0.000710	7.096673	2.404418	-0.000284
 803	7.9799e+01	8.0372	55.409688	0.000730	7.299436	2.473116	-0.000292
 804	7.9898e+01	8.0051	55.183608	0.000568	5.677339	1.923534	-0.000227
 805	7.9998e+01	7.9522	54.917157	0.000669	6.691149	2.267023	-0.000268
 806	8.0097e+01	7.9233	54.586112	0.000831	8.313246	2.816604	-0.000333
 807	8.0197e+01	7.8848	54.376181	0.000527	5.271815	1.786139	-0.000211
 808	8.0296e+01	7.8303	54.101656	0.000689	6.893911	2.335720	-0.000276
 809	8.0396e+01	7.8078	53.835205	0.000669	6.691149	2.267023	-0.000268
 810	8.0496e+01	7.7709	53.568754	0.000669	6.691149	2.267023	-0.000268
 811	8.0595e+01	7.7228	53.294229	0.000689	6.893911	2.335720	-0.000276
 812	8.0695e+01	7.6811	53.027778	0.000669	6.691149	2.267023	-0.000268
 813	8.0794e+01	7.6394	52.769401	0.000649	6.488387	2.198325	-0.000260
 814	8.0894e+01	7.6025	52.482765	0.000720	7.198055	2.438767	-0.000288
 815	8.0993e+01	7.5543	52.260722	0.000558	5.575958	1.889186	-0.000223
 816	8.1093e+01	7.5190	52.002345	0.000649	6.488387	2.198325	-0.000260
 817	8.1192e+01	7.4805	51.707635	0.000740	7.400817	2.507465	-0.000296
 818	8.1291e+01	7.4501	51.461369	0.000618	6.184244	2.095279	-0.000248
 819	8.1391e+01	7.4067	51.178770	0.000710	7.096673	2.404418	-0.000284
 820	8.1490e+01	7.3570	50.884059	0.000740	7.400817	2.507465	-0.000296
 821	8.1590e+01	7.3265	50.670091	0.000537	5.373196	1.820488	-0.000215
 822	8.1689e+01	7.2864	50.355194	0.000791	7.907722	2.679209	-0.000316
 823	8.1789e+01	7.2431	50.149300	0.000517	5.170434	1.751790	-0.000207
 824	8.1888e+01	7.2046	49.830366	0.000801	8.009103	2.713558	-0.000321
 825	8.1988e+01	7.1565	49.592175	0.000598	5.981482	2.026581	-0.000239
 826	8.2088e+01	7.1228	49.301502	0.000730	7.299436	2.473116	-0.000292
 827	8.2187e+01	7.0859	49.026976	0.000689	6.893911	2.335720	-0.000276
 828	8.2287e+01	7.0458	48.768600	0.000649	6.488387	2.198325	-0.000260
 829	8.2386e+01	7.0105	48.510223	0.000649	6.488387	2.198325	-0.000260
 830	8.2486e+01	6.9592	48.247809	0.000659	6.589768	2.232674	-0.000264
 831	8.2585e+01	6.9207	47.961173	0.000720	7.198055	2.438767	-0.000288
 832	8.2684e+01	6.8822	47.702796	0.000649	6.488387	2.198325	-0.000260
 833	8.2784e+01	6.8324	47.400011	0.000760	7.603579	2.576162	-0.000304
 834	8.2883e+01	6.8036	47.173931	0.000568	5.677339	1.923534	-0.000227
 835	8.2983e+01	6.7699	46.891332	0.000710	7.096673	2.404418	-0.000284
 836	8.3082e+01	6.7282	46.649103	0.000608	6.082863	2.060930	-0.000243
 837	8.3182e+01	6.6880	46.338244	0.000781	7.806341	2.644860	-0.000312
 838	8.3281e+01	6.6479	46.108127	0.000578	5.778720	1.957883	-0.000231
 839	8.3381e+01	6.6110	45.817453	0.000730	7.299436	2.473116	-0.000292
 840	8.3481e+01	6.5597	45.551003	0.000669	6.691149	2.267023	-0.000268
 841	8.3580e+01	6.5276	45.312812	0.000598	5.981482	2.026581	-0.000239
 842	8.3680e+01	6.4875	45.010026	0.000760	7.603579	2.576162	-0.000304
 843	8.3779e+01	6.4586	44.739538	0.000679	6.792530	2.301372	-0.000272
 844	8.3879e+01	6.4137	44.513459	0.000568	5.677339	1.923534	-0.000227
 845	8.3978e+01	6.3672	44.214711	0.000750	7.502198	2.541813	-0.000300
 846	8.4078e+01	6.3239	43.976520	0.000598	5.981482	2.026581	-0.000239
 847	8.4177e+01	6.2870	43.665660	0.000781	7.806341	2.644860	-0.000312
 848	8.4276e+01	6.2581	43.427469	0.000598	5.981482	2.026581	-0.000239
 849	8.4376e+01	6.2084	43.104498	0.000811	8.110484	2.747906	-0.000325
 850	8.4475e+01	6.1619	42.842084	0.000659	6.589768	2.232674	-0.000264
 851	8.4575e+01	6.1266	42.591782	0.000629	6.285625	2.129627	-0.000252
 852	8.4674e+01	6.0849	42.301108	0.000730	7.299436	2.473116	-0.000292
 853	8.4774e+01	6.0512	42.046769	0.000639	6.387006	2.163976	-0.000256
 854	8.4874e+01	6.0127	41.772243	0.000689	6.893911	2.335720	-0.000276
 855	8.4973e+01	5.9645	41.493681	0.000700	6.995292	2.370069	-0.000280
 856	8.5073e+01	5.9325	41.186859	0.000770	7.704960	2.610511	-0.000308
 857	8.5172e+01	5.8923	40.960779	0.000568	5.677339	1.923534	-0.000227
 858	8.5272e+01	5.8571	40.682217	0.000700	6.995292	2.370069	-0.000280
 859	8.5371e+01	5.8169	40.419803	0.000659	6.589768	2.232674	-0.000264
 860	8.5471e+01	5.7656	40.104906	0.000791	7.907722	2.679209	-0.000316
 861	8.5570e+01	5.7287	39.826344	0.000700	6.995292	2.370069	-0.000280
 862	8.5669e+01	5.6838	39.563930	0.000659	6.589768	2.232674	-0.000264
 863	8.5769e+01	5.6533	39.297479	0.000669	6.691149	2.267023	-0.000268
 864	8.5868e+01	5.6132	39.018917	0.000700	6.995292	2.370069	-0.000280
 865	8.5968e+01	5.5731	38.776689	0.000608	6.082863	2.060930	-0.000243
 866	8.6067e+01	5.5410	38.469866	0.000770	7.704960	2.610511	-0.000308
 867	8.6167e+01	5.4945	38.199378	0.000679	6.792530	2.301372	-0.000272
 868	8.6266e+01	5.4464	37.949076	0.000629	6.285625	2.129627	-0.000252
 869	8.6366e+01	5.4143	37.670514	0.000700	6.995292	2.370069	-0.000280
 870	8.6466e+01	5.3806	37.355617	0.000791	7.907722	2.679209	-0.000316
 871	8.6565e+01	5.3309	37.101277	0.000639	6.387006	2.163976	-0.000256
 872	8.6665e+01	5.2956	36.830789	0.000679	6.792530	2.301372	-0.000272
 873	8.6764e+01	5.2555	36.608747	0.000558	5.575958	1.889186	-0.000223
 874	8.6864e+01	5.2089	36.305962	0.000760	7.603579	2.576162	-0.000304
 875	8.6963e+01	5.1737	36.007214	0.000750	7.502198	2.541813	-0.000300
 876	8.7063e+01	5.1335	35.760948	0.000618	6.184244	2.095279	-0.000248
 877	8.7162e+01	5.0870	35.478349	0.000710	7.096673	2.404418	-0.000284
 878	8.7261e+01	5.0598	35.199786	0.000700	6.995292	2.370069	-0.000280
 879	8.7361e+01	5.0116	34.941410	0.000649	6.488387	2.198325	-0.000260
 880	8.7460e+01	4.9667	34.707256	0.000588	5.880101	1.992232	-0.000235
 881	8.7560e+01	4.9282	34.356025	0.000882	8.820151	2.988348	-0.000353
 882	8.7659e+01	4.8929	34.101686	0.000639	6.387006	2.163976	-0.000256
 883	8.7759e+01	4.8560	33.823123	0.000700	6.995292	2.370069	-0.000280
 884	8.7859e+01	4.8079	33.580895	0.000608	6.082863	2.060930	-0.000243
 885	8.7958e+01	4.7742	33.282147	0.000750	7.502198	2.541813	-0.000300
 886	8.8058e+01	4.7357	32.995510	0.000720	7.198055	2.438767	-0.000288
 887	8.8157e+01	4.6940	32.753282	0.000608	6.082863	2.060930	-0.000243
 888	8.8257e+01	4.6587	32.458571	0.000740	7.400817	2.507465	-0.000296
 889	8.8356e+01	4.6074	32.180009	0.000700	6.995292	2.370069	-0.000280
 890	8.8456e+01	4.5769	31.921632	0.000649	6.488387	2.198325	-0.000260
 891	8.8555e+01	4.5320	31.630959	0.000730	7.299436	2.473116	-0.000292
 892	8.8654e+01	4.4967	31.352396	0.000700	6.995292	2.370069	-0.000280
 893	8.8754e+01	4.4582	31.085945	0.000669	6.691149	2.267023	-0.000268
 894	8.8853e+01	4.4165	30.795271	0.000730	7.299436	2.473116	-0.000292
 895	8.8953e+01	4.3747	30.500561	0.000740	7.400817	2.507465	-0.000296
 896	8.9052e+01	4.3346	30.234110	0.000669	6.691149	2.267023	-0.000268
 897	8.9152e+01	4.2913	29.967659	0.000669	6.691149	2.267023	-0.000268
 898	8.9251e+01	4.2576	29.672948	0.000740	7.400817	2.507465	-0.000296
 899	8.9351e+01	4.2079	29.382274	0.000730	7.299436	2.473116	-0.000292
 900	8.9451e+01	4.1774	29.103712	0.000700	6.995292	2.370069	-0.000280
 901	8.9550e+01	4.1325	28.821112	0.000710	7.096673	2.404418	-0.000284
 902	8.9650e+01	4.1036	28.550624	0.000679	6.792530	2.301372	-0.000272
 903	8.9749e+01	4.0491	28.308396	0.000608	6.082863	2.060930	-0.000243
 904	8.9849e+01	4.0170	28.029833	0.000700	6.995292	2.370069	-0.000280
 905	8.9948e+01	3.9769	27.727048	0.000760	7.603579	2.576162	-0.000304
 906	9.0047e+01	3.9320	27.452523	0.000689	6.893911	2.335720	-0.000276
 907	9.0147e+01	3.9015	27.129552	0.000811	8.110484	2.747906	-0.000325
 908	9.0246e+01	3.8582	26.903473	0.000568	5.677339	1.923534	-0.000227
 909	9.0346e+01	3.8261	26.649133	0.000639	6.387006	2.163976	-0.000256
 910	9.0445e+01	3.7812	26.297902	0.000882	8.820151	2.988348	-0.000353
 911	9.0545e+01	3.7459	26.059711	0.000598	5.981482	2.026581	-0.000239
 912	9.0644e+01	3.7026	25.736740	0.000811	8.110484	2.747906	-0.000325
 913	9.0744e+01	3.6689	25.494512	0.000608	6.082863	2.060930	-0.000243
 914	9.0844e+01	3.6175	25.187690	0.000770	7.704960	2.610511	-0.000308
 915	9.0943e+01	3.5823	24.933350	0.000639	6.387006	2.163976	-0.000256
 916	9.1043e+01	3.5438	24.614417	0.000801	8.009103	2.713558	-0.000321
 917	9.1142e+01	3.5020	24.368151	0.000618	6.184244	2.095279	-0.000248
 918	9.1242e+01	3.4587	24.069403	0.000750	7.502198	2.541813	-0.000300
 919	9.1341e+01	3.4170	23.823138	0.000618	6.184244	2.095279	-0.000248
 920	9.1441e+01	3.3881	23.524390	0.000750	7.502198	2.541813	-0.000300
 921	9.1540e+01	3.3416	23.245828	0.000700	6.995292	2.370069	-0.000280
 922	9.1639e+01	3.2967	22.922857	0.000811	8.110484	2.747906	-0.000325
 923	9.1739e+01	3.2646	22.688703	0.000588	5.880101	1.992232	-0.000235
 924	9.1838e+01	3.2245	22.398029	0.000730	7.299436	2.473116	-0.000292
 925	9.1938e+01	3.1860	22.103318	0.000740	7.400817	2.507465	-0.000296
 926	9.2037e+01	3.1331	21.853016	0.000629	6.285625	2.129627	-0.000252
 927	9.2137e+01	3.0994	21.530045	0.000811	8.110484	2.747906	-0.000325
 928	9.2237e+01	3.0609	21.275705	0.000639	6.387006	2.163976	-0.000256
 929	9.2336e+01	3.0127	21.001180	0.000689	6.893911	2.335720	-0.000276
 930	9.2436e+01	2.9823	20.722618	0.000700	6.995292	2.370069	-0.000280
 931	9.2535e+01	2.9438	20.419833	0.000760	7.603579	2.576162	-0.000304
 932	9.2635e+01	2.9037	20.149344	0.000679	6.792530	2.301372	-0.000272
 933	9.2734e+01	2.8620	19.842522	0.000770	7.704960	2.610511	-0.000308
 934	9.2834e+01	2.8202	19.563960	0.000700	6.995292	2.370069	-0.000280
 935	9.2933e+01	2.7737	19.281360	0.000710	7.096673	2.404418	-0.000284
 936	9.3032e+01	2.7416	19.035095	0.000618	6.184244	2.095279	-0.000248
 937	9.3132e+01	2.7063	18.736347	0.000750	7.502198	2.541813	-0.000300
 938	9.3231e+01	2.6630	18.441636	0.000740	7.400817	2.507465	-0.000296
 939	9.3331e+01	2.6277	18.159037	0.000710	7.096673	2.404418	-0.000284
 940	9.3430e+01	2.5892	17.904697	0.000639	6.387006	2.163976	-0.000256
 941	9.3530e+01	2.5443	17.609986	0.000740	7.400817	2.507465	-0.000296
 942	9.3629e+01	2.5010	17.327387	0.000710	7.096673	2.404418	-0.000284
 943	9.3729e+01	2.4609	17.020564	0.000770	7.704960	2.610511	-0.000308
 944	9.3829e+01	2.4224	16.782373	0.000598	5.981482	2.026581	-0.000239
 945	9.3928e+01	2.3903	16.495737	0.000720	7.198055	2.438767	-0.000288
 946	9.4028e+01	2.3422	16.172766	0.000811	8.110484	2.747906	-0.000325
 947	9.4127e+01	2.3021	15.902278	0.000679	6.792530	2.301372	-0.000272
 948	9.4227e+01	2.2604	15.627752	0.000689	6.893911	2.335720	-0.000276
 949	9.4326e+01	2.2251	15.312856	0.000791	7.907722	2.679209	-0.000316
 950	9.4425e+01	2.1866	15.054479	0.000649	6.488387	2.198325	-0.000260
 951	9.4525e+01	2.1465	14.715360	0.000852	8.516008	2.885302	-0.000341
 952	9.4624e+01	2.1112	14.461020	0.000639	6.387006	2.163976	-0.000256
 953	9.4724e+01	2.0534	14.186495	0.000689	6.893911	2.335720	-0.000276
 954	9.4823e+01	2.0261	13.903895	0.000710	7.096673	2.404418	-0.000284
 955	9.4923e+01	1.9925	13.613222	0.000730	7.299436	2.473116	-0.000292
 956	9.5022e+01	1.9443	13.346771	0.000669	6.691149	2.267023	-0.000268
 957	9.5122e+01	1.9090	13.039948	0.000770	7.704960	2.610511	-0.000308
 958	9.5222e+01	1.8705	12.785609	0.000639	6.387006	2.163976	-0.000256
 959	9.5321e+01	1.8256	12.454564	0.000831	8.313246	2.816604	-0.000333
 960	9.5421e+01	1.7839	12.167927	0.000720	7.198055	2.438767	-0.000288
 961	9.5520e+01	1.7470	11.905513	0.000659	6.589768	2.232674	-0.000264
 962	9.5620e+01	1.7101	11.622914	0.000710	7.096673	2.404418	-0.000284
 963	9.5719e+01	1.6668	11.328203	0.000740	7.400817	2.507465	-0.000296
 964	9.5819e+01	1.6203	11.017343	0.000781	7.806341	2.644860	-0.000312
 965	9.5918e+01	1.5882	10.746855	0.000679	6.792530	2.301372	-0.000272
 966	9.6017e+01	1.5465	10.452144	0.000740	7.400817	2.507465	-0.000296
 967	9.6117e+01	1.5192	10.185693	0.000669	6.691149	2.267023	-0.000268
 968	9.6216e+01	1.4695	9.886945	0.000750	7.502198	2.541813	-0.000300
 969	9.6316e+01	1.4278	9.624532	0.000659	6.589768	2.232674	-0.000264
 970	9.6415e+01	1.3909	9.317709	0.000770	7.704960	2.610511	-0.000308
 971	9.6515e+01	1.3395	9.006850	0.000781	7.806341	2.644860	-0.000312
 972	9.6615e+01	1.3058	8.740399	0.000669	6.691149	2.267023	-0.000268
 973	9.6714e+01	1.2673	8.473948	0.000669	6.691149	2.267023	-0.000268
 974	9.6814e+01	1.2256	8.150977	0.000811	8.110484	2.747906	-0.000325
 975	9.6913e+01	1.1791	7.908749	0.000608	6.082863	2.060930	-0.000243
 976	9.7013e+01	1.1438	7.605964	0.000760	7.603579	2.576162	-0.000304
 977	9.7112e+01	1.1053	7.311253	0.000740	7.400817	2.507465	-0.000296
 978	9.7212e+01	1.0700	7.012505	0.000750	7.502198	2.541813	-0.000300
 979	9.7311e+01	1.0283	6.754128	0.000649	6.488387	2.198325	-0.000260
 980	9.7410e+01	0.9802	6.423083	0.000831	8.313246	2.816604	-0.000333
 981	9.7510e+01	0.9433	6.160669	0.000659	6.589768	2.232674	-0.000264
 982	9.7609e+01	0.9112	5.865958	0.000740	7.400817	2.507465	-0.000296
 983	9.7709e+01	0.8631	5.587396	0.000700	6.995292	2.370069	-0.000280
 984	9.7808e+01	0.8326	5.292685	0.000740	7.400817	2.507465	-0.000296
 985	9.7908e+01	0.7957	5.030271	0.000659	6.589768	2.232674	-0.000264
 986	9.8007e+01	0.7540	4.719412	0.000781	7.806341	2.644860	-0.000312
 987	9.8107e+01	0.7139	4.461035	0.000649	6.488387	2.198325	-0.000260
 988	9.8207e+01	0.6577	4.105767	0.000892	8.921532	3.022697	-0.000357
 989	9.8306e+01	0.6289	3.855465	0.000629	6.285625	2.129627	-0.000252
 990	9.8406e+01	0.5920	3.560754	0.000740	7.400817	2.507465	-0.000296
 991	9.8505e+01	0.5438	3.318526	0.000608	6.082863	2.060930	-0.000243
 992	9.8605e+01	0.5150	2.999592	0.000801	8.009103	2.713558	-0.000321
 993	9.8704e+01	0.4749	2.712955	0.000720	7.198055	2.438767	-0.000288
 994	9.8803e+01	0.4299	2.418244	0.000740	7.400817	2.507465	-0.000296
 995	9.8903e+01	0.3882	2.155830	0.000659	6.589768	2.232674	-0.000264
 996	9.9002e+01	0.3513	1.865157	0.000730	7.299436	2.473116	-0.000292
 997	9.9102e+01	0.3128	1.554297	0.000781	7.806341	2.644860	-0.000312
 998	9.9201e+01	0.2631	1.303995	0.000629	6.285625	2.129627	-0.000252
 999	9.9301e+01	0.2342	0.968913	0.000841	8.414627	2.850953	-0.000337
1000	9.9400e+01	0.1893	0.690350	0.000700	6.995292	2.370069	-0.000280
1001	9.9500e+01	0.1492	0.423899	0.000669	6.691149	2.267023	-0.000268
1002	9.9600e+01	0.1107	0.137263	0.000720	7.198055	2.438767	-0.000288
1003	9.9699e+01	0.0722	-0.161485	0.000750	7.502198	2.541813	-0.000300
1004	9.9799e+01	0.0305	-0.444085	0.000710	7.096673	2.404418	-0.000284
1005	9.9898e+01	0.0048	-0.698424	0.000639	6.387006	2.163976	-0.000256
1006	9.9998e+01	-0.0417	-0.968913	0.000679	6.792530	2.301372	-0.000272
1007	1.0010e+02	-0.0770	-1.243438	0.000689	6.893911	2.335720	-0.000276
1008	1.0020e+02	-0.1235	-1.538149	0.000740	7.400817	2.507465	-0.000296
1009	1.0030e+02	-0.1492	-1.824785	0.000720	7.198055	2.438767	-0.000288
1010	1.0040e+02	-0.1925	-2.127571	0.000760	7.603579	2.576162	-0.000304
1011	1.0050e+02	-0.2438	-2.394021	0.000669	6.691149	2.267023	-0.000268
1012	1.0059e+02	-0.2743	-2.692770	0.000750	7.502198	2.541813	-0.000300
1013	1.0069e+02	-0.3192	-3.003629	0.000781	7.806341	2.644860	-0.000312
1014	1.0079e+02	-0.3545	-3.241820	0.000598	5.981482	2.026581	-0.000239
1015	1.0089e+02	-0.3962	-3.520382	0.000700	6.995292	2.370069	-0.000280
1016	1.0099e+02	-0.4412	-3.871613	0.000882	8.820151	2.988348	-0.000353
1017	1.0109e+02	-0.4813	-4.138064	0.000669	6.691149	2.267023	-0.000268
1018	1.0119e+02	-0.5101	-4.452961	0.000791	7.907722	2.679209	-0.000316
1019	1.0129e+02	-0.5535	-4.711337	0.000649	6.488387	2.198325	-0.000260
1020	1.0139e+02	-0.5888	-4.997974	0.000720	7.198055	2.438767	-0.000288
1021	1.0149e+02	-0.6385	-5.280574	0.000710	7.096673	2.404418	-0.000284
1022	1.0159e+02	-0.6802	-5.595470	0.000791	7.907722	2.679209	-0.000316
1023	1.0169e+02	-0.7139	-5.853847	0.000649	6.488387	2.198325	-0.000260
1024	1.0179e+02	-0.7588	-6.188929	0.000841	8.414627	2.850953	-0.000337
1025	1.0189e+02	-0.7989	-6.427120	0.000598	5.981482	2.026581	-0.000239
1026	1.0199e+02	-0.8438	-6.750091	0.000811	8.110484	2.747906	-0.000325
1027	1.0209e+02	-0.8695	-7.040765	0.000730	7.299436	2.473116	-0.000292
1028	1.0219e+02	-0.9128	-7.282993	0.000608	6.082863	2.060930	-0.000243
1029	1.0229e+02	-0.9433	-7.618075	0.000841	8.414627	2.850953	-0.000337
1030	1.0239e+02	-0.9994	-7.856266	0.000598	5.981482	2.026581	-0.000239
1031	1.0248e+02	-1.0428	-8.187311	0.000831	8.313246	2.816604	-0.000333
1032	1.0258e+02	-1.0684	-8.425502	0.000598	5.981482	2.026581	-0.000239
1033	1.0268e+02	-1.1230	-8.720213	0.000740	7.400817	2.507465	-0.000296
1034	1.0278e+02	-1.1679	-9.022998	0.000760	7.603579	2.576162	-0.000304
1035	1.0288e+02	-1.1952	-9.329821	0.000770	7.704960	2.610511	-0.000308
1036	1.0298e+02	-1.2304	-9.600309	0.000679	6.792530	2.301372	-0.000272
1037	1.0308e+02	-1.2786	-9.895020	0.000740	7.400817	2.507465	-0.000296
1038	1.0318e+02	-1.3139	-10.137248	0.000608	6.082863	2.060930	-0.000243
1039	1.0328e+02	-1.3556	-10.468293	0.000831	8.313246	2.816604	-0.000333
1040	1.0338e+02	-1.3957	-10.730707	0.000659	6.589768	2.232674	-0.000264
1041	1.0348e+02	-1.4342	-11.013306	0.000710	7.096673	2.404418	-0.000284
1042	1.0358e+02	-1.4791	-11.275720	0.000659	6.589768	2.232674	-0.000264
1043	1.0368e+02	-1.5208	-11.566394	0.000730	7.299436	2.473116	-0.000292
1044	1.0378e+02	-1.5577	-11.857068	0.000730	7.299436	2.473116	-0.000292
1045	1.0388e+02	-1.5946	-12.147741	0.000730	7.299436	2.473116	-0.000292
1046	1.0398e+02	-1.6315	-12.406118	0.000649	6.488387	2.198325	-0.000260
1047	1.0408e+02	-1.6796	-12.769460	0.000912	9.124294	3.091395	-0.000365
1048	1.0418e+02	-1.7181	-13.011688	0.000608	6.082863	2.060930	-0.000243
1049	1.0428e+02	-1.7566	-13.310437	0.000750	7.502198	2.541813	-0.000300
1050	1.0438e+02	-1.7887	-13.593036	0.000710	7.096673	2.404418	-0.000284
1051	1.0447e+02	-1.8320	-13.887747	0.000740	7.400817	2.507465	-0.000296
1052	1.0457e+02	-1.8721	-14.166309	0.000700	6.995292	2.370069	-0.000280
1053	1.0467e+02	-1.9171	-14.461020	0.000740	7.400817	2.507465	-0.000296
1054	1.0477e+02	-1.9507	-14.755731	0.000740	7.400817	2.507465	-0.000296
1055	1.0487e+02	-1.9973	-15.026219	0.000679	6.792530	2.301372	-0.000272
1056	1.0497e+02	-2.0406	-15.300744	0.000689	6.893911	2.335720	-0.000276
1057	1.0507e+02	-2.0759	-15.611604	0.000781	7.806341	2.644860	-0.000312
1058	1.0517e+02	-2.1128	-15.853832	0.000608	6.082863	2.060930	-0.000243
1059	1.0527e+02	-2.1545	-16.176803	0.000811	8.110484	2.747906	-0.000325
1060	1.0537e+02	-2.1962	-16.459402	0.000710	7.096673	2.404418	-0.000284
1061	1.0547e+02	-2.2203	-16.713742	0.000639	6.387006	2.163976	-0.000256
1062	1.0557e+02	-2.2668	-17.020564	0.000770	7.704960	2.610511	-0.000308
1063	1.0567e+02	-2.3149	-17.315275	0.000740	7.400817	2.507465	-0.000296
1064	1.0577e+02	-2.3454	-17.605949	0.000730	7.299436	2.473116	-0.000292
1065	1.0587e+02	-2.3903	-17.884511	0.000700	6.995292	2.370069	-0.000280
1066	1.0597e+02	-2.4320	-18.146925	0.000659	6.589768	2.232674	-0.000264
1067	1.0607e+02	-2.4609	-18.429525	0.000710	7.096673	2.404418	-0.000284
1068	1.0617e+02	-2.5122	-18.748458	0.000801	8.009103	2.713558	-0.000321
1069	1.0627e+02	-2.5379	-18.978575	0.000578	5.778720	1.957883	-0.000231
1070	1.0637e+02	-2.5924	-19.321732	0.000862	8.617389	2.919651	-0.000345
1071	1.0647e+02	-2.6277	-19.539737	0.000547	5.474577	1.854837	-0.000219
1072	1.0656e+02	-2.6678	-19.830411	0.000730	7.299436	2.473116	-0.000292
1073	1.0666e+02	-2.7128	-20.145307	0.000791	7.907722	2.679209	-0.000316
1074	1.0676e+02	-2.7545	-20.440018	0.000740	7.400817	2.507465	-0.000296
1075	1.0686e+02	-2.7898	-20.682246	0.000608	6.082863	2.060930	-0.000243
1076	1.0696e+02	-2.8315	-20.968883	0.000720	7.198055	2.438767	-0.000288
1077	1.0706e+02	-2.8555	-21.251483	0.000710	7.096673	2.404418	-0.000284
1078	1.0716e+02	-2.9053	-21.517933	0.000669	6.691149	2.267023	-0.000268
1079	1.0726e+02	-2.9518	-21.808607	0.000730	7.299436	2.473116	-0.000292
1080	1.0736e+02	-2.9839	-22.127541	0.000801	8.009103	2.713558	-0.000321
1081	1.0746e+02	-3.0336	-22.414178	0.000720	7.198055	2.438767	-0.000288
1082	1.0756e+02	-3.0673	-22.664480	0.000629	6.285625	2.129627	-0.000252
1083	1.0766e+02	-3.1154	-23.007637	0.000862	8.617389	2.919651	-0.000345
1084	1.0776e+02	-3.1507	-23.237753	0.000578	5.778720	1.957883	-0.000231
1085	1.0786e+02	-3.1956	-23.496130	0.000649	6.488387	2.198325	-0.000260
1086	1.0796e+02	-3.2261	-23.843324	0.000872	8.718770	2.953999	-0.000349
1087	1.0806e+02	-3.2791	-24.089589	0.000618	6.184244	2.095279	-0.000248
1088	1.0816e+02	-3.3031	-24.400448	0.000781	7.806341	2.644860	-0.000312
1089	1.0826e+02	-3.3432	-24.626528	0.000568	5.677339	1.923534	-0.000227
1090	1.0836e+02	-3.3833	-24.921239	0.000740	7.400817	2.507465	-0.000296
1091	1.0845e+02	-3.4331	-25.224024	0.000760	7.603579	2.576162	-0.000304
1092	1.0855e+02	-3.4684	-25.506624	0.000710	7.096673	2.404418	-0.000284
1093	1.0865e+02	-3.5117	-25.744815	0.000598	5.981482	2.026581	-0.000239
1094	1.0875e+02	-3.5470	-26.063748	0.000801	8.009103	2.713558	-0.000321
1095	1.0885e+02	-3.5839	-26.342311	0.000700	6.995292	2.370069	-0.000280
1096	1.0895e+02	-3.6208	-26.649133	0.000770	7.704960	2.610511	-0.000308
1097	1.0905e+02	-3.6593	-26.919621	0.000679	6.792530	2.301372	-0.000272
1098	1.0915e+02	-3.7026	-27.153775	0.000588	5.880101	1.992232	-0.000235
1099	1.0925e+02	-3.7395	-27.480783	0.000821	8.211865	2.782255	-0.000329
1100	1.0935e+02	-3.7796	-27.747234	0.000669	6.691149	2.267023	-0.000268
1101	1.0945e+02	-3.8229	-27.993499	0.000618	6.184244	2.095279	-0.000248
1102	1.0955e+02	-3.8662	-28.255913	0.000659	6.589768	2.232674	-0.000264
1103	1.0965e+02	-3.9095	-28.582921	0.000821	8.211865	2.782255	-0.000329
1104	1.0975e+02	-3.9480	-28.857446	0.000689	6.893911	2.335720	-0.000276
1105	1.0985e+02	-3.9897	-29.168306	0.000781	7.806341	2.644860	-0.000312
1106	1.0995e+02	-4.0234	-29.422645	0.000639	6.387006	2.163976	-0.000256
1107	1.1005e+02	-4.0667	-29.648725	0.000568	5.677339	1.923534	-0.000227
1108	1.1015e+02	-4.1084	-29.931324	0.000710	7.096673	2.404418	-0.000284
1109	1.1025e+02	-4.1373	-30.242184	0.000781	7.806341	2.644860	-0.000312
1110	1.1035e+02	-4.1854	-30.504598	0.000659	6.589768	2.232674	-0.000264
1111	1.1044e+02	-4.2223	-30.823531	0.000801	8.009103	2.713558	-0.000321
1112	1.1054e+02	-4.2624	-31.069797	0.000618	6.184244	2.095279	-0.000248
1113	1.1064e+02	-4.2929	-31.344322	0.000689	6.893911	2.335720	-0.000276
1114	1.1074e+02	-4.3507	-31.622884	0.000700	6.995292	2.370069	-0.000280
1115	1.1084e+02	-4.3924	-31.905484	0.000710	7.096673	2.404418	-0.000284
1116	1.1094e+02	-4.4213	-32.167898	0.000659	6.589768	2.232674	-0.000264
1117	1.1104e+02	-4.4646	-32.454534	0.000720	7.198055	2.438767	-0.000288
1118	1.1114e+02	-4.5031	-32.720985	0.000669	6.691149	2.267023	-0.000268
1119	1.1124e+02	-4.5448	-33.011659	0.000730	7.299436	2.473116	-0.000292
1120	1.1134e+02	-4.5817	-33.302333	0.000730	7.299436	2.473116	-0.000292
1121	1.1144e+02	-4.6138	-33.548598	0.000618	6.184244	2.095279	-0.000248
1122	1.1154e+02	-4.6635	-33.847346	0.000750	7.502198	2.541813	-0.000300
1123	1.1164e+02	-4.7004	-34.093611	0.000618	6.184244	2.095279	-0.000248
1124	1.1174e+02	-4.7389	-34.420619	0.000821	8.211865	2.782255	-0.000329
1125	1.1184e+02	-4.7774	-34.642662	0.000558	5.575958	1.889186	-0.000223
1126	1.1194e+02	-4.8271	-34.937373	0.000740	7.400817	2.507465	-0.000296
1127	1.1204e+02	-4.8592	-35.260344	0.000811	8.110484	2.747906	-0.000325
1128	1.1214e+02	-4.9009	-35.538906	0.000700	6.995292	2.370069	-0.000280
1129	1.1224e+02	-4.9426	-35.764986	0.000568	5.677339	1.923534	-0.000227
1130	1.1234e+02	-4.9779	-36.079882	0.000791	7.907722	2.679209	-0.000316
1131	1.1244e+02	-5.0180	-36.342296	0.000659	6.589768	2.232674	-0.000264
1132	1.1253e+02	-5.0678	-36.645081	0.000760	7.603579	2.576162	-0.000304
1133	1.1263e+02	-5.1031	-36.887309	0.000608	6.082863	2.060930	-0.000243
1134	1.1273e+02	-5.1384	-37.157797	0.000679	6.792530	2.301372	-0.000272
1135	1.1283e+02	-5.1817	-37.440397	0.000710	7.096673	2.404418	-0.000284
1136	1.1293e+02	-5.2170	-37.710885	0.000679	6.792530	2.301372	-0.000272
1137	1.1303e+02	-5.2571	-37.961187	0.000629	6.285625	2.129627	-0.000252
1138	1.1313e+02	-5.3020	-38.272047	0.000781	7.806341	2.644860	-0.000312
1139	1.1323e+02	-5.3405	-38.558683	0.000720	7.198055	2.438767	-0.000288
1140	1.1333e+02	-5.3806	-38.792837	0.000588	5.880101	1.992232	-0.000235
1141	1.1343e+02	-5.4191	-39.095622	0.000760	7.603579	2.576162	-0.000304
1142	1.1353e+02	-5.4592	-39.309591	0.000537	5.373196	1.820488	-0.000215
1143	1.1363e+02	-5.4993	-39.592190	0.000710	7.096673	2.404418	-0.000284
1144	1.1373e+02	-5.5378	-39.903050	0.000781	7.806341	2.644860	-0.000312
1145	1.1383e+02	-5.5747	-40.169501	0.000669	6.691149	2.267023	-0.000268
1146	1.1393e+02	-5.6196	-40.452100	0.000710	7.096673	2.404418	-0.000284
1147	1.1403e+02	-5.6581	-40.722588	0.000679	6.792530	2.301372	-0.000272
1148	1.1413e+02	-5.6934	-40.960779	0.000598	5.981482	2.026581	-0.000239
1149	1.1423e+02	-5.7399	-41.243379	0.000710	7.096673	2.404418	-0.000284
1150	1.1433e+02	-5.7656	-41.509830	0.000669	6.691149	2.267023	-0.000268
1151	1.1442e+02	-5.8282	-41.788392	0.000700	6.995292	2.370069	-0.000280
1152	1.1452e+02	-5.8667	-42.006397	0.000547	5.474577	1.854837	-0.000219
1153	1.1462e+02	-5.8940	-42.297071	0.000730	7.299436	2.473116	-0.000292
1154	1.1472e+02	-5.9437	-42.551411	0.000639	6.387006	2.163976	-0.000256
1155	1.1482e+02	-5.9645	-42.854196	0.000760	7.603579	2.576162	-0.000304
1156	1.1492e+02	-6.0223	-43.165055	0.000781	7.806341	2.644860	-0.000312
1157	1.1502e+02	-6.0576	-43.383061	0.000547	5.474577	1.854837	-0.000219
1158	1.1512e+02	-6.0993	-43.685846	0.000760	7.603579	2.576162	-0.000304
1159	1.1522e+02	-6.1426	-43.903851	0.000547	5.474577	1.854837	-0.000219
1160	1.1532e+02	-6.1795	-44.218748	0.000791	7.907722	2.679209	-0.000316
1161	1.1542e+02	-6.2260	-44.473087	0.000639	6.387006	2.163976	-0.000256
1162	1.1552e+02	-6.2533	-44.735501	0.000659	6.589768	2.232674	-0.000264
1163	1.1562e+02	-6.2934	-45.030212	0.000740	7.400817	2.507465	-0.000296
1164	1.1572e+02	-6.3351	-45.280514	0.000629	6.285625	2.129627	-0.000252
1165	1.1582e+02	-6.3688	-45.551003	0.000679	6.792530	2.301372	-0.000272
1166	1.1592e+02	-6.4153	-45.785156	0.000588	5.880101	1.992232	-0.000235
1167	1.1602e+02	-6.4490	-46.087942	0.000760	7.603579	2.576162	-0.000304
1168	1.1612e+02	-6.4891	-46.338244	0.000629	6.285625	2.129627	-0.000252
1169	1.1622e+02	-6.5292	-46.556249	0.000547	5.474577	1.854837	-0.000219
1170	1.1632e+02	-6.5806	-46.814626	0.000649	6.488387	2.198325	-0.000260
1171	1.1642e+02	-6.6159	-47.097226	0.000710	7.096673	2.404418	-0.000284
1172	1.1651e+02	-6.6495	-47.375788	0.000700	6.995292	2.370069	-0.000280
1173	1.1661e+02	-6.6832	-47.577645	0.000507	5.069052	1.717441	-0.000203
1174	1.1671e+02	-6.7249	-47.920801	0.000862	8.617389	2.919651	-0.000345
1175	1.1681e+02	-6.7667	-48.167066	0.000618	6.184244	2.095279	-0.000248
1176	1.1691e+02	-6.8116	-48.409295	0.000608	6.082863	2.060930	-0.000243
1177	1.1701e+02	-6.8453	-48.683820	0.000689	6.893911	2.335720	-0.000276
1178	1.1711e+02	-6.8870	-48.926048	0.000608	6.082863	2.060930	-0.000243
1179	1.1721e+02	-6.9319	-49.244982	0.000801	8.009103	2.713558	-0.000321
1180	1.1731e+02	-6.9736	-49.491247	0.000618	6.184244	2.095279	-0.000248
1181	1.1741e+02	-7.0089	-49.765772	0.000689	6.893911	2.335720	-0.000276
1182	1.1751e+02	-7.0490	-49.995889	0.000578	5.778720	1.957883	-0.000231
1183	1.1761e+02	-7.0955	-50.286563	0.000730	7.299436	2.473116	-0.000292
1184	1.1771e+02	-7.1340	-50.512642	0.000568	5.677339	1.923534	-0.000227
1185	1.1781e+02	-7.1661	-50.766982	0.000639	6.387006	2.163976	-0.000256
1186	1.1791e+02	-7.2174	-51.077841	0.000781	7.806341	2.644860	-0.000312
1187	1.1801e+02	-7.2527	-51.344292	0.000669	6.691149	2.267023	-0.000268
1188	1.1811e+02	-7.2848	-51.578446	0.000588	5.880101	1.992232	-0.000235
1189	1.1821e+02	-7.3185	-51.861046	0.000710	7.096673	2.404418	-0.000284
1190	1.1831e+02	-7.3634	-52.119422	0.000649	6.488387	2.198325	-0.000260
1191	1.1841e+02	-7.4148	-52.361651	0.000608	6.082863	2.060930	-0.000243
1192	1.1850e+02	-7.4501	-52.648287	0.000720	7.198055	2.438767	-0.000288
1193	1.1860e+02	-7.4870	-52.934924	0.000720	7.198055	2.438767	-0.000288
1194	1.1870e+02	-7.5222	-53.185226	0.000629	6.285625	2.129627	-0.000252
1195	1.1880e+02	-7.5720	-53.435529	0.000629	6.285625	2.129627	-0.000252
1196	1.1890e+02	-7.6137	-53.697942	0.000659	6.589768	2.232674	-0.000264
1197	1.1900e+02	-7.6522	-53.952282	0.000639	6.387006	2.163976	-0.000256
1198	1.1910e+02	-7.6907	-54.186436	0.000588	5.880101	1.992232	-0.000235
1199	1.1920e+02	-7.7260	-54.473073	0.000720	7.198055	2.438767	-0.000288
1200	1.1930e+02	-7.7725	-54.711264	0.000598	5.981482	2.026581	-0.000239
1201	1.1940e+02	-7.8062	-54.985789	0.000689	6.893911	2.335720	-0.000276
1202	1.1950e+02	-7.8399	-55.236091	0.000629	6.285625	2.129627	-0.000252
1203	1.1960e+02	-7.8912	-55.454096	0.000547	5.474577	1.854837	-0.000219
1204	1.1970e+02	-7.9217	-55.724585	0.000679	6.792530	2.301372	-0.000272
1205	1.1980e+02	-7.9666	-55.982961	0.000649	6.488387	2.198325	-0.000260
1206	1.1990e+02	-8.0035	-56.265561	0.000710	7.096673	2.404418	-0.000284
1207	1.2000e+02	-8.0532	-56.511826	0.000618	6.184244	2.095279	-0.000248
1208	1.2010e+02	-8.0789	-56.790388	0.000700	6.995292	2.370069	-0.000280
1209	1.2020e+02	-8.1335	-57.028579	0.000598	5.981482	2.026581	-0.000239
1210	1.2030e+02	-8.1671	-57.254659	0.000568	5.677339	1.923534	-0.000227
1211	1.2039e+02	-8.2089	-57.500924	0.000618	6.184244	2.095279	-0.000248
1212	1.2049e+02	-8.2458	-57.759301	0.000649	6.488387	2.198325	-0.000260
1213	1.2059e+02	-8.2859	-58.009603	0.000629	6.285625	2.129627	-0.000252
1214	1.2069e+02	-8.3340	-58.312389	0.000760	7.603579	2.576162	-0.000304
1215	1.2079e+02	-8.3661	-58.522320	0.000527	5.271815	1.786139	-0.000211
1216	1.2089e+02	-8.4078	-58.817031	0.000740	7.400817	2.507465	-0.000296
1217	1.2099e+02	-8.4447	-59.039073	0.000558	5.575958	1.889186	-0.000223
1218	1.2109e+02	-8.4768	-59.301487	0.000659	6.589768	2.232674	-0.000264
1219	1.2119e+02	-8.5217	-59.580049	0.000700	6.995292	2.370069	-0.000280
1220	1.2129e+02	-8.5618	-59.830352	0.000629	6.285625	2.129627	-0.000252
1221	1.2139e+02	-8.6051	-60.028171	0.000497	4.967671	1.683093	-0.000199
1222	1.2149e+02	-8.6452	-60.290585	0.000659	6.589768	2.232674	-0.000264
1223	1.2159e+02	-8.6837	-60.561073	0.000679	6.792530	2.301372	-0.000272
1224	1.2169e+02	-8.7270	-60.847710	0.000720	7.198055	2.438767	-0.000288
1225	1.2179e+02	-8.7591	-61.098012	0.000629	6.285625	2.129627	-0.000252
1226	1.2189e+02	-8.7960	-61.328129	0.000578	5.778720	1.957883	-0.000231
1227	1.2199e+02	-8.8329	-61.562283	0.000588	5.880101	1.992232	-0.000235
1228	1.2209e+02	-8.8762	-61.861031	0.000750	7.502198	2.541813	-0.000300
1229	1.2219e+02	-8.9211	-62.083073	0.000558	5.575958	1.889186	-0.000223
1230	1.2229e+02	-8.9709	-62.325302	0.000608	6.082863	2.060930	-0.000243
1231	1.2239e+02	-9.0014	-62.555418	0.000578	5.778720	1.957883	-0.000231
1232	1.2248e+02	-9.0382	-62.846092	0.000730	7.299436	2.473116	-0.000292
1233	1.2258e+02	-9.0816	-63.112543	0.000669	6.691149	2.267023	-0.000268
1234	1.2268e+02	-9.1249	-63.358808	0.000618	6.184244	2.095279	-0.000248
1235	1.2278e+02	-9.1666	-63.564702	0.000517	5.170434	1.751790	-0.000207
1236	1.2288e+02	-9.2035	-63.786745	0.000558	5.575958	1.889186	-0.000223
1237	1.2298e+02	-9.2484	-64.089530	0.000760	7.603579	2.576162	-0.000304
1238	1.2308e+02	-9.2725	-64.331758	0.000608	6.082863	2.060930	-0.000243
1239	1.2318e+02	-9.3238	-64.545726	0.000537	5.373196	1.820488	-0.000215
1240	1.2328e+02	-9.3559	-64.783917	0.000598	5.981482	2.026581	-0.000239
1241	1.2338e+02	-9.3992	-65.110925	0.000821	8.211865	2.782255	-0.000329
1242	1.2348e+02	-9.4393	-65.345079	0.000588	5.880101	1.992232	-0.000235
1243	1.2358e+02	-9.4762	-65.587307	0.000608	6.082863	2.060930	-0.000243
1244	1.2368e+02	-9.5259	-65.825498	0.000598	5.981482	2.026581	-0.000239
1245	1.2378e+02	-9.5548	-66.071763	0.000618	6.184244	2.095279	-0.000248
1246	1.2388e+02	-9.5997	-66.322066	0.000629	6.285625	2.129627	-0.000252
1247	1.2398e+02	-9.6430	-66.572368	0.000629	6.285625	2.129627	-0.000252
1248	1.2408e+02	-9.6815	-66.766151	0.000487	4.866290	1.648744	-0.000195
1249	1.2418e+02	-9.7217	-67.060862	0.000740	7.400817	2.507465	-0.000296
1250	1.2428e+02	-9.7618	-67.274830	0.000537	5.373196	1.820488	-0.000215
1251	1.2438e+02	-9.8035	-67.529169	0.000639	6.387006	2.163976	-0.000256
1252	1.2447e+02	-9.8404	-67.783509	0.000639	6.387006	2.163976	-0.000256
1253	1.2457e+02	-9.8821	-68.037849	0.000639	6.387006	2.163976	-0.000256
1254	1.2467e+02	-9.9126	-68.272002	0.000588	5.880101	1.992232	-0.000235
1255	1.2477e+02	-9.9639	-68.498082	0.000568	5.677339	1.923534	-0.000227
1256	1.2487e+02	-10.0072	-68.772607	0.000689	6.893911	2.335720	-0.000276
1257	1.2497e+02	-10.0393	-69.039058	0.000669	6.691149	2.267023	-0.000268
1258	1.2507e+02	-10.0778	-69.265138	0.000568	5.677339	1.923534	-0.000227
1259	1.2517e+02	-10.1275	-69.519477	0.000639	6.387006	2.163976	-0.000256
1260	1.2527e+02	-10.1612	-69.765743	0.000618	6.184244	2.095279	-0.000248
1261	1.2537e+02	-10.1997	-69.995859	0.000578	5.778720	1.957883	-0.000231
1262	1.2547e+02	-10.2350	-70.246162	0.000629	6.285625	2.129627	-0.000252
1263	1.2557e+02	-10.2751	-70.460130	0.000537	5.373196	1.820488	-0.000215
1264	1.2567e+02	-10.3152	-70.750804	0.000730	7.299436	2.473116	-0.000292
1265	1.2577e+02	-10.3569	-70.980921	0.000578	5.778720	1.957883	-0.000231
1266	1.2587e+02	-10.3938	-71.190852	0.000527	5.271815	1.786139	-0.000211
1267	1.2597e+02	-10.4371	-71.469414	0.000700	6.995292	2.370069	-0.000280
1268	1.2607e+02	-10.4772	-71.687419	0.000547	5.474577	1.854837	-0.000219
1269	1.2617e+02	-10.5222	-71.925610	0.000598	5.981482	2.026581	-0.000239
1270	1.2627e+02	-10.5559	-72.167838	0.000608	6.082863	2.060930	-0.000243
1271	1.2636e+02	-10.5976	-72.414104	0.000618	6.184244	2.095279	-0.000248
1272	1.2646e+02	-10.6409	-72.652295	0.000598	5.981482	2.026581	-0.000239
1273	1.2656e+02	-10.6842	-72.902597	0.000629	6.285625	2.129627	-0.000252
1274	1.2666e+02	-10.7147	-73.152900	0.000629	6.285625	2.129627	-0.000252
1275	1.2676e+02	-10.7500	-73.350719	0.000497	4.967671	1.683093	-0.000199
1276	1.2686e+02	-10.7917	-73.617170	0.000669	6.691149	2.267023	-0.000268
1277	1.2696e+02	-10.8350	-73.863435	0.000618	6.184244	2.095279	-0.000248
1278	1.2706e+02	-10.8735	-74.097589	0.000588	5.880101	1.992232	-0.000235
1279	1.2716e+02	-10.9088	-74.327706	0.000578	5.778720	1.957883	-0.000231
1280	1.2726e+02	-10.9537	-74.529563	0.000507	5.069052	1.717441	-0.000203
1281	1.2736e+02	-10.9986	-74.808125	0.000700	6.995292	2.370069	-0.000280
1282	1.2746e+02	-11.0403	-75.058428	0.000629	6.285625	2.129627	-0.000252
1283	1.2756e+02	-11.0852	-75.276433	0.000547	5.474577	1.854837	-0.000219
1284	1.2766e+02	-11.1109	-75.502513	0.000568	5.677339	1.923534	-0.000227
1285	1.2776e+02	-11.1510	-75.760889	0.000649	6.488387	2.198325	-0.000260
1286	1.2786e+02	-11.1895	-76.027340	0.000669	6.691149	2.267023	-0.000268
1287	1.2796e+02	-11.2377	-76.213048	0.000466	4.663528	1.580046	-0.000187
1288	1.2806e+02	-11.2745	-76.443165	0.000578	5.778720	1.957883	-0.000231
1289	1.2816e+02	-11.3243	-76.709616	0.000669	6.691149	2.267023	-0.000268
1290	1.2826e+02	-11.3548	-76.963956	0.000639	6.387006	2.163976	-0.000256
1291	1.2835e+02	-11.3981	-77.214258	0.000629	6.285625	2.129627	-0.000252
1292	1.2845e+02	-11.4382	-77.460523	0.000618	6.184244	2.095279	-0.000248
1293	1.2855e+02	-11.4719	-77.674492	0.000537	5.373196	1.820488	-0.000215
1294	1.2865e+02	-11.5216	-77.932868	0.000649	6.488387	2.198325	-0.000260
1295	1.2875e+02	-11.5617	-78.134725	0.000507	5.069052	1.717441	-0.000203
1296	1.2885e+02	-11.5890	-78.352730	0.000547	5.474577	1.854837	-0.000219
1297	1.2895e+02	-11.6387	-78.647441	0.000740	7.400817	2.507465	-0.000296
1298	1.2905e+02	-11.6740	-78.845261	0.000497	4.967671	1.683093	-0.000199
1299	1.2915e+02	-11.7189	-79.123823	0.000700	6.995292	2.370069	-0.000280
1300	1.2925e+02	-11.7494	-79.333754	0.000527	5.271815	1.786139	-0.000211
1301	1.2935e+02	-11.7943	-79.555797	0.000558	5.575958	1.889186	-0.000223
1302	1.2945e+02	-11.8280	-79.781876	0.000568	5.677339	1.923534	-0.000227
1303	1.2955e+02	-11.8697	-80.036216	0.000639	6.387006	2.163976	-0.000256
1304	1.2965e+02	-11.9146	-80.278444	0.000608	6.082863	2.060930	-0.000243
1305	1.2975e+02	-11.9467	-80.492412	0.000537	5.373196	1.820488	-0.000215
1306	1.2985e+02	-11.9884	-80.742715	0.000629	6.285625	2.129627	-0.000252
1307	1.2995e+02	-12.0285	-80.997054	0.000639	6.387006	2.163976	-0.000256
1308	1.3005e+02	-12.0702	-81.227171	0.000578	5.778720	1.957883	-0.000231
1309	1.3015e+02	-12.1200	-81.441139	0.000537	5.373196	1.820488	-0.000215
1310	1.3025e+02	-12.1521	-81.671256	0.000578	5.778720	1.957883	-0.000231
1311	1.3034e+02	-12.1858	-81.909447	0.000598	5.981482	2.026581	-0.000239
1312	1.3044e+02	-12.2371	-82.119378	0.000527	5.271815	1.786139	-0.000211
1313	1.3054e+02	-12.2660	-82.349495	0.000578	5.778720	1.957883	-0.000231
1314	1.3064e+02	-12.3109	-82.615946	0.000669	6.691149	2.267023	-0.000268
1315	1.3074e+02	-12.3462	-82.850100	0.000588	5.880101	1.992232	-0.000235
1316	1.3084e+02	-12.3927	-83.060031	0.000527	5.271815	1.786139	-0.000211
1317	1.3094e+02	-12.4280	-83.314370	0.000639	6.387006	2.163976	-0.000256
1318	1.3104e+02	-12.4681	-83.552561	0.000598	5.981482	2.026581	-0.000239
1319	1.3114e+02	-12.5130	-83.762492	0.000527	5.271815	1.786139	-0.000211
1320	1.3124e+02	-12.5563	-83.984535	0.000558	5.575958	1.889186	-0.000223
1321	1.3134e+02	-12.5852	-84.230800	0.000618	6.184244	2.095279	-0.000248
1322	1.3144e+02	-12.6285	-84.456880	0.000568	5.677339	1.923534	-0.000227
1323	1.3154e+02	-12.6734	-84.739479	0.000710	7.096673	2.404418	-0.000284
1324	1.3164e+02	-12.7119	-84.941336	0.000507	5.069052	1.717441	-0.000203
1325	1.3174e+02	-12.7472	-85.151267	0.000527	5.271815	1.786139	-0.000211
1326	1.3184e+02	-12.7938	-85.450015	0.000750	7.502198	2.541813	-0.000300
1327	1.3194e+02	-12.8226	-85.595352	0.000365	3.649718	1.236558	-0.000146
1328	1.3204e+02	-12.8643	-85.845654	0.000629	6.285625	2.129627	-0.000252
1329	1.3214e+02	-12.9012	-86.043474	0.000497	4.967671	1.683093	-0.000199
1330	1.3224e+02	-12.9462	-86.261479	0.000547	5.474577	1.854837	-0.000219
1331	1.3234e+02	-12.9831	-86.515819	0.000639	6.387006	2.163976	-0.000256
1332	1.3243e+02	-13.0280	-86.725750	0.000527	5.271815	1.786139	-0.000211
1333	1.3253e+02	-13.0617	-87.008349	0.000710	7.096673	2.404418	-0.000284
1334	1.3263e+02	-13.1130	-87.173872	0.000416	4.156623	1.408302	-0.000166
1335	1.3273e+02	-13.1403	-87.424174	0.000629	6.285625	2.129627	-0.000252
1336	1.3283e+02	-13.1820	-87.662365	0.000598	5.981482	2.026581	-0.000239
1337	1.3293e+02	-13.2269	-87.928816	0.000669	6.691149	2.267023	-0.000268
1338	1.3303e+02	-13.2766	-88.146822	0.000547	5.474577	1.854837	-0.000219
1339	1.3313e+02	-13.3039	-88.352716	0.000517	5.170434	1.751790	-0.000207
1340	1.3323e+02	-13.3360	-88.607055	0.000639	6.387006	2.163976	-0.000256
1341	1.3333e+02	-13.3905	-88.788726	0.000456	4.562147	1.545697	-0.000183
1342	1.3343e+02	-13.4258	-89.051140	0.000659	6.589768	2.232674	-0.000264
1343	1.3353e+02	-13.4691	-89.289331	0.000598	5.981482	2.026581	-0.000239
1344	1.3363e+02	-13.4980	-89.495225	0.000517	5.170434	1.751790	-0.000207
1345	1.3373e+02	-13.5477	-89.705156	0.000527	5.271815	1.786139	-0.000211
1346	1.3383e+02	-13.5750	-89.923161	0.000547	5.474577	1.854837	-0.000219
1347	1.3393e+02	-13.6231	-90.193650	0.000679	6.792530	2.301372	-0.000272
1348	1.3403e+02	-13.6649	-90.399543	0.000517	5.170434	1.751790	-0.000207
1349	1.3413e+02	-13.7034	-90.621586	0.000558	5.575958	1.889186	-0.000223
1350	1.3423e+02	-13.7370	-90.839591	0.000547	5.474577	1.854837	-0.000219
1351	1.3432e+02	-13.7852	-91.065671	0.000568	5.677339	1.923534	-0.000227
1352	1.3442e+02	-13.8237	-91.283676	0.000547	5.474577	1.854837	-0.000219
1353	1.3452e+02	-13.8622	-91.554164	0.000679	6.792530	2.301372	-0.000272
1354	1.3462e+02	-13.9007	-91.747947	0.000487	4.866290	1.648744	-0.000195
1355	1.3472e+02	-13.9392	-91.937692	0.000476	4.764909	1.614395	-0.000191
1356	1.3482e+02	-13.9873	-92.167809	0.000578	5.778720	1.957883	-0.000231
1357	1.3492e+02	-14.0226	-92.406000	0.000598	5.981482	2.026581	-0.000239
1358	1.3502e+02	-14.0563	-92.632080	0.000568	5.677339	1.923534	-0.000227
1359	1.3512e+02	-14.1060	-92.862196	0.000578	5.778720	1.957883	-0.000231
1360	1.3522e+02	-14.1477	-93.060016	0.000497	4.967671	1.683093	-0.000199
1361	1.3532e+02	-14.1926	-93.326467	0.000669	6.691149	2.267023	-0.000268
1362	1.3542e+02	-14.2215	-93.520249	0.000487	4.866290	1.648744	-0.000195
1363	1.3552e+02	-14.2552	-93.802849	0.000710	7.096673	2.404418	-0.000284
1364	1.3562e+02	-14.3082	-94.004706	0.000507	5.069052	1.717441	-0.000203
1365	1.3572e+02	-14.3418	-94.230785	0.000568	5.677339	1.923534	-0.000227
1366	1.3582e+02	-14.3739	-94.473013	0.000608	6.082863	2.060930	-0.000243
1367	1.3592e+02	-14.4156	-94.638536	0.000416	4.156623	1.408302	-0.000166
1368	1.3602e+02	-14.4654	-94.840393	0.000507	5.069052	1.717441	-0.000203
1369	1.3612e+02	-14.5007	-95.102807	0.000659	6.589768	2.232674	-0.000264
1370	1.3622e+02	-14.5376	-95.292552	0.000476	4.764909	1.614395	-0.000191
1371	1.3631e+02	-14.5825	-95.482297	0.000476	4.764909	1.614395	-0.000191
1372	1.3641e+02	-14.6146	-95.760860	0.000700	6.995292	2.370069	-0.000280
1373	1.3651e+02	-14.6595	-95.966754	0.000517	5.170434	1.751790	-0.000207
1374	1.3661e+02	-14.6980	-96.217056	0.000629	6.285625	2.129627	-0.000252
1375	1.3671e+02	-14.7381	-96.398727	0.000456	4.562147	1.545697	-0.000183
1376	1.3681e+02	-14.7846	-96.628844	0.000578	5.778720	1.957883	-0.000231
1377	1.3691e+02	-14.8231	-96.826664	0.000497	4.967671	1.683093	-0.000199
1378	1.3701e+02	-14.8584	-97.072929	0.000618	6.184244	2.095279	-0.000248
1379	1.3711e+02	-14.9001	-97.282860	0.000527	5.271815	1.786139	-0.000211
1380	1.3721e+02	-14.9466	-97.476642	0.000487	4.866290	1.648744	-0.000195
1381	1.3731e+02	-14.9787	-97.678499	0.000507	5.069052	1.717441	-0.000203
1382	1.3741e+02	-15.0140	-97.936876	0.000649	6.488387	2.198325	-0.000260
1383	1.3751e+02	-15.0541	-98.138733	0.000507	5.069052	1.717441	-0.000203
1384	1.3761e+02	-15.0958	-98.397109	0.000649	6.488387	2.198325	-0.000260
1385	1.3771e+02	-15.1424	-98.586855	0.000476	4.764909	1.614395	-0.000191
1386	1.3781e+02	-15.1841	-98.816971	0.000578	5.778720	1.957883	-0.000231
1387	1.3791e+02	-15.2113	-99.067274	0.000629	6.285625	2.129627	-0.000252
1388	1.3801e+02	-15.2563	-99.265094	0.000497	4.967671	1.683093	-0.000199
1389	1.3811e+02	-15.3012	-99.470987	0.000517	5.170434	1.751790	-0.000207
1390	1.3821e+02	-15.3365	-99.697067	0.000568	5.677339	1.923534	-0.000227
1391	1.3831e+02	-15.3750	-99.947369	0.000629	6.285625	2.129627	-0.000252
1392	1.3840e+02	-15.4135	-100.100781	0.000385	3.852480	1.305256	-0.000154
1393	1.3850e+02	-15.4568	-100.326860	0.000568	5.677339	1.923534	-0.000227
1394	1.3860e+02	-15.5001	-100.548903	0.000558	5.575958	1.889186	-0.000223
1395	1.3870e+02	-15.5242	-100.811317	0.000659	6.589768	2.232674	-0.000264
1396	1.3880e+02	-15.5707	-101.049508	0.000598	5.981482	2.026581	-0.000239
1397	1.3890e+02	-15.6124	-101.223104	0.000436	4.359385	1.477000	-0.000174
1398	1.3900e+02	-15.6525	-101.428998	0.000517	5.170434	1.751790	-0.000207
1399	1.3910e+02	-15.7006	-101.622781	0.000487	4.866290	1.648744	-0.000195
1400	1.3920e+02	-15.7407	-101.869046	0.000618	6.184244	2.095279	-0.000248
1401	1.3930e+02	-15.7728	-102.087051	0.000547	5.474577	1.854837	-0.000219
1402	1.3940e+02	-15.8065	-102.333317	0.000618	6.184244	2.095279	-0.000248
1403	1.3950e+02	-15.8514	-102.482691	0.000375	3.751099	1.270907	-0.000150
1404	1.3960e+02	-15.8867	-102.737030	0.000639	6.387006	2.163976	-0.000256
1405	1.3970e+02	-15.9348	-102.926776	0.000476	4.764909	1.614395	-0.000191
1406	1.3980e+02	-15.9782	-103.160930	0.000588	5.880101	1.992232	-0.000235
1407	1.3990e+02	-16.0167	-103.374898	0.000537	5.373196	1.820488	-0.000215
1408	1.4000e+02	-16.0616	-103.588866	0.000537	5.373196	1.820488	-0.000215
1409	1.4010e+02	-16.1017	-103.863391	0.000689	6.893911	2.335720	-0.000276
1410	1.4020e+02	-16.1290	-104.012765	0.000375	3.751099	1.270907	-0.000150
1411	1.4029e+02	-16.1755	-104.182325	0.000426	4.258004	1.442651	-0.000170
1412	1.4039e+02	-16.2300	-104.477036	0.000740	7.400817	2.507465	-0.000296
1413	1.4049e+02	-16.2557	-104.674855	0.000497	4.967671	1.683093	-0.000199
1414	1.4059e+02	-16.2910	-104.921121	0.000618	6.184244	2.095279	-0.000248
1415	1.4069e+02	-16.3167	-105.114903	0.000487	4.866290	1.648744	-0.000195
1416	1.4079e+02	-16.3728	-105.296574	0.000456	4.562147	1.545697	-0.000183
1417	1.4089e+02	-16.4049	-105.530728	0.000588	5.880101	1.992232	-0.000235
1418	1.4099e+02	-16.4530	-105.728548	0.000497	4.967671	1.683093	-0.000199
1419	1.4109e+02	-16.4915	-105.994999	0.000669	6.691149	2.267023	-0.000268
1420	1.4119e+02	-16.5252	-106.200893	0.000517	5.170434	1.751790	-0.000207
1421	1.4129e+02	-16.5765	-106.394675	0.000487	4.866290	1.648744	-0.000195
1422	1.4139e+02	-16.6086	-106.612681	0.000547	5.474577	1.854837	-0.000219
1423	1.4149e+02	-16.6535	-106.802426	0.000476	4.764909	1.614395	-0.000191
1424	1.4159e+02	-16.6888	-107.012357	0.000527	5.271815	1.786139	-0.000211
1425	1.4169e+02	-16.7225	-107.266697	0.000639	6.387006	2.163976	-0.000256
1426	1.4179e+02	-16.7723	-107.468553	0.000507	5.069052	1.717441	-0.000203
1427	1.4189e+02	-16.8140	-107.686559	0.000547	5.474577	1.854837	-0.000219
1428	1.4199e+02	-16.8621	-107.892453	0.000517	5.170434	1.751790	-0.000207
1429	1.4209e+02	-16.8894	-108.114495	0.000558	5.575958	1.889186	-0.000223
1430	1.4219e+02	-16.9327	-108.344612	0.000578	5.778720	1.957883	-0.000231
1431	1.4228e+02	-16.9712	-108.546469	0.000507	5.069052	1.717441	-0.000203
1432	1.4238e+02	-17.0049	-108.764474	0.000547	5.474577	1.854837	-0.000219
1433	1.4248e+02	-17.0450	-108.982479	0.000547	5.474577	1.854837	-0.000219
1434	1.4258e+02	-17.0979	-109.196447	0.000537	5.373196	1.820488	-0.000215
1435	1.4268e+02	-17.1300	-109.402341	0.000517	5.170434	1.751790	-0.000207
1436	1.4278e+02	-17.1733	-109.616310	0.000537	5.373196	1.820488	-0.000215
1437	1.4288e+02	-17.2038	-109.854501	0.000598	5.981482	2.026581	-0.000239
1438	1.4298e+02	-17.2439	-110.056357	0.000507	5.069052	1.717441	-0.000203
1439	1.4308e+02	-17.2920	-110.294548	0.000598	5.981482	2.026581	-0.000239
1440	1.4318e+02	-17.3369	-110.520628	0.000568	5.677339	1.923534	-0.000227
1441	1.4328e+02	-17.3642	-110.657891	0.000345	3.446956	1.167860	-0.000138
1442	1.4338e+02	-17.4091	-110.892044	0.000588	5.880101	1.992232	-0.000235
1443	1.4348e+02	-17.4621	-111.138310	0.000618	6.184244	2.095279	-0.000248
1444	1.4358e+02	-17.4910	-111.332092	0.000487	4.866290	1.648744	-0.000195
1445	1.4368e+02	-17.5327	-111.521838	0.000476	4.764909	1.614395	-0.000191
1446	1.4378e+02	-17.5712	-111.772140	0.000629	6.285625	2.129627	-0.000252
1447	1.4388e+02	-17.6032	-111.986108	0.000537	5.373196	1.820488	-0.000215
1448	1.4398e+02	-17.6466	-112.183928	0.000497	4.967671	1.683093	-0.000199
1449	1.4408e+02	-17.6867	-112.446342	0.000659	6.589768	2.232674	-0.000264
1450	1.4418e+02	-17.7220	-112.640124	0.000487	4.866290	1.648744	-0.000195
1451	1.4428e+02	-17.7781	-112.854092	0.000537	5.373196	1.820488	-0.000215
1452	1.4437e+02	-17.8214	-113.059986	0.000517	5.170434	1.751790	-0.000207
1453	1.4447e+02	-17.8471	-113.265880	0.000517	5.170434	1.751790	-0.000207
1454	1.4457e+02	-17.8760	-113.487923	0.000558	5.575958	1.889186	-0.000223
1455	1.4467e+02	-17.9241	-113.746299	0.000649	6.488387	2.198325	-0.000260
1456	1.4477e+02	-17.9658	-113.911822	0.000416	4.156623	1.408302	-0.000166
1457	1.4487e+02	-18.0139	-114.117716	0.000517	5.170434	1.751790	-0.000207
1458	1.4497e+02	-18.0364	-114.380130	0.000659	6.589768	2.232674	-0.000264
1459	1.4507e+02	-18.0909	-114.590061	0.000527	5.271815	1.786139	-0.000211
1460	1.4517e+02	-18.1262	-114.840363	0.000629	6.285625	2.129627	-0.000252
1461	1.4527e+02	-18.1631	-115.026071	0.000466	4.663528	1.580046	-0.000187
1462	1.4537e+02	-18.2129	-115.268300	0.000608	6.082863	2.060930	-0.000243
1463	1.4547e+02	-18.2449	-115.441896	0.000436	4.359385	1.477000	-0.000174
1464	1.4557e+02	-18.2899	-115.680087	0.000598	5.981482	2.026581	-0.000239
1465	1.4567e+02	-18.3316	-115.938464	0.000649	6.488387	2.198325	-0.000260
1466	1.4577e+02	-18.3588	-116.152432	0.000537	5.373196	1.820488	-0.000215
1467	1.4587e+02	-18.4038	-116.346215	0.000487	4.866290	1.648744	-0.000195
1468	1.4597e+02	-18.4455	-116.604592	0.000649	6.488387	2.198325	-0.000260
1469	1.4607e+02	-18.4920	-116.786263	0.000456	4.562147	1.545697	-0.000183
1470	1.4617e+02	-18.5321	-116.996194	0.000527	5.271815	1.786139	-0.000211
1471	1.4626e+02	-18.5626	-117.226310	0.000578	5.778720	1.957883	-0.000231
1472	1.4636e+02	-18.6075	-117.460464	0.000588	5.880101	1.992232	-0.000235
1473	1.4646e+02	-18.6428	-117.674432	0.000537	5.373196	1.820488	-0.000215
1474	1.4656e+02	-18.6813	-117.888401	0.000537	5.373196	1.820488	-0.000215
1475	1.4666e+02	-18.7182	-118.171000	0.000710	7.096673	2.404418	-0.000284
1476	1.4676e+02	-18.7647	-118.372857	0.000507	5.069052	1.717441	-0.000203
1477	1.4686e+02	-18.7984	-118.554528	0.000456	4.562147	1.545697	-0.000183
1478	1.4696e+02	-18.8385	-118.772533	0.000547	5.474577	1.854837	-0.000219
1479	1.4706e+02	-18.8818	-119.038984	0.000669	6.691149	2.267023	-0.000268
1480	1.4716e+02	-18.9203	-119.256990	0.000547	5.474577	1.854837	-0.000219
1481	1.4726e+02	-18.9701	-119.446735	0.000476	4.764909	1.614395	-0.000191
1482	1.4736e+02	-19.0005	-119.705112	0.000649	6.488387	2.198325	-0.000260
1483	1.4746e+02	-19.0422	-119.923117	0.000547	5.474577	1.854837	-0.000219
1484	1.4756e+02	-19.0920	-120.177457	0.000639	6.387006	2.163976	-0.000256
1485	1.4766e+02	-19.1160	-120.338942	0.000406	4.055242	1.373953	-0.000162
1486	1.4776e+02	-19.1561	-120.585207	0.000618	6.184244	2.095279	-0.000248
1487	1.4786e+02	-19.1946	-120.803213	0.000547	5.474577	1.854837	-0.000219
1488	1.4796e+02	-19.2396	-121.045441	0.000608	6.082863	2.060930	-0.000243
1489	1.4806e+02	-19.2813	-121.287669	0.000608	6.082863	2.060930	-0.000243
1490	1.4816e+02	-19.3182	-121.481451	0.000487	4.866290	1.648744	-0.000195
1491	1.4825e+02	-19.3615	-121.735791	0.000639	6.387006	2.163976	-0.000256
1492	1.4835e+02	-19.3984	-121.998205	0.000659	6.589768	2.232674	-0.000264
1493	1.4845e+02	-19.4417	-122.224284	0.000568	5.677339	1.923534	-0.000227
1494	1.4855e+02	-19.4770	-122.430178	0.000517	5.170434	1.751790	-0.000207
1495	1.4865e+02	-19.5155	-122.664332	0.000588	5.880101	1.992232	-0.000235
1496	1.4875e+02	-19.5668	-122.886375	0.000558	5.575958	1.889186	-0.000223
1497	1.4885e+02	-19.6053	-123.128603	0.000608	6.082863	2.060930	-0.000243
1498	1.4895e+02	-19.6294	-123.334497	0.000517	5.170434	1.751790	-0.000207
1499	1.4905e+02	-19.6823	-123.584799	0.000629	6.285625	2.129627	-0.000252
1500	1.4915e+02	-19.7224	-123.798767	0.000537	5.373196	1.820488	-0.000215
1501	1.4925e+02	-19.7609	-124.061181	0.000659	6.589768	2.232674	-0.000264
1502	1.4935e+02	-19.7946	-124.307447	0.000618	6.184244	2.095279	-0.000248
1503	1.4945e+02	-19.8347	-124.533526	0.000568	5.677339	1.923534	-0.000227
1504	1.4955e+02	-19.8813	-124.791903	0.000649	6.488387	2.198325	-0.000260
1505	1.4965e+02	-19.9166	-125.013945	0.000558	5.575958	1.889186	-0.000223
1506	1.4975e+02	-19.9615	-125.256173	0.000608	6.082863	2.060930	-0.000243
1507	1.4985e+02	-19.9936	-125.445919	0.000476	4.764909	1.614395	-0.000191
1508	1.4995e+02	-19.9567	-125.393436	0.000132	1.317954	0.446535	0.000053
1509	1.5005e+02	-19.9278	-125.353065	0.000101	1.013810	0.343488	0.000041
1510	1.5015e+02	-19.8748	-125.155245	0.000497	4.967671	1.683093	0.000199
1511	1.5025e+02	-19.8283	-125.078539	0.000193	1.926240	0.652628	0.000077
1512	1.5034e+02	-19.7914	-124.997797	0.000203	2.027621	0.686977	0.000081
1513	1.5044e+02	-19.7577	-124.880720	0.000294	2.940050	0.996116	0.000118
1514	1.5054e+02	-19.7144	-124.759606	0.000304	3.041431	1.030465	0.000122
1515	1.5064e+02	-19.6695	-124.634455	0.000314	3.142813	1.064814	0.000126
1516	1.5074e+02	-19.6390	-124.509303	0.000314	3.142813	1.064814	0.000126
1517	1.5084e+02	-19.6069	-124.428561	0.000203	2.027621	0.686977	0.000081
1518	1.5094e+02	-19.5620	-124.287261	0.000355	3.548337	1.202209	0.000142
1519	1.5104e+02	-19.5155	-124.170184	0.000294	2.940050	0.996116	0.000118
1520	1.5114e+02	-19.4754	-124.040996	0.000324	3.244194	1.099163	0.000130
1521	1.5124e+02	-19.4353	-123.919881	0.000304	3.041431	1.030465	0.000122
1522	1.5134e+02	-19.3968	-123.814916	0.000264	2.635907	0.893070	0.000105
1523	1.5144e+02	-19.3647	-123.673616	0.000355	3.548337	1.202209	0.000142
1524	1.5154e+02	-19.3230	-123.588836	0.000213	2.129002	0.721325	0.000085
1525	1.5164e+02	-19.2813	-123.435425	0.000385	3.852480	1.305256	0.000154
1526	1.5174e+02	-19.2348	-123.302200	0.000335	3.345575	1.133511	0.000134
1527	1.5184e+02	-19.2011	-123.152826	0.000375	3.751099	1.270907	0.000150
1528	1.5194e+02	-19.1690	-123.023637	0.000324	3.244194	1.099163	0.000130
1529	1.5204e+02	-19.1176	-122.866189	0.000395	3.953861	1.339604	0.000158
1530	1.5214e+02	-19.0807	-122.761224	0.000264	2.635907	0.893070	0.000105
1531	1.5224e+02	-19.0471	-122.587627	0.000436	4.359385	1.477000	0.000174
1532	1.5233e+02	-18.9957	-122.450364	0.000345	3.446956	1.167860	0.000138
1533	1.5243e+02	-18.9572	-122.321176	0.000324	3.244194	1.099163	0.000130
1534	1.5253e+02	-18.9219	-122.155653	0.000416	4.156623	1.408302	0.000166
1535	1.5263e+02	-18.8850	-122.026465	0.000324	3.244194	1.099163	0.000130
1536	1.5273e+02	-18.8481	-121.885165	0.000355	3.548337	1.202209	0.000142
1537	1.5283e+02	-18.8064	-121.776162	0.000274	2.737288	0.927418	0.000110
1538	1.5293e+02	-18.7631	-121.582380	0.000487	4.866290	1.648744	0.000195
1539	1.5303e+02	-18.7198	-121.453192	0.000324	3.244194	1.099163	0.000130
1540	1.5313e+02	-18.6813	-121.291706	0.000406	4.055242	1.373953	0.000162
1541	1.5323e+02	-18.6508	-121.134258	0.000395	3.953861	1.339604	0.000158
1542	1.5333e+02	-18.6043	-120.960661	0.000436	4.359385	1.477000	0.000174
1543	1.5343e+02	-18.5562	-120.847621	0.000284	2.838669	0.961767	0.000114
1544	1.5353e+02	-18.5257	-120.698247	0.000375	3.751099	1.270907	0.000150
1545	1.5363e+02	-18.4743	-120.528687	0.000426	4.258004	1.442651	0.000170
1546	1.5373e+02	-18.4471	-120.407573	0.000304	3.041431	1.030465	0.000122
1547	1.5383e+02	-18.3989	-120.242051	0.000416	4.156623	1.408302	0.000166
1548	1.5393e+02	-18.3685	-120.084603	0.000395	3.953861	1.339604	0.000158
1549	1.5403e+02	-18.3348	-119.894857	0.000476	4.764909	1.614395	0.000191
1550	1.5413e+02	-18.2931	-119.733372	0.000406	4.055242	1.373953	0.000162
1551	1.5422e+02	-18.2530	-119.579961	0.000385	3.852480	1.305256	0.000154
1552	1.5432e+02	-18.1984	-119.434624	0.000365	3.649718	1.236558	0.000146
1553	1.5442e+02	-18.1647	-119.297361	0.000345	3.446956	1.167860	0.000138
1554	1.5452e+02	-18.1342	-119.139913	0.000395	3.953861	1.339604	0.000158
1555	1.5462e+02	-18.0861	-118.925945	0.000537	5.373196	1.820488	0.000215
1556	1.5472e+02	-18.0540	-118.816942	0.000274	2.737288	0.927418	0.000110
1557	1.5482e+02	-18.0091	-118.602974	0.000537	5.373196	1.820488	0.000215
1558	1.5492e+02	-17.9674	-118.461674	0.000355	3.548337	1.202209	0.000142
1559	1.5502e+02	-17.9369	-118.284040	0.000446	4.460766	1.511348	0.000179
1560	1.5512e+02	-17.8808	-118.142740	0.000355	3.548337	1.202209	0.000142
1561	1.5522e+02	-17.8471	-118.025663	0.000294	2.940050	0.996116	0.000118
1562	1.5532e+02	-17.8070	-117.783435	0.000608	6.082863	2.060930	0.000243
1563	1.5542e+02	-17.7701	-117.678470	0.000264	2.635907	0.893070	0.000105
1564	1.5552e+02	-17.7268	-117.492761	0.000466	4.663528	1.580046	0.000187
1565	1.5562e+02	-17.6915	-117.331276	0.000406	4.055242	1.373953	0.000162
1566	1.5572e+02	-17.6369	-117.169791	0.000406	4.055242	1.373953	0.000162
1567	1.5582e+02	-17.6016	-116.980045	0.000476	4.764909	1.614395	0.000191
1568	1.5592e+02	-17.5712	-116.810485	0.000426	4.258004	1.442651	0.000170
1569	1.5602e+02	-17.5407	-116.624777	0.000466	4.663528	1.580046	0.000187
1570	1.5612e+02	-17.4861	-116.511737	0.000284	2.838669	0.961767	0.000114
1571	1.5622e+02	-17.4621	-116.350252	0.000406	4.055242	1.373953	0.000162
1572	1.5631e+02	-17.4043	-116.188767	0.000406	4.055242	1.373953	0.000162
1573	1.5641e+02	-17.3722	-115.974798	0.000537	5.373196	1.820488	0.000215
1574	1.5651e+02	-17.3241	-115.837536	0.000345	3.446956	1.167860	0.000138
1575	1.5661e+02	-17.2952	-115.688162	0.000375	3.751099	1.270907	0.000150
1576	1.5671e+02	-17.2567	-115.502453	0.000466	4.663528	1.580046	0.000187
1577	1.5681e+02	-17.2166	-115.316745	0.000466	4.663528	1.580046	0.000187
1578	1.5691e+02	-17.1653	-115.139111	0.000446	4.460766	1.511348	0.000179
1579	1.5701e+02	-17.1284	-114.949366	0.000476	4.764909	1.614395	0.000191
1580	1.5711e+02	-17.0963	-114.812103	0.000345	3.446956	1.167860	0.000138
1581	1.5721e+02	-17.0546	-114.642544	0.000426	4.258004	1.442651	0.000170
1582	1.5731e+02	-16.9920	-114.464910	0.000446	4.460766	1.511348	0.000179
1583	1.5741e+02	-16.9744	-114.303424	0.000406	4.055242	1.373953	0.000162
1584	1.5751e+02	-16.9311	-114.105604	0.000497	4.967671	1.683093	0.000199
1585	1.5761e+02	-16.8878	-113.923933	0.000456	4.562147	1.545697	0.000183
1586	1.5771e+02	-16.8477	-113.754374	0.000426	4.258004	1.442651	0.000170
1587	1.5781e+02	-16.8043	-113.596925	0.000395	3.953861	1.339604	0.000158
1588	1.5791e+02	-16.7771	-113.431403	0.000416	4.156623	1.408302	0.000166
1589	1.5801e+02	-16.7289	-113.286066	0.000365	3.649718	1.236558	0.000146
1590	1.5811e+02	-16.6888	-113.096321	0.000476	4.764909	1.614395	0.000191
1591	1.5821e+02	-16.6471	-112.918687	0.000446	4.460766	1.511348	0.000179
1592	1.5830e+02	-16.6054	-112.785461	0.000335	3.345575	1.133511	0.000134
1593	1.5840e+02	-16.5733	-112.603790	0.000456	4.562147	1.545697	0.000183
1594	1.5850e+02	-16.5268	-112.414045	0.000476	4.764909	1.614395	0.000191
1595	1.5860e+02	-16.4835	-112.220262	0.000487	4.866290	1.648744	0.000195
1596	1.5870e+02	-16.4498	-112.058777	0.000406	4.055242	1.373953	0.000162
1597	1.5880e+02	-16.4097	-111.913440	0.000365	3.649718	1.236558	0.000146
1598	1.5890e+02	-16.3680	-111.695434	0.000547	5.474577	1.854837	0.000219
1599	1.5900e+02	-16.3311	-111.517800	0.000446	4.460766	1.511348	0.000179
1600	1.5910e+02	-16.2926	-111.328055	0.000476	4.764909	1.614395	0.000191
1601	1.5920e+02	-16.2557	-111.158495	0.000426	4.258004	1.442651	0.000170
1602	1.5930e+02	-16.2028	-110.952601	0.000517	5.170434	1.751790	0.000207
1603	1.5940e+02	-16.1739	-110.811302	0.000355	3.548337	1.202209	0.000142
1604	1.5950e+02	-16.1338	-110.605408	0.000517	5.170434	1.751790	0.000207
1605	1.5960e+02	-16.0985	-110.447960	0.000395	3.953861	1.339604	0.000158
1606	1.5970e+02	-16.0632	-110.262251	0.000466	4.663528	1.580046	0.000187
1607	1.5980e+02	-16.0167	-110.092692	0.000426	4.258004	1.442651	0.000170
1608	1.5990e+02	-15.9733	-109.898909	0.000487	4.866290	1.648744	0.000195
1609	1.6000e+02	-15.9332	-109.757609	0.000355	3.548337	1.202209	0.000142
1610	1.6010e+02	-15.8996	-109.543641	0.000537	5.373196	1.820488	0.000215
1611	1.6019e+02	-15.8578	-109.353896	0.000476	4.764909	1.614395	0.000191
1612	1.6029e+02	-15.8161	-109.192410	0.000406	4.055242	1.373953	0.000162
1613	1.6039e+02	-15.7712	-108.990554	0.000507	5.069052	1.717441	0.000203
1614	1.6049e+02	-15.7423	-108.857328	0.000335	3.345575	1.133511	0.000134
1615	1.6059e+02	-15.7022	-108.651434	0.000517	5.170434	1.751790	0.000207
1616	1.6069e+02	-15.6525	-108.441503	0.000527	5.271815	1.786139	0.000211
1617	1.6079e+02	-15.6156	-108.243683	0.000497	4.967671	1.683093	0.000199
1618	1.6089e+02	-15.5691	-108.094309	0.000375	3.751099	1.270907	0.000150
1619	1.6099e+02	-15.5370	-107.953010	0.000355	3.548337	1.202209	0.000142
1620	1.6109e+02	-15.4969	-107.755190	0.000497	4.967671	1.683093	0.000199
1621	1.6119e+02	-15.4600	-107.557370	0.000497	4.967671	1.683093	0.000199
1622	1.6129e+02	-15.4231	-107.355514	0.000507	5.069052	1.717441	0.000203
1623	1.6139e+02	-15.3830	-107.226325	0.000324	3.244194	1.099163	0.000130
1624	1.6149e+02	-15.3397	-106.996208	0.000578	5.778720	1.957883	0.000231
1625	1.6159e+02	-15.3092	-106.838760	0.000395	3.953861	1.339604	0.000158
1626	1.6169e+02	-15.2579	-106.649015	0.000476	4.764909	1.614395	0.000191
1627	1.6179e+02	-15.2210	-106.439084	0.000527	5.271815	1.786139	0.000211
1628	1.6189e+02	-15.1760	-106.297784	0.000355	3.548337	1.202209	0.000142
1629	1.6199e+02	-15.1424	-106.051519	0.000618	6.184244	2.095279	0.000248
1630	1.6209e+02	-15.1055	-105.930405	0.000304	3.041431	1.030465	0.000122
1631	1.6219e+02	-15.0589	-105.716436	0.000537	5.373196	1.820488	0.000215
1632	1.6228e+02	-15.0204	-105.490357	0.000568	5.677339	1.923534	0.000227
1633	1.6238e+02	-14.9819	-105.300611	0.000476	4.764909	1.614395	0.000191
1634	1.6248e+02	-14.9402	-105.167386	0.000335	3.345575	1.133511	0.000134
1635	1.6258e+02	-14.8937	-105.022049	0.000365	3.649718	1.236558	0.000146
1636	1.6268e+02	-14.8632	-104.795969	0.000568	5.677339	1.923534	0.000227
1637	1.6278e+02	-14.8215	-104.594113	0.000507	5.069052	1.717441	0.000203
1638	1.6288e+02	-14.7798	-104.388219	0.000517	5.170434	1.751790	0.000207
1639	1.6298e+02	-14.7445	-104.218659	0.000426	4.258004	1.442651	0.000170
1640	1.6308e+02	-14.7076	-103.988542	0.000578	5.778720	1.957883	0.000231
1641	1.6318e+02	-14.6499	-103.879540	0.000274	2.737288	0.927418	0.000110
1642	1.6328e+02	-14.6226	-103.689794	0.000476	4.764909	1.614395	0.000191
1643	1.6338e+02	-14.5632	-103.463715	0.000568	5.677339	1.923534	0.000227
1644	1.6348e+02	-14.5424	-103.290118	0.000436	4.359385	1.477000	0.000174
1645	1.6358e+02	-14.4991	-103.096335	0.000487	4.866290	1.648744	0.000195
1646	1.6368e+02	-14.4573	-102.950998	0.000365	3.649718	1.236558	0.000146
1647	1.6378e+02	-14.4237	-102.692622	0.000649	6.488387	2.198325	0.000260
1648	1.6388e+02	-14.3787	-102.539211	0.000385	3.852480	1.305256	0.000154
1649	1.6398e+02	-14.3418	-102.329280	0.000527	5.271815	1.786139	0.000211
1650	1.6408e+02	-14.2969	-102.151646	0.000446	4.460766	1.511348	0.000179
1651	1.6418e+02	-14.2600	-101.965937	0.000466	4.663528	1.580046	0.000187
1652	1.6427e+02	-14.2135	-101.747932	0.000547	5.474577	1.854837	0.000219
1653	1.6437e+02	-14.1814	-101.529927	0.000547	5.474577	1.854837	0.000219
1654	1.6447e+02	-14.1349	-101.408813	0.000304	3.041431	1.030465	0.000122
1655	1.6457e+02	-14.1012	-101.162547	0.000618	6.184244	2.095279	0.000248
1656	1.6467e+02	-14.0627	-100.984913	0.000446	4.460766	1.511348	0.000179
1657	1.6477e+02	-14.0274	-100.823428	0.000406	4.055242	1.373953	0.000162
1658	1.6487e+02	-13.9713	-100.633683	0.000476	4.764909	1.614395	0.000191
1659	1.6497e+02	-13.9424	-100.423751	0.000527	5.271815	1.786139	0.000211
1660	1.6507e+02	-13.9007	-100.197672	0.000568	5.677339	1.923534	0.000227
1661	1.6517e+02	-13.8654	-100.020038	0.000446	4.460766	1.511348	0.000179
1662	1.6527e+02	-13.8253	-99.818181	0.000507	5.069052	1.717441	0.000203
1663	1.6537e+02	-13.7868	-99.608250	0.000527	5.271815	1.786139	0.000211
1664	1.6547e+02	-13.7370	-99.386208	0.000558	5.575958	1.889186	0.000223
1665	1.6557e+02	-13.7066	-99.252982	0.000335	3.345575	1.133511	0.000134
1666	1.6567e+02	-13.6649	-99.030940	0.000558	5.575958	1.889186	0.000223
1667	1.6577e+02	-13.6231	-98.861380	0.000426	4.258004	1.442651	0.000170
1668	1.6587e+02	-13.5862	-98.643375	0.000547	5.474577	1.854837	0.000219
1669	1.6597e+02	-13.5349	-98.489963	0.000385	3.852480	1.305256	0.000154
1670	1.6607e+02	-13.5108	-98.259847	0.000578	5.778720	1.957883	0.000231
1671	1.6616e+02	-13.4611	-98.086250	0.000436	4.359385	1.477000	0.000174
1672	1.6626e+02	-13.4194	-97.827873	0.000649	6.488387	2.198325	0.000260
1673	1.6636e+02	-13.3937	-97.658314	0.000426	4.258004	1.442651	0.000170
1674	1.6646e+02	-13.3360	-97.460494	0.000497	4.967671	1.683093	0.000199
1675	1.6656e+02	-13.3087	-97.315157	0.000365	3.649718	1.236558	0.000146
1676	1.6666e+02	-13.2766	-97.072929	0.000608	6.082863	2.060930	0.000243
1677	1.6676e+02	-13.2237	-96.895295	0.000446	4.460766	1.511348	0.000179
1678	1.6686e+02	-13.1788	-96.657104	0.000598	5.981482	2.026581	0.000239
1679	1.6696e+02	-13.1499	-96.487544	0.000426	4.258004	1.442651	0.000170
1680	1.6706e+02	-13.1082	-96.281650	0.000517	5.170434	1.751790	0.000207
1681	1.6716e+02	-13.0697	-96.091905	0.000476	4.764909	1.614395	0.000191
1682	1.6726e+02	-13.0328	-95.906197	0.000466	4.663528	1.580046	0.000187
1683	1.6736e+02	-12.9798	-95.688191	0.000547	5.474577	1.854837	0.000219
1684	1.6746e+02	-12.9446	-95.498446	0.000476	4.764909	1.614395	0.000191
1685	1.6756e+02	-12.9061	-95.296589	0.000507	5.069052	1.717441	0.000203
1686	1.6766e+02	-12.8595	-95.135104	0.000406	4.055242	1.373953	0.000162
1687	1.6776e+02	-12.8242	-94.900950	0.000588	5.880101	1.992232	0.000235
1688	1.6786e+02	-12.7889	-94.703130	0.000497	4.967671	1.683093	0.000199
1689	1.6796e+02	-12.7520	-94.541645	0.000406	4.055242	1.373953	0.000162
1690	1.6806e+02	-12.7135	-94.295379	0.000618	6.184244	2.095279	0.000248
1691	1.6816e+02	-12.6718	-94.081411	0.000537	5.373196	1.820488	0.000215
1692	1.6825e+02	-12.6269	-93.891666	0.000476	4.764909	1.614395	0.000191
1693	1.6835e+02	-12.5980	-93.689809	0.000507	5.069052	1.717441	0.000203
1694	1.6845e+02	-12.5451	-93.544472	0.000365	3.649718	1.236558	0.000146
1695	1.6855e+02	-12.5050	-93.350690	0.000487	4.866290	1.648744	0.000195
1696	1.6865e+02	-12.4745	-93.096350	0.000639	6.387006	2.163976	0.000256
1697	1.6875e+02	-12.4360	-92.890456	0.000517	5.170434	1.751790	0.000207
1698	1.6885e+02	-12.3927	-92.704748	0.000466	4.663528	1.580046	0.000187
1699	1.6895e+02	-12.3574	-92.454446	0.000629	6.285625	2.129627	0.000252
1700	1.6905e+02	-12.3157	-92.264700	0.000476	4.764909	1.614395	0.000191
1701	1.6915e+02	-12.2628	-92.107252	0.000395	3.953861	1.339604	0.000158
1702	1.6925e+02	-12.2371	-91.869061	0.000598	5.981482	2.026581	0.000239
1703	1.6935e+02	-12.1858	-91.642981	0.000568	5.677339	1.923534	0.000227
1704	1.6945e+02	-12.1473	-91.477459	0.000416	4.156623	1.408302	0.000166
1705	1.6955e+02	-12.1104	-91.275602	0.000507	5.069052	1.717441	0.000203
1706	1.6965e+02	-12.0702	-91.065671	0.000527	5.271815	1.786139	0.000211
1707	1.6975e+02	-12.0382	-90.843628	0.000558	5.575958	1.889186	0.000223
1708	1.6985e+02	-11.9948	-90.593326	0.000629	6.285625	2.129627	0.000252
1709	1.6995e+02	-11.9467	-90.427803	0.000416	4.156623	1.408302	0.000166
1710	1.7005e+02	-11.9130	-90.201724	0.000568	5.677339	1.923534	0.000227
1711	1.7015e+02	-11.8729	-89.987756	0.000537	5.373196	1.820488	0.000215
1712	1.7024e+02	-11.8376	-89.777825	0.000527	5.271815	1.786139	0.000211
1713	1.7034e+02	-11.7895	-89.588079	0.000476	4.764909	1.614395	0.000191
1714	1.7044e+02	-11.7574	-89.345851	0.000608	6.082863	2.060930	0.000243
1715	1.7054e+02	-11.7173	-89.148031	0.000497	4.967671	1.683093	0.000199
1716	1.7064e+02	-11.6772	-88.962323	0.000466	4.663528	1.580046	0.000187
1717	1.7074e+02	-11.6307	-88.752392	0.000527	5.271815	1.786139	0.000211
1718	1.7084e+02	-11.5874	-88.534387	0.000547	5.474577	1.854837	0.000219
1719	1.7094e+02	-11.5505	-88.324456	0.000527	5.271815	1.786139	0.000211
1720	1.7104e+02	-11.5200	-88.122599	0.000507	5.069052	1.717441	0.000203
1721	1.7114e+02	-11.4799	-87.912668	0.000527	5.271815	1.786139	0.000211
1722	1.7124e+02	-11.4366	-87.714848	0.000497	4.967671	1.683093	0.000199
1723	1.7134e+02	-11.3917	-87.484731	0.000578	5.778720	1.957883	0.000231
1724	1.7144e+02	-11.3548	-87.315172	0.000426	4.258004	1.442651	0.000170
1725	1.7154e+02	-11.3195	-87.064869	0.000629	6.285625	2.129627	0.000252
1726	1.7164e+02	-11.2794	-86.842827	0.000558	5.575958	1.889186	0.000223
1727	1.7174e+02	-11.2248	-86.657119	0.000466	4.663528	1.580046	0.000187
1728	1.7184e+02	-11.2008	-86.402779	0.000639	6.387006	2.163976	0.000256
1729	1.7194e+02	-11.1446	-86.249368	0.000385	3.852480	1.305256	0.000154
1730	1.7204e+02	-11.1109	-86.023288	0.000568	5.677339	1.923534	0.000227
1731	1.7213e+02	-11.0724	-85.801246	0.000558	5.575958	1.889186	0.000223
1732	1.7223e+02	-11.0339	-85.599389	0.000507	5.069052	1.717441	0.000203
1733	1.7233e+02	-10.9922	-85.377347	0.000558	5.575958	1.889186	0.000223
1734	1.7243e+02	-10.9505	-85.151267	0.000568	5.677339	1.923534	0.000227
1735	1.7253e+02	-10.9184	-84.892890	0.000649	6.488387	2.198325	0.000260
1736	1.7263e+02	-10.8751	-84.707182	0.000466	4.663528	1.580046	0.000187
1737	1.7273e+02	-10.8398	-84.497251	0.000527	5.271815	1.786139	0.000211
1738	1.7283e+02	-10.7981	-84.315580	0.000456	4.562147	1.545697	0.000183
1739	1.7293e+02	-10.7500	-84.024906	0.000730	7.299436	2.473116	0.000292
1740	1.7303e+02	-10.7115	-83.891681	0.000335	3.345575	1.133511	0.000134
1741	1.7313e+02	-10.6714	-83.617155	0.000689	6.893911	2.335720	0.000276
1742	1.7323e+02	-10.6377	-83.463744	0.000385	3.852480	1.305256	0.000154
1743	1.7333e+02	-10.5976	-83.221516	0.000608	6.082863	2.060930	0.000243
1744	1.7343e+02	-10.5575	-83.011585	0.000527	5.271815	1.786139	0.000211
1745	1.7353e+02	-10.5206	-82.765320	0.000618	6.184244	2.095279	0.000248
1746	1.7363e+02	-10.4772	-82.567500	0.000497	4.967671	1.683093	0.000199
1747	1.7373e+02	-10.4484	-82.361606	0.000517	5.170434	1.751790	0.000207
1748	1.7383e+02	-10.4002	-82.091118	0.000679	6.792530	2.301372	0.000272
1749	1.7393e+02	-10.3537	-81.913484	0.000446	4.460766	1.511348	0.000179
1750	1.7403e+02	-10.3152	-81.695479	0.000547	5.474577	1.854837	0.000219
1751	1.7413e+02	-10.2751	-81.477473	0.000547	5.474577	1.854837	0.000219
1752	1.7422e+02	-10.2382	-81.263505	0.000537	5.373196	1.820488	0.000215
1753	1.7432e+02	-10.1917	-81.057611	0.000517	5.170434	1.751790	0.000207
1754	1.7442e+02	-10.1516	-80.855755	0.000507	5.069052	1.717441	0.000203
1755	1.7452e+02	-10.1099	-80.617564	0.000598	5.981482	2.026581	0.000239
1756	1.7462e+02	-10.0762	-80.339001	0.000700	6.995292	2.370069	0.000280
1757	1.7472e+02	-10.0473	-80.173479	0.000416	4.156623	1.408302	0.000166
1758	1.7482e+02	-10.0008	-79.935288	0.000598	5.981482	2.026581	0.000239
1759	1.7492e+02	-9.9607	-79.705171	0.000578	5.778720	1.957883	0.000231
1760	1.7502e+02	-9.9190	-79.499277	0.000517	5.170434	1.751790	0.000207
1761	1.7512e+02	-9.8789	-79.289346	0.000527	5.271815	1.786139	0.000211
1762	1.7522e+02	-9.8388	-79.063266	0.000568	5.677339	1.923534	0.000227
1763	1.7532e+02	-9.7987	-78.825075	0.000598	5.981482	2.026581	0.000239
1764	1.7542e+02	-9.7618	-78.631293	0.000487	4.866290	1.648744	0.000195
1765	1.7552e+02	-9.7088	-78.405213	0.000568	5.677339	1.923534	0.000227
1766	1.7562e+02	-9.6783	-78.199319	0.000517	5.170434	1.751790	0.000207
1767	1.7572e+02	-9.6366	-77.932868	0.000669	6.691149	2.267023	0.000268
1768	1.7582e+02	-9.6013	-77.751197	0.000456	4.562147	1.545697	0.000183
1769	1.7592e+02	-9.5612	-77.517043	0.000588	5.880101	1.992232	0.000235
1770	1.7602e+02	-9.5163	-77.282889	0.000588	5.880101	1.992232	0.000235
1771	1.7612e+02	-9.4826	-77.068921	0.000537	5.373196	1.820488	0.000215
1772	1.7621e+02	-9.4457	-76.838805	0.000578	5.778720	1.957883	0.000231
1773	1.7631e+02	-9.4024	-76.624836	0.000537	5.373196	1.820488	0.000215
1774	1.7641e+02	-9.3639	-76.346274	0.000700	6.995292	2.370069	0.000280
1775	1.7651e+02	-9.3302	-76.180751	0.000416	4.156623	1.408302	0.000166
1776	1.7661e+02	-9.2805	-75.934486	0.000618	6.184244	2.095279	0.000248
1777	1.7671e+02	-9.2436	-75.700332	0.000588	5.880101	1.992232	0.000235
1778	1.7681e+02	-9.2035	-75.478290	0.000558	5.575958	1.889186	0.000223
1779	1.7691e+02	-9.1618	-75.232024	0.000618	6.184244	2.095279	0.000248
1780	1.7701e+02	-9.1153	-75.038242	0.000487	4.866290	1.648744	0.000195
1781	1.7711e+02	-9.0864	-74.791977	0.000618	6.184244	2.095279	0.000248
1782	1.7721e+02	-9.0431	-74.614343	0.000446	4.460766	1.511348	0.000179
1783	1.7731e+02	-9.0110	-74.331743	0.000710	7.096673	2.404418	0.000284
1784	1.7741e+02	-8.9628	-74.137961	0.000487	4.866290	1.648744	0.000195
1785	1.7751e+02	-8.9243	-73.875547	0.000659	6.589768	2.232674	0.000264
1786	1.7761e+02	-8.8826	-73.653504	0.000558	5.575958	1.889186	0.000223
1787	1.7771e+02	-8.8441	-73.419351	0.000588	5.880101	1.992232	0.000235
1788	1.7781e+02	-8.7912	-73.237679	0.000456	4.562147	1.545697	0.000183
1789	1.7791e+02	-8.7703	-72.959117	0.000700	6.995292	2.370069	0.000280
1790	1.7801e+02	-8.7238	-72.741112	0.000547	5.474577	1.854837	0.000219
1791	1.7810e+02	-8.6773	-72.527144	0.000537	5.373196	1.820488	0.000215
1792	1.7820e+02	-8.6404	-72.321250	0.000517	5.170434	1.751790	0.000207
1793	1.7830e+02	-8.6003	-72.066910	0.000639	6.387006	2.163976	0.000256
1794	1.7840e+02	-8.5602	-71.885239	0.000456	4.562147	1.545697	0.000183
1795	1.7850e+02	-8.5329	-71.618788	0.000669	6.691149	2.267023	0.000268
1796	1.7860e+02	-8.4880	-71.420968	0.000497	4.967671	1.683093	0.000199
1797	1.7870e+02	-8.4447	-71.166629	0.000639	6.387006	2.163976	0.000256
1798	1.7880e+02	-8.4158	-70.964772	0.000507	5.069052	1.717441	0.000203
1799	1.7890e+02	-8.3645	-70.722544	0.000608	6.082863	2.060930	0.000243
1800	1.7900e+02	-8.3260	-70.452056	0.000679	6.792530	2.301372	0.000272
1801	1.7910e+02	-8.2762	-70.221939	0.000578	5.778720	1.957883	0.000231
1802	1.7920e+02	-8.2425	-70.044305	0.000446	4.460766	1.511348	0.000179
1803	1.7930e+02	-8.1992	-69.802077	0.000608	6.082863	2.060930	0.000243
1804	1.7940e+02	-8.1704	-69.547737	0.000639	6.387006	2.163976	0.000256
1805	1.7950e+02	-8.1254	-69.317621	0.000578	5.778720	1.957883	0.000231
1806	1.7960e+02	-8.0950	-69.047133	0.000679	6.792530	2.301372	0.000272
1807	1.7970e+02	-8.0404	-68.853350	0.000487	4.866290	1.648744	0.000195
1808	1.7980e+02	-7.9987	-68.603048	0.000629	6.285625	2.129627	0.000252
1809	1.7990e+02	-7.9634	-68.381005	0.000558	5.575958	1.889186	0.000223
1810	1.8000e+02	-7.9265	-68.158963	0.000558	5.575958	1.889186	0.000223
1811	1.8009e+02	-7.8896	-67.908660	0.000629	6.285625	2.129627	0.000252
1812	1.8019e+02	-7.8495	-67.674506	0.000588	5.880101	1.992232	0.000235
1813	1.8029e+02	-7.7998	-67.440353	0.000588	5.880101	1.992232	0.000235
1814	1.8039e+02	-7.7645	-67.198124	0.000608	6.082863	2.060930	0.000243
1815	1.8049e+02	-7.7340	-66.947822	0.000629	6.285625	2.129627	0.000252
1816	1.8059e+02	-7.6843	-66.705594	0.000608	6.082863	2.060930	0.000243
1817	1.8069e+02	-7.6522	-66.483551	0.000558	5.575958	1.889186	0.000223
1818	1.8079e+02	-7.6057	-66.253435	0.000578	5.778720	1.957883	0.000231
1819	1.8089e+02	-7.5575	-66.031392	0.000558	5.575958	1.889186	0.000223
1820	1.8099e+02	-7.5255	-65.801275	0.000578	5.778720	1.957883	0.000231
1821	1.8109e+02	-7.4886	-65.550973	0.000629	6.285625	2.129627	0.000252
1822	1.8119e+02	-7.4468	-65.320856	0.000578	5.778720	1.957883	0.000231
1823	1.8129e+02	-7.4100	-65.098814	0.000558	5.575958	1.889186	0.000223
1824	1.8139e+02	-7.3763	-64.812177	0.000720	7.198055	2.438767	0.000288
1825	1.8149e+02	-7.3458	-64.618395	0.000487	4.866290	1.648744	0.000195
1826	1.8159e+02	-7.2832	-64.380204	0.000598	5.981482	2.026581	0.000239
1827	1.8169e+02	-7.2463	-64.117790	0.000659	6.589768	2.232674	0.000264
1828	1.8179e+02	-7.2062	-63.907859	0.000527	5.271815	1.786139	0.000211
1829	1.8189e+02	-7.1677	-63.657556	0.000629	6.285625	2.129627	0.000252
1830	1.8199e+02	-7.1148	-63.415328	0.000608	6.082863	2.060930	0.000243
1831	1.8209e+02	-7.0955	-63.104469	0.000781	7.806341	2.644860	0.000312
1832	1.8218e+02	-7.0522	-62.918760	0.000466	4.663528	1.580046	0.000187
1833	1.8228e+02	-7.0137	-62.684607	0.000588	5.880101	1.992232	0.000235
1834	1.8238e+02	-6.9592	-62.438341	0.000618	6.184244	2.095279	0.000248
1835	1.8248e+02	-6.9319	-62.204187	0.000588	5.880101	1.992232	0.000235
1836	1.8258e+02	-6.8902	-61.965996	0.000598	5.981482	2.026581	0.000239
1837	1.8268e+02	-6.8517	-61.711657	0.000639	6.387006	2.163976	0.000256
1838	1.8278e+02	-6.8180	-61.453280	0.000649	6.488387	2.198325	0.000260
1839	1.8288e+02	-6.7731	-61.190866	0.000659	6.589768	2.232674	0.000264
1840	1.8298e+02	-6.7233	-61.005158	0.000466	4.663528	1.580046	0.000187
1841	1.8308e+02	-6.6913	-60.710447	0.000740	7.400817	2.507465	0.000296
1842	1.8318e+02	-6.6511	-60.480330	0.000578	5.778720	1.957883	0.000231
1843	1.8328e+02	-6.6126	-60.230028	0.000629	6.285625	2.129627	0.000252
1844	1.8338e+02	-6.5774	-60.007986	0.000558	5.575958	1.889186	0.000223
1845	1.8348e+02	-6.5276	-59.789980	0.000547	5.474577	1.854837	0.000219
1846	1.8358e+02	-6.4907	-59.519492	0.000679	6.792530	2.301372	0.000272
1847	1.8368e+02	-6.4426	-59.285338	0.000588	5.880101	1.992232	0.000235
1848	1.8378e+02	-6.4185	-59.067333	0.000547	5.474577	1.854837	0.000219
1849	1.8388e+02	-6.3800	-58.804919	0.000659	6.589768	2.232674	0.000264
1850	1.8398e+02	-6.3303	-58.558654	0.000618	6.184244	2.095279	0.000248
1851	1.8407e+02	-6.2998	-58.320463	0.000598	5.981482	2.026581	0.000239
1852	1.8417e+02	-6.2549	-58.098420	0.000558	5.575958	1.889186	0.000223
1853	1.8427e+02	-6.2052	-57.848118	0.000629	6.285625	2.129627	0.000252
1854	1.8437e+02	-6.1795	-57.581667	0.000669	6.691149	2.267023	0.000268
1855	1.8447e+02	-6.1394	-57.327327	0.000639	6.387006	2.163976	0.000256
1856	1.8457e+02	-6.0961	-57.105285	0.000558	5.575958	1.889186	0.000223
1857	1.8467e+02	-6.0560	-56.854983	0.000629	6.285625	2.129627	0.000252
1858	1.8477e+02	-6.0111	-56.580457	0.000689	6.893911	2.335720	0.000276
1859	1.8487e+02	-5.9726	-56.334192	0.000618	6.184244	2.095279	0.000248
1860	1.8497e+02	-5.9469	-56.091964	0.000608	6.082863	2.060930	0.000243
1861	1.8507e+02	-5.8972	-55.849736	0.000608	6.082863	2.060930	0.000243
1862	1.8517e+02	-5.8538	-55.619619	0.000578	5.778720	1.957883	0.000231
1863	1.8527e+02	-5.8186	-55.357205	0.000659	6.589768	2.232674	0.000264
1864	1.8537e+02	-5.7672	-55.127089	0.000578	5.778720	1.957883	0.000231
1865	1.8547e+02	-5.7415	-54.868712	0.000649	6.488387	2.198325	0.000260
1866	1.8557e+02	-5.6998	-54.578038	0.000730	7.299436	2.473116	0.000292
1867	1.8567e+02	-5.6597	-54.343884	0.000588	5.880101	1.992232	0.000235
1868	1.8577e+02	-5.6212	-54.037062	0.000770	7.704960	2.610511	0.000308
1869	1.8587e+02	-5.5779	-53.831168	0.000517	5.170434	1.751790	0.000207
1870	1.8597e+02	-5.5362	-53.605088	0.000568	5.677339	1.923534	0.000227
1871	1.8606e+02	-5.4929	-53.354786	0.000629	6.285625	2.129627	0.000252
1872	1.8616e+02	-5.4560	-53.068149	0.000720	7.198055	2.438767	0.000288
1873	1.8626e+02	-5.4191	-52.821884	0.000618	6.184244	2.095279	0.000248
1874	1.8636e+02	-5.3886	-52.555433	0.000669	6.691149	2.267023	0.000268
1875	1.8646e+02	-5.3373	-52.309168	0.000618	6.184244	2.095279	0.000248
1876	1.8656e+02	-5.3100	-52.034643	0.000689	6.893911	2.335720	0.000276
1877	1.8666e+02	-5.2603	-51.784340	0.000629	6.285625	2.129627	0.000252
1878	1.8676e+02	-5.2250	-51.578446	0.000517	5.170434	1.751790	0.000207
1879	1.8686e+02	-5.1737	-51.299884	0.000700	6.995292	2.370069	0.000280
1880	1.8696e+02	-5.1432	-51.017284	0.000710	7.096673	2.404418	0.000284
1881	1.8706e+02	-5.0999	-50.758908	0.000649	6.488387	2.198325	0.000260
1882	1.8716e+02	-5.0565	-50.504568	0.000639	6.387006	2.163976	0.000256
1883	1.8726e+02	-5.0180	-50.278488	0.000568	5.677339	1.923534	0.000227
1884	1.8736e+02	-4.9860	-49.991852	0.000720	7.198055	2.438767	0.000288
1885	1.8746e+02	-4.9378	-49.733475	0.000649	6.488387	2.198325	0.000260
1886	1.8756e+02	-4.9041	-49.519507	0.000537	5.373196	1.820488	0.000215
1887	1.8766e+02	-4.8656	-49.220759	0.000750	7.502198	2.541813	0.000300
1888	1.8776e+02	-4.8271	-48.982568	0.000598	5.981482	2.026581	0.000239
1889	1.8786e+02	-4.7886	-48.720154	0.000659	6.589768	2.232674	0.000264
1890	1.8796e+02	-4.7469	-48.486000	0.000588	5.880101	1.992232	0.000235
1891	1.8806e+02	-4.7052	-48.179178	0.000770	7.704960	2.610511	0.000308
1892	1.8815e+02	-4.6667	-47.953098	0.000568	5.677339	1.923534	0.000227
1893	1.8825e+02	-4.6154	-47.662425	0.000730	7.299436	2.473116	0.000292
1894	1.8835e+02	-4.5881	-47.424234	0.000598	5.981482	2.026581	0.000239
1895	1.8845e+02	-4.5496	-47.165857	0.000649	6.488387	2.198325	0.000260
1896	1.8855e+02	-4.4999	-46.903443	0.000659	6.589768	2.232674	0.000264
1897	1.8865e+02	-4.4614	-46.645066	0.000649	6.488387	2.198325	0.000260
1898	1.8875e+02	-4.4341	-46.374578	0.000679	6.792530	2.301372	0.000272
1899	1.8885e+02	-4.3956	-46.144461	0.000578	5.778720	1.957883	0.000231
1900	1.8895e+02	-4.3378	-45.869936	0.000689	6.893911	2.335720	0.000276
1901	1.8905e+02	-4.3026	-45.575225	0.000740	7.400817	2.507465	0.000296
1902	1.8915e+02	-4.2673	-45.337034	0.000598	5.981482	2.026581	0.000239
1903	1.8925e+02	-4.2239	-45.058472	0.000700	6.995292	2.370069	0.000280
1904	1.8935e+02	-4.1742	-44.828355	0.000578	5.778720	1.957883	0.000231
1905	1.8945e+02	-4.1421	-44.545756	0.000710	7.096673	2.404418	0.000284
1906	1.8955e+02	-4.0988	-44.351973	0.000487	4.866290	1.648744	0.000195
1907	1.8965e+02	-4.0619	-43.996705	0.000892	8.921532	3.022697	0.000357
1908	1.8975e+02	-4.0202	-43.754477	0.000608	6.082863	2.060930	0.000243
1909	1.8985e+02	-3.9865	-43.479952	0.000689	6.893911	2.335720	0.000276
1910	1.8995e+02	-3.9464	-43.217538	0.000659	6.589768	2.232674	0.000264
1911	1.9004e+02	-3.9095	-42.943013	0.000689	6.893911	2.335720	0.000276
1912	1.9014e+02	-3.8566	-42.648302	0.000740	7.400817	2.507465	0.000296
1913	1.9024e+02	-3.8373	-42.426259	0.000558	5.575958	1.889186	0.000223
1914	1.9034e+02	-3.7908	-42.163846	0.000659	6.589768	2.232674	0.000264
1915	1.9044e+02	-3.7491	-41.901432	0.000659	6.589768	2.232674	0.000264
1916	1.9054e+02	-3.6962	-41.602684	0.000750	7.502198	2.541813	0.000300
1917	1.9064e+02	-3.6753	-41.380641	0.000558	5.575958	1.889186	0.000223
1918	1.9074e+02	-3.6256	-41.114190	0.000669	6.691149	2.267023	0.000268
1919	1.9084e+02	-3.5903	-40.843702	0.000679	6.792530	2.301372	0.000272
1920	1.9094e+02	-3.5470	-40.589363	0.000639	6.387006	2.163976	0.000256
1921	1.9104e+02	-3.5101	-40.282540	0.000770	7.704960	2.610511	0.000308
1922	1.9114e+02	-3.4700	-40.028201	0.000639	6.387006	2.163976	0.000256
1923	1.9124e+02	-3.4138	-39.785973	0.000608	6.082863	2.060930	0.000243
1924	1.9134e+02	-3.3849	-39.491262	0.000740	7.400817	2.507465	0.000296
1925	1.9144e+02	-3.3432	-39.232885	0.000649	6.488387	2.198325	0.000260
1926	1.9154e+02	-3.3015	-38.990657	0.000608	6.082863	2.060930	0.000243
1927	1.9164e+02	-3.2630	-38.708057	0.000710	7.096673	2.404418	0.000284
1928	1.9174e+02	-3.2181	-38.421421	0.000720	7.198055	2.438767	0.000288
1929	1.9184e+02	-3.1860	-38.171118	0.000629	6.285625	2.129627	0.000252
1930	1.9194e+02	-3.1475	-37.896593	0.000689	6.893911	2.335720	0.000276
1931	1.9203e+02	-3.1106	-37.613994	0.000710	7.096673	2.404418	0.000284
1932	1.9213e+02	-3.0593	-37.375803	0.000598	5.981482	2.026581	0.000239
1933	1.9223e+02	-3.0240	-37.089166	0.000720	7.198055	2.438767	0.000288
1934	1.9233e+02	-2.9983	-36.810604	0.000700	6.995292	2.370069	0.000280
1935	1.9243e+02	-2.9390	-36.515893	0.000740	7.400817	2.507465	0.000296
1936	1.9253e+02	-2.9101	-36.285776	0.000578	5.778720	1.957883	0.000231
1937	1.9263e+02	-2.8732	-36.007214	0.000700	6.995292	2.370069	0.000280
1938	1.9273e+02	-2.8202	-35.696354	0.000781	7.806341	2.644860	0.000312
1939	1.9283e+02	-2.7817	-35.458163	0.000598	5.981482	2.026581	0.000239
1940	1.9293e+02	-2.7513	-35.195749	0.000659	6.589768	2.232674	0.000264
1941	1.9303e+02	-2.7095	-34.921224	0.000689	6.893911	2.335720	0.000276
1942	1.9313e+02	-2.6646	-34.642662	0.000700	6.995292	2.370069	0.000280
1943	1.9323e+02	-2.6293	-34.343914	0.000750	7.502198	2.541813	0.000300
1944	1.9333e+02	-2.5828	-34.121871	0.000558	5.575958	1.889186	0.000223
1945	1.9343e+02	-2.5539	-33.770640	0.000882	8.820151	2.988348	0.000353
1946	1.9353e+02	-2.5090	-33.524375	0.000618	6.184244	2.095279	0.000248
1947	1.9363e+02	-2.4689	-33.249850	0.000689	6.893911	2.335720	0.000276
1948	1.9373e+02	-2.4304	-32.983399	0.000669	6.691149	2.267023	0.000268
1949	1.9383e+02	-2.3983	-32.692725	0.000730	7.299436	2.473116	0.000292
1950	1.9393e+02	-2.3550	-32.434349	0.000649	6.488387	2.198325	0.000260
1951	1.9403e+02	-2.3133	-32.147712	0.000720	7.198055	2.438767	0.000288
1952	1.9412e+02	-2.2700	-31.909521	0.000598	5.981482	2.026581	0.000239
1953	1.9422e+02	-2.2331	-31.606736	0.000760	7.603579	2.576162	0.000304
1954	1.9432e+02	-2.1850	-31.340285	0.000669	6.691149	2.267023	0.000268
1955	1.9442e+02	-2.1433	-31.057685	0.000710	7.096673	2.404418	0.000284
1956	1.9452e+02	-2.1128	-30.803346	0.000639	6.387006	2.163976	0.000256
1957	1.9462e+02	-2.0695	-30.520746	0.000710	7.096673	2.404418	0.000284
1958	1.9472e+02	-2.0310	-30.266407	0.000639	6.387006	2.163976	0.000256
1959	1.9482e+02	-1.9860	-29.979770	0.000720	7.198055	2.438767	0.000288
1960	1.9492e+02	-1.9588	-29.676985	0.000760	7.603579	2.576162	0.000304
1961	1.9502e+02	-1.9074	-29.422645	0.000639	6.387006	2.163976	0.000256
1962	1.9512e+02	-1.8689	-29.123897	0.000750	7.502198	2.541813	0.000300
1963	1.9522e+02	-1.8320	-28.869558	0.000639	6.387006	2.163976	0.000256
1964	1.9532e+02	-1.7871	-28.558698	0.000781	7.806341	2.644860	0.000312
1965	1.9542e+02	-1.7550	-28.280136	0.000700	6.995292	2.370069	0.000280
1966	1.9552e+02	-1.7149	-28.025796	0.000639	6.387006	2.163976	0.000256
1967	1.9562e+02	-1.6780	-27.759345	0.000669	6.691149	2.267023	0.000268
1968	1.9572e+02	-1.6315	-27.492894	0.000669	6.691149	2.267023	0.000268
1969	1.9582e+02	-1.5882	-27.145701	0.000872	8.718770	2.953999	0.000349
1970	1.9592e+02	-1.5529	-26.903473	0.000608	6.082863	2.060930	0.000243
1971	1.9601e+02	-1.5160	-26.620873	0.000710	7.096673	2.404418	0.000284
1972	1.9611e+02	-1.4711	-26.342311	0.000700	6.995292	2.370069	0.000280
1973	1.9621e+02	-1.4390	-26.023377	0.000801	8.009103	2.713558	0.000321
1974	1.9631e+02	-1.4037	-25.805372	0.000547	5.474577	1.854837	0.000219
1975	1.9641e+02	-1.3588	-25.530846	0.000689	6.893911	2.335720	0.000276
1976	1.9651e+02	-1.3235	-25.228061	0.000760	7.603579	2.576162	0.000304
1977	1.9661e+02	-1.2722	-24.937387	0.000730	7.299436	2.473116	0.000292
1978	1.9671e+02	-1.2224	-24.670936	0.000669	6.691149	2.267023	0.000268
1979	1.9681e+02	-1.1968	-24.404486	0.000669	6.691149	2.267023	0.000268
1980	1.9691e+02	-1.1518	-24.097663	0.000770	7.704960	2.610511	0.000308
1981	1.9701e+02	-1.1278	-23.843324	0.000639	6.387006	2.163976	0.000256
1982	1.9711e+02	-1.0829	-23.512279	0.000831	8.313246	2.816604	0.000333
1983	1.9721e+02	-1.0331	-23.278125	0.000588	5.880101	1.992232	0.000235
1984	1.9731e+02	-0.9994	-22.975339	0.000760	7.603579	2.576162	0.000304
1985	1.9741e+02	-0.9465	-22.741186	0.000588	5.880101	1.992232	0.000235
1986	1.9751e+02	-0.9160	-22.389955	0.000882	8.820151	2.988348	0.000353
1987	1.9761e+02	-0.8711	-22.123504	0.000669	6.691149	2.267023	0.000268
1988	1.9771e+02	-0.8342	-21.881276	0.000608	6.082863	2.060930	0.000243
1989	1.9781e+02	-0.7941	-21.558305	0.000811	8.110484	2.747906	0.000325
1990	1.9791e+02	-0.7604	-21.303965	0.000639	6.387006	2.163976	0.000256
1991	1.9800e+02	-0.7203	-20.980994	0.000811	8.110484	2.747906	0.000325
1992	1.9810e+02	-0.6786	-20.706469	0.000689	6.893911	2.335720	0.000276
1993	1.9820e+02	-0.6369	-20.427907	0.000700	6.995292	2.370069	0.000280
1994	1.9830e+02	-0.5952	-20.161456	0.000669	6.691149	2.267023	0.000268
1995	1.9840e+02	-0.5503	-19.862708	0.000750	7.502198	2.541813	0.000300
1996	1.9850e+02	-0.5150	-19.588183	0.000689	6.893911	2.335720	0.000276
1997	1.9860e+02	-0.4797	-19.289435	0.000750	7.502198	2.541813	0.000300
1998	1.9870e+02	-0.4396	-19.039132	0.000629	6.285625	2.129627	0.000252
1999	1.9880e+02	-0.3946	-18.728273	0.000781	7.806341	2.644860	0.000312
2000	1.9890e+02	-0.3642	-18.449710	0.000700	6.995292	2.370069	0.000280
2001	1.9900e+02	-0.3208	-18.159037	0.000730	7.299436	2.473116	0.000292
2002	1.9910e+02	-0.2839	-17.888548	0.000679	6.792530	2.301372	0.000272
2003	1.9920e+02	-0.2230	-17.589800	0.000750	7.502198	2.541813	0.000300
2004	1.9930e+02	-0.2005	-17.331424	0.000649	6.488387	2.198325	0.000260
2005	1.9940e+02	-0.1572	-17.008453	0.000811	8.110484	2.747906	0.000325
2006	1.9950e+02	-0.1171	-16.766225	0.000608	6.082863	2.060930	0.000243
2007	1.9960e+02	-0.0722	-16.455365	0.000781	7.806341	2.644860	0.000312
2008	1.9970e+02	-0.0385	-16.148543	0.000770	7.704960	2.610511	0.000308
2009	1.9980e+02	-0.0096	-15.869981	0.000770	7.704960	2.610511	0.000280

PMax (uC/cm2):	1.36e+02
Pr (uC/cm2):	1.02e+01
-Pr (uC/cm2):	-4.94e+00
PLoss (uC/cm2):	-4.93e+00
-Vc:	-1.42e+00
C (Max-Eff) (nF):	6.82e-01
K (Eff):	2.31e+03
Vert. (+/-Pr) Shift (uC/cm2):	2.63e+00
Offset (uC/cm2):	1.09e+01

A (Loop Area - uC/cm2·Volts):	8.96e-03



Hysteresis Version: 5.48.1 - Radiant Technologies, Inc., 1999 - 9/12/24

