»»»»»»»»»»»»»»»»»»»»»»»»»»»»»»»»»»»» Hysteresis ««««««««««««««««««««««««««««««««««««
»»»  Executed Version:	5.48.1
»»»  Vision Version:	5.48.4 (R)
»»»  Vision Compiled:	9/18/24
»»»  Driver Version:	5.47.0
»»»  Windows Version:	Windows 8 or 8.1
»»»  Processor Information:	x86 (AMD or Intel) - 32 Processors
»»»  Tester Name:	PMF21124-494 (100V)
»»»  Tester S/N:	PMF21124-494
»»»  Internal Amp Type:	100V RevK 270k
»»»  Internal Amp S/N:	iAB2-596/K     
»»»  Execution Count:	1
»»»»»»»»»»»»»»»»»»»»»»»»»»»»»»»»»»»»»»»»»»««««««««««««««««««««««««««««««««««««««««««

Stored:	6/18/2025 - 13:51:43
Configured:	06/18/25 09:47:30 AM
Executed:	06/18/25 01:51:20 PM

»»»»»»»»»»»»»»»»»»»»»»»»»»»»»»»»»»» Sample Info ««««««««««««««««««««««««««««««««««««
Sample Name:	
Lot Name:	
Wafer Name:	
Die Row/Column:	0/0
Capacitor Number:	0
Sample Area (cm2):	1.00e-04
Sample Thickness (microns):	3.00e-01

Amplifier:	Internal

»»»»»»»»»»»»»»»»»»»»»»»»»»»»»»»»»»» Tester Info «««««««««««««««««««««««««««««««««««
Tester Name:	PMF21124-494 (100V)
Tester Serial Number:	PMF21124-494
Return Signal Amp. Level:	0.19 [Index: 3]

»»»»»»»»»»»»»»»»»»»»»»»»»»»»»»»» Hysteresis Info ««««««««««««««««««««««««««««««««««
Task Name:	Hyst-554
Volts:	20.00
Field:	666.67 (kV/cm)
DCBias:	0.00
DCField:	0.00 (kV/cm)
Hysteresis Period (ms):	1.00e+00
Preset:	Enabled
Preset Delay (ms):	1.00e+03
Profile:	Standard Bipolar

»»»»»»»»»»»»»»»»»»»»»»»»»»»»»»»»»»»»»» Data «««««««««««««««««««««««««««««««««««««««
Points:	2001

Valid Data

Point	Time (ms)	Drive Voltage	Measured Polarization (uC/cm2)	Capacitance (uF)	Normalized Capacitance (uF/cm2)	Dielectric Constant	Instantaneous Current (mA)
   1	0.0000e+00	0.0128	-11.171683	0.001041	10.406948	3.525969	0.083082
   2	5.0000e-04	0.0337	-10.756274	0.001041	10.406948	3.525969	0.083082
   3	1.0000e-03	0.0594	-10.885333	-0.000323	-3.233227	-1.095447	-0.025812
   4	1.5000e-03	0.0930	-10.736108	0.000374	3.738418	1.266610	0.029845
   5	2.0000e-03	0.1348	-10.574785	0.000404	4.041533	1.369309	0.032265
   6	2.5000e-03	0.1717	-10.276335	0.000748	7.476837	2.533221	0.059690
   7	3.0000e-03	0.2134	-9.864959	0.001031	10.305910	3.491737	0.082275
   8	3.5000e-03	0.2551	-9.574576	0.000727	7.274760	2.464755	0.058077
   9	4.0000e-03	0.2888	-9.409219	0.000414	4.142572	1.403541	0.033071
  10	4.5000e-03	0.3401	-9.227730	0.000455	4.546725	1.540472	0.036298
  11	5.0000e-03	0.3770	-8.945413	0.000707	7.072683	2.396290	0.056463
  12	5.5000e-03	0.4043	-8.550169	0.000990	9.901756	3.354806	0.079049
  13	6.0000e-03	0.4540	-8.324316	0.000566	5.658147	1.917032	0.045171
  14	6.5000e-03	0.5005	-7.925039	0.001000	10.002795	3.389039	0.079855
  15	7.0000e-03	0.5326	-7.860509	0.000162	1.616613	0.547723	0.012906
  16	7.5000e-03	0.5711	-7.618523	0.000606	6.062300	2.053963	0.048397
  17	8.0000e-03	0.6176	-7.150684	0.001172	11.720446	3.970995	0.093568
  18	8.5000e-03	0.6481	-7.114386	0.000091	0.909345	0.308094	0.007260
  19	9.0000e-03	0.6914	-6.876433	0.000596	5.961262	2.019730	0.047591
  20	9.5000e-03	0.7299	-6.416660	0.001152	11.518370	3.902529	0.091955
  21	1.0000e-02	0.7700	-5.944787	0.001182	11.821485	4.005227	0.094375
  22	1.0500e-02	0.8101	-5.807662	0.000344	3.435303	1.163912	0.027425
  23	1.1000e-02	0.8438	-5.686669	0.000303	3.031150	1.026981	0.024199
  24	1.1500e-02	0.8887	-5.343856	0.000859	8.588258	2.909781	0.068563
  25	1.2000e-02	0.9321	-5.045406	0.000748	7.476837	2.533221	0.059690
  26	1.2500e-02	0.9754	-4.936513	0.000273	2.728035	0.924283	0.021779
  27	1.3000e-02	1.0091	-4.593699	0.000859	8.588258	2.909781	0.068563
  28	1.3500e-02	1.0460	-4.420276	0.000434	4.344648	1.472007	0.034685
  29	1.4000e-02	1.0925	-4.202489	0.000546	5.456070	1.848567	0.043557
  30	1.4500e-02	1.1422	-3.754815	0.001122	11.215255	3.799831	0.089535
  31	1.5000e-02	1.1647	-3.375704	0.000950	9.497603	3.217875	0.075822
  32	1.5500e-02	1.2160	-3.355538	0.000051	0.505192	0.171164	0.004033
  33	1.6000e-02	1.2433	-3.044989	0.000778	7.779952	2.635919	0.062110
  34	1.6500e-02	1.2882	-2.613448	0.001081	10.811101	3.662900	0.086308
  35	1.7000e-02	1.3363	-2.468256	0.000364	3.637380	1.232378	0.029038
  36	1.7500e-02	1.3684	-2.218204	0.000626	6.264377	2.122428	0.050010
  37	1.8000e-02	1.4053	-1.831027	0.000970	9.699680	3.286340	0.077435
  38	1.8500e-02	1.4518	-1.609206	0.000556	5.557108	1.882799	0.044364
  39	1.9000e-02	1.4855	-1.532577	0.000192	1.919728	0.650422	0.015326
  40	1.9500e-02	1.5240	-1.464015	0.000172	1.717652	0.581956	0.013713
  41	2.0000e-02	1.5705	-1.113135	0.000879	8.790335	2.978246	0.070176
  42	2.0500e-02	1.6074	-0.617064	0.001243	12.427715	4.210624	0.099214
  43	2.1000e-02	1.6540	-0.350880	0.000667	6.668530	2.259359	0.053237
  44	2.1500e-02	1.6828	-0.092761	0.000647	6.466453	2.190894	0.051624
  45	2.2000e-02	1.7294	0.161324	0.000637	6.365415	2.156661	0.050817
  46	2.2500e-02	1.7759	0.391211	0.000576	5.759185	1.951265	0.045977
  47	2.3000e-02	1.8208	0.657395	0.000667	6.668530	2.259359	0.053237
  48	2.3500e-02	1.8481	0.943745	0.000717	7.173722	2.430523	0.057270
  49	2.4000e-02	1.8898	1.258327	0.000788	7.880990	2.670152	0.062916
  50	2.4500e-02	1.9411	1.484180	0.000566	5.658147	1.917032	0.045171
  51	2.5000e-02	1.9700	1.746332	0.000657	6.567492	2.225126	0.052430
  52	2.5500e-02	2.0149	2.040748	0.000738	7.375798	2.498988	0.058883
  53	2.6000e-02	2.0470	2.460190	0.001051	10.507986	3.560202	0.083888
  54	2.6500e-02	2.1031	2.601349	0.000354	3.536342	1.198145	0.028232
  55	2.7000e-02	2.1176	2.907864	0.000768	7.678913	2.601686	0.061303
  56	2.7500e-02	2.1721	3.077254	0.000424	4.243610	1.437774	0.033878
  57	2.8000e-02	2.2074	3.412001	0.000839	8.386182	2.841315	0.066949
  58	2.8500e-02	2.2572	3.460399	0.000121	1.212460	0.410793	0.009679
  59	2.9000e-02	2.2941	3.944370	0.001212	12.124600	4.107926	0.096794
  60	2.9500e-02	2.3358	4.073430	0.000323	3.233227	1.095447	0.025812
  61	3.0000e-02	2.3646	4.456574	0.000960	9.598641	3.252108	0.076629
  62	3.0500e-02	2.4176	4.726792	0.000677	6.769568	2.293592	0.054044
  63	3.1000e-02	2.4481	5.113969	0.000970	9.699680	3.286340	0.077435
  64	3.1500e-02	2.4962	5.368054	0.000637	6.365415	2.156661	0.050817
  65	3.2000e-02	2.5363	5.626173	0.000647	6.466453	2.190894	0.051624
  66	3.2500e-02	2.5716	5.831861	0.000515	5.152955	1.745868	0.041138
  67	3.3000e-02	2.6101	6.210972	0.000950	9.497603	3.217875	0.075822
  68	3.3500e-02	2.6566	6.424726	0.000536	5.355032	1.814334	0.042751
  69	3.4000e-02	2.6903	6.731242	0.000768	7.678913	2.601686	0.061303
  70	3.4500e-02	2.7240	7.134551	0.001010	10.103833	3.423271	0.080662
  71	3.5000e-02	2.7737	7.416868	0.000707	7.072683	2.396290	0.056463
  72	3.5500e-02	2.8058	7.687086	0.000677	6.769568	2.293592	0.054044
  73	3.6000e-02	2.8523	7.860509	0.000434	4.344648	1.472007	0.034685
  74	3.6500e-02	2.8924	8.009734	0.000374	3.738418	1.266610	0.029845
  75	3.7000e-02	2.9357	8.279951	0.000677	6.769568	2.293592	0.054044
  76	3.7500e-02	2.9742	8.671162	0.000980	9.800718	3.320573	0.078242
  77	3.8000e-02	3.0192	8.981711	0.000778	7.779952	2.635919	0.062110
  78	3.8500e-02	3.0480	9.110770	0.000323	3.233227	1.095447	0.025812
  79	3.9000e-02	3.0914	9.437451	0.000818	8.184105	2.772850	0.065336
  80	3.9500e-02	3.1363	9.594742	0.000394	3.940495	1.335076	0.031458
  81	4.0000e-02	3.1700	9.824628	0.000576	5.759185	1.951265	0.045977
  82	4.0500e-02	3.2101	10.312633	0.001223	12.225638	4.142158	0.097601
  83	4.1000e-02	3.2534	10.615116	0.000758	7.577875	2.567454	0.060496
  84	4.1500e-02	3.2951	10.796605	0.000455	4.546725	1.540472	0.036298
  85	4.2000e-02	3.3240	11.095054	0.000748	7.476837	2.533221	0.059690
  86	4.2500e-02	3.3737	11.308808	0.000536	5.355032	1.814334	0.042751
  87	4.3000e-02	3.3994	11.413669	0.000263	2.626997	0.890051	0.020972
  88	4.3500e-02	3.4427	12.002501	0.001475	14.751596	4.997976	0.117766
  89	4.4000e-02	3.4924	12.192057	0.000475	4.748802	1.608938	0.037911
  90	4.4500e-02	3.5357	12.373547	0.000455	4.546725	1.540472	0.036298
  91	4.5000e-02	3.5710	12.655863	0.000707	7.072683	2.396290	0.056463
  92	4.5500e-02	3.6159	13.309225	0.001637	16.368210	5.545700	0.130672
  93	4.6000e-02	3.6544	13.510880	0.000505	5.051917	1.711636	0.040331
  94	4.6500e-02	3.6897	13.708502	0.000495	4.950878	1.677403	0.039524
  95	4.7000e-02	3.7347	14.188441	0.001202	12.023561	4.073693	0.095988
  96	4.7500e-02	3.7683	14.305401	0.000293	2.930112	0.992749	0.023392
  97	4.8000e-02	3.8197	14.458658	0.000384	3.839457	1.300843	0.030652
  98	4.8500e-02	3.8453	14.825670	0.000919	9.194488	3.115177	0.073402
  99	4.9000e-02	3.8887	15.047491	0.000556	5.557108	1.882799	0.044364
 100	4.9500e-02	3.9320	15.313675	0.000667	6.668530	2.259359	0.053237
 101	5.0000e-02	3.9689	15.716985	0.001010	10.103833	3.423271	0.080662
 102	5.0500e-02	4.0138	15.995269	0.000697	6.971645	2.362057	0.055657
 103	5.1000e-02	4.0507	16.128361	0.000333	3.334265	1.129680	0.026618
 104	5.1500e-02	4.0908	16.624432	0.001243	12.427715	4.210624	0.099214
 105	5.2000e-02	4.1293	16.862385	0.000596	5.961262	2.019730	0.047591
 106	5.2500e-02	4.1742	16.906749	0.000111	1.111422	0.376560	0.008873
 107	5.3000e-02	4.2143	17.273761	0.000919	9.194488	3.115177	0.073402
 108	5.3500e-02	4.2432	17.584310	0.000778	7.779952	2.635919	0.062110
 109	5.4000e-02	4.2881	17.878726	0.000738	7.375798	2.498988	0.058883
 110	5.4500e-02	4.3314	18.019885	0.000354	3.536342	1.198145	0.028232
 111	5.5000e-02	4.3780	18.181208	0.000404	4.041533	1.369309	0.032265
 112	5.5500e-02	4.4132	18.689379	0.001273	12.730830	4.313322	0.101634
 113	5.6000e-02	4.4485	19.024126	0.000839	8.386182	2.841315	0.066949
 114	5.6500e-02	4.4886	19.217715	0.000485	4.849840	1.643170	0.038718
 115	5.7000e-02	4.5336	19.516164	0.000748	7.476837	2.533221	0.059690
 116	5.7500e-02	4.5689	19.717819	0.000505	5.051917	1.711636	0.040331
 117	5.8000e-02	4.6041	20.032401	0.000788	7.880990	2.670152	0.062916
 118	5.8500e-02	4.6459	20.330850	0.000748	7.476837	2.533221	0.059690
 119	5.9000e-02	4.6876	20.653498	0.000808	8.083067	2.738617	0.064530
 120	5.9500e-02	4.7357	20.802723	0.000374	3.738418	1.266610	0.029845
 121	6.0000e-02	4.7630	21.052775	0.000626	6.264377	2.122428	0.050010
 122	6.0500e-02	4.8127	21.419787	0.000919	9.194488	3.115177	0.073402
 123	6.1000e-02	4.8544	21.919891	0.001253	12.528753	4.244856	0.100021
 124	6.1500e-02	4.8881	22.250605	0.000829	8.285143	2.807082	0.066143
 125	6.2000e-02	4.9346	22.202208	-0.000121	-1.212460	-0.410793	-0.009679
 126	6.2500e-02	4.9715	22.379664	0.000445	4.445687	1.506239	0.035491
 127	6.3000e-02	5.0148	22.702312	0.000808	8.083067	2.738617	0.064530
 128	6.3500e-02	5.0517	23.057225	0.000889	8.891373	3.012479	0.070983
 129	6.4000e-02	5.0886	23.436336	0.000950	9.497603	3.217875	0.075822
 130	6.4500e-02	5.1255	23.875944	0.001101	11.013178	3.731366	0.087922
 131	6.5000e-02	5.1720	24.013069	0.000344	3.435303	1.163912	0.027425
 132	6.5500e-02	5.2057	24.339750	0.000818	8.184105	2.772850	0.065336
 133	6.6000e-02	5.2587	24.521240	0.000455	4.546725	1.540472	0.036298
 134	6.6500e-02	5.2940	24.940682	0.001051	10.507986	3.560202	0.083888
 135	6.7000e-02	5.3341	25.323826	0.000960	9.598641	3.252108	0.076629
 136	6.7500e-02	5.3694	25.364157	0.000101	1.010383	0.342327	0.008066
 137	6.8000e-02	5.4175	25.779566	0.001041	10.406948	3.525969	0.083082
 138	6.8500e-02	5.4416	25.932824	0.000384	3.839457	1.300843	0.030652
 139	6.9000e-02	5.4849	26.255472	0.000808	8.083067	2.738617	0.064530
 140	6.9500e-02	5.5314	26.723311	0.001172	11.720446	3.970995	0.093568
 141	7.0000e-02	5.5683	27.098390	0.000940	9.396565	3.183642	0.075016
 142	7.0500e-02	5.6084	27.082257	-0.000040	-0.404153	-0.136931	-0.003226
 143	7.1000e-02	5.6485	27.642858	0.001404	14.044328	4.758347	0.112120
 144	7.1500e-02	5.6918	27.755785	0.000283	2.829073	0.958516	0.022585
 145	7.2000e-02	5.7255	28.042135	0.000717	7.173722	2.430523	0.057270
 146	7.2500e-02	5.7672	28.267988	0.000566	5.658147	1.917032	0.045171
 147	7.3000e-02	5.8089	28.501908	0.000586	5.860223	1.985497	0.046784
 148	7.3500e-02	5.8458	28.864887	0.000909	9.093450	3.080944	0.072596
 149	7.4000e-02	5.8907	29.155270	0.000727	7.274760	2.464755	0.058077
 150	7.4500e-02	5.9341	29.300461	0.000364	3.637380	1.232378	0.029038
 151	7.5000e-02	5.9677	29.699738	0.001000	10.002795	3.389039	0.079855
 152	7.5500e-02	6.0062	29.998187	0.000748	7.476837	2.533221	0.059690
 153	7.6000e-02	6.0496	30.449894	0.001132	11.316293	3.834064	0.090341
 154	7.6500e-02	6.0929	30.578954	0.000323	3.233227	1.095447	0.025812
 155	7.7000e-02	6.1330	30.869337	0.000727	7.274760	2.464755	0.058077
 156	7.7500e-02	6.1699	31.103256	0.000586	5.860223	1.985497	0.046784
 157	7.8000e-02	6.2052	31.365408	0.000657	6.567492	2.225126	0.052430
 158	7.8500e-02	6.2485	31.768718	0.001010	10.103833	3.423271	0.080662
 159	7.9000e-02	6.2934	31.893744	0.000313	3.132188	1.061214	0.025005
 160	7.9500e-02	6.3239	32.196226	0.000758	7.577875	2.567454	0.060496
 161	8.0000e-02	6.3720	32.284954	0.000222	2.222843	0.753120	0.017746
 162	8.0500e-02	6.4057	32.716496	0.001081	10.811101	3.662900	0.086308
 163	8.1000e-02	6.4586	33.381957	0.001667	16.671325	5.648398	0.133092
 164	8.1500e-02	6.4955	33.293229	-0.000222	-2.222843	-0.753120	-0.017746
 165	8.2000e-02	6.5389	33.474718	0.000455	4.546725	1.540472	0.036298
 166	8.2500e-02	6.5774	33.910293	0.001091	10.912140	3.697133	0.087115
 167	8.3000e-02	6.6110	33.914326	0.000010	0.101038	0.034233	0.000807
 168	8.3500e-02	6.6592	34.333768	0.001051	10.507986	3.560202	0.083888
 169	8.4000e-02	6.6848	34.914535	0.001455	14.549520	4.929511	0.116153
 170	8.4500e-02	6.7265	35.027461	0.000283	2.829073	0.958516	0.022585
 171	8.5000e-02	6.7650	35.350109	0.000808	8.083067	2.738617	0.064530
 172	8.5500e-02	6.8003	35.535632	0.000465	4.647763	1.574705	0.037105
 173	8.6000e-02	6.8469	35.870379	0.000839	8.386182	2.841315	0.066949
 174	8.6500e-02	6.8886	36.140597	0.000677	6.769568	2.293592	0.054044
 175	8.7000e-02	6.9287	36.499542	0.000899	8.992412	3.046711	0.071789
 176	8.7500e-02	6.9768	36.761694	0.000657	6.567492	2.225126	0.052430
 177	8.8000e-02	7.0121	36.935117	0.000434	4.344648	1.472007	0.034685
 178	8.8500e-02	7.0490	37.318261	0.000960	9.598641	3.252108	0.076629
 179	8.9000e-02	7.0923	37.419089	0.000253	2.525958	0.855818	0.020165
 180	8.9500e-02	7.1292	37.769968	0.000879	8.790335	2.978246	0.070176
 181	9.0000e-02	7.1757	38.161179	0.000980	9.800718	3.320573	0.078242
 182	9.0500e-02	7.2142	38.342668	0.000455	4.546725	1.540472	0.036298
 183	9.1000e-02	7.2447	38.713713	0.000930	9.295526	3.149410	0.074209
 184	9.1500e-02	7.2880	38.846806	0.000333	3.334265	1.129680	0.026618
 185	9.2000e-02	7.3362	39.229950	0.000960	9.598641	3.252108	0.076629
 186	9.2500e-02	7.3714	39.471936	0.000606	6.062300	2.053963	0.048397
 187	9.3000e-02	7.4164	39.770385	0.000748	7.476837	2.533221	0.059690
 188	9.3500e-02	7.4436	40.024471	0.000637	6.365415	2.156661	0.050817
 189	9.4000e-02	7.4918	40.439880	0.001041	10.406948	3.525969	0.083082
 190	9.4500e-02	7.5319	40.673799	0.000586	5.860223	1.985497	0.046784
 191	9.5000e-02	7.5688	40.790759	0.000293	2.930112	0.992749	0.023392
 192	9.5500e-02	7.6169	41.157771	0.000919	9.194488	3.115177	0.073402
 193	9.6000e-02	7.6506	41.512684	0.000889	8.891373	3.012479	0.070983
 194	9.6500e-02	7.6875	41.883729	0.000930	9.295526	3.149410	0.074209
 195	9.7000e-02	7.7244	42.028921	0.000364	3.637380	1.232378	0.029038
 196	9.7500e-02	7.7613	42.553223	0.001313	13.134983	4.450253	0.104861
 197	9.8000e-02	7.8142	42.815375	0.000657	6.567492	2.225126	0.052430
 198	9.8500e-02	7.8527	42.948467	0.000333	3.334265	1.129680	0.026618
 199	9.9000e-02	7.8880	43.170287	0.000556	5.557108	1.882799	0.044364
 200	9.9500e-02	7.9329	43.468737	0.000748	7.476837	2.533221	0.059690
 201	1.0000e-01	7.9682	43.799451	0.000829	8.285143	2.807082	0.066143
 202	1.0050e-01	8.0196	43.940609	0.000354	3.536342	1.198145	0.028232
 203	1.0100e-01	8.0500	44.299555	0.000899	8.992412	3.046711	0.071789
 204	1.0150e-01	8.0982	44.420548	0.000303	3.031150	1.026981	0.024199
 205	1.0200e-01	8.1319	44.634302	0.000536	5.355032	1.814334	0.042751
 206	1.0250e-01	8.1720	45.211035	0.001445	14.448481	4.895278	0.115347
 207	1.0300e-01	8.2073	45.521584	0.000778	7.779952	2.635919	0.062110
 208	1.0350e-01	8.2474	45.626444	0.000263	2.626997	0.890051	0.020972
 209	1.0400e-01	8.2810	46.037821	0.001031	10.305910	3.491737	0.082275
 210	1.0450e-01	8.3163	46.408866	0.000930	9.295526	3.149410	0.074209
 211	1.0500e-01	8.3709	46.671017	0.000657	6.567492	2.225126	0.052430
 212	1.0550e-01	8.4014	46.848473	0.000445	4.445687	1.506239	0.035491
 213	1.0600e-01	8.4447	47.215485	0.000919	9.194488	3.115177	0.073402
 214	1.0650e-01	8.4880	47.396975	0.000455	4.546725	1.540472	0.036298
 215	1.0700e-01	8.5329	47.538133	0.000354	3.536342	1.198145	0.028232
 216	1.0750e-01	8.5698	47.985807	0.001122	11.215255	3.799831	0.089535
 217	1.0800e-01	8.6115	48.171330	0.000465	4.647763	1.574705	0.037105
 218	1.0850e-01	8.6516	48.574640	0.001010	10.103833	3.423271	0.080662
 219	1.0900e-01	8.6885	48.792427	0.000546	5.456070	1.848567	0.043557
 220	1.0950e-01	8.7367	49.014247	0.000556	5.557108	1.882799	0.044364
 221	1.1000e-01	8.7655	49.365127	0.000879	8.790335	2.978246	0.070176
 222	1.1050e-01	8.8088	49.643411	0.000697	6.971645	2.362057	0.055657
 223	1.1100e-01	8.8473	49.865231	0.000556	5.557108	1.882799	0.044364
 224	1.1150e-01	8.8907	50.276607	0.001031	10.305910	3.491737	0.082275
 225	1.1200e-01	8.9324	50.441964	0.000414	4.142572	1.403541	0.033071
 226	1.1250e-01	8.9693	50.692016	0.000626	6.264377	2.122428	0.050010
 227	1.1300e-01	9.0190	50.925936	0.000586	5.860223	1.985497	0.046784
 228	1.1350e-01	9.0607	51.127591	0.000505	5.051917	1.711636	0.040331
 229	1.1400e-01	9.0960	51.389742	0.000657	6.567492	2.225126	0.052430
 230	1.1450e-01	9.1345	51.599464	0.000525	5.253993	1.780101	0.041944
 231	1.1500e-01	9.1634	51.926145	0.000818	8.184105	2.772850	0.065336
 232	1.1550e-01	9.2083	52.345587	0.001051	10.507986	3.560202	0.083888
 233	1.1600e-01	9.2500	52.640003	0.000738	7.375798	2.498988	0.058883
 234	1.1650e-01	9.2933	52.922320	0.000707	7.072683	2.396290	0.056463
 235	1.1700e-01	9.3286	53.184471	0.000657	6.567492	2.225126	0.052430
 236	1.1750e-01	9.3735	53.353861	0.000424	4.243610	1.437774	0.033878
 237	1.1800e-01	9.4104	53.753138	0.001000	10.002795	3.389039	0.079855
 238	1.1850e-01	9.4473	54.172580	0.001051	10.507986	3.560202	0.083888
 239	1.1900e-01	9.4955	54.370202	0.000495	4.950878	1.677403	0.039524
 240	1.1950e-01	9.5372	54.708983	0.000849	8.487220	2.875548	0.067756
 241	1.2000e-01	9.5709	54.918704	0.000525	5.253993	1.780101	0.041944
 242	1.2050e-01	9.6158	55.023564	0.000263	2.626997	0.890051	0.020972
 243	1.2100e-01	9.6639	55.386543	0.000909	9.093450	3.080944	0.072596
 244	1.2150e-01	9.6831	55.931011	0.001364	13.640175	4.621416	0.108894
 245	1.2200e-01	9.7313	56.011673	0.000202	2.020767	0.684654	0.016132
 246	1.2250e-01	9.7762	56.100402	0.000222	2.222843	0.753120	0.017746
 247	1.2300e-01	9.8051	56.402884	0.000758	7.577875	2.567454	0.060496
 248	1.2350e-01	9.8548	56.713433	0.000778	7.779952	2.635919	0.062110
 249	1.2400e-01	9.8933	57.080445	0.000919	9.194488	3.115177	0.073402
 250	1.2450e-01	9.9286	57.354695	0.000687	6.870607	2.327825	0.054850
 251	1.2500e-01	9.9735	57.548284	0.000485	4.849840	1.643170	0.038718
 252	1.2550e-01	10.0152	57.798336	0.000626	6.264377	2.122428	0.050010
 253	1.2600e-01	10.0473	57.911263	0.000283	2.829073	0.958516	0.022585
 254	1.2650e-01	10.0954	58.286341	0.000940	9.396565	3.183642	0.075016
 255	1.2700e-01	10.1275	58.907438	0.001556	15.559903	5.271838	0.124219
 256	1.2750e-01	10.1660	58.943736	0.000091	0.909345	0.308094	0.007260
 257	1.2800e-01	10.2158	59.217987	0.000687	6.870607	2.327825	0.054850
 258	1.2850e-01	10.2527	59.528535	0.000778	7.779952	2.635919	0.062110
 259	1.2900e-01	10.2895	59.714058	0.000465	4.647763	1.574705	0.037105
 260	1.2950e-01	10.3313	59.831018	0.000293	2.930112	0.992749	0.023392
 261	1.3000e-01	10.3666	60.185930	0.000889	8.891373	3.012479	0.070983
 262	1.3050e-01	10.4115	60.435983	0.000626	6.264377	2.122428	0.050010
 263	1.3100e-01	10.4484	60.677968	0.000606	6.062300	2.053963	0.048397
 264	1.3150e-01	10.4917	60.984484	0.000768	7.678913	2.601686	0.061303
 265	1.3200e-01	10.5286	61.250668	0.000667	6.668530	2.259359	0.053237
 266	1.3250e-01	10.5735	61.637846	0.000970	9.699680	3.286340	0.077435
 267	1.3300e-01	10.6136	61.932262	0.000738	7.375798	2.498988	0.058883
 268	1.3350e-01	10.6537	61.940328	0.000020	0.202077	0.068465	0.001613
 269	1.3400e-01	10.6922	62.307340	0.000919	9.194488	3.115177	0.073402
 270	1.3450e-01	10.7291	62.581591	0.000687	6.870607	2.327825	0.054850
 271	1.3500e-01	10.7724	62.601757	0.000051	0.505192	0.171164	0.004033
 272	1.3550e-01	10.8029	63.142192	0.001354	13.539136	4.587184	0.108087
 273	1.3600e-01	10.8526	63.388211	0.000616	6.163338	2.088196	0.049204
 274	1.3650e-01	10.8959	63.815719	0.001071	10.710063	3.628668	0.085502
 275	1.3700e-01	10.9264	64.049639	0.000586	5.860223	1.985497	0.046784
 276	1.3750e-01	10.9713	64.214996	0.000414	4.142572	1.403541	0.033071
 277	1.3800e-01	11.0115	64.529578	0.000788	7.880990	2.670152	0.062916
 278	1.3850e-01	11.0596	64.763497	0.000586	5.860223	1.985497	0.046784
 279	1.3900e-01	11.0965	65.130509	0.000919	9.194488	3.115177	0.073402
 280	1.3950e-01	11.1318	65.368462	0.000596	5.961262	2.019730	0.047591
 281	1.4000e-01	11.1719	65.670945	0.000758	7.577875	2.567454	0.060496
 282	1.4050e-01	11.2040	65.997626	0.000818	8.184105	2.772850	0.065336
 283	1.4100e-01	11.2537	66.328340	0.000829	8.285143	2.807082	0.066143
 284	1.4150e-01	11.2874	66.695352	0.000919	9.194488	3.115177	0.073402
 285	1.4200e-01	11.3243	66.933304	0.000596	5.961262	2.019730	0.047591
 286	1.4250e-01	11.3724	67.017999	0.000212	2.121805	0.718887	0.016939
 287	1.4300e-01	11.4189	67.054297	0.000091	0.909345	0.308094	0.007260
 288	1.4350e-01	11.4526	67.385011	0.000829	8.285143	2.807082	0.066143
 289	1.4400e-01	11.4959	67.735891	0.000879	8.790335	2.978246	0.070176
 290	1.4450e-01	11.5344	68.115002	0.000950	9.497603	3.217875	0.075822
 291	1.4500e-01	11.5745	68.308591	0.000485	4.849840	1.643170	0.038718
 292	1.4550e-01	11.6082	68.498147	0.000475	4.748802	1.608938	0.037911
 293	1.4600e-01	11.6548	68.840960	0.000859	8.588258	2.909781	0.068563
 294	1.4650e-01	11.7045	69.022449	0.000455	4.546725	1.540472	0.036298
 295	1.4700e-01	11.7237	69.514488	0.001233	12.326676	4.176391	0.098408
 296	1.4750e-01	11.7638	69.691944	0.000445	4.445687	1.506239	0.035491
 297	1.4800e-01	11.8039	69.808904	0.000293	2.930112	0.992749	0.023392
 298	1.4850e-01	11.8441	70.256578	0.001122	11.215255	3.799831	0.089535
 299	1.4900e-01	11.8809	70.611490	0.000889	8.891373	3.012479	0.070983
 300	1.4950e-01	11.9323	70.708285	0.000242	2.424920	0.821585	0.019359
 301	1.5000e-01	11.9708	70.784914	0.000192	1.919728	0.650422	0.015326
 302	1.5050e-01	12.0029	71.099495	0.000788	7.880990	2.670152	0.062916
 303	1.5100e-01	12.0558	71.555235	0.001142	11.417331	3.868297	0.091148
 304	1.5150e-01	12.0911	71.914181	0.000899	8.992412	3.046711	0.071789
 305	1.5200e-01	12.1360	72.015009	0.000253	2.525958	0.855818	0.020165
 306	1.5250e-01	12.1729	72.208597	0.000485	4.849840	1.643170	0.038718
 307	1.5300e-01	12.2162	72.486881	0.000697	6.971645	2.362057	0.055657
 308	1.5350e-01	12.2563	72.728867	0.000606	6.062300	2.053963	0.048397
 309	1.5400e-01	12.2916	73.128144	0.001000	10.002795	3.389039	0.079855
 310	1.5450e-01	12.3398	73.386262	0.000647	6.466453	2.190894	0.051624
 311	1.5500e-01	12.3718	73.632281	0.000616	6.163338	2.088196	0.049204
 312	1.5550e-01	12.4071	73.983161	0.000879	8.790335	2.978246	0.070176
 313	1.5600e-01	12.4521	74.309842	0.000818	8.184105	2.772850	0.065336
 314	1.5650e-01	12.4922	74.362272	0.000131	1.313498	0.445025	0.010486
 315	1.5700e-01	12.5210	74.705085	0.000859	8.588258	2.909781	0.068563
 316	1.5750e-01	12.5708	75.059998	0.000889	8.891373	3.012479	0.070983
 317	1.5800e-01	12.6061	75.217289	0.000394	3.940495	1.335076	0.031458
 318	1.5850e-01	12.6526	75.422977	0.000515	5.152955	1.745868	0.041138
 319	1.5900e-01	12.6847	75.624632	0.000505	5.051917	1.711636	0.040331
 320	1.5950e-01	12.7360	75.890816	0.000667	6.668530	2.259359	0.053237
 321	1.6000e-01	12.7665	76.257828	0.000919	9.194488	3.115177	0.073402
 322	1.6050e-01	12.8066	76.616774	0.000899	8.992412	3.046711	0.071789
 323	1.6100e-01	12.8499	76.753900	0.000344	3.435303	1.163912	0.027425
 324	1.6150e-01	12.8900	77.310467	0.001394	13.943290	4.724114	0.111314
 325	1.6200e-01	12.9253	77.483890	0.000434	4.344648	1.472007	0.034685
 326	1.6250e-01	12.9702	77.479857	-0.000010	-0.101038	-0.034233	-0.000807
 327	1.6300e-01	12.9959	77.887200	0.001020	10.204871	3.457504	0.081469
 328	1.6350e-01	13.0472	78.153385	0.000667	6.668530	2.259359	0.053237
 329	1.6400e-01	13.0873	78.254212	0.000253	2.525958	0.855818	0.020165
 330	1.6450e-01	13.1290	78.496198	0.000606	6.062300	2.053963	0.048397
 331	1.6500e-01	13.1756	78.867243	0.000930	9.295526	3.149410	0.074209
 332	1.6550e-01	13.2044	79.072931	0.000515	5.152955	1.745868	0.041138
 333	1.6600e-01	13.2494	79.089064	0.000040	0.404153	0.136931	0.003226
 334	1.6650e-01	13.2847	79.508506	0.001051	10.507986	3.560202	0.083888
 335	1.6700e-01	13.3280	79.786790	0.000697	6.971645	2.362057	0.055657
 336	1.6750e-01	13.3681	79.980378	0.000485	4.849840	1.643170	0.038718
 337	1.6800e-01	13.4050	80.331258	0.000879	8.790335	2.978246	0.070176
 338	1.6850e-01	13.4467	80.847495	0.001293	12.932906	4.381787	0.103247
 339	1.6900e-01	13.4836	80.795064	-0.000131	-1.313498	-0.445025	-0.010486
 340	1.6950e-01	13.5189	81.077381	0.000707	7.072683	2.396290	0.056463
 341	1.7000e-01	13.5750	81.395996	0.000798	7.982028	2.704384	0.063723
 342	1.7050e-01	13.6055	81.835604	0.001101	11.013178	3.731366	0.087922
 343	1.7100e-01	13.6408	81.912233	0.000192	1.919728	0.650422	0.015326
 344	1.7150e-01	13.6889	82.142119	0.000576	5.759185	1.951265	0.045977
 345	1.7200e-01	13.7226	82.545429	0.001010	10.103833	3.423271	0.080662
 346	1.7250e-01	13.7691	82.678521	0.000333	3.334265	1.129680	0.026618
 347	1.7300e-01	13.8044	83.021335	0.000859	8.588258	2.909781	0.068563
 348	1.7350e-01	13.8429	83.267354	0.000616	6.163338	2.088196	0.049204
 349	1.7400e-01	13.8878	83.577902	0.000778	7.779952	2.635919	0.062110
 350	1.7450e-01	13.9312	83.848120	0.000677	6.769568	2.293592	0.054044
 351	1.7500e-01	13.9648	84.025576	0.000445	4.445687	1.506239	0.035491
 352	1.7550e-01	14.0050	84.319992	0.000738	7.375798	2.498988	0.058883
 353	1.7600e-01	14.0451	84.291761	-0.000071	-0.707268	-0.239629	-0.005646
 354	1.7650e-01	14.0868	84.646673	0.000889	8.891373	3.012479	0.070983
 355	1.7700e-01	14.1285	84.924957	0.000697	6.971645	2.362057	0.055657
 356	1.7750e-01	14.1766	85.175009	0.000626	6.264377	2.122428	0.050010
 357	1.7800e-01	14.2119	85.380697	0.000515	5.152955	1.745868	0.041138
 358	1.7850e-01	14.2472	85.864669	0.001212	12.124600	4.107926	0.096794
 359	1.7900e-01	14.2889	85.981629	0.000293	2.930112	0.992749	0.023392
 360	1.7950e-01	14.3322	86.376873	0.000990	9.901756	3.354806	0.079049
 361	1.8000e-01	14.3691	86.626925	0.000626	6.264377	2.122428	0.050010
 362	1.8050e-01	14.4108	86.820514	0.000485	4.849840	1.643170	0.038718
 363	1.8100e-01	14.4477	87.155261	0.000839	8.386182	2.841315	0.066949
 364	1.8150e-01	14.4926	87.340783	0.000465	4.647763	1.574705	0.037105
 365	1.8200e-01	14.5295	87.481942	0.000354	3.536342	1.198145	0.028232
 366	1.8250e-01	14.5616	87.905417	0.001061	10.609025	3.594435	0.084695
 367	1.8300e-01	14.6081	88.042542	0.000344	3.435303	1.163912	0.027425
 368	1.8350e-01	14.6482	88.409554	0.000919	9.194488	3.115177	0.073402
 369	1.8400e-01	14.6819	88.716070	0.000768	7.678913	2.601686	0.061303
 370	1.8450e-01	14.7253	88.837063	0.000303	3.031150	1.026981	0.024199
 371	1.8500e-01	14.7638	89.050817	0.000536	5.355032	1.814334	0.042751
 372	1.8550e-01	14.8119	89.224240	0.000434	4.344648	1.472007	0.034685
 373	1.8600e-01	14.8520	89.821139	0.001495	14.953673	5.066442	0.119380
 374	1.8650e-01	14.8873	89.974397	0.000384	3.839457	1.300843	0.030652
 375	1.8700e-01	14.9226	90.083290	0.000273	2.728035	0.924283	0.021779
 376	1.8750e-01	14.9675	90.337376	0.000637	6.365415	2.156661	0.050817
 377	1.8800e-01	15.0092	90.450302	0.000283	2.829073	0.958516	0.022585
 378	1.8850e-01	15.0461	90.809248	0.000899	8.992412	3.046711	0.071789
 379	1.8900e-01	15.0846	91.055267	0.000616	6.163338	2.088196	0.049204
 380	1.8950e-01	15.1247	91.321452	0.000667	6.668530	2.259359	0.053237
 381	1.9000e-01	15.1664	91.543272	0.000556	5.557108	1.882799	0.044364
 382	1.9050e-01	15.2097	91.825589	0.000707	7.072683	2.396290	0.056463
 383	1.9100e-01	15.2498	92.224866	0.001000	10.002795	3.389039	0.079855
 384	1.9150e-01	15.2771	92.442653	0.000546	5.456070	1.848567	0.043557
 385	1.9200e-01	15.3236	92.708838	0.000667	6.668530	2.259359	0.053237
 386	1.9250e-01	15.3637	92.910493	0.000505	5.051917	1.711636	0.040331
 387	1.9300e-01	15.4054	93.410597	0.001253	12.528753	4.244856	0.100021
 388	1.9350e-01	15.4584	93.604185	0.000485	4.849840	1.643170	0.038718
 389	1.9400e-01	15.4921	93.620318	0.000040	0.404153	0.136931	0.003226
 390	1.9450e-01	15.5338	93.793741	0.000434	4.344648	1.472007	0.034685
 391	1.9500e-01	15.5611	94.233349	0.001101	11.013178	3.731366	0.087922
 392	1.9550e-01	15.6076	94.555997	0.000808	8.083067	2.738617	0.064530
 393	1.9600e-01	15.6493	94.802016	0.000616	6.163338	2.088196	0.049204
 394	1.9650e-01	15.6830	95.072233	0.000677	6.769568	2.293592	0.054044
 395	1.9700e-01	15.7279	95.249690	0.000445	4.445687	1.506239	0.035491
 396	1.9750e-01	15.7760	95.358583	0.000273	2.728035	0.924283	0.021779
 397	1.9800e-01	15.8033	95.564271	0.000515	5.152955	1.745868	0.041138
 398	1.9850e-01	15.8466	95.955482	0.000980	9.800718	3.320573	0.078242
 399	1.9900e-01	15.8899	96.015978	0.000152	1.515575	0.513491	0.012099
 400	1.9950e-01	15.9268	96.455586	0.001101	11.013178	3.731366	0.087922
 401	2.0000e-01	15.9685	96.782267	0.000818	8.184105	2.772850	0.065336
 402	2.0050e-01	16.0038	96.915359	0.000333	3.334265	1.129680	0.026618
 403	2.0100e-01	16.0487	97.153312	0.000596	5.961262	2.019730	0.047591
 404	2.0150e-01	16.0792	97.451762	0.000748	7.476837	2.533221	0.059690
 405	2.0200e-01	16.1306	97.766343	0.000788	7.880990	2.670152	0.062916
 406	2.0250e-01	16.1691	98.064793	0.000748	7.476837	2.533221	0.059690
 407	2.0300e-01	16.2092	98.097057	0.000081	0.808307	0.273862	0.006453
 408	2.0350e-01	16.2461	98.395507	0.000748	7.476837	2.533221	0.059690
 409	2.0400e-01	16.2862	98.871412	0.001192	11.922523	4.039460	0.095181
 410	2.0450e-01	16.3343	98.915776	0.000111	1.111422	0.376560	0.008873
 411	2.0500e-01	16.3696	99.165828	0.000626	6.264377	2.122428	0.050010
 412	2.0550e-01	16.4129	99.476377	0.000778	7.779952	2.635919	0.062110
 413	2.0600e-01	16.4466	99.637701	0.000404	4.041533	1.369309	0.032265
 414	2.0650e-01	16.4883	99.758694	0.000303	3.031150	1.026981	0.024199
 415	2.0700e-01	16.5236	100.016812	0.000647	6.466453	2.190894	0.051624
 416	2.0750e-01	16.5621	100.339460	0.000808	8.083067	2.738617	0.064530
 417	2.0800e-01	16.6118	100.686307	0.000869	8.689297	2.944013	0.069369
 418	2.0850e-01	16.6471	100.758902	0.000182	1.818690	0.616189	0.014519
 419	2.0900e-01	16.6840	101.142047	0.000960	9.598641	3.252108	0.076629
 420	2.0950e-01	16.7241	101.468728	0.000818	8.184105	2.772850	0.065336
 421	2.1000e-01	16.7626	101.553423	0.000212	2.121805	0.718887	0.016939
 422	2.1050e-01	16.8075	101.976898	0.001061	10.609025	3.594435	0.084695
 423	2.1100e-01	16.8525	102.303579	0.000818	8.184105	2.772850	0.065336
 424	2.1150e-01	16.8894	102.384241	0.000202	2.020767	0.684654	0.016132
 425	2.1200e-01	16.9343	102.666558	0.000707	7.072683	2.396290	0.056463
 426	2.1250e-01	16.9680	102.787551	0.000303	3.031150	1.026981	0.024199
 427	2.1300e-01	17.0241	102.981140	0.000485	4.849840	1.643170	0.038718
 428	2.1350e-01	17.0466	103.404615	0.001061	10.609025	3.594435	0.084695
 429	2.1400e-01	17.0771	103.626435	0.000556	5.557108	1.882799	0.044364
 430	2.1450e-01	17.1284	103.719197	0.000232	2.323882	0.787352	0.018552
 431	2.1500e-01	17.1733	104.021679	0.000758	7.577875	2.567454	0.060496
 432	2.1550e-01	17.2038	104.291897	0.000677	6.769568	2.293592	0.054044
 433	2.1600e-01	17.2567	104.864597	0.001435	14.347443	4.861045	0.114540
 434	2.1650e-01	17.2904	104.933159	0.000172	1.717652	0.581956	0.013713
 435	2.1700e-01	17.3305	105.207410	0.000687	6.870607	2.327825	0.054850
 436	2.1750e-01	17.3706	105.489727	0.000707	7.072683	2.396290	0.056463
 437	2.1800e-01	17.4091	105.788176	0.000748	7.476837	2.533221	0.059690
 438	2.1850e-01	17.4444	105.699448	-0.000222	-2.222843	-0.753120	-0.017746
 439	2.1900e-01	17.4974	105.880938	0.000455	4.546725	1.540472	0.036298
 440	2.1950e-01	17.5230	106.280214	0.001000	10.002795	3.389039	0.079855
 441	2.2000e-01	17.5615	106.546399	0.000667	6.668530	2.259359	0.053237
 442	2.2050e-01	17.6145	106.727888	0.000455	4.546725	1.540472	0.036298
 443	2.2100e-01	17.6546	106.949709	0.000556	5.557108	1.882799	0.044364
 444	2.2150e-01	17.6802	107.102966	0.000384	3.839457	1.300843	0.030652
 445	2.2200e-01	17.7364	107.639369	0.001344	13.438098	4.552951	0.107280
 446	2.2250e-01	17.7765	107.615170	-0.000061	-0.606230	-0.205396	-0.004840
 447	2.2300e-01	17.8102	107.841024	0.000566	5.658147	1.917032	0.045171
 448	2.2350e-01	17.8455	108.385492	0.001364	13.640175	4.621416	0.108894
 449	2.2400e-01	17.8856	108.591180	0.000515	5.152955	1.745868	0.041138
 450	2.2450e-01	17.9241	108.865431	0.000687	6.870607	2.327825	0.054850
 451	2.2500e-01	17.9754	108.889629	0.000061	0.606230	0.205396	0.004840
 452	2.2550e-01	18.0187	109.014655	0.000313	3.132188	1.061214	0.025005
 453	2.2600e-01	18.0428	109.534925	0.001303	13.033945	4.416020	0.104054
 454	2.2650e-01	18.1006	109.780944	0.000616	6.163338	2.088196	0.049204
 455	2.2700e-01	18.1294	109.873705	0.000232	2.323882	0.787352	0.018552
 456	2.2750e-01	18.1663	110.252816	0.000950	9.497603	3.217875	0.075822
 457	2.2800e-01	18.2080	110.644027	0.000980	9.800718	3.320573	0.078242
 458	2.2850e-01	18.2481	110.930377	0.000717	7.173722	2.430523	0.057270
 459	2.2900e-01	18.2883	111.091701	0.000404	4.041533	1.369309	0.032265
 460	2.2950e-01	18.3252	111.119933	0.000071	0.707268	0.239629	0.005646
 461	2.3000e-01	18.3749	111.240926	0.000303	3.031150	1.026981	0.024199
 462	2.3050e-01	18.4070	111.680533	0.001101	11.013178	3.731366	0.087922
 463	2.3100e-01	18.4519	112.007214	0.000818	8.184105	2.772850	0.065336
 464	2.3150e-01	18.4872	112.120141	0.000283	2.829073	0.958516	0.022585
 465	2.3200e-01	18.5209	112.317763	0.000495	4.950878	1.677403	0.039524
 466	2.3250e-01	18.5722	112.507319	0.000475	4.748802	1.608938	0.037911
 467	2.3300e-01	18.6043	112.834000	0.000818	8.184105	2.772850	0.065336
 468	2.3350e-01	18.6524	113.124383	0.000727	7.274760	2.464755	0.058077
 469	2.3400e-01	18.6925	113.430898	0.000768	7.678913	2.601686	0.061303
 470	2.3450e-01	18.7262	113.850340	0.001051	10.507986	3.560202	0.083888
 471	2.3500e-01	18.7647	113.999565	0.000374	3.738418	1.266610	0.029845
 472	2.3550e-01	18.8064	114.245584	0.000616	6.163338	2.088196	0.049204
 473	2.3600e-01	18.8497	114.423040	0.000445	4.445687	1.506239	0.035491
 474	2.3650e-01	18.8834	114.757788	0.000839	8.386182	2.841315	0.066949
 475	2.3700e-01	18.9348	114.943310	0.000465	4.647763	1.574705	0.037105
 476	2.3750e-01	18.9668	114.995740	0.000131	1.313498	0.445025	0.010486
 477	2.3800e-01	19.0102	115.249826	0.000637	6.365415	2.156661	0.050817
 478	2.3850e-01	19.0519	115.495845	0.000616	6.163338	2.088196	0.049204
 479	2.3900e-01	19.0840	115.745897	0.000626	6.264377	2.122428	0.050010
 480	2.3950e-01	19.1192	116.209703	0.001162	11.619408	3.936762	0.092761
 481	2.4000e-01	19.1658	116.294398	0.000212	2.121805	0.718887	0.016939
 482	2.4050e-01	19.2123	116.427490	0.000333	3.334265	1.129680	0.026618
 483	2.4100e-01	19.2476	116.617046	0.000475	4.748802	1.608938	0.037911
 484	2.4150e-01	19.2909	117.032455	0.001041	10.406948	3.525969	0.083082
 485	2.4200e-01	19.3294	117.270408	0.000596	5.961262	2.019730	0.047591
 486	2.4250e-01	19.3647	117.851174	0.001455	14.549520	4.929511	0.116153
 487	2.4300e-01	19.4112	117.859240	0.000020	0.202077	0.068465	0.001613
 488	2.4350e-01	19.4513	117.730181	-0.000323	-3.233227	-1.095447	-0.025812
 489	2.4400e-01	19.4882	118.117359	0.000970	9.699680	3.286340	0.077435
 490	2.4450e-01	19.5235	118.391609	0.000687	6.870607	2.327825	0.054850
 491	2.4500e-01	19.5716	118.690059	0.000748	7.476837	2.533221	0.059690
 492	2.4550e-01	19.6069	118.754588	0.000162	1.616613	0.547723	0.012906
 493	2.4600e-01	19.6454	119.101435	0.000869	8.689297	2.944013	0.069369
 494	2.4650e-01	19.7000	119.161931	0.000152	1.515575	0.513491	0.012099
 495	2.4700e-01	19.7208	119.549109	0.000970	9.699680	3.286340	0.077435
 496	2.4750e-01	19.7674	119.658002	0.000273	2.728035	0.924283	0.021779
 497	2.4800e-01	19.8075	120.141974	0.001212	12.124600	4.107926	0.096794
 498	2.4850e-01	19.8492	120.339596	0.000495	4.950878	1.677403	0.039524
 499	2.4900e-01	19.8941	120.573516	0.000586	5.860223	1.985497	0.046784
 500	2.4950e-01	19.9294	120.948594	0.000940	9.396565	3.183642	0.075016
 501	2.5000e-01	19.9647	121.251076	0.000758	7.577875	2.567454	0.060496
 502	2.5050e-01	19.9727	121.122017	-0.000323	-3.233227	-1.095447	-0.025812
 503	2.5100e-01	19.9486	120.755005	0.000919	9.194488	3.115177	-0.073402
 504	2.5150e-01	19.9117	120.658211	0.000242	2.424920	0.821585	-0.019359
 505	2.5200e-01	19.8748	120.589648	0.000172	1.717652	0.581956	-0.013713
 506	2.5250e-01	19.8412	120.375894	0.000536	5.355032	1.814334	-0.042751
 507	2.5300e-01	19.7898	120.202471	0.000434	4.344648	1.472007	-0.034685
 508	2.5350e-01	19.7641	119.940319	0.000657	6.567492	2.225126	-0.052430
 509	2.5400e-01	19.7128	119.645903	0.000738	7.375798	2.498988	-0.058883
 510	2.5450e-01	19.6775	119.464414	0.000455	4.546725	1.540472	-0.036298
 511	2.5500e-01	19.6326	119.399884	0.000162	1.616613	0.547723	-0.012906
 512	2.5550e-01	19.5909	119.242593	0.000394	3.940495	1.335076	-0.031458
 513	2.5600e-01	19.5476	118.923978	0.000798	7.982028	2.704384	-0.063723
 514	2.5650e-01	19.5171	118.633595	0.000727	7.274760	2.464755	-0.058077
 515	2.5700e-01	19.4754	118.561000	0.000182	1.818690	0.616189	-0.014519
 516	2.5750e-01	19.4369	118.476305	0.000212	2.121805	0.718887	-0.016939
 517	2.5800e-01	19.3984	118.028631	0.001122	11.215255	3.799831	-0.089535
 518	2.5850e-01	19.3599	118.060895	-0.000081	-0.808307	-0.273862	0.006453
 519	2.5900e-01	19.3150	117.814876	0.000616	6.163338	2.088196	-0.049204
 520	2.5950e-01	19.2845	117.560791	0.000637	6.365415	2.156661	-0.050817
 521	2.6000e-01	19.2396	117.105051	0.001142	11.417331	3.868297	-0.091148
 522	2.6050e-01	19.1995	117.068753	0.000091	0.909345	0.308094	-0.007260
 523	2.6100e-01	19.1529	117.028422	0.000101	1.010383	0.342327	-0.008066
 524	2.6150e-01	19.1176	116.850966	0.000445	4.445687	1.506239	-0.035491
 525	2.6200e-01	19.0791	116.596881	0.000637	6.365415	2.156661	-0.050817
 526	2.6250e-01	19.0278	116.310531	0.000717	7.173722	2.430523	-0.057270
 527	2.6300e-01	19.0037	116.496053	-0.000465	-4.647763	-1.574705	0.037105
 528	2.6350e-01	18.9572	115.951585	0.001364	13.640175	4.621416	-0.108894
 529	2.6400e-01	18.9107	115.834625	0.000293	2.930112	0.992749	-0.023392
 530	2.6450e-01	18.8722	115.838658	-0.000010	-0.101038	-0.034233	0.000807
 531	2.6500e-01	18.8385	115.399050	0.001101	11.013178	3.731366	-0.087922
 532	2.6550e-01	18.8000	115.148998	0.000626	6.264377	2.122428	-0.050010
 533	2.6600e-01	18.7583	114.907012	0.000606	6.062300	2.053963	-0.048397
 534	2.6650e-01	18.7166	114.786019	0.000303	3.031150	1.026981	-0.024199
 535	2.6700e-01	18.6701	114.644861	0.000354	3.536342	1.198145	-0.028232
 536	2.6750e-01	18.6348	114.414974	0.000576	5.759185	1.951265	-0.045977
 537	2.6800e-01	18.5931	114.164922	0.000626	6.264377	2.122428	-0.050010
 538	2.6850e-01	18.5642	113.854374	0.000778	7.779952	2.635919	-0.062110
 539	2.6900e-01	18.5161	113.576090	0.000697	6.971645	2.362057	-0.055657
 540	2.6950e-01	18.4743	113.483328	0.000232	2.323882	0.787352	-0.018552
 541	2.7000e-01	18.4326	113.201012	0.000707	7.072683	2.396290	-0.056463
 542	2.7050e-01	18.3989	113.035655	0.000414	4.142572	1.403541	-0.033071
 543	2.7100e-01	18.3508	112.967092	0.000172	1.717652	0.581956	-0.013713
 544	2.7150e-01	18.3187	112.660576	0.000768	7.678913	2.601686	-0.061303
 545	2.7200e-01	18.2722	112.370193	0.000727	7.274760	2.464755	-0.058077
 546	2.7250e-01	18.2337	112.172571	0.000495	4.950878	1.677403	-0.039524
 547	2.7300e-01	18.1968	111.926552	0.000616	6.163338	2.088196	-0.049204
 548	2.7350e-01	18.1471	111.769262	0.000394	3.940495	1.335076	-0.031458
 549	2.7400e-01	18.1182	111.591805	0.000445	4.445687	1.506239	-0.035491
 550	2.7450e-01	18.0765	111.551474	0.000101	1.010383	0.342327	-0.008066
 551	2.7500e-01	18.0284	111.285290	0.000667	6.668530	2.259359	-0.053237
 552	2.7550e-01	17.9947	110.934410	0.000879	8.790335	2.978246	-0.070176
 553	2.7600e-01	17.9530	110.833583	0.000253	2.525958	0.855818	-0.020165
 554	2.7650e-01	17.9225	110.559332	0.000687	6.870607	2.327825	-0.054850
 555	2.7700e-01	17.8760	110.345578	0.000536	5.355032	1.814334	-0.042751
 556	2.7750e-01	17.8391	110.172155	0.000434	4.344648	1.472007	-0.034685
 557	2.7800e-01	17.8006	109.845474	0.000818	8.184105	2.772850	-0.065336
 558	2.7850e-01	17.7460	109.635752	0.000525	5.253993	1.780101	-0.041944
 559	2.7900e-01	17.7107	109.405866	0.000576	5.759185	1.951265	-0.045977
 560	2.7950e-01	17.6770	109.184045	0.000556	5.557108	1.882799	-0.044364
 561	2.8000e-01	17.6337	109.131615	0.000131	1.313498	0.445025	-0.010486
 562	2.8050e-01	17.6016	108.865431	0.000667	6.668530	2.259359	-0.053237
 563	2.8100e-01	17.5535	108.534716	0.000829	8.285143	2.807082	-0.066143
 564	2.8150e-01	17.5134	108.534716	-0.000000	-0.000000	-0.000000	0.000000
 565	2.8200e-01	17.4765	108.167705	0.000919	9.194488	3.115177	-0.073402
 566	2.8250e-01	17.4332	107.889421	0.000697	6.971645	2.362057	-0.055657
 567	2.8300e-01	17.3947	107.570806	0.000798	7.982028	2.704384	-0.063723
 568	2.8350e-01	17.3482	107.223959	0.000869	8.689297	2.944013	-0.069369
 569	2.8400e-01	17.3161	107.010205	0.000536	5.355032	1.814334	-0.042751
 570	2.8450e-01	17.2792	107.006172	0.000010	0.101038	0.034233	-0.000807
 571	2.8500e-01	17.2295	106.780319	0.000566	5.658147	1.917032	-0.045171
 572	2.8550e-01	17.1926	106.514134	0.000667	6.668530	2.259359	-0.053237
 573	2.8600e-01	17.1476	106.260049	0.000637	6.365415	2.156661	-0.050817
 574	2.8650e-01	17.1107	106.082593	0.000445	4.445687	1.506239	-0.035491
 575	2.8700e-01	17.0787	105.844640	0.000596	5.961262	2.019730	-0.047591
 576	2.8750e-01	17.0402	105.521992	0.000808	8.083067	2.738617	-0.064530
 577	2.8800e-01	16.9936	105.513926	0.000020	0.202077	0.068465	-0.001613
 578	2.8850e-01	16.9519	105.344535	0.000424	4.243610	1.437774	-0.033878
 579	2.8900e-01	16.9166	104.993656	0.000879	8.790335	2.978246	-0.070176
 580	2.8950e-01	16.8733	104.767802	0.000566	5.658147	1.917032	-0.045171
 581	2.9000e-01	16.8348	104.481452	0.000717	7.173722	2.430523	-0.057270
 582	2.9050e-01	16.8092	104.384658	0.000242	2.424920	0.821585	-0.019359
 583	2.9100e-01	16.7594	104.082176	0.000758	7.577875	2.567454	-0.060496
 584	2.9150e-01	16.7193	103.904719	0.000445	4.445687	1.506239	-0.035491
 585	2.9200e-01	16.6776	103.565939	0.000849	8.487220	2.875548	-0.067756
 586	2.9250e-01	16.6375	103.457045	0.000273	2.728035	0.924283	-0.021779
 587	2.9300e-01	16.5894	103.319920	0.000344	3.435303	1.163912	-0.027425
 588	2.9350e-01	16.5477	103.118265	0.000505	5.051917	1.711636	-0.040331
 589	2.9400e-01	16.5172	102.904511	0.000536	5.355032	1.814334	-0.042751
 590	2.9450e-01	16.4771	102.448771	0.001142	11.417331	3.868297	-0.091148
 591	2.9500e-01	16.4338	102.247116	0.000505	5.051917	1.711636	-0.040331
 592	2.9550e-01	16.3937	102.097891	0.000374	3.738418	1.266610	-0.029845
 593	2.9600e-01	16.3519	101.900269	0.000495	4.950878	1.677403	-0.039524
 594	2.9650e-01	16.3006	101.718780	0.000455	4.546725	1.540472	-0.036298
 595	2.9700e-01	16.2749	101.460662	0.000647	6.466453	2.190894	-0.051624
 596	2.9750e-01	16.2364	101.198510	0.000657	6.567492	2.225126	-0.052430
 597	2.9800e-01	16.1931	101.025087	0.000434	4.344648	1.472007	-0.034685
 598	2.9850e-01	16.1642	100.476585	0.001374	13.741213	4.655649	-0.109700
 599	2.9900e-01	16.1065	100.270897	0.000515	5.152955	1.745868	-0.041138
 600	2.9950e-01	16.0728	100.190235	0.000202	2.020767	0.684654	-0.016132
 601	3.0000e-01	16.0375	100.016812	0.000434	4.344648	1.472007	-0.034685
 602	3.0050e-01	16.0038	99.980514	0.000091	0.909345	0.308094	-0.007260
 603	3.0100e-01	15.9637	99.690131	0.000727	7.274760	2.464755	-0.058077
 604	3.0150e-01	15.9188	99.480410	0.000525	5.253993	1.780101	-0.041944
 605	3.0200e-01	15.8771	99.052902	0.001071	10.710063	3.628668	-0.085502
 606	3.0250e-01	15.8386	98.839147	0.000536	5.355032	1.814334	-0.042751
 607	3.0300e-01	15.7937	98.794783	0.000111	1.111422	0.376560	-0.008873
 608	3.0350e-01	15.7568	98.407606	0.000970	9.699680	3.286340	-0.077435
 609	3.0400e-01	15.7199	98.282580	0.000313	3.132188	1.061214	-0.025005
 610	3.0450e-01	15.6718	98.068826	0.000536	5.355032	1.814334	-0.042751
 611	3.0500e-01	15.6316	97.863138	0.000515	5.152955	1.745868	-0.041138
 612	3.0550e-01	15.5931	97.717946	0.000364	3.637380	1.232378	-0.029038
 613	3.0600e-01	15.5530	97.342868	0.000940	9.396565	3.183642	-0.075016
 614	3.0650e-01	15.5161	97.229941	0.000283	2.829073	0.958516	-0.022585
 615	3.0700e-01	15.4712	96.927459	0.000758	7.577875	2.567454	-0.060496
 616	3.0750e-01	15.4375	96.842764	0.000212	2.121805	0.718887	-0.016939
 617	3.0800e-01	15.4071	96.560447	0.000707	7.072683	2.396290	-0.056463
 618	3.0850e-01	15.3493	96.366858	0.000485	4.849840	1.643170	-0.038718
 619	3.0900e-01	15.3220	96.036144	0.000829	8.285143	2.807082	-0.066143
 620	3.0950e-01	15.2739	95.761893	0.000687	6.870607	2.327825	-0.054850
 621	3.1000e-01	15.2386	95.390848	0.000930	9.295526	3.149410	-0.074209
 622	3.1050e-01	15.1969	95.177094	0.000536	5.355032	1.814334	-0.042751
 623	3.1100e-01	15.1664	94.874612	0.000758	7.577875	2.567454	-0.060496
 624	3.1150e-01	15.1183	94.761685	0.000283	2.829073	0.958516	-0.022585
 625	3.1200e-01	15.0734	94.543897	0.000546	5.456070	1.848567	-0.043557
 626	3.1250e-01	15.0381	94.568096	-0.000061	-0.606230	-0.205396	0.004840
 627	3.1300e-01	14.9900	94.289812	0.000697	6.971645	2.362057	-0.055657
 628	3.1350e-01	14.9402	94.124455	0.000414	4.142572	1.403541	-0.033071
 629	3.1400e-01	14.9129	93.813907	0.000778	7.779952	2.635919	-0.062110
 630	3.1450e-01	14.8777	93.600152	0.000536	5.355032	1.814334	-0.042751
 631	3.1500e-01	14.8375	93.128280	0.001182	11.821485	4.005227	-0.094375
 632	3.1550e-01	14.7958	92.793533	0.000839	8.386182	2.841315	-0.066949
 633	3.1600e-01	14.7525	92.797566	-0.000010	-0.101038	-0.034233	0.000807
 634	3.1650e-01	14.7204	92.515249	0.000707	7.072683	2.396290	-0.056463
 635	3.1700e-01	14.6787	92.321660	0.000485	4.849840	1.643170	-0.038718
 636	3.1750e-01	14.6370	91.946582	0.000940	9.396565	3.183642	-0.075016
 637	3.1800e-01	14.5969	91.825589	0.000303	3.031150	1.026981	-0.024199
 638	3.1850e-01	14.5504	91.442445	0.000960	9.598641	3.252108	-0.076629
 639	3.1900e-01	14.5151	91.357750	0.000212	2.121805	0.718887	-0.016939
 640	3.1950e-01	14.4766	91.143995	0.000536	5.355032	1.814334	-0.042751
 641	3.2000e-01	14.4349	90.873778	0.000677	6.769568	2.293592	-0.054044
 642	3.2050e-01	14.4044	90.603560	0.000677	6.769568	2.293592	-0.054044
 643	3.2100e-01	14.3595	90.381740	0.000556	5.557108	1.882799	-0.044364
 644	3.2150e-01	14.3162	90.252681	0.000323	3.233227	1.095447	-0.025812
 645	3.2200e-01	14.2713	89.881635	0.000930	9.295526	3.149410	-0.074209
 646	3.2250e-01	14.2328	89.881635	-0.000000	-0.000000	-0.000000	0.000000
 647	3.2300e-01	14.1975	89.361366	0.001303	13.033945	4.416020	-0.104054
 648	3.2350e-01	14.1638	89.276671	0.000212	2.121805	0.718887	-0.016939
 649	3.2400e-01	14.1124	89.119380	0.000394	3.940495	1.335076	-0.031458
 650	3.2450e-01	14.0755	88.772533	0.000869	8.689297	2.944013	-0.069369
 651	3.2500e-01	14.0370	88.623309	0.000374	3.738418	1.266610	-0.029845
 652	3.2550e-01	13.9921	88.357124	0.000667	6.668530	2.259359	-0.053237
 653	3.2600e-01	13.9568	88.078840	0.000697	6.971645	2.362057	-0.055657
 654	3.2650e-01	13.9183	87.675531	0.001010	10.103833	3.423271	-0.080662
 655	3.2700e-01	13.8766	87.655365	0.000051	0.505192	0.171164	-0.004033
 656	3.2750e-01	13.8429	87.542438	0.000283	2.829073	0.958516	-0.022585
 657	3.2800e-01	13.7948	87.159294	0.000960	9.598641	3.252108	-0.076629
 658	3.2850e-01	13.7659	86.844712	0.000788	7.880990	2.670152	-0.062916
 659	3.2900e-01	13.7082	86.747918	0.000242	2.424920	0.821585	-0.019359
 660	3.2950e-01	13.6665	86.445435	0.000758	7.577875	2.567454	-0.060496
 661	3.3000e-01	13.6264	86.195383	0.000626	6.264377	2.122428	-0.050010
 662	3.3050e-01	13.6055	86.058258	0.000344	3.435303	1.163912	-0.027425
 663	3.3100e-01	13.5590	85.546054	0.001283	12.831868	4.347555	-0.102441
 664	3.3150e-01	13.5173	85.392797	0.000384	3.839457	1.300843	-0.030652
 665	3.3200e-01	13.4707	85.316168	0.000192	1.919728	0.650422	-0.015326
 666	3.3250e-01	13.4371	85.255671	0.000152	1.515575	0.513491	-0.012099
 667	3.3300e-01	13.4002	84.860428	0.000990	9.901756	3.354806	-0.079049
 668	3.3350e-01	13.3552	84.493416	0.000919	9.194488	3.115177	-0.073402
 669	3.3400e-01	13.3119	84.299827	0.000485	4.849840	1.643170	-0.038718
 670	3.3450e-01	13.2766	84.086073	0.000536	5.355032	1.814334	-0.042751
 671	3.3500e-01	13.2317	83.799723	0.000717	7.173722	2.430523	-0.057270
 672	3.3550e-01	13.1996	83.803756	-0.000010	-0.101038	-0.034233	0.000807
 673	3.3600e-01	13.1563	83.412545	0.000980	9.800718	3.320573	-0.078242
 674	3.3650e-01	13.1162	83.017302	0.000990	9.901756	3.354806	-0.079049
 675	3.3700e-01	13.0761	82.928573	0.000222	2.222843	0.753120	-0.017746
 676	3.3750e-01	13.0216	82.775316	0.000384	3.839457	1.300843	-0.030652
 677	3.3800e-01	12.9991	82.525264	0.000626	6.264377	2.122428	-0.050010
 678	3.3850e-01	12.9558	82.367973	0.000394	3.940495	1.335076	-0.031458
 679	3.3900e-01	12.9189	81.577485	0.001980	19.803513	6.709612	-0.158097
 680	3.3950e-01	12.8772	81.654114	-0.000192	-1.919728	-0.650422	0.015326
 681	3.4000e-01	12.8323	81.218540	0.001091	10.912140	3.697133	-0.087115
 682	3.4050e-01	12.7905	81.359698	-0.000354	-3.536342	-1.198145	0.028232
 683	3.4100e-01	12.7601	81.004785	0.000889	8.891373	3.012479	-0.070983
 684	3.4150e-01	12.7184	80.657939	0.000869	8.689297	2.944013	-0.069369
 685	3.4200e-01	12.6670	80.464350	0.000485	4.849840	1.643170	-0.038718
 686	3.4250e-01	12.6381	80.315126	0.000374	3.738418	1.266610	-0.029845
 687	3.4300e-01	12.5948	79.843253	0.001182	11.821485	4.005227	-0.094375
 688	3.4350e-01	12.5627	79.774690	0.000172	1.717652	0.581956	-0.013713
 689	3.4400e-01	12.5162	79.391546	0.000960	9.598641	3.252108	-0.076629
 690	3.4450e-01	12.4825	79.173759	0.000546	5.456070	1.848567	-0.043557
 691	3.4500e-01	12.4328	78.887409	0.000717	7.173722	2.430523	-0.057270
 692	3.4550e-01	12.3975	78.830945	0.000141	1.414537	0.479258	-0.011293
 693	3.4600e-01	12.3574	78.508297	0.000808	8.083067	2.738617	-0.064530
 694	3.4650e-01	12.3189	78.306642	0.000505	5.051917	1.711636	-0.040331
 695	3.4700e-01	12.2724	78.113054	0.000485	4.849840	1.643170	-0.038718
 696	3.4750e-01	12.2387	77.806538	0.000768	7.678913	2.601686	-0.061303
 697	3.4800e-01	12.2050	77.608916	0.000495	4.950878	1.677403	-0.039524
 698	3.4850e-01	12.1537	77.427427	0.000455	4.546725	1.540472	-0.036298
 699	3.4900e-01	12.1232	77.116878	0.000778	7.779952	2.635919	-0.062110
 700	3.4950e-01	12.0735	77.068481	0.000121	1.212460	0.410793	-0.009679
 701	3.5000e-01	12.0350	76.624840	0.001111	11.114216	3.765598	-0.088728
 702	3.5050e-01	12.0013	76.423185	0.000505	5.051917	1.711636	-0.040331
 703	3.5100e-01	11.9547	76.298159	0.000313	3.132188	1.061214	-0.025005
 704	3.5150e-01	11.9114	75.826287	0.001182	11.821485	4.005227	-0.094375
 705	3.5200e-01	11.8745	75.717393	0.000273	2.728035	0.924283	-0.021779
 706	3.5250e-01	11.8408	75.374580	0.000859	8.588258	2.909781	-0.068563
 707	3.5300e-01	11.8039	75.019667	0.000889	8.891373	3.012479	-0.070983
 708	3.5350e-01	11.7654	74.870442	0.000374	3.738418	1.266610	-0.029845
 709	3.5400e-01	11.7157	74.459066	0.001031	10.305910	3.491737	-0.082275
 710	3.5450e-01	11.6852	74.309842	0.000374	3.738418	1.266610	-0.029845
 711	3.5500e-01	11.6371	74.269511	0.000101	1.010383	0.342327	-0.008066
 712	3.5550e-01	11.6034	73.942830	0.000818	8.184105	2.772850	-0.065336
 713	3.5600e-01	11.5585	73.640347	0.000758	7.577875	2.567454	-0.060496
 714	3.5650e-01	11.5120	73.426593	0.000536	5.355032	1.814334	-0.042751
 715	3.5700e-01	11.4767	73.216872	0.000525	5.253993	1.780101	-0.041944
 716	3.5750e-01	11.4302	72.938588	0.000697	6.971645	2.362057	-0.055657
 717	3.5800e-01	11.3901	72.761132	0.000445	4.445687	1.506239	-0.035491
 718	3.5850e-01	11.3564	72.414285	0.000869	8.689297	2.944013	-0.069369
 719	3.5900e-01	11.2986	72.103737	0.000778	7.779952	2.635919	-0.062110
 720	3.5950e-01	11.2762	71.902082	0.000505	5.051917	1.711636	-0.040331
 721	3.6000e-01	11.2344	71.603633	0.000748	7.476837	2.533221	-0.059690
 722	3.6050e-01	11.1959	71.252753	0.000879	8.790335	2.978246	-0.070176
 723	3.6100e-01	11.1671	71.192257	0.000152	1.515575	0.513491	-0.012099
 724	3.6150e-01	11.1125	70.889774	0.000758	7.577875	2.567454	-0.060496
 725	3.6200e-01	11.0869	70.615523	0.000687	6.870607	2.327825	-0.054850
 726	3.6250e-01	11.0387	70.361438	0.000637	6.365415	2.156661	-0.050817
 727	3.6300e-01	10.9986	70.268677	0.000232	2.323882	0.787352	-0.018552
 728	3.6350e-01	10.9537	69.728242	0.001354	13.539136	4.587184	-0.108087
 729	3.6400e-01	10.9168	69.494322	0.000586	5.860223	1.985497	-0.046784
 730	3.6450e-01	10.8815	69.413660	0.000202	2.020767	0.684654	-0.016132
 731	3.6500e-01	10.8350	69.183773	0.000576	5.759185	1.951265	-0.045977
 732	3.6550e-01	10.7917	68.800629	0.000960	9.598641	3.252108	-0.076629
 733	3.6600e-01	10.7548	68.550577	0.000626	6.264377	2.122428	-0.050010
 734	3.6650e-01	10.7227	68.183565	0.000919	9.194488	3.115177	-0.073402
 735	3.6700e-01	10.6714	67.969811	0.000536	5.355032	1.814334	-0.042751
 736	3.6750e-01	10.6409	67.824619	0.000364	3.637380	1.232378	-0.029038
 737	3.6800e-01	10.5976	67.639097	0.000465	4.647763	1.574705	-0.037105
 738	3.6850e-01	10.5526	67.453574	0.000465	4.647763	1.574705	-0.037105
 739	3.6900e-01	10.5093	67.074463	0.000950	9.497603	3.217875	-0.075822
 740	3.6950e-01	10.4740	66.808278	0.000667	6.668530	2.259359	-0.053237
 741	3.7000e-01	10.4355	66.719550	0.000222	2.222843	0.753120	-0.017746
 742	3.7050e-01	10.4051	66.300108	0.001051	10.507986	3.560202	-0.083888
 743	3.7100e-01	10.3585	66.106519	0.000485	4.849840	1.643170	-0.038718
 744	3.7150e-01	10.3168	65.884699	0.000556	5.557108	1.882799	-0.044364
 745	3.7200e-01	10.2799	65.711276	0.000434	4.344648	1.472007	-0.034685
 746	3.7250e-01	10.2334	65.356363	0.000889	8.891373	3.012479	-0.070983
 747	3.7300e-01	10.1981	65.070013	0.000717	7.173722	2.430523	-0.057270
 748	3.7350e-01	10.1548	65.001450	0.000172	1.717652	0.581956	-0.013713
 749	3.7400e-01	10.1195	64.598140	0.001010	10.103833	3.423271	-0.080662
 750	3.7450e-01	10.0730	64.340022	0.000647	6.466453	2.190894	-0.051624
 751	3.7500e-01	10.0281	64.089970	0.000626	6.264377	2.122428	-0.050010
 752	3.7550e-01	9.9896	63.561634	0.001324	13.236021	4.484485	-0.105667
 753	3.7600e-01	9.9527	63.412409	0.000374	3.738418	1.266610	-0.029845
 754	3.7650e-01	9.9142	63.327714	0.000212	2.121805	0.718887	-0.016939
 755	3.7700e-01	9.8724	63.170423	0.000394	3.940495	1.335076	-0.031458
 756	3.7750e-01	9.8372	63.069596	0.000253	2.525958	0.855818	-0.020165
 757	3.7800e-01	9.8019	62.573525	0.001243	12.427715	4.210624	-0.099214
 758	3.7850e-01	9.7489	62.388002	0.000465	4.647763	1.574705	-0.037105
 759	3.7900e-01	9.7104	62.101652	0.000717	7.173722	2.430523	-0.057270
 760	3.7950e-01	9.6783	61.827402	0.000687	6.870607	2.327825	-0.054850
 761	3.8000e-01	9.6430	61.637846	0.000475	4.748802	1.608938	-0.037911
 762	3.8050e-01	9.5997	61.331330	0.000768	7.678913	2.601686	-0.061303
 763	3.8100e-01	9.5516	60.984484	0.000869	8.689297	2.944013	-0.069369
 764	3.8150e-01	9.5227	60.944153	0.000101	1.010383	0.342327	-0.008066
 765	3.8200e-01	9.4714	60.589240	0.000889	8.891373	3.012479	-0.070983
 766	3.8250e-01	9.4409	60.375486	0.000536	5.355032	1.814334	-0.042751
 767	3.8300e-01	9.3992	60.008474	0.000919	9.194488	3.115177	-0.073402
 768	3.8350e-01	9.3623	59.818918	0.000475	4.748802	1.608938	-0.037911
 769	3.8400e-01	9.3110	59.601131	0.000546	5.456070	1.848567	-0.043557
 770	3.8450e-01	9.2773	59.096994	0.001263	12.629791	4.279089	-0.100827
 771	3.8500e-01	9.2179	59.149424	-0.000131	-1.313498	-0.445025	0.010486
 772	3.8550e-01	9.2019	58.734015	0.001041	10.406948	3.525969	-0.083082
 773	3.8600e-01	9.1554	58.419433	0.000788	7.880990	2.670152	-0.062916
 774	3.8650e-01	9.1185	58.326672	0.000232	2.323882	0.787352	-0.018552
 775	3.8700e-01	9.0751	57.955627	0.000930	9.295526	3.149410	-0.074209
 776	3.8750e-01	9.0366	57.612814	0.000859	8.588258	2.909781	-0.068563
 777	3.8800e-01	8.9965	57.370828	0.000606	6.062300	2.053963	-0.048397
 778	3.8850e-01	8.9436	57.153040	0.000546	5.456070	1.848567	-0.043557
 779	3.8900e-01	8.9195	56.943319	0.000525	5.253993	1.780101	-0.041944
 780	3.8950e-01	8.8842	56.693267	0.000626	6.264377	2.122428	-0.050010
 781	3.9000e-01	8.8441	56.511778	0.000455	4.546725	1.540472	-0.036298
 782	3.9050e-01	8.8056	56.342387	0.000424	4.243610	1.437774	-0.033878
 783	3.9100e-01	8.7639	55.689026	0.001637	16.368210	5.545700	-0.130672
 784	3.9150e-01	8.7110	55.455106	0.000586	5.860223	1.985497	-0.046784
 785	3.9200e-01	8.6821	55.354278	0.000253	2.525958	0.855818	-0.020165
 786	3.9250e-01	8.6420	55.003399	0.000879	8.790335	2.978246	-0.070176
 787	3.9300e-01	8.5987	54.688817	0.000788	7.880990	2.670152	-0.062916
 788	3.9350e-01	8.5602	54.680751	0.000020	0.202077	0.068465	-0.001613
 789	3.9400e-01	8.5105	54.422633	0.000647	6.466453	2.190894	-0.051624
 790	3.9450e-01	8.4816	53.853966	0.001425	14.246405	4.826813	-0.113733
 791	3.9500e-01	8.4335	53.866065	-0.000030	-0.303115	-0.102698	0.002420
 792	3.9550e-01	8.3950	53.511152	0.000889	8.891373	3.012479	-0.070983
 793	3.9600e-01	8.3548	53.188504	0.000808	8.083067	2.738617	-0.064530
 794	3.9650e-01	8.3179	53.111875	0.000192	1.919728	0.650422	-0.015326
 795	3.9700e-01	8.2827	52.760996	0.000879	8.790335	2.978246	-0.070176
 796	3.9750e-01	8.2313	52.466580	0.000738	7.375798	2.498988	-0.058883
 797	3.9800e-01	8.1960	52.180230	0.000717	7.173722	2.430523	-0.057270
 798	3.9850e-01	8.1639	52.039071	0.000354	3.536342	1.198145	-0.028232
 799	3.9900e-01	8.1222	51.623662	0.001041	10.406948	3.525969	-0.083082
 800	3.9950e-01	8.0709	51.228418	0.000990	9.901756	3.354806	-0.079049
 801	4.0000e-01	8.0372	51.272783	-0.000111	-1.111422	-0.376560	0.008873
 802	4.0050e-01	7.9955	50.938035	0.000839	8.386182	2.841315	-0.066949
 803	4.0100e-01	7.9522	50.692016	0.000616	6.163338	2.088196	-0.049204
 804	4.0150e-01	7.9249	50.147548	0.001364	13.640175	4.621416	-0.108894
 805	4.0200e-01	7.8768	50.135449	0.000030	0.303115	0.102698	-0.002420
 806	4.0250e-01	7.8431	49.643411	0.001233	12.326676	4.176391	-0.098408
 807	4.0300e-01	7.8030	49.542583	0.000253	2.525958	0.855818	-0.020165
 808	4.0350e-01	7.7468	49.397392	0.000364	3.637380	1.232378	-0.029038
 809	4.0400e-01	7.7083	49.312697	0.000212	2.121805	0.718887	-0.016939
 810	4.0450e-01	7.6698	48.808559	0.001263	12.629791	4.279089	-0.100827
 811	4.0500e-01	7.6297	48.598838	0.000525	5.253993	1.780101	-0.041944
 812	4.0550e-01	7.5944	48.014039	0.001465	14.650558	4.963743	-0.116960
 813	4.0600e-01	7.5607	47.848682	0.000414	4.142572	1.403541	-0.033071
 814	4.0650e-01	7.5190	47.800285	0.000121	1.212460	0.410793	-0.009679
 815	4.0700e-01	7.4837	47.384875	0.001041	10.406948	3.525969	-0.083082
 816	4.0750e-01	7.4420	46.989632	0.000990	9.901756	3.354806	-0.079049
 817	4.0800e-01	7.4003	46.884771	0.000263	2.626997	0.890051	-0.020972
 818	4.0850e-01	7.3618	46.691183	0.000485	4.849840	1.643170	-0.038718
 819	4.0900e-01	7.3089	46.594388	0.000242	2.424920	0.821585	-0.019359
 820	4.0950e-01	7.2736	46.247542	0.000869	8.689297	2.944013	-0.069369
 821	4.1000e-01	7.2287	45.787768	0.001152	11.518370	3.902529	-0.091955
 822	4.1050e-01	7.1950	45.610312	0.000445	4.445687	1.506239	-0.035491
 823	4.1100e-01	7.1501	45.388492	0.000556	5.557108	1.882799	-0.044364
 824	4.1150e-01	7.1180	44.969049	0.001051	10.507986	3.560202	-0.083888
 825	4.1200e-01	7.0811	44.464912	0.001263	12.629791	4.279089	-0.100827
 826	4.1250e-01	7.0330	44.347952	0.000293	2.930112	0.992749	-0.023392
 827	4.1300e-01	6.9977	44.118066	0.000576	5.759185	1.951265	-0.045977
 828	4.1350e-01	6.9560	43.847848	0.000677	6.769568	2.293592	-0.054044
 829	4.1400e-01	6.9239	43.714756	0.000333	3.334265	1.129680	-0.026618
 830	4.1450e-01	6.8757	43.436472	0.000697	6.971645	2.362057	-0.055657
 831	4.1500e-01	6.8324	43.061394	0.000940	9.396565	3.183642	-0.075016
 832	4.1550e-01	6.7939	42.819408	0.000606	6.062300	2.053963	-0.048397
 833	4.1600e-01	6.7474	42.734713	0.000212	2.121805	0.718887	-0.016939
 834	4.1650e-01	6.7105	42.379800	0.000889	8.891373	3.012479	-0.070983
 835	4.1700e-01	6.6736	42.085384	0.000738	7.375798	2.498988	-0.058883
 836	4.1750e-01	6.6239	41.984556	0.000253	2.525958	0.855818	-0.020165
 837	4.1800e-01	6.5966	41.674008	0.000778	7.779952	2.635919	-0.062110
 838	4.1850e-01	6.5517	41.367492	0.000768	7.678913	2.601686	-0.061303
 839	4.1900e-01	6.5164	40.867388	0.001253	12.528753	4.244856	-0.100021
 840	4.1950e-01	6.4747	40.383416	0.001212	12.124600	4.107926	-0.096794
 841	4.2000e-01	6.4282	40.343085	0.000101	1.010383	0.342327	-0.008066
 842	4.2050e-01	6.3881	40.072868	0.000677	6.769568	2.293592	-0.054044
 843	4.2100e-01	6.3592	39.818783	0.000637	6.365415	2.156661	-0.050817
 844	4.2150e-01	6.3127	39.826849	-0.000020	-0.202077	-0.068465	0.001613
 845	4.2200e-01	6.2854	39.423539	0.001010	10.103833	3.423271	-0.080662
 846	4.2250e-01	6.2357	39.141222	0.000707	7.072683	2.396290	-0.056463
 847	4.2300e-01	6.2020	38.866971	0.000687	6.870607	2.327825	-0.054850
 848	4.2350e-01	6.1619	38.697581	0.000424	4.243610	1.437774	-0.033878
 849	4.2400e-01	6.1234	38.290238	0.001020	10.204871	3.457504	-0.081469
 850	4.2450e-01	6.0816	38.080517	0.000525	5.253993	1.780101	-0.041944
 851	4.2500e-01	6.0399	37.838531	0.000606	6.062300	2.053963	-0.048397
 852	4.2550e-01	6.0030	37.507817	0.000829	8.285143	2.807082	-0.066143
 853	4.2600e-01	5.9549	37.374725	0.000333	3.334265	1.129680	-0.026618
 854	4.2650e-01	5.9164	36.898819	0.001192	11.922523	4.039460	-0.095181
 855	4.2700e-01	5.8763	36.539873	0.000899	8.992412	3.046711	-0.071789
 856	4.2750e-01	5.8410	36.140597	0.001000	10.002795	3.389039	-0.079855
 857	4.2800e-01	5.7961	36.176894	-0.000091	-0.909345	-0.308094	0.007260
 858	4.2850e-01	5.7560	35.781651	0.000990	9.901756	3.354806	-0.079049
 859	4.2900e-01	5.7111	35.773585	0.000020	0.202077	0.068465	-0.001613
 860	4.2950e-01	5.6710	35.527566	0.000616	6.163338	2.088196	-0.049204
 861	4.3000e-01	5.6405	35.156521	0.000930	9.295526	3.149410	-0.074209
 862	4.3050e-01	5.6036	34.777409	0.000950	9.497603	3.217875	-0.075822
 863	4.3100e-01	5.5539	34.499125	0.000697	6.971645	2.362057	-0.055657
 864	4.3150e-01	5.5170	34.184544	0.000788	7.880990	2.670152	-0.062916
 865	4.3200e-01	5.4736	34.111948	0.000182	1.818690	0.616189	-0.014519
 866	4.3250e-01	5.4351	33.744936	0.000919	9.194488	3.115177	-0.073402
 867	4.3300e-01	5.4047	33.446487	0.000748	7.476837	2.533221	-0.059690
 868	4.3350e-01	5.3630	33.212567	0.000586	5.860223	1.985497	-0.046784
 869	4.3400e-01	5.3180	32.922184	0.000727	7.274760	2.464755	-0.058077
 870	4.3450e-01	5.2715	32.716496	0.000515	5.152955	1.745868	-0.041138
 871	4.3500e-01	5.2346	32.272855	0.001111	11.114216	3.765598	-0.088728
 872	4.3550e-01	5.1913	32.107498	0.000414	4.142572	1.403541	-0.033071
 873	4.3600e-01	5.1640	31.776784	0.000829	8.285143	2.807082	-0.066143
 874	4.3650e-01	5.1207	31.522699	0.000637	6.365415	2.156661	-0.050817
 875	4.3700e-01	5.0662	31.288779	0.000586	5.860223	1.985497	-0.046784
 876	4.3750e-01	5.0325	31.046793	0.000606	6.062300	2.053963	-0.048397
 877	4.3800e-01	4.9988	30.603152	0.001111	11.114216	3.765598	-0.088728
 878	4.3850e-01	4.9571	30.369232	0.000586	5.860223	1.985497	-0.046784
 879	4.3900e-01	4.9122	30.308736	0.000152	1.515575	0.513491	-0.012099
 880	4.3950e-01	4.8865	29.990121	0.000798	7.982028	2.704384	-0.063723
 881	4.4000e-01	4.8448	29.538414	0.001132	11.316293	3.834064	-0.090341
 882	4.4050e-01	4.8015	29.106873	0.001081	10.811101	3.662900	-0.086308
 883	4.4100e-01	4.7566	29.066542	0.000101	1.010383	0.342327	-0.008066
 884	4.4150e-01	4.7148	28.687430	0.000950	9.497603	3.217875	-0.075822
 885	4.4200e-01	4.6731	28.368816	0.000798	7.982028	2.704384	-0.063723
 886	4.4250e-01	4.6298	28.388981	-0.000051	-0.505192	-0.171164	0.004033
 887	4.4300e-01	4.5865	27.905009	0.001212	12.124600	4.107926	-0.096794
 888	4.4350e-01	4.5576	27.638825	0.000667	6.668530	2.259359	-0.053237
 889	4.4400e-01	4.5111	27.320210	0.000798	7.982028	2.704384	-0.063723
 890	4.4450e-01	4.4710	27.271813	0.000121	1.212460	0.410793	-0.009679
 891	4.4500e-01	4.4309	26.860437	0.001031	10.305910	3.491737	-0.082275
 892	4.4550e-01	4.3972	26.412763	0.001122	11.215255	3.799831	-0.089535
 893	4.4600e-01	4.3555	26.315968	0.000242	2.424920	0.821585	-0.019359
 894	4.4650e-01	4.3154	25.989287	0.000818	8.184105	2.772850	-0.065336
 895	4.4700e-01	4.2753	25.715037	0.000687	6.870607	2.327825	-0.054850
 896	4.4750e-01	4.2400	25.372223	0.000859	8.588258	2.909781	-0.068563
 897	4.4800e-01	4.1951	25.122171	0.000626	6.264377	2.122428	-0.050010
 898	4.4850e-01	4.1646	24.908417	0.000536	5.355032	1.814334	-0.042751
 899	4.4900e-01	4.1133	24.452677	0.001142	11.417331	3.868297	-0.091148
 900	4.4950e-01	4.0748	24.105830	0.000869	8.689297	2.944013	-0.069369
 901	4.5000e-01	4.0362	23.811414	0.000738	7.375798	2.498988	-0.058883
 902	4.5050e-01	3.9977	23.827547	-0.000040	-0.404153	-0.136931	0.003226
 903	4.5100e-01	3.9609	23.521031	0.000768	7.678913	2.601686	-0.061303
 904	4.5150e-01	3.9175	23.287111	0.000586	5.860223	1.985497	-0.046784
 905	4.5200e-01	3.8758	22.912033	0.000940	9.396565	3.183642	-0.075016
 906	4.5250e-01	3.8325	22.702312	0.000525	5.253993	1.780101	-0.041944
 907	4.5300e-01	3.7908	22.444194	0.000647	6.466453	2.190894	-0.051624
 908	4.5350e-01	3.7587	21.944089	0.001253	12.528753	4.244856	-0.100021
 909	4.5400e-01	3.7218	21.637574	0.000768	7.678913	2.601686	-0.061303
 910	4.5450e-01	3.6769	21.375423	0.000657	6.567492	2.225126	-0.052430
 911	4.5500e-01	3.6400	21.226198	0.000374	3.738418	1.266610	-0.029845
 912	4.5550e-01	3.5999	20.851120	0.000940	9.396565	3.183642	-0.075016
 913	4.5600e-01	3.5598	20.617200	0.000586	5.860223	1.985497	-0.046784
 914	4.5650e-01	3.5197	20.306651	0.000778	7.779952	2.635919	-0.062110
 915	4.5700e-01	3.4780	20.044500	0.000657	6.567492	2.225126	-0.052430
 916	4.5750e-01	3.4331	19.891242	0.000384	3.839457	1.300843	-0.030652
 917	4.5800e-01	3.3913	19.681521	0.000525	5.253993	1.780101	-0.041944
 918	4.5850e-01	3.3625	19.205616	0.001192	11.922523	4.039460	-0.095181
 919	4.5900e-01	3.3176	18.999928	0.000515	5.152955	1.745868	-0.041138
 920	4.5950e-01	3.2774	18.616783	0.000960	9.598641	3.252108	-0.076629
 921	4.6000e-01	3.2373	18.298168	0.000798	7.982028	2.704384	-0.063723
 922	4.6050e-01	3.1988	18.060216	0.000596	5.961262	2.019730	-0.047591
 923	4.6100e-01	3.1635	17.810163	0.000626	6.264377	2.122428	-0.050010
 924	4.6150e-01	3.1186	17.427019	0.000960	9.598641	3.252108	-0.076629
 925	4.6200e-01	3.0689	17.269728	0.000394	3.940495	1.335076	-0.031458
 926	4.6250e-01	3.0336	17.031775	0.000596	5.961262	2.019730	-0.047591
 927	4.6300e-01	2.9983	16.523605	0.001273	12.730830	4.313322	-0.101634
 928	4.6350e-01	2.9550	16.217089	0.000768	7.678913	2.601686	-0.061303
 929	4.6400e-01	2.9149	16.152560	0.000162	1.616613	0.547723	-0.012906
 930	4.6450e-01	2.8844	15.898475	0.000637	6.365415	2.156661	-0.050817
 931	4.6500e-01	2.8347	15.648423	0.000626	6.264377	2.122428	-0.050010
 932	4.6550e-01	2.7994	15.358039	0.000727	7.274760	2.464755	-0.058077
 933	4.6600e-01	2.7529	14.833737	0.001313	13.134983	4.450253	-0.104861
 934	4.6650e-01	2.7176	14.688545	0.000364	3.637380	1.232378	-0.029038
 935	4.6700e-01	2.6759	14.555453	0.000333	3.334265	1.129680	-0.026618
 936	4.6750e-01	2.6358	14.216673	0.000849	8.487220	2.875548	-0.067756
 937	4.6800e-01	2.6005	13.986786	0.000576	5.759185	1.951265	-0.045977
 938	4.6850e-01	2.5539	13.611708	0.000940	9.396565	3.183642	-0.075016
 939	4.6900e-01	2.5154	13.248729	0.000909	9.093450	3.080944	-0.072596
 940	4.6950e-01	2.4753	13.087405	0.000404	4.041533	1.369309	-0.032265
 941	4.7000e-01	2.4336	12.663930	0.001061	10.609025	3.594435	-0.084695
 942	4.7050e-01	2.3967	12.409844	0.000637	6.365415	2.156661	-0.050817
 943	4.7100e-01	2.3614	12.216256	0.000485	4.849840	1.643170	-0.038718
 944	4.7150e-01	2.3133	11.962170	0.000637	6.365415	2.156661	-0.050817
 945	4.7200e-01	2.2700	11.905707	0.000141	1.414537	0.479258	-0.011293
 946	4.7250e-01	2.2363	11.381404	0.001313	13.134983	4.450253	-0.104861
 947	4.7300e-01	2.1962	11.111187	0.000677	6.769568	2.293592	-0.054044
 948	4.7350e-01	2.1561	10.748208	0.000909	9.093450	3.080944	-0.072596
 949	4.7400e-01	2.1160	10.502189	0.000616	6.163338	2.088196	-0.049204
 950	4.7450e-01	2.0775	10.240037	0.000657	6.567492	2.225126	-0.052430
 951	4.7500e-01	2.0358	9.832694	0.001020	10.204871	3.457504	-0.081469
 952	4.7550e-01	1.9989	9.667337	0.000414	4.142572	1.403541	-0.033071
 953	4.7600e-01	1.9507	9.320491	0.000869	8.689297	2.944013	-0.069369
 954	4.7650e-01	1.9155	8.921214	0.001000	10.002795	3.389039	-0.079855
 955	4.7700e-01	1.8753	8.804254	0.000293	2.930112	0.992749	-0.023392
 956	4.7750e-01	1.8449	8.594533	0.000525	5.253993	1.780101	-0.041944
 957	4.7800e-01	1.7951	8.409011	0.000465	4.647763	1.574705	-0.037105
 958	4.7850e-01	1.7486	8.025866	0.000960	9.598641	3.252108	-0.076629
 959	4.7900e-01	1.7101	7.759682	0.000667	6.668530	2.259359	-0.053237
 960	4.7950e-01	1.6716	7.340239	0.001051	10.507986	3.560202	-0.083888
 961	4.8000e-01	1.6347	6.815937	0.001313	13.134983	4.450253	-0.104861
 962	4.8050e-01	1.6026	6.711076	0.000263	2.626997	0.890051	-0.020972
 963	4.8100e-01	1.5577	6.392461	0.000798	7.982028	2.704384	-0.063723
 964	4.8150e-01	1.5240	6.239204	0.000384	3.839457	1.300843	-0.030652
 965	4.8200e-01	1.4695	5.819761	0.001051	10.507986	3.560202	-0.083888
 966	4.8250e-01	1.4326	5.589875	0.000576	5.759185	1.951265	-0.045977
 967	4.8300e-01	1.4005	5.485014	0.000263	2.626997	0.890051	-0.020972
 968	4.8350e-01	1.3604	5.081704	0.001010	10.103833	3.423271	-0.080662
 969	4.8400e-01	1.3058	4.912314	0.000424	4.243610	1.437774	-0.033878
 970	4.8450e-01	1.2786	4.440442	0.001182	11.821485	4.005227	-0.094375
 971	4.8500e-01	1.2385	4.182323	0.000647	6.466453	2.190894	-0.051624
 972	4.8550e-01	1.1919	4.012933	0.000424	4.243610	1.437774	-0.033878
 973	4.8600e-01	1.1486	3.609623	0.001010	10.103833	3.423271	-0.080662
 974	4.8650e-01	1.1133	3.641888	-0.000081	-0.808307	-0.273862	0.006453
 975	4.8700e-01	1.0764	3.182115	0.001152	11.518370	3.902529	-0.091955
 976	4.8750e-01	1.0347	2.677977	0.001263	12.629791	4.279089	-0.100827
 977	4.8800e-01	0.9962	2.528753	0.000374	3.738418	1.266610	-0.029845
 978	4.8850e-01	0.9577	2.238370	0.000727	7.274760	2.464755	-0.058077
 979	4.8900e-01	0.9208	2.032682	0.000515	5.152955	1.745868	-0.041138
 980	4.8950e-01	0.8679	1.706001	0.000818	8.184105	2.772850	-0.065336
 981	4.9000e-01	0.8342	1.504346	0.000505	5.051917	1.711636	-0.040331
 982	4.9050e-01	0.7957	1.286558	0.000546	5.456070	1.848567	-0.043557
 983	4.9100e-01	0.7508	0.935679	0.000879	8.790335	2.978246	-0.070176
 984	4.9150e-01	0.7171	0.645296	0.000727	7.274760	2.464755	-0.058077
 985	4.9200e-01	0.6674	0.322648	0.000808	8.083067	2.738617	-0.064530
 986	4.9250e-01	0.6369	0.088728	0.000586	5.860223	1.985497	-0.046784
 987	4.9300e-01	0.5920	-0.072596	0.000404	4.041533	1.369309	-0.032265
 988	4.9350e-01	0.5519	-0.383144	0.000778	7.779952	2.635919	-0.062110
 989	4.9400e-01	0.5262	-0.855017	0.001182	11.821485	4.005227	-0.094375
 990	4.9450e-01	0.4652	-1.084904	0.000576	5.759185	1.951265	-0.045977
 991	4.9500e-01	0.4347	-1.367220	0.000707	7.072683	2.396290	-0.056463
 992	4.9550e-01	0.3930	-1.742299	0.000940	9.396565	3.183642	-0.075016
 993	4.9600e-01	0.3497	-1.875391	0.000333	3.334265	1.129680	-0.026618
 994	4.9650e-01	0.3208	-2.230304	0.000889	8.891373	3.012479	-0.070983
 995	4.9700e-01	0.2727	-2.698143	0.001172	11.720446	3.970995	-0.093568
 996	4.9750e-01	0.2342	-2.831235	0.000333	3.334265	1.129680	-0.026618
 997	4.9800e-01	0.1989	-3.049023	0.000546	5.456070	1.848567	-0.043557
 998	4.9850e-01	0.1588	-3.504763	0.001142	11.417331	3.868297	-0.091148
 999	4.9900e-01	0.1123	-3.508796	0.000010	0.101038	0.034233	-0.000807
1000	4.9950e-01	0.0722	-4.085529	0.001445	14.448481	4.895278	-0.115347
1001	5.0000e-01	0.0465	-4.480773	0.000990	9.901756	3.354806	-0.079049
1002	5.0050e-01	0.0016	-4.533203	0.000131	1.313498	0.445025	-0.010486
1003	5.0100e-01	-0.0401	-4.666295	0.000333	3.334265	1.129680	-0.026618
1004	5.0150e-01	-0.0754	-5.005075	0.000849	8.487220	2.875548	-0.067756
1005	5.0200e-01	-0.1219	-5.420485	0.001041	10.406948	3.525969	-0.083082
1006	5.0250e-01	-0.1620	-5.739099	0.000798	7.982028	2.704384	-0.063723
1007	5.0300e-01	-0.1973	-5.944787	0.000515	5.152955	1.745868	-0.041138
1008	5.0350e-01	-0.2406	-6.251303	0.000768	7.678913	2.601686	-0.061303
1009	5.0400e-01	-0.2775	-6.432792	0.000455	4.546725	1.540472	-0.036298
1010	5.0450e-01	-0.3112	-6.690911	0.000647	6.466453	2.190894	-0.051624
1011	5.0500e-01	-0.3577	-6.864334	0.000434	4.344648	1.472007	-0.034685
1012	5.0550e-01	-0.3946	-7.416868	0.001384	13.842251	4.689882	-0.110507
1013	5.0600e-01	-0.4364	-7.699185	0.000707	7.072683	2.396290	-0.056463
1014	5.0650e-01	-0.4765	-7.904873	0.000515	5.152955	1.745868	-0.041138
1015	5.0700e-01	-0.5118	-8.223488	0.000798	7.982028	2.704384	-0.063723
1016	5.0750e-01	-0.5583	-8.207356	-0.000040	-0.404153	-0.136931	0.003226
1017	5.0800e-01	-0.6048	-8.683261	0.001192	11.922523	4.039460	-0.095181
1018	5.0850e-01	-0.6401	-8.848618	0.000414	4.142572	1.403541	-0.033071
1019	5.0900e-01	-0.6834	-9.308392	0.001152	11.518370	3.902529	-0.091955
1020	5.0950e-01	-0.7155	-9.683470	0.000940	9.396565	3.183642	-0.075016
1021	5.1000e-01	-0.7620	-9.860926	0.000445	4.445687	1.506239	-0.035491
1022	5.1050e-01	-0.7925	-10.231971	0.000930	9.295526	3.149410	-0.074209
1023	5.1100e-01	-0.8502	-10.486056	0.000637	6.365415	2.156661	-0.050817
1024	5.1150e-01	-0.8679	-10.635281	0.000374	3.738418	1.266610	-0.029845
1025	5.1200e-01	-0.9256	-10.953896	0.000798	7.982028	2.704384	-0.063723
1026	5.1250e-01	-0.9561	-11.316875	0.000909	9.093450	3.080944	-0.072596
1027	5.1300e-01	-0.9978	-11.534662	0.000546	5.456070	1.848567	-0.043557
1028	5.1350e-01	-1.0411	-11.869409	0.000839	8.386182	2.841315	-0.066949
1029	5.1400e-01	-1.0732	-12.313050	0.001111	11.114216	3.765598	-0.088728
1030	5.1450e-01	-1.1085	-12.563102	0.000626	6.264377	2.122428	-0.050010
1031	5.1500e-01	-1.1567	-12.631665	0.000172	1.717652	0.581956	-0.013713
1032	5.1550e-01	-1.1968	-12.885750	0.000637	6.365415	2.156661	-0.050817
1033	5.1600e-01	-1.2401	-13.280994	0.000990	9.901756	3.354806	-0.079049
1034	5.1650e-01	-1.2754	-13.539112	0.000647	6.466453	2.190894	-0.051624
1035	5.1700e-01	-1.3171	-13.833528	0.000738	7.375798	2.498988	-0.058883
1036	5.1750e-01	-1.3620	-14.055349	0.000556	5.557108	1.882799	-0.044364
1037	5.1800e-01	-1.4005	-14.321533	0.000667	6.668530	2.259359	-0.053237
1038	5.1850e-01	-1.4374	-14.652247	0.000829	8.285143	2.807082	-0.066143
1039	5.1900e-01	-1.4807	-14.825670	0.000434	4.344648	1.472007	-0.034685
1040	5.1950e-01	-1.5176	-15.321742	0.001243	12.427715	4.210624	-0.099214
1041	5.2000e-01	-1.5545	-15.507264	0.000465	4.647763	1.574705	-0.037105
1042	5.2050e-01	-1.5898	-15.821846	0.000788	7.880990	2.670152	-0.062916
1043	5.2100e-01	-1.6315	-16.120295	0.000748	7.476837	2.533221	-0.059690
1044	5.2150e-01	-1.6796	-15.983170	-0.000344	-3.435303	-1.163912	0.027425
1045	5.2200e-01	-1.7149	-16.414711	0.001081	10.811101	3.662900	-0.086308
1046	5.2250e-01	-1.7614	-16.745425	0.000829	8.285143	2.807082	-0.066143
1047	5.2300e-01	-1.7983	-16.983378	0.000596	5.961262	2.019730	-0.047591
1048	5.2350e-01	-1.8401	-17.306026	0.000808	8.083067	2.738617	-0.064530
1049	5.2400e-01	-1.8770	-17.802097	0.001243	12.427715	4.210624	-0.099214
1050	5.2450e-01	-1.9187	-18.084414	0.000707	7.072683	2.396290	-0.056463
1051	5.2500e-01	-1.9604	-18.439327	0.000889	8.891373	3.012479	-0.070983
1052	5.2550e-01	-2.0005	-18.761975	0.000808	8.083067	2.738617	-0.064530
1053	5.2600e-01	-2.0390	-18.951530	0.000475	4.748802	1.608938	-0.037911
1054	5.2650e-01	-2.0711	-19.141086	0.000475	4.748802	1.608938	-0.037911
1055	5.2700e-01	-2.1224	-19.241913	0.000253	2.525958	0.855818	-0.020165
1056	5.2750e-01	-2.1545	-19.516164	0.000687	6.870607	2.327825	-0.054850
1057	5.2800e-01	-2.1914	-19.826713	0.000778	7.779952	2.635919	-0.062110
1058	5.2850e-01	-2.2379	-20.230023	0.001010	10.103833	3.423271	-0.080662
1059	5.2900e-01	-2.2812	-20.375214	0.000364	3.637380	1.232378	-0.029038
1060	5.2950e-01	-2.3245	-20.484108	0.000273	2.728035	0.924283	-0.021779
1061	5.3000e-01	-2.3502	-20.887418	0.001010	10.103833	3.423271	-0.080662
1062	5.3050e-01	-2.4015	-21.101172	0.000536	5.355032	1.814334	-0.042751
1063	5.3100e-01	-2.4320	-21.464151	0.000909	9.093450	3.080944	-0.072596
1064	5.3150e-01	-2.4866	-21.778732	0.000788	7.880990	2.670152	-0.062916
1065	5.3200e-01	-2.5235	-22.052983	0.000687	6.870607	2.327825	-0.054850
1066	5.3250e-01	-2.5571	-22.476459	0.001061	10.609025	3.594435	-0.084695
1067	5.3300e-01	-2.6037	-22.722478	0.000616	6.163338	2.088196	-0.049204
1068	5.3350e-01	-2.6390	-22.867669	0.000364	3.637380	1.232378	-0.029038
1069	5.3400e-01	-2.6823	-23.133854	0.000667	6.668530	2.259359	-0.053237
1070	5.3450e-01	-2.7176	-23.581528	0.001122	11.215255	3.799831	-0.089535
1071	5.3500e-01	-2.7577	-23.823513	0.000606	6.062300	2.053963	-0.048397
1072	5.3550e-01	-2.8042	-23.980804	0.000394	3.940495	1.335076	-0.031458
1073	5.3600e-01	-2.8379	-24.311518	0.000829	8.285143	2.807082	-0.066143
1074	5.3650e-01	-2.8780	-24.726928	0.001041	10.406948	3.525969	-0.083082
1075	5.3700e-01	-2.9213	-24.948748	0.000556	5.557108	1.882799	-0.044364
1076	5.3750e-01	-2.9550	-25.122171	0.000434	4.344648	1.472007	-0.034685
1077	5.3800e-01	-3.0031	-25.384323	0.000657	6.567492	2.225126	-0.052430
1078	5.3850e-01	-3.0448	-25.706970	0.000808	8.083067	2.738617	-0.064530
1079	5.3900e-01	-3.0721	-26.009453	0.000758	7.577875	2.567454	-0.060496
1080	5.3950e-01	-3.1250	-26.436961	0.001071	10.710063	3.628668	-0.085502
1081	5.4000e-01	-3.1684	-26.400663	-0.000091	-0.909345	-0.308094	0.007260
1082	5.4050e-01	-3.1956	-26.868503	0.001172	11.720446	3.970995	-0.093568
1083	5.4100e-01	-3.2438	-27.078224	0.000525	5.253993	1.780101	-0.041944
1084	5.4150e-01	-3.2726	-27.360541	0.000707	7.072683	2.396290	-0.056463
1085	5.4200e-01	-3.3127	-27.473468	0.000283	2.829073	0.958516	-0.022585
1086	5.4250e-01	-3.3528	-27.691255	0.000546	5.456070	1.848567	-0.043557
1087	5.4300e-01	-3.3946	-28.130863	0.001101	11.013178	3.731366	-0.087922
1088	5.4350e-01	-3.4427	-28.393014	0.000657	6.567492	2.225126	-0.052430
1089	5.4400e-01	-3.4716	-28.699530	0.000768	7.678913	2.601686	-0.061303
1090	5.4450e-01	-3.5197	-28.889085	0.000475	4.748802	1.608938	-0.037911
1091	5.4500e-01	-3.5614	-29.159303	0.000677	6.769568	2.293592	-0.054044
1092	5.4550e-01	-3.5983	-29.550513	0.000980	9.800718	3.320573	-0.078242
1093	5.4600e-01	-3.6432	-29.719904	0.000424	4.243610	1.437774	-0.033878
1094	5.4650e-01	-3.6769	-30.046585	0.000818	8.184105	2.772850	-0.065336
1095	5.4700e-01	-3.7154	-30.328901	0.000707	7.072683	2.396290	-0.056463
1096	5.4750e-01	-3.7587	-30.385365	0.000141	1.414537	0.479258	-0.011293
1097	5.4800e-01	-3.8004	-30.869337	0.001212	12.124600	4.107926	-0.096794
1098	5.4850e-01	-3.8437	-30.945966	0.000192	1.919728	0.650422	-0.015326
1099	5.4900e-01	-3.8774	-31.167786	0.000556	5.557108	1.882799	-0.044364
1100	5.4950e-01	-3.9047	-31.591261	0.001061	10.609025	3.594435	-0.084695
1101	5.5000e-01	-3.9512	-32.006671	0.001041	10.406948	3.525969	-0.083082
1102	5.5050e-01	-3.9929	-32.224458	0.000546	5.456070	1.848567	-0.043557
1103	5.5100e-01	-4.0411	-32.446278	0.000556	5.557108	1.882799	-0.044364
1104	5.5150e-01	-4.0748	-32.668099	0.000556	5.557108	1.882799	-0.044364
1105	5.5200e-01	-4.1149	-32.998813	0.000829	8.285143	2.807082	-0.066143
1106	5.5250e-01	-4.1598	-33.430354	0.001081	10.811101	3.662900	-0.086308
1107	5.5300e-01	-4.2031	-33.579579	0.000374	3.738418	1.266610	-0.029845
1108	5.5350e-01	-4.2368	-33.740903	0.000404	4.041533	1.369309	-0.032265
1109	5.5400e-01	-4.2817	-33.958690	0.000546	5.456070	1.848567	-0.043557
1110	5.5450e-01	-4.3202	-34.337801	0.000950	9.497603	3.217875	-0.075822
1111	5.5500e-01	-4.3539	-34.716913	0.000950	9.497603	3.217875	-0.075822
1112	5.5550e-01	-4.3988	-34.878237	0.000404	4.041533	1.369309	-0.032265
1113	5.5600e-01	-4.4389	-34.995197	0.000293	2.930112	0.992749	-0.023392
1114	5.5650e-01	-4.4774	-35.475135	0.001202	12.023561	4.073693	-0.095988
1115	5.5700e-01	-4.5175	-35.624360	0.000374	3.738418	1.266610	-0.029845
1116	5.5750e-01	-4.5576	-35.991372	0.000919	9.194488	3.115177	-0.073402
1117	5.5800e-01	-4.6058	-36.269656	0.000697	6.971645	2.362057	-0.055657
1118	5.5850e-01	-4.6378	-36.475344	0.000515	5.152955	1.745868	-0.041138
1119	5.5900e-01	-4.6860	-36.664899	0.000475	4.748802	1.608938	-0.037911
1120	5.5950e-01	-4.7164	-36.697164	0.000081	0.808307	0.273862	-0.006453
1121	5.6000e-01	-4.7549	-37.140805	0.001111	11.114216	3.765598	-0.088728
1122	5.6050e-01	-4.7967	-37.511850	0.000930	9.295526	3.149410	-0.074209
1123	5.6100e-01	-4.8448	-37.806266	0.000738	7.375798	2.498988	-0.058883
1124	5.6150e-01	-4.8817	-38.096649	0.000727	7.274760	2.464755	-0.058077
1125	5.6200e-01	-4.9154	-38.189411	0.000232	2.323882	0.787352	-0.018552
1126	5.6250e-01	-4.9635	-38.568522	0.000950	9.497603	3.217875	-0.075822
1127	5.6300e-01	-4.9940	-38.713713	0.000364	3.637380	1.232378	-0.029038
1128	5.6350e-01	-5.0293	-39.024262	0.000778	7.779952	2.635919	-0.062110
1129	5.6400e-01	-5.0758	-39.330778	0.000768	7.678913	2.601686	-0.061303
1130	5.6450e-01	-5.1207	-39.617128	0.000717	7.173722	2.430523	-0.057270
1131	5.6500e-01	-5.1544	-39.746187	0.000323	3.233227	1.095447	-0.025812
1132	5.6550e-01	-5.1961	-40.008338	0.000657	6.567492	2.225126	-0.052430
1133	5.6600e-01	-5.2442	-40.234192	0.000566	5.658147	1.917032	-0.045171
1134	5.6650e-01	-5.2795	-40.439880	0.000515	5.152955	1.745868	-0.041138
1135	5.6700e-01	-5.3180	-40.689932	0.000626	6.264377	2.122428	-0.050010
1136	5.6750e-01	-5.3646	-40.956116	0.000667	6.668530	2.259359	-0.053237
1137	5.6800e-01	-5.3998	-41.290863	0.000839	8.386182	2.841315	-0.066949
1138	5.6850e-01	-5.4400	-41.464287	0.000434	4.344648	1.472007	-0.034685
1139	5.6900e-01	-5.4817	-41.879696	0.001041	10.406948	3.525969	-0.083082
1140	5.6950e-01	-5.5186	-42.234609	0.000889	8.891373	3.012479	-0.070983
1141	5.7000e-01	-5.5571	-42.581455	0.000869	8.689297	2.944013	-0.069369
1142	5.7050e-01	-5.5988	-42.694382	0.000283	2.829073	0.958516	-0.022585
1143	5.7100e-01	-5.6421	-42.932335	0.000596	5.961262	2.019730	-0.047591
1144	5.7150e-01	-5.6726	-43.089625	0.000394	3.940495	1.335076	-0.031458
1145	5.7200e-01	-5.7191	-43.488902	0.001000	10.002795	3.389039	-0.079855
1146	5.7250e-01	-5.7576	-43.573597	0.000212	2.121805	0.718887	-0.016939
1147	5.7300e-01	-5.8009	-43.940609	0.000919	9.194488	3.115177	-0.073402
1148	5.7350e-01	-5.8442	-44.226959	0.000717	7.173722	2.430523	-0.057270
1149	5.7400e-01	-5.8763	-44.388283	0.000404	4.041533	1.369309	-0.032265
1150	5.7450e-01	-5.9260	-44.630269	0.000606	6.062300	2.053963	-0.048397
1151	5.7500e-01	-5.9597	-44.920652	0.000727	7.274760	2.464755	-0.058077
1152	5.7550e-01	-5.9934	-45.247333	0.000818	8.184105	2.772850	-0.065336
1153	5.7600e-01	-6.0447	-45.473187	0.000566	5.658147	1.917032	-0.045171
1154	5.7650e-01	-6.0849	-45.686941	0.000536	5.355032	1.814334	-0.042751
1155	5.7700e-01	-6.1234	-45.961192	0.000687	6.870607	2.327825	-0.054850
1156	5.7750e-01	-6.1651	-46.223343	0.000657	6.567492	2.225126	-0.052430
1157	5.7800e-01	-6.2004	-46.626653	0.001010	10.103833	3.423271	-0.080662
1158	5.7850e-01	-6.2421	-46.913003	0.000717	7.173722	2.430523	-0.057270
1159	5.7900e-01	-6.2693	-47.150956	0.000596	5.961262	2.019730	-0.047591
1160	5.7950e-01	-6.3094	-47.296147	0.000364	3.637380	1.232378	-0.029038
1161	5.8000e-01	-6.3479	-47.634928	0.000849	8.487220	2.875548	-0.067756
1162	5.8050e-01	-6.4009	-47.711556	0.000192	1.919728	0.650422	-0.015326
1163	5.8100e-01	-6.4314	-48.397183	0.001718	17.176516	5.819561	-0.137125
1164	5.8150e-01	-6.4779	-48.393150	-0.000010	-0.101038	-0.034233	0.000807
1165	5.8200e-01	-6.5196	-48.534309	0.000354	3.536342	1.198145	-0.028232
1166	5.8250e-01	-6.5661	-48.792427	0.000647	6.466453	2.190894	-0.051624
1167	5.8300e-01	-6.5966	-49.058611	0.000667	6.668530	2.259359	-0.053237
1168	5.8350e-01	-6.6431	-49.256233	0.000495	4.950878	1.677403	-0.039524
1169	5.8400e-01	-6.6672	-49.445789	0.000475	4.748802	1.608938	-0.037911
1170	5.8450e-01	-6.7169	-49.679709	0.000586	5.860223	1.985497	-0.046784
1171	5.8500e-01	-6.7634	-50.006390	0.000818	8.184105	2.772850	-0.065336
1172	5.8550e-01	-6.7891	-50.361302	0.000889	8.891373	3.012479	-0.070983
1173	5.8600e-01	-6.8421	-50.619421	0.000647	6.466453	2.190894	-0.051624
1174	5.8650e-01	-6.8757	-50.704116	0.000212	2.121805	0.718887	-0.016939
1175	5.8700e-01	-6.9126	-50.962234	0.000647	6.466453	2.190894	-0.051624
1176	5.8750e-01	-6.9527	-51.147756	0.000465	4.647763	1.574705	-0.037105
1177	5.8800e-01	-6.9929	-51.514768	0.000919	9.194488	3.115177	-0.073402
1178	5.8850e-01	-7.0265	-51.784986	0.000677	6.769568	2.293592	-0.054044
1179	5.8900e-01	-7.0763	-51.990674	0.000515	5.152955	1.745868	-0.041138
1180	5.8950e-01	-7.1196	-52.244759	0.000637	6.365415	2.156661	-0.050817
1181	5.9000e-01	-7.1549	-52.599672	0.000889	8.891373	3.012479	-0.070983
1182	5.9050e-01	-7.1966	-52.845691	0.000616	6.163338	2.088196	-0.049204
1183	5.9100e-01	-7.2383	-53.152206	0.000768	7.678913	2.601686	-0.061303
1184	5.9150e-01	-7.2800	-53.208670	0.000141	1.414537	0.479258	-0.011293
1185	5.9200e-01	-7.3041	-53.474854	0.000667	6.668530	2.259359	-0.053237
1186	5.9250e-01	-7.3522	-53.781370	0.000768	7.678913	2.601686	-0.061303
1187	5.9300e-01	-7.3891	-53.918495	0.000344	3.435303	1.163912	-0.027425
1188	5.9350e-01	-7.4388	-54.120150	0.000505	5.051917	1.711636	-0.040331
1189	5.9400e-01	-7.4789	-54.402467	0.000707	7.072683	2.396290	-0.056463
1190	5.9450e-01	-7.5094	-54.672685	0.000677	6.769568	2.293592	-0.054044
1191	5.9500e-01	-7.5543	-54.999366	0.000818	8.184105	2.772850	-0.065336
1192	5.9550e-01	-7.5944	-55.217153	0.000546	5.456070	1.848567	-0.043557
1193	5.9600e-01	-7.6410	-55.491404	0.000687	6.870607	2.327825	-0.054850
1194	5.9650e-01	-7.6730	-55.781787	0.000727	7.274760	2.464755	-0.058077
1195	5.9700e-01	-7.7148	-55.789853	0.000020	0.202077	0.068465	-0.001613
1196	5.9750e-01	-7.7597	-56.197196	0.001020	10.204871	3.457504	-0.081469
1197	5.9800e-01	-7.8062	-56.273825	0.000192	1.919728	0.650422	-0.015326
1198	5.9850e-01	-7.8447	-56.790061	0.001293	12.932906	4.381787	-0.103247
1199	5.9900e-01	-7.8832	-57.003816	0.000536	5.355032	1.814334	-0.042751
1200	5.9950e-01	-7.9153	-57.193371	0.000475	4.748802	1.608938	-0.037911
1201	6.0000e-01	-7.9602	-57.350662	0.000394	3.940495	1.335076	-0.031458
1202	6.0050e-01	-7.9907	-57.713641	0.000909	9.093450	3.080944	-0.072596
1203	6.0100e-01	-8.0356	-57.963693	0.000626	6.264377	2.122428	-0.050010
1204	6.0150e-01	-8.0821	-58.318606	0.000889	8.891373	3.012479	-0.070983
1205	6.0200e-01	-8.1174	-58.326672	0.000020	0.202077	0.068465	-0.001613
1206	6.0250e-01	-8.1575	-58.645287	0.000798	7.982028	2.704384	-0.063723
1207	6.0300e-01	-8.1976	-59.000199	0.000889	8.891373	3.012479	-0.070983
1208	6.0350e-01	-8.2345	-59.157490	0.000394	3.940495	1.335076	-0.031458
1209	6.0400e-01	-8.2746	-59.391410	0.000586	5.860223	1.985497	-0.046784
1210	6.0450e-01	-8.3147	-59.693892	0.000758	7.577875	2.567454	-0.060496
1211	6.0500e-01	-8.3516	-59.794720	0.000253	2.525958	0.855818	-0.020165
1212	6.0550e-01	-8.3869	-60.012507	0.000546	5.456070	1.848567	-0.043557
1213	6.0600e-01	-8.4447	-60.198030	0.000465	4.647763	1.574705	-0.037105
1214	6.0650e-01	-8.4752	-60.407751	0.000525	5.253993	1.780101	-0.041944
1215	6.0700e-01	-8.5265	-60.746531	0.000849	8.487220	2.875548	-0.067756
1216	6.0750e-01	-8.5602	-61.073212	0.000818	8.184105	2.772850	-0.065336
1217	6.0800e-01	-8.5955	-61.274867	0.000505	5.051917	1.711636	-0.040331
1218	6.0850e-01	-8.6484	-61.448290	0.000434	4.344648	1.472007	-0.034685
1219	6.0900e-01	-8.6757	-61.625747	0.000445	4.445687	1.506239	-0.035491
1220	6.0950e-01	-8.7142	-61.904030	0.000697	6.971645	2.362057	-0.055657
1221	6.1000e-01	-8.7575	-62.093586	0.000475	4.748802	1.608938	-0.037911
1222	6.1050e-01	-8.7912	-62.492863	0.001000	10.002795	3.389039	-0.079855
1223	6.1100e-01	-8.8409	-62.706617	0.000536	5.355032	1.814334	-0.042751
1224	6.1150e-01	-8.8666	-63.029265	0.000808	8.083067	2.738617	-0.064530
1225	6.1200e-01	-8.9179	-63.255118	0.000566	5.658147	1.917032	-0.045171
1226	6.1250e-01	-8.9580	-63.525336	0.000677	6.769568	2.293592	-0.054044
1227	6.1300e-01	-8.9965	-63.787487	0.000657	6.567492	2.225126	-0.052430
1228	6.1350e-01	-9.0302	-63.864116	0.000192	1.919728	0.650422	-0.015326
1229	6.1400e-01	-9.0655	-64.094003	0.000576	5.759185	1.951265	-0.045977
1230	6.1450e-01	-9.1088	-64.259360	0.000414	4.142572	1.403541	-0.033071
1231	6.1500e-01	-9.1570	-64.541677	0.000707	7.072683	2.396290	-0.056463
1232	6.1550e-01	-9.1987	-64.868358	0.000818	8.184105	2.772850	-0.065336
1233	6.1600e-01	-9.2259	-65.082112	0.000536	5.355032	1.814334	-0.042751
1234	6.1650e-01	-9.2821	-65.255535	0.000434	4.344648	1.472007	-0.034685
1235	6.1700e-01	-9.3142	-65.485422	0.000576	5.759185	1.951265	-0.045977
1236	6.1750e-01	-9.3527	-65.791937	0.000768	7.678913	2.601686	-0.061303
1237	6.1800e-01	-9.3976	-66.001659	0.000525	5.253993	1.780101	-0.041944
1238	6.1850e-01	-9.4345	-66.441266	0.001101	11.013178	3.731366	-0.087922
1239	6.1900e-01	-9.4858	-66.606623	0.000414	4.142572	1.403541	-0.033071
1240	6.1950e-01	-9.5179	-66.780047	0.000434	4.344648	1.472007	-0.034685
1241	6.2000e-01	-9.5612	-67.090595	0.000778	7.779952	2.635919	-0.062110
1242	6.2050e-01	-9.5933	-67.195456	0.000263	2.626997	0.890051	-0.020972
1243	6.2100e-01	-9.6414	-67.574567	0.000950	9.497603	3.217875	-0.075822
1244	6.2150e-01	-9.6767	-67.893182	0.000798	7.982028	2.704384	-0.063723
1245	6.2200e-01	-9.7200	-67.800421	-0.000232	-2.323882	-0.787352	0.018552
1246	6.2250e-01	-9.7505	-68.171466	0.000930	9.295526	3.149410	-0.074209
1247	6.2300e-01	-9.7938	-68.429584	0.000647	6.466453	2.190894	-0.051624
1248	6.2350e-01	-9.8291	-68.582842	0.000384	3.839457	1.300843	-0.030652
1249	6.2400e-01	-9.8757	-68.740133	0.000394	3.940495	1.335076	-0.031458
1250	6.2450e-01	-9.9061	-69.119244	0.000950	9.497603	3.217875	-0.075822
1251	6.2500e-01	-9.9575	-69.296700	0.000445	4.445687	1.506239	-0.035491
1252	6.2550e-01	-10.0040	-69.486256	0.000475	4.748802	1.608938	-0.037911
1253	6.2600e-01	-10.0345	-69.639514	0.000384	3.839457	1.300843	-0.030652
1254	6.2650e-01	-10.0826	-69.913764	0.000687	6.870607	2.327825	-0.054850
1255	6.2700e-01	-10.1163	-69.990393	0.000192	1.919728	0.650422	-0.015326
1256	6.2750e-01	-10.1580	-70.373538	0.000960	9.598641	3.252108	-0.076629
1257	6.2800e-01	-10.2077	-70.651821	0.000697	6.971645	2.362057	-0.055657
1258	6.2850e-01	-10.2270	-70.768781	0.000293	2.930112	0.992749	-0.023392
1259	6.2900e-01	-10.2783	-71.176124	0.001020	10.204871	3.457504	-0.081469
1260	6.2950e-01	-10.3104	-71.434242	0.000647	6.466453	2.190894	-0.051624
1261	6.3000e-01	-10.3633	-71.510871	0.000192	1.919728	0.650422	-0.015326
1262	6.3050e-01	-10.3986	-71.805288	0.000738	7.375798	2.498988	-0.058883
1263	6.3100e-01	-10.4307	-72.111803	0.000768	7.678913	2.601686	-0.061303
1264	6.3150e-01	-10.4772	-72.369921	0.000647	6.466453	2.190894	-0.051624
1265	6.3200e-01	-10.5077	-72.632073	0.000657	6.567492	2.225126	-0.052430
1266	6.3250e-01	-10.5639	-72.668371	0.000091	0.909345	0.308094	-0.007260
1267	6.3300e-01	-10.5992	-73.003118	0.000839	8.386182	2.841315	-0.066949
1268	6.3350e-01	-10.6361	-73.228971	0.000566	5.658147	1.917032	-0.045171
1269	6.3400e-01	-10.6794	-73.563719	0.000839	8.386182	2.841315	-0.066949
1270	6.3450e-01	-10.7131	-73.535487	-0.000071	-0.707268	-0.239629	0.005646
1271	6.3500e-01	-10.7580	-73.773440	0.000596	5.961262	2.019730	-0.047591
1272	6.3550e-01	-10.8061	-73.958962	0.000465	4.647763	1.574705	-0.037105
1273	6.3600e-01	-10.8318	-74.209014	0.000626	6.264377	2.122428	-0.050010
1274	6.3650e-01	-10.8831	-74.555861	0.000869	8.689297	2.944013	-0.069369
1275	6.3700e-01	-10.9120	-74.761549	0.000515	5.152955	1.745868	-0.041138
1276	6.3750e-01	-10.9505	-75.140660	0.000950	9.497603	3.217875	-0.075822
1277	6.3800e-01	-11.0002	-75.257620	0.000293	2.930112	0.992749	-0.023392
1278	6.3850e-01	-11.0435	-75.362480	0.000263	2.626997	0.890051	-0.020972
1279	6.3900e-01	-11.0836	-75.487507	0.000313	3.132188	1.061214	-0.025005
1280	6.3950e-01	-11.1125	-75.773857	0.000717	7.173722	2.430523	-0.057270
1281	6.4000e-01	-11.1639	-76.027942	0.000637	6.365415	2.156661	-0.050817
1282	6.4050e-01	-11.1959	-76.237663	0.000525	5.253993	1.780101	-0.041944
1283	6.4100e-01	-11.2377	-76.463516	0.000566	5.658147	1.917032	-0.045171
1284	6.4150e-01	-11.2729	-76.806330	0.000859	8.588258	2.909781	-0.068563
1285	6.4200e-01	-11.3243	-77.003952	0.000495	4.950878	1.677403	-0.039524
1286	6.4250e-01	-11.3564	-77.233838	0.000576	5.759185	1.951265	-0.045977
1287	6.4300e-01	-11.3949	-77.229805	-0.000010	-0.101038	-0.034233	0.000807
1288	6.4350e-01	-11.4350	-77.657314	0.001071	10.710063	3.628668	-0.085502
1289	6.4400e-01	-11.4751	-77.802505	0.000364	3.637380	1.232378	-0.029038
1290	6.4450e-01	-11.5200	-77.947697	0.000364	3.637380	1.232378	-0.029038
1291	6.4500e-01	-11.5553	-78.125153	0.000445	4.445687	1.506239	-0.035491
1292	6.4550e-01	-11.6018	-78.568794	0.001111	11.114216	3.765598	-0.088728
1293	6.4600e-01	-11.6371	-78.782548	0.000536	5.355032	1.814334	-0.042751
1294	6.4650e-01	-11.6756	-78.988236	0.000515	5.152955	1.745868	-0.041138
1295	6.4700e-01	-11.7157	-79.238288	0.000626	6.264377	2.122428	-0.050010
1296	6.4750e-01	-11.7574	-79.520605	0.000707	7.072683	2.396290	-0.056463
1297	6.4800e-01	-11.7943	-79.593201	0.000182	1.818690	0.616189	-0.014519
1298	6.4850e-01	-11.8441	-79.665797	0.000182	1.818690	0.616189	-0.014519
1299	6.4900e-01	-11.8809	-80.214298	0.001374	13.741213	4.655649	-0.109700
1300	6.4950e-01	-11.9162	-80.234464	0.000051	0.505192	0.171164	-0.004033
1301	6.5000e-01	-11.9596	-80.476450	0.000606	6.062300	2.053963	-0.048397
1302	6.5050e-01	-11.9965	-80.702303	0.000566	5.658147	1.917032	-0.045171
1303	6.5100e-01	-12.0478	-80.666005	-0.000091	-0.909345	-0.308094	0.007260
1304	6.5150e-01	-12.0751	-81.214507	0.001374	13.741213	4.655649	-0.109700
1305	6.5200e-01	-12.1232	-81.375830	0.000404	4.041533	1.369309	-0.032265
1306	6.5250e-01	-12.1521	-81.682346	0.000768	7.678913	2.601686	-0.061303
1307	6.5300e-01	-12.1938	-82.021126	0.000849	8.487220	2.875548	-0.067756
1308	6.5350e-01	-12.2387	-81.944497	-0.000192	-1.919728	-0.650422	0.015326
1309	6.5400e-01	-12.2804	-82.242947	0.000748	7.476837	2.533221	-0.059690
1310	6.5450e-01	-12.3109	-82.569628	0.000818	8.184105	2.772850	-0.065336
1311	6.5500e-01	-12.3606	-82.843878	0.000687	6.870607	2.327825	-0.054850
1312	6.5550e-01	-12.4007	-82.880176	0.000091	0.909345	0.308094	-0.007260
1313	6.5600e-01	-12.4376	-83.081831	0.000505	5.051917	1.711636	-0.040331
1314	6.5650e-01	-12.4825	-83.384314	0.000758	7.577875	2.567454	-0.060496
1315	6.5700e-01	-12.5178	-83.452876	0.000172	1.717652	0.581956	-0.013713
1316	6.5750e-01	-12.5595	-83.678730	0.000566	5.658147	1.917032	-0.045171
1317	6.5800e-01	-12.5980	-83.840054	0.000404	4.041533	1.369309	-0.032265
1318	6.5850e-01	-12.6365	-84.065907	0.000566	5.658147	1.917032	-0.045171
1319	6.5900e-01	-12.6847	-84.485350	0.001051	10.507986	3.560202	-0.083888
1320	6.5950e-01	-12.7119	-84.707170	0.000556	5.557108	1.882799	-0.044364
1321	6.6000e-01	-12.7633	-84.989487	0.000707	7.072683	2.396290	-0.056463
1322	6.6050e-01	-12.7986	-85.102414	0.000283	2.829073	0.958516	-0.022585
1323	6.6100e-01	-12.8419	-85.219373	0.000293	2.930112	0.992749	-0.023392
1324	6.6150e-01	-12.8772	-85.779974	0.001404	14.044328	4.758347	-0.112120
1325	6.6200e-01	-12.9189	-85.598485	-0.000455	-4.546725	-1.540472	0.036298
1326	6.6250e-01	-12.9542	-85.868702	0.000677	6.769568	2.293592	-0.054044
1327	6.6300e-01	-12.9927	-86.179251	0.000778	7.779952	2.635919	-0.062110
1328	6.6350e-01	-13.0360	-86.429303	0.000626	6.264377	2.122428	-0.050010
1329	6.6400e-01	-13.0857	-86.570461	0.000354	3.536342	1.198145	-0.028232
1330	6.6450e-01	-13.1050	-86.727752	0.000394	3.940495	1.335076	-0.031458
1331	6.6500e-01	-13.1515	-87.155261	0.001071	10.710063	3.628668	-0.085502
1332	6.6550e-01	-13.1964	-87.312552	0.000394	3.940495	1.335076	-0.031458
1333	6.6600e-01	-13.2333	-87.477909	0.000414	4.142572	1.403541	-0.033071
1334	6.6650e-01	-13.2734	-87.756192	0.000697	6.971645	2.362057	-0.055657
1335	6.6700e-01	-13.3232	-87.776358	0.000051	0.505192	0.171164	-0.004033
1336	6.6750e-01	-13.3568	-88.284528	0.001273	12.730830	4.313322	-0.101634
1337	6.6800e-01	-13.3841	-88.437786	0.000384	3.839457	1.300843	-0.030652
1338	6.6850e-01	-13.4387	-88.389389	-0.000121	-1.212460	-0.410793	0.009679
1339	6.6900e-01	-13.4740	-88.546680	0.000394	3.940495	1.335076	-0.031458
1340	6.6950e-01	-13.5141	-88.857228	0.000778	7.779952	2.635919	-0.062110
1341	6.7000e-01	-13.5461	-89.119380	0.000657	6.567492	2.225126	-0.052430
1342	6.7050e-01	-13.5991	-89.296836	0.000445	4.445687	1.506239	-0.035491
1343	6.7100e-01	-13.6360	-89.530756	0.000586	5.860223	1.985497	-0.046784
1344	6.7150e-01	-13.6713	-89.780808	0.000626	6.264377	2.122428	-0.050010
1345	6.7200e-01	-13.7146	-89.909867	0.000323	3.233227	1.095447	-0.025812
1346	6.7250e-01	-13.7595	-90.204283	0.000738	7.375798	2.498988	-0.058883
1347	6.7300e-01	-13.7948	-90.446269	0.000606	6.062300	2.053963	-0.048397
1348	6.7350e-01	-13.8333	-90.635825	0.000475	4.748802	1.608938	-0.037911
1349	6.7400e-01	-13.8766	-90.930241	0.000738	7.375798	2.498988	-0.058883
1350	6.7450e-01	-13.9151	-91.127863	0.000495	4.950878	1.677403	-0.039524
1351	6.7500e-01	-13.9552	-91.256922	0.000323	3.233227	1.095447	-0.025812
1352	6.7550e-01	-13.9905	-91.543272	0.000717	7.173722	2.430523	-0.057270
1353	6.7600e-01	-14.0322	-91.712662	0.000424	4.243610	1.437774	-0.033878
1354	6.7650e-01	-14.0739	-91.946582	0.000586	5.860223	1.985497	-0.046784
1355	6.7700e-01	-14.1189	-92.099840	0.000384	3.839457	1.300843	-0.030652
1356	6.7750e-01	-14.1606	-92.245031	0.000364	3.637380	1.232378	-0.029038
1357	6.7800e-01	-14.1926	-92.357958	0.000283	2.829073	0.958516	-0.022585
1358	6.7850e-01	-14.2344	-92.696738	0.000849	8.487220	2.875548	-0.067756
1359	6.7900e-01	-14.2793	-92.954857	0.000647	6.466453	2.190894	-0.051624
1360	6.7950e-01	-14.3162	-93.136346	0.000455	4.546725	1.540472	-0.036298
1361	6.8000e-01	-14.3531	-93.309769	0.000434	4.344648	1.472007	-0.034685
1362	6.8050e-01	-14.3948	-93.575954	0.000667	6.668530	2.259359	-0.053237
1363	6.8100e-01	-14.4365	-93.753410	0.000445	4.445687	1.506239	-0.035491
1364	6.8150e-01	-14.4814	-93.910701	0.000394	3.940495	1.335076	-0.031458
1365	6.8200e-01	-14.5167	-94.156720	0.000616	6.163338	2.088196	-0.049204
1366	6.8250e-01	-14.5504	-94.410805	0.000637	6.365415	2.156661	-0.050817
1367	6.8300e-01	-14.5969	-94.600361	0.000475	4.748802	1.608938	-0.037911
1368	6.8350e-01	-14.6322	-94.701188	0.000253	2.525958	0.855818	-0.020165
1369	6.8400e-01	-14.6771	-94.793950	0.000232	2.323882	0.787352	-0.018552
1370	6.8450e-01	-14.7156	-95.156928	0.000909	9.093450	3.080944	-0.072596
1371	6.8500e-01	-14.7605	-95.306153	0.000374	3.738418	1.266610	-0.029845
1372	6.8550e-01	-14.7894	-95.503775	0.000495	4.950878	1.677403	-0.039524
1373	6.8600e-01	-14.8295	-95.886919	0.000960	9.598641	3.252108	-0.076629
1374	6.8650e-01	-14.8728	-95.862721	-0.000061	-0.606230	-0.205396	0.004840
1375	6.8700e-01	-14.9146	-96.104707	0.000606	6.062300	2.053963	-0.048397
1376	6.8750e-01	-14.9531	-96.443487	0.000849	8.487220	2.875548	-0.067756
1377	6.8800e-01	-14.9932	-96.713704	0.000677	6.769568	2.293592	-0.054044
1378	6.8850e-01	-15.0413	-96.786300	0.000182	1.818690	0.616189	-0.014519
1379	6.8900e-01	-15.0766	-97.040385	0.000637	6.365415	2.156661	-0.050817
1380	6.8950e-01	-15.1183	-97.254140	0.000536	5.355032	1.814334	-0.042751
1381	6.9000e-01	-15.1520	-97.391265	0.000344	3.435303	1.163912	-0.027425
1382	6.9050e-01	-15.1921	-97.726012	0.000839	8.386182	2.841315	-0.066949
1383	6.9100e-01	-15.2290	-97.891369	0.000414	4.142572	1.403541	-0.033071
1384	6.9150e-01	-15.2739	-97.855071	-0.000091	-0.909345	-0.308094	0.007260
1385	6.9200e-01	-15.3124	-98.012362	0.000394	3.940495	1.335076	-0.031458
1386	6.9250e-01	-15.3541	-98.193852	0.000455	4.546725	1.540472	-0.036298
1387	6.9300e-01	-15.3910	-98.726221	0.001334	13.337060	4.518718	-0.106474
1388	6.9350e-01	-15.4343	-98.798816	0.000182	1.818690	0.616189	-0.014519
1389	6.9400e-01	-15.4792	-99.012571	0.000536	5.355032	1.814334	-0.042751
1390	6.9450e-01	-15.5226	-99.141630	0.000323	3.233227	1.095447	-0.025812
1391	6.9500e-01	-15.5578	-99.444112	0.000758	7.577875	2.567454	-0.060496
1392	6.9550e-01	-15.5996	-99.565105	0.000303	3.031150	1.026981	-0.024199
1393	6.9600e-01	-15.6397	-99.851455	0.000717	7.173722	2.430523	-0.057270
1394	6.9650e-01	-15.6734	-100.020845	0.000424	4.243610	1.437774	-0.033878
1395	6.9700e-01	-15.7199	-100.371725	0.000879	8.790335	2.978246	-0.070176
1396	6.9750e-01	-15.7616	-100.581446	0.000525	5.253993	1.780101	-0.041944
1397	6.9800e-01	-15.8033	-100.783101	0.000505	5.051917	1.711636	-0.040331
1398	6.9850e-01	-15.8450	-100.924259	0.000354	3.536342	1.198145	-0.028232
1399	6.9900e-01	-15.8819	-101.214643	0.000727	7.274760	2.464755	-0.058077
1400	6.9950e-01	-15.9172	-101.190444	-0.000061	-0.606230	-0.205396	0.004840
1401	7.0000e-01	-15.9605	-101.476794	0.000717	7.173722	2.430523	-0.057270
1402	7.0050e-01	-15.9942	-101.605853	0.000323	3.233227	1.095447	-0.025812
1403	7.0100e-01	-16.0311	-102.025295	0.001051	10.507986	3.560202	-0.083888
1404	7.0150e-01	-16.0712	-102.073693	0.000121	1.212460	0.410793	-0.009679
1405	7.0200e-01	-16.1193	-102.440704	0.000919	9.194488	3.115177	-0.073402
1406	7.0250e-01	-16.1610	-102.557664	0.000293	2.930112	0.992749	-0.023392
1407	7.0300e-01	-16.1947	-102.940809	0.000960	9.598641	3.252108	-0.076629
1408	7.0350e-01	-16.2364	-102.872246	-0.000172	-1.717652	-0.581956	0.013713
1409	7.0400e-01	-16.2814	-102.928709	0.000141	1.414537	0.479258	-0.011293
1410	7.0450e-01	-16.3247	-103.255390	0.000818	8.184105	2.772850	-0.065336
1411	7.0500e-01	-16.3648	-103.485277	0.000576	5.759185	1.951265	-0.045977
1412	7.0550e-01	-16.4049	-103.598204	0.000283	2.829073	0.958516	-0.022585
1413	7.0600e-01	-16.4386	-103.872455	0.000687	6.870607	2.327825	-0.054850
1414	7.0650e-01	-16.4723	-104.013613	0.000354	3.536342	1.198145	-0.028232
1415	7.0700e-01	-16.5172	-104.255599	0.000606	6.062300	2.053963	-0.048397
1416	7.0750e-01	-16.5573	-104.513717	0.000647	6.466453	2.190894	-0.051624
1417	7.0800e-01	-16.6038	-104.638743	0.000313	3.132188	1.061214	-0.025005
1418	7.0850e-01	-16.6343	-104.832332	0.000485	4.849840	1.643170	-0.038718
1419	7.0900e-01	-16.6728	-104.888795	0.000141	1.414537	0.479258	-0.011293
1420	7.0950e-01	-16.7209	-105.150947	0.000657	6.567492	2.225126	-0.052430
1421	7.1000e-01	-16.7594	-105.481661	0.000829	8.285143	2.807082	-0.066143
1422	7.1050e-01	-16.7979	-105.768011	0.000717	7.173722	2.430523	-0.057270
1423	7.1100e-01	-16.8348	-105.836574	0.000172	1.717652	0.581956	-0.013713
1424	7.1150e-01	-16.8653	-106.195519	0.000899	8.992412	3.046711	-0.071789
1425	7.1200e-01	-16.9231	-106.223751	0.000071	0.707268	0.239629	-0.005646
1426	7.1250e-01	-16.9503	-106.618995	0.000990	9.901756	3.354806	-0.079049
1427	7.1300e-01	-16.9920	-106.699657	0.000202	2.020767	0.684654	-0.016132
1428	7.1350e-01	-17.0193	-106.921477	0.000556	5.557108	1.882799	-0.044364
1429	7.1400e-01	-17.0755	-107.078768	0.000394	3.940495	1.335076	-0.031458
1430	7.1450e-01	-17.1204	-107.272357	0.000485	4.849840	1.643170	-0.038718
1431	7.1500e-01	-17.1525	-107.413515	0.000354	3.536342	1.198145	-0.028232
1432	7.1550e-01	-17.2054	-107.780527	0.000919	9.194488	3.115177	-0.073402
1433	7.1600e-01	-17.2391	-107.945884	0.000414	4.142572	1.403541	-0.033071
1434	7.1650e-01	-17.2760	-108.107208	0.000404	4.041533	1.369309	-0.032265
1435	7.1700e-01	-17.3225	-108.240300	0.000333	3.334265	1.129680	-0.026618
1436	7.1750e-01	-17.3562	-108.615378	0.000940	9.396565	3.183642	-0.075016
1437	7.1800e-01	-17.3979	-108.869464	0.000637	6.365415	2.156661	-0.050817
1438	7.1850e-01	-17.4316	-109.018688	0.000374	3.738418	1.266610	-0.029845
1439	7.1900e-01	-17.4813	-109.159847	0.000354	3.536342	1.198145	-0.028232
1440	7.1950e-01	-17.5182	-109.272774	0.000283	2.829073	0.958516	-0.022585
1441	7.2000e-01	-17.5551	-109.357469	0.000212	2.121805	0.718887	-0.016939
1442	7.2050e-01	-17.5952	-109.534925	0.000445	4.445687	1.506239	-0.035491
1443	7.2100e-01	-17.6273	-109.776911	0.000606	6.062300	2.053963	-0.048397
1444	7.2150e-01	-17.6722	-110.135857	0.000899	8.992412	3.046711	-0.071789
1445	7.2200e-01	-17.7075	-110.180221	0.000111	1.111422	0.376560	-0.008873
1446	7.2250e-01	-17.7476	-110.510935	0.000829	8.285143	2.807082	-0.066143
1447	7.2300e-01	-17.8022	-110.668226	0.000394	3.940495	1.335076	-0.031458
1448	7.2350e-01	-17.8327	-110.849715	0.000455	4.546725	1.540472	-0.036298
1449	7.2400e-01	-17.8744	-111.192528	0.000859	8.588258	2.909781	-0.068563
1450	7.2450e-01	-17.9193	-111.273190	0.000202	2.020767	0.684654	-0.016132
1451	7.2500e-01	-17.9594	-111.450647	0.000445	4.445687	1.506239	-0.035491
1452	7.2550e-01	-17.9931	-111.672467	0.000556	5.557108	1.882799	-0.044364
1453	7.2600e-01	-18.0396	-111.882188	0.000525	5.253993	1.780101	-0.041944
1454	7.2650e-01	-18.0797	-112.023347	0.000354	3.536342	1.198145	-0.028232
1455	7.2700e-01	-18.1102	-112.172571	0.000374	3.738418	1.266610	-0.029845
1456	7.2750e-01	-18.1487	-112.438756	0.000667	6.668530	2.259359	-0.053237
1457	7.2800e-01	-18.1952	-112.495219	0.000141	1.414537	0.479258	-0.011293
1458	7.2850e-01	-18.2321	-112.781569	0.000717	7.173722	2.430523	-0.057270
1459	7.2900e-01	-18.2754	-112.886430	0.000263	2.626997	0.890051	-0.020972
1460	7.2950e-01	-18.3219	-113.297806	0.001031	10.305910	3.491737	-0.082275
1461	7.3000e-01	-18.3476	-113.515593	0.000546	5.456070	1.848567	-0.043557
1462	7.3050e-01	-18.3989	-113.604321	0.000222	2.222843	0.753120	-0.017746
1463	7.3100e-01	-18.4278	-114.072161	0.001172	11.720446	3.970995	-0.093568
1464	7.3150e-01	-18.4840	-114.148790	0.000192	1.919728	0.650422	-0.015326
1465	7.3200e-01	-18.5161	-114.140724	-0.000020	-0.202077	-0.068465	0.001613
1466	7.3250e-01	-18.5497	-114.209286	0.000172	1.717652	0.581956	-0.013713
1467	7.3300e-01	-18.6011	-114.443206	0.000586	5.860223	1.985497	-0.046784
1468	7.3350e-01	-18.6316	-114.842483	0.001000	10.002795	3.389039	-0.079855
1469	7.3400e-01	-18.6845	-114.898946	0.000141	1.414537	0.479258	-0.011293
1470	7.3450e-01	-18.7086	-115.153031	0.000637	6.365415	2.156661	-0.050817
1471	7.3500e-01	-18.7503	-115.181263	0.000071	0.707268	0.239629	-0.005646
1472	7.3550e-01	-18.8032	-115.269991	0.000222	2.222843	0.753120	-0.017746
1473	7.3600e-01	-18.8369	-115.681367	0.001031	10.305910	3.491737	-0.082275
1474	7.3650e-01	-18.8738	-115.846724	0.000414	4.142572	1.403541	-0.033071
1475	7.3700e-01	-18.9107	-116.169372	0.000808	8.083067	2.738617	-0.064530
1476	7.3750e-01	-18.9476	-116.225836	0.000141	1.414537	0.479258	-0.011293
1477	7.3800e-01	-18.9957	-116.350862	0.000313	3.132188	1.061214	-0.025005
1478	7.3850e-01	-19.0358	-116.697708	0.000869	8.689297	2.944013	-0.069369
1479	7.3900e-01	-19.0727	-117.008257	0.000778	7.779952	2.635919	-0.062110
1480	7.3950e-01	-19.1112	-117.153448	0.000364	3.637380	1.232378	-0.029038
1481	7.4000e-01	-19.1561	-117.427699	0.000687	6.870607	2.327825	-0.054850
1482	7.4050e-01	-19.1962	-117.593056	0.000414	4.142572	1.403541	-0.033071
1483	7.4100e-01	-19.2396	-117.734214	0.000354	3.536342	1.198145	-0.028232
1484	7.4150e-01	-19.2813	-117.826976	0.000232	2.323882	0.787352	-0.018552
1485	7.4200e-01	-19.3134	-118.270617	0.001111	11.114216	3.765598	-0.088728
1486	7.4250e-01	-19.3583	-118.278683	0.000020	0.202077	0.068465	-0.001613
1487	7.4300e-01	-19.4080	-118.375477	0.000242	2.424920	0.821585	-0.019359
1488	7.4350e-01	-19.4305	-118.637628	0.000657	6.567492	2.225126	-0.052430
1489	7.4400e-01	-19.4706	-118.730390	0.000232	2.323882	0.787352	-0.018552
1490	7.4450e-01	-19.5171	-119.105468	0.000940	9.396565	3.183642	-0.075016
1491	7.4500e-01	-19.5492	-119.206295	0.000253	2.525958	0.855818	-0.020165
1492	7.4550e-01	-19.5861	-119.363586	0.000394	3.940495	1.335076	-0.031458
1493	7.4600e-01	-19.6310	-119.783028	0.001051	10.507986	3.560202	-0.083888
1494	7.4650e-01	-19.6759	-119.851591	0.000172	1.717652	0.581956	-0.013713
1495	7.4700e-01	-19.7128	-119.891922	0.000101	1.010383	0.342327	-0.008066
1496	7.4750e-01	-19.7609	-120.125842	0.000586	5.860223	1.985497	-0.046784
1497	7.4800e-01	-19.7962	-120.347662	0.000556	5.557108	1.882799	-0.044364
1498	7.4850e-01	-19.8251	-120.585615	0.000596	5.961262	2.019730	-0.047591
1499	7.4900e-01	-19.8780	-120.851800	0.000667	6.668530	2.259359	-0.053237
1500	7.4950e-01	-19.9117	-121.045388	0.000485	4.849840	1.643170	-0.038718
1501	7.5000e-01	-19.9551	-121.162348	0.000293	2.930112	0.992749	-0.023392
1502	7.5050e-01	-19.9599	-121.251076	0.000222	2.222843	0.753120	-0.017746
1503	7.5100e-01	-19.9422	-121.041355	0.000525	5.253993	1.780101	0.041944
1504	7.5150e-01	-19.9005	-121.166381	-0.000313	-3.132188	-1.061214	-0.025005
1505	7.5200e-01	-19.8604	-121.057488	0.000273	2.728035	0.924283	0.021779
1506	7.5250e-01	-19.8187	-120.706608	0.000879	8.790335	2.978246	0.070176
1507	7.5300e-01	-19.7818	-120.577549	0.000323	3.233227	1.095447	0.025812
1508	7.5350e-01	-19.7337	-120.496887	0.000202	2.020767	0.684654	0.016132
1509	7.5400e-01	-19.7016	-120.254901	0.000606	6.062300	2.053963	0.048397
1510	7.5450e-01	-19.6679	-120.230702	0.000061	0.606230	0.205396	0.004840
1511	7.5500e-01	-19.6182	-120.041147	0.000475	4.748802	1.608938	0.037911
1512	7.5550e-01	-19.5781	-119.839492	0.000505	5.051917	1.711636	0.040331
1513	7.5600e-01	-19.5380	-119.783028	0.000141	1.414537	0.479258	0.011293
1514	7.5650e-01	-19.4946	-119.674135	0.000273	2.728035	0.924283	0.021779
1515	7.5700e-01	-19.4690	-119.383752	0.000727	7.274760	2.464755	0.058077
1516	7.5750e-01	-19.4241	-119.315189	0.000172	1.717652	0.581956	0.013713
1517	7.5800e-01	-19.3839	-119.186130	0.000323	3.233227	1.095447	0.025812
1518	7.5850e-01	-19.3310	-118.871548	0.000788	7.880990	2.670152	0.062916
1519	7.5900e-01	-19.2893	-118.686026	0.000465	4.647763	1.574705	0.037105
1520	7.5950e-01	-19.2588	-118.734423	-0.000121	-1.212460	-0.410793	-0.009679
1521	7.6000e-01	-19.2203	-118.536801	0.000495	4.950878	1.677403	0.039524
1522	7.6050e-01	-19.1834	-118.234319	0.000758	7.577875	2.567454	0.060496
1523	7.6100e-01	-19.1401	-118.339179	-0.000263	-2.626997	-0.890051	-0.020972
1524	7.6150e-01	-19.1064	-118.149624	0.000475	4.748802	1.608938	0.037911
1525	7.6200e-01	-19.0599	-117.879406	0.000677	6.769568	2.293592	0.054044
1526	7.6250e-01	-19.0262	-117.907638	-0.000071	-0.707268	-0.239629	-0.005646
1527	7.6300e-01	-18.9893	-117.677751	0.000576	5.759185	1.951265	0.045977
1528	7.6350e-01	-18.9524	-117.528526	0.000374	3.738418	1.266610	0.029845
1529	7.6400e-01	-18.9027	-117.512394	0.000040	0.404153	0.136931	0.003226
1530	7.6450e-01	-18.8610	-116.984058	0.001324	13.236021	4.484485	0.105667
1531	7.6500e-01	-18.8225	-116.818701	0.000414	4.142572	1.403541	0.033071
1532	7.6550e-01	-18.7840	-116.967926	-0.000374	-3.738418	-1.266610	-0.029845
1533	7.6600e-01	-18.7471	-116.621079	0.000869	8.689297	2.944013	0.069369
1534	7.6650e-01	-18.7038	-116.564616	0.000141	1.414537	0.479258	0.011293
1535	7.6700e-01	-18.6652	-116.588814	-0.000061	-0.606230	-0.205396	-0.004840
1536	7.6750e-01	-18.6187	-116.314564	0.000687	6.870607	2.327825	0.054850
1537	7.6800e-01	-18.5802	-116.092743	0.000556	5.557108	1.882799	0.044364
1538	7.6850e-01	-18.5449	-115.987883	0.000263	2.626997	0.890051	0.020972
1539	7.6900e-01	-18.5064	-116.020147	-0.000081	-0.808307	-0.273862	-0.006453
1540	7.6950e-01	-18.4583	-115.717665	0.000758	7.577875	2.567454	0.060496
1541	7.7000e-01	-18.4182	-115.439381	0.000697	6.971645	2.362057	0.055657
1542	7.7050e-01	-18.3749	-115.306289	0.000333	3.334265	1.129680	0.026618
1543	7.7100e-01	-18.3460	-115.068336	0.000596	5.961262	2.019730	0.047591
1544	7.7150e-01	-18.3027	-114.814251	0.000637	6.365415	2.156661	0.050817
1545	7.7200e-01	-18.2626	-114.669059	0.000364	3.637380	1.232378	0.029038
1546	7.7250e-01	-18.2177	-114.624695	0.000111	1.111422	0.376560	0.008873
1547	7.7300e-01	-18.1808	-114.544033	0.000202	2.020767	0.684654	0.016132
1548	7.7350e-01	-18.1423	-114.435140	0.000273	2.728035	0.924283	0.021779
1549	7.7400e-01	-18.1022	-114.148790	0.000717	7.173722	2.430523	0.057270
1550	7.7450e-01	-18.0621	-113.874539	0.000687	6.870607	2.327825	0.054850
1551	7.7500e-01	-18.0203	-113.914870	-0.000101	-1.010383	-0.342327	-0.008066
1552	7.7550e-01	-17.9786	-113.773712	0.000354	3.536342	1.198145	0.028232
1553	7.7600e-01	-17.9498	-113.487362	0.000717	7.173722	2.430523	0.057270
1554	7.7650e-01	-17.9097	-113.225210	0.000657	6.567492	2.225126	0.052430
1555	7.7700e-01	-17.8663	-113.229243	-0.000010	-0.101038	-0.034233	-0.000807
1556	7.7750e-01	-17.8262	-113.192945	0.000091	0.909345	0.308094	0.007260
1557	7.7800e-01	-17.7797	-112.850132	0.000859	8.588258	2.909781	0.068563
1558	7.7850e-01	-17.7364	-112.700907	0.000374	3.738418	1.266610	0.029845
1559	7.7900e-01	-17.7059	-112.483120	0.000546	5.456070	1.848567	0.043557
1560	7.7950e-01	-17.6562	-112.261300	0.000556	5.557108	1.882799	0.044364
1561	7.8000e-01	-17.6241	-112.237101	0.000061	0.606230	0.205396	0.004840
1562	7.8050e-01	-17.5792	-112.019314	0.000546	5.456070	1.848567	0.043557
1563	7.8100e-01	-17.5471	-111.728931	0.000727	7.274760	2.464755	0.058077
1564	7.8150e-01	-17.5006	-111.660368	0.000172	1.717652	0.581956	0.013713
1565	7.8200e-01	-17.4589	-111.660368	0.000000	0.000000	0.000000	0.000000
1566	7.8250e-01	-17.4172	-111.410316	0.000626	6.264377	2.122428	0.050010
1567	7.8300e-01	-17.3867	-111.043304	0.000919	9.194488	3.115177	0.073402
1568	7.8350e-01	-17.3418	-110.845682	0.000495	4.950878	1.677403	0.039524
1569	7.8400e-01	-17.2936	-110.797285	0.000121	1.212460	0.410793	0.009679
1570	7.8450e-01	-17.2760	-110.579497	0.000546	5.456070	1.848567	0.043557
1571	7.8500e-01	-17.2166	-110.184254	0.000990	9.901756	3.354806	0.079049
1572	7.8550e-01	-17.1910	-110.244750	-0.000152	-1.515575	-0.513491	-0.012099
1573	7.8600e-01	-17.1476	-110.002764	0.000606	6.062300	2.053963	0.048397
1574	7.8650e-01	-17.0995	-109.966466	0.000091	0.909345	0.308094	0.007260
1575	7.8700e-01	-17.0642	-109.672050	0.000738	7.375798	2.498988	0.058883
1576	7.8750e-01	-17.0097	-109.438131	0.000586	5.860223	1.985497	0.046784
1577	7.8800e-01	-16.9904	-109.446197	-0.000020	-0.202077	-0.068465	-0.001613
1578	7.8850e-01	-16.9407	-109.482495	-0.000091	-0.909345	-0.308094	-0.007260
1579	7.8900e-01	-16.9022	-109.131615	0.000879	8.790335	2.978246	0.070176
1580	7.8950e-01	-16.8589	-108.942059	0.000475	4.748802	1.608938	0.037911
1581	7.9000e-01	-16.8284	-108.611345	0.000829	8.285143	2.807082	0.066143
1582	7.9050e-01	-16.7835	-108.579081	0.000081	0.808307	0.273862	0.006453
1583	7.9100e-01	-16.7498	-108.474220	0.000263	2.626997	0.890051	0.020972
1584	7.9150e-01	-16.6953	-108.252400	0.000556	5.557108	1.882799	0.044364
1585	7.9200e-01	-16.6648	-108.046712	0.000515	5.152955	1.745868	0.041138
1586	7.9250e-01	-16.6247	-107.816825	0.000576	5.759185	1.951265	0.045977
1587	7.9300e-01	-16.5749	-107.586938	0.000576	5.759185	1.951265	0.045977
1588	7.9350e-01	-16.5428	-107.421581	0.000414	4.142572	1.403541	0.033071
1589	7.9400e-01	-16.5043	-107.280423	0.000354	3.536342	1.198145	0.028232
1590	7.9450e-01	-16.4674	-107.179595	0.000253	2.525958	0.855818	0.020165
1591	7.9500e-01	-16.4273	-106.812583	0.000919	9.194488	3.115177	0.073402
1592	7.9550e-01	-16.3904	-106.647226	0.000414	4.142572	1.403541	0.033071
1593	7.9600e-01	-16.3535	-106.469770	0.000445	4.445687	1.506239	0.035491
1594	7.9650e-01	-16.2942	-106.473803	-0.000010	-0.101038	-0.034233	-0.000807
1595	7.9700e-01	-16.2685	-106.183420	0.000727	7.274760	2.464755	0.058077
1596	7.9750e-01	-16.2236	-106.009997	0.000434	4.344648	1.472007	0.034685
1597	7.9800e-01	-16.1915	-105.925302	0.000212	2.121805	0.718887	0.016939
1598	7.9850e-01	-16.1322	-105.792209	0.000333	3.334265	1.129680	0.026618
1599	7.9900e-01	-16.1113	-105.324370	0.001172	11.720446	3.970995	0.093568
1600	7.9950e-01	-16.0584	-105.368734	-0.000111	-1.111422	-0.376560	-0.008873
1601	8.0000e-01	-16.0263	-105.284039	0.000212	2.121805	0.718887	0.016939
1602	8.0050e-01	-15.9958	-105.033987	0.000626	6.264377	2.122428	0.050010
1603	8.0100e-01	-15.9397	-104.804100	0.000576	5.759185	1.951265	0.045977
1604	8.0150e-01	-15.9060	-104.896862	-0.000232	-2.323882	-0.787352	-0.018552
1605	8.0200e-01	-15.8643	-104.570181	0.000818	8.184105	2.772850	0.065336
1606	8.0250e-01	-15.8242	-104.070076	0.001253	12.528753	4.244856	0.100021
1607	8.0300e-01	-15.7776	-104.074109	-0.000010	-0.101038	-0.034233	-0.000807
1608	8.0350e-01	-15.7423	-103.811958	0.000657	6.567492	2.225126	0.052430
1609	8.0400e-01	-15.7006	-103.743395	0.000172	1.717652	0.581956	0.013713
1610	8.0450e-01	-15.6653	-103.743395	0.000000	0.000000	0.000000	0.000000
1611	8.0500e-01	-15.6236	-103.315887	0.001071	10.710063	3.628668	0.085502
1612	8.0550e-01	-15.5867	-103.198927	0.000293	2.930112	0.992749	0.023392
1613	8.0600e-01	-15.5434	-103.283622	-0.000212	-2.121805	-0.718887	-0.016939
1614	8.0650e-01	-15.5017	-102.997272	0.000717	7.173722	2.430523	0.057270
1615	8.0700e-01	-15.4600	-102.771419	0.000566	5.658147	1.917032	0.045171
1616	8.0750e-01	-15.4231	-102.533466	0.000596	5.961262	2.019730	0.047591
1617	8.0800e-01	-15.3830	-102.537499	-0.000010	-0.101038	-0.034233	-0.000807
1618	8.0850e-01	-15.3365	-102.267281	0.000677	6.769568	2.293592	0.054044
1619	8.0900e-01	-15.2980	-102.061593	0.000515	5.152955	1.745868	0.041138
1620	8.0950e-01	-15.2611	-101.690548	0.000930	9.295526	3.149410	0.074209
1621	8.1000e-01	-15.2338	-101.638118	0.000131	1.313498	0.445025	0.010486
1622	8.1050e-01	-15.1841	-101.230775	0.001020	10.204871	3.457504	0.081469
1623	8.1100e-01	-15.1616	-101.133981	0.000242	2.424920	0.821585	0.019359
1624	8.1150e-01	-15.1006	-101.190444	-0.000141	-1.414537	-0.479258	-0.011293
1625	8.1200e-01	-15.0686	-100.815366	0.000940	9.396565	3.183642	0.075016
1626	8.1250e-01	-15.0204	-100.565314	0.000626	6.264377	2.122428	0.050010
1627	8.1300e-01	-14.9900	-100.383824	0.000455	4.546725	1.540472	0.036298
1628	8.1350e-01	-14.9354	-100.331394	0.000131	1.313498	0.445025	0.010486
1629	8.1400e-01	-14.8969	-100.125706	0.000515	5.152955	1.745868	0.041138
1630	8.1450e-01	-14.8680	-99.722396	0.001010	10.103833	3.423271	0.080662
1631	8.1500e-01	-14.8263	-99.577204	0.000364	3.637380	1.232378	0.029038
1632	8.1550e-01	-14.7846	-99.601403	-0.000061	-0.606230	-0.205396	-0.004840
1633	8.1600e-01	-14.7477	-99.379583	0.000556	5.557108	1.882799	0.044364
1634	8.1650e-01	-14.7060	-99.056935	0.000808	8.083067	2.738617	0.064530
1635	8.1700e-01	-14.6627	-99.048869	0.000020	0.202077	0.068465	0.001613
1636	8.1750e-01	-14.6146	-98.802850	0.000616	6.163338	2.088196	0.049204
1637	8.1800e-01	-14.5712	-98.637493	0.000414	4.142572	1.403541	0.033071
1638	8.1850e-01	-14.5424	-98.508433	0.000323	3.233227	1.095447	0.025812
1639	8.1900e-01	-14.4878	-98.238216	0.000677	6.769568	2.293592	0.054044
1640	8.1950e-01	-14.4734	-98.072859	0.000414	4.142572	1.403541	0.033071
1641	8.2000e-01	-14.4253	-97.762310	0.000778	7.779952	2.635919	0.062110
1642	8.2050e-01	-14.3739	-97.645350	0.000293	2.930112	0.992749	0.023392
1643	8.2100e-01	-14.3467	-97.383199	0.000657	6.567492	2.225126	0.052430
1644	8.2150e-01	-14.3098	-97.250107	0.000333	3.334265	1.129680	0.026618
1645	8.2200e-01	-14.2793	-97.008121	0.000606	6.062300	2.053963	0.048397
1646	8.2250e-01	-14.2183	-96.943591	0.000162	1.616613	0.547723	0.012906
1647	8.2300e-01	-14.1782	-96.955690	-0.000030	-0.303115	-0.102698	-0.002420
1648	8.2350e-01	-14.1445	-96.503983	0.001132	11.316293	3.834064	0.090341
1649	8.2400e-01	-14.1060	-96.330560	0.000434	4.344648	1.472007	0.034685
1650	8.2450e-01	-14.0595	-96.197468	0.000333	3.334265	1.129680	0.026618
1651	8.2500e-01	-14.0194	-96.189402	0.000020	0.202077	0.068465	0.001613
1652	8.2550e-01	-13.9761	-96.040177	0.000374	3.738418	1.266610	0.029845
1653	8.2600e-01	-13.9376	-95.519907	0.001303	13.033945	4.416020	0.104054
1654	8.2650e-01	-13.9055	-95.475543	0.000111	1.111422	0.376560	0.008873
1655	8.2700e-01	-13.8654	-95.233557	0.000606	6.062300	2.053963	0.048397
1656	8.2750e-01	-13.8301	-95.048035	0.000465	4.647763	1.574705	0.037105
1657	8.2800e-01	-13.7836	-94.757652	0.000727	7.274760	2.464755	0.058077
1658	8.2850e-01	-13.7451	-94.624559	0.000333	3.334265	1.129680	0.026618
1659	8.2900e-01	-13.7066	-94.378540	0.000616	6.163338	2.088196	0.049204
1660	8.2950e-01	-13.6649	-94.273680	0.000263	2.626997	0.890051	0.020972
1661	8.3000e-01	-13.6215	-93.910701	0.000909	9.093450	3.080944	0.072596
1662	8.3050e-01	-13.5927	-93.777609	0.000333	3.334265	1.129680	0.026618
1663	8.3100e-01	-13.5494	-93.495292	0.000707	7.072683	2.396290	0.056463
1664	8.3150e-01	-13.5012	-93.338001	0.000394	3.940495	1.335076	0.031458
1665	8.3200e-01	-13.4563	-93.200876	0.000344	3.435303	1.163912	0.027425
1666	8.3250e-01	-13.4146	-93.075850	0.000313	3.132188	1.061214	0.025005
1667	8.3300e-01	-13.3761	-92.878228	0.000495	4.950878	1.677403	0.039524
1668	8.3350e-01	-13.3424	-92.825797	0.000131	1.313498	0.445025	0.010486
1669	8.3400e-01	-13.3023	-92.378123	0.001122	11.215255	3.799831	0.089535
1670	8.3450e-01	-13.2622	-92.224866	0.000384	3.839457	1.300843	0.030652
1671	8.3500e-01	-13.2301	-91.894152	0.000829	8.285143	2.807082	0.066143
1672	8.3550e-01	-13.1868	-91.882052	0.000030	0.303115	0.102698	0.002420
1673	8.3600e-01	-13.1419	-91.648133	0.000586	5.860223	1.985497	0.046784
1674	8.3650e-01	-13.0986	-91.563438	0.000212	2.121805	0.718887	0.016939
1675	8.3700e-01	-13.0649	-91.196426	0.000919	9.194488	3.115177	0.073402
1676	8.3750e-01	-13.0183	-91.135929	0.000152	1.515575	0.513491	0.012099
1677	8.3800e-01	-12.9798	-90.958473	0.000445	4.445687	1.506239	0.035491
1678	8.3850e-01	-12.9365	-90.639858	0.000798	7.982028	2.704384	0.063723
1679	8.3900e-01	-12.9044	-90.208316	0.001081	10.811101	3.662900	0.086308
1680	8.3950e-01	-12.8611	-90.224449	-0.000040	-0.404153	-0.136931	-0.003226
1681	8.4000e-01	-12.8274	-90.018761	0.000515	5.152955	1.745868	0.041138
1682	8.4050e-01	-12.7889	-89.962297	0.000141	1.414537	0.479258	0.011293
1683	8.4100e-01	-12.7488	-89.704179	0.000647	6.466453	2.190894	0.051624
1684	8.4150e-01	-12.7039	-89.619484	0.000212	2.121805	0.718887	0.016939
1685	8.4200e-01	-12.6590	-89.325068	0.000738	7.375798	2.498988	0.058883
1686	8.4250e-01	-12.6365	-89.006453	0.000798	7.982028	2.704384	0.063723
1687	8.4300e-01	-12.5756	-88.820931	0.000465	4.647763	1.574705	0.037105
1688	8.4350e-01	-12.5371	-88.736235	0.000212	2.121805	0.718887	0.016939
1689	8.4400e-01	-12.4938	-88.587011	0.000374	3.738418	1.266610	0.029845
1690	8.4450e-01	-12.4585	-88.425687	0.000404	4.041533	1.369309	0.032265
1691	8.4500e-01	-12.4248	-88.236131	0.000475	4.748802	1.608938	0.037911
1692	8.4550e-01	-12.3815	-87.852987	0.000960	9.598641	3.252108	0.076629
1693	8.4600e-01	-12.3446	-87.643266	0.000525	5.253993	1.780101	0.041944
1694	8.4650e-01	-12.2980	-87.546471	0.000242	2.424920	0.821585	0.019359
1695	8.4700e-01	-12.2644	-87.421445	0.000313	3.132188	1.061214	0.025005
1696	8.4750e-01	-12.2210	-87.050400	0.000930	9.295526	3.149410	0.074209
1697	8.4800e-01	-12.1906	-86.977804	0.000182	1.818690	0.616189	0.014519
1698	8.4850e-01	-12.1440	-86.663223	0.000788	7.880990	2.670152	0.062916
1699	8.4900e-01	-12.1087	-86.417204	0.000616	6.163338	2.088196	0.049204
1700	8.4950e-01	-12.0510	-86.235714	0.000455	4.546725	1.540472	0.036298
1701	8.5000e-01	-12.0189	-86.368807	-0.000333	-3.334265	-1.129680	-0.026618
1702	8.5050e-01	-11.9740	-86.070357	0.000748	7.476837	2.533221	0.059690
1703	8.5100e-01	-11.9483	-85.925166	0.000364	3.637380	1.232378	0.029038
1704	8.5150e-01	-11.9082	-85.610584	0.000788	7.880990	2.670152	0.062916
1705	8.5200e-01	-11.8665	-85.255671	0.000889	8.891373	3.012479	0.070983
1706	8.5250e-01	-11.8280	-85.045950	0.000525	5.253993	1.780101	0.041944
1707	8.5300e-01	-11.7863	-84.949156	0.000242	2.424920	0.821585	0.019359
1708	8.5350e-01	-11.7462	-84.642640	0.000768	7.678913	2.601686	0.061303
1709	8.5400e-01	-11.7013	-84.594243	0.000121	1.212460	0.410793	0.009679
1710	8.5450e-01	-11.6676	-84.098172	0.001243	12.427715	4.210624	0.099214
1711	8.5500e-01	-11.6291	-83.884418	0.000536	5.355032	1.814334	0.042751
1712	8.5550e-01	-11.5810	-83.827954	0.000141	1.414537	0.479258	0.011293
1713	8.5600e-01	-11.5505	-83.682763	0.000364	3.637380	1.232378	0.029038
1714	8.5650e-01	-11.5072	-83.416578	0.000667	6.668530	2.259359	0.053237
1715	8.5700e-01	-11.4590	-83.146361	0.000677	6.769568	2.293592	0.054044
1716	8.5750e-01	-11.4286	-83.001169	0.000364	3.637380	1.232378	0.029038
1717	8.5800e-01	-11.3788	-83.057633	-0.000141	-1.414537	-0.479258	-0.011293
1718	8.5850e-01	-11.3403	-82.791448	0.000667	6.668530	2.259359	0.053237
1719	8.5900e-01	-11.2970	-82.416370	0.000940	9.396565	3.183642	0.075016
1720	8.5950e-01	-11.2729	-82.343774	0.000182	1.818690	0.616189	0.014519
1721	8.6000e-01	-11.2248	-82.097755	0.000616	6.163338	2.088196	0.049204
1722	8.6050e-01	-11.1863	-81.605717	0.001233	12.326676	4.176391	0.098408
1723	8.6100e-01	-11.1446	-81.492790	0.000283	2.829073	0.958516	0.022585
1724	8.6150e-01	-11.0933	-81.480691	0.000030	0.303115	0.102698	0.002420
1725	8.6200e-01	-11.0612	-81.182242	0.000748	7.476837	2.533221	0.059690
1726	8.6250e-01	-11.0243	-81.242738	-0.000152	-1.515575	-0.513491	-0.012099
1727	8.6300e-01	-10.9938	-80.795064	0.001122	11.215255	3.799831	0.089535
1728	8.6350e-01	-10.9473	-80.569211	0.000566	5.658147	1.917032	0.045171
1729	8.6400e-01	-10.9024	-80.294960	0.000687	6.870607	2.327825	0.054850
1730	8.6450e-01	-10.8623	-80.069107	0.000566	5.658147	1.917032	0.045171
1731	8.6500e-01	-10.8238	-80.048941	0.000051	0.505192	0.171164	0.004033
1732	8.6550e-01	-10.7772	-79.907783	0.000354	3.536342	1.198145	0.028232
1733	8.6600e-01	-10.7435	-79.714194	0.000485	4.849840	1.643170	0.038718
1734	8.6650e-01	-10.6986	-79.355248	0.000899	8.992412	3.046711	0.071789
1735	8.6700e-01	-10.6585	-79.153593	0.000505	5.051917	1.711636	0.040331
1736	8.6750e-01	-10.6152	-79.020501	0.000333	3.334265	1.129680	0.026618
1737	8.6800e-01	-10.5847	-78.697853	0.000808	8.083067	2.738617	0.064530
1738	8.6850e-01	-10.5430	-78.447801	0.000626	6.264377	2.122428	0.050010
1739	8.6900e-01	-10.5077	-78.391338	0.000141	1.414537	0.479258	0.011293
1740	8.6950e-01	-10.4756	-78.173550	0.000546	5.456070	1.848567	0.043557
1741	8.7000e-01	-10.4307	-77.959796	0.000536	5.355032	1.814334	0.042751
1742	8.7050e-01	-10.3890	-77.576652	0.000960	9.598641	3.252108	0.076629
1743	8.7100e-01	-10.3425	-77.383063	0.000485	4.849840	1.643170	0.038718
1744	8.7150e-01	-10.2992	-77.056382	0.000818	8.184105	2.772850	0.065336
1745	8.7200e-01	-10.2591	-76.899091	0.000394	3.940495	1.335076	0.031458
1746	8.7250e-01	-10.2254	-76.866826	0.000081	0.808307	0.273862	0.006453
1747	8.7300e-01	-10.1853	-76.592576	0.000687	6.870607	2.327825	0.054850
1748	8.7350e-01	-10.1484	-76.374788	0.000546	5.456070	1.848567	0.043557
1749	8.7400e-01	-10.1115	-76.124736	0.000626	6.264377	2.122428	0.050010
1750	8.7450e-01	-10.0634	-75.737559	0.000970	9.699680	3.286340	0.077435
1751	8.7500e-01	-10.0216	-75.572202	0.000414	4.142572	1.403541	0.033071
1752	8.7550e-01	-9.9767	-75.483473	0.000222	2.222843	0.753120	0.017746
1753	8.7600e-01	-9.9446	-75.326183	0.000394	3.940495	1.335076	0.031458
1754	8.7650e-01	-9.8933	-75.326183	0.000000	0.000000	0.000000	0.000000
1755	8.7700e-01	-9.8660	-74.983369	0.000859	8.588258	2.909781	0.068563
1756	8.7750e-01	-9.8227	-74.701052	0.000707	7.072683	2.396290	0.056463
1757	8.7800e-01	-9.7794	-74.463099	0.000596	5.961262	2.019730	0.047591
1758	8.7850e-01	-9.7441	-74.148518	0.000788	7.880990	2.670152	0.062916
1759	8.7900e-01	-9.7072	-74.011392	0.000344	3.435303	1.163912	0.027425
1760	8.7950e-01	-9.6591	-73.813771	0.000495	4.950878	1.677403	0.039524
1761	8.8000e-01	-9.6254	-73.450792	0.000909	9.093450	3.080944	0.072596
1762	8.8050e-01	-9.5869	-73.220905	0.000576	5.759185	1.951265	0.045977
1763	8.8100e-01	-9.5356	-73.325766	-0.000263	-2.626997	-0.890051	-0.020972
1764	8.8150e-01	-9.5051	-72.773231	0.001384	13.842251	4.689882	0.110507
1765	8.8200e-01	-9.4618	-72.664338	0.000273	2.728035	0.924283	0.021779
1766	8.8250e-01	-9.4265	-72.398153	0.000667	6.668530	2.259359	0.053237
1767	8.8300e-01	-9.3816	-72.152134	0.000616	6.163338	2.088196	0.049204
1768	8.8350e-01	-9.3431	-71.865784	0.000717	7.173722	2.430523	0.057270
1769	8.8400e-01	-9.3013	-71.583467	0.000707	7.072683	2.396290	0.056463
1770	8.8450e-01	-9.2741	-71.377779	0.000515	5.152955	1.745868	0.041138
1771	8.8500e-01	-9.2292	-71.514904	-0.000344	-3.435303	-1.163912	-0.027425
1772	8.8550e-01	-9.1858	-71.164025	0.000879	8.790335	2.978246	0.070176
1773	8.8600e-01	-9.1409	-70.962370	0.000505	5.051917	1.711636	0.040331
1774	8.8650e-01	-9.1088	-70.704252	0.000647	6.466453	2.190894	0.051624
1775	8.8700e-01	-9.0607	-70.510663	0.000485	4.849840	1.643170	0.038718
1776	8.8750e-01	-9.0318	-70.292876	0.000546	5.456070	1.848567	0.043557
1777	8.8800e-01	-8.9821	-70.159783	0.000333	3.334265	1.129680	0.026618
1778	8.8850e-01	-8.9468	-69.905698	0.000637	6.365415	2.156661	0.050817
1779	8.8900e-01	-8.8939	-69.558852	0.000869	8.689297	2.944013	0.069369
1780	8.8950e-01	-8.8682	-69.195873	0.000909	9.093450	3.080944	0.072596
1781	8.9000e-01	-8.8185	-69.163608	0.000081	0.808307	0.273862	0.006453
1782	8.9050e-01	-8.7784	-69.054714	0.000273	2.728035	0.924283	0.021779
1783	8.9100e-01	-8.7415	-68.566709	0.001223	12.225638	4.142158	0.097601
1784	8.9150e-01	-8.7062	-68.550577	0.000040	0.404153	0.136931	0.003226
1785	8.9200e-01	-8.6645	-68.070638	0.001202	12.023561	4.073693	0.095988
1786	8.9250e-01	-8.6244	-68.074671	-0.000010	-0.101038	-0.034233	-0.000807
1787	8.9300e-01	-8.5746	-67.961745	0.000283	2.829073	0.958516	0.022585
1788	8.9350e-01	-8.5474	-67.296283	0.001667	16.671325	5.648398	0.133092
1789	8.9400e-01	-8.4992	-67.280151	0.000040	0.404153	0.136931	0.003226
1790	8.9450e-01	-8.4639	-67.239820	0.000101	1.010383	0.342327	0.008066
1791	8.9500e-01	-8.4238	-66.792146	0.001122	11.215255	3.799831	0.089535
1792	8.9550e-01	-8.3757	-66.384803	0.001020	10.204871	3.457504	0.081469
1793	8.9600e-01	-8.3356	-66.328340	0.000141	1.414537	0.479258	0.011293
1794	8.9650e-01	-8.3035	-66.191214	0.000344	3.435303	1.163912	0.027425
1795	8.9700e-01	-8.2586	-65.816136	0.000940	9.396565	3.183642	0.075016
1796	8.9750e-01	-8.2281	-65.558018	0.000647	6.466453	2.190894	0.051624
1797	8.9800e-01	-8.1752	-65.687077	-0.000323	-3.233227	-1.095447	-0.025812
1798	8.9850e-01	-8.1383	-65.380561	0.000768	7.678913	2.601686	0.061303
1799	8.9900e-01	-8.1030	-65.110344	0.000677	6.769568	2.293592	0.054044
1800	8.9950e-01	-8.0629	-64.670736	0.001101	11.013178	3.731366	0.087922
1801	9.0000e-01	-8.0260	-64.340022	0.000829	8.285143	2.807082	0.066143
1802	9.0050e-01	-7.9843	-64.263393	0.000192	1.919728	0.650422	0.015326
1803	9.0100e-01	-7.9393	-64.053672	0.000525	5.253993	1.780101	0.041944
1804	9.0150e-01	-7.9105	-63.944778	0.000273	2.728035	0.924283	0.021779
1805	9.0200e-01	-7.8591	-63.852017	0.000232	2.323882	0.787352	0.018552
1806	9.0250e-01	-7.8158	-63.525336	0.000818	8.184105	2.772850	0.065336
1807	9.0300e-01	-7.7741	-63.529369	-0.000010	-0.101038	-0.034233	-0.000807
1808	9.0350e-01	-7.7436	-63.146225	0.000960	9.598641	3.252108	0.076629
1809	9.0400e-01	-7.6987	-62.787279	0.000899	8.992412	3.046711	0.071789
1810	9.0450e-01	-7.6650	-62.613856	0.000434	4.344648	1.472007	0.034685
1811	9.0500e-01	-7.6265	-62.468664	0.000364	3.637380	1.232378	0.029038
1812	9.0550e-01	-7.5880	-62.121818	0.000869	8.689297	2.944013	0.069369
1813	9.0600e-01	-7.5415	-61.734640	0.000970	9.699680	3.286340	0.077435
1814	9.0650e-01	-7.5014	-61.589449	0.000364	3.637380	1.232378	0.029038
1815	9.0700e-01	-7.4613	-61.250668	0.000849	8.487220	2.875548	0.067756
1816	9.0750e-01	-7.4212	-61.133709	0.000293	2.930112	0.992749	0.023392
1817	9.0800e-01	-7.3859	-60.819127	0.000788	7.880990	2.670152	0.062916
1818	9.0850e-01	-7.3394	-60.911888	-0.000232	-2.323882	-0.787352	-0.018552
1819	9.0900e-01	-7.3041	-60.585207	0.000818	8.184105	2.772850	0.065336
1820	9.0950e-01	-7.2640	-60.097202	0.001223	12.225638	4.142158	0.097601
1821	9.1000e-01	-7.2239	-59.964110	0.000333	3.334265	1.129680	0.026618
1822	9.1050e-01	-7.1822	-59.734223	0.000576	5.759185	1.951265	0.045977
1823	9.1100e-01	-7.1453	-59.601131	0.000333	3.334265	1.129680	0.026618
1824	9.1150e-01	-7.1019	-59.443840	0.000394	3.940495	1.335076	0.031458
1825	9.1200e-01	-7.0682	-59.125226	0.000798	7.982028	2.704384	0.063723
1826	9.1250e-01	-7.0153	-58.883240	0.000606	6.062300	2.053963	0.048397
1827	9.1300e-01	-6.9880	-58.665452	0.000546	5.456070	1.848567	0.043557
1828	9.1350e-01	-6.9447	-58.383135	0.000707	7.072683	2.396290	0.056463
1829	9.1400e-01	-6.9014	-58.072587	0.000778	7.779952	2.635919	0.062110
1830	9.1450e-01	-6.8469	-57.673310	0.001000	10.002795	3.389039	0.079855
1831	9.1500e-01	-6.8228	-57.673310	0.000000	0.000000	0.000000	0.000000
1832	9.1550e-01	-6.7827	-57.370828	0.000758	7.577875	2.567454	0.060496
1833	9.1600e-01	-6.7346	-57.144974	0.000566	5.658147	1.917032	0.045171
1834	9.1650e-01	-6.7025	-56.866690	0.000697	6.971645	2.362057	0.055657
1835	9.1700e-01	-6.6592	-56.733598	0.000333	3.334265	1.129680	0.026618
1836	9.1750e-01	-6.6207	-56.479513	0.000637	6.365415	2.156661	0.050817
1837	9.1800e-01	-6.5822	-56.237527	0.000606	6.062300	2.053963	0.048397
1838	9.1850e-01	-6.5469	-56.003607	0.000586	5.860223	1.985497	0.046784
1839	9.1900e-01	-6.5036	-55.850349	0.000384	3.839457	1.300843	0.030652
1840	9.1950e-01	-6.4618	-55.140524	0.001778	17.782746	6.024958	0.141965
1841	9.2000e-01	-6.4266	-55.305881	-0.000414	-4.142572	-1.403541	-0.033071
1842	9.2050e-01	-6.3897	-54.874340	0.001081	10.811101	3.662900	0.086308
1843	9.2100e-01	-6.3496	-54.753347	0.000303	3.031150	1.026981	0.024199
1844	9.2150e-01	-6.3078	-54.676718	0.000192	1.919728	0.650422	0.015326
1845	9.2200e-01	-6.2709	-54.430699	0.000616	6.163338	2.088196	0.049204
1846	9.2250e-01	-6.2244	-54.087885	0.000859	8.588258	2.909781	0.068563
1847	9.2300e-01	-6.1875	-53.793469	0.000738	7.375798	2.498988	0.058883
1848	9.2350e-01	-6.1538	-53.555516	0.000596	5.961262	2.019730	0.047591
1849	9.2400e-01	-6.1057	-53.333696	0.000556	5.557108	1.882799	0.044364
1850	9.2450e-01	-6.0608	-53.043313	0.000727	7.274760	2.464755	0.058077
1851	9.2500e-01	-6.0287	-52.740830	0.000758	7.577875	2.567454	0.060496
1852	9.2550e-01	-5.9886	-52.523043	0.000546	5.456070	1.848567	0.043557
1853	9.2600e-01	-5.9437	-52.309289	0.000536	5.355032	1.814334	0.042751
1854	9.2650e-01	-5.9100	-52.196362	0.000283	2.829073	0.958516	0.022585
1855	9.2700e-01	-5.8731	-51.910012	0.000717	7.173722	2.430523	0.057270
1856	9.2750e-01	-5.8186	-51.547033	0.000909	9.093450	3.080944	0.072596
1857	9.2800e-01	-5.7849	-51.357478	0.000475	4.748802	1.608938	0.037911
1858	9.2850e-01	-5.7399	-51.050962	0.000768	7.678913	2.601686	0.061303
1859	9.2900e-01	-5.7159	-50.925936	0.000313	3.132188	1.061214	0.025005
1860	9.2950e-01	-5.6710	-50.554891	0.000930	9.295526	3.149410	0.074209
1861	9.3000e-01	-5.6293	-50.320971	0.000586	5.860223	1.985497	0.046784
1862	9.3050e-01	-5.5779	-50.014456	0.000768	7.678913	2.601686	0.061303
1863	9.3100e-01	-5.5394	-49.728106	0.000717	7.173722	2.430523	0.057270
1864	9.3150e-01	-5.5057	-49.776503	-0.000121	-1.212460	-0.410793	-0.009679
1865	9.3200e-01	-5.4624	-49.429656	0.000869	8.689297	2.944013	0.069369
1866	9.3250e-01	-5.4175	-49.167505	0.000657	6.567492	2.225126	0.052430
1867	9.3300e-01	-5.3886	-48.804526	0.000909	9.093450	3.080944	0.072596
1868	9.3350e-01	-5.3469	-48.558507	0.000616	6.163338	2.088196	0.049204
1869	9.3400e-01	-5.3004	-48.522209	0.000091	0.909345	0.308094	0.007260
1870	9.3450e-01	-5.2635	-48.171330	0.000879	8.790335	2.978246	0.070176
1871	9.3500e-01	-5.2282	-47.949509	0.000556	5.557108	1.882799	0.044364
1872	9.3550e-01	-5.1801	-47.667192	0.000707	7.072683	2.396290	0.056463
1873	9.3600e-01	-5.1384	-47.425206	0.000606	6.062300	2.053963	0.048397
1874	9.3650e-01	-5.1063	-47.223552	0.000505	5.051917	1.711636	0.040331
1875	9.3700e-01	-5.0646	-47.005764	0.000546	5.456070	1.848567	0.043557
1876	9.3750e-01	-5.0325	-46.691183	0.000788	7.880990	2.670152	0.062916
1877	9.3800e-01	-4.9811	-46.364502	0.000818	8.184105	2.772850	0.065336
1878	9.3850e-01	-4.9442	-46.138648	0.000566	5.658147	1.917032	0.045171
1879	9.3900e-01	-4.9057	-45.941026	0.000495	4.950878	1.677403	0.039524
1880	9.3950e-01	-4.8656	-45.759537	0.000455	4.546725	1.540472	0.036298
1881	9.4000e-01	-4.8143	-45.501418	0.000647	6.466453	2.190894	0.051624
1882	9.4050e-01	-4.7790	-45.198936	0.000758	7.577875	2.567454	0.060496
1883	9.4100e-01	-4.7469	-44.811759	0.000970	9.699680	3.286340	0.077435
1884	9.4150e-01	-4.7020	-44.529442	0.000707	7.072683	2.396290	0.056463
1885	9.4200e-01	-4.6715	-44.259224	0.000677	6.769568	2.293592	0.054044
1886	9.4250e-01	-4.6282	-44.126132	0.000333	3.334265	1.129680	0.026618
1887	9.4300e-01	-4.5849	-43.807517	0.000798	7.982028	2.704384	0.063723
1888	9.4350e-01	-4.5400	-43.630061	0.000445	4.445687	1.506239	0.035491
1889	9.4400e-01	-4.5031	-43.525200	0.000263	2.626997	0.890051	0.020972
1890	9.4450e-01	-4.4614	-43.150122	0.000940	9.396565	3.183642	0.075016
1891	9.4500e-01	-4.4293	-42.875871	0.000687	6.870607	2.327825	0.054850
1892	9.4550e-01	-4.3796	-42.811342	0.000162	1.616613	0.547723	0.012906
1893	9.4600e-01	-4.3443	-42.456429	0.000889	8.891373	3.012479	0.070983
1894	9.4650e-01	-4.2993	-42.242675	0.000536	5.355032	1.814334	0.042751
1895	9.4700e-01	-4.2624	-41.948259	0.000738	7.375798	2.498988	0.058883
1896	9.4750e-01	-4.2159	-41.492518	0.001142	11.417331	3.868297	0.091148
1897	9.4800e-01	-4.1870	-41.387658	0.000263	2.626997	0.890051	0.020972
1898	9.4850e-01	-4.1502	-40.984348	0.001010	10.103833	3.423271	0.080662
1899	9.4900e-01	-4.0988	-40.831090	0.000384	3.839457	1.300843	0.030652
1900	9.4950e-01	-4.0635	-40.484244	0.000869	8.689297	2.944013	0.069369
1901	9.5000e-01	-4.0250	-40.351152	0.000333	3.334265	1.129680	0.026618
1902	9.5050e-01	-3.9897	-40.149497	0.000505	5.051917	1.711636	0.040331
1903	9.5100e-01	-3.9464	-39.871213	0.000697	6.971645	2.362057	0.055657
1904	9.5150e-01	-3.9191	-39.520333	0.000879	8.790335	2.978246	0.070176
1905	9.5200e-01	-3.8678	-39.294480	0.000566	5.658147	1.917032	0.045171
1906	9.5250e-01	-3.8293	-39.161387	0.000333	3.334265	1.129680	0.026618
1907	9.5300e-01	-3.7876	-38.741945	0.001051	10.507986	3.560202	0.083888
1908	9.5350e-01	-3.7427	-38.657250	0.000212	2.121805	0.718887	0.016939
1909	9.5400e-01	-3.7026	-38.229742	0.001071	10.710063	3.628668	0.085502
1910	9.5450e-01	-3.6560	-38.048252	0.000455	4.546725	1.540472	0.036298
1911	9.5500e-01	-3.6256	-37.669141	0.000950	9.497603	3.217875	0.075822
1912	9.5550e-01	-3.5919	-37.411023	0.000647	6.466453	2.190894	0.051624
1913	9.5600e-01	-3.5454	-37.221467	0.000475	4.748802	1.608938	0.037911
1914	9.5650e-01	-3.5036	-36.898819	0.000808	8.083067	2.738617	0.064530
1915	9.5700e-01	-3.4700	-36.648767	0.000626	6.264377	2.122428	0.050010
1916	9.5750e-01	-3.4202	-36.330152	0.000798	7.982028	2.704384	0.063723
1917	9.5800e-01	-3.3801	-36.068001	0.000657	6.567492	2.225126	0.052430
1918	9.5850e-01	-3.3448	-35.955074	0.000283	2.829073	0.958516	0.022585
1919	9.5900e-01	-3.3111	-35.761485	0.000485	4.849840	1.643170	0.038718
1920	9.5950e-01	-3.2646	-35.233149	0.001324	13.236021	4.484485	0.105667
1921	9.6000e-01	-3.2293	-35.019395	0.000536	5.355032	1.814334	0.042751
1922	9.6050e-01	-3.1908	-34.938733	0.000202	2.020767	0.684654	0.016132
1923	9.6100e-01	-3.1395	-34.664482	0.000687	6.870607	2.327825	0.054850
1924	9.6150e-01	-3.1042	-34.333768	0.000829	8.285143	2.807082	0.066143
1925	9.6200e-01	-3.0689	-34.111948	0.000556	5.557108	1.882799	0.044364
1926	9.6250e-01	-3.0160	-33.813499	0.000748	7.476837	2.533221	0.059690
1927	9.6300e-01	-2.9887	-33.744936	0.000172	1.717652	0.581956	0.013713
1928	9.6350e-01	-2.9438	-33.515049	0.000576	5.759185	1.951265	0.045977
1929	9.6400e-01	-2.8988	-33.027044	0.001223	12.225638	4.142158	0.097601
1930	9.6450e-01	-2.8700	-32.655999	0.000930	9.295526	3.149410	0.074209
1931	9.6500e-01	-2.8251	-32.547106	0.000273	2.728035	0.924283	0.021779
1932	9.6550e-01	-2.7882	-32.232524	0.000788	7.880990	2.670152	0.062916
1933	9.6600e-01	-2.7432	-32.034902	0.000495	4.950878	1.677403	0.039524
1934	9.6650e-01	-2.7144	-31.998604	0.000091	0.909345	0.308094	0.007260
1935	9.6700e-01	-2.6630	-31.587228	0.001031	10.305910	3.491737	0.082275
1936	9.6750e-01	-2.6277	-31.204084	0.000960	9.598641	3.252108	0.076629
1937	9.6800e-01	-2.5844	-30.998396	0.000515	5.152955	1.745868	0.041138
1938	9.6850e-01	-2.5363	-30.748344	0.000626	6.264377	2.122428	0.050010
1939	9.6900e-01	-2.5026	-30.429729	0.000798	7.982028	2.704384	0.063723
1940	9.6950e-01	-2.4657	-30.244206	0.000465	4.647763	1.574705	0.037105
1941	9.7000e-01	-2.4304	-29.840897	0.001010	10.103833	3.423271	0.080662
1942	9.7050e-01	-2.3855	-29.671506	0.000424	4.243610	1.437774	0.033878
1943	9.7100e-01	-2.3390	-29.324660	0.000869	8.689297	2.944013	0.069369
1944	9.7150e-01	-2.3021	-28.977813	0.000869	8.689297	2.944013	0.069369
1945	9.7200e-01	-2.2604	-28.760026	0.000546	5.456070	1.848567	0.043557
1946	9.7250e-01	-2.2267	-28.538206	0.000556	5.557108	1.882799	0.044364
1947	9.7300e-01	-2.1866	-28.477709	0.000152	1.515575	0.513491	0.012099
1948	9.7350e-01	-2.1417	-28.046168	0.001081	10.811101	3.662900	0.086308
1949	9.7400e-01	-2.1064	-27.747718	0.000748	7.476837	2.533221	0.059690
1950	9.7450e-01	-2.0679	-27.517832	0.000576	5.759185	1.951265	0.045977
1951	9.7500e-01	-2.0213	-27.211316	0.000768	7.678913	2.601686	0.061303
1952	9.7550e-01	-1.9796	-26.997562	0.000536	5.355032	1.814334	0.042751
1953	9.7600e-01	-1.9427	-26.743477	0.000637	6.365415	2.156661	0.050817
1954	9.7650e-01	-1.9026	-26.570054	0.000434	4.344648	1.472007	0.034685
1955	9.7700e-01	-1.8689	-26.134479	0.001091	10.912140	3.697133	0.087115
1956	9.7750e-01	-1.8208	-25.803765	0.000829	8.285143	2.807082	0.066143
1957	9.7800e-01	-1.7855	-25.481117	0.000808	8.083067	2.738617	0.064530
1958	9.7850e-01	-1.7454	-25.275429	0.000515	5.152955	1.745868	0.041138
1959	9.7900e-01	-1.7053	-24.968913	0.000768	7.678913	2.601686	0.061303
1960	9.7950e-01	-1.6604	-24.739027	0.000576	5.759185	1.951265	0.045977
1961	9.8000e-01	-1.6219	-24.412346	0.000818	8.184105	2.772850	0.065336
1962	9.8050e-01	-1.5866	-24.170360	0.000606	6.062300	2.053963	0.048397
1963	9.8100e-01	-1.5465	-23.803348	0.000919	9.194488	3.115177	0.073402
1964	9.8150e-01	-1.5000	-23.674289	0.000323	3.233227	1.095447	0.025812
1965	9.8200e-01	-1.4695	-23.500866	0.000434	4.344648	1.472007	0.034685
1966	9.8250e-01	-1.4181	-23.081423	0.001051	10.507986	3.560202	0.083888
1967	9.8300e-01	-1.3828	-22.803139	0.000697	6.971645	2.362057	0.055657
1968	9.8350e-01	-1.3492	-22.565187	0.000596	5.961262	2.019730	0.047591
1969	9.8400e-01	-1.3091	-22.452260	0.000283	2.829073	0.958516	0.022585
1970	9.8450e-01	-1.2609	-22.061049	0.000980	9.800718	3.320573	0.078242
1971	9.8500e-01	-1.2240	-21.758567	0.000758	7.577875	2.567454	0.060496
1972	9.8550e-01	-1.1759	-21.601276	0.000394	3.940495	1.335076	0.031458
1973	9.8600e-01	-1.1422	-21.327025	0.000687	6.870607	2.327825	0.054850
1974	9.8650e-01	-1.1021	-20.939848	0.000970	9.699680	3.286340	0.077435
1975	9.8700e-01	-1.0556	-20.806756	0.000333	3.334265	1.129680	0.026618
1976	9.8750e-01	-1.0251	-20.492174	0.000788	7.880990	2.670152	0.062916
1977	9.8800e-01	-0.9754	-20.104997	0.000970	9.699680	3.286340	0.077435
1978	9.8850e-01	-0.9401	-19.971904	0.000333	3.334265	1.129680	0.026618
1979	9.8900e-01	-0.9048	-19.616992	0.000889	8.891373	3.012479	0.070983
1980	9.8950e-01	-0.8567	-19.366939	0.000626	6.264377	2.122428	0.050010
1981	9.9000e-01	-0.8198	-18.923299	0.001111	11.114216	3.765598	0.088728
1982	9.9050e-01	-0.7845	-18.693412	0.000576	5.759185	1.951265	0.045977
1983	9.9100e-01	-0.7444	-18.495790	0.000495	4.950878	1.677403	0.039524
1984	9.9150e-01	-0.6978	-18.257837	0.000596	5.961262	2.019730	0.047591
1985	9.9200e-01	-0.6625	-18.015851	0.000606	6.062300	2.053963	0.048397
1986	9.9250e-01	-0.6273	-17.656906	0.000899	8.992412	3.046711	0.071789
1987	9.9300e-01	-0.5855	-17.515747	0.000354	3.536342	1.198145	0.028232
1988	9.9350e-01	-0.5438	-17.205199	0.000778	7.779952	2.635919	0.062110
1989	9.9400e-01	-0.5134	-16.753492	0.001132	11.316293	3.834064	0.090341
1990	9.9450e-01	-0.4588	-16.305818	0.001122	11.215255	3.799831	0.089535
1991	9.9500e-01	-0.4347	-16.120295	0.000465	4.647763	1.574705	0.037105
1992	9.9550e-01	-0.3722	-15.958971	0.000404	4.041533	1.369309	0.032265
1993	9.9600e-01	-0.3481	-15.781515	0.000445	4.445687	1.506239	0.035491
1994	9.9650e-01	-0.3080	-15.636323	0.000364	3.637380	1.232378	0.029038
1995	9.9700e-01	-0.2631	-15.265278	0.000930	9.295526	3.149410	0.074209
1996	9.9750e-01	-0.2230	-14.999094	0.000667	6.668530	2.259359	0.053237
1997	9.9800e-01	-0.1749	-14.801472	0.000495	4.950878	1.677403	0.039524
1998	9.9850e-01	-0.1476	-14.507056	0.000738	7.375798	2.498988	0.058883
1999	9.9900e-01	-0.0979	-14.002918	0.001263	12.629791	4.279089	0.100827
2000	9.9950e-01	-0.0610	-13.760932	0.000606	6.062300	2.053963	0.048397
2001	1.0000e+00	-0.0193	-13.289060	0.000606	6.062300	2.053963	0.094375

PMax (uC/cm2):	1.32e+02
Pr (uC/cm2):	6.61e+00
-Pr (uC/cm2):	-2.15e+00
PLoss (uC/cm2):	-2.12e+00
-Vc:	-9.42e-01
C (Max-Eff) (nF):	6.62e-01
K (Eff):	2.24e+03
Vert. (+/-Pr) Shift (uC/cm2):	2.23e+00
Offset (uC/cm2):	1.11e+01

A (Loop Area - uC/cm2·Volts):	-1.42e-01



Hysteresis Version: 5.48.1 - Radiant Technologies, Inc., 1999 - 9/12/24

