»»»»»»»»»»»»»»»»»»»»»»»»»»»»»»»»»»»» Hysteresis ««««««««««««««««««««««««««««««««««««
»»»  Executed Version:	5.48.1
»»»  Vision Version:	5.48.4 (R)
»»»  Vision Compiled:	9/18/24
»»»  Driver Version:	5.47.0
»»»  Windows Version:	Windows 8 or 8.1
»»»  Processor Information:	x86 (AMD or Intel) - 32 Processors
»»»  Tester Name:	PMF21124-494 (100V)
»»»  Tester S/N:	PMF21124-494
»»»  Internal Amp Type:	100V RevK 270k
»»»  Internal Amp S/N:	iAB2-596/K     
»»»  Execution Count:	1
»»»»»»»»»»»»»»»»»»»»»»»»»»»»»»»»»»»»»»»»»»««««««««««««««««««««««««««««««««««««««««««

Stored:	6/18/2025 - 13:45:47
Configured:	06/18/25 09:47:30 AM
Executed:	06/18/25 01:45:22 PM

»»»»»»»»»»»»»»»»»»»»»»»»»»»»»»»»»»» Sample Info ««««««««««««««««««««««««««««««««««««
Sample Name:	
Lot Name:	
Wafer Name:	
Die Row/Column:	0/0
Capacitor Number:	0
Sample Area (cm2):	1.00e-04
Sample Thickness (microns):	3.00e-01

Amplifier:	Internal

»»»»»»»»»»»»»»»»»»»»»»»»»»»»»»»»»»» Tester Info «««««««««««««««««««««««««««««««««««
Tester Name:	PMF21124-494 (100V)
Tester Serial Number:	PMF21124-494
Return Signal Amp. Level:	0.19 [Index: 3]

»»»»»»»»»»»»»»»»»»»»»»»»»»»»»»»» Hysteresis Info ««««««««««««««««««««««««««««««««««
Task Name:	Hyst-554
Volts:	20.00
Field:	666.67 (kV/cm)
DCBias:	0.00
DCField:	0.00 (kV/cm)
Hysteresis Period (ms):	1.00e+00
Preset:	Enabled
Preset Delay (ms):	1.00e+03
Profile:	Standard Bipolar

»»»»»»»»»»»»»»»»»»»»»»»»»»»»»»»»»»»»»» Data «««««««««««««««««««««««««««««««««««««««
Points:	2001

Valid Data

Point	Time (ms)	Drive Voltage	Measured Polarization (uC/cm2)	Capacitance (uF)	Normalized Capacitance (uF/cm2)	Dielectric Constant	Instantaneous Current (mA)
   1	0.0000e+00	0.0112	-6.932896	0.001000	9.998597	3.387616	0.079855
   2	5.0000e-04	0.0289	-6.533620	0.001000	9.998597	3.387616	0.079855
   3	1.0000e-03	0.0561	-6.533620	0.000000	0.000000	0.000000	0.000000
   4	1.5000e-03	0.0930	-6.424726	0.000273	2.726890	0.923895	0.021779
   5	2.0000e-03	0.1299	-6.190806	0.000586	5.857764	1.984664	0.046784
   6	2.5000e-03	0.1652	-6.198873	-0.000020	-0.201992	-0.068437	-0.001613
   7	3.0000e-03	0.2053	-6.005284	0.000485	4.847805	1.642481	0.038718
   8	3.5000e-03	0.2471	-5.678603	0.000818	8.180670	2.771686	0.065336
   9	4.0000e-03	0.2920	-5.553577	0.000313	3.130874	1.060769	0.025005
  10	4.5000e-03	0.3353	-5.347889	0.000515	5.150792	1.745136	0.041138
  11	5.0000e-03	0.3610	-5.093804	0.000636	6.362744	2.155756	0.050817
  12	5.5000e-03	0.4075	-4.956678	0.000343	3.433862	1.163424	0.027425
  13	6.0000e-03	0.4492	-4.734858	0.000555	5.554776	1.882009	0.044364
  14	6.5000e-03	0.4861	-4.460607	0.000687	6.867723	2.326848	0.054850
  15	7.0000e-03	0.5294	-4.182323	0.000697	6.968719	2.361066	0.055657
  16	7.5000e-03	0.5727	-4.146025	0.000091	0.908963	0.307965	0.007260
  17	8.0000e-03	0.6016	-3.924205	0.000555	5.554776	1.882009	0.044364
  18	8.5000e-03	0.6481	-3.637855	0.000717	7.170711	2.429503	0.057270
  19	9.0000e-03	0.6850	-3.222446	0.001040	10.402581	3.524490	0.083082
  20	9.5000e-03	0.7251	-3.206313	0.000040	0.403984	0.136873	0.003226
  21	1.0000e-02	0.7652	-2.988526	0.000545	5.453780	1.847791	0.043557
  22	1.0500e-02	0.8117	-2.807037	0.000454	4.544817	1.539826	0.036298
  23	1.1000e-02	0.8454	-2.504554	0.000757	7.574695	2.566376	0.060496
  24	1.1500e-02	0.8823	-2.206105	0.000747	7.473699	2.532158	0.059690
  25	1.2000e-02	0.9256	-2.040748	0.000414	4.140833	1.402952	0.033071
  26	1.2500e-02	0.9722	-2.068980	-0.000071	-0.706972	-0.239528	-0.005646
  27	1.3000e-02	0.9994	-1.826994	0.000606	6.059756	2.053101	0.048397
  28	1.3500e-02	1.0524	-1.641471	0.000465	4.645813	1.574044	0.037105
  29	1.4000e-02	1.0877	-1.528544	0.000283	2.827886	0.958114	0.022585
  30	1.4500e-02	1.1198	-1.238161	0.000727	7.271707	2.463721	0.058077
  31	1.5000e-02	1.1711	-1.024407	0.000535	5.352784	1.813572	0.042751
  32	1.5500e-02	1.2032	-0.576733	0.001121	11.210548	3.798237	0.089535
  33	1.6000e-02	1.2545	-0.435575	0.000353	3.534858	1.197642	0.028232
  34	1.6500e-02	1.2962	-0.419442	0.000040	0.403984	0.136873	0.003226
  35	1.7000e-02	1.3267	-0.221820	0.000495	4.948801	1.676699	0.039524
  36	1.7500e-02	1.3684	0.116960	0.000848	8.483658	2.874341	0.067756
  37	1.8000e-02	1.4133	0.193589	0.000192	1.918923	0.650149	0.015326
  38	1.8500e-02	1.4486	0.137125	-0.000141	-1.413943	-0.479057	-0.011293
  39	1.9000e-02	1.4807	0.455740	0.000798	7.978678	2.703249	0.063723
  40	1.9500e-02	1.5320	0.806620	0.000879	8.786646	2.976996	0.070176
  41	2.0000e-02	1.5657	1.238161	0.001081	10.806565	3.661363	0.086308
  42	2.0500e-02	1.6139	1.395452	0.000394	3.938841	1.334516	0.031458
  43	2.1000e-02	1.6524	1.734232	0.000848	8.483658	2.874341	0.067756
  44	2.1500e-02	1.6941	1.770530	0.000091	0.908963	0.307965	0.007260
  45	2.2000e-02	1.7197	2.073013	0.000757	7.574695	2.566376	0.060496
  46	2.2500e-02	1.7695	2.044781	-0.000071	-0.706972	-0.239528	-0.005646
  47	2.3000e-02	1.8112	2.290800	0.000616	6.160752	2.087319	0.049204
  48	2.3500e-02	1.8513	2.682011	0.000980	9.796605	3.319180	0.078242
  49	2.4000e-02	1.8818	2.730408	0.000121	1.211951	0.410620	0.009679
  50	2.4500e-02	1.9267	2.774772	0.000111	1.110955	0.376402	0.008873
  51	2.5000e-02	1.9572	3.387803	0.001535	15.351381	5.201189	0.122606
  52	2.5500e-02	2.0037	3.561226	0.000434	4.342825	1.471389	0.034685
  53	2.6000e-02	2.0438	3.718517	0.000394	3.938841	1.334516	0.031458
  54	2.6500e-02	2.0919	3.879841	0.000404	4.039837	1.368734	0.032265
  55	2.7000e-02	2.1256	4.004867	0.000313	3.130874	1.060769	0.025005
  56	2.7500e-02	2.1609	4.202489	0.000495	4.948801	1.676699	0.039524
  57	2.8000e-02	2.1978	4.343647	0.000353	3.534858	1.197642	0.028232
  58	2.8500e-02	2.2572	4.609832	0.000667	6.665731	2.258411	0.053237
  59	2.9000e-02	2.2844	4.734858	0.000313	3.130874	1.060769	0.025005
  60	2.9500e-02	2.3229	4.948612	0.000535	5.352784	1.813572	0.042751
  61	3.0000e-02	2.3695	5.299492	0.000879	8.786646	2.976996	0.070176
  62	3.0500e-02	2.4128	5.650371	0.000879	8.786646	2.976996	0.070176
  63	3.1000e-02	2.4497	5.835894	0.000465	4.645813	1.574044	0.037105
  64	3.1500e-02	2.4866	5.952854	0.000293	2.928882	0.992332	0.023392
  65	3.2000e-02	2.5251	6.098045	0.000364	3.635853	1.231861	0.029038
  66	3.2500e-02	2.5716	6.392461	0.000737	7.372703	2.497939	0.058883
  67	3.3000e-02	2.6117	6.586050	0.000485	4.847805	1.642481	0.038718
  68	3.3500e-02	2.6534	6.767539	0.000454	4.544817	1.539826	0.036298
  69	3.4000e-02	2.6887	6.981294	0.000535	5.352784	1.813572	0.042751
  70	3.4500e-02	2.7256	7.154717	0.000434	4.342825	1.471389	0.034685
  71	3.5000e-02	2.7689	7.356372	0.000505	5.049797	1.710917	0.040331
  72	3.5500e-02	2.8058	7.505596	0.000374	3.736849	1.266079	0.029845
  73	3.6000e-02	2.8555	7.771781	0.000667	6.665731	2.258411	0.053237
  74	3.6500e-02	2.8940	8.058131	0.000717	7.170711	2.429503	0.057270
  75	3.7000e-02	2.9229	8.243654	0.000465	4.645813	1.574044	0.037105
  76	3.7500e-02	2.9742	8.574368	0.000828	8.281666	2.805904	0.066143
  77	3.8000e-02	3.0111	8.957512	0.000959	9.594613	3.250743	0.076629
  78	3.8500e-02	3.0496	9.001876	0.000111	1.110955	0.376402	0.008873
  79	3.9000e-02	3.0898	9.030108	0.000071	0.706972	0.239528	0.005646
  80	3.9500e-02	3.1299	9.449550	0.001050	10.503577	3.558708	0.083888
  81	4.0000e-02	3.1619	9.510047	0.000151	1.514939	0.513275	0.012099
  82	4.0500e-02	3.2149	9.949654	0.001101	11.008556	3.729800	0.087922
  83	4.1000e-02	3.2502	10.155342	0.000515	5.150792	1.745136	0.041138
  84	4.1500e-02	3.2887	10.135177	-0.000050	-0.504980	-0.171092	-0.004033
  85	4.2000e-02	3.3240	10.352964	0.000545	5.453780	1.847791	0.043557
  86	4.2500e-02	3.3657	10.598983	0.000616	6.160752	2.087319	0.049204
  87	4.3000e-02	3.4058	10.659480	0.000151	1.514939	0.513275	0.012099
  88	4.3500e-02	3.4475	11.054723	0.000990	9.897601	3.353398	0.079049
  89	4.4000e-02	3.4844	11.296709	0.000606	6.059756	2.053101	0.048397
  90	4.4500e-02	3.5341	11.361239	0.000162	1.615935	0.547494	0.012906
  91	4.5000e-02	3.5662	11.728251	0.000919	9.190630	3.113870	0.073402
  92	4.5500e-02	3.6191	11.962170	0.000586	5.857764	1.984664	0.046784
  93	4.6000e-02	3.6560	12.091230	0.000323	3.231870	1.094987	0.025812
  94	4.6500e-02	3.6913	12.551003	0.001151	11.513536	3.900892	0.091955
  95	4.7000e-02	3.7330	12.651830	0.000252	2.524898	0.855459	0.020165
  96	4.7500e-02	3.7667	12.930114	0.000697	6.968719	2.361066	0.055657
  97	4.8000e-02	3.8020	13.010776	0.000202	2.019919	0.684367	0.016132
  98	4.8500e-02	3.8502	13.155968	0.000364	3.635853	1.231861	0.029038
  99	4.9000e-02	3.8887	13.518947	0.000909	9.089634	3.079651	0.072596
 100	4.9500e-02	3.9256	13.672204	0.000384	3.837845	1.300297	0.030652
 101	5.0000e-02	3.9705	13.958554	0.000717	7.170711	2.429503	0.057270
 102	5.0500e-02	4.0058	14.027117	0.000172	1.716931	0.581712	0.013713
 103	5.1000e-02	4.0523	14.321533	0.000737	7.372703	2.497939	0.058883
 104	5.1500e-02	4.0972	14.579651	0.000646	6.463740	2.189974	0.051624
 105	5.2000e-02	4.1261	14.769207	0.000475	4.746809	1.608262	0.037911
 106	5.2500e-02	4.1710	14.914399	0.000364	3.635853	1.231861	0.029038
 107	5.3000e-02	4.2191	15.305609	0.000980	9.796605	3.319180	0.078242
 108	5.3500e-02	4.2432	15.374172	0.000172	1.716931	0.581712	0.013713
 109	5.4000e-02	4.2977	15.680687	0.000768	7.675691	2.600594	0.061303
 110	5.4500e-02	4.3346	15.870243	0.000475	4.746809	1.608262	0.037911
 111	5.5000e-02	4.3651	16.075931	0.000515	5.150792	1.745136	0.041138
 112	5.5500e-02	4.4036	16.487307	0.001030	10.301585	3.490271	0.082275
 113	5.6000e-02	4.4453	16.676863	0.000475	4.746809	1.608262	0.037911
 114	5.6500e-02	4.4919	16.777690	0.000252	2.524898	0.855459	0.020165
 115	5.7000e-02	4.5320	16.781723	0.000010	0.100996	0.034218	0.000807
 116	5.7500e-02	4.5705	16.979345	0.000495	4.948801	1.676699	0.039524
 117	5.8000e-02	4.6234	17.277794	0.000747	7.473699	2.532158	0.059690
 118	5.8500e-02	4.6507	17.632707	0.000889	8.887642	3.011215	0.070983
 119	5.9000e-02	4.6924	17.600442	-0.000081	-0.807967	-0.273747	-0.006453
 120	5.9500e-02	4.7277	18.213473	0.001535	15.351381	5.201189	0.122606
 121	6.0000e-02	4.7710	18.092480	-0.000303	-3.029878	-1.026550	-0.024199
 122	6.0500e-02	4.8111	18.616783	0.001313	13.129471	4.448385	0.104861
 123	6.1000e-02	4.8512	18.858769	0.000606	6.059756	2.053101	0.048397
 124	6.1500e-02	4.8913	19.056391	0.000495	4.948801	1.676699	0.039524
 125	6.2000e-02	4.9250	19.278211	0.000555	5.554776	1.882009	0.044364
 126	6.2500e-02	4.9699	19.439535	0.000404	4.039837	1.368734	0.032265
 127	6.3000e-02	5.0116	19.693620	0.000636	6.362744	2.155756	0.050817
 128	6.3500e-02	5.0437	20.068699	0.000939	9.392622	3.182306	0.075016
 129	6.4000e-02	5.0854	20.238089	0.000424	4.241829	1.437171	0.033878
 130	6.4500e-02	5.1303	20.221956	-0.000040	-0.403984	-0.136873	-0.003226
 131	6.5000e-02	5.1608	20.617200	0.000990	9.897601	3.353398	0.079049
 132	6.5500e-02	5.2122	20.988245	0.000929	9.291626	3.148088	0.074209
 133	6.6000e-02	5.2490	21.081006	0.000232	2.322906	0.787022	0.018552
 134	6.6500e-02	5.2940	21.278628	0.000495	4.948801	1.676699	0.039524
 135	6.7000e-02	5.3228	21.564978	0.000717	7.170711	2.429503	0.057270
 136	6.7500e-02	5.3742	21.641607	0.000192	1.918923	0.650149	0.015326
 137	6.8000e-02	5.4047	22.032818	0.000980	9.796605	3.319180	0.078242
 138	6.8500e-02	5.4544	22.327234	0.000737	7.372703	2.497939	0.058883
 139	6.9000e-02	5.4897	22.319168	-0.000020	-0.201992	-0.068437	-0.001613
 140	6.9500e-02	5.5314	22.682147	0.000909	9.089634	3.079651	0.072596
 141	7.0000e-02	5.5651	22.815239	0.000333	3.332866	1.129205	0.026618
 142	7.0500e-02	5.6196	23.053192	0.000596	5.958760	2.018883	0.047591
 143	7.1000e-02	5.6437	23.279045	0.000566	5.655772	1.916227	0.045171
 144	7.1500e-02	5.6870	23.621859	0.000858	8.584654	2.908560	0.068563
 145	7.2000e-02	5.7271	23.807381	0.000465	4.645813	1.574044	0.037105
 146	7.2500e-02	5.7656	24.105830	0.000747	7.473699	2.532158	0.059690
 147	7.3000e-02	5.8169	24.021135	-0.000212	-2.120915	-0.718585	-0.016939
 148	7.3500e-02	5.8538	24.497041	0.001192	11.917520	4.037765	0.095181
 149	7.4000e-02	5.8923	24.646266	0.000374	3.736849	1.266079	0.029845
 150	7.4500e-02	5.9180	24.912450	0.000667	6.665731	2.258411	0.053237
 151	7.5000e-02	5.9758	25.222999	0.000778	7.776687	2.634813	0.062110
 152	7.5500e-02	6.0095	25.251230	0.000071	0.706972	0.239528	0.005646
 153	7.6000e-02	6.0464	25.711004	0.001151	11.513536	3.900892	0.091955
 154	7.6500e-02	6.0945	25.860228	0.000374	3.736849	1.266079	0.029845
 155	7.7000e-02	6.1266	25.823930	-0.000091	-0.908963	-0.307965	-0.007260
 156	7.7500e-02	6.1651	26.174810	0.000879	8.786646	2.976996	0.070176
 157	7.8000e-02	6.1988	26.457127	0.000707	7.069715	2.395284	0.056463
 158	7.8500e-02	6.2549	26.574087	0.000293	2.928882	0.992332	0.023392
 159	7.9000e-02	6.2886	26.981430	0.001020	10.200589	3.456053	0.081469
 160	7.9500e-02	6.3303	27.094356	0.000283	2.827886	0.958114	0.022585
 161	8.0000e-02	6.3704	27.372640	0.000697	6.968719	2.361066	0.055657
 162	8.0500e-02	6.4201	27.574295	0.000505	5.049797	1.710917	0.040331
 163	8.1000e-02	6.4458	28.191359	0.001545	15.452377	5.235407	0.123413
 164	8.1500e-02	6.4939	28.380915	0.000475	4.746809	1.608262	0.037911
 165	8.2000e-02	6.5260	28.263955	-0.000293	-2.928882	-0.992332	-0.023392
 166	8.2500e-02	6.5661	28.570470	0.000768	7.675691	2.600594	0.061303
 167	8.3000e-02	6.6046	28.844721	0.000687	6.867723	2.326848	0.054850
 168	8.3500e-02	6.6447	29.066542	0.000555	5.554776	1.882009	0.044364
 169	8.4000e-02	6.6848	29.054442	-0.000030	-0.302988	-0.102655	-0.002420
 170	8.4500e-02	6.7217	29.477918	0.001060	10.604573	3.592926	0.084695
 171	8.5000e-02	6.7715	29.675540	0.000495	4.948801	1.676699	0.039524
 172	8.5500e-02	6.8068	29.832830	0.000394	3.938841	1.334516	0.031458
 173	8.6000e-02	6.8549	30.046585	0.000535	5.352784	1.813572	0.042751
 174	8.6500e-02	6.8822	30.482159	0.001091	10.907560	3.695582	0.087115
 175	8.7000e-02	6.9271	30.490225	0.000020	0.201992	0.068437	0.001613
 176	8.7500e-02	6.9672	30.877403	0.000970	9.695609	3.284961	0.077435
 177	8.8000e-02	7.0025	31.119389	0.000606	6.059756	2.053101	0.048397
 178	8.8500e-02	7.0458	31.353309	0.000586	5.857764	1.984664	0.046784
 179	8.9000e-02	7.0891	31.268613	-0.000212	-2.120915	-0.718585	-0.016939
 180	8.9500e-02	7.1292	31.768718	0.001252	12.523495	4.243075	0.100021
 181	9.0000e-02	7.1581	31.978439	0.000525	5.251788	1.779354	0.041944
 182	9.0500e-02	7.2094	32.248656	0.000677	6.766727	2.292629	0.054044
 183	9.1000e-02	7.2511	32.462411	0.000535	5.352784	1.813572	0.042751
 184	9.1500e-02	7.2848	32.728595	0.000667	6.665731	2.258411	0.053237
 185	9.2000e-02	7.3233	32.825390	0.000242	2.423902	0.821240	0.019359
 186	9.2500e-02	7.3682	32.974614	0.000374	3.736849	1.266079	0.029845
 187	9.3000e-02	7.4100	33.305328	0.000828	8.281666	2.805904	0.066143
 188	9.3500e-02	7.4581	33.462619	0.000394	3.938841	1.334516	0.031458
 189	9.4000e-02	7.4918	33.769135	0.000768	7.675691	2.600594	0.061303
 190	9.4500e-02	7.5335	33.906260	0.000343	3.433862	1.163424	0.027425
 191	9.5000e-02	7.5752	34.015154	0.000273	2.726890	0.923895	0.021779
 192	9.5500e-02	7.6041	34.321669	0.000768	7.675691	2.600594	0.061303
 193	9.6000e-02	7.6474	34.773376	0.001131	11.311544	3.832455	0.090341
 194	9.6500e-02	7.6875	34.979064	0.000515	5.150792	1.745136	0.041138
 195	9.7000e-02	7.7260	35.261381	0.000707	7.069715	2.395284	0.056463
 196	9.7500e-02	7.7677	35.523532	0.000656	6.564735	2.224193	0.052430
 197	9.8000e-02	7.8110	35.463036	-0.000151	-1.514939	-0.513275	-0.012099
 198	9.8500e-02	7.8575	35.721154	0.000646	6.463740	2.189974	0.051624
 199	9.9000e-02	7.8896	36.092199	0.000929	9.291626	3.148088	0.074209
 200	9.9500e-02	7.9217	36.265623	0.000434	4.342825	1.471389	0.034685
 201	1.0000e-01	7.9730	36.600370	0.000838	8.382662	2.840123	0.066949
 202	1.0050e-01	8.0035	36.765727	0.000414	4.140833	1.402952	0.033071
 203	1.0100e-01	8.0484	36.955282	0.000475	4.746809	1.608262	0.037911
 204	1.0150e-01	8.0934	37.156937	0.000505	5.049797	1.710917	0.040331
 205	1.0200e-01	8.1303	37.249699	0.000232	2.322906	0.787022	0.018552
 206	1.0250e-01	8.1704	37.636876	0.000970	9.695609	3.284961	0.077435
 207	1.0300e-01	8.2169	37.943392	0.000768	7.675691	2.600594	0.061303
 208	1.0350e-01	8.2570	38.003888	0.000151	1.514939	0.513275	0.012099
 209	1.0400e-01	8.2875	38.411231	0.001020	10.200589	3.456053	0.081469
 210	1.0450e-01	8.3244	38.560456	0.000374	3.736849	1.266079	0.029845
 211	1.0500e-01	8.3677	38.697581	0.000343	3.433862	1.163424	0.027425
 212	1.0550e-01	8.4142	38.879071	0.000454	4.544817	1.539826	0.036298
 213	1.0600e-01	8.4575	39.052494	0.000434	4.342825	1.471389	0.034685
 214	1.0650e-01	8.4928	39.419506	0.000919	9.190630	3.113870	0.073402
 215	1.0700e-01	8.5217	39.681657	0.000656	6.564735	2.224193	0.052430
 216	1.0750e-01	8.5762	39.923643	0.000606	6.059756	2.053101	0.048397
 217	1.0800e-01	8.6131	40.266456	0.000858	8.584654	2.908560	0.068563
 218	1.0850e-01	8.6452	40.415681	0.000374	3.736849	1.266079	0.029845
 219	1.0900e-01	8.6917	40.629435	0.000535	5.352784	1.813572	0.042751
 220	1.0950e-01	8.7318	40.810925	0.000454	4.544817	1.539826	0.036298
 221	1.1000e-01	8.7719	41.069043	0.000646	6.463740	2.189974	0.051624
 222	1.1050e-01	8.8088	41.343294	0.000687	6.867723	2.326848	0.054850
 223	1.1100e-01	8.8554	41.544949	0.000505	5.049797	1.710917	0.040331
 224	1.1150e-01	8.8955	41.686107	0.000353	3.534858	1.197642	0.028232
 225	1.1200e-01	8.9308	41.944225	0.000646	6.463740	2.189974	0.051624
 226	1.1250e-01	8.9709	42.109583	0.000414	4.140833	1.402952	0.033071
 227	1.1300e-01	9.0094	42.460462	0.000879	8.786646	2.976996	0.070176
 228	1.1350e-01	9.0479	42.706481	0.000616	6.160752	2.087319	0.049204
 229	1.1400e-01	9.0896	42.984765	0.000697	6.968719	2.361066	0.055657
 230	1.1450e-01	9.1249	43.125923	0.000353	3.534858	1.197642	0.028232
 231	1.1500e-01	9.1650	43.150122	0.000061	0.605976	0.205310	0.004840
 232	1.1550e-01	9.2067	43.404207	0.000636	6.362744	2.155756	0.050817
 233	1.1600e-01	9.2548	43.747021	0.000858	8.584654	2.908560	0.068563
 234	1.1650e-01	9.2917	43.956742	0.000525	5.251788	1.779354	0.041944
 235	1.1700e-01	9.3334	44.162430	0.000515	5.150792	1.745136	0.041138
 236	1.1750e-01	9.3639	44.545574	0.000959	9.594613	3.250743	0.076629
 237	1.1800e-01	9.4120	44.759328	0.000535	5.352784	1.813572	0.042751
 238	1.1850e-01	9.4602	44.839990	0.000202	2.019919	0.684367	0.016132
 239	1.1900e-01	9.4842	45.110208	0.000677	6.766727	2.292629	0.054044
 240	1.1950e-01	9.5324	45.380425	0.000677	6.766727	2.292629	0.054044
 241	1.2000e-01	9.5676	45.557882	0.000444	4.443821	1.505607	0.035491
 242	1.2050e-01	9.6061	45.844232	0.000717	7.170711	2.429503	0.057270
 243	1.2100e-01	9.6543	46.255608	0.001030	10.301585	3.490271	0.082275
 244	1.2150e-01	9.6928	46.529859	0.000687	6.867723	2.326848	0.054850
 245	1.2200e-01	9.7297	46.687149	0.000394	3.938841	1.334516	0.031458
 246	1.2250e-01	9.7730	46.715381	0.000071	0.706972	0.239528	0.005646
 247	1.2300e-01	9.8083	46.989632	0.000687	6.867723	2.326848	0.054850
 248	1.2350e-01	9.8564	47.231618	0.000606	6.059756	2.053101	0.048397
 249	1.2400e-01	9.8821	47.296147	0.000162	1.615935	0.547494	0.012906
 250	1.2450e-01	9.9254	47.618795	0.000808	8.079674	2.737468	0.064530
 251	1.2500e-01	9.9783	47.743821	0.000313	3.130874	1.060769	0.025005
 252	1.2550e-01	10.0136	47.965642	0.000555	5.554776	1.882009	0.044364
 253	1.2600e-01	10.0489	48.203594	0.000596	5.958760	2.018883	0.047591
 254	1.2650e-01	10.0970	48.461713	0.000646	6.463740	2.189974	0.051624
 255	1.2700e-01	10.1291	48.663368	0.000505	5.049797	1.710917	0.040331
 256	1.2750e-01	10.1644	48.913420	0.000626	6.261748	2.121538	0.050010
 257	1.2800e-01	10.2077	49.183637	0.000677	6.766727	2.292629	0.054044
 258	1.2850e-01	10.2510	49.369160	0.000465	4.645813	1.574044	0.037105
 259	1.2900e-01	10.2928	49.526451	0.000394	3.938841	1.334516	0.031458
 260	1.2950e-01	10.3248	49.744238	0.000545	5.453780	1.847791	0.043557
 261	1.3000e-01	10.3714	50.204011	0.001151	11.513536	3.900892	0.091955
 262	1.3050e-01	10.4067	50.369368	0.000414	4.140833	1.402952	0.033071
 263	1.3100e-01	10.4468	50.748480	0.000949	9.493617	3.216525	0.075822
 264	1.3150e-01	10.4917	50.857373	0.000273	2.726890	0.923895	0.021779
 265	1.3200e-01	10.5286	51.042896	0.000465	4.645813	1.574044	0.037105
 266	1.3250e-01	10.5735	51.309080	0.000667	6.665731	2.258411	0.053237
 267	1.3300e-01	10.6040	51.530901	0.000555	5.554776	1.882009	0.044364
 268	1.3350e-01	10.6441	51.672059	0.000353	3.534858	1.197642	0.028232
 269	1.3400e-01	10.6842	51.857582	0.000465	4.645813	1.574044	0.037105
 270	1.3450e-01	10.7291	52.232660	0.000939	9.392622	3.182306	0.075016
 271	1.3500e-01	10.7660	52.406083	0.000434	4.342825	1.471389	0.034685
 272	1.3550e-01	10.8045	52.567407	0.000404	4.039837	1.368734	0.032265
 273	1.3600e-01	10.8558	52.680334	0.000283	2.827886	0.958114	0.022585
 274	1.3650e-01	10.8847	53.015081	0.000838	8.382662	2.840123	0.066949
 275	1.3700e-01	10.9264	53.495020	0.001202	12.018516	4.071983	0.095988
 276	1.3750e-01	10.9681	53.688609	0.000485	4.847805	1.642481	0.038718
 277	1.3800e-01	11.0115	54.144349	0.001141	11.412540	3.866673	0.091148
 278	1.3850e-01	11.0516	54.112084	-0.000081	-0.807967	-0.273747	-0.006453
 279	1.3900e-01	11.0933	54.301640	0.000475	4.746809	1.608262	0.037911
 280	1.3950e-01	11.1254	54.341971	0.000101	1.009959	0.342183	0.008066
 281	1.4000e-01	11.1639	54.753347	0.001030	10.301585	3.490271	0.082275
 282	1.4050e-01	11.2056	54.745280	-0.000020	-0.201992	-0.068437	-0.001613
 283	1.4100e-01	11.2553	55.132458	0.000970	9.695609	3.284961	0.077435
 284	1.4150e-01	11.2810	55.301848	0.000424	4.241829	1.437171	0.033878
 285	1.4200e-01	11.3275	55.507536	0.000515	5.150792	1.745136	0.041138
 286	1.4250e-01	11.3708	55.854383	0.000869	8.685650	2.942778	0.069369
 287	1.4300e-01	11.4141	55.846316	-0.000020	-0.201992	-0.068437	-0.001613
 288	1.4350e-01	11.4478	55.943111	0.000242	2.423902	0.821240	0.019359
 289	1.4400e-01	11.4847	56.128633	0.000465	4.645813	1.574044	0.037105
 290	1.4450e-01	11.5376	56.568241	0.001101	11.008556	3.729800	0.087922
 291	1.4500e-01	11.5649	56.814260	0.000616	6.160752	2.087319	0.049204
 292	1.4550e-01	11.6162	57.116742	0.000757	7.574695	2.566376	0.060496
 293	1.4600e-01	11.6435	57.407126	0.000727	7.271707	2.463721	0.058077
 294	1.4650e-01	11.6852	57.665244	0.000646	6.463740	2.189974	0.051624
 295	1.4700e-01	11.7318	57.762038	0.000242	2.423902	0.821240	0.019359
 296	1.4750e-01	11.7542	58.032256	0.000677	6.766727	2.292629	0.054044
 297	1.4800e-01	11.8088	58.306506	0.000687	6.867723	2.326848	0.054850
 298	1.4850e-01	11.8553	58.459764	0.000384	3.837845	1.300297	0.030652
 299	1.4900e-01	11.8874	58.802578	0.000858	8.584654	2.908560	0.068563
 300	1.4950e-01	11.9307	58.919537	0.000293	2.928882	0.992332	0.023392
 301	1.5000e-01	11.9660	59.076828	0.000394	3.938841	1.334516	0.031458
 302	1.5050e-01	12.0045	59.387377	0.000778	7.776687	2.634813	0.062110
 303	1.5100e-01	12.0526	59.605164	0.000545	5.453780	1.847791	0.043557
 304	1.5150e-01	12.0911	59.677760	0.000182	1.817927	0.615930	0.014519
 305	1.5200e-01	12.1264	60.008474	0.000828	8.281666	2.805904	0.066143
 306	1.5250e-01	12.1681	60.258526	0.000626	6.261748	2.121538	0.050010
 307	1.5300e-01	12.2098	60.367420	0.000273	2.726890	0.923895	0.021779
 308	1.5350e-01	12.2483	60.613439	0.000616	6.160752	2.087319	0.049204
 309	1.5400e-01	12.2932	60.782829	0.000424	4.241829	1.437171	0.033878
 310	1.5450e-01	12.3253	61.137742	0.000889	8.887642	3.011215	0.070983
 311	1.5500e-01	12.3606	61.355529	0.000545	5.453780	1.847791	0.043557
 312	1.5550e-01	12.4071	61.710442	0.000889	8.887642	3.011215	0.070983
 313	1.5600e-01	12.4472	61.823368	0.000283	2.827886	0.958114	0.022585
 314	1.5650e-01	12.4873	61.758839	-0.000162	-1.615935	-0.547494	-0.012906
 315	1.5700e-01	12.5323	62.101652	0.000858	8.584654	2.908560	0.068563
 316	1.5750e-01	12.5692	62.400102	0.000747	7.473699	2.532158	0.059690
 317	1.5800e-01	12.6093	62.484797	0.000212	2.120915	0.718585	0.016939
 318	1.5850e-01	12.6365	63.005066	0.001303	13.028475	4.414167	0.104054
 319	1.5900e-01	12.6879	63.081695	0.000192	1.918923	0.650149	0.015326
 320	1.5950e-01	12.7328	63.267218	0.000465	4.645813	1.574044	0.037105
 321	1.6000e-01	12.7617	63.489038	0.000555	5.554776	1.882009	0.044364
 322	1.6050e-01	12.8002	63.710859	0.000555	5.554776	1.882009	0.044364
 323	1.6100e-01	12.8563	63.985109	0.000687	6.867723	2.326848	0.054850
 324	1.6150e-01	12.8980	64.267426	0.000707	7.069715	2.395284	0.056463
 325	1.6200e-01	12.9285	64.356154	0.000222	2.221910	0.752804	0.017746
 326	1.6250e-01	12.9766	64.569909	0.000535	5.352784	1.813572	0.042751
 327	1.6300e-01	12.9991	64.755431	0.000465	4.645813	1.574044	0.037105
 328	1.6350e-01	13.0456	65.033715	0.000697	6.968719	2.361066	0.055657
 329	1.6400e-01	13.0921	65.283767	0.000626	6.261748	2.121538	0.050010
 330	1.6450e-01	13.1242	65.279734	-0.000010	-0.100996	-0.034218	-0.000807
 331	1.6500e-01	13.1547	65.674978	0.000990	9.897601	3.353398	0.079049
 332	1.6550e-01	13.2012	66.086354	0.001030	10.301585	3.490271	0.082275
 333	1.6600e-01	13.2462	66.215413	0.000323	3.231870	1.094987	0.025812
 334	1.6650e-01	13.2847	66.437233	0.000555	5.554776	1.882009	0.044364
 335	1.6700e-01	13.3215	66.602590	0.000414	4.140833	1.402952	0.033071
 336	1.6750e-01	13.3713	66.719550	0.000293	2.928882	0.992332	0.023392
 337	1.6800e-01	13.4050	66.909106	0.000475	4.746809	1.608262	0.037911
 338	1.6850e-01	13.4451	67.199489	0.000727	7.271707	2.463721	0.058077
 339	1.6900e-01	13.4916	67.578600	0.000949	9.493617	3.216525	0.075822
 340	1.6950e-01	13.5221	67.691527	0.000283	2.827886	0.958114	0.022585
 341	1.7000e-01	13.5606	67.812520	0.000303	3.029878	1.026550	0.024199
 342	1.7050e-01	13.6055	68.139201	0.000818	8.180670	2.771686	0.065336
 343	1.7100e-01	13.6440	68.272293	0.000333	3.332866	1.129205	0.026618
 344	1.7150e-01	13.6873	68.534445	0.000656	6.564735	2.224193	0.052430
 345	1.7200e-01	13.7290	68.861126	0.000818	8.180670	2.771686	0.065336
 346	1.7250e-01	13.7707	69.159575	0.000747	7.473699	2.532158	0.059690
 347	1.7300e-01	13.8028	69.361230	0.000505	5.049797	1.710917	0.040331
 348	1.7350e-01	13.8509	69.324932	-0.000091	-0.908963	-0.307965	-0.007260
 349	1.7400e-01	13.8878	69.768573	0.001111	11.109552	3.764018	0.088728
 350	1.7450e-01	13.9151	70.183982	0.001040	10.402581	3.524490	0.083082
 351	1.7500e-01	13.9616	70.014592	-0.000424	-4.241829	-1.437171	-0.033878
 352	1.7550e-01	14.0098	70.131552	0.000293	2.928882	0.992332	0.023392
 353	1.7600e-01	14.0354	70.538895	0.001020	10.200589	3.456053	0.081469
 354	1.7650e-01	14.0787	70.530828	-0.000020	-0.201992	-0.068437	-0.001613
 355	1.7700e-01	14.1237	71.075297	0.001363	13.634451	4.619477	0.108894
 356	1.7750e-01	14.1477	71.406011	0.000828	8.281666	2.805904	0.066143
 357	1.7800e-01	14.2071	71.305183	-0.000252	-2.524898	-0.855459	-0.020165
 358	1.7850e-01	14.2456	71.454408	0.000374	3.736849	1.266079	0.029845
 359	1.7900e-01	14.2841	71.736725	0.000707	7.069715	2.395284	0.056463
 360	1.7950e-01	14.3194	72.119869	0.000959	9.594613	3.250743	0.076629
 361	1.8000e-01	14.3547	72.079538	-0.000101	-1.009959	-0.342183	-0.008066
 362	1.8050e-01	14.4060	72.277160	0.000495	4.948801	1.676699	0.039524
 363	1.8100e-01	14.4461	72.632073	0.000889	8.887642	3.011215	0.070983
 364	1.8150e-01	14.4926	72.966820	0.000838	8.382662	2.840123	0.066949
 365	1.8200e-01	14.5343	72.974886	0.000020	0.201992	0.068437	0.001613
 366	1.8250e-01	14.5761	73.152342	0.000444	4.443821	1.505607	0.035491
 367	1.8300e-01	14.6097	73.325766	0.000434	4.342825	1.471389	0.034685
 368	1.8350e-01	14.6450	73.539520	0.000535	5.352784	1.813572	0.042751
 369	1.8400e-01	14.6835	73.850069	0.000778	7.776687	2.634813	0.062110
 370	1.8450e-01	14.7365	74.221114	0.000929	9.291626	3.148088	0.074209
 371	1.8500e-01	14.7798	74.200948	-0.000050	-0.504980	-0.171092	-0.004033
 372	1.8550e-01	14.8087	74.434868	0.000586	5.857764	1.984664	0.046784
 373	1.8600e-01	14.8424	74.596192	0.000404	4.039837	1.368734	0.032265
 374	1.8650e-01	14.8921	74.922873	0.000818	8.180670	2.771686	0.065336
 375	1.8700e-01	14.9402	75.233421	0.000778	7.776687	2.634813	0.062110
 376	1.8750e-01	14.9691	75.439109	0.000515	5.150792	1.745136	0.041138
 377	1.8800e-01	15.0124	75.644797	0.000515	5.150792	1.745136	0.041138
 378	1.8850e-01	15.0461	75.927114	0.000707	7.069715	2.395284	0.056463
 379	1.8900e-01	15.0846	76.177166	0.000626	6.261748	2.121538	0.050010
 380	1.8950e-01	15.1231	76.394954	0.000545	5.453780	1.847791	0.043557
 381	1.9000e-01	15.1680	76.681304	0.000717	7.170711	2.429503	0.057270
 382	1.9050e-01	15.2049	76.959588	0.000697	6.968719	2.361066	0.055657
 383	1.9100e-01	15.2482	76.830528	-0.000323	-3.231870	-1.094987	-0.025812
 384	1.9150e-01	15.2835	77.064448	0.000586	5.857764	1.984664	0.046784
 385	1.9200e-01	15.3252	77.153176	0.000222	2.221910	0.752804	0.017746
 386	1.9250e-01	15.3669	77.544387	0.000980	9.796605	3.319180	0.078242
 387	1.9300e-01	15.3974	77.649247	0.000263	2.625894	0.889677	0.020972
 388	1.9350e-01	15.4504	77.782340	0.000333	3.332866	1.129205	0.026618
 389	1.9400e-01	15.4857	78.181616	0.001000	9.998597	3.387616	0.079855
 390	1.9450e-01	15.5274	78.544595	0.000909	9.089634	3.079651	0.072596
 391	1.9500e-01	15.5611	78.782548	0.000596	5.958760	2.018883	0.047591
 392	1.9550e-01	15.6012	78.955971	0.000434	4.342825	1.471389	0.034685
 393	1.9600e-01	15.6397	79.185858	0.000576	5.756768	1.950446	0.045977
 394	1.9650e-01	15.6862	79.246354	0.000151	1.514939	0.513275	0.012099
 395	1.9700e-01	15.7263	79.488340	0.000606	6.059756	2.053101	0.048397
 396	1.9750e-01	15.7712	79.645631	0.000394	3.938841	1.334516	0.031458
 397	1.9800e-01	15.7985	79.976345	0.000828	8.281666	2.805904	0.066143
 398	1.9850e-01	15.8530	80.339324	0.000909	9.089634	3.079651	0.072596
 399	1.9900e-01	15.8851	80.419986	0.000202	2.019919	0.684367	0.016132
 400	1.9950e-01	15.9268	80.553078	0.000333	3.332866	1.129205	0.026618
 401	2.0000e-01	15.9701	80.690204	0.000343	3.433862	1.163424	0.027425
 402	2.0050e-01	16.0102	80.903958	0.000535	5.352784	1.813572	0.042751
 403	2.0100e-01	16.0520	81.117712	0.000535	5.352784	1.813572	0.042751
 404	2.0150e-01	16.0840	81.412128	0.000737	7.372703	2.497939	0.058883
 405	2.0200e-01	16.1290	81.734776	0.000808	8.079674	2.737468	0.064530
 406	2.0250e-01	16.1691	81.646048	-0.000222	-2.221910	-0.752804	-0.017746
 407	2.0300e-01	16.2028	82.174384	0.001323	13.230467	4.482604	0.105667
 408	2.0350e-01	16.2493	82.509131	0.000838	8.382662	2.840123	0.066949
 409	2.0400e-01	16.2942	82.533330	0.000061	0.605976	0.205310	0.004840
 410	2.0450e-01	16.3375	82.549462	0.000040	0.403984	0.136873	0.003226
 411	2.0500e-01	16.3664	82.739018	0.000475	4.746809	1.608262	0.037911
 412	2.0550e-01	16.4113	83.073765	0.000838	8.382662	2.840123	0.066949
 413	2.0600e-01	16.4402	83.400446	0.000818	8.180670	2.771686	0.065336
 414	2.0650e-01	16.4867	83.513373	0.000283	2.827886	0.958114	0.022585
 415	2.0700e-01	16.5364	83.561770	0.000121	1.211951	0.410620	0.009679
 416	2.0750e-01	16.5653	83.751326	0.000475	4.746809	1.608262	0.037911
 417	2.0800e-01	16.6038	84.001378	0.000626	6.261748	2.121538	0.050010
 418	2.0850e-01	16.6375	84.211099	0.000525	5.251788	1.779354	0.041944
 419	2.0900e-01	16.6808	84.630541	0.001050	10.503577	3.558708	0.083888
 420	2.0950e-01	16.7289	84.763633	0.000333	3.332866	1.129205	0.026618
 421	2.1000e-01	16.7674	84.924957	0.000404	4.039837	1.368734	0.032265
 422	2.1050e-01	16.8075	85.199208	0.000687	6.867723	2.326848	0.054850
 423	2.1100e-01	16.8493	85.465392	0.000667	6.665731	2.258411	0.053237
 424	2.1150e-01	16.8846	85.868702	0.001010	10.099593	3.421835	0.080662
 425	2.1200e-01	16.9295	85.848537	-0.000050	-0.504980	-0.171092	-0.004033
 426	2.1250e-01	16.9744	86.102622	0.000636	6.362744	2.155756	0.050817
 427	2.1300e-01	17.0177	86.098589	-0.000010	-0.100996	-0.034218	-0.000807
 428	2.1350e-01	17.0498	86.130854	0.000081	0.807967	0.273747	0.006453
 429	2.1400e-01	17.0899	86.715653	0.001464	14.644410	4.961660	0.116960
 430	2.1450e-01	17.1252	86.885043	0.000424	4.241829	1.437171	0.033878
 431	2.1500e-01	17.1637	87.187526	0.000757	7.574695	2.566376	0.060496
 432	2.1550e-01	17.2070	87.429512	0.000606	6.059756	2.053101	0.048397
 433	2.1600e-01	17.2567	87.389181	-0.000101	-1.009959	-0.342183	-0.008066
 434	2.1650e-01	17.2920	87.441611	0.000131	1.312947	0.444839	0.010486
 435	2.1700e-01	17.3418	87.731994	0.000727	7.271707	2.463721	0.058077
 436	2.1750e-01	17.3738	88.086907	0.000889	8.887642	3.011215	0.070983
 437	2.1800e-01	17.3995	88.409554	0.000808	8.079674	2.737468	0.064530
 438	2.1850e-01	17.4573	88.683805	0.000687	6.867723	2.326848	0.054850
 439	2.1900e-01	17.4845	88.853195	0.000424	4.241829	1.437171	0.033878
 440	2.1950e-01	17.5295	88.845129	-0.000020	-0.201992	-0.068437	-0.001613
 441	2.2000e-01	17.5631	89.175843	0.000828	8.281666	2.805904	0.066143
 442	2.2050e-01	17.6049	89.337167	0.000404	4.039837	1.368734	0.032265
 443	2.2100e-01	17.6562	89.429928	0.000232	2.322906	0.787022	0.018552
 444	2.2150e-01	17.6883	89.732411	0.000757	7.574695	2.566376	0.060496
 445	2.2200e-01	17.7268	90.026827	0.000737	7.372703	2.497939	0.058883
 446	2.2250e-01	17.7717	90.297045	0.000677	6.766727	2.292629	0.054044
 447	2.2300e-01	17.8070	90.446269	0.000374	3.736849	1.266079	0.029845
 448	2.2350e-01	17.8391	90.732619	0.000717	7.170711	2.429503	0.057270
 449	2.2400e-01	17.8824	90.841513	0.000273	2.726890	0.923895	0.021779
 450	2.2450e-01	17.9241	91.067366	0.000566	5.655772	1.916227	0.045171
 451	2.2500e-01	17.9690	91.228690	0.000404	4.039837	1.368734	0.032265
 452	2.2550e-01	18.0139	91.442445	0.000535	5.352784	1.813572	0.042751
 453	2.2600e-01	18.0556	91.761059	0.000798	7.978678	2.703249	0.063723
 454	2.2650e-01	18.0909	91.894152	0.000333	3.332866	1.129205	0.026618
 455	2.2700e-01	18.1278	91.861887	-0.000081	-0.807967	-0.273747	-0.006453
 456	2.2750e-01	18.1695	92.128071	0.000667	6.665731	2.258411	0.053237
 457	2.2800e-01	18.2161	92.587845	0.001151	11.513536	3.900892	0.091955
 458	2.2850e-01	18.2449	92.737069	0.000374	3.736849	1.266079	0.029845
 459	2.2900e-01	18.2834	92.793533	0.000141	1.413943	0.479057	0.011293
 460	2.2950e-01	18.3300	93.229107	0.001091	10.907560	3.695582	0.087115
 461	2.3000e-01	18.3653	93.317835	0.000222	2.221910	0.752804	0.017746
 462	2.3050e-01	18.4054	93.366233	0.000121	1.211951	0.410620	0.009679
 463	2.3100e-01	18.4487	93.628384	0.000656	6.564735	2.224193	0.052430
 464	2.3150e-01	18.4936	93.914734	0.000717	7.170711	2.429503	0.057270
 465	2.3200e-01	18.5289	94.047826	0.000333	3.332866	1.129205	0.026618
 466	2.3250e-01	18.5690	94.152687	0.000263	2.625894	0.889677	0.020972
 467	2.3300e-01	18.6107	94.576162	0.001060	10.604573	3.592926	0.084695
 468	2.3350e-01	18.6412	94.890744	0.000788	7.877683	2.669031	0.062916
 469	2.3400e-01	18.6877	94.894777	0.000010	0.100996	0.034218	0.000807
 470	2.3450e-01	18.7294	95.173061	0.000697	6.968719	2.361066	0.055657
 471	2.3500e-01	18.7647	95.213392	0.000101	1.009959	0.342183	0.008066
 472	2.3550e-01	18.8112	95.596536	0.000959	9.594613	3.250743	0.076629
 473	2.3600e-01	18.8497	95.737695	0.000353	3.534858	1.197642	0.028232
 474	2.3650e-01	18.8898	96.056309	0.000798	7.978678	2.703249	0.063723
 475	2.3700e-01	18.9283	96.149071	0.000232	2.322906	0.787022	0.018552
 476	2.3750e-01	18.9652	96.487851	0.000848	8.483658	2.874341	0.067756
 477	2.3800e-01	19.0086	96.403156	-0.000212	-2.120915	-0.718585	-0.016939
 478	2.3850e-01	19.0551	96.790333	0.000970	9.695609	3.284961	0.077435
 479	2.3900e-01	19.0872	96.870995	0.000202	2.019919	0.684367	0.016132
 480	2.3950e-01	19.1257	97.181544	0.000778	7.776687	2.634813	0.062110
 481	2.4000e-01	19.1642	97.439662	0.000646	6.463740	2.189974	0.051624
 482	2.4050e-01	19.2107	97.572754	0.000333	3.332866	1.129205	0.026618
 483	2.4100e-01	19.2524	97.838939	0.000667	6.665731	2.258411	0.053237
 484	2.4150e-01	19.2957	97.955899	0.000293	2.928882	0.992332	0.023392
 485	2.4200e-01	19.3358	98.205951	0.000626	6.261748	2.121538	0.050010
 486	2.4250e-01	19.3647	98.673790	0.001172	11.715528	3.969328	0.093568
 487	2.4300e-01	19.4144	98.585062	-0.000222	-2.221910	-0.752804	-0.017746
 488	2.4350e-01	19.4513	98.746386	0.000404	4.039837	1.368734	0.032265
 489	2.4400e-01	19.4834	99.032736	0.000717	7.170711	2.429503	0.057270
 490	2.4450e-01	19.5251	99.206159	0.000434	4.342825	1.471389	0.034685
 491	2.4500e-01	19.5588	99.508642	0.000757	7.574695	2.566376	0.060496
 492	2.4550e-01	19.6150	99.476377	-0.000081	-0.807967	-0.273747	-0.006453
 493	2.4600e-01	19.6519	99.633668	0.000394	3.938841	1.334516	0.031458
 494	2.4650e-01	19.6904	99.988581	0.000889	8.887642	3.011215	0.070983
 495	2.4700e-01	19.7321	100.162004	0.000434	4.342825	1.471389	0.034685
 496	2.4750e-01	19.7658	100.440288	0.000697	6.968719	2.361066	0.055657
 497	2.4800e-01	19.8091	100.775035	0.000838	8.382662	2.840123	0.066949
 498	2.4850e-01	19.8428	101.065418	0.000727	7.271707	2.463721	0.058077
 499	2.4900e-01	19.8845	101.194477	0.000323	3.231870	1.094987	0.025812
 500	2.4950e-01	19.9374	101.315470	0.000303	3.029878	1.026550	0.024199
 501	2.5000e-01	19.9615	101.351768	0.000091	0.908963	0.307965	0.007260
 502	2.5050e-01	19.9743	101.452595	0.000252	2.524898	0.855459	0.020165
 503	2.5100e-01	19.9470	101.424364	0.000071	0.706972	0.239528	-0.005646
 504	2.5150e-01	19.9117	101.133981	0.000727	7.271707	2.463721	-0.058077
 505	2.5200e-01	19.8652	100.795200	0.000848	8.483658	2.874341	-0.067756
 506	2.5250e-01	19.8347	100.924259	-0.000323	-3.231870	-1.094987	0.025812
 507	2.5300e-01	19.7946	100.904094	0.000050	0.504980	0.171092	-0.004033
 508	2.5350e-01	19.7561	100.456420	0.001121	11.210548	3.798237	-0.089535
 509	2.5400e-01	19.7160	100.278964	0.000444	4.443821	1.505607	-0.035491
 510	2.5450e-01	19.6743	100.222500	0.000141	1.413943	0.479057	-0.011293
 511	2.5500e-01	19.6294	100.178136	0.000111	1.110955	0.376402	-0.008873
 512	2.5550e-01	19.5909	99.807091	0.000929	9.291626	3.148088	-0.074209
 513	2.5600e-01	19.5524	99.742562	0.000162	1.615935	0.547494	-0.012906
 514	2.5650e-01	19.5075	99.544940	0.000495	4.948801	1.676699	-0.039524
 515	2.5700e-01	19.4738	99.504609	0.000101	1.009959	0.342183	-0.008066
 516	2.5750e-01	19.4257	99.157762	0.000869	8.685650	2.942778	-0.069369
 517	2.5800e-01	19.3888	98.790750	0.000919	9.190630	3.113870	-0.073402
 518	2.5850e-01	19.3535	98.903677	-0.000283	-2.827886	-0.958114	0.022585
 519	2.5900e-01	19.3085	98.750419	0.000384	3.837845	1.300297	-0.030652
 520	2.5950e-01	19.2684	98.621360	0.000323	3.231870	1.094987	-0.025812
 521	2.6000e-01	19.2364	98.492301	0.000323	3.231870	1.094987	-0.025812
 522	2.6050e-01	19.1930	98.153521	0.000848	8.483658	2.874341	-0.067756
 523	2.6100e-01	19.1577	98.205951	-0.000131	-1.312947	-0.444839	0.010486
 524	2.6150e-01	19.1160	97.770376	0.001091	10.907560	3.695582	-0.087115
 525	2.6200e-01	19.0791	97.403364	0.000919	9.190630	3.113870	-0.073402
 526	2.6250e-01	19.0342	97.363033	0.000101	1.009959	0.342183	-0.008066
 527	2.6300e-01	18.9973	97.286404	0.000192	1.918923	0.650149	-0.015326
 528	2.6350e-01	18.9540	97.141213	0.000364	3.635853	1.231861	-0.029038
 529	2.6400e-01	18.9139	96.846797	0.000737	7.372703	2.497939	-0.058883
 530	2.6450e-01	18.8738	96.798400	0.000121	1.211951	0.410620	-0.009679
 531	2.6500e-01	18.8289	96.733870	0.000162	1.615935	0.547494	-0.012906
 532	2.6550e-01	18.7840	96.576579	0.000394	3.938841	1.334516	-0.031458
 533	2.6600e-01	18.7551	96.451553	0.000313	3.130874	1.060769	-0.025005
 534	2.6650e-01	18.7118	96.153104	0.000747	7.473699	2.532158	-0.059690
 535	2.6700e-01	18.6701	96.064376	0.000222	2.221910	0.752804	-0.017746
 536	2.6750e-01	18.6348	95.782059	0.000707	7.069715	2.395284	-0.056463
 537	2.6800e-01	18.5882	95.495709	0.000717	7.170711	2.429503	-0.057270
 538	2.6850e-01	18.5594	95.411014	0.000212	2.120915	0.718585	-0.016939
 539	2.6900e-01	18.5112	95.358583	0.000131	1.312947	0.444839	-0.010486
 540	2.6950e-01	18.4808	95.237590	0.000303	3.029878	1.026550	-0.024199
 541	2.7000e-01	18.4391	94.814115	0.001060	10.604573	3.592926	-0.084695
 542	2.7050e-01	18.3909	94.749585	0.000162	1.615935	0.547494	-0.012906
 543	2.7100e-01	18.3524	94.612460	0.000343	3.433862	1.163424	-0.027425
 544	2.7150e-01	18.3171	94.386607	0.000566	5.655772	1.916227	-0.045171
 545	2.7200e-01	18.2754	94.180919	0.000515	5.150792	1.745136	-0.041138
 546	2.7250e-01	18.2369	94.027661	0.000384	3.837845	1.300297	-0.030652
 547	2.7300e-01	18.1920	93.951032	0.000192	1.918923	0.650149	-0.015326
 548	2.7350e-01	18.1503	93.765509	0.000465	4.645813	1.574044	-0.037105
 549	2.7400e-01	18.1118	93.398497	0.000919	9.190630	3.113870	-0.073402
 550	2.7450e-01	18.0653	93.229107	0.000424	4.241829	1.437171	-0.033878
 551	2.7500e-01	18.0380	93.071816	0.000394	3.938841	1.334516	-0.031458
 552	2.7550e-01	17.9963	92.918559	0.000384	3.837845	1.300297	-0.030652
 553	2.7600e-01	17.9498	92.745135	0.000434	4.342825	1.471389	-0.034685
 554	2.7650e-01	17.9145	92.599944	0.000364	3.635853	1.231861	-0.029038
 555	2.7700e-01	17.8679	92.410388	0.000475	4.746809	1.608262	-0.037911
 556	2.7750e-01	17.8375	92.265197	0.000364	3.635853	1.231861	-0.029038
 557	2.7800e-01	17.7925	91.837688	0.001071	10.705569	3.627145	-0.085502
 558	2.7850e-01	17.7508	91.587636	0.000626	6.261748	2.121538	-0.050010
 559	2.7900e-01	17.7107	91.656199	-0.000172	-1.716931	-0.581712	0.013713
 560	2.7950e-01	17.6738	91.426312	0.000576	5.756768	1.950446	-0.045977
 561	2.8000e-01	17.6417	91.212558	0.000535	5.352784	1.813572	-0.042751
 562	2.8050e-01	17.5936	91.083499	0.000323	3.231870	1.094987	-0.025812
 563	2.8100e-01	17.5535	90.764884	0.000798	7.978678	2.703249	-0.063723
 564	2.8150e-01	17.5086	90.595494	0.000424	4.241829	1.437171	-0.033878
 565	2.8200e-01	17.4861	90.688255	-0.000232	-2.322906	-0.787022	0.018552
 566	2.8250e-01	17.4380	90.434170	0.000636	6.362744	2.155756	-0.050817
 567	2.8300e-01	17.4011	90.083290	0.000879	8.786646	2.976996	-0.070176
 568	2.8350e-01	17.3562	90.099423	-0.000040	-0.403984	-0.136873	0.003226
 569	2.8400e-01	17.3033	89.829205	0.000677	6.766727	2.292629	-0.054044
 570	2.8450e-01	17.2696	89.599319	0.000576	5.756768	1.950446	-0.045977
 571	2.8500e-01	17.2391	89.381531	0.000545	5.453780	1.847791	-0.043557
 572	2.8550e-01	17.1926	89.397664	-0.000040	-0.403984	-0.136873	0.003226
 573	2.8600e-01	17.1525	88.978221	0.001050	10.503577	3.558708	-0.083888
 574	2.8650e-01	17.1156	88.925791	0.000131	1.312947	0.444839	-0.010486
 575	2.8700e-01	17.0755	88.792699	0.000333	3.332866	1.129205	-0.026618
 576	2.8750e-01	17.0466	88.441819	0.000879	8.786646	2.976996	-0.070176
 577	2.8800e-01	16.9952	88.264363	0.000444	4.443821	1.505607	-0.035491
 578	2.8850e-01	16.9535	88.296628	-0.000081	-0.807967	-0.273747	0.006453
 579	2.8900e-01	16.9086	87.889285	0.001020	10.200589	3.456053	-0.081469
 580	2.8950e-01	16.8781	87.816689	0.000182	1.817927	0.615930	-0.014519
 581	2.9000e-01	16.8300	87.643266	0.000434	4.342825	1.471389	-0.034685
 582	2.9050e-01	16.7931	87.219790	0.001060	10.604573	3.592926	-0.084695
 583	2.9100e-01	16.7562	87.344816	-0.000313	-3.130874	-1.060769	0.025005
 584	2.9150e-01	16.7177	87.006036	0.000848	8.483658	2.874341	-0.067756
 585	2.9200e-01	16.6696	86.546263	0.001151	11.513536	3.900892	-0.091955
 586	2.9250e-01	16.6391	86.574495	-0.000071	-0.706972	-0.239528	0.005646
 587	2.9300e-01	16.5958	86.328476	0.000616	6.160752	2.087319	-0.049204
 588	2.9350e-01	16.5477	86.284111	0.000111	1.110955	0.376402	-0.008873
 589	2.9400e-01	16.5172	86.183284	0.000252	2.524898	0.855459	-0.020165
 590	2.9450e-01	16.4787	85.880802	0.000757	7.574695	2.566376	-0.060496
 591	2.9500e-01	16.4338	85.667047	0.000535	5.352784	1.813572	-0.042751
 592	2.9550e-01	16.3904	85.392797	0.000687	6.867723	2.326848	-0.054850
 593	2.9600e-01	16.3568	85.158877	0.000586	5.857764	1.984664	-0.046784
 594	2.9650e-01	16.3183	85.187109	-0.000071	-0.706972	-0.239528	0.005646
 595	2.9700e-01	16.2749	85.082248	0.000263	2.625894	0.889677	-0.020972
 596	2.9750e-01	16.2284	84.876560	0.000515	5.150792	1.745136	-0.041138
 597	2.9800e-01	16.1915	84.440985	0.001091	10.907560	3.695582	-0.087115
 598	2.9850e-01	16.1482	84.203033	0.000596	5.958760	2.018883	-0.047591
 599	2.9900e-01	16.1065	84.158669	0.000111	1.110955	0.376402	-0.008873
 600	2.9950e-01	16.0744	83.969113	0.000475	4.746809	1.608262	-0.037911
 601	3.0000e-01	16.0439	83.799723	0.000424	4.241829	1.437171	-0.033878
 602	3.0050e-01	15.9926	83.638399	0.000404	4.039837	1.368734	-0.032265
 603	3.0100e-01	15.9589	83.299619	0.000848	8.483658	2.874341	-0.067756
 604	3.0150e-01	15.9140	83.146361	0.000384	3.837845	1.300297	-0.030652
 605	3.0200e-01	15.8723	83.025368	0.000303	3.029878	1.026550	-0.024199
 606	3.0250e-01	15.8434	82.795481	0.000576	5.756768	1.950446	-0.045977
 607	3.0300e-01	15.7969	82.436535	0.000899	8.988638	3.045433	-0.071789
 608	3.0350e-01	15.7632	82.359907	0.000192	1.918923	0.650149	-0.015326
 609	3.0400e-01	15.7183	82.130020	0.000576	5.756768	1.950446	-0.045977
 610	3.0450e-01	15.6814	81.815438	0.000788	7.877683	2.669031	-0.062916
 611	3.0500e-01	15.6429	81.867869	-0.000131	-1.312947	-0.444839	0.010486
 612	3.0550e-01	15.6012	81.561353	0.000768	7.675691	2.600594	-0.061303
 613	3.0600e-01	15.5482	81.371797	0.000475	4.746809	1.608262	-0.037911
 614	3.0650e-01	15.5081	81.162076	0.000525	5.251788	1.779354	-0.041944
 615	3.0700e-01	15.4776	81.020918	0.000353	3.534858	1.197642	-0.028232
 616	3.0750e-01	15.4327	80.799097	0.000555	5.554776	1.882009	-0.044364
 617	3.0800e-01	15.4006	80.718435	0.000202	2.019919	0.684367	-0.016132
 618	3.0850e-01	15.3573	80.303026	0.001040	10.402581	3.524490	-0.083082
 619	3.0900e-01	15.3092	80.298993	0.000010	0.100996	0.034218	-0.000807
 620	3.0950e-01	15.2819	80.048941	0.000626	6.261748	2.121538	-0.050010
 621	3.1000e-01	15.2306	79.782757	0.000667	6.665731	2.258411	-0.053237
 622	3.1050e-01	15.1953	79.456076	0.000818	8.180670	2.771686	-0.065336
 623	3.1100e-01	15.1488	79.363314	0.000232	2.322906	0.787022	-0.018552
 624	3.1150e-01	15.1183	79.109229	0.000636	6.362744	2.155756	-0.050817
 625	3.1200e-01	15.0621	79.024534	0.000212	2.120915	0.718585	-0.016939
 626	3.1250e-01	15.0381	78.939839	0.000212	2.120915	0.718585	-0.016939
 627	3.1300e-01	14.9851	78.669621	0.000677	6.766727	2.292629	-0.054044
 628	3.1350e-01	14.9579	78.451834	0.000545	5.453780	1.847791	-0.043557
 629	3.1400e-01	14.9178	78.181616	0.000677	6.766727	2.292629	-0.054044
 630	3.1450e-01	14.8793	78.104988	0.000192	1.918923	0.650149	-0.015326
 631	3.1500e-01	14.8263	77.919465	0.000465	4.645813	1.574044	-0.037105
 632	3.1550e-01	14.7990	77.564552	0.000889	8.887642	3.011215	-0.070983
 633	3.1600e-01	14.7477	77.379030	0.000465	4.645813	1.574044	-0.037105
 634	3.1650e-01	14.7204	77.274169	0.000263	2.625894	0.889677	-0.020972
 635	3.1700e-01	14.6787	77.044283	0.000576	5.756768	1.950446	-0.045977
 636	3.1750e-01	14.6338	76.842628	0.000505	5.049797	1.710917	-0.040331
 637	3.1800e-01	14.5953	76.689370	0.000384	3.837845	1.300297	-0.030652
 638	3.1850e-01	14.5536	76.374788	0.000788	7.877683	2.669031	-0.062916
 639	3.1900e-01	14.5039	76.439318	-0.000162	-1.615935	-0.547494	0.012906
 640	3.1950e-01	14.4734	76.173133	0.000667	6.665731	2.258411	-0.053237
 641	3.2000e-01	14.4317	76.019876	0.000384	3.837845	1.300297	-0.030652
 642	3.2050e-01	14.4012	75.580268	0.001101	11.008556	3.729800	-0.087922
 643	3.2100e-01	14.3547	75.616566	-0.000091	-0.908963	-0.307965	0.007260
 644	3.2150e-01	14.3146	75.362480	0.000636	6.362744	2.155756	-0.050817
 645	3.2200e-01	14.2793	74.955138	0.001020	10.200589	3.456053	-0.081469
 646	3.2250e-01	14.2360	74.878509	0.000192	1.918923	0.650149	-0.015326
 647	3.2300e-01	14.2039	74.692986	0.000465	4.645813	1.574044	-0.037105
 648	3.2350e-01	14.1574	74.491331	0.000505	5.049797	1.710917	-0.040331
 649	3.2400e-01	14.1156	74.342107	0.000374	3.736849	1.266079	-0.029845
 650	3.2450e-01	14.0771	74.217080	0.000313	3.130874	1.060769	-0.025005
 651	3.2500e-01	14.0258	74.112220	0.000263	2.625894	0.889677	-0.020972
 652	3.2550e-01	13.9953	73.696811	0.001040	10.402581	3.524490	-0.083082
 653	3.2600e-01	13.9584	73.551619	0.000364	3.635853	1.231861	-0.029038
 654	3.2650e-01	13.9039	73.317699	0.000586	5.857764	1.984664	-0.046784
 655	3.2700e-01	13.8718	73.212839	0.000263	2.625894	0.889677	-0.020972
 656	3.2750e-01	13.8317	73.079747	0.000333	3.332866	1.129205	-0.026618
 657	3.2800e-01	13.7948	72.757099	0.000808	8.079674	2.737468	-0.064530
 658	3.2850e-01	13.7483	72.466716	0.000727	7.271707	2.463721	-0.058077
 659	3.2900e-01	13.7130	72.458649	0.000020	0.201992	0.068437	-0.001613
 660	3.2950e-01	13.6729	72.248928	0.000525	5.251788	1.779354	-0.041944
 661	3.3000e-01	13.6408	71.728659	0.001303	13.028475	4.414167	-0.104054
 662	3.3050e-01	13.5879	71.740758	-0.000030	-0.302988	-0.102655	0.002420
 663	3.3100e-01	13.5477	71.587500	0.000384	3.837845	1.300297	-0.030652
 664	3.3150e-01	13.5205	71.611699	-0.000061	-0.605976	-0.205310	0.004840
 665	3.3200e-01	13.4756	71.268885	0.000858	8.584654	2.908560	-0.068563
 666	3.3250e-01	13.4419	71.014800	0.000636	6.362744	2.155756	-0.050817
 667	3.3300e-01	13.3937	70.837344	0.000444	4.443821	1.505607	-0.035491
 668	3.3350e-01	13.3424	70.534861	0.000757	7.574695	2.566376	-0.060496
 669	3.3400e-01	13.3135	70.393703	0.000353	3.534858	1.197642	-0.028232
 670	3.3450e-01	13.2718	70.115419	0.000697	6.968719	2.361066	-0.055657
 671	3.3500e-01	13.2381	70.163816	-0.000121	-1.211951	-0.410620	0.009679
 672	3.3550e-01	13.1932	69.792771	0.000929	9.291626	3.148088	-0.074209
 673	3.3600e-01	13.1435	69.518521	0.000687	6.867723	2.326848	-0.054850
 674	3.3650e-01	13.1050	69.530620	-0.000030	-0.302988	-0.102655	0.002420
 675	3.3700e-01	13.0681	69.349130	0.000454	4.544817	1.539826	-0.036298
 676	3.3750e-01	13.0328	69.103111	0.000616	6.160752	2.087319	-0.049204
 677	3.3800e-01	13.0039	68.711901	0.000980	9.796605	3.319180	-0.078242
 678	3.3850e-01	12.9558	68.530411	0.000454	4.544817	1.539826	-0.036298
 679	3.3900e-01	12.9109	68.127102	0.001010	10.099593	3.421835	-0.080662
 680	3.3950e-01	12.8772	68.038373	0.000222	2.221910	0.752804	-0.017746
 681	3.4000e-01	12.8339	67.941579	0.000242	2.423902	0.821240	-0.019359
 682	3.4050e-01	12.7970	67.808487	0.000333	3.332866	1.129205	-0.026618
 683	3.4100e-01	12.7585	67.663295	0.000364	3.635853	1.231861	-0.029038
 684	3.4150e-01	12.7071	67.227721	0.001091	10.907560	3.695582	-0.087115
 685	3.4200e-01	12.6799	67.034132	0.000485	4.847805	1.642481	-0.038718
 686	3.4250e-01	12.6430	66.937338	0.000242	2.423902	0.821240	-0.019359
 687	3.4300e-01	12.5996	66.606623	0.000828	8.281666	2.805904	-0.066143
 688	3.4350e-01	12.5547	66.618723	-0.000030	-0.302988	-0.102655	0.002420
 689	3.4400e-01	12.5162	66.239611	0.000949	9.493617	3.216525	-0.075822
 690	3.4450e-01	12.4777	66.231545	0.000020	0.201992	0.068437	-0.001613
 691	3.4500e-01	12.4264	66.183148	0.000121	1.211951	0.410620	-0.009679
 692	3.4550e-01	12.4007	65.775805	0.001020	10.200589	3.456053	-0.081469
 693	3.4600e-01	12.3526	65.739507	0.000091	0.908963	0.307965	-0.007260
 694	3.4650e-01	12.3157	65.364429	0.000939	9.392622	3.182306	-0.075016
 695	3.4700e-01	12.2756	65.070013	0.000737	7.372703	2.497939	-0.058883
 696	3.4750e-01	12.2307	64.936921	0.000333	3.332866	1.129205	-0.026618
 697	3.4800e-01	12.1986	64.844159	0.000232	2.322906	0.787022	-0.018552
 698	3.4850e-01	12.1601	64.493280	0.000879	8.786646	2.976996	-0.070176
 699	3.4900e-01	12.1136	64.331956	0.000404	4.039837	1.368734	-0.032265
 700	3.4950e-01	12.0783	64.106102	0.000566	5.655772	1.916227	-0.045171
 701	3.5000e-01	12.0366	63.944778	0.000404	4.039837	1.368734	-0.032265
 702	3.5050e-01	11.9884	63.650362	0.000737	7.372703	2.497939	-0.058883
 703	3.5100e-01	11.9563	63.509204	0.000353	3.534858	1.197642	-0.028232
 704	3.5150e-01	11.9194	63.299483	0.000525	5.251788	1.779354	-0.041944
 705	3.5200e-01	11.8809	63.065563	0.000586	5.857764	1.984664	-0.046784
 706	3.5250e-01	11.8360	62.896173	0.000424	4.241829	1.437171	-0.033878
 707	3.5300e-01	11.7927	62.666286	0.000576	5.756768	1.950446	-0.045977
 708	3.5350e-01	11.7622	62.323473	0.000858	8.584654	2.908560	-0.068563
 709	3.5400e-01	11.7189	62.117785	0.000515	5.150792	1.745136	-0.041138
 710	3.5450e-01	11.6724	61.891931	0.000566	5.655772	1.916227	-0.045171
 711	3.5500e-01	11.6355	61.839501	0.000131	1.312947	0.444839	-0.010486
 712	3.5550e-01	11.5970	61.565250	0.000687	6.867723	2.326848	-0.054850
 713	3.5600e-01	11.5585	61.541052	0.000061	0.605976	0.205310	-0.004840
 714	3.5650e-01	11.5216	61.141775	0.001000	9.998597	3.387616	-0.079855
 715	3.5700e-01	11.4799	60.964318	0.000444	4.443821	1.505607	-0.035491
 716	3.5750e-01	11.4350	60.609406	0.000889	8.887642	3.011215	-0.070983
 717	3.5800e-01	11.3981	60.573108	0.000091	0.908963	0.307965	-0.007260
 718	3.5850e-01	11.3564	60.427916	0.000364	3.635853	1.231861	-0.029038
 719	3.5900e-01	11.3098	60.024606	0.001010	10.099593	3.421835	-0.080662
 720	3.5950e-01	11.2633	59.855216	0.000424	4.241829	1.437171	-0.033878
 721	3.6000e-01	11.2344	59.710025	0.000364	3.635853	1.231861	-0.029038
 722	3.6050e-01	11.1863	59.669694	0.000101	1.009959	0.342183	-0.008066
 723	3.6100e-01	11.1510	59.423675	0.000616	6.160752	2.087319	-0.049204
 724	3.6150e-01	11.1254	59.298649	0.000313	3.130874	1.060769	-0.025005
 725	3.6200e-01	11.0852	58.976001	0.000808	8.079674	2.737468	-0.064530
 726	3.6250e-01	11.0371	58.729982	0.000616	6.160752	2.087319	-0.049204
 727	3.6300e-01	10.9890	58.556559	0.000434	4.342825	1.471389	-0.034685
 728	3.6350e-01	10.9569	58.274242	0.000707	7.069715	2.395284	-0.056463
 729	3.6400e-01	10.9232	57.959660	0.000788	7.877683	2.669031	-0.062916
 730	3.6450e-01	10.8783	57.802369	0.000394	3.938841	1.334516	-0.031458
 731	3.6500e-01	10.8398	57.887064	-0.000212	-2.120915	-0.718585	0.016939
 732	3.6550e-01	10.7917	57.431324	0.001141	11.412540	3.866673	-0.091148
 733	3.6600e-01	10.7500	57.270000	0.000404	4.039837	1.368734	-0.032265
 734	3.6650e-01	10.7195	56.951385	0.000798	7.978678	2.703249	-0.063723
 735	3.6700e-01	10.6665	56.862657	0.000222	2.221910	0.752804	-0.017746
 736	3.6750e-01	10.6489	56.523877	0.000848	8.483658	2.874341	-0.067756
 737	3.6800e-01	10.6024	56.306090	0.000545	5.453780	1.847791	-0.043557
 738	3.6850e-01	10.5494	56.177030	0.000323	3.231870	1.094987	-0.025812
 739	3.6900e-01	10.5206	56.015706	0.000404	4.039837	1.368734	-0.032265
 740	3.6950e-01	10.4756	55.660794	0.000889	8.887642	3.011215	-0.070983
 741	3.7000e-01	10.4403	55.422841	0.000596	5.958760	2.018883	-0.047591
 742	3.7050e-01	10.4018	55.172789	0.000626	6.261748	2.121538	-0.050010
 743	3.7100e-01	10.3569	54.979200	0.000485	4.847805	1.642481	-0.038718
 744	3.7150e-01	10.3104	54.971134	0.000020	0.201992	0.068437	-0.001613
 745	3.7200e-01	10.2767	54.829975	0.000353	3.534858	1.197642	-0.028232
 746	3.7250e-01	10.2254	54.350037	0.001202	12.018516	4.071983	-0.095988
 747	3.7300e-01	10.1917	54.108051	0.000606	6.059756	2.053101	-0.048397
 748	3.7350e-01	10.1580	53.962859	0.000364	3.635853	1.231861	-0.029038
 749	3.7400e-01	10.1163	53.853966	0.000273	2.726890	0.923895	-0.021779
 750	3.7450e-01	10.0762	53.519218	0.000838	8.382662	2.840123	-0.066949
 751	3.7500e-01	10.0345	53.430490	0.000222	2.221910	0.752804	-0.017746
 752	3.7550e-01	10.0040	53.103809	0.000818	8.180670	2.771686	-0.065336
 753	3.7600e-01	9.9543	53.240935	-0.000343	-3.433862	-1.163424	0.027425
 754	3.7650e-01	9.9206	52.805360	0.001091	10.907560	3.695582	-0.087115
 755	3.7700e-01	9.8692	52.648069	0.000394	3.938841	1.334516	-0.031458
 756	3.7750e-01	9.8307	52.248792	0.001000	9.998597	3.387616	-0.079855
 757	3.7800e-01	9.7970	52.063270	0.000465	4.645813	1.574044	-0.037105
 758	3.7850e-01	9.7585	51.789019	0.000687	6.867723	2.326848	-0.054850
 759	3.7900e-01	9.7120	51.486537	0.000757	7.574695	2.566376	-0.060496
 760	3.7950e-01	9.6783	51.409908	0.000192	1.918923	0.650149	-0.015326
 761	3.8000e-01	9.6318	51.430073	-0.000050	-0.504980	-0.171092	0.004033
 762	3.8050e-01	9.5949	51.119525	0.000778	7.776687	2.634813	-0.062110
 763	3.8100e-01	9.5564	51.050962	0.000172	1.716931	0.581712	-0.013713
 764	3.8150e-01	9.5211	50.780745	0.000677	6.766727	2.292629	-0.054044
 765	3.8200e-01	9.4858	50.349203	0.001081	10.806565	3.661363	-0.086308
 766	3.8250e-01	9.4377	50.151581	0.000495	4.948801	1.676699	-0.039524
 767	3.8300e-01	9.4024	49.962025	0.000475	4.746809	1.608262	-0.037911
 768	3.8350e-01	9.3591	49.720040	0.000606	6.059756	2.053101	-0.048397
 769	3.8400e-01	9.3094	49.675675	0.000111	1.110955	0.376402	-0.008873
 770	3.8450e-01	9.2789	49.401425	0.000687	6.867723	2.326848	-0.054850
 771	3.8500e-01	9.2356	49.143306	0.000646	6.463740	2.189974	-0.051624
 772	3.8550e-01	9.1987	48.941652	0.000505	5.049797	1.710917	-0.040331
 773	3.8600e-01	9.1602	48.695633	0.000616	6.160752	2.087319	-0.049204
 774	3.8650e-01	9.1185	48.324587	0.000929	9.291626	3.148088	-0.074209
 775	3.8700e-01	9.0800	48.199561	0.000313	3.130874	1.060769	-0.025005
 776	3.8750e-01	9.0334	48.005973	0.000485	4.847805	1.642481	-0.038718
 777	3.8800e-01	8.9917	48.022105	-0.000040	-0.403984	-0.136873	0.003226
 778	3.8850e-01	8.9532	47.550233	0.001182	11.816524	4.003547	-0.094375
 779	3.8900e-01	8.9195	47.344544	0.000515	5.150792	1.745136	-0.041138
 780	3.8950e-01	8.8778	47.251783	0.000232	2.322906	0.787022	-0.018552
 781	3.9000e-01	8.8297	47.118691	0.000333	3.332866	1.129205	-0.026618
 782	3.9050e-01	8.8008	47.078360	0.000101	1.009959	0.342183	-0.008066
 783	3.9100e-01	8.7543	46.602454	0.001192	11.917520	4.037765	-0.095181
 784	3.9150e-01	8.7174	46.364502	0.000596	5.958760	2.018883	-0.047591
 785	3.9200e-01	8.6805	46.158814	0.000515	5.150792	1.745136	-0.041138
 786	3.9250e-01	8.6356	46.098317	0.000151	1.514939	0.513275	-0.012099
 787	3.9300e-01	8.5923	45.670809	0.001071	10.705569	3.627145	-0.085502
 788	3.9350e-01	8.5634	45.227168	0.001111	11.109552	3.764018	-0.088728
 789	3.9400e-01	8.5105	45.142473	0.000212	2.120915	0.718585	-0.016939
 790	3.9450e-01	8.4736	45.045678	0.000242	2.423902	0.821240	-0.019359
 791	3.9500e-01	8.4286	44.831924	0.000535	5.352784	1.813572	-0.042751
 792	3.9550e-01	8.4030	44.569773	0.000656	6.564735	2.224193	-0.052430
 793	3.9600e-01	8.3516	44.420548	0.000374	3.736849	1.266079	-0.029845
 794	3.9650e-01	8.3228	44.218893	0.000505	5.049797	1.710917	-0.040331
 795	3.9700e-01	8.2762	43.823649	0.000990	9.897601	3.353398	-0.079049
 796	3.9750e-01	8.2281	43.811550	0.000030	0.302988	0.102655	-0.002420
 797	3.9800e-01	8.2008	43.525200	0.000717	7.170711	2.429503	-0.057270
 798	3.9850e-01	8.1543	43.121890	0.001010	10.099593	3.421835	-0.080662
 799	3.9900e-01	8.1094	42.976699	0.000364	3.635853	1.231861	-0.029038
 800	3.9950e-01	8.0901	42.726647	0.000626	6.261748	2.121538	-0.050010
 801	4.0000e-01	8.0324	42.613720	0.000283	2.827886	0.958114	-0.022585
 802	4.0050e-01	7.9939	42.488694	0.000313	3.130874	1.060769	-0.025005
 803	4.0100e-01	7.9554	42.162013	0.000818	8.180670	2.771686	-0.065336
 804	4.0150e-01	7.9169	42.032954	0.000323	3.231870	1.094987	-0.025812
 805	4.0200e-01	7.8704	41.799034	0.000586	5.857764	1.984664	-0.046784
 806	4.0250e-01	7.8351	41.928093	-0.000323	-3.231870	-1.094987	0.025812
 807	4.0300e-01	7.7869	41.456221	0.001182	11.816524	4.003547	-0.094375
 808	4.0350e-01	7.7500	41.097275	0.000899	8.988638	3.045433	-0.071789
 809	4.0400e-01	7.7115	40.887554	0.000525	5.251788	1.779354	-0.041944
 810	4.0450e-01	7.6779	40.702031	0.000465	4.645813	1.574044	-0.037105
 811	4.0500e-01	7.6297	40.431813	0.000677	6.766727	2.292629	-0.054044
 812	4.0550e-01	7.5960	40.343085	0.000222	2.221910	0.752804	-0.017746
 813	4.0600e-01	7.5575	40.036570	0.000768	7.675691	2.600594	-0.061303
 814	4.0650e-01	7.5110	39.689723	0.000869	8.685650	2.942778	-0.069369
 815	4.0700e-01	7.4645	39.580830	0.000273	2.726890	0.923895	-0.021779
 816	4.0750e-01	7.4420	39.411440	0.000424	4.241829	1.437171	-0.033878
 817	4.0800e-01	7.3987	39.125090	0.000717	7.170711	2.429503	-0.057270
 818	4.0850e-01	7.3554	38.915368	0.000525	5.251788	1.779354	-0.041944
 819	4.0900e-01	7.3153	38.681449	0.000586	5.857764	1.984664	-0.046784
 820	4.0950e-01	7.2704	38.661283	0.000050	0.504980	0.171092	-0.004033
 821	4.1000e-01	7.2335	38.257973	0.001010	10.099593	3.421835	-0.080662
 822	4.1050e-01	7.1902	37.967590	0.000727	7.271707	2.463721	-0.058077
 823	4.1100e-01	7.1533	37.890961	0.000192	1.918923	0.650149	-0.015326
 824	4.1150e-01	7.1196	37.620744	0.000677	6.766727	2.292629	-0.054044
 825	4.1200e-01	7.0715	37.527982	0.000232	2.322906	0.787022	-0.018552
 826	4.1250e-01	7.0217	37.221467	0.000768	7.675691	2.600594	-0.061303
 827	4.1300e-01	6.9961	37.112573	0.000273	2.726890	0.923895	-0.021779
 828	4.1350e-01	6.9608	36.814124	0.000747	7.473699	2.532158	-0.059690
 829	4.1400e-01	6.9078	36.725396	0.000222	2.221910	0.752804	-0.017746
 830	4.1450e-01	6.8709	36.386616	0.000848	8.483658	2.874341	-0.067756
 831	4.1500e-01	6.8276	36.184961	0.000505	5.049797	1.710917	-0.040331
 832	4.1550e-01	6.7987	35.870379	0.000788	7.877683	2.669031	-0.062916
 833	4.1600e-01	6.7586	35.596128	0.000687	6.867723	2.326848	-0.054850
 834	4.1650e-01	6.7105	35.705022	-0.000273	-2.726890	-0.923895	0.021779
 835	4.1700e-01	6.6752	35.204918	0.001252	12.523495	4.243075	-0.100021
 836	4.1750e-01	6.6287	34.966965	0.000596	5.958760	2.018883	-0.047591
 837	4.1800e-01	6.5854	34.938733	0.000071	0.706972	0.239528	-0.005646
 838	4.1850e-01	6.5501	34.684648	0.000636	6.362744	2.155756	-0.050817
 839	4.1900e-01	6.5100	34.406364	0.000697	6.968719	2.361066	-0.055657
 840	4.1950e-01	6.4811	33.999021	0.001020	10.200589	3.456053	-0.081469
 841	4.2000e-01	6.4233	33.938525	0.000151	1.514939	0.513275	-0.012099
 842	4.2050e-01	6.4057	33.676373	0.000656	6.564735	2.224193	-0.052430
 843	4.2100e-01	6.3560	33.438421	0.000596	5.958760	2.018883	-0.047591
 844	4.2150e-01	6.3191	33.260964	0.000444	4.443821	1.505607	-0.035491
 845	4.2200e-01	6.2870	32.954449	0.000768	7.675691	2.600594	-0.061303
 846	4.2250e-01	6.2324	32.797158	0.000394	3.938841	1.334516	-0.031458
 847	4.2300e-01	6.1972	32.535006	0.000656	6.564735	2.224193	-0.052430
 848	4.2350e-01	6.1554	32.462411	0.000182	1.817927	0.615930	-0.014519
 849	4.2400e-01	6.1153	32.079266	0.000959	9.594613	3.250743	-0.076629
 850	4.2450e-01	6.0752	31.893744	0.000465	4.645813	1.574044	-0.037105
 851	4.2500e-01	6.0447	31.619493	0.000687	6.867723	2.326848	-0.054850
 852	4.2550e-01	6.0046	31.312978	0.000768	7.675691	2.600594	-0.061303
 853	4.2600e-01	5.9517	31.312978	-0.000000	-0.000000	-0.000000	0.000000
 854	4.2650e-01	5.9196	31.079058	0.000586	5.857764	1.984664	-0.046784
 855	4.2700e-01	5.8811	30.829006	0.000626	6.261748	2.121538	-0.050010
 856	4.2750e-01	5.8314	30.599119	0.000576	5.756768	1.950446	-0.045977
 857	4.2800e-01	5.7977	30.211942	0.000970	9.695609	3.284961	-0.077435
 858	4.2850e-01	5.7512	30.228074	-0.000040	-0.403984	-0.136873	0.003226
 859	4.2900e-01	5.7095	29.840897	0.000970	9.695609	3.284961	-0.077435
 860	4.2950e-01	5.6774	29.433554	0.001020	10.200589	3.456053	-0.081469
 861	4.3000e-01	5.6309	29.324660	0.000273	2.726890	0.923895	-0.021779
 862	4.3050e-01	5.6004	29.260130	0.000162	1.615935	0.547494	-0.012906
 863	4.3100e-01	5.5571	29.070575	0.000475	4.746809	1.608262	-0.037911
 864	4.3150e-01	5.5105	28.800357	0.000677	6.766727	2.292629	-0.054044
 865	4.3200e-01	5.4752	28.679364	0.000303	3.029878	1.026550	-0.024199
 866	4.3250e-01	5.4351	28.155061	0.001313	13.129471	4.448385	-0.104861
 867	4.3300e-01	5.3902	28.062300	0.000232	2.322906	0.787022	-0.018552
 868	4.3350e-01	5.3533	28.009870	0.000131	1.312947	0.444839	-0.010486
 869	4.3400e-01	5.3100	27.618659	0.000980	9.796605	3.319180	-0.078242
 870	4.3450e-01	5.2843	27.513799	0.000263	2.625894	0.889677	-0.020972
 871	4.3500e-01	5.2458	27.179051	0.000838	8.382662	2.840123	-0.066949
 872	4.3550e-01	5.1913	26.848337	0.000828	8.281666	2.805904	-0.066143
 873	4.3600e-01	5.1608	26.674914	0.000434	4.342825	1.471389	-0.034685
 874	4.3650e-01	5.1031	26.759609	-0.000212	-2.120915	-0.718585	0.016939
 875	4.3700e-01	5.0742	26.384531	0.000939	9.392622	3.182306	-0.075016
 876	4.3750e-01	5.0421	26.368399	0.000040	0.403984	0.136873	-0.003226
 877	4.3800e-01	4.9972	26.235306	0.000333	3.332866	1.129205	-0.026618
 878	4.3850e-01	4.9555	25.783599	0.001131	11.311544	3.832455	-0.090341
 879	4.3900e-01	4.9122	25.420620	0.000909	9.089634	3.079651	-0.072596
 880	4.3950e-01	4.8753	25.295594	0.000313	3.130874	1.060769	-0.025005
 881	4.4000e-01	4.8336	25.025377	0.000677	6.766727	2.292629	-0.054044
 882	4.4050e-01	4.8031	24.682563	0.000858	8.584654	2.908560	-0.068563
 883	4.4100e-01	4.7598	24.501074	0.000454	4.544817	1.539826	-0.036298
 884	4.4150e-01	4.7180	24.331684	0.000424	4.241829	1.437171	-0.033878
 885	4.4200e-01	4.6763	23.879977	0.001131	11.311544	3.832455	-0.090341
 886	4.4250e-01	4.6362	23.835613	0.000111	1.110955	0.376402	-0.008873
 887	4.4300e-01	4.5897	23.698487	0.000343	3.433862	1.163424	-0.027425
 888	4.4350e-01	4.5560	23.533130	0.000414	4.140833	1.402952	-0.033071
 889	4.4400e-01	4.5159	23.343575	0.000475	4.746809	1.608262	-0.037911
 890	4.4450e-01	4.4790	22.988662	0.000889	8.887642	3.011215	-0.070983
 891	4.4500e-01	4.4245	22.714411	0.000687	6.867723	2.326848	-0.054850
 892	4.4550e-01	4.3940	22.609551	0.000263	2.625894	0.889677	-0.020972
 893	4.4600e-01	4.3587	22.299002	0.000778	7.776687	2.634813	-0.062110
 894	4.4650e-01	4.3106	22.012652	0.000717	7.170711	2.429503	-0.057270
 895	4.4700e-01	4.2737	21.940056	0.000182	1.817927	0.615930	-0.014519
 896	4.4750e-01	4.2304	21.730335	0.000525	5.251788	1.779354	-0.041944
 897	4.4800e-01	4.1967	21.242330	0.001222	12.220508	4.140420	-0.097601
 898	4.4850e-01	4.1550	21.133437	0.000273	2.726890	0.923895	-0.021779
 899	4.4900e-01	4.1165	21.004378	0.000323	3.231870	1.094987	-0.025812
 900	4.4950e-01	4.0731	20.742226	0.000656	6.564735	2.224193	-0.052430
 901	4.5000e-01	4.0362	20.548637	0.000485	4.847805	1.642481	-0.038718
 902	4.5050e-01	3.9881	20.161460	0.000970	9.695609	3.284961	-0.077435
 903	4.5100e-01	3.9609	20.028368	0.000333	3.332866	1.129205	-0.026618
 904	4.5150e-01	3.9159	19.762183	0.000667	6.665731	2.258411	-0.053237
 905	4.5200e-01	3.8710	19.806547	-0.000111	-1.110955	-0.376402	0.008873
 906	4.5250e-01	3.8277	19.431469	0.000939	9.392622	3.182306	-0.075016
 907	4.5300e-01	3.7940	19.072523	0.000899	8.988638	3.045433	-0.071789
 908	4.5350e-01	3.7523	18.939431	0.000333	3.332866	1.129205	-0.026618
 909	4.5400e-01	3.7122	18.899100	0.000101	1.009959	0.342183	-0.008066
 910	4.5450e-01	3.6769	18.487724	0.001030	10.301585	3.490271	-0.082275
 911	4.5500e-01	3.6368	18.330433	0.000394	3.938841	1.334516	-0.031458
 912	4.5550e-01	3.5919	18.068282	0.000656	6.564735	2.224193	-0.052430
 913	4.5600e-01	3.5534	17.773866	0.000737	7.372703	2.497939	-0.058883
 914	4.5650e-01	3.5149	17.572211	0.000505	5.049797	1.710917	-0.040331
 915	4.5700e-01	3.4748	17.406854	0.000414	4.140833	1.402952	-0.033071
 916	4.5750e-01	3.4331	17.168901	0.000596	5.958760	2.018883	-0.047591
 917	4.5800e-01	3.3865	17.116470	0.000131	1.312947	0.444839	-0.010486
 918	4.5850e-01	3.3545	16.713161	0.001010	10.099593	3.421835	-0.080662
 919	4.5900e-01	3.3176	16.632499	0.000202	2.019919	0.684367	-0.016132
 920	4.5950e-01	3.2791	16.160626	0.001182	11.816524	4.003547	-0.094375
 921	4.6000e-01	3.2357	15.769416	0.000980	9.796605	3.319180	-0.078242
 922	4.6050e-01	3.1956	15.721018	0.000121	1.211951	0.410620	-0.009679
 923	4.6100e-01	3.1427	15.765382	-0.000111	-1.110955	-0.376402	0.008873
 924	4.6150e-01	3.1186	15.458867	0.000768	7.675691	2.600594	-0.061303
 925	4.6200e-01	3.0769	15.075723	0.000959	9.594613	3.250743	-0.076629
 926	4.6250e-01	3.0320	14.825670	0.000626	6.261748	2.121538	-0.050010
 927	4.6300e-01	2.9903	14.507056	0.000798	7.978678	2.703249	-0.063723
 928	4.6350e-01	2.9422	14.382030	0.000313	3.130874	1.060769	-0.025005
 929	4.6400e-01	2.9149	14.160209	0.000555	5.554776	1.882009	-0.044364
 930	4.6450e-01	2.8764	14.140044	0.000050	0.504980	0.171092	-0.004033
 931	4.6500e-01	2.8347	13.720601	0.001050	10.503577	3.558708	-0.083888
 932	4.6550e-01	2.7914	13.353589	0.000919	9.190630	3.113870	-0.073402
 933	4.6600e-01	2.7561	13.293093	0.000151	1.514939	0.513275	-0.012099
 934	4.6650e-01	2.7208	13.006743	0.000717	7.170711	2.429503	-0.057270
 935	4.6700e-01	2.6791	12.833320	0.000434	4.342825	1.471389	-0.034685
 936	4.6750e-01	2.6325	12.530837	0.000757	7.574695	2.566376	-0.060496
 937	4.6800e-01	2.6021	12.510672	0.000050	0.504980	0.171092	-0.004033
 938	4.6850e-01	2.5588	12.091230	0.001050	10.503577	3.558708	-0.083888
 939	4.6900e-01	2.5122	11.849244	0.000606	6.059756	2.053101	-0.048397
 940	4.6950e-01	2.4769	11.704052	0.000364	3.635853	1.231861	-0.029038
 941	4.7000e-01	2.4288	11.228147	0.001192	11.917520	4.037765	-0.095181
 942	4.7050e-01	2.3967	11.159584	0.000172	1.716931	0.581712	-0.013713
 943	4.7100e-01	2.3470	10.873234	0.000717	7.170711	2.429503	-0.057270
 944	4.7150e-01	2.3229	10.768373	0.000263	2.625894	0.889677	-0.020972
 945	4.7200e-01	2.2796	10.425560	0.000858	8.584654	2.908560	-0.068563
 946	4.7250e-01	2.2395	10.227938	0.000495	4.948801	1.676699	-0.039524
 947	4.7300e-01	2.1962	9.985952	0.000606	6.059756	2.053101	-0.048397
 948	4.7350e-01	2.1545	9.885125	0.000252	2.524898	0.855459	-0.020165
 949	4.7400e-01	2.1112	9.671370	0.000535	5.352784	1.813572	-0.042751
 950	4.7450e-01	2.0791	9.409219	0.000656	6.564735	2.224193	-0.052430
 951	4.7500e-01	2.0294	9.259994	0.000374	3.736849	1.266079	-0.029845
 952	4.7550e-01	1.9941	8.977677	0.000707	7.069715	2.395284	-0.056463
 953	4.7600e-01	1.9524	8.828453	0.000374	3.736849	1.266079	-0.029845
 954	4.7650e-01	1.9106	8.340448	0.001222	12.220508	4.140420	-0.097601
 955	4.7700e-01	1.8770	8.320282	0.000050	0.504980	0.171092	-0.004033
 956	4.7750e-01	1.8208	8.025866	0.000737	7.372703	2.497939	-0.058883
 957	4.7800e-01	1.7807	7.783880	0.000606	6.059756	2.053101	-0.048397
 958	4.7850e-01	1.7422	7.771781	0.000030	0.302988	0.102655	-0.002420
 959	4.7900e-01	1.7133	7.505596	0.000667	6.665731	2.258411	-0.053237
 960	4.7950e-01	1.6780	7.082121	0.001060	10.604573	3.592926	-0.084695
 961	4.8000e-01	1.6299	6.759473	0.000808	8.079674	2.737468	-0.064530
 962	4.8050e-01	1.5914	6.670745	0.000222	2.221910	0.752804	-0.017746
 963	4.8100e-01	1.5577	6.553785	0.000293	2.928882	0.992332	-0.023392
 964	4.8150e-01	1.5112	6.448925	0.000263	2.625894	0.889677	-0.020972
 965	4.8200e-01	1.4839	5.714901	0.001838	18.381259	6.227739	-0.146805
 966	4.8250e-01	1.4374	5.485014	0.000576	5.756768	1.950446	-0.045977
 967	4.8300e-01	1.3861	5.501146	-0.000040	-0.403984	-0.136873	0.003226
 968	4.8350e-01	1.3540	5.541477	-0.000101	-1.009959	-0.342183	0.008066
 969	4.8400e-01	1.3123	4.972811	0.001424	14.240426	4.824787	-0.113733
 970	4.8450e-01	1.2834	4.787288	0.000465	4.645813	1.574044	-0.037105
 971	4.8500e-01	1.2321	4.323482	0.001161	11.614532	3.935110	-0.092761
 972	4.8550e-01	1.1935	4.271051	0.000131	1.312947	0.444839	-0.010486
 973	4.8600e-01	1.1518	4.262985	0.000020	0.201992	0.068437	-0.001613
 974	4.8650e-01	1.1165	4.041165	0.000555	5.554776	1.882009	-0.044364
 975	4.8700e-01	1.0732	3.412001	0.001576	15.755365	5.338062	-0.125833
 976	4.8750e-01	1.0395	3.440233	-0.000071	-0.706972	-0.239528	0.005646
 977	4.8800e-01	0.9930	3.057089	0.000959	9.594613	3.250743	-0.076629
 978	4.8850e-01	0.9577	2.952228	0.000263	2.625894	0.889677	-0.020972
 979	4.8900e-01	0.9176	2.980460	-0.000071	-0.706972	-0.239528	0.005646
 980	4.8950e-01	0.8775	2.573117	0.001020	10.200589	3.456053	-0.081469
 981	4.9000e-01	0.8310	2.327098	0.000616	6.160752	2.087319	-0.049204
 982	4.9050e-01	0.7909	2.278701	0.000121	1.211951	0.410620	-0.009679
 983	4.9100e-01	0.7492	2.097211	0.000454	4.544817	1.539826	-0.036298
 984	4.9150e-01	0.7075	1.835060	0.000656	6.564735	2.224193	-0.052430
 985	4.9200e-01	0.6722	1.459982	0.000939	9.392622	3.182306	-0.075016
 986	4.9250e-01	0.6273	1.258327	0.000505	5.049797	1.710917	-0.040331
 987	4.9300e-01	0.6032	1.048606	0.000525	5.251788	1.779354	-0.041944
 988	4.9350e-01	0.5535	0.661428	0.000970	9.695609	3.284961	-0.077435
 989	4.9400e-01	0.5085	0.572700	0.000222	2.221910	0.752804	-0.017746
 990	4.9450e-01	0.4684	0.318615	0.000636	6.362744	2.155756	-0.050817
 991	4.9500e-01	0.4299	0.197622	0.000303	3.029878	1.026550	-0.024199
 992	4.9550e-01	0.3898	-0.088728	0.000717	7.170711	2.429503	-0.057270
 993	4.9600e-01	0.3529	-0.383144	0.000737	7.372703	2.497939	-0.058883
 994	4.9650e-01	0.3096	-0.790487	0.001020	10.200589	3.456053	-0.081469
 995	4.9700e-01	0.2663	-0.746123	-0.000111	-1.110955	-0.376402	0.008873
 996	4.9750e-01	0.2342	-1.044573	0.000747	7.473699	2.532158	-0.059690
 997	4.9800e-01	0.1925	-1.165565	0.000303	3.029878	1.026550	-0.024199
 998	4.9850e-01	0.1492	-1.411585	0.000616	6.160752	2.087319	-0.049204
 999	4.9900e-01	0.1091	-1.673736	0.000656	6.564735	2.224193	-0.052430
1000	4.9950e-01	0.0706	-2.068980	0.000990	9.897601	3.353398	-0.079049
1001	5.0000e-01	0.0353	-2.682011	0.001535	15.351381	5.201189	-0.122606
1002	5.0050e-01	-0.0032	-2.415826	-0.000667	-6.665731	-2.258411	0.053237
1003	5.0100e-01	-0.0449	-2.657812	0.000606	6.059756	2.053101	-0.048397
1004	5.0150e-01	-0.0738	-3.020791	0.000909	9.089634	3.079651	-0.072596
1005	5.0200e-01	-0.1123	-3.089354	0.000172	1.716931	0.581712	-0.013713
1006	5.0250e-01	-0.1524	-3.399902	0.000778	7.776687	2.634813	-0.062110
1007	5.0300e-01	-0.2005	-3.645921	0.000616	6.160752	2.087319	-0.049204
1008	5.0350e-01	-0.2454	-3.577358	-0.000172	-1.716931	-0.581712	0.013713
1009	5.0400e-01	-0.2823	-3.815311	0.000596	5.958760	2.018883	-0.047591
1010	5.0450e-01	-0.3192	-4.246853	0.001081	10.806565	3.661363	-0.086308
1011	5.0500e-01	-0.3561	-4.484806	0.000596	5.958760	2.018883	-0.047591
1012	5.0550e-01	-0.4059	-4.408177	-0.000192	-1.918923	-0.650149	0.015326
1013	5.0600e-01	-0.4428	-4.541269	0.000333	3.332866	1.129205	-0.026618
1014	5.0650e-01	-0.4797	-4.960711	0.001050	10.503577	3.558708	-0.083888
1015	5.0700e-01	-0.5198	-5.238995	0.000697	6.968719	2.361066	-0.055657
1016	5.0750e-01	-0.5599	-5.517279	0.000697	6.968719	2.361066	-0.055657
1017	5.0800e-01	-0.5968	-5.791530	0.000687	6.867723	2.326848	-0.054850
1018	5.0850e-01	-0.6385	-6.259369	0.001172	11.715528	3.969328	-0.093568
1019	5.0900e-01	-0.6834	-6.299700	0.000101	1.009959	0.342183	-0.008066
1020	5.0950e-01	-0.7171	-6.424726	0.000313	3.130874	1.060769	-0.025005
1021	5.1000e-01	-0.7588	-6.606216	0.000454	4.544817	1.539826	-0.036298
1022	5.1050e-01	-0.8053	-6.819970	0.000535	5.352784	1.813572	-0.042751
1023	5.1100e-01	-0.8422	-7.126485	0.000768	7.675691	2.600594	-0.061303
1024	5.1150e-01	-0.8775	-7.259577	0.000333	3.332866	1.129205	-0.026618
1025	5.1200e-01	-0.9272	-7.461232	0.000505	5.049797	1.710917	-0.040331
1026	5.1250e-01	-0.9513	-7.602391	0.000353	3.534858	1.197642	-0.028232
1027	5.1300e-01	-0.9882	-8.195256	0.001485	14.846402	5.030097	-0.118573
1028	5.1350e-01	-1.0411	-8.247687	0.000131	1.312947	0.444839	-0.010486
1029	5.1400e-01	-1.0764	-8.328349	0.000202	2.019919	0.684367	-0.016132
1030	5.1450e-01	-1.1165	-8.634864	0.000768	7.675691	2.600594	-0.061303
1031	5.1500e-01	-1.1631	-8.953479	0.000798	7.978678	2.703249	-0.063723
1032	5.1550e-01	-1.1968	-9.191432	0.000596	5.958760	2.018883	-0.047591
1033	5.1600e-01	-1.2321	-9.380987	0.000475	4.746809	1.608262	-0.037911
1034	5.1650e-01	-1.2802	-9.655238	0.000687	6.867723	2.326848	-0.054850
1035	5.1700e-01	-1.3219	-9.727834	0.000182	1.817927	0.615930	-0.014519
1036	5.1750e-01	-1.3620	-9.808496	0.000202	2.019919	0.684367	-0.016132
1037	5.1800e-01	-1.3925	-10.344898	0.001343	13.432459	4.551040	-0.107280
1038	5.1850e-01	-1.4390	-10.453792	0.000273	2.726890	0.923895	-0.021779
1039	5.1900e-01	-1.4695	-10.699811	0.000616	6.160752	2.087319	-0.049204
1040	5.1950e-01	-1.5160	-10.978094	0.000697	6.968719	2.361066	-0.055657
1041	5.2000e-01	-1.5641	-11.014392	0.000091	0.908963	0.307965	-0.007260
1042	5.2050e-01	-1.5978	-11.381404	0.000919	9.190630	3.113870	-0.073402
1043	5.2100e-01	-1.6443	-11.462066	0.000202	2.019919	0.684367	-0.016132
1044	5.2150e-01	-1.6780	-11.792780	0.000828	8.281666	2.805904	-0.066143
1045	5.2200e-01	-1.7133	-12.123494	0.000828	8.281666	2.805904	-0.066143
1046	5.2250e-01	-1.7631	-12.425977	0.000757	7.574695	2.566376	-0.060496
1047	5.2300e-01	-1.8032	-12.486473	0.000151	1.514939	0.513275	-0.012099
1048	5.2350e-01	-1.8320	-12.506639	0.000050	0.504980	0.171092	-0.004033
1049	5.2400e-01	-1.8705	-12.889783	0.000959	9.594613	3.250743	-0.076629
1050	5.2450e-01	-1.9138	-13.188232	0.000747	7.473699	2.532158	-0.059690
1051	5.2500e-01	-1.9556	-13.389887	0.000505	5.049797	1.710917	-0.040331
1052	5.2550e-01	-2.0133	-13.498781	0.000273	2.726890	0.923895	-0.021779
1053	5.2600e-01	-2.0310	-13.990819	0.001232	12.321503	4.174638	-0.098408
1054	5.2650e-01	-2.0775	-14.103746	0.000283	2.827886	0.958114	-0.022585
1055	5.2700e-01	-2.1192	-14.486890	0.000959	9.594613	3.250743	-0.076629
1056	5.2750e-01	-2.1593	-14.377997	-0.000273	-2.726890	-0.923895	0.021779
1057	5.2800e-01	-2.1962	-14.454625	0.000192	1.918923	0.650149	-0.015326
1058	5.2850e-01	-2.2331	-14.902299	0.001121	11.210548	3.798237	-0.089535
1059	5.2900e-01	-2.2812	-15.180583	0.000697	6.968719	2.361066	-0.055657
1060	5.2950e-01	-2.3229	-15.547595	0.000919	9.190630	3.113870	-0.073402
1061	5.3000e-01	-2.3662	-15.362073	-0.000465	-4.645813	-1.574044	0.037105
1062	5.3050e-01	-2.3919	-15.708919	0.000869	8.685650	2.942778	-0.069369
1063	5.3100e-01	-2.4384	-16.180792	0.001182	11.816524	4.003547	-0.094375
1064	5.3150e-01	-2.4834	-16.410678	0.000576	5.756768	1.950446	-0.045977
1065	5.3200e-01	-2.5186	-16.479241	0.000172	1.716931	0.581712	-0.013713
1066	5.3250e-01	-2.5604	-16.713161	0.000586	5.857764	1.984664	-0.046784
1067	5.3300e-01	-2.5956	-16.926915	0.000535	5.352784	1.813572	-0.042751
1068	5.3350e-01	-2.6325	-17.108404	0.000454	4.544817	1.539826	-0.036298
1069	5.3400e-01	-2.6743	-17.467350	0.000899	8.988638	3.045433	-0.071789
1070	5.3450e-01	-2.7079	-17.846461	0.000949	9.493617	3.216525	-0.075822
1071	5.3500e-01	-2.7625	-17.983587	0.000343	3.433862	1.163424	-0.027425
1072	5.3550e-01	-2.7994	-18.064249	0.000202	2.019919	0.684367	-0.016132
1073	5.3600e-01	-2.8459	-18.221539	0.000394	3.938841	1.334516	-0.031458
1074	5.3650e-01	-2.8876	-18.427228	0.000515	5.150792	1.745136	-0.041138
1075	5.3700e-01	-2.9181	-18.745842	0.000798	7.978678	2.703249	-0.063723
1076	5.3750e-01	-2.9630	-18.951530	0.000515	5.150792	1.745136	-0.041138
1077	5.3800e-01	-3.0031	-19.451635	0.001252	12.523495	4.243075	-0.100021
1078	5.3850e-01	-3.0368	-19.661356	0.000525	5.251788	1.779354	-0.041944
1079	5.3900e-01	-3.0898	-19.858978	0.000495	4.948801	1.676699	-0.039524
1080	5.3950e-01	-3.1186	-20.028368	0.000424	4.241829	1.437171	-0.033878
1081	5.4000e-01	-3.1635	-20.068699	0.000101	1.009959	0.342183	-0.008066
1082	5.4050e-01	-3.1940	-20.455876	0.000970	9.695609	3.284961	-0.077435
1083	5.4100e-01	-3.2309	-20.548637	0.000232	2.322906	0.787022	-0.018552
1084	5.4150e-01	-3.2807	-20.826921	0.000697	6.968719	2.361066	-0.055657
1085	5.4200e-01	-3.3224	-20.859186	0.000081	0.807967	0.273747	-0.006453
1086	5.4250e-01	-3.3593	-21.052775	0.000485	4.847805	1.642481	-0.038718
1087	5.4300e-01	-3.4010	-21.391555	0.000848	8.483658	2.874341	-0.067756
1088	5.4350e-01	-3.4331	-21.439952	0.000121	1.211951	0.410620	-0.009679
1089	5.4400e-01	-3.4796	-21.698070	0.000646	6.463740	2.189974	-0.051624
1090	5.4450e-01	-3.5085	-21.972321	0.000687	6.867723	2.326848	-0.054850
1091	5.4500e-01	-3.5582	-22.327234	0.000889	8.887642	3.011215	-0.070983
1092	5.4550e-01	-3.5999	-22.311101	-0.000040	-0.403984	-0.136873	0.003226
1093	5.4600e-01	-3.6384	-22.577286	0.000667	6.665731	2.258411	-0.053237
1094	5.4650e-01	-3.6753	-22.879768	0.000757	7.574695	2.566376	-0.060496
1095	5.4700e-01	-3.7186	-23.121754	0.000606	6.059756	2.053101	-0.048397
1096	5.4750e-01	-3.7571	-23.270979	0.000374	3.736849	1.266079	-0.029845
1097	5.4800e-01	-3.8036	-23.452468	0.000454	4.544817	1.539826	-0.036298
1098	5.4850e-01	-3.8341	-23.686388	0.000586	5.857764	1.984664	-0.046784
1099	5.4900e-01	-3.8855	-23.855778	0.000424	4.241829	1.437171	-0.033878
1100	5.4950e-01	-3.9159	-24.174393	0.000798	7.978678	2.703249	-0.063723
1101	5.5000e-01	-3.9528	-24.440578	0.000667	6.665731	2.258411	-0.053237
1102	5.5050e-01	-3.9929	-24.682563	0.000606	6.059756	2.053101	-0.048397
1103	5.5100e-01	-4.0427	-24.819689	0.000343	3.433862	1.163424	-0.027425
1104	5.5150e-01	-4.0796	-25.106039	0.000717	7.170711	2.429503	-0.057270
1105	5.5200e-01	-4.1229	-25.339959	0.000586	5.857764	1.984664	-0.046784
1106	5.5250e-01	-4.1662	-25.573878	0.000586	5.857764	1.984664	-0.046784
1107	5.5300e-01	-4.2015	-25.779566	0.000515	5.150792	1.745136	-0.041138
1108	5.5350e-01	-4.2416	-25.944923	0.000414	4.140833	1.402952	-0.033071
1109	5.5400e-01	-4.2849	-26.049784	0.000263	2.625894	0.889677	-0.020972
1110	5.5450e-01	-4.3106	-26.299836	0.000626	6.261748	2.121538	-0.050010
1111	5.5500e-01	-4.3539	-26.525690	0.000566	5.655772	1.916227	-0.045171
1112	5.5550e-01	-4.3908	-26.920933	0.000990	9.897601	3.353398	-0.079049
1113	5.5600e-01	-4.4357	-27.037893	0.000293	2.928882	0.992332	-0.023392
1114	5.5650e-01	-4.4838	-27.203250	0.000414	4.140833	1.402952	-0.033071
1115	5.5700e-01	-4.5287	-27.239548	0.000091	0.908963	0.307965	-0.007260
1116	5.5750e-01	-4.5544	-27.525898	0.000717	7.170711	2.429503	-0.057270
1117	5.5800e-01	-4.6041	-27.840480	0.000788	7.877683	2.669031	-0.062916
1118	5.5850e-01	-4.6314	-28.195392	0.000889	8.887642	3.011215	-0.070983
1119	5.5900e-01	-4.6828	-28.368816	0.000434	4.342825	1.471389	-0.034685
1120	5.5950e-01	-4.7245	-28.501908	0.000333	3.332866	1.129205	-0.026618
1121	5.6000e-01	-4.7662	-28.683397	0.000454	4.544817	1.539826	-0.036298
1122	5.6050e-01	-4.7951	-29.042343	0.000899	8.988638	3.045433	-0.071789
1123	5.6100e-01	-4.8496	-29.211733	0.000424	4.241829	1.437171	-0.033878
1124	5.6150e-01	-4.8705	-29.562613	0.000879	8.786646	2.976996	-0.070176
1125	5.6200e-01	-4.9186	-29.687639	0.000313	3.130874	1.060769	-0.025005
1126	5.6250e-01	-4.9491	-29.990121	0.000757	7.574695	2.566376	-0.060496
1127	5.6300e-01	-4.9988	-30.135313	0.000364	3.635853	1.231861	-0.029038
1128	5.6350e-01	-5.0341	-30.211942	0.000192	1.918923	0.650149	-0.015326
1129	5.6400e-01	-5.0822	-30.534590	0.000808	8.079674	2.737468	-0.064530
1130	5.6450e-01	-5.1255	-30.728178	0.000485	4.847805	1.642481	-0.038718
1131	5.6500e-01	-5.1704	-30.784642	0.000141	1.413943	0.479057	-0.011293
1132	5.6550e-01	-5.1977	-31.167786	0.000959	9.594613	3.250743	-0.076629
1133	5.6600e-01	-5.2442	-31.159720	-0.000020	-0.201992	-0.068437	0.001613
1134	5.6650e-01	-5.2715	-31.421871	0.000656	6.564735	2.224193	-0.052430
1135	5.6700e-01	-5.3244	-31.433971	0.000030	0.302988	0.102655	-0.002420
1136	5.6750e-01	-5.3597	-31.813082	0.000949	9.493617	3.216525	-0.075822
1137	5.6800e-01	-5.4031	-32.252690	0.001101	11.008556	3.729800	-0.087922
1138	5.6850e-01	-5.4416	-32.329318	0.000192	1.918923	0.650149	-0.015326
1139	5.6900e-01	-5.4817	-32.498709	0.000424	4.241829	1.437171	-0.033878
1140	5.6950e-01	-5.5218	-32.869754	0.000929	9.291626	3.148088	-0.074209
1141	5.7000e-01	-5.5539	-33.071409	0.000505	5.049797	1.710917	-0.040331
1142	5.7050e-01	-5.6004	-33.184335	0.000283	2.827886	0.958114	-0.022585
1143	5.7100e-01	-5.6389	-33.502950	0.000798	7.978678	2.703249	-0.063723
1144	5.7150e-01	-5.6758	-33.761068	0.000646	6.463740	2.189974	-0.051624
1145	5.7200e-01	-5.7191	-33.865929	0.000263	2.625894	0.889677	-0.020972
1146	5.7250e-01	-5.7592	-33.986922	0.000303	3.029878	1.026550	-0.024199
1147	5.7300e-01	-5.8041	-34.285371	0.000747	7.473699	2.532158	-0.059690
1148	5.7350e-01	-5.8410	-34.543490	0.000646	6.463740	2.189974	-0.051624
1149	5.7400e-01	-5.8827	-34.761277	0.000545	5.453780	1.847791	-0.043557
1150	5.7450e-01	-5.9116	-34.878237	0.000293	2.928882	0.992332	-0.023392
1151	5.7500e-01	-5.9517	-35.212984	0.000838	8.382662	2.840123	-0.066949
1152	5.7550e-01	-5.9982	-35.317844	0.000263	2.625894	0.889677	-0.020972
1153	5.7600e-01	-6.0399	-35.680823	0.000909	9.089634	3.079651	-0.072596
1154	5.7650e-01	-6.0736	-35.838114	0.000394	3.938841	1.334516	-0.031458
1155	5.7700e-01	-6.1234	-35.979273	0.000353	3.534858	1.197642	-0.028232
1156	5.7750e-01	-6.1538	-36.241424	0.000656	6.564735	2.224193	-0.052430
1157	5.7800e-01	-6.1988	-36.495509	0.000636	6.362744	2.155756	-0.050817
1158	5.7850e-01	-6.2405	-36.535840	0.000101	1.009959	0.342183	-0.008066
1159	5.7900e-01	-6.2742	-36.822190	0.000717	7.170711	2.429503	-0.057270
1160	5.7950e-01	-6.3223	-37.080309	0.000646	6.463740	2.189974	-0.051624
1161	5.8000e-01	-6.3656	-37.116606	0.000091	0.908963	0.307965	-0.007260
1162	5.8050e-01	-6.4041	-37.362625	0.000616	6.160752	2.087319	-0.049204
1163	5.8100e-01	-6.4410	-37.757869	0.000990	9.897601	3.353398	-0.079049
1164	5.8150e-01	-6.4843	-37.810299	0.000131	1.312947	0.444839	-0.010486
1165	5.8200e-01	-6.5180	-38.064385	0.000636	6.362744	2.155756	-0.050817
1166	5.8250e-01	-6.5597	-38.314437	0.000626	6.261748	2.121538	-0.050010
1167	5.8300e-01	-6.5950	-38.580621	0.000667	6.665731	2.258411	-0.053237
1168	5.8350e-01	-6.6271	-38.818574	0.000596	5.958760	2.018883	-0.047591
1169	5.8400e-01	-6.6784	-39.080725	0.000656	6.564735	2.224193	-0.052430
1170	5.8450e-01	-6.7217	-39.129123	0.000121	1.211951	0.410620	-0.009679
1171	5.8500e-01	-6.7506	-39.488068	0.000899	8.988638	3.045433	-0.071789
1172	5.8550e-01	-6.8019	-39.447737	-0.000101	-1.009959	-0.342183	0.008066
1173	5.8600e-01	-6.8340	-39.947842	0.001252	12.523495	4.243075	-0.100021
1174	5.8650e-01	-6.8709	-39.955908	0.000020	0.201992	0.068437	-0.001613
1175	5.8700e-01	-6.9158	-40.343085	0.000970	9.695609	3.284961	-0.077435
1176	5.8750e-01	-6.9495	-40.451979	0.000273	2.726890	0.923895	-0.021779
1177	5.8800e-01	-6.9977	-40.500376	0.000121	1.211951	0.410620	-0.009679
1178	5.8850e-01	-7.0330	-40.577005	0.000192	1.918923	0.650149	-0.015326
1179	5.8900e-01	-7.0795	-40.766561	0.000475	4.746809	1.608262	-0.037911
1180	5.8950e-01	-7.1196	-41.129540	0.000909	9.089634	3.079651	-0.072596
1181	5.9000e-01	-7.1549	-41.460254	0.000828	8.281666	2.805904	-0.066143
1182	5.9050e-01	-7.1950	-41.585280	0.000313	3.130874	1.060769	-0.025005
1183	5.9100e-01	-7.2479	-41.649809	0.000162	1.615935	0.547494	-0.012906
1184	5.9150e-01	-7.2720	-41.940192	0.000727	7.271707	2.463721	-0.058077
1185	5.9200e-01	-7.3217	-42.170079	0.000576	5.756768	1.950446	-0.045977
1186	5.9250e-01	-7.3538	-42.476594	0.000768	7.675691	2.600594	-0.061303
1187	5.9300e-01	-7.3955	-42.637918	0.000404	4.039837	1.368734	-0.032265
1188	5.9350e-01	-7.4340	-42.791176	0.000384	3.837845	1.300297	-0.030652
1189	5.9400e-01	-7.4773	-42.900070	0.000273	2.726890	0.923895	-0.021779
1190	5.9450e-01	-7.5206	-43.166254	0.000667	6.665731	2.258411	-0.053237
1191	5.9500e-01	-7.5559	-43.424373	0.000646	6.463740	2.189974	-0.051624
1192	5.9550e-01	-7.5960	-43.480836	0.000141	1.413943	0.479057	-0.011293
1193	5.9600e-01	-7.6410	-43.799451	0.000798	7.978678	2.703249	-0.063723
1194	5.9650e-01	-7.6811	-44.263257	0.001161	11.614532	3.935110	-0.092761
1195	5.9700e-01	-7.7244	-44.525409	0.000656	6.564735	2.224193	-0.052430
1196	5.9750e-01	-7.7597	-44.408449	-0.000293	-2.928882	-0.992332	0.023392
1197	5.9800e-01	-7.7934	-44.489111	0.000202	2.019919	0.684367	-0.016132
1198	5.9850e-01	-7.8399	-44.896454	0.001020	10.200589	3.456053	-0.081469
1199	5.9900e-01	-7.8848	-45.215068	0.000798	7.978678	2.703249	-0.063723
1200	5.9950e-01	-7.9105	-45.582080	0.000919	9.190630	3.113870	-0.073402
1201	6.0000e-01	-7.9554	-45.735338	0.000384	3.837845	1.300297	-0.030652
1202	6.0050e-01	-7.9939	-45.852298	0.000293	2.928882	0.992332	-0.023392
1203	6.0100e-01	-8.0388	-45.953125	0.000252	2.524898	0.855459	-0.020165
1204	6.0150e-01	-8.0741	-46.021688	0.000172	1.716931	0.581712	-0.013713
1205	6.0200e-01	-8.1190	-46.110416	0.000222	2.221910	0.752804	-0.017746
1206	6.0250e-01	-8.1527	-46.513726	0.001010	10.099593	3.421835	-0.080662
1207	6.0300e-01	-8.1896	-46.662951	0.000374	3.736849	1.266079	-0.029845
1208	6.0350e-01	-8.2281	-46.908970	0.000616	6.160752	2.087319	-0.049204
1209	6.0400e-01	-8.2714	-47.066261	0.000394	3.938841	1.334516	-0.031458
1210	6.0450e-01	-8.3244	-47.332445	0.000667	6.665731	2.258411	-0.053237
1211	6.0500e-01	-8.3564	-47.554266	0.000555	5.554776	1.882009	-0.044364
1212	6.0550e-01	-8.3950	-47.667192	0.000283	2.827886	0.958114	-0.022585
1213	6.0600e-01	-8.4367	-47.917244	0.000626	6.261748	2.121538	-0.050010
1214	6.0650e-01	-8.4720	-48.030171	0.000283	2.827886	0.958114	-0.022585
1215	6.0700e-01	-8.5201	-48.336687	0.000768	7.675691	2.600594	-0.061303
1216	6.0750e-01	-8.5650	-48.425415	0.000222	2.221910	0.752804	-0.017746
1217	6.0800e-01	-8.5891	-48.796460	0.000929	9.291626	3.148088	-0.074209
1218	6.0850e-01	-8.6404	-48.941652	0.000364	3.635853	1.231861	-0.029038
1219	6.0900e-01	-8.6725	-49.312697	0.000929	9.291626	3.148088	-0.074209
1220	6.0950e-01	-8.7174	-49.369160	0.000141	1.413943	0.479057	-0.011293
1221	6.1000e-01	-8.7543	-49.469987	0.000252	2.524898	0.855459	-0.020165
1222	6.1050e-01	-8.8056	-49.570815	0.000252	2.524898	0.855459	-0.020165
1223	6.1100e-01	-8.8361	-49.921694	0.000879	8.786646	2.976996	-0.070176
1224	6.1150e-01	-8.8858	-50.171747	0.000626	6.261748	2.121538	-0.050010
1225	6.1200e-01	-8.9179	-50.397600	0.000566	5.655772	1.916227	-0.045171
1226	6.1250e-01	-8.9532	-50.639586	0.000606	6.059756	2.053101	-0.048397
1227	6.1300e-01	-9.0062	-50.635553	-0.000010	-0.100996	-0.034218	0.000807
1228	6.1350e-01	-9.0415	-50.954168	0.000798	7.978678	2.703249	-0.063723
1229	6.1400e-01	-9.0816	-51.103392	0.000374	3.736849	1.266079	-0.029845
1230	6.1450e-01	-9.1153	-51.413941	0.000778	7.776687	2.634813	-0.062110
1231	6.1500e-01	-9.1570	-51.345378	-0.000172	-1.716931	-0.581712	0.013713
1232	6.1550e-01	-9.1971	-51.599464	0.000636	6.362744	2.155756	-0.050817
1233	6.1600e-01	-9.2468	-51.893880	0.000737	7.372703	2.497939	-0.058883
1234	6.1650e-01	-9.2789	-52.272991	0.000949	9.493617	3.216525	-0.075822
1235	6.1700e-01	-9.3222	-52.301223	0.000071	0.706972	0.239528	-0.005646
1236	6.1750e-01	-9.3511	-52.442381	0.000353	3.534858	1.197642	-0.028232
1237	6.1800e-01	-9.3976	-52.785195	0.000858	8.584654	2.908560	-0.068563
1238	6.1850e-01	-9.4345	-53.196571	0.001030	10.301585	3.490271	-0.082275
1239	6.1900e-01	-9.4746	-53.382093	0.000465	4.645813	1.574044	-0.037105
1240	6.1950e-01	-9.5195	-53.531318	0.000374	3.736849	1.266079	-0.029845
1241	6.2000e-01	-9.5612	-53.430490	-0.000252	-2.524898	-0.855459	0.020165
1242	6.2050e-01	-9.5949	-53.781370	0.000879	8.786646	2.976996	-0.070176
1243	6.2100e-01	-9.6414	-53.918495	0.000343	3.433862	1.163424	-0.027425
1244	6.2150e-01	-9.6719	-54.188713	0.000677	6.766727	2.292629	-0.054044
1245	6.2200e-01	-9.7200	-54.394401	0.000515	5.150792	1.745136	-0.041138
1246	6.2250e-01	-9.7618	-54.386335	-0.000020	-0.201992	-0.068437	0.001613
1247	6.2300e-01	-9.8035	-54.717049	0.000828	8.281666	2.805904	-0.066143
1248	6.2350e-01	-9.8291	-54.890472	0.000434	4.342825	1.471389	-0.034685
1249	6.2400e-01	-9.8708	-55.156656	0.000667	6.665731	2.258411	-0.053237
1250	6.2450e-01	-9.9190	-55.309914	0.000384	3.837845	1.300297	-0.030652
1251	6.2500e-01	-9.9639	-55.398642	0.000222	2.221910	0.752804	-0.017746
1252	6.2550e-01	-9.9992	-55.495437	0.000242	2.423902	0.821240	-0.019359
1253	6.2600e-01	-10.0377	-55.874548	0.000949	9.493617	3.216525	-0.075822
1254	6.2650e-01	-10.0778	-56.193163	0.000798	7.978678	2.703249	-0.063723
1255	6.2700e-01	-10.1147	-56.487579	0.000737	7.372703	2.497939	-0.058883
1256	6.2750e-01	-10.1516	-56.576307	0.000222	2.221910	0.752804	-0.017746
1257	6.2800e-01	-10.2013	-56.689234	0.000283	2.827886	0.958114	-0.022585
1258	6.2850e-01	-10.2430	-56.943319	0.000636	6.362744	2.155756	-0.050817
1259	6.2900e-01	-10.2815	-57.124809	0.000454	4.544817	1.539826	-0.036298
1260	6.2950e-01	-10.3232	-57.306298	0.000454	4.544817	1.539826	-0.036298
1261	6.3000e-01	-10.3521	-57.459556	0.000384	3.837845	1.300297	-0.030652
1262	6.3050e-01	-10.3954	-57.604747	0.000364	3.635853	1.231861	-0.029038
1263	6.3100e-01	-10.4484	-57.810435	0.000515	5.150792	1.745136	-0.041138
1264	6.3150e-01	-10.4708	-57.987892	0.000444	4.443821	1.505607	-0.035491
1265	6.3200e-01	-10.5190	-58.036289	0.000121	1.211951	0.410620	-0.009679
1266	6.3250e-01	-10.5639	-58.354904	0.000798	7.978678	2.703249	-0.063723
1267	6.3300e-01	-10.5927	-58.596890	0.000606	6.059756	2.053101	-0.048397
1268	6.3350e-01	-10.6377	-58.846942	0.000626	6.261748	2.121538	-0.050010
1269	6.3400e-01	-10.6794	-59.072795	0.000566	5.655772	1.916227	-0.045171
1270	6.3450e-01	-10.7115	-59.217987	0.000364	3.635853	1.231861	-0.029038
1271	6.3500e-01	-10.7596	-59.488204	0.000677	6.766727	2.292629	-0.054044
1272	6.3550e-01	-10.7997	-59.613230	0.000313	3.130874	1.060769	-0.025005
1273	6.3600e-01	-10.8430	-59.681793	0.000172	1.716931	0.581712	-0.013713
1274	6.3650e-01	-10.8767	-59.867316	0.000465	4.645813	1.574044	-0.037105
1275	6.3700e-01	-10.9264	-60.117368	0.000626	6.261748	2.121538	-0.050010
1276	6.3750e-01	-10.9569	-60.347254	0.000576	5.756768	1.950446	-0.045977
1277	6.3800e-01	-10.9986	-60.613439	0.000667	6.665731	2.258411	-0.053237
1278	6.3850e-01	-11.0323	-60.702167	0.000222	2.221910	0.752804	-0.017746
1279	6.3900e-01	-11.0772	-60.944153	0.000606	6.059756	2.053101	-0.048397
1280	6.3950e-01	-11.1157	-61.020782	0.000192	1.918923	0.650149	-0.015326
1281	6.4000e-01	-11.1623	-61.387794	0.000919	9.190630	3.113870	-0.073402
1282	6.4050e-01	-11.1943	-61.395860	0.000020	0.201992	0.068437	-0.001613
1283	6.4100e-01	-11.2296	-61.847567	0.001131	11.311544	3.832455	-0.090341
1284	6.4150e-01	-11.2794	-62.049222	0.000505	5.049797	1.710917	-0.040331
1285	6.4200e-01	-11.3147	-62.133917	0.000212	2.120915	0.718585	-0.016939
1286	6.4250e-01	-11.3580	-62.323473	0.000475	4.746809	1.608262	-0.037911
1287	6.4300e-01	-11.4013	-62.517061	0.000485	4.847805	1.642481	-0.038718
1288	6.4350e-01	-11.4430	-62.585624	0.000172	1.716931	0.581712	-0.013713
1289	6.4400e-01	-11.4799	-62.694518	0.000273	2.726890	0.923895	-0.021779
1290	6.4450e-01	-11.5088	-63.089761	0.000990	9.897601	3.353398	-0.079049
1291	6.4500e-01	-11.5617	-63.226887	0.000343	3.433862	1.163424	-0.027425
1292	6.4550e-01	-11.5986	-63.545502	0.000798	7.978678	2.703249	-0.063723
1293	6.4600e-01	-11.6451	-63.501137	-0.000111	-1.110955	-0.376402	0.008873
1294	6.4650e-01	-11.6628	-63.847984	0.000869	8.685650	2.942778	-0.069369
1295	6.4700e-01	-11.7157	-64.206930	0.000899	8.988638	3.045433	-0.071789
1296	6.4750e-01	-11.7558	-64.210963	0.000010	0.100996	0.034218	-0.000807
1297	6.4800e-01	-11.8023	-64.420684	0.000525	5.251788	1.779354	-0.041944
1298	6.4850e-01	-11.8328	-64.473114	0.000131	1.312947	0.444839	-0.010486
1299	6.4900e-01	-11.8729	-64.719133	0.000616	6.160752	2.087319	-0.049204
1300	6.4950e-01	-11.9178	-64.815928	0.000242	2.423902	0.821240	-0.019359
1301	6.5000e-01	-11.9563	-64.989351	0.000434	4.342825	1.471389	-0.034685
1302	6.5050e-01	-12.0029	-65.150675	0.000404	4.039837	1.368734	-0.032265
1303	6.5100e-01	-12.0350	-65.614481	0.001161	11.614532	3.935110	-0.092761
1304	6.5150e-01	-12.0783	-65.852434	0.000596	5.958760	2.018883	-0.047591
1305	6.5200e-01	-12.1200	-66.029890	0.000444	4.443821	1.505607	-0.035491
1306	6.5250e-01	-12.1617	-66.046023	0.000040	0.403984	0.136873	-0.003226
1307	6.5300e-01	-12.1938	-66.388836	0.000858	8.584654	2.908560	-0.068563
1308	6.5350e-01	-12.2355	-66.360604	-0.000071	-0.706972	-0.239528	0.005646
1309	6.5400e-01	-12.2676	-66.832477	0.001182	11.816524	4.003547	-0.094375
1310	6.5450e-01	-12.3157	-67.001867	0.000424	4.241829	1.437171	-0.033878
1311	6.5500e-01	-12.3654	-67.187390	0.000465	4.645813	1.574044	-0.037105
1312	6.5550e-01	-12.3991	-67.380978	0.000485	4.847805	1.642481	-0.038718
1313	6.5600e-01	-12.4408	-67.308383	-0.000182	-1.817927	-0.615930	0.014519
1314	6.5650e-01	-12.4729	-67.433409	0.000313	3.130874	1.060769	-0.025005
1315	6.5700e-01	-12.5210	-67.683461	0.000626	6.261748	2.121538	-0.050010
1316	6.5750e-01	-12.5563	-67.889149	0.000515	5.150792	1.745136	-0.041138
1317	6.5800e-01	-12.5948	-68.102903	0.000535	5.352784	1.813572	-0.042751
1318	6.5850e-01	-12.6349	-68.276326	0.000434	4.342825	1.471389	-0.034685
1319	6.5900e-01	-12.6815	-68.522345	0.000616	6.160752	2.087319	-0.049204
1320	6.5950e-01	-12.7184	-68.594941	0.000182	1.817927	0.615930	-0.014519
1321	6.6000e-01	-12.7665	-68.715934	0.000303	3.029878	1.026550	-0.024199
1322	6.6050e-01	-12.7841	-69.163608	0.001121	11.210548	3.798237	-0.089535
1323	6.6100e-01	-12.8419	-69.135376	-0.000071	-0.706972	-0.239528	0.005646
1324	6.6150e-01	-12.8724	-69.574984	0.001101	11.008556	3.729800	-0.087922
1325	6.6200e-01	-12.9125	-69.905698	0.000828	8.281666	2.805904	-0.066143
1326	6.6250e-01	-12.9510	-69.877466	-0.000071	-0.706972	-0.239528	0.005646
1327	6.6300e-01	-13.0023	-70.325140	0.001121	11.210548	3.798237	-0.089535
1328	6.6350e-01	-13.0328	-70.248511	-0.000192	-1.918923	-0.650149	0.015326
1329	6.6400e-01	-13.0729	-70.434034	0.000465	4.645813	1.574044	-0.037105
1330	6.6450e-01	-13.1066	-70.740549	0.000768	7.675691	2.600594	-0.061303
1331	6.6500e-01	-13.1579	-70.845410	0.000263	2.625894	0.889677	-0.020972
1332	6.6550e-01	-13.1932	-70.801046	-0.000111	-1.110955	-0.376402	0.008873
1333	6.6600e-01	-13.2429	-71.123694	0.000808	8.079674	2.737468	-0.064530
1334	6.6650e-01	-13.2782	-71.192257	0.000172	1.716931	0.581712	-0.013713
1335	6.6700e-01	-13.3183	-71.599599	0.001020	10.200589	3.456053	-0.081469
1336	6.6750e-01	-13.3601	-71.559269	-0.000101	-1.009959	-0.342183	0.008066
1337	6.6800e-01	-13.4034	-71.833519	0.000687	6.867723	2.326848	-0.054850
1338	6.6850e-01	-13.4467	-71.954512	0.000303	3.029878	1.026550	-0.024199
1339	6.6900e-01	-13.4772	-72.156167	0.000505	5.049797	1.710917	-0.040331
1340	6.6950e-01	-13.5221	-72.297326	0.000353	3.534858	1.197642	-0.028232
1341	6.7000e-01	-13.5574	-72.539311	0.000606	6.059756	2.053101	-0.048397
1342	6.7050e-01	-13.6055	-72.624007	0.000212	2.120915	0.718585	-0.016939
1343	6.7100e-01	-13.6376	-72.825661	0.000505	5.049797	1.710917	-0.040331
1344	6.7150e-01	-13.6697	-73.212839	0.000970	9.695609	3.284961	-0.077435
1345	6.7200e-01	-13.7210	-73.394328	0.000454	4.544817	1.539826	-0.036298
1346	6.7250e-01	-13.7595	-73.563719	0.000424	4.241829	1.437171	-0.033878
1347	6.7300e-01	-13.8060	-73.850069	0.000717	7.170711	2.429503	-0.057270
1348	6.7350e-01	-13.8397	-73.837969	-0.000030	-0.302988	-0.102655	0.002420
1349	6.7400e-01	-13.8830	-73.829903	-0.000020	-0.201992	-0.068437	0.001613
1350	6.7450e-01	-13.9183	-74.079955	0.000626	6.261748	2.121538	-0.050010
1351	6.7500e-01	-13.9648	-74.467133	0.000970	9.695609	3.284961	-0.077435
1352	6.7550e-01	-13.9905	-74.745416	0.000697	6.968719	2.361066	-0.055657
1353	6.7600e-01	-14.0354	-74.813979	0.000172	1.716931	0.581712	-0.013713
1354	6.7650e-01	-14.0723	-74.991435	0.000444	4.443821	1.505607	-0.035491
1355	6.7700e-01	-14.1140	-75.176958	0.000465	4.645813	1.574044	-0.037105
1356	6.7750e-01	-14.1541	-75.253587	0.000192	1.918923	0.650149	-0.015326
1357	6.7800e-01	-14.2023	-75.370547	0.000293	2.928882	0.992332	-0.023392
1358	6.7850e-01	-14.2360	-75.628665	0.000646	6.463740	2.189974	-0.051624
1359	6.7900e-01	-14.2825	-75.818221	0.000475	4.746809	1.608262	-0.037911
1360	6.7950e-01	-14.3194	-75.894849	0.000192	1.918923	0.650149	-0.015326
1361	6.8000e-01	-14.3659	-76.326391	0.001081	10.806565	3.661363	-0.086308
1362	6.8050e-01	-14.3916	-76.467549	0.000353	3.534858	1.197642	-0.028232
1363	6.8100e-01	-14.4285	-76.499814	0.000081	0.807967	0.273747	-0.006453
1364	6.8150e-01	-14.4782	-76.717602	0.000545	5.453780	1.847791	-0.043557
1365	6.8200e-01	-14.5295	-76.862793	0.000364	3.635853	1.231861	-0.029038
1366	6.8250e-01	-14.5536	-77.096713	0.000586	5.857764	1.984664	-0.046784
1367	6.8300e-01	-14.6001	-77.157209	0.000151	1.514939	0.513275	-0.012099
1368	6.8350e-01	-14.6402	-77.379030	0.000555	5.554776	1.882009	-0.044364
1369	6.8400e-01	-14.6707	-77.794439	0.001040	10.402581	3.524490	-0.083082
1370	6.8450e-01	-14.7188	-77.754108	-0.000101	-1.009959	-0.342183	0.008066
1371	6.8500e-01	-14.7541	-77.915432	0.000404	4.039837	1.368734	-0.032265
1372	6.8550e-01	-14.8055	-78.113054	0.000495	4.948801	1.676699	-0.039524
1373	6.8600e-01	-14.8392	-78.068690	-0.000111	-1.110955	-0.376402	0.008873
1374	6.8650e-01	-14.8793	-78.520397	0.001131	11.311544	3.832455	-0.090341
1375	6.8700e-01	-14.9162	-78.520397	-0.000000	-0.000000	-0.000000	0.000000
1376	6.8750e-01	-14.9627	-78.814813	0.000737	7.372703	2.497939	-0.058883
1377	6.8800e-01	-15.0060	-79.097130	0.000707	7.069715	2.395284	-0.056463
1378	6.8850e-01	-15.0477	-79.044700	-0.000131	-1.312947	-0.444839	0.010486
1379	6.8900e-01	-15.0798	-79.556903	0.001283	12.826483	4.345730	-0.102441
1380	6.8950e-01	-15.1295	-79.661764	0.000263	2.625894	0.889677	-0.020972
1381	6.9000e-01	-15.1680	-79.806955	0.000364	3.635853	1.231861	-0.029038
1382	6.9050e-01	-15.1937	-79.891650	0.000212	2.120915	0.718585	-0.016939
1383	6.9100e-01	-15.2290	-80.012643	0.000303	3.029878	1.026550	-0.024199
1384	6.9150e-01	-15.2851	-80.319159	0.000768	7.675691	2.600594	-0.061303
1385	6.9200e-01	-15.3204	-80.367556	0.000121	1.211951	0.410620	-0.009679
1386	6.9250e-01	-15.3637	-80.456284	0.000222	2.221910	0.752804	-0.017746
1387	6.9300e-01	-15.4006	-80.645840	0.000475	4.746809	1.608262	-0.037911
1388	6.9350e-01	-15.4375	-80.956388	0.000778	7.776687	2.634813	-0.062110
1389	6.9400e-01	-15.4728	-81.109646	0.000384	3.837845	1.300297	-0.030652
1390	6.9450e-01	-15.5258	-81.339533	0.000576	5.756768	1.950446	-0.045977
1391	6.9500e-01	-15.5627	-81.476658	0.000343	3.433862	1.163424	-0.027425
1392	6.9550e-01	-15.5964	-81.855769	0.000949	9.493617	3.216525	-0.075822
1393	6.9600e-01	-15.6413	-82.053391	0.000495	4.948801	1.676699	-0.039524
1394	6.9650e-01	-15.6734	-82.117921	0.000162	1.615935	0.547494	-0.012906
1395	6.9700e-01	-15.7183	-82.291344	0.000434	4.342825	1.471389	-0.034685
1396	6.9750e-01	-15.7600	-82.517197	0.000566	5.655772	1.916227	-0.045171
1397	6.9800e-01	-15.7985	-82.767250	0.000626	6.261748	2.121538	-0.050010
1398	6.9850e-01	-15.8386	-82.791448	0.000061	0.605976	0.205310	-0.004840
1399	6.9900e-01	-15.8771	-83.017302	0.000566	5.655772	1.916227	-0.045171
1400	6.9950e-01	-15.9124	-83.162493	0.000364	3.635853	1.231861	-0.029038
1401	7.0000e-01	-15.9541	-83.343983	0.000454	4.544817	1.539826	-0.036298
1402	7.0050e-01	-16.0006	-83.448843	0.000263	2.625894	0.889677	-0.020972
1403	7.0100e-01	-16.0407	-83.767458	0.000798	7.978678	2.703249	-0.063723
1404	7.0150e-01	-16.0744	-83.888451	0.000303	3.029878	1.026550	-0.024199
1405	7.0200e-01	-16.1177	-84.332092	0.001111	11.109552	3.764018	-0.088728
1406	7.0250e-01	-16.1546	-84.025576	-0.000768	-7.675691	-2.600594	0.061303
1407	7.0300e-01	-16.2108	-84.311926	0.000717	7.170711	2.429503	-0.057270
1408	7.0350e-01	-16.2348	-84.642640	0.000828	8.281666	2.805904	-0.066143
1409	7.0400e-01	-16.2814	-84.682971	0.000101	1.009959	0.342183	-0.008066
1410	7.0450e-01	-16.3150	-84.993520	0.000778	7.776687	2.634813	-0.062110
1411	7.0500e-01	-16.3600	-85.243572	0.000626	6.261748	2.121538	-0.050010
1412	7.0550e-01	-16.3937	-85.421028	0.000444	4.443821	1.505607	-0.035491
1413	7.0600e-01	-16.4322	-85.481525	0.000151	1.514939	0.513275	-0.012099
1414	7.0650e-01	-16.4835	-85.796107	0.000788	7.877683	2.669031	-0.062916
1415	7.0700e-01	-16.5140	-85.981629	0.000465	4.645813	1.574044	-0.037105
1416	7.0750e-01	-16.5573	-86.155052	0.000434	4.342825	1.471389	-0.034685
1417	7.0800e-01	-16.5926	-86.421237	0.000667	6.665731	2.258411	-0.053237
1418	7.0850e-01	-16.6311	-86.284111	-0.000343	-3.433862	-1.163424	0.027425
1419	7.0900e-01	-16.6792	-86.485766	0.000505	5.049797	1.710917	-0.040331
1420	7.0950e-01	-16.7209	-86.663223	0.000444	4.443821	1.505607	-0.035491
1421	7.1000e-01	-16.7562	-86.788249	0.000313	3.130874	1.060769	-0.025005
1422	7.1050e-01	-16.8011	-87.038301	0.000626	6.261748	2.121538	-0.050010
1423	7.1100e-01	-16.8460	-87.094764	0.000141	1.413943	0.479057	-0.011293
1424	7.1150e-01	-16.8749	-87.477909	0.000959	9.594613	3.250743	-0.076629
1425	7.1200e-01	-16.9198	-87.808623	0.000828	8.281666	2.805904	-0.066143
1426	7.1250e-01	-16.9551	-87.848954	0.000101	1.009959	0.342183	-0.008066
1427	7.1300e-01	-16.9952	-87.913483	0.000162	1.615935	0.547494	-0.012906
1428	7.1350e-01	-17.0402	-88.050609	0.000343	3.433862	1.163424	-0.027425
1429	7.1400e-01	-17.0787	-88.377290	0.000818	8.180670	2.771686	-0.065336
1430	7.1450e-01	-17.1107	-88.708004	0.000828	8.281666	2.805904	-0.066143
1431	7.1500e-01	-17.1573	-88.772533	0.000162	1.615935	0.547494	-0.012906
1432	7.1550e-01	-17.1878	-88.788666	0.000040	0.403984	0.136873	-0.003226
1433	7.1600e-01	-17.2327	-89.022585	0.000586	5.857764	1.984664	-0.046784
1434	7.1650e-01	-17.2808	-89.095181	0.000182	1.817927	0.615930	-0.014519
1435	7.1700e-01	-17.3129	-89.341200	0.000616	6.160752	2.087319	-0.049204
1436	7.1750e-01	-17.3658	-89.704179	0.000909	9.089634	3.079651	-0.072596
1437	7.1800e-01	-17.3995	-89.845338	0.000353	3.534858	1.197642	-0.028232
1438	7.1850e-01	-17.4268	-90.071191	0.000566	5.655772	1.916227	-0.045171
1439	7.1900e-01	-17.4813	-89.966331	-0.000263	-2.625894	-0.889677	0.020972
1440	7.1950e-01	-17.5150	-90.264780	0.000747	7.473699	2.532158	-0.059690
1441	7.2000e-01	-17.5647	-90.349475	0.000212	2.120915	0.718585	-0.016939
1442	7.2050e-01	-17.6065	-90.615659	0.000667	6.665731	2.258411	-0.053237
1443	7.2100e-01	-17.6369	-91.035102	0.001050	10.503577	3.558708	-0.083888
1444	7.2150e-01	-17.6786	-90.974605	-0.000151	-1.514939	-0.513275	0.012099
1445	7.2200e-01	-17.7188	-91.289187	0.000788	7.877683	2.669031	-0.062916
1446	7.2250e-01	-17.7621	-91.450511	0.000404	4.039837	1.368734	-0.032265
1447	7.2300e-01	-17.7990	-91.555371	0.000263	2.625894	0.889677	-0.020972
1448	7.2350e-01	-17.8359	-91.632000	0.000192	1.918923	0.650149	-0.015326
1449	7.2400e-01	-17.8712	-91.878019	0.000616	6.160752	2.087319	-0.049204
1450	7.2450e-01	-17.9241	-92.095807	0.000545	5.453780	1.847791	-0.043557
1451	7.2500e-01	-17.9578	-92.120005	0.000061	0.605976	0.205310	-0.004840
1452	7.2550e-01	-17.9931	-92.269230	0.000374	3.736849	1.266079	-0.029845
1453	7.2600e-01	-18.0476	-92.571712	0.000757	7.574695	2.566376	-0.060496
1454	7.2650e-01	-18.0781	-92.849996	0.000697	6.968719	2.361066	-0.055657
1455	7.2700e-01	-18.1070	-93.136346	0.000717	7.170711	2.429503	-0.057270
1456	7.2750e-01	-18.1679	-93.233140	0.000242	2.423902	0.821240	-0.019359
1457	7.2800e-01	-18.1904	-93.225074	-0.000020	-0.201992	-0.068437	0.001613
1458	7.2850e-01	-18.2337	-93.640483	0.001040	10.402581	3.524490	-0.083082
1459	7.2900e-01	-18.2738	-93.850204	0.000525	5.251788	1.779354	-0.041944
1460	7.2950e-01	-18.3139	-93.910701	0.000151	1.514939	0.513275	-0.012099
1461	7.3000e-01	-18.3572	-94.124455	0.000535	5.352784	1.813572	-0.042751
1462	7.3050e-01	-18.4054	-94.305945	0.000454	4.544817	1.539826	-0.036298
1463	7.3100e-01	-18.4342	-94.568096	0.000656	6.564735	2.224193	-0.052430
1464	7.3150e-01	-18.4808	-94.701188	0.000333	3.332866	1.129205	-0.026618
1465	7.3200e-01	-18.5209	-94.898810	0.000495	4.948801	1.676699	-0.039524
1466	7.3250e-01	-18.5530	-94.834281	-0.000162	-1.615935	-0.547494	0.012906
1467	7.3300e-01	-18.6011	-94.927042	0.000232	2.322906	0.787022	-0.018552
1468	7.3350e-01	-18.6348	-95.290021	0.000909	9.089634	3.079651	-0.072596
1469	7.3400e-01	-18.6765	-95.640900	0.000879	8.786646	2.976996	-0.070176
1470	7.3450e-01	-18.7214	-95.818357	0.000444	4.443821	1.505607	-0.035491
1471	7.3500e-01	-18.7503	-96.020012	0.000505	5.049797	1.710917	-0.040331
1472	7.3550e-01	-18.7984	-96.165203	0.000364	3.635853	1.231861	-0.029038
1473	7.3600e-01	-18.8353	-96.229733	0.000162	1.615935	0.547494	-0.012906
1474	7.3650e-01	-18.8754	-96.564480	0.000838	8.382662	2.840123	-0.066949
1475	7.3700e-01	-18.9155	-96.685473	0.000303	3.029878	1.026550	-0.024199
1476	7.3750e-01	-18.9572	-97.048452	0.000909	9.089634	3.079651	-0.072596
1477	7.3800e-01	-19.0005	-96.939558	-0.000273	-2.726890	-0.923895	0.021779
1478	7.3850e-01	-19.0422	-97.149279	0.000525	5.251788	1.779354	-0.041944
1479	7.3900e-01	-19.0807	-97.423530	0.000687	6.867723	2.326848	-0.054850
1480	7.3950e-01	-19.1273	-97.592920	0.000424	4.241829	1.437171	-0.033878
1481	7.4000e-01	-19.1545	-97.814740	0.000555	5.554776	1.882009	-0.044364
1482	7.4050e-01	-19.1930	-98.165620	0.000879	8.786646	2.976996	-0.070176
1483	7.4100e-01	-19.2428	-98.149488	-0.000040	-0.403984	-0.136873	0.003226
1484	7.4150e-01	-19.2733	-98.326944	0.000444	4.443821	1.505607	-0.035491
1485	7.4200e-01	-19.3134	-98.746386	0.001050	10.503577	3.558708	-0.083888
1486	7.4250e-01	-19.3647	-98.722188	-0.000061	-0.605976	-0.205310	0.004840
1487	7.4300e-01	-19.4000	-98.843181	0.000303	3.029878	1.026550	-0.024199
1488	7.4350e-01	-19.4305	-99.137597	0.000737	7.372703	2.497939	-0.058883
1489	7.4400e-01	-19.4690	-99.444112	0.000768	7.675691	2.600594	-0.061303
1490	7.4450e-01	-19.5171	-99.290854	-0.000384	-3.837845	-1.300297	0.030652
1491	7.4500e-01	-19.5652	-99.540907	0.000626	6.261748	2.121538	-0.050010
1492	7.4550e-01	-19.5925	-99.924051	0.000959	9.594613	3.250743	-0.076629
1493	7.4600e-01	-19.6406	-100.081342	0.000394	3.938841	1.334516	-0.031458
1494	7.4650e-01	-19.6791	-100.258798	0.000444	4.443821	1.505607	-0.035491
1495	7.4700e-01	-19.7208	-100.682274	0.001060	10.604573	3.592926	-0.084695
1496	7.4750e-01	-19.7609	-100.641943	-0.000101	-1.009959	-0.342183	0.008066
1497	7.4800e-01	-19.7914	-100.900061	0.000646	6.463740	2.189974	-0.051624
1498	7.4850e-01	-19.8428	-101.045252	0.000364	3.635853	1.231861	-0.029038
1499	7.4900e-01	-19.8813	-101.319503	0.000687	6.867723	2.326848	-0.054850
1500	7.4950e-01	-19.9133	-101.303371	-0.000040	-0.403984	-0.136873	0.003226
1501	7.5000e-01	-19.9583	-101.323536	0.000050	0.504980	0.171092	-0.004033
1502	7.5050e-01	-19.9583	-101.452595	0.000323	3.231870	1.094987	-0.025812
1503	7.5100e-01	-19.9294	-101.319503	0.000333	3.332866	1.129205	0.026618
1504	7.5150e-01	-19.8973	-101.392099	-0.000182	-1.817927	-0.615930	-0.014519
1505	7.5200e-01	-19.8636	-101.254974	0.000343	3.433862	1.163424	0.027425
1506	7.5250e-01	-19.8171	-101.367900	-0.000283	-2.827886	-0.958114	-0.022585
1507	7.5300e-01	-19.7738	-101.198510	0.000424	4.241829	1.437171	0.033878
1508	7.5350e-01	-19.7497	-101.000888	0.000495	4.948801	1.676699	0.039524
1509	7.5400e-01	-19.7080	-100.920226	0.000202	2.019919	0.684367	0.016132
1510	7.5450e-01	-19.6583	-100.920226	0.000000	0.000000	0.000000	0.000000
1511	7.5500e-01	-19.6262	-100.541115	0.000949	9.493617	3.216525	0.075822
1512	7.5550e-01	-19.5829	-100.811333	-0.000677	-6.766727	-2.292629	-0.054044
1513	7.5600e-01	-19.5444	-100.690340	0.000303	3.029878	1.026550	0.024199
1514	7.5650e-01	-19.4914	-100.496751	0.000485	4.847805	1.642481	0.038718
1515	7.5700e-01	-19.4577	-100.621777	-0.000313	-3.130874	-1.060769	-0.025005
1516	7.5750e-01	-19.4273	-100.351559	0.000677	6.766727	2.292629	0.054044
1517	7.5800e-01	-19.3791	-100.214434	0.000343	3.433862	1.163424	0.027425
1518	7.5850e-01	-19.3342	-99.871621	0.000858	8.584654	2.908560	0.068563
1519	7.5900e-01	-19.2941	-99.839356	0.000081	0.807967	0.273747	0.006453
1520	7.5950e-01	-19.2652	-99.803058	0.000091	0.908963	0.307965	0.007260
1521	7.6000e-01	-19.2267	-99.706264	0.000242	2.423902	0.821240	0.019359
1522	7.6050e-01	-19.1834	-99.444112	0.000656	6.564735	2.224193	0.052430
1523	7.6100e-01	-19.1433	-99.561072	-0.000293	-2.928882	-0.992332	-0.023392
1524	7.6150e-01	-19.0984	-99.206159	0.000889	8.887642	3.011215	0.070983
1525	7.6200e-01	-19.0631	-98.964174	0.000606	6.059756	2.053101	0.048397
1526	7.6250e-01	-19.0230	-99.335219	-0.000929	-9.291626	-3.148088	-0.074209
1527	7.6300e-01	-18.9893	-99.226325	0.000273	2.726890	0.923895	0.021779
1528	7.6350e-01	-18.9412	-98.988372	0.000596	5.958760	2.018883	0.047591
1529	7.6400e-01	-18.9139	-98.766552	0.000555	5.554776	1.882009	0.044364
1530	7.6450e-01	-18.8674	-98.496334	0.000677	6.766727	2.292629	0.054044
1531	7.6500e-01	-18.8209	-98.601195	-0.000263	-2.625894	-0.889677	-0.020972
1532	7.6550e-01	-18.7872	-98.359209	0.000606	6.059756	2.053101	0.048397
1533	7.6600e-01	-18.7439	-98.330977	0.000071	0.706972	0.239528	0.005646
1534	7.6650e-01	-18.7021	-98.016395	0.000788	7.877683	2.669031	0.062916
1535	7.6700e-01	-18.6636	-98.234183	-0.000545	-5.453780	-1.847791	-0.043557
1536	7.6750e-01	-18.6171	-97.947833	0.000717	7.170711	2.429503	0.057270
1537	7.6800e-01	-18.5754	-97.548556	0.001000	9.998597	3.387616	0.079855
1538	7.6850e-01	-18.5417	-97.371100	0.000444	4.443821	1.505607	0.035491
1539	7.6900e-01	-18.4984	-97.637284	-0.000667	-6.665731	-2.258411	-0.053237
1540	7.6950e-01	-18.4631	-97.246073	0.000980	9.796605	3.319180	0.078242
1541	7.7000e-01	-18.4246	-97.467894	-0.000555	-5.554776	-1.882009	-0.044364
1542	7.7050e-01	-18.3829	-97.096849	0.000929	9.291626	3.148088	0.074209
1543	7.7100e-01	-18.3428	-97.040385	0.000141	1.413943	0.479057	0.011293
1544	7.7150e-01	-18.2979	-96.919393	0.000303	3.029878	1.026550	0.024199
1545	7.7200e-01	-18.2626	-96.637076	0.000707	7.069715	2.395284	0.056463
1546	7.7250e-01	-18.2305	-96.669340	-0.000081	-0.807967	-0.273747	-0.006453
1547	7.7300e-01	-18.1824	-96.524149	0.000364	3.635853	1.231861	0.029038
1548	7.7350e-01	-18.1359	-96.326527	0.000495	4.948801	1.676699	0.039524
1549	7.7400e-01	-18.1022	-96.314428	0.000030	0.302988	0.102655	0.002420
1550	7.7450e-01	-18.0588	-95.919184	0.000990	9.897601	3.353398	0.079049
1551	7.7500e-01	-18.0220	-95.850621	0.000172	1.716931	0.581712	0.013713
1552	7.7550e-01	-17.9883	-95.701397	0.000374	3.736849	1.266079	0.029845
1553	7.7600e-01	-17.9433	-95.697364	0.000010	0.100996	0.034218	0.000807
1554	7.7650e-01	-17.9064	-95.487643	0.000525	5.251788	1.779354	0.041944
1555	7.7700e-01	-17.8679	-95.310186	0.000444	4.443821	1.505607	0.035491
1556	7.7750e-01	-17.8182	-95.229524	0.000202	2.019919	0.684367	0.016132
1557	7.7800e-01	-17.7781	-95.116597	0.000283	2.827886	0.958114	0.022585
1558	7.7850e-01	-17.7428	-94.842347	0.000687	6.867723	2.326848	0.054850
1559	7.7900e-01	-17.7059	-94.781850	0.000151	1.514939	0.513275	0.012099
1560	7.7950e-01	-17.6658	-94.640692	0.000353	3.534858	1.197642	0.028232
1561	7.8000e-01	-17.6305	-94.483401	0.000394	3.938841	1.334516	0.031458
1562	7.8050e-01	-17.5840	-94.382573	0.000252	2.524898	0.855459	0.020165
1563	7.8100e-01	-17.5439	-94.168819	0.000535	5.352784	1.813572	0.042751
1564	7.8150e-01	-17.4958	-94.039760	0.000323	3.231870	1.094987	0.025812
1565	7.8200e-01	-17.4621	-94.116389	-0.000192	-1.918923	-0.650149	-0.015326
1566	7.8250e-01	-17.4204	-94.003462	0.000283	2.827886	0.958114	0.022585
1567	7.8300e-01	-17.3867	-93.684847	0.000798	7.978678	2.703249	0.063723
1568	7.8350e-01	-17.3402	-93.624351	0.000151	1.514939	0.513275	0.012099
1569	7.8400e-01	-17.3081	-93.382365	0.000606	6.059756	2.053101	0.048397
1570	7.8450e-01	-17.2631	-93.257339	0.000313	3.130874	1.060769	0.025005
1571	7.8500e-01	-17.2246	-93.172644	0.000212	2.120915	0.718585	0.016939
1572	7.8550e-01	-17.1829	-92.995188	0.000444	4.443821	1.505607	0.035491
1573	7.8600e-01	-17.1460	-92.737069	0.000646	6.463740	2.189974	0.051624
1574	7.8650e-01	-17.1027	-92.781433	-0.000111	-1.110955	-0.376402	-0.008873
1575	7.8700e-01	-17.0690	-92.491050	0.000727	7.271707	2.463721	0.058077
1576	7.8750e-01	-17.0193	-92.466852	0.000061	0.605976	0.205310	0.004840
1577	7.8800e-01	-16.9872	-92.281329	0.000465	4.645813	1.574044	0.037105
1578	7.8850e-01	-16.9455	-92.039343	0.000606	6.059756	2.053101	0.048397
1579	7.8900e-01	-16.9086	-91.890119	0.000374	3.736849	1.266079	0.029845
1580	7.8950e-01	-16.8573	-91.615868	0.000687	6.867723	2.326848	0.054850
1581	7.9000e-01	-16.8300	-91.688464	-0.000182	-1.817927	-0.615930	-0.014519
1582	7.9050e-01	-16.7883	-91.490842	0.000495	4.948801	1.676699	0.039524
1583	7.9100e-01	-16.7514	-91.119797	0.000929	9.291626	3.148088	0.074209
1584	7.9150e-01	-16.7033	-91.414213	-0.000737	-7.372703	-2.497939	-0.058883
1585	7.9200e-01	-16.6680	-91.176260	0.000596	5.958760	2.018883	0.047591
1586	7.9250e-01	-16.6263	-90.970572	0.000515	5.150792	1.745136	0.041138
1587	7.9300e-01	-16.5894	-90.962506	0.000020	0.201992	0.068437	0.001613
1588	7.9350e-01	-16.5428	-90.518865	0.001111	11.109552	3.764018	0.088728
1589	7.9400e-01	-16.5092	-90.482567	0.000091	0.908963	0.307965	0.007260
1590	7.9450e-01	-16.4530	-90.494666	-0.000030	-0.302988	-0.102655	-0.002420
1591	7.9500e-01	-16.4225	-90.450302	0.000111	1.110955	0.376402	0.008873
1592	7.9550e-01	-16.3856	-90.151853	0.000747	7.473699	2.532158	0.059690
1593	7.9600e-01	-16.3503	-89.905834	0.000616	6.160752	2.087319	0.049204
1594	7.9650e-01	-16.2958	-89.764676	0.000353	3.534858	1.197642	0.028232
1595	7.9700e-01	-16.2589	-89.599319	0.000414	4.140833	1.402952	0.033071
1596	7.9750e-01	-16.2316	-89.587219	0.000030	0.302988	0.102655	0.002420
1597	7.9800e-01	-16.1787	-89.385564	0.000505	5.049797	1.710917	0.040331
1598	7.9850e-01	-16.1402	-89.050817	0.000838	8.382662	2.840123	0.066949
1599	7.9900e-01	-16.1065	-88.824964	0.000566	5.655772	1.916227	0.045171
1600	7.9950e-01	-16.0728	-88.804798	0.000050	0.504980	0.171092	0.004033
1601	8.0000e-01	-16.0263	-88.962089	-0.000394	-3.938841	-1.334516	-0.031458
1602	8.0050e-01	-15.9894	-88.716070	0.000616	6.160752	2.087319	0.049204
1603	8.0100e-01	-15.9541	-88.312760	0.001010	10.099593	3.421835	0.080662
1604	8.0150e-01	-15.8979	-88.143370	0.000424	4.241829	1.437171	0.033878
1605	8.0200e-01	-15.8643	-88.203866	-0.000151	-1.514939	-0.513275	-0.012099
1606	8.0250e-01	-15.8209	-88.103039	0.000252	2.524898	0.855459	0.020165
1607	8.0300e-01	-15.7824	-87.897351	0.000515	5.150792	1.745136	0.041138
1608	8.0350e-01	-15.7423	-87.727961	0.000424	4.241829	1.437171	0.033878
1609	8.0400e-01	-15.7103	-87.437578	0.000727	7.271707	2.463721	0.058077
1610	8.0450e-01	-15.6637	-87.203658	0.000586	5.857764	1.984664	0.046784
1611	8.0500e-01	-15.6204	-87.207691	-0.000010	-0.100996	-0.034218	-0.000807
1612	8.0550e-01	-15.5803	-87.215757	-0.000020	-0.201992	-0.068437	-0.001613
1613	8.0600e-01	-15.5450	-86.832613	0.000959	9.594613	3.250743	0.076629
1614	8.0650e-01	-15.5017	-86.687421	0.000364	3.635853	1.231861	0.029038
1615	8.0700e-01	-15.4600	-86.578528	0.000273	2.726890	0.923895	0.021779
1616	8.0750e-01	-15.4247	-86.437369	0.000353	3.534858	1.197642	0.028232
1617	8.0800e-01	-15.3830	-86.304277	0.000333	3.332866	1.129205	0.026618
1618	8.0850e-01	-15.3349	-86.134887	0.000424	4.241829	1.437171	0.033878
1619	8.0900e-01	-15.3076	-86.038092	0.000242	2.423902	0.821240	0.019359
1620	8.0950e-01	-15.2707	-86.005828	0.000081	0.807967	0.273747	0.006453
1621	8.1000e-01	-15.2306	-85.658981	0.000869	8.685650	2.942778	0.069369
1622	8.1050e-01	-15.1809	-85.542021	0.000293	2.928882	0.992332	0.023392
1623	8.1100e-01	-15.1488	-85.481525	0.000151	1.514939	0.513275	0.012099
1624	8.1150e-01	-15.1006	-85.308102	0.000434	4.342825	1.471389	0.034685
1625	8.1200e-01	-15.0686	-85.045950	0.000656	6.564735	2.224193	0.052430
1626	8.1250e-01	-15.0268	-84.856395	0.000475	4.746809	1.608262	0.037911
1627	8.1300e-01	-14.9819	-84.783799	0.000182	1.817927	0.615930	0.014519
1628	8.1350e-01	-14.9434	-84.574078	0.000525	5.251788	1.779354	0.041944
1629	8.1400e-01	-14.8985	-84.384522	0.000475	4.746809	1.608262	0.037911
1630	8.1450e-01	-14.8568	-84.215132	0.000424	4.241829	1.437171	0.033878
1631	8.1500e-01	-14.8215	-84.134470	0.000202	2.019919	0.684367	0.016132
1632	8.1550e-01	-14.7894	-84.053808	0.000202	2.019919	0.684367	0.016132
1633	8.1600e-01	-14.7429	-83.727127	0.000818	8.180670	2.771686	0.065336
1634	8.1650e-01	-14.7092	-83.541604	0.000465	4.645813	1.574044	0.037105
1635	8.1700e-01	-14.6515	-83.525472	0.000040	0.403984	0.136873	0.003226
1636	8.1750e-01	-14.6178	-83.400446	0.000313	3.130874	1.060769	0.025005
1637	8.1800e-01	-14.5873	-83.295585	0.000263	2.625894	0.889677	0.020972
1638	8.1850e-01	-14.5424	-83.021335	0.000687	6.867723	2.326848	0.054850
1639	8.1900e-01	-14.5023	-82.589793	0.001081	10.806565	3.661363	0.086308
1640	8.1950e-01	-14.4686	-82.747084	-0.000394	-3.938841	-1.334516	-0.031458
1641	8.2000e-01	-14.4188	-82.682554	0.000162	1.615935	0.547494	0.012906
1642	8.2050e-01	-14.3739	-82.634157	0.000121	1.211951	0.410620	0.009679
1643	8.2100e-01	-14.3499	-82.315542	0.000798	7.978678	2.703249	0.063723
1644	8.2150e-01	-14.3114	-82.146152	0.000424	4.241829	1.437171	0.033878
1645	8.2200e-01	-14.2600	-81.871902	0.000687	6.867723	2.326848	0.054850
1646	8.2250e-01	-14.2247	-81.795273	0.000192	1.918923	0.650149	0.015326
1647	8.2300e-01	-14.1846	-81.516989	0.000697	6.968719	2.361066	0.055657
1648	8.2350e-01	-14.1509	-81.424228	0.000232	2.322906	0.787022	0.018552
1649	8.2400e-01	-14.1092	-81.178209	0.000616	6.160752	2.087319	0.049204
1650	8.2450e-01	-14.0611	-81.129811	0.000121	1.211951	0.410620	0.009679
1651	8.2500e-01	-14.0226	-80.928157	0.000505	5.049797	1.710917	0.040331
1652	8.2550e-01	-13.9841	-80.895892	0.000081	0.807967	0.273747	0.006453
1653	8.2600e-01	-13.9440	-80.557111	0.000848	8.483658	2.874341	0.067756
1654	8.2650e-01	-13.9087	-80.411920	0.000364	3.635853	1.231861	0.029038
1655	8.2700e-01	-13.8654	-80.323192	0.000222	2.221910	0.752804	0.017746
1656	8.2750e-01	-13.8237	-80.246563	0.000192	1.918923	0.650149	0.015326
1657	8.2800e-01	-13.7804	-80.024742	0.000555	5.554776	1.882009	0.044364
1658	8.2850e-01	-13.7386	-79.968279	0.000141	1.413943	0.479057	0.011293
1659	8.2900e-01	-13.6969	-79.738392	0.000576	5.756768	1.950446	0.045977
1660	8.2950e-01	-13.6697	-79.516572	0.000555	5.554776	1.882009	0.044364
1661	8.3000e-01	-13.6215	-79.246354	0.000677	6.766727	2.292629	0.054044
1662	8.3050e-01	-13.5862	-79.189891	0.000141	1.413943	0.479057	0.011293
1663	8.3100e-01	-13.5413	-78.935806	0.000636	6.362744	2.155756	0.050817
1664	8.3150e-01	-13.5028	-78.883376	0.000131	1.312947	0.444839	0.010486
1665	8.3200e-01	-13.4675	-78.774482	0.000273	2.726890	0.923895	0.021779
1666	8.3250e-01	-13.4210	-78.411503	0.000909	9.089634	3.079651	0.072596
1667	8.3300e-01	-13.3761	-78.121120	0.000727	7.271707	2.463721	0.058077
1668	8.3350e-01	-13.3456	-78.145319	-0.000061	-0.605976	-0.205310	-0.004840
1669	8.3400e-01	-13.3039	-78.020292	0.000313	3.130874	1.060769	0.025005
1670	8.3450e-01	-13.2702	-77.693611	0.000818	8.180670	2.771686	0.065336
1671	8.3500e-01	-13.2141	-77.451626	0.000606	6.059756	2.053101	0.048397
1672	8.3550e-01	-13.1836	-77.524221	-0.000182	-1.817927	-0.615930	-0.014519
1673	8.3600e-01	-13.1435	-77.459692	0.000162	1.615935	0.547494	0.012906
1674	8.3650e-01	-13.0986	-77.096713	0.000909	9.089634	3.079651	0.072596
1675	8.3700e-01	-13.0665	-77.169309	-0.000182	-1.817927	-0.615930	-0.014519
1676	8.3750e-01	-13.0167	-76.935389	0.000586	5.857764	1.984664	0.046784
1677	8.3800e-01	-12.9863	-76.721635	0.000535	5.352784	1.813572	0.042751
1678	8.3850e-01	-12.9349	-76.552245	0.000424	4.241829	1.437171	0.033878
1679	8.3900e-01	-12.8996	-75.818221	0.001838	18.381259	6.227739	0.146805
1680	8.3950e-01	-12.8515	-76.144902	-0.000818	-8.180670	-2.771686	-0.065336
1681	8.4000e-01	-12.8178	-75.959379	0.000465	4.645813	1.574044	0.037105
1682	8.4050e-01	-12.7809	-75.910982	0.000121	1.211951	0.410620	0.009679
1683	8.4100e-01	-12.7504	-75.664963	0.000616	6.160752	2.087319	0.049204
1684	8.4150e-01	-12.7023	-75.435076	0.000576	5.756768	1.950446	0.045977
1685	8.4200e-01	-12.6622	-75.289885	0.000364	3.635853	1.231861	0.029038
1686	8.4250e-01	-12.6205	-75.297951	-0.000020	-0.201992	-0.068437	-0.001613
1687	8.4300e-01	-12.5932	-75.140660	0.000394	3.938841	1.334516	0.031458
1688	8.4350e-01	-12.5467	-74.971270	0.000424	4.241829	1.437171	0.033878
1689	8.4400e-01	-12.5034	-74.571993	0.001000	9.998597	3.387616	0.079855
1690	8.4450e-01	-12.4665	-74.636523	-0.000162	-1.615935	-0.547494	-0.012906
1691	8.4500e-01	-12.4312	-74.233213	0.001010	10.099593	3.421835	0.080662
1692	8.4550e-01	-12.3863	-74.051723	0.000454	4.544817	1.539826	0.036298
1693	8.4600e-01	-12.3494	-73.942830	0.000273	2.726890	0.923895	0.021779
1694	8.4650e-01	-12.3029	-73.656480	0.000717	7.170711	2.429503	0.057270
1695	8.4700e-01	-12.2595	-73.733109	-0.000192	-1.918923	-0.650149	-0.015326
1696	8.4750e-01	-12.2194	-73.487090	0.000616	6.160752	2.087319	0.049204
1697	8.4800e-01	-12.1874	-73.297534	0.000475	4.746809	1.608262	0.037911
1698	8.4850e-01	-12.1328	-73.297534	0.000000	0.000000	0.000000	0.000000
1699	8.4900e-01	-12.0991	-72.986985	0.000778	7.776687	2.634813	0.062110
1700	8.4950e-01	-12.0670	-72.890191	0.000242	2.423902	0.821240	0.019359
1701	8.5000e-01	-12.0221	-72.619973	0.000677	6.766727	2.292629	0.054044
1702	8.5050e-01	-11.9884	-72.261028	0.000899	8.988638	3.045433	0.071789
1703	8.5100e-01	-11.9371	-72.196498	0.000162	1.615935	0.547494	0.012906
1704	8.5150e-01	-11.9050	-72.277160	-0.000202	-2.019919	-0.684367	-0.016132
1705	8.5200e-01	-11.8649	-71.756890	0.001303	13.028475	4.414167	0.104054
1706	8.5250e-01	-11.8184	-71.450375	0.000768	7.675691	2.600594	0.061303
1707	8.5300e-01	-11.7783	-71.643964	-0.000485	-4.847805	-1.642481	-0.038718
1708	8.5350e-01	-11.7382	-71.381812	0.000656	6.564735	2.224193	0.052430
1709	8.5400e-01	-11.7093	-71.034966	0.000869	8.685650	2.942778	0.069369
1710	8.5450e-01	-11.6660	-71.055131	-0.000050	-0.504980	-0.171092	-0.004033
1711	8.5500e-01	-11.6243	-70.893807	0.000404	4.039837	1.368734	0.032265
1712	8.5550e-01	-11.5906	-70.643755	0.000626	6.261748	2.121538	0.050010
1713	8.5600e-01	-11.5409	-70.676020	-0.000081	-0.807967	-0.273747	-0.006453
1714	8.5650e-01	-11.5056	-70.434034	0.000606	6.059756	2.053101	0.048397
1715	8.5700e-01	-11.4622	-70.345306	0.000222	2.221910	0.752804	0.017746
1716	8.5750e-01	-11.4270	-70.002492	0.000858	8.584654	2.908560	0.068563
1717	8.5800e-01	-11.3836	-69.780672	0.000555	5.554776	1.882009	0.044364
1718	8.5850e-01	-11.3467	-69.683878	0.000242	2.423902	0.821240	0.019359
1719	8.5900e-01	-11.3034	-69.474157	0.000525	5.251788	1.779354	0.041944
1720	8.5950e-01	-11.2617	-69.441892	0.000081	0.807967	0.273747	0.006453
1721	8.6000e-01	-11.2152	-69.369296	0.000182	1.817927	0.615930	0.014519
1722	8.6050e-01	-11.1927	-69.054714	0.000788	7.877683	2.669031	0.062916
1723	8.6100e-01	-11.1366	-68.760298	0.000737	7.372703	2.497939	0.058883
1724	8.6150e-01	-11.1029	-68.776430	-0.000040	-0.403984	-0.136873	-0.003226
1725	8.6200e-01	-11.0564	-68.510246	0.000667	6.665731	2.258411	0.053237
1726	8.6250e-01	-11.0195	-68.542511	-0.000081	-0.807967	-0.273747	-0.006453
1727	8.6300e-01	-10.9858	-68.235995	0.000768	7.675691	2.600594	0.061303
1728	8.6350e-01	-10.9489	-68.050473	0.000465	4.645813	1.574044	0.037105
1729	8.6400e-01	-10.9136	-67.784288	0.000667	6.665731	2.258411	0.053237
1730	8.6450e-01	-10.8623	-67.824619	-0.000101	-1.009959	-0.342183	-0.008066
1731	8.6500e-01	-10.8206	-67.550368	0.000687	6.867723	2.326848	0.054850
1732	8.6550e-01	-10.7820	-67.449541	0.000252	2.524898	0.855459	0.020165
1733	8.6600e-01	-10.7435	-67.130926	0.000798	7.978678	2.703249	0.063723
1734	8.6650e-01	-10.7131	-66.941371	0.000475	4.746809	1.608262	0.037911
1735	8.6700e-01	-10.6617	-66.735683	0.000515	5.150792	1.745136	0.041138
1736	8.6750e-01	-10.6200	-66.473531	0.000656	6.564735	2.224193	0.052430
1737	8.6800e-01	-10.5767	-66.215413	0.000646	6.463740	2.189974	0.051624
1738	8.6850e-01	-10.5446	-66.142817	0.000182	1.817927	0.615930	0.014519
1739	8.6900e-01	-10.5157	-65.925030	0.000545	5.453780	1.847791	0.043557
1740	8.6950e-01	-10.4692	-65.707242	0.000545	5.453780	1.847791	0.043557
1741	8.7000e-01	-10.4259	-65.755640	-0.000121	-1.211951	-0.410620	-0.009679
1742	8.7050e-01	-10.3794	-65.654812	0.000252	2.524898	0.855459	0.020165
1743	8.7100e-01	-10.3537	-65.207138	0.001121	11.210548	3.798237	0.089535
1744	8.7150e-01	-10.3040	-65.094211	0.000283	2.827886	0.958114	0.022585
1745	8.7200e-01	-10.2655	-65.045814	0.000121	1.211951	0.410620	0.009679
1746	8.7250e-01	-10.2206	-64.767530	0.000697	6.968719	2.361066	0.055657
1747	8.7300e-01	-10.1901	-64.694935	0.000182	1.817927	0.615930	0.014519
1748	8.7350e-01	-10.1484	-64.323890	0.000929	9.291626	3.148088	0.074209
1749	8.7400e-01	-10.1083	-64.061738	0.000656	6.564735	2.224193	0.052430
1750	8.7450e-01	-10.0650	-64.001242	0.000151	1.514939	0.513275	0.012099
1751	8.7500e-01	-10.0216	-63.811686	0.000475	4.746809	1.608262	0.037911
1752	8.7550e-01	-9.9880	-63.751190	0.000151	1.514939	0.513275	0.012099
1753	8.7600e-01	-9.9462	-63.468873	0.000707	7.069715	2.395284	0.056463
1754	8.7650e-01	-9.9093	-63.230920	0.000596	5.958760	2.018883	0.047591
1755	8.7700e-01	-9.8564	-63.101861	0.000323	3.231870	1.094987	0.025812
1756	8.7750e-01	-9.8227	-62.992967	0.000273	2.726890	0.923895	0.021779
1757	8.7800e-01	-9.7794	-62.702584	0.000727	7.271707	2.463721	0.058077
1758	8.7850e-01	-9.7441	-62.537227	0.000414	4.140833	1.402952	0.033071
1759	8.7900e-01	-9.6960	-62.488830	0.000121	1.211951	0.410620	0.009679
1760	8.7950e-01	-9.6655	-62.303307	0.000465	4.645813	1.574044	0.037105
1761	8.8000e-01	-9.6254	-62.093586	0.000525	5.251788	1.779354	0.041944
1762	8.8050e-01	-9.5789	-61.795137	0.000747	7.473699	2.532158	0.059690
1763	8.8100e-01	-9.5404	-61.770938	0.000061	0.605976	0.205310	0.004840
1764	8.8150e-01	-9.5035	-61.597515	0.000434	4.342825	1.471389	0.034685
1765	8.8200e-01	-9.4650	-61.282933	0.000788	7.877683	2.669031	0.062916
1766	8.8250e-01	-9.4185	-61.113543	0.000424	4.241829	1.437171	0.033878
1767	8.8300e-01	-9.3816	-61.161940	-0.000121	-1.211951	-0.410620	-0.009679
1768	8.8350e-01	-9.3431	-60.827193	0.000838	8.382662	2.840123	0.066949
1769	8.8400e-01	-9.3094	-60.589240	0.000596	5.958760	2.018883	0.047591
1770	8.8450e-01	-9.2660	-60.556976	0.000081	0.807967	0.273747	0.006453
1771	8.8500e-01	-9.2292	-60.274659	0.000707	7.069715	2.395284	0.056463
1772	8.8550e-01	-9.1842	-60.097202	0.000444	4.443821	1.505607	0.035491
1773	8.8600e-01	-9.1473	-59.943945	0.000384	3.837845	1.300297	0.030652
1774	8.8650e-01	-9.1072	-59.637429	0.000768	7.675691	2.600594	0.061303
1775	8.8700e-01	-9.0687	-59.508370	0.000323	3.231870	1.094987	0.025812
1776	8.8750e-01	-9.0206	-59.532568	-0.000061	-0.605976	-0.205310	-0.004840
1777	8.8800e-01	-8.9789	-59.165556	0.000919	9.190630	3.113870	0.073402
1778	8.8850e-01	-8.9420	-59.177656	-0.000030	-0.302988	-0.102655	-0.002420
1779	8.8900e-01	-8.9099	-58.689651	0.001222	12.220508	4.140420	0.097601
1780	8.8950e-01	-8.8602	-58.395235	0.000737	7.372703	2.497939	0.058883
1781	8.9000e-01	-8.8217	-58.141149	0.000636	6.362744	2.155756	0.050817
1782	8.9050e-01	-8.7800	-58.149216	-0.000020	-0.201992	-0.068437	-0.001613
1783	8.9100e-01	-8.7367	-58.028223	0.000303	3.029878	1.026550	0.024199
1784	8.9150e-01	-8.6982	-57.979826	0.000121	1.211951	0.410620	0.009679
1785	8.9200e-01	-8.6629	-57.713641	0.000667	6.665731	2.258411	0.053237
1786	8.9250e-01	-8.6372	-57.507953	0.000515	5.150792	1.745136	0.041138
1787	8.9300e-01	-8.5810	-57.261934	0.000616	6.160752	2.087319	0.049204
1788	8.9350e-01	-8.5345	-57.366795	-0.000263	-2.625894	-0.889677	-0.020972
1789	8.9400e-01	-8.5024	-56.850558	0.001293	12.927479	4.379948	0.103247
1790	8.9450e-01	-8.4623	-56.806194	0.000111	1.110955	0.376402	0.008873
1791	8.9500e-01	-8.4206	-56.564208	0.000606	6.059756	2.053101	0.048397
1792	8.9550e-01	-8.3757	-56.350454	0.000535	5.352784	1.813572	0.042751
1793	8.9600e-01	-8.3516	-56.201229	0.000374	3.736849	1.266079	0.029845
1794	8.9650e-01	-8.3067	-55.943111	0.000646	6.463740	2.189974	0.051624
1795	8.9700e-01	-8.2762	-55.745489	0.000495	4.948801	1.676699	0.039524
1796	8.9750e-01	-8.2121	-55.729356	0.000040	0.403984	0.136873	0.003226
1797	8.9800e-01	-8.1816	-55.374444	0.000889	8.887642	3.011215	0.070983
1798	8.9850e-01	-8.1399	-55.104226	0.000677	6.766727	2.292629	0.054044
1799	8.9900e-01	-8.0982	-54.934836	0.000424	4.241829	1.437171	0.033878
1800	8.9950e-01	-8.0693	-54.914671	0.000050	0.504980	0.171092	0.004033
1801	9.0000e-01	-8.0180	-54.769479	0.000364	3.635853	1.231861	0.029038
1802	9.0050e-01	-7.9795	-54.636387	0.000333	3.332866	1.129205	0.026618
1803	9.0100e-01	-7.9329	-54.466997	0.000424	4.241829	1.437171	0.033878
1804	9.0150e-01	-7.9041	-54.156448	0.000778	7.776687	2.634813	0.062110
1805	9.0200e-01	-7.8607	-53.983025	0.000434	4.342825	1.471389	0.034685
1806	9.0250e-01	-7.8238	-53.745072	0.000596	5.958760	2.018883	0.047591
1807	9.0300e-01	-7.7886	-53.438556	0.000768	7.675691	2.600594	0.061303
1808	9.0350e-01	-7.7452	-53.394192	0.000111	1.110955	0.376402	0.008873
1809	9.0400e-01	-7.7051	-53.156240	0.000596	5.958760	2.018883	0.047591
1810	9.0450e-01	-7.6634	-53.144140	0.000030	0.302988	0.102655	0.002420
1811	9.0500e-01	-7.6233	-52.865856	0.000697	6.968719	2.361066	0.055657
1812	9.0550e-01	-7.5768	-52.644036	0.000555	5.554776	1.882009	0.044364
1813	9.0600e-01	-7.5479	-52.289123	0.000889	8.887642	3.011215	0.070983
1814	9.0650e-01	-7.5062	-52.063270	0.000566	5.655772	1.916227	0.045171
1815	9.0700e-01	-7.4581	-51.885814	0.000444	4.443821	1.505607	0.035491
1816	9.0750e-01	-7.4180	-51.793052	0.000232	2.322906	0.787022	0.018552
1817	9.0800e-01	-7.3923	-51.551066	0.000606	6.059756	2.053101	0.048397
1818	9.0850e-01	-7.3490	-51.385709	0.000414	4.140833	1.402952	0.033071
1819	9.0900e-01	-7.3105	-51.180021	0.000515	5.150792	1.745136	0.041138
1820	9.0950e-01	-7.2704	-51.018697	0.000404	4.039837	1.368734	0.032265
1821	9.1000e-01	-7.2190	-50.869473	0.000374	3.736849	1.266079	0.029845
1822	9.1050e-01	-7.1902	-50.611354	0.000646	6.463740	2.189974	0.051624
1823	9.1100e-01	-7.1436	-50.514560	0.000242	2.423902	0.821240	0.019359
1824	9.1150e-01	-7.1084	-50.385501	0.000323	3.231870	1.094987	0.025812
1825	9.1200e-01	-7.0618	-50.195945	0.000475	4.746809	1.608262	0.037911
1826	9.1250e-01	-7.0233	-50.046721	0.000374	3.736849	1.266079	0.029845
1827	9.1300e-01	-6.9832	-49.724073	0.000808	8.079674	2.737468	0.064530
1828	9.1350e-01	-6.9447	-49.647444	0.000192	1.918923	0.650149	0.015326
1829	9.1400e-01	-6.8982	-49.461921	0.000465	4.645813	1.574044	0.037105
1830	9.1450e-01	-6.8645	-49.143306	0.000798	7.978678	2.703249	0.063723
1831	9.1500e-01	-6.8260	-48.748063	0.000990	9.897601	3.353398	0.079049
1832	9.1550e-01	-6.7811	-48.748063	0.000000	0.000000	0.000000	0.000000
1833	9.1600e-01	-6.7410	-48.679500	0.000172	1.716931	0.581712	0.013713
1834	9.1650e-01	-6.7025	-48.340720	0.000848	8.483658	2.874341	0.067756
1835	9.1700e-01	-6.6624	-48.187462	0.000384	3.837845	1.300297	0.030652
1836	9.1750e-01	-6.6239	-48.014039	0.000434	4.342825	1.471389	0.034685
1837	9.1800e-01	-6.5822	-47.763987	0.000626	6.261748	2.121538	0.050010
1838	9.1850e-01	-6.5421	-47.534100	0.000576	5.756768	1.950446	0.045977
1839	9.1900e-01	-6.5132	-46.993665	0.001353	13.533455	4.585259	0.108087
1840	9.1950e-01	-6.4651	-46.900904	0.000232	2.322906	0.787022	0.018552
1841	9.2000e-01	-6.4266	-46.787977	0.000283	2.827886	0.958114	0.022585
1842	9.2050e-01	-6.3832	-46.808142	-0.000050	-0.504980	-0.171092	-0.004033
1843	9.2100e-01	-6.3447	-46.703282	0.000263	2.625894	0.889677	0.020972
1844	9.2150e-01	-6.3046	-46.562123	0.000353	3.534858	1.197642	0.028232
1845	9.2200e-01	-6.2661	-46.195111	0.000919	9.190630	3.113870	0.073402
1846	9.2250e-01	-6.2212	-46.158814	0.000091	0.908963	0.307965	0.007260
1847	9.2300e-01	-6.1827	-45.836166	0.000808	8.079674	2.737468	0.064530
1848	9.2350e-01	-6.1458	-45.852298	-0.000040	-0.403984	-0.136873	-0.003226
1849	9.2400e-01	-6.1009	-45.638544	0.000535	5.352784	1.813572	0.042751
1850	9.2450e-01	-6.0736	-45.154572	0.001212	12.119512	4.106202	0.096794
1851	9.2500e-01	-6.0255	-45.009380	0.000364	3.635853	1.231861	0.029038
1852	9.2550e-01	-5.9902	-44.698832	0.000778	7.776687	2.634813	0.062110
1853	9.2600e-01	-5.9437	-44.460879	0.000596	5.958760	2.018883	0.047591
1854	9.2650e-01	-5.9068	-44.295522	0.000414	4.140833	1.402952	0.033071
1855	9.2700e-01	-5.8683	-44.307621	-0.000030	-0.302988	-0.102655	-0.002420
1856	9.2750e-01	-5.8266	-43.815583	0.001232	12.321503	4.174638	0.098408
1857	9.2800e-01	-5.7833	-43.799451	0.000040	0.403984	0.136873	0.003226
1858	9.2850e-01	-5.7448	-43.642160	0.000394	3.938841	1.334516	0.031458
1859	9.2900e-01	-5.7079	-43.501002	0.000353	3.534858	1.197642	0.028232
1860	9.2950e-01	-5.6581	-43.230784	0.000677	6.766727	2.292629	0.054044
1861	9.3000e-01	-5.6309	-42.718580	0.001283	12.826483	4.345730	0.102441
1862	9.3050e-01	-5.5859	-42.706481	0.000030	0.302988	0.102655	0.002420
1863	9.3100e-01	-5.5571	-42.678249	0.000071	0.706972	0.239528	0.005646
1864	9.3150e-01	-5.5025	-42.295105	0.000959	9.594613	3.250743	0.076629
1865	9.3200e-01	-5.4704	-42.125715	0.000424	4.241829	1.437171	0.033878
1866	9.3250e-01	-5.4239	-41.815166	0.000778	7.776687	2.634813	0.062110
1867	9.3300e-01	-5.3838	-41.690140	0.000313	3.130874	1.060769	0.025005
1868	9.3350e-01	-5.3405	-41.811133	-0.000303	-3.029878	-1.026550	-0.024199
1869	9.3400e-01	-5.3068	-41.452187	0.000899	8.988638	3.045433	0.071789
1870	9.3450e-01	-5.2587	-41.218268	0.000586	5.857764	1.984664	0.046784
1871	9.3500e-01	-5.2314	-41.194069	0.000061	0.605976	0.205310	0.004840
1872	9.3550e-01	-5.1913	-40.863355	0.000828	8.281666	2.805904	0.066143
1873	9.3600e-01	-5.1464	-40.750428	0.000283	2.827886	0.958114	0.022585
1874	9.3650e-01	-5.1063	-40.339052	0.001030	10.301585	3.490271	0.082275
1875	9.3700e-01	-5.0662	-40.508442	-0.000424	-4.241829	-1.437171	-0.033878
1876	9.3750e-01	-5.0261	-40.173695	0.000838	8.382662	2.840123	0.066949
1877	9.3800e-01	-4.9860	-39.653425	0.001303	13.028475	4.414167	0.104054
1878	9.3850e-01	-4.9491	-39.653425	0.000000	0.000000	0.000000	0.000000
1879	9.3900e-01	-4.9025	-39.326744	0.000818	8.180670	2.771686	0.065336
1880	9.3950e-01	-4.8721	-39.350943	-0.000061	-0.605976	-0.205310	-0.004840
1881	9.4000e-01	-4.8271	-38.907302	0.001111	11.109552	3.764018	0.088728
1882	9.4050e-01	-4.7822	-38.762111	0.000364	3.635853	1.231861	0.029038
1883	9.4100e-01	-4.7517	-38.685482	0.000192	1.918923	0.650149	0.015326
1884	9.4150e-01	-4.7020	-38.391066	0.000737	7.372703	2.497939	0.058883
1885	9.4200e-01	-4.6683	-38.237808	0.000384	3.837845	1.300297	0.030652
1886	9.4250e-01	-4.6282	-38.048252	0.000475	4.746809	1.608262	0.037911
1887	9.4300e-01	-4.5897	-37.774002	0.000687	6.867723	2.326848	0.054850
1888	9.4350e-01	-4.5528	-37.519916	0.000636	6.362744	2.155756	0.050817
1889	9.4400e-01	-4.5031	-37.427155	0.000232	2.322906	0.787022	0.018552
1890	9.4450e-01	-4.4694	-37.185169	0.000606	6.059756	2.053101	0.048397
1891	9.4500e-01	-4.4245	-37.080309	0.000263	2.625894	0.889677	0.020972
1892	9.4550e-01	-4.3780	-36.943183	0.000343	3.433862	1.163424	0.027425
1893	9.4600e-01	-4.3475	-36.685065	0.000646	6.463740	2.189974	0.051624
1894	9.4650e-01	-4.3106	-36.398715	0.000717	7.170711	2.429503	0.057270
1895	9.4700e-01	-4.2737	-36.072034	0.000818	8.180670	2.771686	0.065336
1896	9.4750e-01	-4.2223	-35.942975	0.000323	3.231870	1.094987	0.025812
1897	9.4800e-01	-4.1870	-35.640492	0.000757	7.574695	2.566376	0.060496
1898	9.4850e-01	-4.1502	-35.575963	0.000162	1.615935	0.547494	0.012906
1899	9.4900e-01	-4.0956	-35.390440	0.000465	4.645813	1.574044	0.037105
1900	9.4950e-01	-4.0699	-34.958899	0.001081	10.806565	3.661363	0.086308
1901	9.5000e-01	-4.0298	-34.870171	0.000222	2.221910	0.752804	0.017746
1902	9.5050e-01	-3.9897	-34.753211	0.000293	2.928882	0.992332	0.023392
1903	9.5100e-01	-3.9544	-34.430563	0.000808	8.079674	2.737468	0.064530
1904	9.5150e-01	-3.9047	-34.337801	0.000232	2.322906	0.787022	0.018552
1905	9.5200e-01	-3.8630	-34.103882	0.000586	5.857764	1.984664	0.046784
1906	9.5250e-01	-3.8293	-33.974823	0.000323	3.231870	1.094987	0.025812
1907	9.5300e-01	-3.7940	-33.607811	0.000919	9.190630	3.113870	0.073402
1908	9.5350e-01	-3.7427	-33.357759	0.000626	6.261748	2.121538	0.050010
1909	9.5400e-01	-3.7026	-33.087541	0.000677	6.766727	2.292629	0.054044
1910	9.5450e-01	-3.6657	-32.873787	0.000535	5.352784	1.813572	0.042751
1911	9.5500e-01	-3.6288	-32.676165	0.000495	4.948801	1.676699	0.039524
1912	9.5550e-01	-3.5806	-32.551139	0.000313	3.130874	1.060769	0.025005
1913	9.5600e-01	-3.5470	-32.438212	0.000283	2.827886	0.958114	0.022585
1914	9.5650e-01	-3.4940	-32.260756	0.000444	4.443821	1.505607	0.035491
1915	9.5700e-01	-3.4603	-32.014737	0.000616	6.160752	2.087319	0.049204
1916	9.5750e-01	-3.4218	-31.845347	0.000424	4.241829	1.437171	0.033878
1917	9.5800e-01	-3.3849	-31.627559	0.000545	5.453780	1.847791	0.043557
1918	9.5850e-01	-3.3416	-31.312978	0.000788	7.877683	2.669031	0.062916
1919	9.5900e-01	-3.3015	-31.236349	0.000192	1.918923	0.650149	0.015326
1920	9.5950e-01	-3.2726	-30.982263	0.000636	6.362744	2.155756	0.050817
1921	9.6000e-01	-3.2325	-30.478126	0.001262	12.624491	4.277293	0.100827
1922	9.6050e-01	-3.1812	-30.377299	0.000252	2.524898	0.855459	0.020165
1923	9.6100e-01	-3.1459	-30.207909	0.000424	4.241829	1.437171	0.033878
1924	9.6150e-01	-3.1042	-29.978022	0.000576	5.756768	1.950446	0.045977
1925	9.6200e-01	-3.0673	-29.796532	0.000454	4.544817	1.539826	0.036298
1926	9.6250e-01	-3.0224	-29.679573	0.000293	2.928882	0.992332	0.023392
1927	9.6300e-01	-2.9839	-29.437587	0.000606	6.059756	2.053101	0.048397
1928	9.6350e-01	-2.9486	-29.332726	0.000263	2.625894	0.889677	0.020972
1929	9.6400e-01	-2.8972	-29.038310	0.000737	7.372703	2.497939	0.058883
1930	9.6450e-01	-2.8620	-28.691463	0.000869	8.685650	2.942778	0.069369
1931	9.6500e-01	-2.8379	-28.598702	0.000232	2.322906	0.787022	0.018552
1932	9.6550e-01	-2.7833	-28.388981	0.000525	5.251788	1.779354	0.041944
1933	9.6600e-01	-2.7464	-28.243790	0.000364	3.635853	1.231861	0.029038
1934	9.6650e-01	-2.7015	-28.151028	0.000232	2.322906	0.787022	0.018552
1935	9.6700e-01	-2.6598	-27.727553	0.001060	10.604573	3.592926	0.084695
1936	9.6750e-01	-2.6245	-27.602527	0.000313	3.130874	1.060769	0.025005
1937	9.6800e-01	-2.5812	-27.372640	0.000576	5.756768	1.950446	0.045977
1938	9.6850e-01	-2.5427	-27.090323	0.000707	7.069715	2.395284	0.056463
1939	9.6900e-01	-2.5010	-26.767675	0.000808	8.079674	2.737468	0.064530
1940	9.6950e-01	-2.4673	-26.985463	-0.000545	-5.453780	-1.847791	-0.043557
1941	9.7000e-01	-2.4208	-26.634583	0.000879	8.786646	2.976996	0.070176
1942	9.7050e-01	-2.3887	-26.340167	0.000737	7.372703	2.497939	0.058883
1943	9.7100e-01	-2.3422	-26.211108	0.000323	3.231870	1.094987	0.025812
1944	9.7150e-01	-2.3053	-25.965089	0.000616	6.160752	2.087319	0.049204
1945	9.7200e-01	-2.2684	-25.489183	0.001192	11.917520	4.037765	0.095181
1946	9.7250e-01	-2.2187	-25.319793	0.000424	4.241829	1.437171	0.033878
1947	9.7300e-01	-2.1898	-25.001178	0.000798	7.978678	2.703249	0.063723
1948	9.7350e-01	-2.1497	-25.041509	-0.000101	-1.009959	-0.342183	-0.008066
1949	9.7400e-01	-2.1096	-24.880185	0.000404	4.039837	1.368734	0.032265
1950	9.7450e-01	-2.0614	-24.488975	0.000980	9.796605	3.319180	0.078242
1951	9.7500e-01	-2.0229	-24.291353	0.000495	4.948801	1.676699	0.039524
1952	9.7550e-01	-1.9844	-23.984837	0.000768	7.675691	2.600594	0.061303
1953	9.7600e-01	-1.9443	-23.811414	0.000434	4.342825	1.471389	0.034685
1954	9.7650e-01	-1.9074	-23.678322	0.000333	3.332866	1.129205	0.026618
1955	9.7700e-01	-1.8753	-23.416170	0.000656	6.564735	2.224193	0.052430
1956	9.7750e-01	-1.8208	-23.432303	-0.000040	-0.403984	-0.136873	-0.003226
1957	9.7800e-01	-1.7791	-23.234681	0.000495	4.948801	1.676699	0.039524
1958	9.7850e-01	-1.7438	-22.912033	0.000808	8.079674	2.737468	0.064530
1959	9.7900e-01	-1.7053	-22.577286	0.000838	8.382662	2.840123	0.066949
1960	9.7950e-01	-1.6652	-22.222373	0.000889	8.887642	3.011215	0.070983
1961	9.8000e-01	-1.6267	-22.020718	0.000505	5.049797	1.710917	0.040331
1962	9.8050e-01	-1.5866	-22.004586	0.000040	0.403984	0.136873	0.003226
1963	9.8100e-01	-1.5449	-21.677905	0.000818	8.180670	2.771686	0.065336
1964	9.8150e-01	-1.5128	-21.649673	0.000071	0.706972	0.239528	0.005646
1965	9.8200e-01	-1.4663	-21.351224	0.000747	7.473699	2.532158	0.059690
1966	9.8250e-01	-1.4262	-21.040675	0.000778	7.776687	2.634813	0.062110
1967	9.8300e-01	-1.3909	-20.907583	0.000333	3.332866	1.129205	0.026618
1968	9.8350e-01	-1.3443	-20.641399	0.000667	6.665731	2.258411	0.053237
1969	9.8400e-01	-1.3123	-20.488141	0.000384	3.837845	1.300297	0.030652
1970	9.8450e-01	-1.2625	-20.201791	0.000717	7.170711	2.429503	0.057270
1971	9.8500e-01	-1.2176	-19.931573	0.000677	6.766727	2.292629	0.054044
1972	9.8550e-01	-1.1871	-19.887209	0.000111	1.110955	0.376402	0.008873
1973	9.8600e-01	-1.1550	-19.685554	0.000505	5.049797	1.710917	0.040331
1974	9.8650e-01	-1.1021	-19.270145	0.001040	10.402581	3.524490	0.083082
1975	9.8700e-01	-1.0700	-19.116887	0.000384	3.837845	1.300297	0.030652
1976	9.8750e-01	-1.0251	-18.935398	0.000454	4.544817	1.539826	0.036298
1977	9.8800e-01	-0.9946	-18.536121	0.001000	9.998597	3.387616	0.079855
1978	9.8850e-01	-0.9433	-18.532088	0.000010	0.100996	0.034218	0.000807
1979	9.8900e-01	-0.9096	-18.286069	0.000616	6.160752	2.087319	0.049204
1980	9.8950e-01	-0.8631	-18.011818	0.000687	6.867723	2.326848	0.054850
1981	9.9000e-01	-0.8278	-17.717402	0.000737	7.372703	2.497939	0.058883
1982	9.9050e-01	-0.7748	-17.564144	0.000384	3.837845	1.300297	0.030652
1983	9.9100e-01	-0.7363	-17.463317	0.000252	2.524898	0.855459	0.020165
1984	9.9150e-01	-0.6962	-17.144702	0.000798	7.978678	2.703249	0.063723
1985	9.9200e-01	-0.6674	-17.055974	0.000222	2.221910	0.752804	0.017746
1986	9.9250e-01	-0.6240	-16.717194	0.000848	8.483658	2.874341	0.067756
1987	9.9300e-01	-0.5823	-16.515539	0.000505	5.049797	1.710917	0.040331
1988	9.9350e-01	-0.5374	-16.414711	0.000252	2.524898	0.855459	0.020165
1989	9.9400e-01	-0.5037	-16.188858	0.000566	5.655772	1.916227	0.045171
1990	9.9450e-01	-0.4668	-15.640356	0.001374	13.735447	4.653695	0.109700
1991	9.9500e-01	-0.4155	-15.527430	0.000283	2.827886	0.958114	0.022585
1992	9.9550e-01	-0.3802	-15.479032	0.000121	1.211951	0.410620	0.009679
1993	9.9600e-01	-0.3465	-15.414503	0.000162	1.615935	0.547494	0.012906
1994	9.9650e-01	-0.3128	-15.071689	0.000858	8.584654	2.908560	0.068563
1995	9.9700e-01	-0.2727	-14.607883	0.001161	11.614532	3.935110	0.092761
1996	9.9750e-01	-0.2246	-14.511089	0.000242	2.423902	0.821240	0.019359
1997	9.9800e-01	-0.1829	-14.313467	0.000495	4.948801	1.676699	0.039524
1998	9.9850e-01	-0.1444	-14.224739	0.000222	2.221910	0.752804	0.017746
1999	9.9900e-01	-0.0979	-13.809330	0.001040	10.402581	3.524490	0.083082
2000	9.9950e-01	-0.0642	-13.539112	0.000677	6.766727	2.292629	0.054044
2001	1.0000e+00	-0.0273	-13.365689	0.000677	6.766727	2.292629	0.034685

PMax (uC/cm2):	1.08e+02
Pr (uC/cm2):	4.46e+00
-Pr (uC/cm2):	-6.47e+00
PLoss (uC/cm2):	-6.43e+00
-Vc:	-8.15e-01
C (Max-Eff) (nF):	5.42e-01
K (Eff):	1.84e+03
Vert. (+/-Pr) Shift (uC/cm2):	-1.01e+00
Offset (uC/cm2):	6.90e+00

A (Loop Area - uC/cm2·Volts):	-3.18e-01



Hysteresis Version: 5.48.1 - Radiant Technologies, Inc., 1999 - 9/12/24

