»»»»»»»»»»»»»»»»»»»»»»»»»»»»»»»»»»»» Hysteresis ««««««««««««««««««««««««««««««««««««
»»»  Executed Version:	5.48.1
»»»  Vision Version:	5.48.4 (R)
»»»  Vision Compiled:	9/18/24
»»»  Driver Version:	5.47.0
»»»  Windows Version:	Windows 8 or 8.1
»»»  Processor Information:	x86 (AMD or Intel) - 32 Processors
»»»  Tester Name:	PMF21124-494 (100V)
»»»  Tester S/N:	PMF21124-494
»»»  Internal Amp Type:	100V RevK 270k
»»»  Internal Amp S/N:	iAB2-596/K     
»»»  Execution Count:	1
»»»»»»»»»»»»»»»»»»»»»»»»»»»»»»»»»»»»»»»»»»««««««««««««««««««««««««««««««««««««««««««

Stored:	6/18/2025 - 13:46:43
Configured:	06/18/25 09:47:30 AM
Executed:	06/18/25 01:45:57 PM

»»»»»»»»»»»»»»»»»»»»»»»»»»»»»»»»»»» Sample Info ««««««««««««««««««««««««««««««««««««
Sample Name:	
Lot Name:	
Wafer Name:	
Die Row/Column:	0/0
Capacitor Number:	0
Sample Area (cm2):	1.00e-04
Sample Thickness (microns):	3.00e-01

Amplifier:	Internal

»»»»»»»»»»»»»»»»»»»»»»»»»»»»»»»»»»» Tester Info «««««««««««««««««««««««««««««««««««
Tester Name:	PMF21124-494 (100V)
Tester Serial Number:	PMF21124-494
Return Signal Amp. Level:	0.19 [Index: 3]

»»»»»»»»»»»»»»»»»»»»»»»»»»»»»»»» Hysteresis Info ««««««««««««««««««««««««««««««««««
Task Name:	Hyst-554
Volts:	20.00
Field:	666.67 (kV/cm)
DCBias:	0.00
DCField:	0.00 (kV/cm)
Hysteresis Period (ms):	2.00e+02
Preset:	Enabled
Preset Delay (ms):	1.00e+03
Profile:	Standard Bipolar

»»»»»»»»»»»»»»»»»»»»»»»»»»»»»»»»»»»»»» Data «««««««««««««««««««««««««««««««««««««««
Points:	2009

Valid Data

Point	Time (ms)	Drive Voltage	Measured Polarization (uC/cm2)	Capacitance (uF)	Normalized Capacitance (uF/cm2)	Dielectric Constant	Instantaneous Current (mA)
   1	0.0000e+00	-0.0048	0.619700	0.000426	4.256894	1.442275	0.000170
   2	9.9500e-02	0.0401	0.789260	0.000426	4.256894	1.442275	0.000170
   3	1.9900e-01	0.0738	0.991117	0.000507	5.067731	1.716994	0.000203
   4	2.9850e-01	0.1123	1.197011	0.000517	5.169085	1.751334	0.000207
   5	3.9800e-01	0.1524	1.394830	0.000497	4.966376	1.682654	0.000199
   6	4.9750e-01	0.1877	1.592650	0.000497	4.966376	1.682654	0.000199
   7	5.9700e-01	0.2390	1.838915	0.000618	6.182632	2.094732	0.000248
   8	6.9650e-01	0.2647	2.044809	0.000517	5.169085	1.751334	0.000207
   9	7.9600e-01	0.3096	2.246666	0.000507	5.067731	1.716994	0.000203
  10	8.9550e-01	0.3465	2.464671	0.000547	5.473149	1.854353	0.000219
  11	9.9500e-01	0.3962	2.678640	0.000537	5.371795	1.820013	0.000215
  12	1.0945e+00	0.4396	2.900682	0.000557	5.574504	1.888693	0.000223
  13	1.1940e+00	0.4636	3.098502	0.000497	4.966376	1.682654	0.000199
  14	1.2935e+00	0.5101	3.340730	0.000608	6.081277	2.060392	0.000243
  15	1.3930e+00	0.5390	3.490104	0.000375	3.750121	1.270575	0.000150
  16	1.4925e+00	0.5791	3.764629	0.000689	6.892114	2.335111	0.000276
  17	1.5920e+00	0.6160	3.934189	0.000426	4.256894	1.442275	0.000170
  18	1.6915e+00	0.6642	4.123934	0.000476	4.763667	1.613974	0.000191
  19	1.7910e+00	0.7171	4.370199	0.000618	6.182632	2.094732	0.000248
  20	1.8905e+00	0.7460	4.568019	0.000497	4.966376	1.682654	0.000199
  21	1.9900e+00	0.7797	4.822359	0.000639	6.385341	2.163412	0.000256
  22	2.0895e+00	0.8182	4.999993	0.000446	4.459603	1.510954	0.000179
  23	2.1890e+00	0.8647	5.217998	0.000547	5.473149	1.854353	0.000219
  24	2.2885e+00	0.9080	5.456189	0.000598	5.979922	2.026053	0.000239
  25	2.3880e+00	0.9497	5.645934	0.000476	4.763667	1.613974	0.000191
  26	2.4875e+00	0.9866	5.920460	0.000689	6.892114	2.335111	0.000276
  27	2.5870e+00	1.0315	6.106168	0.000466	4.662312	1.579634	0.000187
  28	2.6865e+00	1.0620	6.324173	0.000547	5.473149	1.854353	0.000219
  29	2.7860e+00	1.1021	6.546216	0.000557	5.574504	1.888693	0.000223
  30	2.8855e+00	1.1454	6.735961	0.000476	4.763667	1.613974	0.000191
  31	2.9850e+00	1.1871	6.978189	0.000608	6.081277	2.060392	0.000243
  32	3.0845e+00	1.2240	7.212343	0.000588	5.878568	1.991713	0.000235
  33	3.1840e+00	1.2706	7.394014	0.000456	4.560958	1.545294	0.000183
  34	3.2835e+00	1.3058	7.607982	0.000537	5.371795	1.820013	0.000215
  35	3.3830e+00	1.3476	7.842136	0.000588	5.878568	1.991713	0.000235
  36	3.4825e+00	1.3812	8.052067	0.000527	5.270440	1.785673	0.000211
  37	3.5820e+00	1.4181	8.294295	0.000608	6.081277	2.060392	0.000243
  38	3.6815e+00	1.4743	8.520375	0.000568	5.675858	1.923033	0.000227
  39	3.7810e+00	1.5032	8.718195	0.000497	4.966376	1.682654	0.000199
  40	3.8805e+00	1.5449	8.899866	0.000456	4.560958	1.545294	0.000183
  41	3.9800e+00	1.5866	9.154205	0.000639	6.385341	2.163412	0.000256
  42	4.0795e+00	1.6267	9.392396	0.000598	5.979922	2.026053	0.000239
  43	4.1790e+00	1.6604	9.557919	0.000416	4.155539	1.407935	0.000166
  44	4.2785e+00	1.7069	9.828407	0.000679	6.790759	2.300772	0.000272
  45	4.3780e+00	1.7438	10.050449	0.000557	5.574504	1.888693	0.000223
  46	4.4775e+00	1.7903	10.232121	0.000456	4.560958	1.545294	0.000183
  47	4.5770e+00	1.8240	10.486460	0.000639	6.385341	2.163412	0.000256
  48	4.6765e+00	1.8609	10.692354	0.000517	5.169085	1.751334	0.000207
  49	4.7760e+00	1.9042	10.930545	0.000598	5.979922	2.026053	0.000239
  50	4.8755e+00	1.9491	11.124328	0.000487	4.865022	1.648314	0.000195
  51	4.9750e+00	1.9828	11.366556	0.000608	6.081277	2.060392	0.000243
  52	5.0745e+00	2.0342	11.592635	0.000568	5.675858	1.923033	0.000227
  53	5.1740e+00	2.0679	11.818715	0.000568	5.675858	1.923033	0.000227
  54	5.2735e+00	2.1015	12.000386	0.000456	4.560958	1.545294	0.000183
  55	5.3730e+00	2.1497	12.206280	0.000517	5.169085	1.751334	0.000207
  56	5.4725e+00	2.1898	12.464657	0.000649	6.486695	2.197752	0.000260
  57	5.5720e+00	2.2251	12.698810	0.000588	5.878568	1.991713	0.000235
  58	5.6715e+00	2.2636	12.920853	0.000557	5.574504	1.888693	0.000223
  59	5.7710e+00	2.3085	13.155007	0.000588	5.878568	1.991713	0.000235
  60	5.8705e+00	2.3438	13.405309	0.000628	6.283986	2.129072	0.000252
  61	5.9700e+00	2.3919	13.582943	0.000446	4.459603	1.510954	0.000179
  62	6.0695e+00	2.4272	13.821134	0.000598	5.979922	2.026053	0.000239
  63	6.1690e+00	2.4561	14.055288	0.000588	5.878568	1.991713	0.000235
  64	6.2685e+00	2.4978	14.297516	0.000608	6.081277	2.060392	0.000243
  65	6.3680e+00	2.5363	14.523596	0.000568	5.675858	1.923033	0.000227
  66	6.4675e+00	2.5844	14.737564	0.000537	5.371795	1.820013	0.000215
  67	6.5670e+00	2.6213	14.935384	0.000497	4.966376	1.682654	0.000199
  68	6.6665e+00	2.6582	15.177612	0.000608	6.081277	2.060392	0.000243
  69	6.7660e+00	2.6919	15.415803	0.000598	5.979922	2.026053	0.000239
  70	6.8655e+00	2.7464	15.682254	0.000669	6.689405	2.266432	0.000268
  71	6.9650e+00	2.7898	15.863925	0.000456	4.560958	1.545294	0.000183
  72	7.0645e+00	2.8251	16.114227	0.000628	6.283986	2.129072	0.000252
  73	7.1640e+00	2.8587	16.356455	0.000608	6.081277	2.060392	0.000243
  74	7.2635e+00	2.9037	16.530052	0.000436	4.358248	1.476615	0.000174
  75	7.3630e+00	2.9390	16.780355	0.000628	6.283986	2.129072	0.000252
  76	7.4625e+00	2.9775	16.998360	0.000547	5.473149	1.854353	0.000219
  77	7.5620e+00	3.0192	17.272885	0.000689	6.892114	2.335111	0.000276
  78	7.6615e+00	3.0689	17.450519	0.000446	4.459603	1.510954	0.000179
  79	7.7610e+00	3.1058	17.700822	0.000628	6.283986	2.129072	0.000252
  80	7.8605e+00	3.1411	17.918827	0.000547	5.473149	1.854353	0.000219
  81	7.9600e+00	3.1812	18.161055	0.000608	6.081277	2.060392	0.000243
  82	8.0595e+00	3.2149	18.387135	0.000568	5.675858	1.923033	0.000227
  83	8.1590e+00	3.2598	18.629363	0.000608	6.081277	2.060392	0.000243
  84	8.2585e+00	3.3047	18.815071	0.000466	4.662312	1.579634	0.000187
  85	8.3580e+00	3.3368	19.089596	0.000689	6.892114	2.335111	0.000276
  86	8.4575e+00	3.3705	19.315676	0.000568	5.675858	1.923033	0.000227
  87	8.5570e+00	3.4266	19.533681	0.000547	5.473149	1.854353	0.000219
  88	8.6565e+00	3.4635	19.719390	0.000466	4.662312	1.579634	0.000187
  89	8.7560e+00	3.4940	19.973729	0.000639	6.385341	2.163412	0.000256
  90	8.8555e+00	3.5325	20.224031	0.000628	6.283986	2.129072	0.000252
  91	8.9550e+00	3.5839	20.498557	0.000689	6.892114	2.335111	0.000276
  92	9.0545e+00	3.6208	20.692339	0.000487	4.865022	1.648314	0.000195
  93	9.1540e+00	3.6560	20.874010	0.000456	4.560958	1.545294	0.000183
  94	9.2535e+00	3.6929	21.108164	0.000588	5.878568	1.991713	0.000235
  95	9.3530e+00	3.7330	21.342318	0.000588	5.878568	1.991713	0.000235
  96	9.4525e+00	3.7828	21.564361	0.000557	5.574504	1.888693	0.000223
  97	9.5520e+00	3.8213	21.834849	0.000679	6.790759	2.300772	0.000272
  98	9.6515e+00	3.8582	21.996334	0.000405	4.054185	1.373595	0.000162
  99	9.7510e+00	3.8983	22.274896	0.000699	6.993468	2.369451	0.000280
 100	9.8505e+00	3.9400	22.500976	0.000568	5.675858	1.923033	0.000227
 101	9.9500e+00	3.9705	22.755316	0.000639	6.385341	2.163412	0.000256
 102	1.0050e+01	4.0170	22.973321	0.000547	5.473149	1.854353	0.000219
 103	1.0149e+01	4.0507	23.191326	0.000547	5.473149	1.854353	0.000219
 104	1.0248e+01	4.0892	23.405294	0.000537	5.371795	1.820013	0.000215
 105	1.0348e+01	4.1453	23.619263	0.000537	5.371795	1.820013	0.000215
 106	1.0447e+01	4.1758	23.865528	0.000618	6.182632	2.094732	0.000248
 107	1.0547e+01	4.2111	24.111793	0.000618	6.182632	2.094732	0.000248
 108	1.0646e+01	4.2528	24.374207	0.000659	6.588050	2.232092	0.000264
 109	1.0746e+01	4.2913	24.567990	0.000487	4.865022	1.648314	0.000195
 110	1.0845e+01	4.3378	24.794069	0.000568	5.675858	1.923033	0.000227
 111	1.0945e+01	4.3763	25.020149	0.000568	5.675858	1.923033	0.000227
 112	1.1044e+01	4.4020	25.270451	0.000628	6.283986	2.129072	0.000252
 113	1.1144e+01	4.4517	25.524791	0.000639	6.385341	2.163412	0.000256
 114	1.1243e+01	4.4951	25.714536	0.000476	4.763667	1.613974	0.000191
 115	1.1343e+01	4.5320	25.989061	0.000689	6.892114	2.335111	0.000276
 116	1.1443e+01	4.5785	26.219178	0.000578	5.777213	1.957373	0.000231
 117	1.1542e+01	4.6154	26.416998	0.000497	4.966376	1.682654	0.000199
 118	1.1642e+01	4.6443	26.687486	0.000679	6.790759	2.300772	0.000272
 119	1.1741e+01	4.7004	26.905491	0.000547	5.473149	1.854353	0.000219
 120	1.1841e+01	4.7325	27.131571	0.000568	5.675858	1.923033	0.000227
 121	1.1940e+01	4.7726	27.353613	0.000557	5.574504	1.888693	0.000223
 122	1.2040e+01	4.8159	27.603916	0.000628	6.283986	2.129072	0.000252
 123	1.2139e+01	4.8480	27.829995	0.000568	5.675858	1.923033	0.000227
 124	1.2239e+01	4.8977	28.080298	0.000628	6.283986	2.129072	0.000252
 125	1.2338e+01	4.9330	28.261969	0.000456	4.560958	1.545294	0.000183
 126	1.2438e+01	4.9811	28.532457	0.000679	6.790759	2.300772	0.000272
 127	1.2537e+01	5.0196	28.758536	0.000568	5.675858	1.923033	0.000227
 128	1.2636e+01	5.0533	28.976542	0.000547	5.473149	1.854353	0.000219
 129	1.2736e+01	5.0902	29.198584	0.000557	5.574504	1.888693	0.000223
 130	1.2835e+01	5.1303	29.456961	0.000649	6.486695	2.197752	0.000260
 131	1.2935e+01	5.1624	29.683041	0.000568	5.675858	1.923033	0.000227
 132	1.3034e+01	5.2073	29.961603	0.000699	6.993468	2.369451	0.000280
 133	1.3134e+01	5.2539	30.159423	0.000497	4.966376	1.682654	0.000199
 134	1.3233e+01	5.2843	30.413762	0.000639	6.385341	2.163412	0.000256
 135	1.3333e+01	5.3293	30.651953	0.000598	5.979922	2.026053	0.000239
 136	1.3432e+01	5.3694	30.882070	0.000578	5.777213	1.957373	0.000231
 137	1.3532e+01	5.4159	31.104112	0.000557	5.574504	1.888693	0.000223
 138	1.3632e+01	5.4576	31.330192	0.000568	5.675858	1.923033	0.000227
 139	1.3731e+01	5.4865	31.568383	0.000598	5.979922	2.026053	0.000239
 140	1.3831e+01	5.5298	31.794463	0.000568	5.675858	1.923033	0.000227
 141	1.3930e+01	5.5747	32.052839	0.000649	6.486695	2.197752	0.000260
 142	1.4030e+01	5.6116	32.250659	0.000497	4.966376	1.682654	0.000199
 143	1.4129e+01	5.6469	32.517110	0.000669	6.689405	2.266432	0.000268
 144	1.4229e+01	5.6806	32.755301	0.000598	5.979922	2.026053	0.000239
 145	1.4328e+01	5.7287	32.953120	0.000497	4.966376	1.682654	0.000199
 146	1.4428e+01	5.7672	33.219571	0.000669	6.689405	2.266432	0.000268
 147	1.4527e+01	5.8041	33.453725	0.000588	5.878568	1.991713	0.000235
 148	1.4627e+01	5.8506	33.687879	0.000588	5.878568	1.991713	0.000235
 149	1.4726e+01	5.8891	33.913959	0.000568	5.675858	1.923033	0.000227
 150	1.4825e+01	5.9260	34.148113	0.000588	5.878568	1.991713	0.000235
 151	1.4925e+01	5.9677	34.386304	0.000598	5.979922	2.026053	0.000239
 152	1.5024e+01	6.0111	34.624495	0.000598	5.979922	2.026053	0.000239
 153	1.5124e+01	6.0480	34.838463	0.000537	5.371795	1.820013	0.000215
 154	1.5223e+01	6.0897	35.108951	0.000679	6.790759	2.300772	0.000272
 155	1.5323e+01	6.1346	35.330993	0.000557	5.574504	1.888693	0.000223
 156	1.5422e+01	6.1731	35.532850	0.000507	5.067731	1.716994	0.000203
 157	1.5522e+01	6.2100	35.750856	0.000547	5.473149	1.854353	0.000219
 158	1.5621e+01	6.2469	36.017306	0.000669	6.689405	2.266432	0.000268
 159	1.5721e+01	6.2886	36.243386	0.000568	5.675858	1.923033	0.000227
 160	1.5820e+01	6.3271	36.473503	0.000578	5.777213	1.957373	0.000231
 161	1.5920e+01	6.3736	36.707657	0.000588	5.878568	1.991713	0.000235
 162	1.6020e+01	6.4089	36.982182	0.000689	6.892114	2.335111	0.000276
 163	1.6119e+01	6.4474	37.188076	0.000517	5.169085	1.751334	0.000207
 164	1.6218e+01	6.4811	37.418193	0.000578	5.777213	1.957373	0.000231
 165	1.6318e+01	6.5228	37.620049	0.000507	5.067731	1.716994	0.000203
 166	1.6418e+01	6.5597	37.858240	0.000598	5.979922	2.026053	0.000239
 167	1.6517e+01	6.6062	38.092394	0.000588	5.878568	1.991713	0.000235
 168	1.6616e+01	6.6383	38.342697	0.000628	6.283986	2.129072	0.000252
 169	1.6716e+01	6.6880	38.560702	0.000547	5.473149	1.854353	0.000219
 170	1.6816e+01	6.7298	38.802930	0.000608	6.081277	2.060392	0.000243
 171	1.6915e+01	6.7618	39.085530	0.000709	7.094823	2.403791	0.000284
 172	1.7015e+01	6.8019	39.271238	0.000466	4.662312	1.579634	0.000187
 173	1.7114e+01	6.8421	39.505392	0.000588	5.878568	1.991713	0.000235
 174	1.7213e+01	6.8838	39.771843	0.000669	6.689405	2.266432	0.000268
 175	1.7313e+01	6.9158	39.993885	0.000557	5.574504	1.888693	0.000223
 176	1.7413e+01	6.9640	40.244188	0.000628	6.283986	2.129072	0.000252
 177	1.7512e+01	6.9945	40.462193	0.000547	5.473149	1.854353	0.000219
 178	1.7611e+01	7.0474	40.720570	0.000649	6.486695	2.197752	0.000260
 179	1.7711e+01	7.0827	40.926464	0.000517	5.169085	1.751334	0.000207
 180	1.7811e+01	7.1260	41.160617	0.000588	5.878568	1.991713	0.000235
 181	1.7910e+01	7.1661	41.402846	0.000608	6.081277	2.060392	0.000243
 182	1.8009e+01	7.2078	41.649111	0.000618	6.182632	2.094732	0.000248
 183	1.8109e+01	7.2495	41.899413	0.000628	6.283986	2.129072	0.000252
 184	1.8209e+01	7.2800	42.133567	0.000588	5.878568	1.991713	0.000235
 185	1.8308e+01	7.3297	42.375795	0.000608	6.081277	2.060392	0.000243
 186	1.8407e+01	7.3570	42.589763	0.000537	5.371795	1.820013	0.000215
 187	1.8507e+01	7.4116	42.840066	0.000628	6.283986	2.129072	0.000252
 188	1.8607e+01	7.4340	43.021737	0.000456	4.560958	1.545294	0.000183
 189	1.8706e+01	7.4773	43.284151	0.000659	6.588050	2.232092	0.000264
 190	1.8805e+01	7.5303	43.554639	0.000679	6.790759	2.300772	0.000272
 191	1.8905e+01	7.5656	43.768607	0.000537	5.371795	1.820013	0.000215
 192	1.9005e+01	7.5976	43.994687	0.000568	5.675858	1.923033	0.000227
 193	1.9104e+01	7.6361	44.249026	0.000639	6.385341	2.163412	0.000256
 194	1.9203e+01	7.6795	44.454920	0.000517	5.169085	1.751334	0.000207
 195	1.9303e+01	7.7228	44.705223	0.000628	6.283986	2.129072	0.000252
 196	1.9402e+01	7.7533	44.931302	0.000568	5.675858	1.923033	0.000227
 197	1.9502e+01	7.8062	45.149308	0.000547	5.473149	1.854353	0.000219
 198	1.9602e+01	7.8335	45.423833	0.000689	6.892114	2.335111	0.000276
 199	1.9701e+01	7.8864	45.682209	0.000649	6.486695	2.197752	0.000260
 200	1.9800e+01	7.9265	45.875992	0.000487	4.865022	1.648314	0.000195
 201	1.9900e+01	7.9634	46.093997	0.000547	5.473149	1.854353	0.000219
 202	2.0000e+01	7.9907	46.336225	0.000608	6.081277	2.060392	0.000243
 203	2.0099e+01	8.0372	46.586528	0.000628	6.283986	2.129072	0.000252
 204	2.0198e+01	8.0741	46.772236	0.000466	4.662312	1.579634	0.000187
 205	2.0298e+01	8.1254	47.054836	0.000709	7.094823	2.403791	0.000284
 206	2.0398e+01	8.1575	47.309175	0.000639	6.385341	2.163412	0.000256
 207	2.0497e+01	8.2040	47.531218	0.000557	5.574504	1.888693	0.000223
 208	2.0596e+01	8.2361	47.712889	0.000456	4.560958	1.545294	0.000183
 209	2.0696e+01	8.2843	47.951080	0.000598	5.979922	2.026053	0.000239
 210	2.0796e+01	8.3099	48.185234	0.000588	5.878568	1.991713	0.000235
 211	2.0895e+01	8.3500	48.455722	0.000679	6.790759	2.300772	0.000272
 212	2.0994e+01	8.3982	48.673727	0.000547	5.473149	1.854353	0.000219
 213	2.1094e+01	8.4286	48.911918	0.000598	5.979922	2.026053	0.000239
 214	2.1194e+01	8.4752	49.182406	0.000679	6.790759	2.300772	0.000272
 215	2.1293e+01	8.5249	49.376189	0.000487	4.865022	1.648314	0.000195
 216	2.1392e+01	8.5634	49.614380	0.000598	5.979922	2.026053	0.000239
 217	2.1492e+01	8.5891	49.852571	0.000598	5.979922	2.026053	0.000239
 218	2.1591e+01	8.6308	50.082687	0.000578	5.777213	1.957373	0.000231
 219	2.1691e+01	8.6805	50.308767	0.000568	5.675858	1.923033	0.000227
 220	2.1791e+01	8.7126	50.563107	0.000639	6.385341	2.163412	0.000256
 221	2.1890e+01	8.7559	50.833595	0.000679	6.790759	2.300772	0.000272
 222	2.1989e+01	8.7944	51.055637	0.000557	5.574504	1.888693	0.000223
 223	2.2089e+01	8.8297	51.225197	0.000426	4.256894	1.442275	0.000170
 224	2.2189e+01	8.8826	51.515871	0.000730	7.297532	2.472471	0.000292
 225	2.2288e+01	8.9131	51.713690	0.000497	4.966376	1.682654	0.000199
 226	2.2387e+01	8.9548	51.963993	0.000628	6.283986	2.129072	0.000252
 227	2.2487e+01	8.9917	52.173924	0.000527	5.270440	1.785673	0.000211
 228	2.2587e+01	9.0350	52.444412	0.000679	6.790759	2.300772	0.000272
 229	2.2686e+01	9.0816	52.662417	0.000547	5.473149	1.854353	0.000219
 230	2.2785e+01	9.1104	52.880422	0.000547	5.473149	1.854353	0.000219
 231	2.2885e+01	9.1505	53.110539	0.000578	5.777213	1.957373	0.000231
 232	2.2985e+01	9.1955	53.340656	0.000578	5.777213	1.957373	0.000231
 233	2.3084e+01	9.2356	53.550587	0.000527	5.270440	1.785673	0.000211
 234	2.3183e+01	9.2821	53.780704	0.000578	5.777213	1.957373	0.000231
 235	2.3283e+01	9.3126	54.055229	0.000689	6.892114	2.335111	0.000276
 236	2.3383e+01	9.3559	54.281309	0.000568	5.675858	1.923033	0.000227
 237	2.3482e+01	9.4040	54.523537	0.000608	6.081277	2.060392	0.000243
 238	2.3581e+01	9.4345	54.765765	0.000608	6.081277	2.060392	0.000243
 239	2.3681e+01	9.4730	55.007993	0.000608	6.081277	2.060392	0.000243
 240	2.3780e+01	9.5195	55.145256	0.000345	3.446057	1.167556	0.000138
 241	2.3880e+01	9.5580	55.460152	0.000791	7.905660	2.678510	0.000316
 242	2.3980e+01	9.6029	55.666046	0.000517	5.169085	1.751334	0.000207
 243	2.4079e+01	9.6334	55.916349	0.000628	6.283986	2.129072	0.000252
 244	2.4178e+01	9.6799	56.126280	0.000527	5.270440	1.785673	0.000211
 245	2.4278e+01	9.7152	56.364471	0.000598	5.979922	2.026053	0.000239
 246	2.4378e+01	9.7553	56.602662	0.000598	5.979922	2.026053	0.000239
 247	2.4477e+01	9.7954	56.857001	0.000639	6.385341	2.163412	0.000256
 248	2.4576e+01	9.8307	57.042709	0.000466	4.662312	1.579634	0.000187
 249	2.4676e+01	9.8692	57.297049	0.000639	6.385341	2.163412	0.000256
 250	2.4776e+01	9.9142	57.543314	0.000618	6.182632	2.094732	0.000248
 251	2.4875e+01	9.9639	57.813802	0.000679	6.790759	2.300772	0.000272
 252	2.4974e+01	9.9928	58.023733	0.000527	5.270440	1.785673	0.000211
 253	2.5074e+01	10.0281	58.225590	0.000507	5.067731	1.716994	0.000203
 254	2.5174e+01	10.0826	58.439558	0.000537	5.371795	1.820013	0.000215
 255	2.5273e+01	10.1195	58.706009	0.000669	6.689405	2.266432	0.000268
 256	2.5372e+01	10.1436	58.919978	0.000537	5.371795	1.820013	0.000215
 257	2.5472e+01	10.1949	59.154131	0.000588	5.878568	1.991713	0.000235
 258	2.5572e+01	10.2286	59.392322	0.000598	5.979922	2.026053	0.000239
 259	2.5671e+01	10.2655	59.614365	0.000557	5.574504	1.888693	0.000223
 260	2.5770e+01	10.3104	59.848519	0.000588	5.878568	1.991713	0.000235
 261	2.5870e+01	10.3569	60.090747	0.000608	6.081277	2.060392	0.000243
 262	2.5970e+01	10.3778	60.268381	0.000446	4.459603	1.510954	0.000179
 263	2.6069e+01	10.4275	60.530795	0.000659	6.588050	2.232092	0.000264
 264	2.6169e+01	10.4724	60.756874	0.000568	5.675858	1.923033	0.000227
 265	2.6268e+01	10.5061	60.991028	0.000588	5.878568	1.991713	0.000235
 266	2.6367e+01	10.5414	61.213071	0.000557	5.574504	1.888693	0.000223
 267	2.6467e+01	10.5911	61.427039	0.000537	5.371795	1.820013	0.000215
 268	2.6567e+01	10.6216	61.669267	0.000608	6.081277	2.060392	0.000243
 269	2.6666e+01	10.6730	61.875161	0.000517	5.169085	1.751334	0.000207
 270	2.6765e+01	10.7115	62.137575	0.000659	6.588050	2.232092	0.000264
 271	2.6865e+01	10.7387	62.359617	0.000557	5.574504	1.888693	0.000223
 272	2.6965e+01	10.7933	62.565511	0.000517	5.169085	1.751334	0.000207
 273	2.7064e+01	10.8270	62.815814	0.000628	6.283986	2.129072	0.000252
 274	2.7163e+01	10.8783	63.029782	0.000537	5.371795	1.820013	0.000215
 275	2.7263e+01	10.9120	63.267973	0.000598	5.979922	2.026053	0.000239
 276	2.7363e+01	10.9441	63.550572	0.000709	7.094823	2.403791	0.000284
 277	2.7462e+01	10.9794	63.708021	0.000395	3.952830	1.339255	0.000158
 278	2.7561e+01	11.0371	63.938137	0.000578	5.777213	1.957373	0.000231
 279	2.7661e+01	11.0612	64.156143	0.000547	5.473149	1.854353	0.000219
 280	2.7761e+01	11.1029	64.394334	0.000598	5.979922	2.026053	0.000239
 281	2.7860e+01	11.1510	64.608302	0.000537	5.371795	1.820013	0.000215
 282	2.7959e+01	11.1879	64.854567	0.000618	6.182632	2.094732	0.000248
 283	2.8059e+01	11.2216	65.100832	0.000618	6.182632	2.094732	0.000248
 284	2.8159e+01	11.2713	65.339023	0.000598	5.979922	2.026053	0.000239
 285	2.8258e+01	11.3147	65.528769	0.000476	4.763667	1.613974	0.000191
 286	2.8358e+01	11.3483	65.811368	0.000709	7.094823	2.403791	0.000284
 287	2.8457e+01	11.3852	66.037448	0.000568	5.675858	1.923033	0.000227
 288	2.8556e+01	11.4237	66.239305	0.000507	5.067731	1.716994	0.000203
 289	2.8656e+01	11.4767	66.481533	0.000608	6.081277	2.060392	0.000243
 290	2.8756e+01	11.5023	66.687427	0.000517	5.169085	1.751334	0.000207
 291	2.8855e+01	11.5457	66.925618	0.000598	5.979922	2.026053	0.000239
 292	2.8954e+01	11.5826	67.131512	0.000517	5.169085	1.751334	0.000207
 293	2.9054e+01	11.6259	67.353554	0.000557	5.574504	1.888693	0.000223
 294	2.9154e+01	11.6628	67.599819	0.000618	6.182632	2.094732	0.000248
 295	2.9253e+01	11.7093	67.842048	0.000608	6.081277	2.060392	0.000243
 296	2.9352e+01	11.7494	68.031793	0.000476	4.763667	1.613974	0.000191
 297	2.9452e+01	11.7863	68.298244	0.000669	6.689405	2.266432	0.000268
 298	2.9552e+01	11.8312	68.492026	0.000487	4.865022	1.648314	0.000195
 299	2.9651e+01	11.8681	68.726180	0.000588	5.878568	1.991713	0.000235
 300	2.9750e+01	11.9066	68.972446	0.000618	6.182632	2.094732	0.000248
 301	2.9850e+01	11.9419	69.206599	0.000588	5.878568	1.991713	0.000235
 302	2.9950e+01	11.9868	69.404419	0.000497	4.966376	1.682654	0.000199
 303	3.0049e+01	12.0253	69.638573	0.000588	5.878568	1.991713	0.000235
 304	3.0148e+01	12.0606	69.836393	0.000497	4.966376	1.682654	0.000199
 305	3.0248e+01	12.1152	70.098806	0.000659	6.588050	2.232092	0.000264
 306	3.0348e+01	12.1424	70.324886	0.000568	5.675858	1.923033	0.000227
 307	3.0447e+01	12.1874	70.555003	0.000578	5.777213	1.957373	0.000231
 308	3.0547e+01	12.2275	70.768971	0.000537	5.371795	1.820013	0.000215
 309	3.0646e+01	12.2644	70.991013	0.000557	5.574504	1.888693	0.000223
 310	3.0745e+01	12.3077	71.196907	0.000517	5.169085	1.751334	0.000207
 311	3.0845e+01	12.3430	71.475470	0.000699	6.993468	2.369451	0.000280
 312	3.0945e+01	12.3734	71.673289	0.000497	4.966376	1.682654	0.000199
 313	3.1044e+01	12.4216	71.883220	0.000527	5.270440	1.785673	0.000211
 314	3.1143e+01	12.4681	72.129486	0.000618	6.182632	2.094732	0.000248
 315	3.1243e+01	12.5082	72.327305	0.000497	4.966376	1.682654	0.000199
 316	3.1343e+01	12.5403	72.605868	0.000699	6.993468	2.369451	0.000280
 317	3.1442e+01	12.5772	72.811762	0.000517	5.169085	1.751334	0.000207
 318	3.1541e+01	12.6253	72.997470	0.000466	4.662312	1.579634	0.000187
 319	3.1641e+01	12.6590	73.239698	0.000608	6.081277	2.060392	0.000243
 320	3.1741e+01	12.6991	73.490000	0.000628	6.283986	2.129072	0.000252
 321	3.1840e+01	12.7424	73.699931	0.000527	5.270440	1.785673	0.000211
 322	3.1939e+01	12.7841	73.942160	0.000608	6.081277	2.060392	0.000243
 323	3.2039e+01	12.8242	74.119794	0.000446	4.459603	1.510954	0.000179
 324	3.2139e+01	12.8595	74.406430	0.000720	7.196178	2.438131	0.000288
 325	3.2238e+01	12.9044	74.620398	0.000537	5.371795	1.820013	0.000215
 326	3.2337e+01	12.9365	74.789958	0.000426	4.256894	1.442275	0.000170
 327	3.2437e+01	12.9831	75.032186	0.000608	6.081277	2.060392	0.000243
 328	3.2536e+01	13.0167	75.282489	0.000628	6.283986	2.129072	0.000252
 329	3.2636e+01	13.0569	75.452048	0.000426	4.256894	1.442275	0.000170
 330	3.2736e+01	13.1066	75.706388	0.000639	6.385341	2.163412	0.000256
 331	3.2835e+01	13.1371	75.940542	0.000588	5.878568	1.991713	0.000235
 332	3.2934e+01	13.1724	76.134324	0.000487	4.865022	1.648314	0.000195
 333	3.3034e+01	13.2189	76.368478	0.000588	5.878568	1.991713	0.000235
 334	3.3133e+01	13.2638	76.570335	0.000507	5.067731	1.716994	0.000203
 335	3.3233e+01	13.2959	76.816600	0.000618	6.182632	2.094732	0.000248
 336	3.3333e+01	13.3344	77.066903	0.000628	6.283986	2.129072	0.000252
 337	3.3432e+01	13.3713	77.264722	0.000497	4.966376	1.682654	0.000199
 338	3.3532e+01	13.4130	77.523099	0.000649	6.486695	2.197752	0.000260
 339	3.3631e+01	13.4531	77.733030	0.000527	5.270440	1.785673	0.000211
 340	3.3730e+01	13.4948	77.938924	0.000517	5.169085	1.751334	0.000207
 341	3.3830e+01	13.5413	78.173078	0.000588	5.878568	1.991713	0.000235
 342	3.3929e+01	13.5766	78.399157	0.000568	5.675858	1.923033	0.000227
 343	3.4029e+01	13.6183	78.629274	0.000578	5.777213	1.957373	0.000231
 344	3.4129e+01	13.6552	78.863428	0.000588	5.878568	1.991713	0.000235
 345	3.4228e+01	13.7050	79.073359	0.000527	5.270440	1.785673	0.000211
 346	3.4328e+01	13.7370	79.279253	0.000517	5.169085	1.751334	0.000207
 347	3.4427e+01	13.7772	79.533593	0.000639	6.385341	2.163412	0.000256
 348	3.4526e+01	13.8060	79.747561	0.000537	5.371795	1.820013	0.000215
 349	3.4626e+01	13.8493	80.005937	0.000649	6.486695	2.197752	0.000260
 350	3.4725e+01	13.8911	80.195683	0.000476	4.763667	1.613974	0.000191
 351	3.4825e+01	13.9440	80.425800	0.000578	5.777213	1.957373	0.000231
 352	3.4925e+01	13.9713	80.655916	0.000578	5.777213	1.957373	0.000231
 353	3.5024e+01	14.0194	80.898144	0.000608	6.081277	2.060392	0.000243
 354	3.5123e+01	14.0515	81.124224	0.000568	5.675858	1.923033	0.000227
 355	3.5223e+01	14.0932	81.346267	0.000557	5.574504	1.888693	0.000223
 356	3.5322e+01	14.1269	81.556198	0.000527	5.270440	1.785673	0.000211
 357	3.5422e+01	14.1750	81.758054	0.000507	5.067731	1.716994	0.000203
 358	3.5522e+01	14.2135	81.996245	0.000598	5.979922	2.026053	0.000239
 359	3.5621e+01	14.2520	82.206176	0.000527	5.270440	1.785673	0.000211
 360	3.5721e+01	14.2953	82.420145	0.000537	5.371795	1.820013	0.000215
 361	3.5820e+01	14.3242	82.702744	0.000709	7.094823	2.403791	0.000284
 362	3.5919e+01	14.3691	82.892490	0.000476	4.763667	1.613974	0.000191
 363	3.6019e+01	14.4156	83.134718	0.000608	6.081277	2.060392	0.000243
 364	3.6118e+01	14.4461	83.336574	0.000507	5.067731	1.716994	0.000203
 365	3.6218e+01	14.4991	83.615137	0.000699	6.993468	2.369451	0.000280
 366	3.6318e+01	14.5360	83.804882	0.000476	4.763667	1.613974	0.000191
 367	3.6417e+01	14.5680	83.986553	0.000456	4.560958	1.545294	0.000183
 368	3.6517e+01	14.6114	84.244930	0.000649	6.486695	2.197752	0.000260
 369	3.6616e+01	14.6499	84.422564	0.000446	4.459603	1.510954	0.000179
 370	3.6715e+01	14.6932	84.693052	0.000679	6.790759	2.300772	0.000272
 371	3.6815e+01	14.7365	84.866649	0.000436	4.358248	1.476615	0.000174
 372	3.6914e+01	14.7686	85.125026	0.000649	6.486695	2.197752	0.000260
 373	3.7014e+01	14.8103	85.334957	0.000527	5.270440	1.785673	0.000211
 374	3.7114e+01	14.8488	85.577185	0.000608	6.081277	2.060392	0.000243
 375	3.7213e+01	14.9033	85.791153	0.000537	5.371795	1.820013	0.000215
 376	3.7313e+01	14.9290	86.021270	0.000578	5.777213	1.957373	0.000231
 377	3.7412e+01	14.9707	86.243312	0.000557	5.574504	1.888693	0.000223
 378	3.7511e+01	15.0092	86.465355	0.000557	5.574504	1.888693	0.000223
 379	3.7611e+01	15.0541	86.679323	0.000537	5.371795	1.820013	0.000215
 380	3.7711e+01	15.0926	86.893291	0.000537	5.371795	1.820013	0.000215
 381	3.7810e+01	15.1263	87.131482	0.000598	5.979922	2.026053	0.000239
 382	3.7910e+01	15.1664	87.329302	0.000497	4.966376	1.682654	0.000199
 383	3.8009e+01	15.2145	87.543270	0.000537	5.371795	1.820013	0.000215
 384	3.8108e+01	15.2530	87.793572	0.000628	6.283986	2.129072	0.000252
 385	3.8208e+01	15.2867	88.019652	0.000568	5.675858	1.923033	0.000227
 386	3.8307e+01	15.3204	88.249769	0.000578	5.777213	1.957373	0.000231
 387	3.8407e+01	15.3718	88.471811	0.000557	5.574504	1.888693	0.000223
 388	3.8507e+01	15.4054	88.657519	0.000466	4.662312	1.579634	0.000187
 389	3.8606e+01	15.4439	88.919933	0.000659	6.588050	2.232092	0.000264
 390	3.8706e+01	15.4889	89.125827	0.000517	5.169085	1.751334	0.000207
 391	3.8805e+01	15.5322	89.364018	0.000598	5.979922	2.026053	0.000239
 392	3.8904e+01	15.5723	89.582023	0.000547	5.473149	1.854353	0.000219
 393	3.9004e+01	15.6108	89.804066	0.000557	5.574504	1.888693	0.000223
 394	3.9103e+01	15.6429	90.034183	0.000578	5.777213	1.957373	0.000231
 395	3.9203e+01	15.6878	90.248151	0.000537	5.371795	1.820013	0.000215
 396	3.9303e+01	15.7247	90.450008	0.000507	5.067731	1.716994	0.000203
 397	3.9402e+01	15.7584	90.716459	0.000669	6.689405	2.266432	0.000268
 398	3.9502e+01	15.8129	90.914278	0.000497	4.966376	1.682654	0.000199
 399	3.9601e+01	15.8546	91.112098	0.000497	4.966376	1.682654	0.000199
 400	3.9700e+01	15.8931	91.370475	0.000649	6.486695	2.197752	0.000260
 401	3.9800e+01	15.9220	91.584443	0.000537	5.371795	1.820013	0.000215
 402	3.9900e+01	15.9717	91.786300	0.000507	5.067731	1.716994	0.000203
 403	3.9999e+01	16.0086	92.020453	0.000588	5.878568	1.991713	0.000235
 404	4.0099e+01	16.0520	92.258644	0.000598	5.979922	2.026053	0.000239
 405	4.0198e+01	16.0856	92.452427	0.000487	4.865022	1.648314	0.000195
 406	4.0297e+01	16.1209	92.658321	0.000517	5.169085	1.751334	0.000207
 407	4.0397e+01	16.1691	92.920735	0.000659	6.588050	2.232092	0.000264
 408	4.0496e+01	16.2076	93.110480	0.000476	4.763667	1.613974	0.000191
 409	4.0596e+01	16.2364	93.360783	0.000628	6.283986	2.129072	0.000252
 410	4.0696e+01	16.2862	93.550528	0.000476	4.763667	1.613974	0.000191
 411	4.0795e+01	16.3247	93.792756	0.000608	6.081277	2.060392	0.000243
 412	4.0895e+01	16.3696	93.990576	0.000497	4.966376	1.682654	0.000199
 413	4.0994e+01	16.4017	94.204544	0.000537	5.371795	1.820013	0.000215
 414	4.1093e+01	16.4482	94.466958	0.000659	6.588050	2.232092	0.000264
 415	4.1193e+01	16.4851	94.672852	0.000517	5.169085	1.751334	0.000207
 416	4.1292e+01	16.5236	94.902968	0.000578	5.777213	1.957373	0.000231
 417	4.1392e+01	16.5621	95.104825	0.000507	5.067731	1.716994	0.000203
 418	4.1492e+01	16.5990	95.338979	0.000588	5.878568	1.991713	0.000235
 419	4.1591e+01	16.6471	95.573133	0.000588	5.878568	1.991713	0.000235
 420	4.1691e+01	16.6824	95.770953	0.000497	4.966376	1.682654	0.000199
 421	4.1790e+01	16.7273	95.984921	0.000537	5.371795	1.820013	0.000215
 422	4.1889e+01	16.7626	96.206963	0.000557	5.574504	1.888693	0.000223
 423	4.1989e+01	16.7979	96.400746	0.000487	4.865022	1.648314	0.000195
 424	4.2089e+01	16.8444	96.638937	0.000598	5.979922	2.026053	0.000239
 425	4.2188e+01	16.8813	96.856942	0.000547	5.473149	1.854353	0.000219
 426	4.2288e+01	16.9343	97.078985	0.000557	5.574504	1.888693	0.000223
 427	4.2387e+01	16.9664	97.292953	0.000537	5.371795	1.820013	0.000215
 428	4.2486e+01	17.0049	97.502884	0.000527	5.270440	1.785673	0.000211
 429	4.2586e+01	17.0353	97.749149	0.000618	6.182632	2.094732	0.000248
 430	4.2685e+01	17.0899	97.963117	0.000537	5.371795	1.820013	0.000215
 431	4.2785e+01	17.1204	98.160937	0.000497	4.966376	1.682654	0.000199
 432	4.2885e+01	17.1669	98.370868	0.000527	5.270440	1.785673	0.000211
 433	4.2984e+01	17.2038	98.609059	0.000598	5.979922	2.026053	0.000239
 434	4.3084e+01	17.2439	98.823027	0.000537	5.371795	1.820013	0.000215
 435	4.3183e+01	17.2696	99.045070	0.000557	5.574504	1.888693	0.000223
 436	4.3282e+01	17.3113	99.218666	0.000436	4.358248	1.476615	0.000174
 437	4.3382e+01	17.3546	99.452820	0.000588	5.878568	1.991713	0.000235
 438	4.3481e+01	17.3979	99.670826	0.000547	5.473149	1.854353	0.000219
 439	4.3581e+01	17.4492	99.892868	0.000557	5.574504	1.888693	0.000223
 440	4.3681e+01	17.4926	100.110873	0.000547	5.473149	1.854353	0.000219
 441	4.3780e+01	17.5311	100.320805	0.000527	5.270440	1.785673	0.000211
 442	4.3880e+01	17.5615	100.510550	0.000476	4.763667	1.613974	0.000191
 443	4.3979e+01	17.6032	100.785075	0.000689	6.892114	2.335111	0.000276
 444	4.4078e+01	17.6434	100.970783	0.000466	4.662312	1.579634	0.000187
 445	4.4178e+01	17.6770	101.172640	0.000507	5.067731	1.716994	0.000203
 446	4.4278e+01	17.7316	101.382571	0.000527	5.270440	1.785673	0.000211
 447	4.4377e+01	17.7605	101.584428	0.000507	5.067731	1.716994	0.000203
 448	4.4477e+01	17.8054	101.867028	0.000709	7.094823	2.403791	0.000284
 449	4.4576e+01	17.8391	102.064847	0.000497	4.966376	1.682654	0.000199
 450	4.4675e+01	17.8776	102.294964	0.000578	5.777213	1.957373	0.000231
 451	4.4775e+01	17.9241	102.496821	0.000507	5.067731	1.716994	0.000203
 452	4.4874e+01	17.9562	102.690603	0.000487	4.865022	1.648314	0.000195
 453	4.4974e+01	17.9995	102.940906	0.000628	6.283986	2.129072	0.000252
 454	4.5074e+01	18.0428	103.130651	0.000476	4.763667	1.613974	0.000191
 455	4.5173e+01	18.0845	103.316359	0.000466	4.662312	1.579634	0.000187
 456	4.5273e+01	18.1246	103.558587	0.000608	6.081277	2.060392	0.000243
 457	4.5372e+01	18.1631	103.760444	0.000507	5.067731	1.716994	0.000203
 458	4.5471e+01	18.1968	104.014784	0.000639	6.385341	2.163412	0.000256
 459	4.5571e+01	18.2321	104.184343	0.000426	4.256894	1.442275	0.000170
 460	4.5670e+01	18.2770	104.386200	0.000507	5.067731	1.716994	0.000203
 461	4.5770e+01	18.3139	104.612280	0.000568	5.675858	1.923033	0.000227
 462	4.5870e+01	18.3604	104.838359	0.000568	5.675858	1.923033	0.000227
 463	4.5969e+01	18.4006	105.068476	0.000578	5.777213	1.957373	0.000231
 464	4.6069e+01	18.4407	105.322816	0.000639	6.385341	2.163412	0.000256
 465	4.6168e+01	18.4776	105.476227	0.000385	3.851475	1.304915	0.000154
 466	4.6267e+01	18.5209	105.670009	0.000487	4.865022	1.648314	0.000195
 467	4.6367e+01	18.5642	105.912238	0.000608	6.081277	2.060392	0.000243
 468	4.6467e+01	18.5979	106.138317	0.000568	5.675858	1.923033	0.000227
 469	4.6566e+01	18.6332	106.348248	0.000527	5.270440	1.785673	0.000211
 470	4.6666e+01	18.6781	106.594513	0.000618	6.182632	2.094732	0.000248
 471	4.6765e+01	18.7214	106.812519	0.000547	5.473149	1.854353	0.000219
 472	4.6864e+01	18.7551	106.986116	0.000436	4.358248	1.476615	0.000174
 473	4.6964e+01	18.7904	107.179898	0.000487	4.865022	1.648314	0.000195
 474	4.7063e+01	18.8337	107.401941	0.000557	5.574504	1.888693	0.000223
 475	4.7163e+01	18.8706	107.619946	0.000547	5.473149	1.854353	0.000219
 476	4.7263e+01	18.9107	107.833914	0.000537	5.371795	1.820013	0.000215
 477	4.7362e+01	18.9556	108.043845	0.000527	5.270440	1.785673	0.000211
 478	4.7462e+01	19.0037	108.237628	0.000487	4.865022	1.648314	0.000195
 479	4.7561e+01	19.0358	108.455633	0.000547	5.473149	1.854353	0.000219
 480	4.7660e+01	19.0759	108.705935	0.000628	6.283986	2.129072	0.000252
 481	4.7760e+01	19.1144	108.919904	0.000537	5.371795	1.820013	0.000215
 482	4.7859e+01	19.1513	109.109649	0.000476	4.763667	1.613974	0.000191
 483	4.7959e+01	19.1946	109.287283	0.000446	4.459603	1.510954	0.000179
 484	4.8059e+01	19.2315	109.561808	0.000689	6.892114	2.335111	0.000276
 485	4.8158e+01	19.2797	109.779814	0.000547	5.473149	1.854353	0.000219
 486	4.8258e+01	19.3166	109.941299	0.000405	4.054185	1.373595	0.000162
 487	4.8357e+01	19.3567	110.131044	0.000476	4.763667	1.613974	0.000191
 488	4.8456e+01	19.4032	110.361161	0.000578	5.777213	1.957373	0.000231
 489	4.8556e+01	19.4321	110.599352	0.000598	5.979922	2.026053	0.000239
 490	4.8656e+01	19.4690	110.785060	0.000466	4.662312	1.579634	0.000187
 491	4.8755e+01	19.5171	111.019214	0.000588	5.878568	1.991713	0.000235
 492	4.8855e+01	19.5588	111.200885	0.000456	4.560958	1.545294	0.000183
 493	4.8954e+01	19.5909	111.439076	0.000598	5.979922	2.026053	0.000239
 494	4.9053e+01	19.6294	111.653045	0.000537	5.371795	1.820013	0.000215
 495	4.9153e+01	19.6711	111.854901	0.000507	5.067731	1.716994	0.000203
 496	4.9252e+01	19.7176	112.032535	0.000446	4.459603	1.510954	0.000179
 497	4.9352e+01	19.7513	112.238429	0.000517	5.169085	1.751334	0.000207
 498	4.9452e+01	19.7930	112.476620	0.000598	5.979922	2.026053	0.000239
 499	4.9551e+01	19.8315	112.658291	0.000456	4.560958	1.545294	0.000183
 500	4.9651e+01	19.8829	112.916668	0.000649	6.486695	2.197752	0.000260
 501	4.9750e+01	19.9053	113.102376	0.000466	4.662312	1.579634	0.000187
 502	4.9849e+01	19.9454	113.304233	0.000507	5.067731	1.716994	0.000203
 503	4.9949e+01	19.9855	113.542424	0.000598	5.979922	2.026053	0.000239
 504	5.0048e+01	19.9518	113.384976	0.000395	3.952830	1.339255	-0.000158
 505	5.0148e+01	19.9182	113.219453	0.000416	4.155539	1.407935	-0.000166
 506	5.0248e+01	19.8748	113.062005	0.000395	3.952830	1.339255	-0.000158
 507	5.0347e+01	19.8331	112.920705	0.000355	3.547412	1.201896	-0.000142
 508	5.0447e+01	19.7930	112.747108	0.000436	4.358248	1.476615	-0.000174
 509	5.0546e+01	19.7513	112.609846	0.000345	3.446057	1.167556	-0.000138
 510	5.0645e+01	19.7192	112.440286	0.000426	4.256894	1.442275	-0.000170
 511	5.0745e+01	19.6727	112.315135	0.000314	3.141993	1.064536	-0.000126
 512	5.0844e+01	19.6310	112.137501	0.000446	4.459603	1.510954	-0.000179
 513	5.0944e+01	19.5925	111.963904	0.000436	4.358248	1.476615	-0.000174
 514	5.1044e+01	19.5620	111.818567	0.000365	3.648766	1.236235	-0.000146
 515	5.1143e+01	19.5091	111.640933	0.000446	4.459603	1.510954	-0.000179
 516	5.1242e+01	19.4626	111.455225	0.000466	4.662312	1.579634	-0.000187
 517	5.1342e+01	19.4353	111.305851	0.000375	3.750121	1.270575	-0.000150
 518	5.1441e+01	19.3984	111.168588	0.000345	3.446057	1.167556	-0.000138
 519	5.1541e+01	19.3599	110.954620	0.000537	5.371795	1.820013	-0.000215
 520	5.1641e+01	19.3102	110.809283	0.000365	3.648766	1.236235	-0.000146
 521	5.1740e+01	19.2733	110.619538	0.000476	4.763667	1.613974	-0.000191
 522	5.1840e+01	19.2348	110.462089	0.000395	3.952830	1.339255	-0.000158
 523	5.1939e+01	19.1930	110.328864	0.000334	3.344702	1.133216	-0.000134
 524	5.2038e+01	19.1561	110.110859	0.000547	5.473149	1.854353	-0.000219
 525	5.2138e+01	19.1096	109.941299	0.000426	4.256894	1.442275	-0.000170
 526	5.2237e+01	19.0807	109.795962	0.000365	3.648766	1.236235	-0.000146
 527	5.2337e+01	19.0374	109.594105	0.000507	5.067731	1.716994	-0.000203
 528	5.2437e+01	18.9925	109.404360	0.000476	4.763667	1.613974	-0.000191
 529	5.2536e+01	18.9524	109.259023	0.000365	3.648766	1.236235	-0.000146
 530	5.2636e+01	18.9155	109.057166	0.000507	5.067731	1.716994	-0.000203
 531	5.2735e+01	18.8722	108.891644	0.000416	4.155539	1.407935	-0.000166
 532	5.2834e+01	18.8401	108.722084	0.000426	4.256894	1.442275	-0.000170
 533	5.2934e+01	18.7920	108.508116	0.000537	5.371795	1.820013	-0.000215
 534	5.3033e+01	18.7519	108.370853	0.000345	3.446057	1.167556	-0.000138
 535	5.3133e+01	18.7150	108.177071	0.000487	4.865022	1.648314	-0.000195
 536	5.3233e+01	18.6813	108.003474	0.000436	4.358248	1.476615	-0.000174
 537	5.3332e+01	18.6348	107.850063	0.000385	3.851475	1.304915	-0.000154
 538	5.3431e+01	18.5898	107.672429	0.000446	4.459603	1.510954	-0.000179
 539	5.3531e+01	18.5610	107.474609	0.000497	4.966376	1.682654	-0.000199
 540	5.3630e+01	18.5225	107.260641	0.000537	5.371795	1.820013	-0.000215
 541	5.3730e+01	18.4824	107.074933	0.000466	4.662312	1.579634	-0.000187
 542	5.3830e+01	18.4358	106.921521	0.000385	3.851475	1.304915	-0.000154
 543	5.3929e+01	18.4006	106.760036	0.000405	4.054185	1.373595	-0.000162
 544	5.4029e+01	18.3588	106.554142	0.000517	5.169085	1.751334	-0.000207
 545	5.4128e+01	18.3187	106.360360	0.000487	4.865022	1.648314	-0.000195
 546	5.4227e+01	18.2802	106.219060	0.000355	3.547412	1.201896	-0.000142
 547	5.4327e+01	18.2305	105.988943	0.000578	5.777213	1.957373	-0.000231
 548	5.4426e+01	18.2000	105.847643	0.000355	3.547412	1.201896	-0.000142
 549	5.4526e+01	18.1695	105.657898	0.000476	4.763667	1.613974	-0.000191
 550	5.4626e+01	18.1150	105.468153	0.000476	4.763667	1.613974	-0.000191
 551	5.4725e+01	18.0845	105.286481	0.000456	4.560958	1.545294	-0.000183
 552	5.4825e+01	18.0444	105.100773	0.000466	4.662312	1.579634	-0.000187
 553	5.4924e+01	18.0011	104.943325	0.000395	3.952830	1.339255	-0.000158
 554	5.5023e+01	17.9578	104.749542	0.000487	4.865022	1.648314	-0.000195
 555	5.5123e+01	17.9225	104.539611	0.000527	5.270440	1.785673	-0.000211
 556	5.5222e+01	17.8904	104.402349	0.000345	3.446057	1.167556	-0.000138
 557	5.5322e+01	17.8423	104.180306	0.000557	5.574504	1.888693	-0.000223
 558	5.5422e+01	17.7974	103.990561	0.000476	4.763667	1.613974	-0.000191
 559	5.5521e+01	17.7508	103.812927	0.000446	4.459603	1.510954	-0.000179
 560	5.5620e+01	17.7155	103.683739	0.000324	3.243348	1.098876	-0.000130
 561	5.5720e+01	17.6819	103.449585	0.000588	5.878568	1.991713	-0.000235
 562	5.5819e+01	17.6369	103.247728	0.000507	5.067731	1.716994	-0.000203
 563	5.5919e+01	17.5968	103.070094	0.000446	4.459603	1.510954	-0.000179
 564	5.6019e+01	17.5599	102.880349	0.000476	4.763667	1.613974	-0.000191
 565	5.6118e+01	17.5198	102.710789	0.000426	4.256894	1.442275	-0.000170
 566	5.6218e+01	17.4910	102.529118	0.000456	4.560958	1.545294	-0.000183
 567	5.6317e+01	17.4412	102.359558	0.000426	4.256894	1.442275	-0.000170
 568	5.6416e+01	17.3979	102.129441	0.000578	5.777213	1.957373	-0.000231
 569	5.6516e+01	17.3674	101.931622	0.000497	4.966376	1.682654	-0.000199
 570	5.6615e+01	17.3257	101.729765	0.000507	5.067731	1.716994	-0.000203
 571	5.6715e+01	17.2776	101.556168	0.000436	4.358248	1.476615	-0.000174
 572	5.6815e+01	17.2471	101.382571	0.000436	4.358248	1.476615	-0.000174
 573	5.6914e+01	17.1910	101.192826	0.000476	4.763667	1.613974	-0.000191
 574	5.7014e+01	17.1717	101.023266	0.000426	4.256894	1.442275	-0.000170
 575	5.7113e+01	17.1204	100.833521	0.000476	4.763667	1.613974	-0.000191
 576	5.7212e+01	17.0915	100.667998	0.000416	4.155539	1.407935	-0.000166
 577	5.7312e+01	17.0418	100.454030	0.000537	5.371795	1.820013	-0.000215
 578	5.7411e+01	17.0049	100.288507	0.000416	4.155539	1.407935	-0.000166
 579	5.7511e+01	16.9616	100.090688	0.000497	4.966376	1.682654	-0.000199
 580	5.7611e+01	16.9279	99.904980	0.000466	4.662312	1.579634	-0.000187
 581	5.7710e+01	16.8813	99.703123	0.000507	5.067731	1.716994	-0.000203
 582	5.7809e+01	16.8396	99.533563	0.000426	4.256894	1.442275	-0.000170
 583	5.7909e+01	16.8027	99.335743	0.000497	4.966376	1.682654	-0.000199
 584	5.8008e+01	16.7642	99.145998	0.000476	4.763667	1.613974	-0.000191
 585	5.8108e+01	16.7241	98.964327	0.000456	4.560958	1.545294	-0.000183
 586	5.8208e+01	16.6888	98.750359	0.000537	5.371795	1.820013	-0.000215
 587	5.8307e+01	16.6519	98.556576	0.000487	4.865022	1.648314	-0.000195
 588	5.8407e+01	16.6134	98.399128	0.000395	3.952830	1.339255	-0.000158
 589	5.8506e+01	16.5605	98.177085	0.000557	5.574504	1.888693	-0.000223
 590	5.8605e+01	16.5140	97.999451	0.000446	4.459603	1.510954	-0.000179
 591	5.8705e+01	16.4755	97.785483	0.000537	5.371795	1.820013	-0.000215
 592	5.8804e+01	16.4482	97.611886	0.000436	4.358248	1.476615	-0.000174
 593	5.8904e+01	16.4081	97.426178	0.000466	4.662312	1.579634	-0.000187
 594	5.9004e+01	16.3664	97.248544	0.000446	4.459603	1.510954	-0.000179
 595	5.9103e+01	16.3167	97.010353	0.000598	5.979922	2.026053	-0.000239
 596	5.9203e+01	16.2862	96.840794	0.000426	4.256894	1.442275	-0.000170
 597	5.9302e+01	16.2396	96.655085	0.000466	4.662312	1.579634	-0.000187
 598	5.9401e+01	16.2044	96.449191	0.000517	5.169085	1.751334	-0.000207
 599	5.9501e+01	16.1675	96.231186	0.000547	5.473149	1.854353	-0.000219
 600	5.9600e+01	16.1177	96.041441	0.000476	4.763667	1.613974	-0.000191
 601	5.9700e+01	16.0889	95.879955	0.000405	4.054185	1.373595	-0.000162
 602	5.9800e+01	16.0487	95.686173	0.000487	4.865022	1.648314	-0.000195
 603	5.9899e+01	16.0070	95.476242	0.000527	5.270440	1.785673	-0.000211
 604	5.9998e+01	15.9653	95.278422	0.000497	4.966376	1.682654	-0.000199
 605	6.0098e+01	15.9332	95.096751	0.000456	4.560958	1.545294	-0.000183
 606	6.0197e+01	15.8947	94.890857	0.000517	5.169085	1.751334	-0.000207
 607	6.0297e+01	15.8450	94.701112	0.000476	4.763667	1.613974	-0.000191
 608	6.0397e+01	15.8033	94.515403	0.000466	4.662312	1.579634	-0.000187
 609	6.0496e+01	15.7728	94.305472	0.000527	5.270440	1.785673	-0.000211
 610	6.0596e+01	15.7279	94.099578	0.000517	5.169085	1.751334	-0.000207
 611	6.0695e+01	15.6926	93.958279	0.000355	3.547412	1.201896	-0.000142
 612	6.0794e+01	15.6461	93.699902	0.000649	6.486695	2.197752	-0.000260
 613	6.0894e+01	15.6108	93.518231	0.000456	4.560958	1.545294	-0.000183
 614	6.0993e+01	15.5691	93.356745	0.000405	4.054185	1.373595	-0.000162
 615	6.1093e+01	15.5290	93.142777	0.000537	5.371795	1.820013	-0.000215
 616	6.1193e+01	15.4985	92.936883	0.000517	5.169085	1.751334	-0.000207
 617	6.1292e+01	15.4423	92.775398	0.000405	4.054185	1.373595	-0.000162
 618	6.1392e+01	15.4103	92.557392	0.000547	5.473149	1.854353	-0.000219
 619	6.1491e+01	15.3686	92.379759	0.000446	4.459603	1.510954	-0.000179
 620	6.1590e+01	15.3317	92.165790	0.000537	5.371795	1.820013	-0.000215
 621	6.1690e+01	15.2851	91.947785	0.000547	5.473149	1.854353	-0.000219
 622	6.1789e+01	15.2563	91.778225	0.000426	4.256894	1.442275	-0.000170
 623	6.1889e+01	15.2097	91.548109	0.000578	5.777213	1.957373	-0.000231
 624	6.1989e+01	15.1664	91.386623	0.000405	4.054185	1.373595	-0.000162
 625	6.2088e+01	15.1295	91.152469	0.000588	5.878568	1.991713	-0.000235
 626	6.2188e+01	15.0894	90.970798	0.000456	4.560958	1.545294	-0.000183
 627	6.2287e+01	15.0493	90.789127	0.000456	4.560958	1.545294	-0.000183
 628	6.2386e+01	15.0060	90.567085	0.000557	5.574504	1.888693	-0.000223
 629	6.2486e+01	14.9755	90.381376	0.000466	4.662312	1.579634	-0.000187
 630	6.2586e+01	14.9290	90.207779	0.000436	4.358248	1.476615	-0.000174
 631	6.2685e+01	14.8921	89.961514	0.000618	6.182632	2.094732	-0.000248
 632	6.2785e+01	14.8504	89.759657	0.000507	5.067731	1.716994	-0.000203
 633	6.2884e+01	14.8055	89.565875	0.000487	4.865022	1.648314	-0.000195
 634	6.2983e+01	14.7718	89.384204	0.000456	4.560958	1.545294	-0.000183
 635	6.3083e+01	14.7285	89.182347	0.000507	5.067731	1.716994	-0.000203
 636	6.3182e+01	14.6916	88.996639	0.000466	4.662312	1.579634	-0.000187
 637	6.3282e+01	14.6450	88.802856	0.000487	4.865022	1.648314	-0.000195
 638	6.3382e+01	14.6114	88.576777	0.000568	5.675858	1.923033	-0.000227
 639	6.3481e+01	14.5680	88.403180	0.000436	4.358248	1.476615	-0.000174
 640	6.3581e+01	14.5279	88.197286	0.000517	5.169085	1.751334	-0.000207
 641	6.3680e+01	14.4846	88.011578	0.000466	4.662312	1.579634	-0.000187
 642	6.3779e+01	14.4509	87.797609	0.000537	5.371795	1.820013	-0.000215
 643	6.3879e+01	14.4156	87.567493	0.000578	5.777213	1.957373	-0.000231
 644	6.3978e+01	14.3659	87.377747	0.000476	4.763667	1.613974	-0.000191
 645	6.4078e+01	14.3354	87.204151	0.000436	4.358248	1.476615	-0.000174
 646	6.4177e+01	14.2921	86.998257	0.000517	5.169085	1.751334	-0.000207
 647	6.4277e+01	14.2504	86.784288	0.000537	5.371795	1.820013	-0.000215
 648	6.4376e+01	14.2119	86.574357	0.000527	5.270440	1.785673	-0.000211
 649	6.4476e+01	14.1718	86.408835	0.000416	4.155539	1.407935	-0.000166
 650	6.4576e+01	14.1237	86.202941	0.000517	5.169085	1.751334	-0.000207
 651	6.4675e+01	14.0948	85.993010	0.000527	5.270440	1.785673	-0.000211
 652	6.4775e+01	14.0611	85.775004	0.000547	5.473149	1.854353	-0.000219
 653	6.4874e+01	14.0146	85.601408	0.000436	4.358248	1.476615	-0.000174
 654	6.4974e+01	13.9729	85.367254	0.000588	5.878568	1.991713	-0.000235
 655	6.5073e+01	13.9408	85.201731	0.000416	4.155539	1.407935	-0.000166
 656	6.5172e+01	13.8943	84.995837	0.000517	5.169085	1.751334	-0.000207
 657	6.5272e+01	13.8542	84.785906	0.000527	5.270440	1.785673	-0.000211
 658	6.5371e+01	13.8269	84.571938	0.000537	5.371795	1.820013	-0.000215
 659	6.5471e+01	13.7820	84.366044	0.000517	5.169085	1.751334	-0.000207
 660	6.5570e+01	13.7419	84.144002	0.000557	5.574504	1.888693	-0.000223
 661	6.5670e+01	13.6937	83.966368	0.000446	4.459603	1.510954	-0.000179
 662	6.5769e+01	13.6536	83.720102	0.000618	6.182632	2.094732	-0.000248
 663	6.5869e+01	13.6103	83.546506	0.000436	4.358248	1.476615	-0.000174
 664	6.5969e+01	13.5686	83.336574	0.000527	5.270440	1.785673	-0.000211
 665	6.6068e+01	13.5301	83.142792	0.000487	4.865022	1.648314	-0.000195
 666	6.6168e+01	13.4900	82.920749	0.000557	5.574504	1.888693	-0.000223
 667	6.6267e+01	13.4531	82.735041	0.000466	4.662312	1.579634	-0.000187
 668	6.6367e+01	13.4114	82.533184	0.000507	5.067731	1.716994	-0.000203
 669	6.6466e+01	13.3729	82.331328	0.000507	5.067731	1.716994	-0.000203
 670	6.6566e+01	13.3392	82.125434	0.000517	5.169085	1.751334	-0.000207
 671	6.6665e+01	13.2927	81.927614	0.000497	4.966376	1.682654	-0.000199
 672	6.6764e+01	13.2526	81.725757	0.000507	5.067731	1.716994	-0.000203
 673	6.6864e+01	13.2189	81.491603	0.000588	5.878568	1.991713	-0.000235
 674	6.6963e+01	13.1772	81.293784	0.000497	4.966376	1.682654	-0.000199
 675	6.7063e+01	13.1435	81.075778	0.000547	5.473149	1.854353	-0.000219
 676	6.7162e+01	13.0889	80.906219	0.000426	4.256894	1.442275	-0.000170
 677	6.7262e+01	13.0536	80.720511	0.000466	4.662312	1.579634	-0.000187
 678	6.7362e+01	13.0232	80.470208	0.000628	6.283986	2.129072	-0.000252
 679	6.7461e+01	12.9766	80.292574	0.000446	4.459603	1.510954	-0.000179
 680	6.7561e+01	12.9397	80.094754	0.000497	4.966376	1.682654	-0.000199
 681	6.7660e+01	12.9012	79.888861	0.000517	5.169085	1.751334	-0.000207
 682	6.7760e+01	12.8611	79.695078	0.000487	4.865022	1.648314	-0.000195
 683	6.7859e+01	12.8226	79.464961	0.000578	5.777213	1.957373	-0.000231
 684	6.7959e+01	12.7825	79.279253	0.000466	4.662312	1.579634	-0.000187
 685	6.8058e+01	12.7408	79.053173	0.000568	5.675858	1.923033	-0.000227
 686	6.8157e+01	12.6991	78.875539	0.000446	4.459603	1.510954	-0.000179
 687	6.8257e+01	12.6574	78.681757	0.000487	4.865022	1.648314	-0.000195
 688	6.8356e+01	12.6269	78.500086	0.000456	4.560958	1.545294	-0.000183
 689	6.8456e+01	12.5820	78.274006	0.000568	5.675858	1.923033	-0.000227
 690	6.8555e+01	12.5483	78.043890	0.000578	5.777213	1.957373	-0.000231
 691	6.8655e+01	12.5018	77.866256	0.000446	4.459603	1.510954	-0.000179
 692	6.8754e+01	12.4665	77.644213	0.000557	5.574504	1.888693	-0.000223
 693	6.8854e+01	12.4344	77.438319	0.000517	5.169085	1.751334	-0.000207
 694	6.8954e+01	12.3895	77.256648	0.000456	4.560958	1.545294	-0.000183
 695	6.9053e+01	12.3398	77.026531	0.000578	5.777213	1.957373	-0.000231
 696	6.9153e+01	12.2948	76.796415	0.000578	5.777213	1.957373	-0.000231
 697	6.9252e+01	12.2660	76.618781	0.000446	4.459603	1.510954	-0.000179
 698	6.9352e+01	12.2243	76.380590	0.000598	5.979922	2.026053	-0.000239
 699	6.9451e+01	12.1793	76.202956	0.000446	4.459603	1.510954	-0.000179
 700	6.9550e+01	12.1489	75.940542	0.000659	6.588050	2.232092	-0.000264
 701	6.9650e+01	12.1023	75.807316	0.000334	3.344702	1.133216	-0.000134
 702	6.9749e+01	12.0670	75.561051	0.000618	6.182632	2.094732	-0.000248
 703	6.9849e+01	12.0253	75.343046	0.000547	5.473149	1.854353	-0.000219
 704	6.9948e+01	11.9868	75.108892	0.000588	5.878568	1.991713	-0.000235
 705	7.0048e+01	11.9467	74.923184	0.000466	4.662312	1.579634	-0.000187
 706	7.0147e+01	11.9018	74.737475	0.000466	4.662312	1.579634	-0.000187
 707	7.0247e+01	11.8617	74.531581	0.000517	5.169085	1.751334	-0.000207
 708	7.0347e+01	11.8232	74.329725	0.000507	5.067731	1.716994	-0.000203
 709	7.0446e+01	11.7847	74.119794	0.000527	5.270440	1.785673	-0.000211
 710	7.0546e+01	11.7462	73.893714	0.000568	5.675858	1.923033	-0.000227
 711	7.0645e+01	11.6997	73.724154	0.000426	4.256894	1.442275	-0.000170
 712	7.0745e+01	11.6580	73.498075	0.000568	5.675858	1.923033	-0.000227
 713	7.0844e+01	11.6307	73.288144	0.000527	5.270440	1.785673	-0.000211
 714	7.0944e+01	11.5842	73.106473	0.000456	4.560958	1.545294	-0.000183
 715	7.1043e+01	11.5505	72.888467	0.000547	5.473149	1.854353	-0.000219
 716	7.1142e+01	11.5152	72.662388	0.000568	5.675858	1.923033	-0.000227
 717	7.1242e+01	11.4703	72.436308	0.000568	5.675858	1.923033	-0.000227
 718	7.1341e+01	11.4302	72.250600	0.000466	4.662312	1.579634	-0.000187
 719	7.1441e+01	11.3949	72.036632	0.000537	5.371795	1.820013	-0.000215
 720	7.1540e+01	11.3451	71.802478	0.000588	5.878568	1.991713	-0.000235
 721	7.1640e+01	11.3066	71.608695	0.000487	4.865022	1.648314	-0.000195
 722	7.1740e+01	11.2601	71.390690	0.000547	5.473149	1.854353	-0.000219
 723	7.1839e+01	11.2264	71.140387	0.000628	6.283986	2.129072	-0.000252
 724	7.1939e+01	11.1783	70.974865	0.000416	4.155539	1.407935	-0.000166
 725	7.2038e+01	11.1526	70.777045	0.000497	4.966376	1.682654	-0.000199
 726	7.2138e+01	11.1045	70.510594	0.000669	6.689405	2.266432	-0.000268
 727	7.2237e+01	11.0692	70.328923	0.000456	4.560958	1.545294	-0.000183
 728	7.2337e+01	11.0227	70.131103	0.000497	4.966376	1.682654	-0.000199
 729	7.2436e+01	10.9842	69.856578	0.000689	6.892114	2.335111	-0.000276
 730	7.2535e+01	10.9489	69.695093	0.000405	4.054185	1.373595	-0.000162
 731	7.2635e+01	10.9072	69.464976	0.000578	5.777213	1.957373	-0.000231
 732	7.2734e+01	10.8639	69.271194	0.000487	4.865022	1.648314	-0.000195
 733	7.2834e+01	10.8334	69.028965	0.000608	6.081277	2.060392	-0.000243
 734	7.2933e+01	10.7965	68.879591	0.000375	3.750121	1.270575	-0.000150
 735	7.3033e+01	10.7468	68.665623	0.000537	5.371795	1.820013	-0.000215
 736	7.3132e+01	10.7050	68.403209	0.000659	6.588050	2.232092	-0.000264
 737	7.3232e+01	10.6681	68.209427	0.000487	4.865022	1.648314	-0.000195
 738	7.3332e+01	10.6441	68.007570	0.000507	5.067731	1.716994	-0.000203
 739	7.3431e+01	10.5911	67.737082	0.000679	6.790759	2.300772	-0.000272
 740	7.3531e+01	10.5494	67.591745	0.000365	3.648766	1.236235	-0.000146
 741	7.3630e+01	10.5157	67.329331	0.000659	6.588050	2.232092	-0.000264
 742	7.3730e+01	10.4660	67.143623	0.000466	4.662312	1.579634	-0.000187
 743	7.3829e+01	10.4323	66.913506	0.000578	5.777213	1.957373	-0.000231
 744	7.3928e+01	10.3890	66.711650	0.000507	5.067731	1.716994	-0.000203
 745	7.4028e+01	10.3537	66.501718	0.000527	5.270440	1.785673	-0.000211
 746	7.4127e+01	10.3072	66.320047	0.000456	4.560958	1.545294	-0.000183
 747	7.4227e+01	10.2751	66.098005	0.000557	5.574504	1.888693	-0.000223
 748	7.4326e+01	10.2286	65.843665	0.000639	6.385341	2.163412	-0.000256
 749	7.4426e+01	10.1821	65.625660	0.000547	5.473149	1.854353	-0.000219
 750	7.4525e+01	10.1500	65.468212	0.000395	3.952830	1.339255	-0.000158
 751	7.4625e+01	10.1131	65.213872	0.000639	6.385341	2.163412	-0.000256
 752	7.4725e+01	10.0762	65.032201	0.000456	4.560958	1.545294	-0.000183
 753	7.4824e+01	10.0377	64.806121	0.000568	5.675858	1.923033	-0.000227
 754	7.4924e+01	10.0024	64.543708	0.000659	6.588050	2.232092	-0.000264
 755	7.5023e+01	9.9543	64.378185	0.000416	4.155539	1.407935	-0.000166
 756	7.5123e+01	9.9110	64.160180	0.000547	5.473149	1.854353	-0.000219
 757	7.5222e+01	9.8660	63.930063	0.000578	5.777213	1.957373	-0.000231
 758	7.5322e+01	9.8291	63.708021	0.000557	5.574504	1.888693	-0.000223
 759	7.5421e+01	9.7922	63.522312	0.000466	4.662312	1.579634	-0.000187
 760	7.5520e+01	9.7553	63.267973	0.000639	6.385341	2.163412	-0.000256
 761	7.5620e+01	9.7120	63.058042	0.000527	5.270440	1.785673	-0.000211
 762	7.5719e+01	9.6671	62.852148	0.000517	5.169085	1.751334	-0.000207
 763	7.5819e+01	9.6446	62.654328	0.000497	4.966376	1.682654	-0.000199
 764	7.5918e+01	9.5885	62.412100	0.000608	6.081277	2.060392	-0.000243
 765	7.6018e+01	9.5516	62.198132	0.000537	5.371795	1.820013	-0.000215
 766	7.6118e+01	9.5131	61.968015	0.000578	5.777213	1.957373	-0.000231
 767	7.6217e+01	9.4778	61.745973	0.000557	5.574504	1.888693	-0.000223
 768	7.6317e+01	9.4313	61.548153	0.000497	4.966376	1.682654	-0.000199
 769	7.6416e+01	9.3944	61.305925	0.000608	6.081277	2.060392	-0.000243
 770	7.6516e+01	9.3543	61.067734	0.000598	5.979922	2.026053	-0.000239
 771	7.6615e+01	9.3142	60.886063	0.000456	4.560958	1.545294	-0.000183
 772	7.6715e+01	9.2789	60.639797	0.000618	6.182632	2.094732	-0.000248
 773	7.6814e+01	9.2324	60.446015	0.000487	4.865022	1.648314	-0.000195
 774	7.6913e+01	9.1955	60.207824	0.000598	5.979922	2.026053	-0.000239
 775	7.7013e+01	9.1521	59.965596	0.000608	6.081277	2.060392	-0.000243
 776	7.7112e+01	9.1120	59.796036	0.000426	4.256894	1.442275	-0.000170
 777	7.7212e+01	9.0687	59.573994	0.000557	5.574504	1.888693	-0.000223
 778	7.7311e+01	9.0334	59.343877	0.000578	5.777213	1.957373	-0.000231
 779	7.7411e+01	8.9949	59.121834	0.000557	5.574504	1.888693	-0.000223
 780	7.7510e+01	8.9677	58.899792	0.000557	5.574504	1.888693	-0.000223
 781	7.7610e+01	8.9115	58.722158	0.000446	4.459603	1.510954	-0.000179
 782	7.7710e+01	8.8746	58.463781	0.000649	6.486695	2.197752	-0.000260
 783	7.7809e+01	8.8329	58.241739	0.000557	5.574504	1.888693	-0.000223
 784	7.7909e+01	8.7960	58.011622	0.000578	5.777213	1.957373	-0.000231
 785	7.8008e+01	8.7607	57.793617	0.000547	5.473149	1.854353	-0.000219
 786	7.8108e+01	8.7046	57.559463	0.000588	5.878568	1.991713	-0.000235
 787	7.8207e+01	8.6757	57.385866	0.000436	4.358248	1.476615	-0.000174
 788	7.8306e+01	8.6404	57.123452	0.000659	6.588050	2.232092	-0.000264
 789	7.8406e+01	8.5971	56.897373	0.000568	5.675858	1.923033	-0.000227
 790	7.8505e+01	8.5586	56.707627	0.000476	4.763667	1.613974	-0.000191
 791	7.8605e+01	8.5105	56.477510	0.000578	5.777213	1.957373	-0.000231
 792	7.8704e+01	8.4816	56.267579	0.000527	5.270440	1.785673	-0.000211
 793	7.8804e+01	8.4318	56.089945	0.000446	4.459603	1.510954	-0.000179
 794	7.8903e+01	8.3998	55.835606	0.000639	6.385341	2.163412	-0.000256
 795	7.9003e+01	8.3581	55.617600	0.000547	5.473149	1.854353	-0.000219
 796	7.9103e+01	8.3260	55.379409	0.000598	5.979922	2.026053	-0.000239
 797	7.9202e+01	8.2859	55.185627	0.000487	4.865022	1.648314	-0.000195
 798	7.9302e+01	8.2361	54.915139	0.000679	6.790759	2.300772	-0.000272
 799	7.9401e+01	8.2008	54.733468	0.000456	4.560958	1.545294	-0.000183
 800	7.9501e+01	8.1543	54.475091	0.000649	6.486695	2.197752	-0.000260
 801	7.9600e+01	8.1110	54.265160	0.000527	5.270440	1.785673	-0.000211
 802	7.9700e+01	8.0757	54.055229	0.000527	5.270440	1.785673	-0.000211
 803	7.9799e+01	8.0436	53.873558	0.000456	4.560958	1.545294	-0.000183
 804	7.9898e+01	7.9939	53.586921	0.000720	7.196178	2.438131	-0.000288
 805	7.9998e+01	7.9602	53.413324	0.000436	4.358248	1.476615	-0.000174
 806	8.0097e+01	7.9153	53.150911	0.000659	6.588050	2.232092	-0.000264
 807	8.0197e+01	7.8864	52.936942	0.000537	5.371795	1.820013	-0.000215
 808	8.0296e+01	7.8479	52.714900	0.000557	5.574504	1.888693	-0.000223
 809	8.0396e+01	7.7966	52.492857	0.000557	5.574504	1.888693	-0.000223
 810	8.0496e+01	7.7581	52.274852	0.000547	5.473149	1.854353	-0.000219
 811	8.0595e+01	7.7196	52.040698	0.000588	5.878568	1.991713	-0.000235
 812	8.0695e+01	7.6779	51.830767	0.000527	5.270440	1.785673	-0.000211
 813	8.0794e+01	7.6394	51.588539	0.000608	6.081277	2.060392	-0.000243
 814	8.0894e+01	7.6041	51.398794	0.000476	4.763667	1.613974	-0.000191
 815	8.0993e+01	7.5624	51.152528	0.000618	6.182632	2.094732	-0.000248
 816	8.1093e+01	7.5287	50.946634	0.000517	5.169085	1.751334	-0.000207
 817	8.1192e+01	7.4805	50.720555	0.000568	5.675858	1.923033	-0.000227
 818	8.1291e+01	7.4436	50.474290	0.000618	6.182632	2.094732	-0.000248
 819	8.1391e+01	7.4051	50.280507	0.000487	4.865022	1.648314	-0.000195
 820	8.1490e+01	7.3586	50.030205	0.000628	6.283986	2.129072	-0.000252
 821	8.1590e+01	7.3185	49.824311	0.000517	5.169085	1.751334	-0.000207
 822	8.1689e+01	7.2848	49.594194	0.000578	5.777213	1.957373	-0.000231
 823	8.1789e+01	7.2367	49.404449	0.000476	4.763667	1.613974	-0.000191
 824	8.1888e+01	7.2062	49.129923	0.000689	6.892114	2.335111	-0.000276
 825	8.1988e+01	7.1581	48.952289	0.000446	4.459603	1.510954	-0.000179
 826	8.2088e+01	7.1180	48.697950	0.000639	6.385341	2.163412	-0.000256
 827	8.2187e+01	7.0827	48.459759	0.000598	5.979922	2.026053	-0.000239
 828	8.2287e+01	7.0442	48.245791	0.000537	5.371795	1.820013	-0.000215
 829	8.2386e+01	6.9993	47.983377	0.000659	6.588050	2.232092	-0.000264
 830	8.2486e+01	6.9640	47.817854	0.000416	4.155539	1.407935	-0.000166
 831	8.2585e+01	6.9223	47.571589	0.000618	6.182632	2.094732	-0.000248
 832	8.2684e+01	6.8806	47.333398	0.000598	5.979922	2.026053	-0.000239
 833	8.2784e+01	6.8485	47.103281	0.000578	5.777213	1.957373	-0.000231
 834	8.2883e+01	6.8052	46.889313	0.000537	5.371795	1.820013	-0.000215
 835	8.2983e+01	6.7602	46.679382	0.000527	5.270440	1.785673	-0.000211
 836	8.3082e+01	6.7265	46.453302	0.000568	5.675858	1.923033	-0.000227
 837	8.3182e+01	6.6848	46.215111	0.000598	5.979922	2.026053	-0.000239
 838	8.3281e+01	6.6415	45.989032	0.000568	5.675858	1.923033	-0.000227
 839	8.3381e+01	6.5998	45.734692	0.000639	6.385341	2.163412	-0.000256
 840	8.3481e+01	6.5613	45.561095	0.000436	4.358248	1.476615	-0.000174
 841	8.3580e+01	6.5244	45.270422	0.000730	7.297532	2.472471	-0.000292
 842	8.3680e+01	6.4955	45.108936	0.000405	4.054185	1.373595	-0.000162
 843	8.3779e+01	6.4458	44.862671	0.000618	6.182632	2.094732	-0.000248
 844	8.3879e+01	6.4089	44.660814	0.000507	5.067731	1.716994	-0.000203
 845	8.3978e+01	6.3656	44.398400	0.000659	6.588050	2.232092	-0.000264
 846	8.4078e+01	6.3207	44.220766	0.000446	4.459603	1.510954	-0.000179
 847	8.4177e+01	6.2902	43.974501	0.000618	6.182632	2.094732	-0.000248
 848	8.4276e+01	6.2485	43.744384	0.000578	5.777213	1.957373	-0.000231
 849	8.4376e+01	6.2052	43.510230	0.000588	5.878568	1.991713	-0.000235
 850	8.4475e+01	6.1683	43.328559	0.000456	4.560958	1.545294	-0.000183
 851	8.4575e+01	6.1410	43.090368	0.000598	5.979922	2.026053	-0.000239
 852	8.4674e+01	6.0929	42.868326	0.000557	5.574504	1.888693	-0.000223
 853	8.4774e+01	6.0431	42.634172	0.000588	5.878568	1.991713	-0.000235
 854	8.4874e+01	6.0095	42.404055	0.000578	5.777213	1.957373	-0.000231
 855	8.4973e+01	5.9710	42.153753	0.000628	6.283986	2.129072	-0.000252
 856	8.5073e+01	5.9357	41.964007	0.000476	4.763667	1.613974	-0.000191
 857	8.5172e+01	5.8891	41.725816	0.000598	5.979922	2.026053	-0.000239
 858	8.5272e+01	5.8474	41.536071	0.000476	4.763667	1.613974	-0.000191
 859	8.5371e+01	5.8202	41.261546	0.000689	6.892114	2.335111	-0.000276
 860	8.5471e+01	5.7640	41.031429	0.000578	5.777213	1.957373	-0.000231
 861	8.5570e+01	5.7335	40.833609	0.000497	4.966376	1.682654	-0.000199
 862	8.5669e+01	5.6838	40.551010	0.000709	7.094823	2.403791	-0.000284
 863	8.5769e+01	5.6501	40.361265	0.000476	4.763667	1.613974	-0.000191
 864	8.5868e+01	5.6068	40.131148	0.000578	5.777213	1.957373	-0.000231
 865	8.5968e+01	5.5779	39.905068	0.000568	5.675858	1.923033	-0.000227
 866	8.6067e+01	5.5202	39.666877	0.000598	5.979922	2.026053	-0.000239
 867	8.6167e+01	5.4881	39.456946	0.000527	5.270440	1.785673	-0.000211
 868	8.6266e+01	5.4544	39.186458	0.000679	6.790759	2.300772	-0.000272
 869	8.6366e+01	5.4079	38.972490	0.000537	5.371795	1.820013	-0.000215
 870	8.6466e+01	5.3790	38.758522	0.000537	5.371795	1.820013	-0.000215
 871	8.6565e+01	5.3293	38.536479	0.000557	5.574504	1.888693	-0.000223
 872	8.6665e+01	5.2876	38.306362	0.000578	5.777213	1.957373	-0.000231
 873	8.6764e+01	5.2507	38.096431	0.000527	5.270440	1.785673	-0.000211
 874	8.6864e+01	5.2089	37.854203	0.000608	6.081277	2.060392	-0.000243
 875	8.6963e+01	5.1592	37.611975	0.000608	6.081277	2.060392	-0.000243
 876	8.7063e+01	5.1384	37.353598	0.000649	6.486695	2.197752	-0.000260
 877	8.7162e+01	5.0902	37.184039	0.000426	4.256894	1.442275	-0.000170
 878	8.7261e+01	5.0453	36.929699	0.000639	6.385341	2.163412	-0.000256
 879	8.7361e+01	5.0036	36.687471	0.000608	6.081277	2.060392	-0.000243
 880	8.7460e+01	4.9747	36.441206	0.000618	6.182632	2.094732	-0.000248
 881	8.7560e+01	4.9282	36.267609	0.000436	4.358248	1.476615	-0.000174
 882	8.7659e+01	4.8945	36.061715	0.000517	5.169085	1.751334	-0.000207
 883	8.7759e+01	4.8592	35.795264	0.000669	6.689405	2.266432	-0.000268
 884	8.7859e+01	4.8143	35.569184	0.000568	5.675858	1.923033	-0.000227
 885	8.7958e+01	4.7726	35.318882	0.000628	6.283986	2.129072	-0.000252
 886	8.8058e+01	4.7293	35.121062	0.000497	4.966376	1.682654	-0.000199
 887	8.8157e+01	4.6988	34.870760	0.000628	6.283986	2.129072	-0.000252
 888	8.8257e+01	4.6603	34.624495	0.000618	6.182632	2.094732	-0.000248
 889	8.8356e+01	4.6058	34.402452	0.000557	5.574504	1.888693	-0.000223
 890	8.8456e+01	4.5673	34.180410	0.000557	5.574504	1.888693	-0.000223
 891	8.8555e+01	4.5287	33.978553	0.000507	5.067731	1.716994	-0.000203
 892	8.8654e+01	4.5031	33.732288	0.000618	6.182632	2.094732	-0.000248
 893	8.8754e+01	4.4517	33.461800	0.000679	6.790759	2.300772	-0.000272
 894	8.8853e+01	4.4213	33.259943	0.000507	5.067731	1.716994	-0.000203
 895	8.8953e+01	4.3812	33.045975	0.000537	5.371795	1.820013	-0.000215
 896	8.9052e+01	4.3314	32.803746	0.000608	6.081277	2.060392	-0.000243
 897	8.9152e+01	4.2961	32.553444	0.000628	6.283986	2.129072	-0.000252
 898	8.9251e+01	4.2544	32.335439	0.000547	5.473149	1.854353	-0.000219
 899	8.9351e+01	4.2175	32.141656	0.000487	4.865022	1.648314	-0.000195
 900	8.9451e+01	4.1758	31.883279	0.000649	6.486695	2.197752	-0.000260
 901	8.9550e+01	4.1405	31.632977	0.000628	6.283986	2.129072	-0.000252
 902	8.9650e+01	4.0972	31.427083	0.000517	5.169085	1.751334	-0.000207
 903	8.9749e+01	4.0539	31.205041	0.000557	5.574504	1.888693	-0.000223
 904	8.9849e+01	4.0266	30.958775	0.000618	6.182632	2.094732	-0.000248
 905	8.9948e+01	3.9689	30.724622	0.000588	5.878568	1.991713	-0.000235
 906	9.0047e+01	3.9416	30.482393	0.000608	6.081277	2.060392	-0.000243
 907	9.0147e+01	3.8983	30.240165	0.000608	6.081277	2.060392	-0.000243
 908	9.0246e+01	3.8534	30.046383	0.000487	4.865022	1.648314	-0.000195
 909	9.0346e+01	3.8213	29.804155	0.000608	6.081277	2.060392	-0.000243
 910	9.0445e+01	3.7796	29.557889	0.000618	6.182632	2.094732	-0.000248
 911	9.0545e+01	3.7347	29.335847	0.000557	5.574504	1.888693	-0.000223
 912	9.0644e+01	3.6962	29.085544	0.000628	6.283986	2.129072	-0.000252
 913	9.0744e+01	3.6560	28.879651	0.000517	5.169085	1.751334	-0.000207
 914	9.0844e+01	3.6240	28.653571	0.000568	5.675858	1.923033	-0.000227
 915	9.0943e+01	3.5855	28.415380	0.000598	5.979922	2.026053	-0.000239
 916	9.1043e+01	3.5405	28.205449	0.000527	5.270440	1.785673	-0.000211
 917	9.1142e+01	3.4956	27.971295	0.000588	5.878568	1.991713	-0.000235
 918	9.1242e+01	3.4619	27.712918	0.000649	6.486695	2.197752	-0.000260
 919	9.1341e+01	3.4250	27.482802	0.000578	5.777213	1.957373	-0.000231
 920	9.1441e+01	3.3785	27.240573	0.000608	6.081277	2.060392	-0.000243
 921	9.1540e+01	3.3416	27.038717	0.000507	5.067731	1.716994	-0.000203
 922	9.1639e+01	3.3015	26.808600	0.000578	5.777213	1.957373	-0.000231
 923	9.1739e+01	3.2598	26.562335	0.000618	6.182632	2.094732	-0.000248
 924	9.1838e+01	3.2293	26.291846	0.000679	6.790759	2.300772	-0.000272
 925	9.1938e+01	3.1860	26.085953	0.000517	5.169085	1.751334	-0.000207
 926	9.2037e+01	3.1459	25.888133	0.000497	4.966376	1.682654	-0.000199
 927	9.2137e+01	3.1010	25.625719	0.000659	6.588050	2.232092	-0.000264
 928	9.2237e+01	3.0641	25.395602	0.000578	5.777213	1.957373	-0.000231
 929	9.2336e+01	3.0192	25.161448	0.000588	5.878568	1.991713	-0.000235
 930	9.2436e+01	2.9823	24.939406	0.000557	5.574504	1.888693	-0.000223
 931	9.2535e+01	2.9406	24.644695	0.000740	7.398887	2.506811	-0.000296
 932	9.2635e+01	2.9069	24.467061	0.000446	4.459603	1.510954	-0.000179
 933	9.2734e+01	2.8684	24.192536	0.000689	6.892114	2.335111	-0.000276
 934	9.2834e+01	2.8251	23.958382	0.000588	5.878568	1.991713	-0.000235
 935	9.2933e+01	2.7737	23.716154	0.000608	6.081277	2.060392	-0.000243
 936	9.3032e+01	2.7336	23.486037	0.000578	5.777213	1.957373	-0.000231
 937	9.3132e+01	2.7031	23.280143	0.000517	5.169085	1.751334	-0.000207
 938	9.3231e+01	2.6710	23.070212	0.000527	5.270440	1.785673	-0.000211
 939	9.3331e+01	2.6165	22.791650	0.000699	6.993468	2.369451	-0.000280
 940	9.3430e+01	2.5732	22.557496	0.000588	5.878568	1.991713	-0.000235
 941	9.3530e+01	2.5427	22.363713	0.000487	4.865022	1.648314	-0.000195
 942	9.3629e+01	2.5058	22.125522	0.000598	5.979922	2.026053	-0.000239
 943	9.3729e+01	2.4641	21.891369	0.000588	5.878568	1.991713	-0.000235
 944	9.3829e+01	2.4256	21.641066	0.000628	6.283986	2.129072	-0.000252
 945	9.3928e+01	2.3823	21.459395	0.000456	4.560958	1.545294	-0.000183
 946	9.4028e+01	2.3422	21.176796	0.000709	7.094823	2.403791	-0.000284
 947	9.4127e+01	2.2941	20.950716	0.000568	5.675858	1.923033	-0.000227
 948	9.4227e+01	2.2636	20.728673	0.000557	5.574504	1.888693	-0.000223
 949	9.4326e+01	2.2299	20.470297	0.000649	6.486695	2.197752	-0.000260
 950	9.4425e+01	2.1818	20.236143	0.000588	5.878568	1.991713	-0.000235
 951	9.4525e+01	2.1449	19.977766	0.000649	6.486695	2.197752	-0.000260
 952	9.4624e+01	2.1015	19.771872	0.000517	5.169085	1.751334	-0.000207
 953	9.4724e+01	2.0614	19.525607	0.000618	6.182632	2.094732	-0.000248
 954	9.4823e+01	2.0229	19.311639	0.000537	5.371795	1.820013	-0.000215
 955	9.4923e+01	1.9860	19.081522	0.000578	5.777213	1.957373	-0.000231
 956	9.5022e+01	1.9331	18.798923	0.000709	7.094823	2.403791	-0.000284
 957	9.5122e+01	1.9074	18.597066	0.000507	5.067731	1.716994	-0.000203
 958	9.5222e+01	1.8673	18.362912	0.000588	5.878568	1.991713	-0.000235
 959	9.5321e+01	1.8240	18.116647	0.000618	6.182632	2.094732	-0.000248
 960	9.5421e+01	1.7903	17.862307	0.000639	6.385341	2.163412	-0.000256
 961	9.5520e+01	1.7454	17.628153	0.000588	5.878568	1.991713	-0.000235
 962	9.5620e+01	1.7037	17.406111	0.000557	5.574504	1.888693	-0.000223
 963	9.5719e+01	1.6604	17.232514	0.000436	4.358248	1.476615	-0.000174
 964	9.5819e+01	1.6171	16.925692	0.000770	7.702951	2.609830	-0.000308
 965	9.5918e+01	1.5770	16.707686	0.000547	5.473149	1.854353	-0.000219
 966	9.6017e+01	1.5465	16.530052	0.000446	4.459603	1.510954	-0.000179
 967	9.6117e+01	1.5048	16.243416	0.000720	7.196178	2.438131	-0.000288
 968	9.6216e+01	1.4727	16.017336	0.000568	5.675858	1.923033	-0.000227
 969	9.6316e+01	1.4197	15.726662	0.000730	7.297532	2.472471	-0.000292
 970	9.6415e+01	1.3877	15.565177	0.000405	4.054185	1.373595	-0.000162
 971	9.6515e+01	1.3427	15.310837	0.000639	6.385341	2.163412	-0.000256
 972	9.6615e+01	1.2978	15.048423	0.000659	6.588050	2.232092	-0.000264
 973	9.6714e+01	1.2770	14.862715	0.000466	4.662312	1.579634	-0.000187
 974	9.6814e+01	1.2288	14.592227	0.000679	6.790759	2.300772	-0.000272
 975	9.6913e+01	1.1791	14.382296	0.000527	5.270440	1.785673	-0.000211
 976	9.7013e+01	1.1486	14.131994	0.000628	6.283986	2.129072	-0.000252
 977	9.7112e+01	1.1069	13.869580	0.000659	6.588050	2.232092	-0.000264
 978	9.7212e+01	1.0668	13.651574	0.000547	5.473149	1.854353	-0.000219
 979	9.7311e+01	1.0331	13.413383	0.000598	5.979922	2.026053	-0.000239
 980	9.7410e+01	0.9978	13.227675	0.000466	4.662312	1.579634	-0.000187
 981	9.7510e+01	0.9497	12.969299	0.000649	6.486695	2.197752	-0.000260
 982	9.7609e+01	0.9016	12.686699	0.000709	7.094823	2.403791	-0.000284
 983	9.7709e+01	0.8727	12.484842	0.000507	5.067731	1.716994	-0.000203
 984	9.7808e+01	0.8358	12.234540	0.000628	6.283986	2.129072	-0.000252
 985	9.7908e+01	0.7764	12.000386	0.000588	5.878568	1.991713	-0.000235
 986	9.8007e+01	0.7556	11.786418	0.000537	5.371795	1.820013	-0.000215
 987	9.8107e+01	0.7075	11.548227	0.000598	5.979922	2.026053	-0.000239
 988	9.8207e+01	0.6690	11.297924	0.000628	6.283986	2.129072	-0.000252
 989	9.8306e+01	0.6337	11.063770	0.000588	5.878568	1.991713	-0.000235
 990	9.8406e+01	0.5904	10.841728	0.000557	5.574504	1.888693	-0.000223
 991	9.8505e+01	0.5519	10.599500	0.000608	6.081277	2.060392	-0.000243
 992	9.8605e+01	0.5182	10.337086	0.000659	6.588050	2.232092	-0.000264
 993	9.8704e+01	0.4716	10.143304	0.000487	4.865022	1.648314	-0.000195
 994	9.8803e+01	0.4364	9.884927	0.000649	6.486695	2.197752	-0.000260
 995	9.8903e+01	0.3834	9.658847	0.000568	5.675858	1.923033	-0.000227
 996	9.9002e+01	0.3513	9.424693	0.000588	5.878568	1.991713	-0.000235
 997	9.9102e+01	0.3032	9.222837	0.000507	5.067731	1.716994	-0.000203
 998	9.9201e+01	0.2791	8.948311	0.000689	6.892114	2.335111	-0.000276
 999	9.9301e+01	0.2262	8.714157	0.000588	5.878568	1.991713	-0.000235
1000	9.9400e+01	0.1893	8.504226	0.000527	5.270440	1.785673	-0.000211
1001	9.9500e+01	0.1508	8.213553	0.000730	7.297532	2.472471	-0.000292
1002	9.9600e+01	0.1139	7.987473	0.000568	5.675858	1.923033	-0.000227
1003	9.9699e+01	0.0690	7.757356	0.000578	5.777213	1.957373	-0.000231
1004	9.9799e+01	0.0289	7.519165	0.000598	5.979922	2.026053	-0.000239
1005	9.9898e+01	0.0064	7.325383	0.000487	4.865022	1.648314	-0.000195
1006	9.9998e+01	-0.0417	7.107377	0.000547	5.473149	1.854353	-0.000219
1007	1.0010e+02	-0.0802	6.893409	0.000537	5.371795	1.820013	-0.000215
1008	1.0020e+02	-0.1283	6.635033	0.000649	6.486695	2.197752	-0.000260
1009	1.0030e+02	-0.1636	6.380693	0.000639	6.385341	2.163412	-0.000256
1010	1.0040e+02	-0.1957	6.162688	0.000547	5.473149	1.854353	-0.000219
1011	1.0050e+02	-0.2454	5.952757	0.000527	5.270440	1.785673	-0.000211
1012	1.0059e+02	-0.2823	5.718603	0.000588	5.878568	1.991713	-0.000235
1013	1.0069e+02	-0.3176	5.476375	0.000608	6.081277	2.060392	-0.000243
1014	1.0079e+02	-0.3626	5.266444	0.000527	5.270440	1.785673	-0.000211
1015	1.0089e+02	-0.3978	4.999993	0.000669	6.689405	2.266432	-0.000268
1016	1.0099e+02	-0.4428	4.790062	0.000527	5.270440	1.785673	-0.000211
1017	1.0109e+02	-0.4749	4.592242	0.000497	4.966376	1.682654	-0.000199
1018	1.0119e+02	-0.5182	4.329828	0.000659	6.588050	2.232092	-0.000264
1019	1.0129e+02	-0.5631	4.079526	0.000628	6.283986	2.129072	-0.000252
1020	1.0139e+02	-0.6032	3.881706	0.000497	4.966376	1.682654	-0.000199
1021	1.0149e+02	-0.6449	3.623329	0.000649	6.486695	2.197752	-0.000260
1022	1.0159e+02	-0.6834	3.401287	0.000557	5.574504	1.888693	-0.000223
1023	1.0169e+02	-0.7251	3.150984	0.000628	6.283986	2.129072	-0.000252
1024	1.0179e+02	-0.7604	2.932979	0.000547	5.473149	1.854353	-0.000219
1025	1.0189e+02	-0.7957	2.706900	0.000568	5.675858	1.923033	-0.000227
1026	1.0199e+02	-0.8454	2.468709	0.000598	5.979922	2.026053	-0.000239
1027	1.0209e+02	-0.8791	2.242629	0.000568	5.675858	1.923033	-0.000227
1028	1.0219e+02	-0.9192	2.004438	0.000598	5.979922	2.026053	-0.000239
1029	1.0229e+02	-0.9561	1.713764	0.000730	7.297532	2.472471	-0.000292
1030	1.0239e+02	-0.9946	1.519982	0.000487	4.865022	1.648314	-0.000195
1031	1.0248e+02	-1.0331	1.285828	0.000588	5.878568	1.991713	-0.000235
1032	1.0258e+02	-1.0796	1.051674	0.000588	5.878568	1.991713	-0.000235
1033	1.0268e+02	-1.1246	0.801371	0.000628	6.283986	2.129072	-0.000252
1034	1.0278e+02	-1.1615	0.607589	0.000487	4.865022	1.648314	-0.000195
1035	1.0288e+02	-1.2000	0.385546	0.000557	5.574504	1.888693	-0.000223
1036	1.0298e+02	-1.2337	0.159467	0.000568	5.675858	1.923033	-0.000227
1037	1.0308e+02	-1.2754	-0.090836	0.000628	6.283986	2.129072	-0.000252
1038	1.0318e+02	-1.3219	-0.329027	0.000598	5.979922	2.026053	-0.000239
1039	1.0328e+02	-1.3556	-0.559143	0.000578	5.777213	1.957373	-0.000231
1040	1.0338e+02	-1.3989	-0.809446	0.000628	6.283986	2.129072	-0.000252
1041	1.0348e+02	-1.4358	-1.043600	0.000588	5.878568	1.991713	-0.000235
1042	1.0358e+02	-1.4679	-1.265642	0.000557	5.574504	1.888693	-0.000223
1043	1.0368e+02	-1.5128	-1.451350	0.000466	4.662312	1.579634	-0.000187
1044	1.0378e+02	-1.5545	-1.721838	0.000679	6.790759	2.300772	-0.000272
1045	1.0388e+02	-1.5946	-1.955992	0.000588	5.878568	1.991713	-0.000235
1046	1.0398e+02	-1.6347	-2.222443	0.000669	6.689405	2.266432	-0.000268
1047	1.0408e+02	-1.6684	-2.408151	0.000466	4.662312	1.579634	-0.000187
1048	1.0418e+02	-1.7165	-2.650380	0.000608	6.081277	2.060392	-0.000243
1049	1.0428e+02	-1.7582	-2.896645	0.000618	6.182632	2.094732	-0.000248
1050	1.0438e+02	-1.7935	-3.102539	0.000517	5.169085	1.751334	-0.000207
1051	1.0447e+02	-1.8401	-3.348804	0.000618	6.182632	2.094732	-0.000248
1052	1.0457e+02	-1.8721	-3.550661	0.000507	5.067731	1.716994	-0.000203
1053	1.0467e+02	-1.9122	-3.829223	0.000699	6.993468	2.369451	-0.000280
1054	1.0477e+02	-1.9524	-4.059340	0.000578	5.777213	1.957373	-0.000231
1055	1.0487e+02	-1.9860	-4.293494	0.000588	5.878568	1.991713	-0.000235
1056	1.0497e+02	-2.0358	-4.523611	0.000578	5.777213	1.957373	-0.000231
1057	1.0507e+02	-2.0743	-4.741616	0.000547	5.473149	1.854353	-0.000219
1058	1.0517e+02	-2.1064	-4.959621	0.000547	5.473149	1.854353	-0.000219
1059	1.0527e+02	-2.1545	-5.217998	0.000649	6.486695	2.197752	-0.000260
1060	1.0537e+02	-2.1962	-5.480412	0.000659	6.588050	2.232092	-0.000264
1061	1.0547e+02	-2.2267	-5.690343	0.000527	5.270440	1.785673	-0.000211
1062	1.0557e+02	-2.2828	-5.912385	0.000557	5.574504	1.888693	-0.000223
1063	1.0567e+02	-2.3181	-6.150576	0.000598	5.979922	2.026053	-0.000239
1064	1.0577e+02	-2.3502	-6.396842	0.000618	6.182632	2.094732	-0.000248
1065	1.0587e+02	-2.3935	-6.598698	0.000507	5.067731	1.716994	-0.000203
1066	1.0597e+02	-2.4320	-6.836889	0.000598	5.979922	2.026053	-0.000239
1067	1.0607e+02	-2.4785	-7.058932	0.000557	5.574504	1.888693	-0.000223
1068	1.0617e+02	-2.5219	-7.301160	0.000608	6.081277	2.060392	-0.000243
1069	1.0627e+02	-2.5539	-7.527240	0.000568	5.675858	1.923033	-0.000227
1070	1.0637e+02	-2.5860	-7.753319	0.000568	5.675858	1.923033	-0.000227
1071	1.0647e+02	-2.6309	-8.027844	0.000689	6.892114	2.335111	-0.000276
1072	1.0656e+02	-2.6710	-8.237775	0.000527	5.270440	1.785673	-0.000211
1073	1.0666e+02	-2.7128	-8.423484	0.000466	4.662312	1.579634	-0.000187
1074	1.0676e+02	-2.7545	-8.661675	0.000598	5.979922	2.026053	-0.000239
1075	1.0686e+02	-2.7849	-8.932163	0.000679	6.790759	2.300772	-0.000272
1076	1.0696e+02	-2.8299	-9.146131	0.000537	5.371795	1.820013	-0.000215
1077	1.0706e+02	-2.8668	-9.347988	0.000507	5.067731	1.716994	-0.000203
1078	1.0716e+02	-2.9005	-9.570030	0.000557	5.574504	1.888693	-0.000223
1079	1.0726e+02	-2.9518	-9.832444	0.000659	6.588050	2.232092	-0.000264
1080	1.0736e+02	-2.9839	-10.038338	0.000517	5.169085	1.751334	-0.000207
1081	1.0746e+02	-3.0304	-10.320938	0.000709	7.094823	2.403791	-0.000284
1082	1.0756e+02	-3.0577	-10.530869	0.000527	5.270440	1.785673	-0.000211
1083	1.0766e+02	-3.1138	-10.736762	0.000517	5.169085	1.751334	-0.000207
1084	1.0776e+02	-3.1427	-10.966879	0.000578	5.777213	1.957373	-0.000231
1085	1.0786e+02	-3.1860	-11.188922	0.000557	5.574504	1.888693	-0.000223
1086	1.0796e+02	-3.2293	-11.455373	0.000669	6.689405	2.266432	-0.000268
1087	1.0806e+02	-3.2726	-11.677415	0.000557	5.574504	1.888693	-0.000223
1088	1.0816e+02	-3.2999	-11.907532	0.000578	5.777213	1.957373	-0.000231
1089	1.0826e+02	-3.3432	-12.125537	0.000547	5.473149	1.854353	-0.000219
1090	1.0836e+02	-3.3817	-12.331431	0.000517	5.169085	1.751334	-0.000207
1091	1.0845e+02	-3.4282	-12.541362	0.000527	5.270440	1.785673	-0.000211
1092	1.0855e+02	-3.4635	-12.775516	0.000588	5.878568	1.991713	-0.000235
1093	1.0865e+02	-3.5085	-13.041967	0.000669	6.689405	2.266432	-0.000268
1094	1.0875e+02	-3.5470	-13.223638	0.000456	4.560958	1.545294	-0.000183
1095	1.0885e+02	-3.5903	-13.469903	0.000618	6.182632	2.094732	-0.000248
1096	1.0895e+02	-3.6288	-13.716169	0.000618	6.182632	2.094732	-0.000248
1097	1.0905e+02	-3.6625	-13.946285	0.000578	5.777213	1.957373	-0.000231
1098	1.0915e+02	-3.6962	-14.224848	0.000699	6.993468	2.369451	-0.000280
1099	1.0925e+02	-3.7459	-14.402482	0.000446	4.459603	1.510954	-0.000179
1100	1.0935e+02	-3.7876	-14.656821	0.000639	6.385341	2.163412	-0.000256
1101	1.0945e+02	-3.8341	-14.846567	0.000476	4.763667	1.613974	-0.000191
1102	1.0955e+02	-3.8646	-15.129166	0.000709	7.094823	2.403791	-0.000284
1103	1.0965e+02	-3.9079	-15.335060	0.000517	5.169085	1.751334	-0.000207
1104	1.0975e+02	-3.9560	-15.573251	0.000598	5.979922	2.026053	-0.000239
1105	1.0985e+02	-3.9929	-15.771071	0.000497	4.966376	1.682654	-0.000199
1106	1.0995e+02	-4.0362	-16.045596	0.000689	6.892114	2.335111	-0.000276
1107	1.1005e+02	-4.0635	-16.263601	0.000547	5.473149	1.854353	-0.000219
1108	1.1015e+02	-4.1133	-16.429124	0.000416	4.155539	1.407935	-0.000166
1109	1.1025e+02	-4.1357	-16.687501	0.000649	6.486695	2.197752	-0.000260
1110	1.1035e+02	-4.1903	-16.941840	0.000639	6.385341	2.163412	-0.000256
1111	1.1044e+02	-4.2239	-17.147734	0.000517	5.169085	1.751334	-0.000207
1112	1.1054e+02	-4.2673	-17.393999	0.000618	6.182632	2.094732	-0.000248
1113	1.1064e+02	-4.3058	-17.603930	0.000527	5.270440	1.785673	-0.000211
1114	1.1074e+02	-4.3411	-17.866344	0.000659	6.588050	2.232092	-0.000264
1115	1.1084e+02	-4.3780	-18.052052	0.000466	4.662312	1.579634	-0.000187
1116	1.1094e+02	-4.4148	-18.282169	0.000578	5.777213	1.957373	-0.000231
1117	1.1104e+02	-4.4598	-18.504212	0.000557	5.574504	1.888693	-0.000223
1118	1.1114e+02	-4.5031	-18.734328	0.000578	5.777213	1.957373	-0.000231
1119	1.1124e+02	-4.5336	-18.976557	0.000608	6.081277	2.060392	-0.000243
1120	1.1134e+02	-4.5849	-19.186488	0.000527	5.270440	1.785673	-0.000211
1121	1.1144e+02	-4.6234	-19.432753	0.000618	6.182632	2.094732	-0.000248
1122	1.1154e+02	-4.6699	-19.654795	0.000557	5.574504	1.888693	-0.000223
1123	1.1164e+02	-4.7084	-19.901061	0.000618	6.182632	2.094732	-0.000248
1124	1.1174e+02	-4.7453	-20.090806	0.000476	4.763667	1.613974	-0.000191
1125	1.1184e+02	-4.7838	-20.284589	0.000487	4.865022	1.648314	-0.000195
1126	1.1194e+02	-4.8303	-20.579299	0.000740	7.398887	2.506811	-0.000296
1127	1.1204e+02	-4.8624	-20.756933	0.000446	4.459603	1.510954	-0.000179
1128	1.1214e+02	-4.9057	-20.978976	0.000557	5.574504	1.888693	-0.000223
1129	1.1224e+02	-4.9491	-21.205055	0.000568	5.675858	1.923033	-0.000227
1130	1.1234e+02	-4.9924	-21.435172	0.000578	5.777213	1.957373	-0.000231
1131	1.1244e+02	-5.0212	-21.673363	0.000598	5.979922	2.026053	-0.000239
1132	1.1253e+02	-5.0694	-21.891369	0.000547	5.473149	1.854353	-0.000219
1133	1.1263e+02	-5.0999	-22.105337	0.000537	5.371795	1.820013	-0.000215
1134	1.1273e+02	-5.1448	-22.327379	0.000557	5.574504	1.888693	-0.000223
1135	1.1283e+02	-5.1817	-22.589793	0.000659	6.588050	2.232092	-0.000264
1136	1.1293e+02	-5.2234	-22.779538	0.000476	4.763667	1.613974	-0.000191
1137	1.1303e+02	-5.2619	-23.001581	0.000557	5.574504	1.888693	-0.000223
1138	1.1313e+02	-5.3004	-23.223623	0.000557	5.574504	1.888693	-0.000223
1139	1.1323e+02	-5.3421	-23.477963	0.000639	6.385341	2.163412	-0.000256
1140	1.1333e+02	-5.3742	-23.712117	0.000588	5.878568	1.991713	-0.000235
1141	1.1343e+02	-5.4239	-23.926085	0.000537	5.371795	1.820013	-0.000215
1142	1.1353e+02	-5.4656	-24.099682	0.000436	4.358248	1.476615	-0.000174
1143	1.1363e+02	-5.5057	-24.349984	0.000628	6.283986	2.129072	-0.000252
1144	1.1373e+02	-5.5330	-24.567990	0.000547	5.473149	1.854353	-0.000219
1145	1.1383e+02	-5.5779	-24.761772	0.000487	4.865022	1.648314	-0.000195
1146	1.1393e+02	-5.6148	-24.975740	0.000537	5.371795	1.820013	-0.000215
1147	1.1403e+02	-5.6597	-25.270451	0.000740	7.398887	2.506811	-0.000296
1148	1.1413e+02	-5.7030	-25.460197	0.000476	4.763667	1.613974	-0.000191
1149	1.1423e+02	-5.7319	-25.698388	0.000598	5.979922	2.026053	-0.000239
1150	1.1433e+02	-5.7736	-25.900244	0.000507	5.067731	1.716994	-0.000203
1151	1.1442e+02	-5.8202	-26.110175	0.000527	5.270440	1.785673	-0.000211
1152	1.1452e+02	-5.8571	-26.320106	0.000527	5.270440	1.785673	-0.000211
1153	1.1462e+02	-5.9068	-26.526000	0.000517	5.169085	1.751334	-0.000207
1154	1.1472e+02	-5.9421	-26.828786	0.000760	7.601596	2.575490	-0.000304
1155	1.1482e+02	-5.9822	-27.050828	0.000557	5.574504	1.888693	-0.000223
1156	1.1492e+02	-6.0239	-27.212313	0.000405	4.054185	1.373595	-0.000162
1157	1.1502e+02	-6.0640	-27.486839	0.000689	6.892114	2.335111	-0.000276
1158	1.1512e+02	-6.1025	-27.652361	0.000416	4.155539	1.407935	-0.000166
1159	1.1522e+02	-6.1330	-27.878441	0.000568	5.675858	1.923033	-0.000227
1160	1.1532e+02	-6.1747	-28.112595	0.000588	5.878568	1.991713	-0.000235
1161	1.1542e+02	-6.2164	-28.334637	0.000557	5.574504	1.888693	-0.000223
1162	1.1552e+02	-6.2565	-28.576865	0.000608	6.081277	2.060392	-0.000243
1163	1.1562e+02	-6.2934	-28.778722	0.000507	5.067731	1.716994	-0.000203
1164	1.1572e+02	-6.3383	-29.029025	0.000628	6.283986	2.129072	-0.000252
1165	1.1582e+02	-6.3736	-29.255104	0.000568	5.675858	1.923033	-0.000227
1166	1.1592e+02	-6.4169	-29.465035	0.000527	5.270440	1.785673	-0.000211
1167	1.1602e+02	-6.4474	-29.654781	0.000476	4.763667	1.613974	-0.000191
1168	1.1612e+02	-6.4955	-29.860674	0.000517	5.169085	1.751334	-0.000207
1169	1.1622e+02	-6.5260	-30.082717	0.000557	5.574504	1.888693	-0.000223
1170	1.1632e+02	-6.5822	-30.333019	0.000628	6.283986	2.129072	-0.000252
1171	1.1642e+02	-6.6110	-30.490468	0.000395	3.952830	1.339255	-0.000158
1172	1.1651e+02	-6.6576	-30.700399	0.000527	5.270440	1.785673	-0.000211
1173	1.1661e+02	-6.6880	-30.946664	0.000618	6.182632	2.094732	-0.000248
1174	1.1671e+02	-6.7265	-31.168706	0.000557	5.574504	1.888693	-0.000223
1175	1.1681e+02	-6.7683	-31.419009	0.000628	6.283986	2.129072	-0.000252
1176	1.1691e+02	-6.8132	-31.632977	0.000537	5.371795	1.820013	-0.000215
1177	1.1701e+02	-6.8549	-31.838871	0.000517	5.169085	1.751334	-0.000207
1178	1.1711e+02	-6.8982	-32.073025	0.000588	5.878568	1.991713	-0.000235
1179	1.1721e+02	-6.9319	-32.286993	0.000537	5.371795	1.820013	-0.000215
1180	1.1731e+02	-6.9704	-32.513073	0.000568	5.675858	1.923033	-0.000227
1181	1.1741e+02	-7.0057	-32.682632	0.000426	4.256894	1.442275	-0.000170
1182	1.1751e+02	-7.0522	-32.888526	0.000517	5.169085	1.751334	-0.000207
1183	1.1761e+02	-7.0955	-33.106532	0.000547	5.473149	1.854353	-0.000219
1184	1.1771e+02	-7.1372	-33.332611	0.000568	5.675858	1.923033	-0.000227
1185	1.1781e+02	-7.1709	-33.538505	0.000517	5.169085	1.751334	-0.000207
1186	1.1791e+02	-7.2094	-33.752473	0.000537	5.371795	1.820013	-0.000215
1187	1.1801e+02	-7.2511	-33.950293	0.000497	4.966376	1.682654	-0.000199
1188	1.1811e+02	-7.2961	-34.204633	0.000639	6.385341	2.163412	-0.000256
1189	1.1821e+02	-7.3378	-34.422638	0.000547	5.473149	1.854353	-0.000219
1190	1.1831e+02	-7.3666	-34.640643	0.000547	5.473149	1.854353	-0.000219
1191	1.1841e+02	-7.4083	-34.858649	0.000547	5.473149	1.854353	-0.000219
1192	1.1850e+02	-7.4501	-35.056468	0.000497	4.966376	1.682654	-0.000199
1193	1.1860e+02	-7.4966	-35.262362	0.000517	5.169085	1.751334	-0.000207
1194	1.1870e+02	-7.5335	-35.488442	0.000568	5.675858	1.923033	-0.000227
1195	1.1880e+02	-7.5768	-35.718558	0.000578	5.777213	1.957373	-0.000231
1196	1.1890e+02	-7.6041	-35.932527	0.000537	5.371795	1.820013	-0.000215
1197	1.1900e+02	-7.6474	-36.134383	0.000507	5.067731	1.716994	-0.000203
1198	1.1910e+02	-7.6891	-36.328166	0.000487	4.865022	1.648314	-0.000195
1199	1.1920e+02	-7.7292	-36.562320	0.000588	5.878568	1.991713	-0.000235
1200	1.1930e+02	-7.7645	-36.748028	0.000466	4.662312	1.579634	-0.000187
1201	1.1940e+02	-7.8094	-36.990256	0.000608	6.081277	2.060392	-0.000243
1202	1.1950e+02	-7.8447	-37.200187	0.000527	5.270440	1.785673	-0.000211
1203	1.1960e+02	-7.8816	-37.422230	0.000557	5.574504	1.888693	-0.000223
1204	1.1970e+02	-7.9329	-37.591789	0.000426	4.256894	1.442275	-0.000170
1205	1.1980e+02	-7.9778	-37.858240	0.000669	6.689405	2.266432	-0.000268
1206	1.1990e+02	-8.0099	-38.027800	0.000426	4.256894	1.442275	-0.000170
1207	1.2000e+02	-8.0468	-38.233694	0.000517	5.169085	1.751334	-0.000207
1208	1.2010e+02	-8.0869	-38.516294	0.000709	7.094823	2.403791	-0.000284
1209	1.2020e+02	-8.1254	-38.677779	0.000405	4.054185	1.373595	-0.000162
1210	1.2030e+02	-8.1736	-38.863487	0.000466	4.662312	1.579634	-0.000187
1211	1.2039e+02	-8.2089	-39.089567	0.000568	5.675858	1.923033	-0.000227
1212	1.2049e+02	-8.2490	-39.307572	0.000547	5.473149	1.854353	-0.000219
1213	1.2059e+02	-8.2859	-39.521540	0.000537	5.371795	1.820013	-0.000215
1214	1.2069e+02	-8.3436	-39.739546	0.000547	5.473149	1.854353	-0.000219
1215	1.2079e+02	-8.3597	-39.957551	0.000547	5.473149	1.854353	-0.000219
1216	1.2089e+02	-8.4078	-40.199779	0.000608	6.081277	2.060392	-0.000243
1217	1.2099e+02	-8.4447	-40.357227	0.000395	3.952830	1.339255	-0.000158
1218	1.2109e+02	-8.4928	-40.591381	0.000588	5.878568	1.991713	-0.000235
1219	1.2119e+02	-8.5249	-40.821498	0.000578	5.777213	1.957373	-0.000231
1220	1.2129e+02	-8.5538	-40.987021	0.000416	4.155539	1.407935	-0.000166
1221	1.2139e+02	-8.6003	-41.213100	0.000568	5.675858	1.923033	-0.000227
1222	1.2149e+02	-8.6580	-41.435143	0.000557	5.574504	1.888693	-0.000223
1223	1.2159e+02	-8.6821	-41.645074	0.000527	5.270440	1.785673	-0.000211
1224	1.2169e+02	-8.7238	-41.842893	0.000497	4.966376	1.682654	-0.000199
1225	1.2179e+02	-8.7591	-42.048787	0.000517	5.169085	1.751334	-0.000207
1226	1.2189e+02	-8.8072	-42.246607	0.000497	4.966376	1.682654	-0.000199
1227	1.2199e+02	-8.8473	-42.488835	0.000608	6.081277	2.060392	-0.000243
1228	1.2209e+02	-8.8858	-42.702803	0.000537	5.371795	1.820013	-0.000215
1229	1.2219e+02	-8.9243	-42.860252	0.000395	3.952830	1.339255	-0.000158
1230	1.2229e+02	-8.9548	-43.082294	0.000557	5.574504	1.888693	-0.000223
1231	1.2239e+02	-9.0046	-43.296262	0.000537	5.371795	1.820013	-0.000215
1232	1.2248e+02	-9.0415	-43.526379	0.000578	5.777213	1.957373	-0.000231
1233	1.2258e+02	-9.0832	-43.752459	0.000568	5.675858	1.923033	-0.000227
1234	1.2268e+02	-9.1233	-43.966427	0.000537	5.371795	1.820013	-0.000215
1235	1.2278e+02	-9.1682	-44.119838	0.000385	3.851475	1.304915	-0.000154
1236	1.2288e+02	-9.2019	-44.374177	0.000639	6.385341	2.163412	-0.000256
1237	1.2298e+02	-9.2564	-44.584109	0.000527	5.270440	1.785673	-0.000211
1238	1.2308e+02	-9.2869	-44.790002	0.000517	5.169085	1.751334	-0.000207
1239	1.2318e+02	-9.3206	-44.987822	0.000497	4.966376	1.682654	-0.000199
1240	1.2328e+02	-9.3591	-45.197753	0.000527	5.270440	1.785673	-0.000211
1241	1.2338e+02	-9.4024	-45.415758	0.000547	5.473149	1.854353	-0.000219
1242	1.2348e+02	-9.4425	-45.625690	0.000527	5.270440	1.785673	-0.000211
1243	1.2358e+02	-9.4778	-45.851769	0.000568	5.675858	1.923033	-0.000227
1244	1.2368e+02	-9.5147	-46.013255	0.000405	4.054185	1.373595	-0.000162
1245	1.2378e+02	-9.5628	-46.198963	0.000466	4.662312	1.579634	-0.000187
1246	1.2388e+02	-9.6029	-46.445228	0.000618	6.182632	2.094732	-0.000248
1247	1.2398e+02	-9.6398	-46.659196	0.000537	5.371795	1.820013	-0.000215
1248	1.2408e+02	-9.6896	-46.840867	0.000456	4.560958	1.545294	-0.000183
1249	1.2418e+02	-9.7136	-47.058873	0.000547	5.473149	1.854353	-0.000219
1250	1.2428e+02	-9.7650	-47.260730	0.000507	5.067731	1.716994	-0.000203
1251	1.2438e+02	-9.8099	-47.486809	0.000568	5.675858	1.923033	-0.000227
1252	1.2447e+02	-9.8468	-47.672517	0.000466	4.662312	1.579634	-0.000187
1253	1.2457e+02	-9.8837	-47.854188	0.000456	4.560958	1.545294	-0.000183
1254	1.2467e+02	-9.9222	-48.068157	0.000537	5.371795	1.820013	-0.000215
1255	1.2477e+02	-9.9559	-48.298273	0.000578	5.777213	1.957373	-0.000231
1256	1.2487e+02	-9.9992	-48.496093	0.000497	4.966376	1.682654	-0.000199
1257	1.2497e+02	-10.0457	-48.669690	0.000436	4.358248	1.476615	-0.000174
1258	1.2507e+02	-10.0714	-48.895769	0.000568	5.675858	1.923033	-0.000227
1259	1.2517e+02	-10.1227	-49.101663	0.000517	5.169085	1.751334	-0.000207
1260	1.2527e+02	-10.1596	-49.319669	0.000547	5.473149	1.854353	-0.000219
1261	1.2537e+02	-10.2029	-49.477117	0.000395	3.952830	1.339255	-0.000158
1262	1.2547e+02	-10.2318	-49.691085	0.000537	5.371795	1.820013	-0.000215
1263	1.2557e+02	-10.2751	-49.905053	0.000537	5.371795	1.820013	-0.000215
1264	1.2567e+02	-10.3264	-50.147282	0.000608	6.081277	2.060392	-0.000243
1265	1.2577e+02	-10.3585	-50.337027	0.000476	4.763667	1.613974	-0.000191
1266	1.2587e+02	-10.3890	-50.538884	0.000507	5.067731	1.716994	-0.000203
1267	1.2597e+02	-10.4420	-50.740741	0.000507	5.067731	1.716994	-0.000203
1268	1.2607e+02	-10.4805	-50.946634	0.000517	5.169085	1.751334	-0.000207
1269	1.2617e+02	-10.5190	-51.192900	0.000618	6.182632	2.094732	-0.000248
1270	1.2627e+02	-10.5510	-51.390719	0.000497	4.966376	1.682654	-0.000199
1271	1.2636e+02	-10.6008	-51.576428	0.000466	4.662312	1.579634	-0.000187
1272	1.2646e+02	-10.6329	-51.766173	0.000476	4.763667	1.613974	-0.000191
1273	1.2656e+02	-10.6842	-52.012438	0.000618	6.182632	2.094732	-0.000248
1274	1.2666e+02	-10.7115	-52.190072	0.000446	4.459603	1.510954	-0.000179
1275	1.2676e+02	-10.7548	-52.383855	0.000487	4.865022	1.648314	-0.000195
1276	1.2686e+02	-10.7981	-52.589749	0.000517	5.169085	1.751334	-0.000207
1277	1.2696e+02	-10.8350	-52.803717	0.000537	5.371795	1.820013	-0.000215
1278	1.2706e+02	-10.8767	-53.001537	0.000497	4.966376	1.682654	-0.000199
1279	1.2716e+02	-10.9216	-53.195319	0.000487	4.865022	1.648314	-0.000195
1280	1.2726e+02	-10.9553	-53.401213	0.000517	5.169085	1.751334	-0.000207
1281	1.2736e+02	-10.9922	-53.607107	0.000517	5.169085	1.751334	-0.000207
1282	1.2746e+02	-11.0516	-53.817038	0.000527	5.270440	1.785673	-0.000211
1283	1.2756e+02	-11.0772	-53.998709	0.000456	4.560958	1.545294	-0.000183
1284	1.2766e+02	-11.1173	-54.200566	0.000507	5.067731	1.716994	-0.000203
1285	1.2776e+02	-11.1590	-54.414534	0.000537	5.371795	1.820013	-0.000215
1286	1.2786e+02	-11.2024	-54.616391	0.000507	5.067731	1.716994	-0.000203
1287	1.2796e+02	-11.2425	-54.798062	0.000456	4.560958	1.545294	-0.000183
1288	1.2806e+02	-11.2810	-55.012030	0.000537	5.371795	1.820013	-0.000215
1289	1.2816e+02	-11.3179	-55.201776	0.000476	4.763667	1.613974	-0.000191
1290	1.2826e+02	-11.3483	-55.423818	0.000557	5.574504	1.888693	-0.000223
1291	1.2835e+02	-11.3901	-55.613563	0.000476	4.763667	1.613974	-0.000191
1292	1.2845e+02	-11.4382	-55.867903	0.000639	6.385341	2.163412	-0.000256
1293	1.2855e+02	-11.4735	-55.989017	0.000304	3.040638	1.030196	-0.000122
1294	1.2865e+02	-11.5152	-56.231245	0.000608	6.081277	2.060392	-0.000243
1295	1.2875e+02	-11.5617	-56.392731	0.000405	4.054185	1.373595	-0.000162
1296	1.2885e+02	-11.5954	-56.578439	0.000466	4.662312	1.579634	-0.000187
1297	1.2895e+02	-11.6435	-56.816630	0.000598	5.979922	2.026053	-0.000239
1298	1.2905e+02	-11.6724	-57.038672	0.000557	5.574504	1.888693	-0.000223
1299	1.2915e+02	-11.7077	-57.220343	0.000456	4.560958	1.545294	-0.000183
1300	1.2925e+02	-11.7510	-57.438349	0.000547	5.473149	1.854353	-0.000219
1301	1.2935e+02	-11.7879	-57.611946	0.000436	4.358248	1.476615	-0.000174
1302	1.2945e+02	-11.8376	-57.805728	0.000487	4.865022	1.648314	-0.000195
1303	1.2955e+02	-11.8729	-58.043919	0.000598	5.979922	2.026053	-0.000239
1304	1.2965e+02	-11.9162	-58.185219	0.000355	3.547412	1.201896	-0.000142
1305	1.2975e+02	-11.9596	-58.391113	0.000517	5.169085	1.751334	-0.000207
1306	1.2985e+02	-11.9916	-58.592970	0.000507	5.067731	1.716994	-0.000203
1307	1.2995e+02	-12.0317	-58.802901	0.000527	5.270440	1.785673	-0.000211
1308	1.3005e+02	-12.0751	-59.024943	0.000557	5.574504	1.888693	-0.000223
1309	1.3015e+02	-12.1184	-59.206614	0.000456	4.560958	1.545294	-0.000183
1310	1.3025e+02	-12.1489	-59.404434	0.000497	4.966376	1.682654	-0.000199
1311	1.3034e+02	-12.1922	-59.618402	0.000537	5.371795	1.820013	-0.000215
1312	1.3044e+02	-12.2355	-59.796036	0.000446	4.459603	1.510954	-0.000179
1313	1.3054e+02	-12.2836	-59.997893	0.000507	5.067731	1.716994	-0.000203
1314	1.3064e+02	-12.3045	-60.171490	0.000436	4.358248	1.476615	-0.000174
1315	1.3074e+02	-12.3542	-60.401606	0.000578	5.777213	1.957373	-0.000231
1316	1.3084e+02	-12.3863	-60.583277	0.000456	4.560958	1.545294	-0.000183
1317	1.3094e+02	-12.4344	-60.785134	0.000507	5.067731	1.716994	-0.000203
1318	1.3104e+02	-12.4745	-61.003140	0.000547	5.473149	1.854353	-0.000219
1319	1.3114e+02	-12.5130	-61.168662	0.000416	4.155539	1.407935	-0.000166
1320	1.3124e+02	-12.5531	-61.378593	0.000527	5.270440	1.785673	-0.000211
1321	1.3134e+02	-12.5836	-61.576413	0.000497	4.966376	1.682654	-0.000199
1322	1.3144e+02	-12.6333	-61.794418	0.000547	5.473149	1.854353	-0.000219
1323	1.3154e+02	-12.6750	-61.927644	0.000334	3.344702	1.133216	-0.000134
1324	1.3164e+02	-12.7087	-62.190057	0.000659	6.588050	2.232092	-0.000264
1325	1.3174e+02	-12.7504	-62.351543	0.000405	4.054185	1.373595	-0.000162
1326	1.3184e+02	-12.7922	-62.589734	0.000598	5.979922	2.026053	-0.000239
1327	1.3194e+02	-12.8258	-62.771405	0.000456	4.560958	1.545294	-0.000183
1328	1.3204e+02	-12.8724	-62.965188	0.000487	4.865022	1.648314	-0.000195
1329	1.3214e+02	-12.9044	-63.126673	0.000405	4.054185	1.373595	-0.000162
1330	1.3224e+02	-12.9558	-63.320455	0.000487	4.865022	1.648314	-0.000195
1331	1.3234e+02	-12.9734	-63.534424	0.000537	5.371795	1.820013	-0.000215
1332	1.3243e+02	-13.0232	-63.712058	0.000446	4.459603	1.510954	-0.000179
1333	1.3253e+02	-13.0665	-63.954286	0.000608	6.081277	2.060392	-0.000243
1334	1.3263e+02	-13.1114	-64.139994	0.000466	4.662312	1.579634	-0.000187
1335	1.3273e+02	-13.1483	-64.305517	0.000416	4.155539	1.407935	-0.000166
1336	1.3283e+02	-13.1772	-64.511411	0.000517	5.169085	1.751334	-0.000207
1337	1.3293e+02	-13.2237	-64.717304	0.000517	5.169085	1.751334	-0.000207
1338	1.3303e+02	-13.2654	-64.858604	0.000355	3.547412	1.201896	-0.000142
1339	1.3313e+02	-13.3071	-65.104869	0.000618	6.182632	2.094732	-0.000248
1340	1.3323e+02	-13.3440	-65.314801	0.000527	5.270440	1.785673	-0.000211
1341	1.3333e+02	-13.3937	-65.500509	0.000466	4.662312	1.579634	-0.000187
1342	1.3343e+02	-13.4258	-65.694291	0.000487	4.865022	1.648314	-0.000195
1343	1.3353e+02	-13.4611	-65.924408	0.000578	5.777213	1.957373	-0.000231
1344	1.3363e+02	-13.4996	-66.049559	0.000314	3.141993	1.064536	-0.000126
1345	1.3373e+02	-13.5413	-66.275639	0.000568	5.675858	1.923033	-0.000227
1346	1.3383e+02	-13.5879	-66.449236	0.000436	4.358248	1.476615	-0.000174
1347	1.3393e+02	-13.6247	-66.647055	0.000497	4.966376	1.682654	-0.000199
1348	1.3403e+02	-13.6713	-66.865061	0.000547	5.473149	1.854353	-0.000219
1349	1.3413e+02	-13.7114	-67.046732	0.000456	4.560958	1.545294	-0.000183
1350	1.3423e+02	-13.7354	-67.236477	0.000476	4.763667	1.613974	-0.000191
1351	1.3432e+02	-13.7755	-67.426223	0.000476	4.763667	1.613974	-0.000191
1352	1.3442e+02	-13.8221	-67.636154	0.000527	5.270440	1.785673	-0.000211
1353	1.3452e+02	-13.8654	-67.773416	0.000345	3.446057	1.167556	-0.000138
1354	1.3462e+02	-13.9039	-68.011607	0.000598	5.979922	2.026053	-0.000239
1355	1.3472e+02	-13.9456	-68.177130	0.000416	4.155539	1.407935	-0.000166
1356	1.3482e+02	-13.9841	-68.366875	0.000476	4.763667	1.613974	-0.000191
1357	1.3492e+02	-14.0194	-68.580843	0.000537	5.371795	1.820013	-0.000215
1358	1.3502e+02	-14.0643	-68.758477	0.000446	4.459603	1.510954	-0.000179
1359	1.3512e+02	-14.1028	-68.940148	0.000456	4.560958	1.545294	-0.000183
1360	1.3522e+02	-14.1445	-69.129894	0.000476	4.763667	1.613974	-0.000191
1361	1.3532e+02	-14.1862	-69.307528	0.000446	4.459603	1.510954	-0.000179
1362	1.3542e+02	-14.2279	-69.565904	0.000649	6.486695	2.197752	-0.000260
1363	1.3552e+02	-14.2584	-69.739501	0.000436	4.358248	1.476615	-0.000174
1364	1.3562e+02	-14.3065	-69.872727	0.000334	3.344702	1.133216	-0.000134
1365	1.3572e+02	-14.3467	-70.127066	0.000639	6.385341	2.163412	-0.000256
1366	1.3582e+02	-14.3787	-70.304700	0.000446	4.459603	1.510954	-0.000179
1367	1.3592e+02	-14.4269	-70.506557	0.000507	5.067731	1.716994	-0.000203
1368	1.3602e+02	-14.4654	-70.716488	0.000527	5.270440	1.785673	-0.000211
1369	1.3612e+02	-14.5007	-70.886048	0.000426	4.256894	1.442275	-0.000170
1370	1.3622e+02	-14.5440	-71.055608	0.000426	4.256894	1.442275	-0.000170
1371	1.3631e+02	-14.5825	-71.225167	0.000426	4.256894	1.442275	-0.000170
1372	1.3641e+02	-14.6210	-71.439135	0.000537	5.371795	1.820013	-0.000215
1373	1.3651e+02	-14.6659	-71.649067	0.000527	5.270440	1.785673	-0.000211
1374	1.3661e+02	-14.7012	-71.834775	0.000466	4.662312	1.579634	-0.000187
1375	1.3671e+02	-14.7413	-72.032594	0.000497	4.966376	1.682654	-0.000199
1376	1.3681e+02	-14.7846	-72.250600	0.000547	5.473149	1.854353	-0.000219
1377	1.3691e+02	-14.8183	-72.420159	0.000426	4.256894	1.442275	-0.000170
1378	1.3701e+02	-14.8680	-72.613942	0.000487	4.865022	1.648314	-0.000195
1379	1.3711e+02	-14.8921	-72.815799	0.000507	5.067731	1.716994	-0.000203
1380	1.3721e+02	-14.9354	-73.013618	0.000497	4.966376	1.682654	-0.000199
1381	1.3731e+02	-14.9851	-73.243735	0.000578	5.777213	1.957373	-0.000231
1382	1.3741e+02	-15.0092	-73.368886	0.000314	3.141993	1.064536	-0.000126
1383	1.3751e+02	-15.0654	-73.570743	0.000507	5.067731	1.716994	-0.000203
1384	1.3761e+02	-15.1039	-73.772600	0.000507	5.067731	1.716994	-0.000203
1385	1.3771e+02	-15.1407	-73.998680	0.000568	5.675858	1.923033	-0.000227
1386	1.3781e+02	-15.1744	-74.156128	0.000395	3.952830	1.339255	-0.000158
1387	1.3791e+02	-15.2129	-74.353947	0.000497	4.966376	1.682654	-0.000199
1388	1.3801e+02	-15.2563	-74.523507	0.000426	4.256894	1.442275	-0.000170
1389	1.3811e+02	-15.2996	-74.753624	0.000578	5.777213	1.957373	-0.000231
1390	1.3821e+02	-15.3333	-74.935295	0.000456	4.560958	1.545294	-0.000183
1391	1.3831e+02	-15.3830	-75.133115	0.000497	4.966376	1.682654	-0.000199
1392	1.3840e+02	-15.4151	-75.322860	0.000476	4.763667	1.613974	-0.000191
1393	1.3850e+02	-15.4664	-75.528754	0.000517	5.169085	1.751334	-0.000207
1394	1.3860e+02	-15.4937	-75.766945	0.000598	5.979922	2.026053	-0.000239
1395	1.3870e+02	-15.5402	-75.924393	0.000395	3.952830	1.339255	-0.000158
1396	1.3880e+02	-15.5819	-76.110102	0.000466	4.662312	1.579634	-0.000187
1397	1.3890e+02	-15.6220	-76.324070	0.000537	5.371795	1.820013	-0.000215
1398	1.3900e+02	-15.6509	-76.513815	0.000476	4.763667	1.613974	-0.000191
1399	1.3910e+02	-15.6926	-76.731820	0.000547	5.473149	1.854353	-0.000219
1400	1.3920e+02	-15.7359	-76.905417	0.000436	4.358248	1.476615	-0.000174
1401	1.3930e+02	-15.7760	-77.103237	0.000497	4.966376	1.682654	-0.000199
1402	1.3940e+02	-15.8161	-77.325279	0.000557	5.574504	1.888693	-0.000223
1403	1.3950e+02	-15.8610	-77.539248	0.000537	5.371795	1.820013	-0.000215
1404	1.3960e+02	-15.8996	-77.728993	0.000476	4.763667	1.613974	-0.000191
1405	1.3970e+02	-15.9397	-77.910664	0.000456	4.560958	1.545294	-0.000183
1406	1.3980e+02	-15.9621	-78.112521	0.000507	5.067731	1.716994	-0.000203
1407	1.3990e+02	-16.0167	-78.334563	0.000557	5.574504	1.888693	-0.000223
1408	1.4000e+02	-16.0520	-78.512197	0.000446	4.459603	1.510954	-0.000179
1409	1.4010e+02	-16.0969	-78.701943	0.000476	4.763667	1.613974	-0.000191
1410	1.4020e+02	-16.1354	-78.911874	0.000527	5.270440	1.785673	-0.000211
1411	1.4029e+02	-16.1723	-79.137953	0.000568	5.675858	1.923033	-0.000227
1412	1.4039e+02	-16.2188	-79.331736	0.000487	4.865022	1.648314	-0.000195
1413	1.4049e+02	-16.2509	-79.529555	0.000497	4.966376	1.682654	-0.000199
1414	1.4059e+02	-16.2942	-79.767746	0.000598	5.979922	2.026053	-0.000239
1415	1.4069e+02	-16.3279	-79.989789	0.000557	5.574504	1.888693	-0.000223
1416	1.4079e+02	-16.3792	-80.199720	0.000527	5.270440	1.785673	-0.000211
1417	1.4089e+02	-16.4145	-80.409651	0.000527	5.270440	1.785673	-0.000211
1418	1.4099e+02	-16.4482	-80.643805	0.000588	5.878568	1.991713	-0.000235
1419	1.4109e+02	-16.4931	-80.857773	0.000537	5.371795	1.820013	-0.000215
1420	1.4119e+02	-16.5380	-81.059630	0.000507	5.067731	1.716994	-0.000203
1421	1.4129e+02	-16.5717	-81.301858	0.000608	6.081277	2.060392	-0.000243
1422	1.4139e+02	-16.6118	-81.459306	0.000395	3.952830	1.339255	-0.000158
1423	1.4149e+02	-16.6503	-81.693460	0.000588	5.878568	1.991713	-0.000235
1424	1.4159e+02	-16.6904	-81.963948	0.000679	6.790759	2.300772	-0.000272
1425	1.4169e+02	-16.7370	-82.149657	0.000466	4.662312	1.579634	-0.000187
1426	1.4179e+02	-16.7755	-82.387848	0.000598	5.979922	2.026053	-0.000239
1427	1.4189e+02	-16.8140	-82.646224	0.000649	6.486695	2.197752	-0.000260
1428	1.4199e+02	-16.8573	-82.864230	0.000547	5.473149	1.854353	-0.000219
1429	1.4209e+02	-16.8958	-83.126643	0.000659	6.588050	2.232092	-0.000264
1430	1.4219e+02	-16.9343	-83.296203	0.000426	4.256894	1.442275	-0.000170
1431	1.4228e+02	-16.9712	-83.566691	0.000679	6.790759	2.300772	-0.000272
1432	1.4238e+02	-17.0097	-83.845254	0.000699	6.993468	2.369451	-0.000280
1433	1.4248e+02	-17.0578	-84.034999	0.000476	4.763667	1.613974	-0.000191
1434	1.4258e+02	-17.0867	-84.313561	0.000699	6.993468	2.369451	-0.000280
1435	1.4268e+02	-17.1316	-84.515418	0.000507	5.067731	1.716994	-0.000203
1436	1.4278e+02	-17.1685	-84.814166	0.000750	7.500242	2.541151	-0.000300
1437	1.4288e+02	-17.2150	-85.072543	0.000649	6.486695	2.197752	-0.000260
1438	1.4298e+02	-17.2487	-85.282474	0.000527	5.270440	1.785673	-0.000211
1439	1.4308e+02	-17.2984	-85.536813	0.000639	6.385341	2.163412	-0.000256
1440	1.4318e+02	-17.3369	-85.819413	0.000709	7.094823	2.403791	-0.000284
1441	1.4328e+02	-17.3658	-86.077790	0.000649	6.486695	2.197752	-0.000260
1442	1.4338e+02	-17.4091	-86.336166	0.000649	6.486695	2.197752	-0.000260
1443	1.4348e+02	-17.4460	-86.614729	0.000699	6.993468	2.369451	-0.000280
1444	1.4358e+02	-17.4926	-86.852920	0.000598	5.979922	2.026053	-0.000239
1445	1.4368e+02	-17.5278	-87.123408	0.000679	6.790759	2.300772	-0.000272
1446	1.4378e+02	-17.5631	-87.410044	0.000720	7.196178	2.438131	-0.000288
1447	1.4388e+02	-17.6113	-87.680533	0.000679	6.790759	2.300772	-0.000272
1448	1.4398e+02	-17.6546	-87.938909	0.000649	6.486695	2.197752	-0.000260
1449	1.4408e+02	-17.6802	-88.209397	0.000679	6.790759	2.300772	-0.000272
1450	1.4418e+02	-17.7236	-88.483923	0.000689	6.892114	2.335111	-0.000276
1451	1.4428e+02	-17.7621	-88.782671	0.000750	7.500242	2.541151	-0.000300
1452	1.4437e+02	-17.8086	-89.053159	0.000679	6.790759	2.300772	-0.000272
1453	1.4447e+02	-17.8519	-89.376130	0.000811	8.108369	2.747190	-0.000325
1454	1.4457e+02	-17.8808	-89.634506	0.000649	6.486695	2.197752	-0.000260
1455	1.4467e+02	-17.9225	-89.921143	0.000720	7.196178	2.438131	-0.000288
1456	1.4477e+02	-17.9658	-90.215854	0.000740	7.398887	2.506811	-0.000296
1457	1.4487e+02	-18.0091	-90.510565	0.000740	7.398887	2.506811	-0.000296
1458	1.4497e+02	-18.0492	-90.837573	0.000821	8.209724	2.781530	-0.000329
1459	1.4507e+02	-18.0893	-91.168618	0.000831	8.311078	2.815870	-0.000333
1460	1.4517e+02	-18.1294	-91.463329	0.000740	7.398887	2.506811	-0.000296
1461	1.4527e+02	-18.1695	-91.782262	0.000801	8.007015	2.712850	-0.000321
1462	1.4537e+02	-18.2096	-92.121382	0.000851	8.513788	2.884549	-0.000341
1463	1.4547e+02	-18.2401	-92.408018	0.000720	7.196178	2.438131	-0.000288
1464	1.4557e+02	-18.2947	-92.718878	0.000780	7.804305	2.644170	-0.000312
1465	1.4567e+02	-18.3268	-93.037812	0.000801	8.007015	2.712850	-0.000321
1466	1.4577e+02	-18.3701	-93.340597	0.000760	7.601596	2.575490	-0.000304
1467	1.4587e+02	-18.4086	-93.703939	0.000912	9.121915	3.090589	-0.000365
1468	1.4597e+02	-18.4439	-94.091504	0.000973	9.730043	3.296628	-0.000390
1469	1.4607e+02	-18.4936	-94.422549	0.000831	8.311078	2.815870	-0.000333
1470	1.4617e+02	-18.5273	-94.773780	0.000882	8.817852	2.987569	-0.000353
1471	1.4626e+02	-18.5722	-95.100788	0.000821	8.209724	2.781530	-0.000329
1472	1.4636e+02	-18.6107	-95.460093	0.000902	9.020561	3.056249	-0.000361
1473	1.4646e+02	-18.6524	-95.835547	0.000943	9.425979	3.193608	-0.000377
1474	1.4656e+02	-18.6893	-96.174666	0.000851	8.513788	2.884549	-0.000341
1475	1.4666e+02	-18.7246	-96.554157	0.000953	9.527334	3.227948	-0.000381
1476	1.4676e+02	-18.7631	-96.961908	0.001024	10.236816	3.468327	-0.000410
1477	1.4686e+02	-18.8112	-97.301027	0.000851	8.513788	2.884549	-0.000341
1478	1.4696e+02	-18.8417	-97.672443	0.000932	9.324625	3.159268	-0.000373
1479	1.4706e+02	-18.8834	-98.084231	0.001034	10.338171	3.502667	-0.000414
1480	1.4716e+02	-18.9251	-98.455648	0.000932	9.324625	3.159268	-0.000373
1481	1.4726e+02	-18.9668	-98.843213	0.000973	9.730043	3.296628	-0.000390
1482	1.4736e+02	-18.9925	-99.267112	0.001064	10.642235	3.605687	-0.000426
1483	1.4746e+02	-19.0471	-99.618343	0.000882	8.817852	2.987569	-0.000353
1484	1.4756e+02	-19.0888	-100.062428	0.001115	11.149008	3.777386	-0.000446
1485	1.4766e+02	-19.1241	-100.502476	0.001105	11.047653	3.743046	-0.000442
1486	1.4776e+02	-19.1626	-100.894078	0.000983	9.831398	3.330968	-0.000394
1487	1.4786e+02	-19.1979	-101.309903	0.001044	10.439525	3.537007	-0.000418
1488	1.4796e+02	-19.2460	-101.758025	0.001125	11.250362	3.811726	-0.000450
1489	1.4806e+02	-19.2845	-102.189998	0.001084	10.844944	3.674366	-0.000434
1490	1.4816e+02	-19.3262	-102.617935	0.001074	10.743589	3.640027	-0.000430
1491	1.4825e+02	-19.3631	-103.094317	0.001196	11.959845	4.052105	-0.000479
1492	1.4835e+02	-19.4000	-103.546476	0.001135	11.351717	3.846066	-0.000454
1493	1.4845e+02	-19.4433	-104.014784	0.001176	11.757135	3.983425	-0.000471
1494	1.4855e+02	-19.4754	-104.475017	0.001155	11.554426	3.914746	-0.000463
1495	1.4865e+02	-19.5219	-104.943325	0.001176	11.757135	3.983425	-0.000471
1496	1.4875e+02	-19.5636	-105.468153	0.001318	13.176100	4.464184	-0.000527
1497	1.4885e+02	-19.6037	-105.888015	0.001054	10.540880	3.571347	-0.000422
1498	1.4895e+02	-19.6406	-106.400731	0.001287	12.872036	4.361164	-0.000515
1499	1.4905e+02	-19.6711	-106.941707	0.001358	13.581518	4.601543	-0.000544
1500	1.4915e+02	-19.7176	-107.434238	0.001237	12.365263	4.189465	-0.000495
1501	1.4925e+02	-19.7593	-107.902545	0.001176	11.757135	3.983425	-0.000471
1502	1.4935e+02	-19.8026	-108.443522	0.001358	13.581518	4.601543	-0.000544
1503	1.4945e+02	-19.8395	-108.968349	0.001318	13.176100	4.464184	-0.000527
1504	1.4955e+02	-19.8861	-109.485103	0.001297	12.973391	4.395504	-0.000519
1505	1.4965e+02	-19.9198	-110.022042	0.001348	13.480164	4.567203	-0.000540
1506	1.4975e+02	-19.9583	-110.571092	0.001378	13.784228	4.670223	-0.000552
1507	1.4985e+02	-20.0016	-111.124180	0.001389	13.885582	4.704563	-0.000556
1508	1.4995e+02	-19.9583	-111.402742	-0.000699	-6.993468	-2.369451	-0.000280
1509	1.5005e+02	-19.9198	-111.616710	-0.000537	-5.371795	-1.820013	-0.000215
1510	1.5015e+02	-19.8700	-111.834716	-0.000547	-5.473149	-1.854353	-0.000219
1511	1.5025e+02	-19.8379	-112.008312	-0.000436	-4.358248	-1.476615	-0.000174
1512	1.5034e+02	-19.7978	-112.246503	-0.000598	-5.979922	-2.026053	-0.000239
1513	1.5044e+02	-19.7625	-112.403952	-0.000395	-3.952830	-1.339255	-0.000158
1514	1.5054e+02	-19.7192	-112.512954	-0.000274	-2.736575	-0.927177	-0.000110
1515	1.5064e+02	-19.6791	-112.650217	-0.000345	-3.446057	-1.167556	-0.000138
1516	1.5074e+02	-19.6390	-112.807665	-0.000395	-3.952830	-1.339255	-0.000158
1517	1.5084e+02	-19.6005	-112.957039	-0.000375	-3.750121	-1.270575	-0.000150
1518	1.5094e+02	-19.5508	-112.981262	-0.000061	-0.608128	-0.206039	-0.000024
1519	1.5104e+02	-19.5315	-113.094302	-0.000284	-2.837929	-0.961516	-0.000114
1520	1.5114e+02	-19.4802	-113.187156	-0.000233	-2.331156	-0.789817	-0.000093
1521	1.5124e+02	-19.4513	-113.259825	-0.000182	-1.824383	-0.618118	-0.000073
1522	1.5134e+02	-19.4016	-113.312307	-0.000132	-1.317610	-0.446418	-0.000053
1523	1.5144e+02	-19.3647	-113.368827	-0.000142	-1.418965	-0.480758	-0.000057
1524	1.5154e+02	-19.3230	-113.417273	-0.000122	-1.216255	-0.412078	-0.000049
1525	1.5164e+02	-19.2909	-113.465718	-0.000122	-1.216255	-0.412078	-0.000049
1526	1.5174e+02	-19.2364	-113.493978	-0.000071	-0.709482	-0.240379	-0.000028
1527	1.5184e+02	-19.2059	-113.506090	-0.000030	-0.304064	-0.103020	-0.000012
1528	1.5194e+02	-19.1513	-113.498016	0.000020	0.202709	0.068680	0.000008
1529	1.5204e+02	-19.1273	-113.493978	0.000010	0.101355	0.034340	0.000004
1530	1.5214e+02	-19.0791	-113.542424	-0.000122	-1.216255	-0.412078	-0.000049
1531	1.5224e+02	-19.0438	-113.510127	0.000081	0.810837	0.274719	0.000032
1532	1.5233e+02	-19.0005	-113.502053	0.000020	0.202709	0.068680	0.000008
1533	1.5243e+02	-18.9668	-113.518201	-0.000041	-0.405418	-0.137359	-0.000016
1534	1.5253e+02	-18.9235	-113.473793	0.000111	1.114901	0.377739	0.000045
1535	1.5263e+02	-18.8930	-113.437459	0.000091	0.912192	0.309059	0.000037
1536	1.5273e+02	-18.8481	-113.433421	0.000010	0.101355	0.034340	0.000004
1537	1.5283e+02	-18.8032	-113.384976	0.000122	1.216255	0.412078	0.000049
1538	1.5293e+02	-18.7615	-113.336530	0.000122	1.216255	0.412078	0.000049
1539	1.5303e+02	-18.7278	-113.296159	0.000101	1.013546	0.343399	0.000041
1540	1.5313e+02	-18.6829	-113.235602	0.000152	1.520319	0.515098	0.000061
1541	1.5323e+02	-18.6444	-113.179082	0.000142	1.418965	0.480758	0.000057
1542	1.5333e+02	-18.6043	-113.154859	0.000061	0.608128	0.206039	0.000024
1543	1.5343e+02	-18.5690	-113.114488	0.000101	1.013546	0.343399	0.000041
1544	1.5353e+02	-18.5305	-113.013559	0.000253	2.533865	0.858497	0.000101
1545	1.5363e+02	-18.4824	-112.961077	0.000132	1.317610	0.446418	0.000053
1546	1.5373e+02	-18.4423	-112.848037	0.000284	2.837929	0.961516	0.000114
1547	1.5383e+02	-18.4022	-112.767294	0.000203	2.027092	0.686797	0.000081
1548	1.5393e+02	-18.3701	-112.714811	0.000132	1.317610	0.446418	0.000053
1549	1.5403e+02	-18.3332	-112.642143	0.000182	1.824383	0.618118	0.000073
1550	1.5413e+02	-18.2786	-112.545252	0.000243	2.432511	0.824157	0.000097
1551	1.5422e+02	-18.2449	-112.472583	0.000182	1.824383	0.618118	0.000073
1552	1.5432e+02	-18.2048	-112.391840	0.000203	2.027092	0.686797	0.000081
1553	1.5442e+02	-18.1615	-112.254578	0.000345	3.446057	1.167556	0.000138
1554	1.5452e+02	-18.1310	-112.194021	0.000152	1.520319	0.515098	0.000061
1555	1.5462e+02	-18.0893	-112.121352	0.000182	1.824383	0.618118	0.000073
1556	1.5472e+02	-18.0492	-111.992164	0.000324	3.243348	1.098876	0.000130
1557	1.5482e+02	-18.0027	-111.899310	0.000233	2.331156	0.789817	0.000093
1558	1.5492e+02	-17.9722	-111.814530	0.000213	2.128447	0.721137	0.000085
1559	1.5502e+02	-17.9353	-111.689379	0.000314	3.141993	1.064536	0.000126
1560	1.5512e+02	-17.8904	-111.584413	0.000264	2.635220	0.892837	0.000105
1561	1.5522e+02	-17.8423	-111.443113	0.000355	3.547412	1.201896	0.000142
1562	1.5532e+02	-17.8102	-111.346222	0.000243	2.432511	0.824157	0.000097
1563	1.5542e+02	-17.7637	-111.289702	0.000142	1.418965	0.480758	0.000057
1564	1.5552e+02	-17.7204	-111.156477	0.000334	3.344702	1.133216	0.000134
1565	1.5562e+02	-17.6931	-111.035363	0.000304	3.040638	1.030196	0.000122
1566	1.5572e+02	-17.6482	-110.918286	0.000294	2.939284	0.995856	0.000118
1567	1.5582e+02	-17.6097	-110.797172	0.000304	3.040638	1.030196	0.000122
1568	1.5592e+02	-17.5680	-110.684132	0.000284	2.837929	0.961516	0.000114
1569	1.5602e+02	-17.5278	-110.558981	0.000314	3.141993	1.064536	0.000126
1570	1.5612e+02	-17.4861	-110.470164	0.000223	2.229802	0.755477	0.000089
1571	1.5622e+02	-17.4492	-110.312715	0.000395	3.952830	1.339255	0.000158
1572	1.5631e+02	-17.4075	-110.167379	0.000365	3.648766	1.236235	0.000146
1573	1.5641e+02	-17.3738	-110.070487	0.000243	2.432511	0.824157	0.000097
1574	1.5651e+02	-17.3337	-109.949373	0.000304	3.040638	1.030196	0.000122
1575	1.5661e+02	-17.2952	-109.779814	0.000426	4.256894	1.442275	0.000170
1576	1.5671e+02	-17.2535	-109.686959	0.000233	2.331156	0.789817	0.000093
1577	1.5681e+02	-17.2214	-109.565845	0.000304	3.040638	1.030196	0.000122
1578	1.5691e+02	-17.1813	-109.372063	0.000487	4.865022	1.648314	0.000195
1579	1.5701e+02	-17.1268	-109.263060	0.000274	2.736575	0.927177	0.000110
1580	1.5711e+02	-17.0851	-109.133872	0.000324	3.243348	1.098876	0.000130
1581	1.5721e+02	-17.0562	-109.020832	0.000284	2.837929	0.961516	0.000114
1582	1.5731e+02	-17.0161	-108.875495	0.000365	3.648766	1.236235	0.000146
1583	1.5741e+02	-16.9808	-108.778604	0.000243	2.432511	0.824157	0.000097
1584	1.5751e+02	-16.9295	-108.609044	0.000426	4.256894	1.442275	0.000170
1585	1.5761e+02	-16.8926	-108.459670	0.000375	3.750121	1.270575	0.000150
1586	1.5771e+02	-16.8460	-108.334519	0.000314	3.141993	1.064536	0.000126
1587	1.5781e+02	-16.8092	-108.156885	0.000446	4.459603	1.510954	0.000179
1588	1.5791e+02	-16.7626	-108.047882	0.000274	2.736575	0.927177	0.000110
1589	1.5801e+02	-16.7402	-107.890434	0.000395	3.952830	1.339255	0.000158
1590	1.5811e+02	-16.6969	-107.741060	0.000375	3.750121	1.270575	0.000150
1591	1.5821e+02	-16.6439	-107.619946	0.000304	3.040638	1.030196	0.000122
1592	1.5830e+02	-16.6102	-107.478646	0.000355	3.547412	1.201896	0.000142
1593	1.5840e+02	-16.5701	-107.389829	0.000223	2.229802	0.755477	0.000089
1594	1.5850e+02	-16.5364	-107.216232	0.000436	4.358248	1.476615	0.000174
1595	1.5860e+02	-16.4899	-107.062821	0.000385	3.851475	1.304915	0.000154
1596	1.5870e+02	-16.4530	-106.933633	0.000324	3.243348	1.098876	0.000130
1597	1.5880e+02	-16.4177	-106.755999	0.000446	4.459603	1.510954	0.000179
1598	1.5890e+02	-16.3744	-106.651033	0.000264	2.635220	0.892837	0.000105
1599	1.5900e+02	-16.3343	-106.469362	0.000456	4.560958	1.545294	0.000183
1600	1.5910e+02	-16.2942	-106.364397	0.000264	2.635220	0.892837	0.000105
1601	1.5920e+02	-16.2493	-106.174651	0.000476	4.763667	1.613974	0.000191
1602	1.5930e+02	-16.2220	-106.041426	0.000334	3.344702	1.133216	0.000134
1603	1.5940e+02	-16.1771	-105.940497	0.000253	2.533865	0.858497	0.000101
1604	1.5950e+02	-16.1386	-105.819383	0.000304	3.040638	1.030196	0.000122
1605	1.5960e+02	-16.1017	-105.670009	0.000375	3.750121	1.270575	0.000150
1606	1.5970e+02	-16.0584	-105.488338	0.000456	4.560958	1.545294	0.000183
1607	1.5980e+02	-16.0199	-105.367224	0.000304	3.040638	1.030196	0.000122
1608	1.5990e+02	-15.9685	-105.201702	0.000416	4.155539	1.407935	0.000166
1609	1.6000e+02	-15.9348	-105.048290	0.000385	3.851475	1.304915	0.000154
1610	1.6010e+02	-15.8867	-104.919102	0.000324	3.243348	1.098876	0.000130
1611	1.6019e+02	-15.8530	-104.709171	0.000527	5.270440	1.785673	0.000211
1612	1.6029e+02	-15.8161	-104.588057	0.000304	3.040638	1.030196	0.000122
1613	1.6039e+02	-15.7808	-104.434646	0.000385	3.851475	1.304915	0.000154
1614	1.6049e+02	-15.7263	-104.265086	0.000426	4.256894	1.442275	0.000170
1615	1.6059e+02	-15.6942	-104.152046	0.000284	2.837929	0.961516	0.000114
1616	1.6069e+02	-15.6541	-103.986524	0.000416	4.155539	1.407935	0.000166
1617	1.6079e+02	-15.6172	-103.841187	0.000365	3.648766	1.236235	0.000146
1618	1.6089e+02	-15.5755	-103.667590	0.000436	4.358248	1.476615	0.000174
1619	1.6099e+02	-15.5370	-103.506105	0.000405	4.054185	1.373595	0.000162
1620	1.6109e+02	-15.4953	-103.376916	0.000324	3.243348	1.098876	0.000130
1621	1.6119e+02	-15.4616	-103.235617	0.000355	3.547412	1.201896	0.000142
1622	1.6129e+02	-15.4215	-103.070094	0.000416	4.155539	1.407935	0.000166
1623	1.6139e+02	-15.3750	-102.916683	0.000385	3.851475	1.304915	0.000154
1624	1.6149e+02	-15.3397	-102.751160	0.000416	4.155539	1.407935	0.000166
1625	1.6159e+02	-15.2980	-102.613898	0.000345	3.446057	1.167556	0.000138
1626	1.6169e+02	-15.2530	-102.424152	0.000476	4.763667	1.613974	0.000191
1627	1.6179e+02	-15.2242	-102.294964	0.000324	3.243348	1.098876	0.000130
1628	1.6189e+02	-15.1712	-102.133478	0.000405	4.054185	1.373595	0.000162
1629	1.6199e+02	-15.1359	-101.984104	0.000375	3.750121	1.270575	0.000150
1630	1.6209e+02	-15.0974	-101.858953	0.000314	3.141993	1.064536	0.000126
1631	1.6219e+02	-15.0654	-101.644985	0.000537	5.371795	1.820013	0.000215
1632	1.6228e+02	-15.0108	-101.540020	0.000264	2.635220	0.892837	0.000105
1633	1.6238e+02	-14.9851	-101.366423	0.000436	4.358248	1.476615	0.000174
1634	1.6248e+02	-14.9450	-101.196863	0.000426	4.256894	1.442275	0.000170
1635	1.6258e+02	-14.8889	-101.007118	0.000476	4.763667	1.613974	0.000191
1636	1.6268e+02	-14.8552	-100.894078	0.000284	2.837929	0.961516	0.000114
1637	1.6278e+02	-14.8215	-100.724518	0.000426	4.256894	1.442275	0.000170
1638	1.6288e+02	-14.7926	-100.542847	0.000456	4.560958	1.545294	0.000183
1639	1.6298e+02	-14.7429	-100.421733	0.000304	3.040638	1.030196	0.000122
1640	1.6308e+02	-14.6996	-100.264285	0.000395	3.952830	1.339255	0.000158
1641	1.6318e+02	-14.6579	-100.086651	0.000446	4.459603	1.510954	0.000179
1642	1.6328e+02	-14.6210	-99.921128	0.000416	4.155539	1.407935	0.000166
1643	1.6338e+02	-14.5777	-99.787903	0.000334	3.344702	1.133216	0.000134
1644	1.6348e+02	-14.5456	-99.634491	0.000385	3.851475	1.304915	0.000154
1645	1.6358e+02	-14.5023	-99.460895	0.000436	4.358248	1.476615	0.000174
1646	1.6368e+02	-14.4702	-99.267112	0.000487	4.865022	1.648314	0.000195
1647	1.6378e+02	-14.4156	-99.105627	0.000405	4.054185	1.373595	0.000162
1648	1.6388e+02	-14.3755	-98.956253	0.000375	3.750121	1.270575	0.000150
1649	1.6398e+02	-14.3483	-98.786693	0.000426	4.256894	1.442275	0.000170
1650	1.6408e+02	-14.3033	-98.625208	0.000405	4.054185	1.373595	0.000162
1651	1.6418e+02	-14.2664	-98.455648	0.000426	4.256894	1.442275	0.000170
1652	1.6427e+02	-14.2263	-98.302237	0.000385	3.851475	1.304915	0.000154
1653	1.6437e+02	-14.1878	-98.152863	0.000375	3.750121	1.270575	0.000150
1654	1.6447e+02	-14.1397	-98.003489	0.000375	3.750121	1.270575	0.000150
1655	1.6457e+02	-14.0980	-97.813743	0.000476	4.763667	1.613974	0.000191
1656	1.6467e+02	-14.0643	-97.664369	0.000375	3.750121	1.270575	0.000150
1657	1.6477e+02	-14.0242	-97.482698	0.000456	4.560958	1.545294	0.000183
1658	1.6487e+02	-13.9841	-97.329287	0.000385	3.851475	1.304915	0.000154
1659	1.6497e+02	-13.9472	-97.175876	0.000385	3.851475	1.304915	0.000154
1660	1.6507e+02	-13.8975	-97.018427	0.000395	3.952830	1.339255	0.000158
1661	1.6517e+02	-13.8686	-96.856942	0.000405	4.054185	1.373595	0.000162
1662	1.6527e+02	-13.8285	-96.671234	0.000466	4.662312	1.579634	0.000187
1663	1.6537e+02	-13.7884	-96.473414	0.000497	4.966376	1.682654	0.000199
1664	1.6547e+02	-13.7354	-96.380560	0.000233	2.331156	0.789817	0.000093
1665	1.6557e+02	-13.6985	-96.186778	0.000487	4.865022	1.648314	0.000195
1666	1.6567e+02	-13.6600	-95.988958	0.000497	4.966376	1.682654	0.000199
1667	1.6577e+02	-13.6264	-95.871881	0.000294	2.939284	0.995856	0.000118
1668	1.6587e+02	-13.5911	-95.657913	0.000537	5.371795	1.820013	0.000215
1669	1.6597e+02	-13.5461	-95.516613	0.000355	3.547412	1.201896	0.000142
1670	1.6607e+02	-13.5076	-95.363202	0.000385	3.851475	1.304915	0.000154
1671	1.6616e+02	-13.4691	-95.189605	0.000436	4.358248	1.476615	0.000174
1672	1.6626e+02	-13.4242	-95.003897	0.000466	4.662312	1.579634	0.000187
1673	1.6636e+02	-13.3905	-94.874708	0.000324	3.243348	1.098876	0.000130
1674	1.6646e+02	-13.3488	-94.668814	0.000517	5.169085	1.751334	0.000207
1675	1.6656e+02	-13.3071	-94.523478	0.000365	3.648766	1.236235	0.000146
1676	1.6666e+02	-13.2654	-94.321621	0.000507	5.067731	1.716994	0.000203
1677	1.6676e+02	-13.2269	-94.135913	0.000466	4.662312	1.579634	0.000187
1678	1.6686e+02	-13.1852	-93.982501	0.000385	3.851475	1.304915	0.000154
1679	1.6696e+02	-13.1387	-93.833127	0.000375	3.750121	1.270575	0.000150
1680	1.6706e+02	-13.0986	-93.671642	0.000405	4.054185	1.373595	0.000162
1681	1.6716e+02	-13.0729	-93.498045	0.000436	4.358248	1.476615	0.000174
1682	1.6726e+02	-13.0280	-93.316374	0.000456	4.560958	1.545294	0.000183
1683	1.6736e+02	-12.9879	-93.134703	0.000456	4.560958	1.545294	0.000183
1684	1.6746e+02	-12.9494	-92.993403	0.000355	3.547412	1.201896	0.000142
1685	1.6756e+02	-12.9028	-92.787509	0.000517	5.169085	1.751334	0.000207
1686	1.6766e+02	-12.8692	-92.617950	0.000426	4.256894	1.442275	0.000170
1687	1.6776e+02	-12.8307	-92.468576	0.000375	3.750121	1.270575	0.000150
1688	1.6786e+02	-12.7986	-92.266719	0.000507	5.067731	1.716994	0.000203
1689	1.6796e+02	-12.7472	-92.141568	0.000314	3.141993	1.064536	0.000126
1690	1.6806e+02	-12.7023	-91.967971	0.000436	4.358248	1.476615	0.000174
1691	1.6816e+02	-12.6670	-91.749965	0.000547	5.473149	1.854353	0.000219
1692	1.6825e+02	-12.6269	-91.604628	0.000365	3.648766	1.236235	0.000146
1693	1.6835e+02	-12.5948	-91.422957	0.000456	4.560958	1.545294	0.000183
1694	1.6845e+02	-12.5483	-91.305880	0.000294	2.939284	0.995856	0.000118
1695	1.6855e+02	-12.5146	-91.095949	0.000527	5.270440	1.785673	0.000211
1696	1.6865e+02	-12.4697	-90.902167	0.000487	4.865022	1.648314	0.000195
1697	1.6875e+02	-12.4264	-90.724533	0.000446	4.459603	1.510954	0.000179
1698	1.6885e+02	-12.3959	-90.575159	0.000375	3.750121	1.270575	0.000150
1699	1.6895e+02	-12.3510	-90.389451	0.000466	4.662312	1.579634	0.000187
1700	1.6905e+02	-12.3109	-90.215854	0.000436	4.358248	1.476615	0.000174
1701	1.6915e+02	-12.2708	-90.050331	0.000416	4.155539	1.407935	0.000166
1702	1.6925e+02	-12.2339	-89.852512	0.000497	4.966376	1.682654	0.000199
1703	1.6935e+02	-12.1954	-89.691026	0.000405	4.054185	1.373595	0.000162
1704	1.6945e+02	-12.1521	-89.468984	0.000557	5.574504	1.888693	0.000223
1705	1.6955e+02	-12.1184	-89.327684	0.000355	3.547412	1.201896	0.000142
1706	1.6965e+02	-12.0638	-89.174273	0.000385	3.851475	1.304915	0.000154
1707	1.6975e+02	-12.0398	-88.988565	0.000466	4.662312	1.579634	0.000187
1708	1.6985e+02	-11.9884	-88.819005	0.000426	4.256894	1.442275	0.000170
1709	1.6995e+02	-11.9531	-88.653482	0.000416	4.155539	1.407935	0.000166
1710	1.7005e+02	-11.9066	-88.463737	0.000476	4.763667	1.613974	0.000191
1711	1.7015e+02	-11.8842	-88.245732	0.000547	5.473149	1.854353	0.000219
1712	1.7024e+02	-11.8328	-88.132692	0.000284	2.837929	0.961516	0.000114
1713	1.7034e+02	-11.7895	-87.914686	0.000547	5.473149	1.854353	0.000219
1714	1.7044e+02	-11.7590	-87.753201	0.000405	4.054185	1.373595	0.000162
1715	1.7054e+02	-11.7061	-87.579604	0.000436	4.358248	1.476615	0.000174
1716	1.7064e+02	-11.6724	-87.385822	0.000487	4.865022	1.648314	0.000195
1717	1.7074e+02	-11.6259	-87.232410	0.000385	3.851475	1.304915	0.000154
1718	1.7084e+02	-11.5906	-87.030554	0.000507	5.067731	1.716994	0.000203
1719	1.7094e+02	-11.5617	-86.852920	0.000446	4.459603	1.510954	0.000179
1720	1.7104e+02	-11.5168	-86.687397	0.000416	4.155539	1.407935	0.000166
1721	1.7114e+02	-11.4703	-86.485540	0.000507	5.067731	1.716994	0.000203
1722	1.7124e+02	-11.4414	-86.336166	0.000375	3.750121	1.270575	0.000150
1723	1.7134e+02	-11.3997	-86.146421	0.000476	4.763667	1.613974	0.000191
1724	1.7144e+02	-11.3580	-85.944564	0.000507	5.067731	1.716994	0.000203
1725	1.7154e+02	-11.3114	-85.775004	0.000426	4.256894	1.442275	0.000170
1726	1.7164e+02	-11.2713	-85.605445	0.000426	4.256894	1.442275	0.000170
1727	1.7174e+02	-11.2312	-85.411662	0.000487	4.865022	1.648314	0.000195
1728	1.7184e+02	-11.1959	-85.246140	0.000416	4.155539	1.407935	0.000166
1729	1.7194e+02	-11.1558	-85.028134	0.000547	5.473149	1.854353	0.000219
1730	1.7204e+02	-11.1045	-84.874723	0.000385	3.851475	1.304915	0.000154
1731	1.7213e+02	-11.0852	-84.668829	0.000517	5.169085	1.751334	0.000207
1732	1.7223e+02	-11.0307	-84.515418	0.000385	3.851475	1.304915	0.000154
1733	1.7233e+02	-11.0002	-84.309524	0.000517	5.169085	1.751334	0.000207
1734	1.7243e+02	-10.9425	-84.176299	0.000334	3.344702	1.133216	0.000134
1735	1.7253e+02	-10.9200	-83.954256	0.000557	5.574504	1.888693	0.000223
1736	1.7263e+02	-10.8783	-83.768548	0.000466	4.662312	1.579634	0.000187
1737	1.7273e+02	-10.8382	-83.627248	0.000355	3.547412	1.201896	0.000142
1738	1.7283e+02	-10.7981	-83.441540	0.000466	4.662312	1.579634	0.000187
1739	1.7293e+02	-10.7612	-83.211423	0.000578	5.777213	1.957373	0.000231
1740	1.7303e+02	-10.7131	-83.090309	0.000304	3.040638	1.030196	0.000122
1741	1.7313e+02	-10.6826	-82.896527	0.000487	4.865022	1.648314	0.000195
1742	1.7323e+02	-10.6361	-82.682558	0.000537	5.371795	1.820013	0.000215
1743	1.7333e+02	-10.5944	-82.512999	0.000426	4.256894	1.442275	0.000170
1744	1.7343e+02	-10.5494	-82.319216	0.000487	4.865022	1.648314	0.000195
1745	1.7353e+02	-10.5125	-82.125434	0.000487	4.865022	1.648314	0.000195
1746	1.7363e+02	-10.4805	-81.947800	0.000446	4.459603	1.510954	0.000179
1747	1.7373e+02	-10.4420	-81.741906	0.000517	5.169085	1.751334	0.000207
1748	1.7383e+02	-10.3922	-81.568309	0.000436	4.358248	1.476615	0.000174
1749	1.7393e+02	-10.3698	-81.410861	0.000395	3.952830	1.339255	0.000158
1750	1.7403e+02	-10.3136	-81.217078	0.000487	4.865022	1.648314	0.000195
1751	1.7413e+02	-10.2719	-81.031370	0.000466	4.662312	1.579634	0.000187
1752	1.7422e+02	-10.2414	-80.857773	0.000436	4.358248	1.476615	0.000174
1753	1.7432e+02	-10.1981	-80.643805	0.000537	5.371795	1.820013	0.000215
1754	1.7442e+02	-10.1644	-80.441948	0.000507	5.067731	1.716994	0.000203
1755	1.7452e+02	-10.1163	-80.268351	0.000436	4.358248	1.476615	0.000174
1756	1.7462e+02	-10.0746	-80.090717	0.000446	4.459603	1.510954	0.000179
1757	1.7472e+02	-10.0425	-79.909046	0.000456	4.560958	1.545294	0.000183
1758	1.7482e+02	-10.0072	-79.687004	0.000557	5.574504	1.888693	0.000223
1759	1.7492e+02	-9.9639	-79.549741	0.000345	3.446057	1.167556	0.000138
1760	1.7502e+02	-9.9174	-79.351921	0.000497	4.966376	1.682654	0.000199
1761	1.7512e+02	-9.8869	-79.141990	0.000527	5.270440	1.785673	0.000211
1762	1.7522e+02	-9.8404	-78.964356	0.000446	4.459603	1.510954	0.000179
1763	1.7532e+02	-9.8019	-78.750388	0.000537	5.371795	1.820013	0.000215
1764	1.7542e+02	-9.7569	-78.560643	0.000476	4.763667	1.613974	0.000191
1765	1.7552e+02	-9.7136	-78.431455	0.000324	3.243348	1.098876	0.000130
1766	1.7562e+02	-9.6831	-78.249783	0.000456	4.560958	1.545294	0.000183
1767	1.7572e+02	-9.6366	-78.051964	0.000497	4.966376	1.682654	0.000199
1768	1.7582e+02	-9.6061	-77.801661	0.000628	6.283986	2.129072	0.000252
1769	1.7592e+02	-9.5725	-77.688622	0.000284	2.837929	0.961516	0.000114
1770	1.7602e+02	-9.5163	-77.470616	0.000547	5.473149	1.854353	0.000219
1771	1.7612e+02	-9.4874	-77.292982	0.000446	4.459603	1.510954	0.000179
1772	1.7621e+02	-9.4361	-77.083051	0.000527	5.270440	1.785673	0.000211
1773	1.7631e+02	-9.4008	-76.937714	0.000365	3.648766	1.236235	0.000146
1774	1.7641e+02	-9.3639	-76.735858	0.000507	5.067731	1.716994	0.000203
1775	1.7651e+02	-9.3254	-76.529964	0.000517	5.169085	1.751334	0.000207
1776	1.7661e+02	-9.2869	-76.356367	0.000436	4.358248	1.476615	0.000174
1777	1.7671e+02	-9.2452	-76.166621	0.000476	4.763667	1.613974	0.000191
1778	1.7681e+02	-9.2067	-75.984950	0.000456	4.560958	1.545294	0.000183
1779	1.7691e+02	-9.1618	-75.799242	0.000466	4.662312	1.579634	0.000187
1780	1.7701e+02	-9.1169	-75.581237	0.000547	5.473149	1.854353	0.000219
1781	1.7711e+02	-9.0880	-75.391491	0.000476	4.763667	1.613974	0.000191
1782	1.7721e+02	-9.0399	-75.185597	0.000517	5.169085	1.751334	0.000207
1783	1.7731e+02	-8.9997	-75.044298	0.000355	3.547412	1.201896	0.000142
1784	1.7741e+02	-8.9548	-74.822255	0.000557	5.574504	1.888693	0.000223
1785	1.7751e+02	-8.9260	-74.640584	0.000456	4.560958	1.545294	0.000183
1786	1.7761e+02	-8.8858	-74.414504	0.000568	5.675858	1.923033	0.000227
1787	1.7771e+02	-8.8393	-74.248982	0.000416	4.155539	1.407935	0.000166
1788	1.7781e+02	-8.8040	-74.014828	0.000588	5.878568	1.991713	0.000235
1789	1.7791e+02	-8.7591	-73.877565	0.000345	3.446057	1.167556	0.000138
1790	1.7801e+02	-8.7222	-73.671672	0.000517	5.169085	1.751334	0.000207
1791	1.7810e+02	-8.6869	-73.502112	0.000426	4.256894	1.442275	0.000170
1792	1.7820e+02	-8.6500	-73.292181	0.000527	5.270440	1.785673	0.000211
1793	1.7830e+02	-8.6051	-73.074175	0.000547	5.473149	1.854353	0.000219
1794	1.7840e+02	-8.5666	-72.888467	0.000466	4.662312	1.579634	0.000187
1795	1.7850e+02	-8.5169	-72.726982	0.000405	4.054185	1.373595	0.000162
1796	1.7860e+02	-8.4848	-72.517051	0.000527	5.270440	1.785673	0.000211
1797	1.7870e+02	-8.4431	-72.295008	0.000557	5.574504	1.888693	0.000223
1798	1.7880e+02	-8.4046	-72.121411	0.000436	4.358248	1.476615	0.000174
1799	1.7890e+02	-8.3677	-71.919555	0.000507	5.067731	1.716994	0.000203
1800	1.7900e+02	-8.3308	-71.758069	0.000405	4.054185	1.373595	0.000162
1801	1.7910e+02	-8.2891	-71.523915	0.000588	5.878568	1.991713	0.000235
1802	1.7920e+02	-8.2442	-71.318021	0.000517	5.169085	1.751334	0.000207
1803	1.7930e+02	-8.2040	-71.140387	0.000446	4.459603	1.510954	0.000179
1804	1.7940e+02	-8.1688	-70.954679	0.000466	4.662312	1.579634	0.000187
1805	1.7950e+02	-8.1303	-70.744748	0.000527	5.270440	1.785673	0.000211
1806	1.7960e+02	-8.0821	-70.526743	0.000547	5.473149	1.854353	0.000219
1807	1.7970e+02	-8.0500	-70.369294	0.000395	3.952830	1.339255	0.000158
1808	1.7980e+02	-8.0035	-70.191661	0.000446	4.459603	1.510954	0.000179
1809	1.7990e+02	-7.9650	-69.985767	0.000517	5.169085	1.751334	0.000207
1810	1.8000e+02	-7.9217	-69.796021	0.000476	4.763667	1.613974	0.000191
1811	1.8009e+02	-7.8896	-69.578016	0.000547	5.473149	1.854353	0.000219
1812	1.8019e+02	-7.8495	-69.364048	0.000537	5.371795	1.820013	0.000215
1813	1.8029e+02	-7.8110	-69.170265	0.000487	4.865022	1.648314	0.000195
1814	1.8039e+02	-7.7677	-68.964371	0.000517	5.169085	1.751334	0.000207
1815	1.8049e+02	-7.7228	-68.762514	0.000507	5.067731	1.716994	0.000203
1816	1.8059e+02	-7.6923	-68.596992	0.000416	4.155539	1.407935	0.000166
1817	1.8069e+02	-7.6554	-68.391098	0.000517	5.169085	1.751334	0.000207
1818	1.8079e+02	-7.6041	-68.209427	0.000456	4.560958	1.545294	0.000183
1819	1.8089e+02	-7.5704	-67.963162	0.000618	6.182632	2.094732	0.000248
1820	1.8099e+02	-7.5287	-67.797639	0.000416	4.155539	1.407935	0.000166
1821	1.8109e+02	-7.4950	-67.535225	0.000659	6.588050	2.232092	0.000264
1822	1.8119e+02	-7.4501	-67.410074	0.000314	3.141993	1.064536	0.000126
1823	1.8129e+02	-7.4100	-67.196106	0.000537	5.371795	1.820013	0.000215
1824	1.8139e+02	-7.3763	-66.990212	0.000517	5.169085	1.751334	0.000207
1825	1.8149e+02	-7.3265	-66.788355	0.000507	5.067731	1.716994	0.000203
1826	1.8159e+02	-7.2832	-66.622833	0.000416	4.155539	1.407935	0.000166
1827	1.8169e+02	-7.2559	-66.396753	0.000568	5.675858	1.923033	0.000227
1828	1.8179e+02	-7.2094	-66.227193	0.000426	4.256894	1.442275	0.000170
1829	1.8189e+02	-7.1757	-65.993039	0.000588	5.878568	1.991713	0.000235
1830	1.8199e+02	-7.1308	-65.791183	0.000507	5.067731	1.716994	0.000203
1831	1.8209e+02	-7.0987	-65.589326	0.000507	5.067731	1.716994	0.000203
1832	1.8218e+02	-7.0474	-65.383432	0.000517	5.169085	1.751334	0.000207
1833	1.8228e+02	-7.0105	-65.181575	0.000507	5.067731	1.716994	0.000203
1834	1.8238e+02	-6.9896	-65.044312	0.000345	3.446057	1.167556	0.000138
1835	1.8248e+02	-6.9239	-64.773824	0.000679	6.790759	2.300772	0.000272
1836	1.8258e+02	-6.8918	-64.563893	0.000527	5.270440	1.785673	0.000211
1837	1.8268e+02	-6.8501	-64.378185	0.000466	4.662312	1.579634	0.000187
1838	1.8278e+02	-6.8212	-64.184403	0.000487	4.865022	1.648314	0.000195
1839	1.8288e+02	-6.7715	-63.962360	0.000557	5.574504	1.888693	0.000223
1840	1.8298e+02	-6.7314	-63.764540	0.000497	4.966376	1.682654	0.000199
1841	1.8308e+02	-6.6929	-63.550572	0.000537	5.371795	1.820013	0.000215
1842	1.8318e+02	-6.6447	-63.348715	0.000507	5.067731	1.716994	0.000203
1843	1.8328e+02	-6.6046	-63.175119	0.000436	4.358248	1.476615	0.000174
1844	1.8338e+02	-6.5709	-63.001522	0.000436	4.358248	1.476615	0.000174
1845	1.8348e+02	-6.5244	-62.755256	0.000618	6.182632	2.094732	0.000248
1846	1.8358e+02	-6.4891	-62.553400	0.000507	5.067731	1.716994	0.000203
1847	1.8368e+02	-6.4506	-62.375766	0.000446	4.459603	1.510954	0.000179
1848	1.8378e+02	-6.4217	-62.177946	0.000497	4.966376	1.682654	0.000199
1849	1.8388e+02	-6.3800	-61.931681	0.000618	6.182632	2.094732	0.000248
1850	1.8398e+02	-6.3271	-61.721750	0.000527	5.270440	1.785673	0.000211
1851	1.8407e+02	-6.2998	-61.552190	0.000426	4.256894	1.442275	0.000170
1852	1.8417e+02	-6.2469	-61.362445	0.000476	4.763667	1.613974	0.000191
1853	1.8427e+02	-6.2212	-61.132328	0.000578	5.777213	1.957373	0.000231
1854	1.8437e+02	-6.1811	-60.918360	0.000537	5.371795	1.820013	0.000215
1855	1.8447e+02	-6.1362	-60.720540	0.000497	4.966376	1.682654	0.000199
1856	1.8457e+02	-6.0977	-60.470238	0.000628	6.283986	2.129072	0.000252
1857	1.8467e+02	-6.0592	-60.304715	0.000416	4.155539	1.407935	0.000166
1858	1.8477e+02	-6.0191	-60.082673	0.000557	5.574504	1.888693	0.000223
1859	1.8487e+02	-5.9742	-59.876779	0.000517	5.169085	1.751334	0.000207
1860	1.8497e+02	-5.9292	-59.658773	0.000547	5.473149	1.854353	0.000219
1861	1.8507e+02	-5.9020	-59.469028	0.000476	4.763667	1.613974	0.000191
1862	1.8517e+02	-5.8699	-59.238911	0.000578	5.777213	1.957373	0.000231
1863	1.8527e+02	-5.8121	-59.012832	0.000568	5.675858	1.923033	0.000227
1864	1.8537e+02	-5.7720	-58.806938	0.000517	5.169085	1.751334	0.000207
1865	1.8547e+02	-5.7432	-58.617192	0.000476	4.763667	1.613974	0.000191
1866	1.8557e+02	-5.7047	-58.419373	0.000497	4.966376	1.682654	0.000199
1867	1.8567e+02	-5.6485	-58.205405	0.000537	5.371795	1.820013	0.000215
1868	1.8577e+02	-5.6148	-57.979325	0.000568	5.675858	1.923033	0.000227
1869	1.8587e+02	-5.5859	-57.813802	0.000416	4.155539	1.407935	0.000166
1870	1.8597e+02	-5.5458	-57.563500	0.000628	6.283986	2.129072	0.000252
1871	1.8606e+02	-5.4929	-57.369717	0.000487	4.865022	1.648314	0.000195
1872	1.8616e+02	-5.4592	-57.175935	0.000487	4.865022	1.648314	0.000195
1873	1.8626e+02	-5.4255	-56.970041	0.000517	5.169085	1.751334	0.000207
1874	1.8636e+02	-5.3774	-56.739924	0.000578	5.777213	1.957373	0.000231
1875	1.8646e+02	-5.3421	-56.497696	0.000608	6.081277	2.060392	0.000243
1876	1.8656e+02	-5.3036	-56.279691	0.000547	5.473149	1.854353	0.000219
1877	1.8666e+02	-5.2619	-56.093983	0.000466	4.662312	1.579634	0.000187
1878	1.8676e+02	-5.2202	-55.875977	0.000547	5.473149	1.854353	0.000219
1879	1.8686e+02	-5.1785	-55.682195	0.000487	4.865022	1.648314	0.000195
1880	1.8696e+02	-5.1335	-55.435929	0.000618	6.182632	2.094732	0.000248
1881	1.8706e+02	-5.1047	-55.242147	0.000487	4.865022	1.648314	0.000195
1882	1.8716e+02	-5.0630	-55.028179	0.000537	5.371795	1.820013	0.000215
1883	1.8726e+02	-5.0245	-54.810173	0.000547	5.473149	1.854353	0.000219
1884	1.8736e+02	-4.9811	-54.612354	0.000497	4.966376	1.682654	0.000199
1885	1.8746e+02	-4.9426	-54.394348	0.000547	5.473149	1.854353	0.000219
1886	1.8756e+02	-4.8977	-54.228826	0.000416	4.155539	1.407935	0.000166
1887	1.8766e+02	-4.8688	-53.986598	0.000608	6.081277	2.060392	0.000243
1888	1.8776e+02	-4.8207	-53.784741	0.000507	5.067731	1.716994	0.000203
1889	1.8786e+02	-4.7790	-53.526364	0.000649	6.486695	2.197752	0.000260
1890	1.8796e+02	-4.7373	-53.308359	0.000547	5.473149	1.854353	0.000219
1891	1.8806e+02	-4.7084	-53.134762	0.000436	4.358248	1.476615	0.000174
1892	1.8815e+02	-4.6619	-52.864274	0.000679	6.790759	2.300772	0.000272
1893	1.8825e+02	-4.6282	-52.662417	0.000507	5.067731	1.716994	0.000203
1894	1.8835e+02	-4.5865	-52.472672	0.000476	4.763667	1.613974	0.000191
1895	1.8845e+02	-4.5384	-52.286964	0.000466	4.662312	1.579634	0.000187
1896	1.8855e+02	-4.4935	-52.081070	0.000517	5.169085	1.751334	0.000207
1897	1.8865e+02	-4.4630	-51.842879	0.000598	5.979922	2.026053	0.000239
1898	1.8875e+02	-4.4132	-51.624873	0.000547	5.473149	1.854353	0.000219
1899	1.8885e+02	-4.3892	-51.447239	0.000446	4.459603	1.510954	0.000179
1900	1.8895e+02	-4.3427	-51.188863	0.000649	6.486695	2.197752	0.000260
1901	1.8905e+02	-4.3106	-50.978932	0.000527	5.270440	1.785673	0.000211
1902	1.8915e+02	-4.2544	-50.769000	0.000527	5.270440	1.785673	0.000211
1903	1.8925e+02	-4.2288	-50.538884	0.000578	5.777213	1.957373	0.000231
1904	1.8935e+02	-4.1854	-50.300693	0.000598	5.979922	2.026053	0.000239
1905	1.8945e+02	-4.1453	-50.074613	0.000568	5.675858	1.923033	0.000227
1906	1.8955e+02	-4.1068	-49.901016	0.000436	4.358248	1.476615	0.000174
1907	1.8965e+02	-4.0651	-49.707234	0.000487	4.865022	1.648314	0.000195
1908	1.8975e+02	-4.0314	-49.448857	0.000649	6.486695	2.197752	0.000260
1909	1.8985e+02	-3.9913	-49.279297	0.000426	4.256894	1.442275	0.000170
1910	1.8995e+02	-3.9512	-49.028995	0.000628	6.283986	2.129072	0.000252
1911	1.9004e+02	-3.9047	-48.798878	0.000578	5.777213	1.957373	0.000231
1912	1.9014e+02	-3.8694	-48.609133	0.000476	4.763667	1.613974	0.000191
1913	1.9024e+02	-3.8357	-48.370942	0.000598	5.979922	2.026053	0.000239
1914	1.9034e+02	-3.7892	-48.144862	0.000568	5.675858	1.923033	0.000227
1915	1.9044e+02	-3.7491	-47.947043	0.000497	4.966376	1.682654	0.000199
1916	1.9054e+02	-3.6962	-47.676554	0.000679	6.790759	2.300772	0.000272
1917	1.9064e+02	-3.6737	-47.551403	0.000314	3.141993	1.064536	0.000126
1918	1.9074e+02	-3.6304	-47.260730	0.000730	7.297532	2.472471	0.000292
1919	1.9084e+02	-3.5823	-47.058873	0.000507	5.067731	1.716994	0.000203
1920	1.9094e+02	-3.5534	-46.857016	0.000507	5.067731	1.716994	0.000203
1921	1.9104e+02	-3.5117	-46.602676	0.000639	6.385341	2.163412	0.000256
1922	1.9114e+02	-3.4635	-46.388708	0.000537	5.371795	1.820013	0.000215
1923	1.9124e+02	-3.4363	-46.211074	0.000446	4.459603	1.510954	0.000179
1924	1.9134e+02	-3.3833	-45.964809	0.000618	6.182632	2.094732	0.000248
1925	1.9144e+02	-3.3577	-45.722581	0.000608	6.081277	2.060392	0.000243
1926	1.9154e+02	-3.3111	-45.565133	0.000395	3.952830	1.339255	0.000158
1927	1.9164e+02	-3.2694	-45.290607	0.000689	6.892114	2.335111	0.000276
1928	1.9174e+02	-3.2277	-45.072602	0.000547	5.473149	1.854353	0.000219
1929	1.9184e+02	-3.1828	-44.894968	0.000446	4.459603	1.510954	0.000179
1930	1.9194e+02	-3.1443	-44.632554	0.000659	6.588050	2.232092	0.000264
1931	1.9203e+02	-3.1042	-44.454920	0.000446	4.459603	1.510954	0.000179
1932	1.9213e+02	-3.0657	-44.216729	0.000598	5.979922	2.026053	0.000239
1933	1.9223e+02	-3.0272	-43.990650	0.000568	5.675858	1.923033	0.000227
1934	1.9233e+02	-2.9871	-43.740347	0.000628	6.283986	2.129072	0.000252
1935	1.9243e+02	-2.9486	-43.558676	0.000456	4.560958	1.545294	0.000183
1936	1.9253e+02	-2.9165	-43.300299	0.000649	6.486695	2.197752	0.000260
1937	1.9263e+02	-2.8716	-43.114591	0.000466	4.662312	1.579634	0.000187
1938	1.9273e+02	-2.8283	-42.884474	0.000578	5.777213	1.957373	0.000231
1939	1.9283e+02	-2.7914	-42.682618	0.000507	5.067731	1.716994	0.000203
1940	1.9293e+02	-2.7545	-42.448464	0.000588	5.878568	1.991713	0.000235
1941	1.9303e+02	-2.7192	-42.218347	0.000578	5.777213	1.957373	0.000231
1942	1.9313e+02	-2.6678	-41.984193	0.000588	5.878568	1.991713	0.000235
1943	1.9323e+02	-2.6309	-41.754076	0.000578	5.777213	1.957373	0.000231
1944	1.9333e+02	-2.5860	-41.536071	0.000547	5.473149	1.854353	0.000219
1945	1.9343e+02	-2.5555	-41.346326	0.000476	4.763667	1.613974	0.000191
1946	1.9353e+02	-2.5138	-41.091986	0.000639	6.385341	2.163412	0.000256
1947	1.9363e+02	-2.4721	-40.898204	0.000487	4.865022	1.648314	0.000195
1948	1.9373e+02	-2.4288	-40.639827	0.000649	6.486695	2.197752	0.000260
1949	1.9383e+02	-2.3983	-40.425859	0.000537	5.371795	1.820013	0.000215
1950	1.9393e+02	-2.3566	-40.236113	0.000476	4.763667	1.613974	0.000191
1951	1.9403e+02	-2.3101	-39.989848	0.000618	6.182632	2.094732	0.000248
1952	1.9412e+02	-2.2716	-39.767806	0.000557	5.574504	1.888693	0.000223
1953	1.9422e+02	-2.2331	-39.565949	0.000507	5.067731	1.716994	0.000203
1954	1.9432e+02	-2.1914	-39.339869	0.000568	5.675858	1.923033	0.000227
1955	1.9442e+02	-2.1465	-39.077455	0.000659	6.588050	2.232092	0.000264
1956	1.9452e+02	-2.1096	-38.887710	0.000476	4.763667	1.613974	0.000191
1957	1.9462e+02	-2.0727	-38.645482	0.000608	6.081277	2.060392	0.000243
1958	1.9472e+02	-2.0342	-38.455736	0.000476	4.763667	1.613974	0.000191
1959	1.9482e+02	-1.9957	-38.209471	0.000618	6.182632	2.094732	0.000248
1960	1.9492e+02	-1.9572	-37.955132	0.000639	6.385341	2.163412	0.000256
1961	1.9502e+02	-1.9187	-37.765386	0.000476	4.763667	1.613974	0.000191
1962	1.9512e+02	-1.8705	-37.515084	0.000628	6.283986	2.129072	0.000252
1963	1.9522e+02	-1.8385	-37.301116	0.000537	5.371795	1.820013	0.000215
1964	1.9532e+02	-1.7887	-37.070999	0.000578	5.777213	1.957373	0.000231
1965	1.9542e+02	-1.7582	-36.836845	0.000588	5.878568	1.991713	0.000235
1966	1.9552e+02	-1.7149	-36.626914	0.000527	5.270440	1.785673	0.000211
1967	1.9562e+02	-1.6812	-36.388723	0.000598	5.979922	2.026053	0.000239
1968	1.9572e+02	-1.6443	-36.186866	0.000507	5.067731	1.716994	0.000203
1969	1.9582e+02	-1.5962	-35.916378	0.000679	6.790759	2.300772	0.000272
1970	1.9592e+02	-1.5577	-35.690298	0.000568	5.675858	1.923033	0.000227
1971	1.9601e+02	-1.5224	-35.500553	0.000476	4.763667	1.613974	0.000191
1972	1.9611e+02	-1.4759	-35.286585	0.000537	5.371795	1.820013	0.000215
1973	1.9621e+02	-1.4406	-35.064542	0.000557	5.574504	1.888693	0.000223
1974	1.9631e+02	-1.3845	-34.846537	0.000547	5.473149	1.854353	0.000219
1975	1.9641e+02	-1.3524	-34.551826	0.000740	7.398887	2.506811	0.000296
1976	1.9651e+02	-1.3203	-34.358044	0.000487	4.865022	1.648314	0.000195
1977	1.9661e+02	-1.2738	-34.107741	0.000628	6.283986	2.129072	0.000252
1978	1.9671e+02	-1.2288	-33.913959	0.000487	4.865022	1.648314	0.000195
1979	1.9681e+02	-1.1952	-33.679805	0.000588	5.878568	1.991713	0.000235
1980	1.9691e+02	-1.1599	-33.413354	0.000669	6.689405	2.266432	0.000268
1981	1.9701e+02	-1.1165	-33.215534	0.000497	4.966376	1.682654	0.000199
1982	1.9711e+02	-1.0780	-32.985418	0.000578	5.777213	1.957373	0.000231
1983	1.9721e+02	-1.0299	-32.799709	0.000466	4.662312	1.579634	0.000187
1984	1.9731e+02	-0.9914	-32.541333	0.000649	6.486695	2.197752	0.000260
1985	1.9741e+02	-0.9561	-32.270845	0.000679	6.790759	2.300772	0.000272
1986	1.9751e+02	-0.9224	-32.056876	0.000537	5.371795	1.820013	0.000215
1987	1.9761e+02	-0.8695	-31.830797	0.000568	5.675858	1.923033	0.000227
1988	1.9771e+02	-0.8358	-31.637014	0.000487	4.865022	1.648314	0.000195
1989	1.9781e+02	-0.8005	-31.390749	0.000618	6.182632	2.094732	0.000248
1990	1.9791e+02	-0.7572	-31.168706	0.000557	5.574504	1.888693	0.000223
1991	1.9800e+02	-0.7107	-30.922441	0.000618	6.182632	2.094732	0.000248
1992	1.9810e+02	-0.6722	-30.680213	0.000608	6.081277	2.060392	0.000243
1993	1.9820e+02	-0.6385	-30.498542	0.000456	4.560958	1.545294	0.000183
1994	1.9830e+02	-0.5984	-30.219980	0.000699	6.993468	2.369451	0.000280
1995	1.9840e+02	-0.5519	-29.973714	0.000618	6.182632	2.094732	0.000248
1996	1.9850e+02	-0.5182	-29.775895	0.000497	4.966376	1.682654	0.000199
1997	1.9860e+02	-0.4781	-29.533666	0.000608	6.081277	2.060392	0.000243
1998	1.9870e+02	-0.4476	-29.283364	0.000628	6.283986	2.129072	0.000252
1999	1.9880e+02	-0.3962	-29.089582	0.000487	4.865022	1.648314	0.000195
2000	1.9890e+02	-0.3577	-28.847353	0.000608	6.081277	2.060392	0.000243
2001	1.9900e+02	-0.3273	-28.645497	0.000507	5.067731	1.716994	0.000203
2002	1.9910e+02	-0.2711	-28.419417	0.000568	5.675858	1.923033	0.000227
2003	1.9920e+02	-0.2294	-28.124706	0.000740	7.398887	2.506811	0.000296
2004	1.9930e+02	-0.1957	-27.975332	0.000375	3.750121	1.270575	0.000150
2005	1.9940e+02	-0.1604	-27.745215	0.000578	5.777213	1.957373	0.000231
2006	1.9950e+02	-0.1332	-27.498950	0.000618	6.182632	2.094732	0.000248
2007	1.9960e+02	-0.0786	-27.244611	0.000639	6.385341	2.163412	0.000256
2008	1.9970e+02	-0.0433	-27.022568	0.000557	5.574504	1.888693	0.000223
2009	1.9980e+02	0.0032	-26.820711	0.000557	5.574504	1.888693	0.000203

PMax (uC/cm2):	1.13e+02
Pr (uC/cm2):	6.67e+00
-Pr (uC/cm2):	-2.74e+01
PLoss (uC/cm2):	-2.74e+01
-Vc:	-1.16e+00
C (Max-Eff) (nF):	5.65e-01
K (Eff):	1.91e+03
Vert. (+/-Pr) Shift (uC/cm2):	-1.04e+01
Offset (uC/cm2):	-6.28e-01

A (Loop Area - uC/cm2·Volts):	-1.11e-01



Hysteresis Version: 5.48.1 - Radiant Technologies, Inc., 1999 - 9/12/24

