»»»»»»»»»»»»»»»»»»»»»»»»»»»»»»»»»»»» Hysteresis ««««««««««««««««««««««««««««««««««««
»»»  Executed Version:	5.48.1
»»»  Vision Version:	5.48.4 (R)
»»»  Vision Compiled:	9/18/24
»»»  Driver Version:	5.47.0
»»»  Windows Version:	Windows 8 or 8.1
»»»  Processor Information:	x86 (AMD or Intel) - 32 Processors
»»»  Tester Name:	PMF21124-494 (100V)
»»»  Tester S/N:	PMF21124-494
»»»  Internal Amp Type:	100V RevK 270k
»»»  Internal Amp S/N:	iAB2-596/K     
»»»  Execution Count:	1
»»»»»»»»»»»»»»»»»»»»»»»»»»»»»»»»»»»»»»»»»»««««««««««««««««««««««««««««««««««««««««««

Stored:	6/18/2025 - 15:2:37
Configured:	06/18/25 09:47:30 AM
Executed:	06/18/25 03:02:08 PM

»»»»»»»»»»»»»»»»»»»»»»»»»»»»»»»»»»» Sample Info ««««««««««««««««««««««««««««««««««««
Sample Name:	
Lot Name:	
Wafer Name:	
Die Row/Column:	0/0
Capacitor Number:	0
Sample Area (cm2):	1.00e-04
Sample Thickness (microns):	3.00e-01

Amplifier:	Internal

»»»»»»»»»»»»»»»»»»»»»»»»»»»»»»»»»»» Tester Info «««««««««««««««««««««««««««««««««««
Tester Name:	PMF21124-494 (100V)
Tester Serial Number:	PMF21124-494
Return Signal Amp. Level:	0.19 [Index: 3]

»»»»»»»»»»»»»»»»»»»»»»»»»»»»»»»» Hysteresis Info ««««««««««««««««««««««««««««««««««
Task Name:	Hyst-554
Volts:	20.00
Field:	666.67 (kV/cm)
DCBias:	0.00
DCField:	0.00 (kV/cm)
Hysteresis Period (ms):	2.00e+02
Preset:	Enabled
Preset Delay (ms):	1.00e+03
Profile:	Standard Bipolar

»»»»»»»»»»»»»»»»»»»»»»»»»»»»»»»»»»»»»» Data «««««««««««««««««««««««««««««««««««««««
Points:	2009

Valid Data

Point	Time (ms)	Drive Voltage	Measured Polarization (uC/cm2)	Capacitance (uF)	Normalized Capacitance (uF/cm2)	Dielectric Constant	Instantaneous Current (mA)
   1	0.0000e+00	0.0016	-3.994746	0.000436	4.357374	1.476318	0.000174
   2	9.9500e-02	0.0385	-3.821149	0.000436	4.357374	1.476318	0.000174
   3	1.9900e-01	0.0786	-3.647552	0.000436	4.357374	1.476318	0.000174
   4	2.9850e-01	0.1155	-3.413398	0.000588	5.877389	1.991313	0.000235
   5	3.9800e-01	0.1556	-3.247876	0.000415	4.154706	1.407652	0.000166
   6	4.9750e-01	0.1941	-3.021796	0.000567	5.674720	1.922647	0.000227
   7	5.9700e-01	0.2406	-2.876459	0.000365	3.648034	1.235988	0.000146
   8	6.9650e-01	0.2807	-2.626157	0.000628	6.282726	2.128645	0.000252
   9	7.9600e-01	0.3144	-2.432374	0.000486	4.864046	1.647983	0.000195
  10	8.9550e-01	0.3561	-2.262815	0.000426	4.256040	1.441985	0.000170
  11	9.9500e-01	0.3930	-2.093255	0.000426	4.256040	1.441985	0.000170
  12	1.0945e+00	0.4364	-1.834878	0.000649	6.485395	2.197311	0.000260
  13	1.1940e+00	0.4797	-1.637059	0.000497	4.965380	1.682316	0.000199
  14	1.2935e+00	0.5198	-1.427127	0.000527	5.269383	1.785315	0.000211
  15	1.3930e+00	0.5599	-1.261605	0.000415	4.154706	1.407652	0.000166
  16	1.4925e+00	0.5968	-1.023414	0.000598	5.978723	2.025646	0.000239
  17	1.5920e+00	0.6369	-0.857891	0.000415	4.154706	1.407652	0.000166
  18	1.6915e+00	0.6802	-0.627775	0.000578	5.776055	1.956980	0.000231
  19	1.7910e+00	0.7139	-0.450141	0.000446	4.458709	1.510651	0.000179
  20	1.8905e+00	0.7492	-0.240210	0.000527	5.269383	1.785315	0.000211
  21	1.9900e+00	0.7957	-0.054501	0.000466	4.661377	1.579317	0.000187
  22	2.0895e+00	0.8294	0.159467	0.000537	5.370717	1.819648	0.000215
  23	2.1890e+00	0.8711	0.385546	0.000567	5.674720	1.922647	0.000227
  24	2.2885e+00	0.9112	0.591440	0.000517	5.168049	1.750982	0.000207
  25	2.3880e+00	0.9497	0.809446	0.000547	5.472052	1.853981	0.000219
  26	2.4875e+00	0.9914	0.991117	0.000456	4.560043	1.544984	0.000183
  27	2.5870e+00	1.0395	1.209122	0.000547	5.472052	1.853981	0.000219
  28	2.6865e+00	1.0748	1.386756	0.000446	4.458709	1.510651	0.000179
  29	2.7860e+00	1.1085	1.624947	0.000598	5.978723	2.025646	0.000239
  30	2.8855e+00	1.1454	1.851027	0.000567	5.674720	1.922647	0.000227
  31	2.9850e+00	1.1968	2.048846	0.000497	4.965380	1.682316	0.000199
  32	3.0845e+00	1.2256	2.226480	0.000446	4.458709	1.510651	0.000179
  33	3.1840e+00	1.2770	2.428337	0.000507	5.066715	1.716649	0.000203
  34	3.2835e+00	1.3010	2.694788	0.000669	6.688063	2.265977	0.000268
  35	3.3830e+00	1.3492	2.896645	0.000507	5.066715	1.716649	0.000203
  36	3.4825e+00	1.3877	3.098502	0.000507	5.066715	1.716649	0.000203
  37	3.5820e+00	1.4214	3.284210	0.000466	4.661377	1.579317	0.000187
  38	3.6815e+00	1.4679	3.490104	0.000517	5.168049	1.750982	0.000207
  39	3.7810e+00	1.5144	3.704072	0.000537	5.370717	1.819648	0.000215
  40	3.8805e+00	1.5449	3.926115	0.000557	5.573386	1.888314	0.000223
  41	3.9800e+00	1.5978	4.176417	0.000628	6.282726	2.128645	0.000252
  42	4.0795e+00	1.6331	4.341939	0.000415	4.154706	1.407652	0.000166
  43	4.1790e+00	1.6716	4.584168	0.000608	6.080057	2.059979	0.000243
  44	4.2785e+00	1.7133	4.810247	0.000567	5.674720	1.922647	0.000227
  45	4.3780e+00	1.7502	4.963658	0.000385	3.850703	1.304654	0.000154
  46	4.4775e+00	1.7919	5.201849	0.000598	5.978723	2.025646	0.000239
  47	4.5770e+00	1.8256	5.395632	0.000486	4.864046	1.647983	0.000195
  48	4.6765e+00	1.8786	5.601526	0.000517	5.168049	1.750982	0.000207
  49	4.7760e+00	1.9042	5.827605	0.000567	5.674720	1.922647	0.000227
  50	4.8755e+00	1.9411	6.005239	0.000446	4.458709	1.510651	0.000179
  51	4.9750e+00	1.9941	6.247468	0.000608	6.080057	2.059979	0.000243
  52	5.0745e+00	2.0278	6.465473	0.000547	5.472052	1.853981	0.000219
  53	5.1740e+00	2.0695	6.687515	0.000557	5.573386	1.888314	0.000223
  54	5.2735e+00	2.0951	6.849001	0.000405	4.053372	1.373319	0.000162
  55	5.3730e+00	2.1529	7.103340	0.000638	6.384060	2.162978	0.000256
  56	5.4725e+00	2.1898	7.305197	0.000507	5.066715	1.716649	0.000203
  57	5.5720e+00	2.2267	7.551462	0.000618	6.181392	2.094312	0.000248
  58	5.6715e+00	2.2684	7.753319	0.000507	5.066715	1.716649	0.000203
  59	5.7710e+00	2.3085	7.918842	0.000415	4.154706	1.407652	0.000166
  60	5.8705e+00	2.3406	8.157033	0.000598	5.978723	2.025646	0.000239
  61	5.9700e+00	2.3935	8.383112	0.000567	5.674720	1.922647	0.000227
  62	6.0695e+00	2.4224	8.572858	0.000476	4.762712	1.613650	0.000191
  63	6.1690e+00	2.4689	8.774715	0.000507	5.066715	1.716649	0.000203
  64	6.2685e+00	2.5058	9.045203	0.000679	6.789397	2.300310	0.000272
  65	6.3680e+00	2.5475	9.234948	0.000476	4.762712	1.613650	0.000191
  66	6.4675e+00	2.5828	9.452953	0.000547	5.472052	1.853981	0.000219
  67	6.5670e+00	2.6293	9.650773	0.000497	4.965380	1.682316	0.000199
  68	6.6665e+00	2.6630	9.884927	0.000588	5.877389	1.991313	0.000235
  69	6.7660e+00	2.7063	10.094858	0.000527	5.269383	1.785315	0.000211
  70	6.8655e+00	2.7545	10.320938	0.000567	5.674720	1.922647	0.000227
  71	6.9650e+00	2.7849	10.530869	0.000527	5.269383	1.785315	0.000211
  72	7.0645e+00	2.8315	10.740800	0.000527	5.269383	1.785315	0.000211
  73	7.1640e+00	2.8700	10.974954	0.000588	5.877389	1.991313	0.000235
  74	7.2635e+00	2.9021	11.168736	0.000486	4.864046	1.647983	0.000195
  75	7.3630e+00	2.9470	11.386741	0.000547	5.472052	1.853981	0.000219
  76	7.4625e+00	2.9759	11.628969	0.000608	6.080057	2.059979	0.000243
  77	7.5620e+00	3.0176	11.855049	0.000567	5.674720	1.922647	0.000227
  78	7.6615e+00	3.0721	12.064980	0.000527	5.269383	1.785315	0.000211
  79	7.7610e+00	3.1042	12.266837	0.000507	5.066715	1.716649	0.000203
  80	7.8605e+00	3.1427	12.492917	0.000567	5.674720	1.922647	0.000227
  81	7.9600e+00	3.1860	12.755330	0.000659	6.586729	2.231644	0.000264
  82	8.0595e+00	3.2261	12.908742	0.000385	3.850703	1.304654	0.000154
  83	8.1590e+00	3.2662	13.146933	0.000598	5.978723	2.025646	0.000239
  84	8.2585e+00	3.3047	13.393198	0.000618	6.181392	2.094312	0.000248
  85	8.3580e+00	3.3432	13.570832	0.000446	4.458709	1.510651	0.000179
  86	8.4575e+00	3.3785	13.768651	0.000497	4.965380	1.682316	0.000199
  87	8.5570e+00	3.4315	14.043177	0.000689	6.890732	2.334643	0.000276
  88	8.6565e+00	3.4523	14.285405	0.000608	6.080057	2.059979	0.000243
  89	8.7560e+00	3.5004	14.487262	0.000507	5.066715	1.716649	0.000203
  90	8.8555e+00	3.5438	14.701230	0.000537	5.370717	1.819648	0.000215
  91	8.9550e+00	3.5871	14.919235	0.000547	5.472052	1.853981	0.000219
  92	9.0545e+00	3.6191	15.145315	0.000567	5.674720	1.922647	0.000227
  93	9.1540e+00	3.6625	15.371394	0.000567	5.674720	1.922647	0.000227
  94	9.2535e+00	3.6978	15.581325	0.000527	5.269383	1.785315	0.000211
  95	9.3530e+00	3.7395	15.811442	0.000578	5.776055	1.956980	0.000231
  96	9.4525e+00	3.7828	15.976965	0.000415	4.154706	1.407652	0.000166
  97	9.5520e+00	3.8229	16.255527	0.000699	6.992066	2.368976	0.000280
  98	9.6515e+00	3.8662	16.497755	0.000608	6.080057	2.059979	0.000243
  99	9.7510e+00	3.8967	16.707686	0.000527	5.269383	1.785315	0.000211
 100	9.8505e+00	3.9336	16.929729	0.000557	5.573386	1.888314	0.000223
 101	9.9500e+00	3.9849	17.159845	0.000578	5.776055	1.956980	0.000231
 102	1.0050e+01	4.0106	17.349591	0.000476	4.762712	1.613650	0.000191
 103	1.0149e+01	4.0507	17.575670	0.000567	5.674720	1.922647	0.000227
 104	1.0248e+01	4.1004	17.805787	0.000578	5.776055	1.956980	0.000231
 105	1.0348e+01	4.1437	18.068201	0.000659	6.586729	2.231644	0.000264
 106	1.0447e+01	4.1887	18.253909	0.000466	4.661377	1.579317	0.000187
 107	1.0547e+01	4.2191	18.435580	0.000456	4.560043	1.544984	0.000183
 108	1.0646e+01	4.2592	18.718180	0.000709	7.093400	2.403309	0.000284
 109	1.0746e+01	4.2977	18.924074	0.000517	5.168049	1.750982	0.000207
 110	1.0845e+01	4.3378	19.146116	0.000557	5.573386	1.888314	0.000223
 111	1.0945e+01	4.3731	19.356047	0.000527	5.269383	1.785315	0.000211
 112	1.1044e+01	4.4197	19.606350	0.000628	6.282726	2.128645	0.000252
 113	1.1144e+01	4.4582	19.812244	0.000517	5.168049	1.750982	0.000207
 114	1.1243e+01	4.4983	20.054472	0.000608	6.080057	2.059979	0.000243
 115	1.1343e+01	4.5384	20.252291	0.000497	4.965380	1.682316	0.000199
 116	1.1443e+01	4.5833	20.470297	0.000547	5.472052	1.853981	0.000219
 117	1.1542e+01	4.6234	20.680228	0.000527	5.269383	1.785315	0.000211
 118	1.1642e+01	4.6603	20.902270	0.000557	5.573386	1.888314	0.000223
 119	1.1741e+01	4.6972	21.164684	0.000659	6.586729	2.231644	0.000264
 120	1.1841e+01	4.7405	21.366541	0.000507	5.066715	1.716649	0.000203
 121	1.1940e+01	4.7854	21.628955	0.000659	6.586729	2.231644	0.000264
 122	1.2040e+01	4.8175	21.838886	0.000527	5.269383	1.785315	0.000211
 123	1.2139e+01	4.8608	22.040743	0.000507	5.066715	1.716649	0.000203
 124	1.2239e+01	4.8993	22.315268	0.000689	6.890732	2.334643	0.000276
 125	1.2338e+01	4.9507	22.500976	0.000466	4.661377	1.579317	0.000187
 126	1.2438e+01	4.9827	22.739167	0.000598	5.978723	2.025646	0.000239
 127	1.2537e+01	5.0100	22.920838	0.000456	4.560043	1.544984	0.000183
 128	1.2636e+01	5.0646	23.203438	0.000709	7.093400	2.403309	0.000284
 129	1.2736e+01	5.1111	23.397220	0.000486	4.864046	1.647983	0.000195
 130	1.2835e+01	5.1384	23.635411	0.000598	5.978723	2.025646	0.000239
 131	1.2935e+01	5.1672	23.889751	0.000638	6.384060	2.162978	0.000256
 132	1.3034e+01	5.2122	24.087570	0.000497	4.965380	1.682316	0.000199
 133	1.3134e+01	5.2523	24.277316	0.000476	4.762712	1.613650	0.000191
 134	1.3233e+01	5.2956	24.515507	0.000598	5.978723	2.025646	0.000239
 135	1.3333e+01	5.3309	24.777921	0.000659	6.586729	2.231644	0.000264
 136	1.3432e+01	5.3710	24.995926	0.000547	5.472052	1.853981	0.000219
 137	1.3532e+01	5.4191	25.262377	0.000669	6.688063	2.265977	0.000268
 138	1.3632e+01	5.4544	25.440011	0.000446	4.458709	1.510651	0.000179
 139	1.3731e+01	5.4977	25.686276	0.000618	6.181392	2.094312	0.000248
 140	1.3831e+01	5.5362	25.912356	0.000567	5.674720	1.922647	0.000227
 141	1.3930e+01	5.5699	26.154584	0.000608	6.080057	2.059979	0.000243
 142	1.4030e+01	5.6148	26.324144	0.000426	4.256040	1.441985	0.000170
 143	1.4129e+01	5.6565	26.602706	0.000699	6.992066	2.368976	0.000280
 144	1.4229e+01	5.6918	26.828786	0.000567	5.674720	1.922647	0.000227
 145	1.4328e+01	5.7367	27.079088	0.000628	6.282726	2.128645	0.000252
 146	1.4428e+01	5.7784	27.248648	0.000426	4.256040	1.441985	0.000170
 147	1.4527e+01	5.8169	27.515099	0.000669	6.688063	2.265977	0.000268
 148	1.4627e+01	5.8490	27.704844	0.000476	4.762712	1.613650	0.000191
 149	1.4726e+01	5.8956	27.955146	0.000628	6.282726	2.128645	0.000252
 150	1.4825e+01	5.9196	28.140855	0.000466	4.661377	1.579317	0.000187
 151	1.4925e+01	5.9854	28.407306	0.000669	6.688063	2.265977	0.000268
 152	1.5024e+01	6.0127	28.637422	0.000578	5.776055	1.956980	0.000231
 153	1.5124e+01	6.0560	28.887725	0.000628	6.282726	2.128645	0.000252
 154	1.5223e+01	6.0881	29.105730	0.000547	5.472052	1.853981	0.000219
 155	1.5323e+01	6.1346	29.311624	0.000517	5.168049	1.750982	0.000207
 156	1.5422e+01	6.1715	29.529629	0.000547	5.472052	1.853981	0.000219
 157	1.5522e+01	6.2132	29.775895	0.000618	6.181392	2.094312	0.000248
 158	1.5621e+01	6.2485	29.997937	0.000557	5.573386	1.888314	0.000223
 159	1.5721e+01	6.2870	30.268425	0.000679	6.789397	2.300310	0.000272
 160	1.5820e+01	6.3399	30.462208	0.000486	4.864046	1.647983	0.000195
 161	1.5920e+01	6.3768	30.672139	0.000527	5.269383	1.785315	0.000211
 162	1.6020e+01	6.4153	30.878033	0.000517	5.168049	1.750982	0.000207
 163	1.6119e+01	6.4506	31.172744	0.000740	7.397403	2.506308	0.000296
 164	1.6218e+01	6.5004	31.362489	0.000476	4.762712	1.613650	0.000191
 165	1.6318e+01	6.5292	31.540123	0.000446	4.458709	1.510651	0.000179
 166	1.6418e+01	6.5709	31.794463	0.000638	6.384060	2.162978	0.000256
 167	1.6517e+01	6.6030	32.028616	0.000588	5.877389	1.991313	0.000235
 168	1.6616e+01	6.6415	32.262770	0.000588	5.877389	1.991313	0.000235
 169	1.6716e+01	6.6816	32.509036	0.000618	6.181392	2.094312	0.000248
 170	1.6816e+01	6.7330	32.702818	0.000486	4.864046	1.647983	0.000195
 171	1.6915e+01	6.7650	32.924861	0.000557	5.573386	1.888314	0.000223
 172	1.7015e+01	6.8148	33.183237	0.000649	6.485395	2.197311	0.000260
 173	1.7114e+01	6.8565	33.385094	0.000507	5.066715	1.716649	0.000203
 174	1.7213e+01	6.8934	33.635396	0.000628	6.282726	2.128645	0.000252
 175	1.7313e+01	6.9319	33.865513	0.000578	5.776055	1.956980	0.000231
 176	1.7413e+01	6.9688	34.075444	0.000527	5.269383	1.785315	0.000211
 177	1.7512e+01	7.0121	34.321709	0.000618	6.181392	2.094312	0.000248
 178	1.7611e+01	7.0442	34.515492	0.000486	4.864046	1.647983	0.000195
 179	1.7711e+01	7.0939	34.757720	0.000608	6.080057	2.059979	0.000243
 180	1.7811e+01	7.1228	34.975725	0.000547	5.472052	1.853981	0.000219
 181	1.7910e+01	7.1613	35.221991	0.000618	6.181392	2.094312	0.000248
 182	1.8009e+01	7.2062	35.460182	0.000598	5.978723	2.025646	0.000239
 183	1.8109e+01	7.2495	35.694336	0.000588	5.877389	1.991313	0.000235
 184	1.8209e+01	7.2880	35.867932	0.000436	4.357374	1.476318	0.000174
 185	1.8308e+01	7.3265	36.114198	0.000618	6.181392	2.094312	0.000248
 186	1.8407e+01	7.3747	36.324129	0.000527	5.269383	1.785315	0.000211
 187	1.8507e+01	7.4132	36.554246	0.000578	5.776055	1.956980	0.000231
 188	1.8607e+01	7.4501	36.776288	0.000557	5.573386	1.888314	0.000223
 189	1.8706e+01	7.4773	37.054850	0.000699	6.992066	2.368976	0.000280
 190	1.8805e+01	7.5271	37.244596	0.000476	4.762712	1.613650	0.000191
 191	1.8905e+01	7.5607	37.478750	0.000588	5.877389	1.991313	0.000235
 192	1.9005e+01	7.5993	37.708866	0.000578	5.776055	1.956980	0.000231
 193	1.9104e+01	7.6410	37.934946	0.000567	5.674720	1.922647	0.000227
 194	1.9203e+01	7.6875	38.185248	0.000628	6.282726	2.128645	0.000252
 195	1.9303e+01	7.7292	38.415365	0.000578	5.776055	1.956980	0.000231
 196	1.9402e+01	7.7581	38.609148	0.000486	4.864046	1.647983	0.000195
 197	1.9502e+01	7.8062	38.839264	0.000578	5.776055	1.956980	0.000231
 198	1.9602e+01	7.8463	39.065344	0.000567	5.674720	1.922647	0.000227
 199	1.9701e+01	7.8848	39.343906	0.000699	6.992066	2.368976	0.000280
 200	1.9800e+01	7.9153	39.541726	0.000497	4.965380	1.682316	0.000199
 201	1.9900e+01	7.9618	39.775880	0.000588	5.877389	1.991313	0.000235
 202	2.0000e+01	8.0099	39.989848	0.000537	5.370717	1.819648	0.000215
 203	2.0099e+01	8.0388	40.240150	0.000628	6.282726	2.128645	0.000252
 204	2.0198e+01	8.0853	40.462193	0.000557	5.573386	1.888314	0.000223
 205	2.0298e+01	8.1142	40.676161	0.000537	5.370717	1.819648	0.000215
 206	2.0398e+01	8.1736	40.914352	0.000598	5.978723	2.025646	0.000239
 207	2.0497e+01	8.1960	41.164655	0.000628	6.282726	2.128645	0.000252
 208	2.0596e+01	8.2409	41.338251	0.000436	4.357374	1.476318	0.000174
 209	2.0696e+01	8.2859	41.608739	0.000679	6.789397	2.300310	0.000272
 210	2.0796e+01	8.3244	41.834819	0.000567	5.674720	1.922647	0.000227
 211	2.0895e+01	8.3693	42.024564	0.000476	4.762712	1.613650	0.000191
 212	2.0994e+01	8.3998	42.282941	0.000649	6.485395	2.197311	0.000260
 213	2.1094e+01	8.4447	42.488835	0.000517	5.168049	1.750982	0.000207
 214	2.1194e+01	8.4800	42.710878	0.000557	5.573386	1.888314	0.000223
 215	2.1293e+01	8.5217	42.953106	0.000608	6.080057	2.059979	0.000243
 216	2.1392e+01	8.5618	43.179185	0.000567	5.674720	1.922647	0.000227
 217	2.1492e+01	8.6019	43.368931	0.000476	4.762712	1.613650	0.000191
 218	2.1591e+01	8.6404	43.603085	0.000588	5.877389	1.991313	0.000235
 219	2.1691e+01	8.6741	43.813016	0.000527	5.269383	1.785315	0.000211
 220	2.1791e+01	8.7222	44.087541	0.000689	6.890732	2.334643	0.000276
 221	2.1890e+01	8.7671	44.277286	0.000476	4.762712	1.613650	0.000191
 222	2.1989e+01	8.8040	44.535663	0.000649	6.485395	2.197311	0.000260
 223	2.2089e+01	8.8441	44.761742	0.000567	5.674720	1.922647	0.000227
 224	2.2189e+01	8.8858	44.963599	0.000507	5.066715	1.716649	0.000203
 225	2.2288e+01	8.9115	45.189679	0.000567	5.674720	1.922647	0.000227
 226	2.2387e+01	8.9628	45.452093	0.000659	6.586729	2.231644	0.000264
 227	2.2487e+01	8.9965	45.657987	0.000517	5.168049	1.750982	0.000207
 228	2.2587e+01	9.0382	45.920400	0.000659	6.586729	2.231644	0.000264
 229	2.2686e+01	9.0784	46.106109	0.000466	4.661377	1.579317	0.000187
 230	2.2785e+01	9.1120	46.275668	0.000426	4.256040	1.441985	0.000170
 231	2.2885e+01	9.1554	46.554231	0.000699	6.992066	2.368976	0.000280
 232	2.2985e+01	9.2067	46.796459	0.000608	6.080057	2.059979	0.000243
 233	2.3084e+01	9.2388	46.994279	0.000497	4.965380	1.682316	0.000199
 234	2.3183e+01	9.2757	47.236507	0.000608	6.080057	2.059979	0.000243
 235	2.3283e+01	9.3222	47.418178	0.000456	4.560043	1.544984	0.000183
 236	2.3383e+01	9.3607	47.652332	0.000588	5.877389	1.991313	0.000235
 237	2.3482e+01	9.4056	47.882448	0.000578	5.776055	1.956980	0.000231
 238	2.3581e+01	9.4377	48.104491	0.000557	5.573386	1.888314	0.000223
 239	2.3681e+01	9.4842	48.346719	0.000608	6.080057	2.059979	0.000243
 240	2.3780e+01	9.5131	48.556650	0.000527	5.269383	1.785315	0.000211
 241	2.3880e+01	9.5548	48.786767	0.000578	5.776055	1.956980	0.000231
 242	2.3980e+01	9.6061	49.057255	0.000679	6.789397	2.300310	0.000272
 243	2.4079e+01	9.6382	49.275260	0.000547	5.472052	1.853981	0.000219
 244	2.4178e+01	9.6799	49.481154	0.000517	5.168049	1.750982	0.000207
 245	2.4278e+01	9.7136	49.687048	0.000517	5.168049	1.750982	0.000207
 246	2.4378e+01	9.7521	49.933313	0.000618	6.181392	2.094312	0.000248
 247	2.4477e+01	9.8035	50.167467	0.000588	5.877389	1.991313	0.000235
 248	2.4576e+01	9.8372	50.365287	0.000497	4.965380	1.682316	0.000199
 249	2.4676e+01	9.8757	50.587329	0.000557	5.573386	1.888314	0.000223
 250	2.4776e+01	9.9142	50.865892	0.000699	6.992066	2.368976	0.000280
 251	2.4875e+01	9.9623	51.031414	0.000415	4.154706	1.407652	0.000166
 252	2.4974e+01	9.9976	51.285754	0.000638	6.384060	2.162978	0.000256
 253	2.5074e+01	10.0377	51.511833	0.000567	5.674720	1.922647	0.000227
 254	2.5174e+01	10.0746	51.733876	0.000557	5.573386	1.888314	0.000223
 255	2.5273e+01	10.1147	51.903436	0.000426	4.256040	1.441985	0.000170
 256	2.5372e+01	10.1580	52.149701	0.000618	6.181392	2.094312	0.000248
 257	2.5472e+01	10.1853	52.391929	0.000608	6.080057	2.059979	0.000243
 258	2.5572e+01	10.2398	52.613972	0.000557	5.573386	1.888314	0.000223
 259	2.5671e+01	10.2799	52.819865	0.000517	5.168049	1.750982	0.000207
 260	2.5770e+01	10.3184	53.086316	0.000669	6.688063	2.265977	0.000268
 261	2.5870e+01	10.3569	53.344693	0.000649	6.485395	2.197311	0.000260
 262	2.5970e+01	10.4051	53.510216	0.000415	4.154706	1.407652	0.000166
 263	2.6069e+01	10.4323	53.716110	0.000517	5.168049	1.750982	0.000207
 264	2.6169e+01	10.4756	53.950263	0.000588	5.877389	1.991313	0.000235
 265	2.6268e+01	10.5141	54.200566	0.000628	6.282726	2.128645	0.000252
 266	2.6367e+01	10.5494	54.398386	0.000497	4.965380	1.682316	0.000199
 267	2.6467e+01	10.6008	54.636577	0.000598	5.978723	2.025646	0.000239
 268	2.6567e+01	10.6248	54.874768	0.000598	5.978723	2.025646	0.000239
 269	2.6666e+01	10.6778	55.048364	0.000436	4.357374	1.476318	0.000174
 270	2.6765e+01	10.7195	55.326927	0.000699	6.992066	2.368976	0.000280
 271	2.6865e+01	10.7516	55.565118	0.000598	5.978723	2.025646	0.000239
 272	2.6965e+01	10.7933	55.746789	0.000456	4.560043	1.544984	0.000183
 273	2.7064e+01	10.8478	55.952683	0.000517	5.168049	1.750982	0.000207
 274	2.7163e+01	10.8671	56.219134	0.000669	6.688063	2.265977	0.000268
 275	2.7263e+01	10.9184	56.433102	0.000537	5.370717	1.819648	0.000215
 276	2.7363e+01	10.9569	56.647070	0.000537	5.370717	1.819648	0.000215
 277	2.7462e+01	10.9858	56.869113	0.000557	5.573386	1.888314	0.000223
 278	2.7561e+01	11.0339	57.103266	0.000588	5.877389	1.991313	0.000235
 279	2.7661e+01	11.0708	57.329346	0.000567	5.674720	1.922647	0.000227
 280	2.7761e+01	11.1157	57.539277	0.000527	5.269383	1.785315	0.000211
 281	2.7860e+01	11.1494	57.765357	0.000567	5.674720	1.922647	0.000227
 282	2.7959e+01	11.1959	57.987399	0.000557	5.573386	1.888314	0.000223
 283	2.8059e+01	11.2312	58.197330	0.000527	5.269383	1.785315	0.000211
 284	2.8159e+01	11.2713	58.419373	0.000557	5.573386	1.888314	0.000223
 285	2.8258e+01	11.3163	58.637378	0.000547	5.472052	1.853981	0.000219
 286	2.8358e+01	11.3532	58.871532	0.000588	5.877389	1.991313	0.000235
 287	2.8457e+01	11.4029	59.097612	0.000567	5.674720	1.922647	0.000227
 288	2.8556e+01	11.4286	59.343877	0.000618	6.181392	2.094312	0.000248
 289	2.8656e+01	11.4719	59.561882	0.000547	5.472052	1.853981	0.000219
 290	2.8756e+01	11.5072	59.755665	0.000486	4.864046	1.647983	0.000195
 291	2.8855e+01	11.5553	59.965596	0.000527	5.269383	1.785315	0.000211
 292	2.8954e+01	11.5922	60.215898	0.000628	6.282726	2.128645	0.000252
 293	2.9054e+01	11.6307	60.405643	0.000476	4.762712	1.613650	0.000191
 294	2.9154e+01	11.6692	60.651909	0.000618	6.181392	2.094312	0.000248
 295	2.9253e+01	11.7013	60.882025	0.000578	5.776055	1.956980	0.000231
 296	2.9352e+01	11.7558	61.083882	0.000507	5.066715	1.716649	0.000203
 297	2.9452e+01	11.7911	61.301888	0.000547	5.472052	1.853981	0.000219
 298	2.9552e+01	11.8328	61.548153	0.000618	6.181392	2.094312	0.000248
 299	2.9651e+01	11.8713	61.782307	0.000588	5.877389	1.991313	0.000235
 300	2.9750e+01	11.9114	61.959941	0.000446	4.458709	1.510651	0.000179
 301	2.9850e+01	11.9499	62.198132	0.000598	5.978723	2.025646	0.000239
 302	2.9950e+01	11.9788	62.416137	0.000547	5.472052	1.853981	0.000219
 303	3.0049e+01	12.0253	62.609920	0.000486	4.864046	1.647983	0.000195
 304	3.0148e+01	12.0735	62.904631	0.000740	7.397403	2.506308	0.000296
 305	3.0248e+01	12.0991	63.094376	0.000476	4.762712	1.613650	0.000191
 306	3.0348e+01	12.1489	63.300270	0.000517	5.168049	1.750982	0.000207
 307	3.0447e+01	12.1825	63.510201	0.000527	5.269383	1.785315	0.000211
 308	3.0547e+01	12.2339	63.768578	0.000649	6.485395	2.197311	0.000260
 309	3.0646e+01	12.2724	63.982546	0.000537	5.370717	1.819648	0.000215
 310	3.0745e+01	12.3093	64.216700	0.000588	5.877389	1.991313	0.000235
 311	3.0845e+01	12.3558	64.406445	0.000476	4.762712	1.613650	0.000191
 312	3.0945e+01	12.3863	64.680970	0.000689	6.890732	2.334643	0.000276
 313	3.1044e+01	12.4344	64.842456	0.000405	4.053372	1.373319	0.000162
 314	3.1143e+01	12.4633	65.100832	0.000649	6.485395	2.197311	0.000260
 315	3.1243e+01	12.5146	65.318838	0.000547	5.472052	1.853981	0.000219
 316	3.1343e+01	12.5467	65.552992	0.000588	5.877389	1.991313	0.000235
 317	3.1442e+01	12.5964	65.746774	0.000486	4.864046	1.647983	0.000195
 318	3.1541e+01	12.6269	65.984965	0.000598	5.978723	2.025646	0.000239
 319	3.1641e+01	12.6654	66.186822	0.000507	5.066715	1.716649	0.000203
 320	3.1741e+01	12.7055	66.433087	0.000618	6.181392	2.094312	0.000248
 321	3.1840e+01	12.7392	66.618795	0.000466	4.661377	1.579317	0.000187
 322	3.1939e+01	12.7825	66.840838	0.000557	5.573386	1.888314	0.000223
 323	3.2039e+01	12.8274	67.099215	0.000649	6.485395	2.197311	0.000260
 324	3.2139e+01	12.8659	67.317220	0.000547	5.472052	1.853981	0.000219
 325	3.2238e+01	12.9173	67.482742	0.000415	4.154706	1.407652	0.000166
 326	3.2337e+01	12.9413	67.749193	0.000669	6.688063	2.265977	0.000268
 327	3.2437e+01	12.9782	67.951050	0.000507	5.066715	1.716649	0.000203
 328	3.2536e+01	13.0264	68.132721	0.000456	4.560043	1.544984	0.000183
 329	3.2636e+01	13.0649	68.415321	0.000709	7.093400	2.403309	0.000284
 330	3.2736e+01	13.1066	68.592955	0.000446	4.458709	1.510651	0.000179
 331	3.2835e+01	13.1419	68.794812	0.000507	5.066715	1.716649	0.000203
 332	3.2934e+01	13.1836	69.037040	0.000608	6.080057	2.059979	0.000243
 333	3.3034e+01	13.2237	69.271194	0.000588	5.877389	1.991313	0.000235
 334	3.3133e+01	13.2686	69.473050	0.000507	5.066715	1.716649	0.000203
 335	3.3233e+01	13.3023	69.723353	0.000628	6.282726	2.128645	0.000252
 336	3.3333e+01	13.3456	69.945395	0.000557	5.573386	1.888314	0.000223
 337	3.3432e+01	13.3809	70.159363	0.000537	5.370717	1.819648	0.000215
 338	3.3532e+01	13.4162	70.361220	0.000507	5.066715	1.716649	0.000203
 339	3.3631e+01	13.4595	70.550966	0.000476	4.762712	1.613650	0.000191
 340	3.3730e+01	13.4996	70.768971	0.000547	5.472052	1.853981	0.000219
 341	3.3830e+01	13.5413	71.019273	0.000628	6.282726	2.128645	0.000252
 342	3.3929e+01	13.5798	71.237279	0.000547	5.472052	1.853981	0.000219
 343	3.4029e+01	13.6199	71.471433	0.000588	5.877389	1.991313	0.000235
 344	3.4129e+01	13.6649	71.661178	0.000476	4.762712	1.613650	0.000191
 345	3.4228e+01	13.7066	71.891295	0.000578	5.776055	1.956980	0.000231
 346	3.4328e+01	13.7435	72.129486	0.000598	5.978723	2.025646	0.000239
 347	3.4427e+01	13.7772	72.323268	0.000486	4.864046	1.647983	0.000195
 348	3.4526e+01	13.8237	72.545311	0.000557	5.573386	1.888314	0.000223
 349	3.4626e+01	13.8590	72.751205	0.000517	5.168049	1.750982	0.000207
 350	3.4725e+01	13.9023	72.997470	0.000618	6.181392	2.094312	0.000248
 351	3.4825e+01	13.9440	73.199327	0.000507	5.066715	1.716649	0.000203
 352	3.4925e+01	13.9825	73.437518	0.000598	5.978723	2.025646	0.000239
 353	3.5024e+01	14.0162	73.635337	0.000497	4.965380	1.682316	0.000199
 354	3.5123e+01	14.0579	73.865454	0.000578	5.776055	1.956980	0.000231
 355	3.5223e+01	14.0948	74.075385	0.000527	5.269383	1.785315	0.000211
 356	3.5322e+01	14.1349	74.261093	0.000466	4.661377	1.579317	0.000187
 357	3.5422e+01	14.1814	74.519470	0.000649	6.485395	2.197311	0.000260
 358	3.5522e+01	14.2231	74.693067	0.000436	4.357374	1.476318	0.000174
 359	3.5621e+01	14.2520	74.927221	0.000588	5.877389	1.991313	0.000235
 360	3.5721e+01	14.2953	75.169449	0.000608	6.080057	2.059979	0.000243
 361	3.5820e+01	14.3370	75.399566	0.000578	5.776055	1.956980	0.000231
 362	3.5919e+01	14.3755	75.613534	0.000537	5.370717	1.819648	0.000215
 363	3.6019e+01	14.4204	75.811353	0.000497	4.965380	1.682316	0.000199
 364	3.6118e+01	14.4606	76.061656	0.000628	6.282726	2.128645	0.000252
 365	3.6218e+01	14.5007	76.267550	0.000517	5.168049	1.750982	0.000207
 366	3.6318e+01	14.5408	76.477481	0.000527	5.269383	1.785315	0.000211
 367	3.6417e+01	14.5729	76.687412	0.000527	5.269383	1.785315	0.000211
 368	3.6517e+01	14.6162	76.897343	0.000527	5.269383	1.785315	0.000211
 369	3.6616e+01	14.6595	77.119385	0.000557	5.573386	1.888314	0.000223
 370	3.6715e+01	14.6980	77.333354	0.000537	5.370717	1.819648	0.000215
 371	3.6815e+01	14.7397	77.551359	0.000547	5.472052	1.853981	0.000219
 372	3.6914e+01	14.7782	77.769364	0.000547	5.472052	1.853981	0.000219
 373	3.7014e+01	14.8135	78.043890	0.000689	6.890732	2.334643	0.000276
 374	3.7114e+01	14.8616	78.213449	0.000426	4.256040	1.441985	0.000170
 375	3.7213e+01	14.8857	78.435492	0.000557	5.573386	1.888314	0.000223
 376	3.7313e+01	14.9322	78.633311	0.000497	4.965380	1.682316	0.000199
 377	3.7412e+01	14.9803	78.875539	0.000608	6.080057	2.059979	0.000243
 378	3.7511e+01	15.0220	79.101619	0.000567	5.674720	1.922647	0.000227
 379	3.7611e+01	15.0541	79.303476	0.000507	5.066715	1.716649	0.000203
 380	3.7711e+01	15.0910	79.517444	0.000537	5.370717	1.819648	0.000215
 381	3.7810e+01	15.1375	79.747561	0.000578	5.776055	1.956980	0.000231
 382	3.7910e+01	15.1760	79.977678	0.000578	5.776055	1.956980	0.000231
 383	3.8009e+01	15.2178	80.135126	0.000395	3.952037	1.338986	0.000158
 384	3.8108e+01	15.2530	80.417725	0.000709	7.093400	2.403309	0.000284
 385	3.8208e+01	15.2851	80.623619	0.000517	5.168049	1.750982	0.000207
 386	3.8307e+01	15.3381	80.813365	0.000476	4.762712	1.613650	0.000191
 387	3.8407e+01	15.3798	81.071741	0.000649	6.485395	2.197311	0.000260
 388	3.8507e+01	15.4087	81.233227	0.000405	4.053372	1.373319	0.000162
 389	3.8606e+01	15.4568	81.459306	0.000567	5.674720	1.922647	0.000227
 390	3.8706e+01	15.4921	81.685386	0.000567	5.674720	1.922647	0.000227
 391	3.8805e+01	15.5386	81.915503	0.000578	5.776055	1.956980	0.000231
 392	3.8904e+01	15.5707	82.121397	0.000517	5.168049	1.750982	0.000207
 393	3.9004e+01	15.6172	82.339402	0.000547	5.472052	1.853981	0.000219
 394	3.9103e+01	15.6525	82.529147	0.000476	4.762712	1.613650	0.000191
 395	3.9203e+01	15.6942	82.755227	0.000567	5.674720	1.922647	0.000227
 396	3.9303e+01	15.7327	82.985344	0.000578	5.776055	1.956980	0.000231
 397	3.9402e+01	15.7760	83.175089	0.000476	4.762712	1.613650	0.000191
 398	3.9502e+01	15.8209	83.389057	0.000537	5.370717	1.819648	0.000215
 399	3.9601e+01	15.8546	83.598988	0.000527	5.269383	1.785315	0.000211
 400	3.9700e+01	15.8963	83.833142	0.000588	5.877389	1.991313	0.000235
 401	3.9800e+01	15.9381	84.039036	0.000517	5.168049	1.750982	0.000207
 402	3.9900e+01	15.9750	84.257041	0.000547	5.472052	1.853981	0.000219
 403	3.9999e+01	16.0118	84.466972	0.000527	5.269383	1.785315	0.000211
 404	4.0099e+01	16.0552	84.725349	0.000649	6.485395	2.197311	0.000260
 405	4.0198e+01	16.1001	84.902983	0.000446	4.458709	1.510651	0.000179
 406	4.0297e+01	16.1354	85.088691	0.000466	4.661377	1.579317	0.000187
 407	4.0397e+01	16.1723	85.343031	0.000638	6.384060	2.162978	0.000256
 408	4.0496e+01	16.2124	85.544888	0.000507	5.066715	1.716649	0.000203
 409	4.0596e+01	16.2461	85.758856	0.000537	5.370717	1.819648	0.000215
 410	4.0696e+01	16.2958	86.009158	0.000628	6.282726	2.128645	0.000252
 411	4.0795e+01	16.3279	86.198904	0.000476	4.762712	1.613650	0.000191
 412	4.0895e+01	16.3808	86.380575	0.000456	4.560043	1.544984	0.000183
 413	4.0994e+01	16.4081	86.679323	0.000750	7.498737	2.540641	0.000300
 414	4.1093e+01	16.4498	86.860994	0.000456	4.560043	1.544984	0.000183
 415	4.1193e+01	16.4803	87.070925	0.000527	5.269383	1.785315	0.000211
 416	4.1292e+01	16.5332	87.325265	0.000638	6.384060	2.162978	0.000256
 417	4.1392e+01	16.5701	87.494824	0.000426	4.256040	1.441985	0.000170
 418	4.1492e+01	16.6166	87.733015	0.000598	5.978723	2.025646	0.000239
 419	4.1591e+01	16.6487	87.926798	0.000486	4.864046	1.647983	0.000195
 420	4.1691e+01	16.6856	88.144803	0.000547	5.472052	1.853981	0.000219
 421	4.1790e+01	16.7289	88.346660	0.000507	5.066715	1.716649	0.000203
 422	4.1889e+01	16.7658	88.576777	0.000578	5.776055	1.956980	0.000231
 423	4.1989e+01	16.8011	88.790745	0.000537	5.370717	1.819648	0.000215
 424	4.2089e+01	16.8541	89.000676	0.000527	5.269383	1.785315	0.000211
 425	4.2188e+01	16.8894	89.202533	0.000507	5.066715	1.716649	0.000203
 426	4.2288e+01	16.9295	89.440724	0.000598	5.978723	2.025646	0.000239
 427	4.2387e+01	16.9696	89.642580	0.000507	5.066715	1.716649	0.000203
 428	4.2486e+01	17.0065	89.872697	0.000578	5.776055	1.956980	0.000231
 429	4.2586e+01	17.0530	90.038220	0.000415	4.154706	1.407652	0.000166
 430	4.2685e+01	17.0851	90.284485	0.000618	6.181392	2.094312	0.000248
 431	4.2785e+01	17.1236	90.506528	0.000557	5.573386	1.888314	0.000223
 432	4.2885e+01	17.1669	90.720496	0.000537	5.370717	1.819648	0.000215
 433	4.2984e+01	17.2006	90.934464	0.000537	5.370717	1.819648	0.000215
 434	4.3084e+01	17.2375	91.132284	0.000497	4.965380	1.682316	0.000199
 435	4.3183e+01	17.2856	91.378549	0.000618	6.181392	2.094312	0.000248
 436	4.3282e+01	17.3257	91.584443	0.000517	5.168049	1.750982	0.000207
 437	4.3382e+01	17.3594	91.786300	0.000507	5.066715	1.716649	0.000203
 438	4.3481e+01	17.4091	91.992193	0.000517	5.168049	1.750982	0.000207
 439	4.3581e+01	17.4380	92.226347	0.000588	5.877389	1.991313	0.000235
 440	4.3681e+01	17.4926	92.424167	0.000497	4.965380	1.682316	0.000199
 441	4.3780e+01	17.5262	92.658321	0.000588	5.877389	1.991313	0.000235
 442	4.3880e+01	17.5631	92.860178	0.000507	5.066715	1.716649	0.000203
 443	4.3979e+01	17.6145	93.057997	0.000497	4.965380	1.682316	0.000199
 444	4.4078e+01	17.6417	93.271966	0.000537	5.370717	1.819648	0.000215
 445	4.4178e+01	17.6835	93.518231	0.000618	6.181392	2.094312	0.000248
 446	4.4278e+01	17.7332	93.675679	0.000395	3.952037	1.338986	0.000158
 447	4.4377e+01	17.7637	93.950204	0.000689	6.890732	2.334643	0.000276
 448	4.4477e+01	17.8006	94.135913	0.000466	4.661377	1.579317	0.000187
 449	4.4576e+01	17.8503	94.333732	0.000497	4.965380	1.682316	0.000199
 450	4.4675e+01	17.8840	94.567886	0.000588	5.877389	1.991313	0.000235
 451	4.4775e+01	17.9289	94.721297	0.000385	3.850703	1.304654	0.000154
 452	4.4874e+01	17.9578	94.963525	0.000608	6.080057	2.059979	0.000243
 453	4.4974e+01	17.9931	95.213828	0.000628	6.282726	2.128645	0.000252
 454	4.5074e+01	18.0412	95.423759	0.000527	5.269383	1.785315	0.000211
 455	4.5173e+01	18.0797	95.597356	0.000436	4.357374	1.476318	0.000174
 456	4.5273e+01	18.1166	95.811324	0.000537	5.370717	1.819648	0.000215
 457	4.5372e+01	18.1663	96.033366	0.000557	5.573386	1.888314	0.000223
 458	4.5471e+01	18.2048	96.239260	0.000517	5.168049	1.750982	0.000207
 459	4.5571e+01	18.2449	96.465340	0.000567	5.674720	1.922647	0.000227
 460	4.5670e+01	18.2818	96.642974	0.000446	4.458709	1.510651	0.000179
 461	4.5770e+01	18.3187	96.869053	0.000567	5.674720	1.922647	0.000227
 462	4.5870e+01	18.3620	97.087059	0.000547	5.472052	1.853981	0.000219
 463	4.5969e+01	18.3957	97.317176	0.000578	5.776055	1.956980	0.000231
 464	4.6069e+01	18.4407	97.490772	0.000436	4.357374	1.476318	0.000174
 465	4.6168e+01	18.4824	97.728963	0.000598	5.978723	2.025646	0.000239
 466	4.6267e+01	18.5209	97.922746	0.000486	4.864046	1.647983	0.000195
 467	4.6367e+01	18.5578	98.181123	0.000649	6.485395	2.197311	0.000260
 468	4.6467e+01	18.5995	98.326459	0.000365	3.648034	1.235988	0.000146
 469	4.6566e+01	18.6364	98.548502	0.000557	5.573386	1.888314	0.000223
 470	4.6666e+01	18.6909	98.818990	0.000679	6.789397	2.300310	0.000272
 471	4.6765e+01	18.7182	98.996624	0.000446	4.458709	1.510651	0.000179
 472	4.6864e+01	18.7519	99.206555	0.000527	5.269383	1.785315	0.000211
 473	4.6964e+01	18.7936	99.460895	0.000638	6.384060	2.162978	0.000256
 474	4.7063e+01	18.8449	99.634491	0.000436	4.357374	1.476318	0.000174
 475	4.7163e+01	18.8866	99.864608	0.000578	5.776055	1.956980	0.000231
 476	4.7263e+01	18.9299	100.078576	0.000537	5.370717	1.819648	0.000215
 477	4.7362e+01	18.9540	100.260247	0.000456	4.560043	1.544984	0.000183
 478	4.7462e+01	19.0021	100.466141	0.000517	5.168049	1.750982	0.000207
 479	4.7561e+01	19.0326	100.704332	0.000598	5.978723	2.025646	0.000239
 480	4.7660e+01	19.0759	100.922338	0.000547	5.472052	1.853981	0.000219
 481	4.7760e+01	19.1176	101.095935	0.000436	4.357374	1.476318	0.000174
 482	4.7859e+01	19.1674	101.322014	0.000567	5.674720	1.922647	0.000227
 483	4.7959e+01	19.2027	101.507722	0.000466	4.661377	1.579317	0.000187
 484	4.8059e+01	19.2380	101.778211	0.000679	6.789397	2.300310	0.000272
 485	4.8158e+01	19.2749	101.939696	0.000405	4.053372	1.373319	0.000162
 486	4.8258e+01	19.3214	102.173850	0.000588	5.877389	1.991313	0.000235
 487	4.8357e+01	19.3535	102.371669	0.000497	4.965380	1.682316	0.000199
 488	4.8456e+01	19.3936	102.585638	0.000537	5.370717	1.819648	0.000215
 489	4.8556e+01	19.4401	102.775383	0.000476	4.762712	1.613650	0.000191
 490	4.8656e+01	19.4802	102.993388	0.000547	5.472052	1.853981	0.000219
 491	4.8755e+01	19.5187	103.211394	0.000547	5.472052	1.853981	0.000219
 492	4.8855e+01	19.5572	103.405176	0.000486	4.864046	1.647983	0.000195
 493	4.8954e+01	19.5973	103.639330	0.000588	5.877389	1.991313	0.000235
 494	4.9053e+01	19.6310	103.804853	0.000415	4.154706	1.407652	0.000166
 495	4.9153e+01	19.6695	104.047081	0.000608	6.080057	2.059979	0.000243
 496	4.9252e+01	19.7224	104.257012	0.000527	5.269383	1.785315	0.000211
 497	4.9352e+01	19.7545	104.454832	0.000497	4.965380	1.682316	0.000199
 498	4.9452e+01	19.7978	104.693023	0.000598	5.978723	2.025646	0.000239
 499	4.9551e+01	19.8379	104.890842	0.000497	4.965380	1.682316	0.000199
 500	4.9651e+01	19.8748	105.072513	0.000456	4.560043	1.544984	0.000183
 501	4.9750e+01	19.9214	105.282444	0.000527	5.269383	1.785315	0.000211
 502	4.9849e+01	19.9567	105.484301	0.000507	5.066715	1.716649	0.000203
 503	4.9949e+01	19.9968	105.682121	0.000497	4.965380	1.682316	0.000199
 504	5.0048e+01	19.9486	105.589267	0.000233	2.330689	0.789659	-0.000093
 505	5.0148e+01	19.9198	105.443930	0.000365	3.648034	1.235988	-0.000146
 506	5.0248e+01	19.8716	105.302630	0.000355	3.546700	1.201655	-0.000142
 507	5.0347e+01	19.8283	105.161330	0.000355	3.546700	1.201655	-0.000142
 508	5.0447e+01	19.8059	104.987733	0.000436	4.357374	1.476318	-0.000174
 509	5.0546e+01	19.7577	104.822211	0.000415	4.154706	1.407652	-0.000166
 510	5.0645e+01	19.7176	104.693023	0.000324	3.242697	1.098656	-0.000130
 511	5.0745e+01	19.6839	104.523463	0.000426	4.256040	1.441985	-0.000170
 512	5.0844e+01	19.6342	104.337755	0.000466	4.661377	1.579317	-0.000187
 513	5.0944e+01	19.5957	104.184343	0.000385	3.850703	1.304654	-0.000154
 514	5.1044e+01	19.5604	104.055155	0.000324	3.242697	1.098656	-0.000130
 515	5.1143e+01	19.5171	103.889633	0.000415	4.154706	1.407652	-0.000166
 516	5.1242e+01	19.4802	103.752370	0.000345	3.445366	1.167322	-0.000138
 517	5.1342e+01	19.4321	103.566662	0.000466	4.661377	1.579317	-0.000187
 518	5.1441e+01	19.3936	103.421325	0.000365	3.648034	1.235988	-0.000146
 519	5.1541e+01	19.3615	103.280025	0.000355	3.546700	1.201655	-0.000142
 520	5.1641e+01	19.3326	103.098354	0.000456	4.560043	1.544984	-0.000183
 521	5.1740e+01	19.2893	102.924757	0.000436	4.357374	1.476318	-0.000174
 522	5.1840e+01	19.2348	102.787494	0.000345	3.445366	1.167322	-0.000138
 523	5.1939e+01	19.1962	102.581601	0.000517	5.168049	1.750982	-0.000207
 524	5.2038e+01	19.1513	102.428189	0.000385	3.850703	1.304654	-0.000154
 525	5.2138e+01	19.1112	102.262667	0.000415	4.154706	1.407652	-0.000166
 526	5.2237e+01	19.0791	102.068884	0.000486	4.864046	1.647983	-0.000195
 527	5.2337e+01	19.0358	101.923547	0.000365	3.648034	1.235988	-0.000146
 528	5.2437e+01	18.9973	101.737839	0.000466	4.661377	1.579317	-0.000187
 529	5.2536e+01	18.9508	101.584428	0.000385	3.850703	1.304654	-0.000154
 530	5.2636e+01	18.9219	101.426980	0.000395	3.952037	1.338986	-0.000158
 531	5.2735e+01	18.8866	101.273569	0.000385	3.850703	1.304654	-0.000154
 532	5.2834e+01	18.8401	101.099972	0.000436	4.357374	1.476318	-0.000174
 533	5.2934e+01	18.8000	100.918301	0.000456	4.560043	1.544984	-0.000183
 534	5.3033e+01	18.7583	100.724518	0.000486	4.864046	1.647983	-0.000195
 535	5.3133e+01	18.7134	100.567070	0.000395	3.952037	1.338986	-0.000158
 536	5.3233e+01	18.6797	100.401547	0.000415	4.154706	1.407652	-0.000166
 537	5.3332e+01	18.6412	100.195653	0.000517	5.168049	1.750982	-0.000207
 538	5.3431e+01	18.6059	100.066465	0.000324	3.242697	1.098656	-0.000130
 539	5.3531e+01	18.5658	99.904980	0.000405	4.053372	1.373319	-0.000162
 540	5.3630e+01	18.5209	99.719271	0.000466	4.661377	1.579317	-0.000187
 541	5.3730e+01	18.4792	99.549712	0.000426	4.256040	1.441985	-0.000170
 542	5.3830e+01	18.4374	99.359966	0.000476	4.762712	1.613650	-0.000191
 543	5.3929e+01	18.3973	99.194444	0.000415	4.154706	1.407652	-0.000166
 544	5.4029e+01	18.3717	99.004698	0.000476	4.762712	1.613650	-0.000191
 545	5.4128e+01	18.3203	98.810916	0.000486	4.864046	1.647983	-0.000195
 546	5.4227e+01	18.2818	98.641356	0.000426	4.256040	1.441985	-0.000170
 547	5.4327e+01	18.2385	98.471796	0.000426	4.256040	1.441985	-0.000170
 548	5.4426e+01	18.2000	98.294162	0.000446	4.458709	1.510651	-0.000179
 549	5.4526e+01	18.1599	98.156900	0.000345	3.445366	1.167322	-0.000138
 550	5.4626e+01	18.1150	97.971192	0.000466	4.661377	1.579317	-0.000187
 551	5.4725e+01	18.0797	97.785483	0.000466	4.661377	1.579317	-0.000187
 552	5.4825e+01	18.0444	97.587664	0.000497	4.965380	1.682316	-0.000199
 553	5.4924e+01	18.0091	97.381770	0.000517	5.168049	1.750982	-0.000207
 554	5.5023e+01	17.9802	97.216247	0.000415	4.154706	1.407652	-0.000166
 555	5.5123e+01	17.9209	97.103207	0.000284	2.837360	0.961324	-0.000114
 556	5.5222e+01	17.8904	96.877128	0.000567	5.674720	1.922647	-0.000227
 557	5.5322e+01	17.8503	96.679308	0.000497	4.965380	1.682316	-0.000199
 558	5.5422e+01	17.8070	96.489563	0.000476	4.762712	1.613650	-0.000191
 559	5.5521e+01	17.7621	96.271557	0.000547	5.472052	1.853981	-0.000219
 560	5.5620e+01	17.7316	96.154480	0.000294	2.938694	0.995657	-0.000118
 561	5.5720e+01	17.6851	95.932438	0.000557	5.573386	1.888314	-0.000223
 562	5.5819e+01	17.6417	95.807287	0.000314	3.141363	1.064323	-0.000126
 563	5.5919e+01	17.6049	95.585244	0.000557	5.573386	1.888314	-0.000223
 564	5.6019e+01	17.5680	95.391462	0.000486	4.864046	1.647983	-0.000195
 565	5.6118e+01	17.5230	95.213828	0.000446	4.458709	1.510651	-0.000179
 566	5.6218e+01	17.4829	95.080602	0.000334	3.344032	1.132989	-0.000134
 567	5.6317e+01	17.4541	94.846448	0.000588	5.877389	1.991313	-0.000235
 568	5.6416e+01	17.4043	94.697074	0.000375	3.749369	1.270321	-0.000150
 569	5.6516e+01	17.3642	94.503292	0.000486	4.864046	1.647983	-0.000195
 570	5.6615e+01	17.3337	94.341806	0.000405	4.053372	1.373319	-0.000162
 571	5.6715e+01	17.2824	94.156098	0.000466	4.661377	1.579317	-0.000187
 572	5.6815e+01	17.2535	93.982501	0.000436	4.357374	1.476318	-0.000174
 573	5.6914e+01	17.2038	93.796793	0.000466	4.661377	1.579317	-0.000187
 574	5.7014e+01	17.1685	93.635308	0.000405	4.053372	1.373319	-0.000162
 575	5.7113e+01	17.1300	93.433451	0.000507	5.066715	1.716649	-0.000203
 576	5.7212e+01	17.0835	93.231594	0.000507	5.066715	1.716649	-0.000203
 577	5.7312e+01	17.0434	93.041849	0.000476	4.762712	1.613650	-0.000191
 578	5.7411e+01	17.0113	92.852103	0.000476	4.762712	1.613650	-0.000191
 579	5.7511e+01	16.9728	92.682544	0.000426	4.256040	1.441985	-0.000170
 580	5.7611e+01	16.9311	92.500873	0.000456	4.560043	1.544984	-0.000183
 581	5.7710e+01	16.8910	92.319201	0.000456	4.560043	1.544984	-0.000183
 582	5.7809e+01	16.8525	92.153679	0.000415	4.154706	1.407652	-0.000166
 583	5.7909e+01	16.8059	91.927599	0.000567	5.674720	1.922647	-0.000227
 584	5.8008e+01	16.7706	91.774188	0.000385	3.850703	1.304654	-0.000154
 585	5.8108e+01	16.7273	91.588480	0.000466	4.661377	1.579317	-0.000187
 586	5.8208e+01	16.6936	91.402772	0.000466	4.661377	1.579317	-0.000187
 587	5.8307e+01	16.6551	91.213026	0.000476	4.762712	1.613650	-0.000191
 588	5.8407e+01	16.6215	90.990984	0.000557	5.573386	1.888314	-0.000223
 589	5.8506e+01	16.5701	90.849684	0.000355	3.546700	1.201655	-0.000142
 590	5.8605e+01	16.5268	90.635716	0.000537	5.370717	1.819648	-0.000215
 591	5.8705e+01	16.4883	90.470193	0.000415	4.154706	1.407652	-0.000166
 592	5.8804e+01	16.4530	90.296596	0.000436	4.357374	1.476318	-0.000174
 593	5.8904e+01	16.4129	90.114925	0.000456	4.560043	1.544984	-0.000183
 594	5.9004e+01	16.3696	89.884809	0.000578	5.776055	1.956980	-0.000231
 595	5.9103e+01	16.3231	89.682952	0.000507	5.066715	1.716649	-0.000203
 596	5.9203e+01	16.2798	89.513392	0.000426	4.256040	1.441985	-0.000170
 597	5.9302e+01	16.2589	89.311535	0.000507	5.066715	1.716649	-0.000203
 598	5.9401e+01	16.2124	89.190421	0.000304	3.040029	1.029990	-0.000122
 599	5.9501e+01	16.1626	88.972416	0.000547	5.472052	1.853981	-0.000219
 600	5.9600e+01	16.1338	88.762485	0.000527	5.269383	1.785315	-0.000211
 601	5.9700e+01	16.0889	88.584851	0.000446	4.458709	1.510651	-0.000179
 602	5.9800e+01	16.0552	88.419328	0.000415	4.154706	1.407652	-0.000166
 603	5.9899e+01	16.0102	88.237657	0.000456	4.560043	1.544984	-0.000183
 604	5.9998e+01	15.9814	88.051949	0.000466	4.661377	1.579317	-0.000187
 605	6.0098e+01	15.9268	87.837981	0.000537	5.370717	1.819648	-0.000215
 606	6.0197e+01	15.9044	87.636124	0.000507	5.066715	1.716649	-0.000203
 607	6.0297e+01	15.8594	87.438304	0.000497	4.965380	1.682316	-0.000199
 608	6.0397e+01	15.8145	87.292967	0.000365	3.648034	1.235988	-0.000146
 609	6.0496e+01	15.7824	87.151668	0.000355	3.546700	1.201655	-0.000142
 610	6.0596e+01	15.7311	86.901365	0.000628	6.282726	2.128645	-0.000252
 611	6.0695e+01	15.6974	86.739880	0.000405	4.053372	1.373319	-0.000162
 612	6.0794e+01	15.6477	86.521875	0.000547	5.472052	1.853981	-0.000219
 613	6.0894e+01	15.6204	86.311944	0.000527	5.269383	1.785315	-0.000211
 614	6.0993e+01	15.5787	86.150458	0.000405	4.053372	1.373319	-0.000162
 615	6.1093e+01	15.5338	85.956676	0.000486	4.864046	1.647983	-0.000195
 616	6.1193e+01	15.4921	85.758856	0.000497	4.965380	1.682316	-0.000199
 617	6.1292e+01	15.4504	85.593333	0.000415	4.154706	1.407652	-0.000166
 618	6.1392e+01	15.4199	85.399551	0.000486	4.864046	1.647983	-0.000195
 619	6.1491e+01	15.3718	85.209805	0.000476	4.762712	1.613650	-0.000191
 620	6.1590e+01	15.3317	84.959503	0.000628	6.282726	2.128645	-0.000252
 621	6.1690e+01	15.2803	84.773795	0.000466	4.661377	1.579317	-0.000187
 622	6.1789e+01	15.2530	84.644606	0.000324	3.242697	1.098656	-0.000130
 623	6.1889e+01	15.2145	84.426601	0.000547	5.472052	1.853981	-0.000219
 624	6.1989e+01	15.1793	84.176299	0.000628	6.282726	2.128645	-0.000252
 625	6.2088e+01	15.1343	84.047110	0.000324	3.242697	1.098656	-0.000130
 626	6.2188e+01	15.0942	83.845254	0.000507	5.066715	1.716649	-0.000203
 627	6.2287e+01	15.0477	83.627248	0.000547	5.472052	1.853981	-0.000219
 628	6.2386e+01	15.0172	83.469800	0.000395	3.952037	1.338986	-0.000158
 629	6.2486e+01	14.9787	83.267943	0.000507	5.066715	1.716649	-0.000203
 630	6.2586e+01	14.9322	83.090309	0.000446	4.458709	1.510651	-0.000179
 631	6.2685e+01	14.8905	82.916712	0.000436	4.357374	1.476318	-0.000174
 632	6.2785e+01	14.8520	82.670447	0.000618	6.181392	2.094312	-0.000248
 633	6.2884e+01	14.8119	82.525110	0.000365	3.648034	1.235988	-0.000146
 634	6.2983e+01	14.7878	82.307105	0.000547	5.472052	1.853981	-0.000219
 635	6.3083e+01	14.7365	82.137545	0.000426	4.256040	1.441985	-0.000170
 636	6.3182e+01	14.6980	81.931651	0.000517	5.168049	1.750982	-0.000207
 637	6.3282e+01	14.6531	81.725757	0.000517	5.168049	1.750982	-0.000207
 638	6.3382e+01	14.6097	81.548123	0.000446	4.458709	1.510651	-0.000179
 639	6.3481e+01	14.5680	81.350304	0.000497	4.965380	1.682316	-0.000199
 640	6.3581e+01	14.5392	81.140373	0.000527	5.269383	1.785315	-0.000211
 641	6.3680e+01	14.5007	80.970813	0.000426	4.256040	1.441985	-0.000170
 642	6.3779e+01	14.4590	80.801253	0.000426	4.256040	1.441985	-0.000170
 643	6.3879e+01	14.4269	80.546914	0.000638	6.384060	2.162978	-0.000256
 644	6.3978e+01	14.3868	80.401577	0.000365	3.648034	1.235988	-0.000146
 645	6.4078e+01	14.3354	80.195683	0.000517	5.168049	1.750982	-0.000207
 646	6.4177e+01	14.3017	79.977678	0.000547	5.472052	1.853981	-0.000219
 647	6.4277e+01	14.2536	79.804081	0.000436	4.357374	1.476318	-0.000174
 648	6.4376e+01	14.2087	79.614335	0.000476	4.762712	1.613650	-0.000191
 649	6.4476e+01	14.1782	79.408441	0.000517	5.168049	1.750982	-0.000207
 650	6.4576e+01	14.1349	79.210622	0.000497	4.965380	1.682316	-0.000199
 651	6.4675e+01	14.1028	79.028951	0.000456	4.560043	1.544984	-0.000183
 652	6.4775e+01	14.0627	78.802871	0.000567	5.674720	1.922647	-0.000227
 653	6.4874e+01	14.0178	78.617163	0.000466	4.661377	1.579317	-0.000187
 654	6.4974e+01	13.9825	78.415306	0.000507	5.066715	1.716649	-0.000203
 655	6.5073e+01	13.9392	78.221523	0.000486	4.864046	1.647983	-0.000195
 656	6.5172e+01	13.8975	78.060038	0.000405	4.053372	1.373319	-0.000162
 657	6.5272e+01	13.8622	77.829921	0.000578	5.776055	1.956980	-0.000231
 658	6.5371e+01	13.8092	77.648250	0.000456	4.560043	1.544984	-0.000183
 659	6.5471e+01	13.7804	77.470616	0.000446	4.458709	1.510651	-0.000179
 660	6.5570e+01	13.7354	77.240500	0.000578	5.776055	1.956980	-0.000231
 661	6.5670e+01	13.7050	77.070940	0.000426	4.256040	1.441985	-0.000170
 662	6.5769e+01	13.6600	76.865046	0.000517	5.168049	1.750982	-0.000207
 663	6.5869e+01	13.6119	76.659152	0.000517	5.168049	1.750982	-0.000207
 664	6.5969e+01	13.5830	76.457295	0.000507	5.066715	1.716649	-0.000203
 665	6.6068e+01	13.5461	76.259476	0.000497	4.965380	1.682316	-0.000199
 666	6.6168e+01	13.4964	76.057619	0.000507	5.066715	1.716649	-0.000203
 667	6.6267e+01	13.4772	75.904208	0.000385	3.850703	1.304654	-0.000154
 668	6.6367e+01	13.4322	75.702351	0.000507	5.066715	1.716649	-0.000203
 669	6.6466e+01	13.3841	75.500494	0.000507	5.066715	1.716649	-0.000203
 670	6.6566e+01	13.3424	75.278452	0.000557	5.573386	1.888314	-0.000223
 671	6.6665e+01	13.3023	75.068520	0.000527	5.269383	1.785315	-0.000211
 672	6.6764e+01	13.2622	74.923184	0.000365	3.648034	1.235988	-0.000146
 673	6.6864e+01	13.2157	74.656733	0.000669	6.688063	2.265977	-0.000268
 674	6.6963e+01	13.1740	74.491210	0.000415	4.154706	1.407652	-0.000166
 675	6.7063e+01	13.1387	74.297428	0.000486	4.864046	1.647983	-0.000195
 676	6.7162e+01	13.1002	74.087496	0.000527	5.269383	1.785315	-0.000211
 677	6.7262e+01	13.0569	73.881603	0.000517	5.168049	1.750982	-0.000207
 678	6.7362e+01	13.0216	73.703969	0.000446	4.458709	1.510651	-0.000179
 679	6.7461e+01	12.9782	73.481926	0.000557	5.573386	1.888314	-0.000223
 680	6.7561e+01	12.9446	73.316404	0.000415	4.154706	1.407652	-0.000166
 681	6.7660e+01	12.9044	73.086287	0.000578	5.776055	1.956980	-0.000231
 682	6.7760e+01	12.8643	72.928839	0.000395	3.952037	1.338986	-0.000158
 683	6.7859e+01	12.8210	72.682573	0.000618	6.181392	2.094312	-0.000248
 684	6.7959e+01	12.7889	72.525125	0.000395	3.952037	1.338986	-0.000158
 685	6.8058e+01	12.7424	72.303083	0.000557	5.573386	1.888314	-0.000223
 686	6.8157e+01	12.7039	72.097189	0.000517	5.168049	1.750982	-0.000207
 687	6.8257e+01	12.6702	71.951852	0.000365	3.648034	1.235988	-0.000146
 688	6.8356e+01	12.6253	71.721735	0.000578	5.776055	1.956980	-0.000231
 689	6.8456e+01	12.5804	71.491618	0.000578	5.776055	1.956980	-0.000231
 690	6.8555e+01	12.5451	71.342244	0.000375	3.749369	1.270321	-0.000150
 691	6.8655e+01	12.5018	71.128276	0.000537	5.370717	1.819648	-0.000215
 692	6.8754e+01	12.4649	70.914308	0.000537	5.370717	1.819648	-0.000215
 693	6.8854e+01	12.4264	70.752822	0.000405	4.053372	1.373319	-0.000162
 694	6.8954e+01	12.3847	70.518669	0.000588	5.877389	1.991313	-0.000235
 695	6.9053e+01	12.3462	70.296626	0.000557	5.573386	1.888314	-0.000223
 696	6.9153e+01	12.3141	70.110918	0.000466	4.661377	1.579317	-0.000187
 697	6.9252e+01	12.2676	69.913098	0.000497	4.965380	1.682316	-0.000199
 698	6.9352e+01	12.2355	69.687019	0.000567	5.674720	1.922647	-0.000227
 699	6.9451e+01	12.1970	69.529570	0.000395	3.952037	1.338986	-0.000158
 700	6.9550e+01	12.1473	69.311565	0.000547	5.472052	1.853981	-0.000219
 701	6.9650e+01	12.1087	69.085485	0.000567	5.674720	1.922647	-0.000227
 702	6.9749e+01	12.0686	68.895740	0.000476	4.762712	1.613650	-0.000191
 703	6.9849e+01	12.0285	68.681772	0.000537	5.370717	1.819648	-0.000215
 704	6.9948e+01	11.9932	68.492026	0.000476	4.762712	1.613650	-0.000191
 705	7.0048e+01	11.9580	68.310355	0.000456	4.560043	1.544984	-0.000183
 706	7.0147e+01	11.9018	68.084276	0.000567	5.674720	1.922647	-0.000227
 707	7.0247e+01	11.8729	67.930864	0.000385	3.850703	1.304654	-0.000154
 708	7.0347e+01	11.8312	67.680562	0.000628	6.282726	2.128645	-0.000252
 709	7.0446e+01	11.7927	67.474668	0.000517	5.168049	1.750982	-0.000207
 710	7.0546e+01	11.7446	67.260700	0.000537	5.370717	1.819648	-0.000215
 711	7.0645e+01	11.7061	67.074992	0.000466	4.661377	1.579317	-0.000187
 712	7.0745e+01	11.6692	66.861024	0.000537	5.370717	1.819648	-0.000215
 713	7.0844e+01	11.6275	66.699538	0.000405	4.053372	1.373319	-0.000162
 714	7.0944e+01	11.5794	66.477496	0.000557	5.573386	1.888314	-0.000223
 715	7.1043e+01	11.5553	66.275639	0.000507	5.066715	1.716649	-0.000203
 716	7.1142e+01	11.5088	66.065708	0.000527	5.269383	1.785315	-0.000211
 717	7.1242e+01	11.4703	65.867888	0.000497	4.965380	1.682316	-0.000199
 718	7.1341e+01	11.4382	65.674106	0.000486	4.864046	1.647983	-0.000195
 719	7.1441e+01	11.3949	65.464175	0.000527	5.269383	1.785315	-0.000211
 720	7.1540e+01	11.3548	65.242132	0.000557	5.573386	1.888314	-0.000223
 721	7.1640e+01	11.3130	65.048350	0.000486	4.864046	1.647983	-0.000195
 722	7.1740e+01	11.2649	64.802084	0.000618	6.181392	2.094312	-0.000248
 723	7.1839e+01	11.2280	64.608302	0.000486	4.864046	1.647983	-0.000195
 724	7.1939e+01	11.1959	64.422594	0.000466	4.661377	1.579317	-0.000187
 725	7.2038e+01	11.1526	64.188440	0.000588	5.877389	1.991313	-0.000235
 726	7.2138e+01	11.1125	64.002731	0.000466	4.661377	1.579317	-0.000187
 727	7.2237e+01	11.0660	63.776652	0.000567	5.674720	1.922647	-0.000227
 728	7.2337e+01	11.0371	63.582869	0.000486	4.864046	1.647983	-0.000195
 729	7.2436e+01	10.9890	63.316418	0.000669	6.688063	2.265977	-0.000268
 730	7.2535e+01	10.9601	63.158970	0.000395	3.952037	1.338986	-0.000158
 731	7.2635e+01	10.9200	62.973262	0.000466	4.661377	1.579317	-0.000187
 732	7.2734e+01	10.8751	62.731034	0.000608	6.080057	2.059979	-0.000243
 733	7.2834e+01	10.8382	62.557437	0.000436	4.357374	1.476318	-0.000174
 734	7.2933e+01	10.7933	62.355580	0.000507	5.066715	1.716649	-0.000203
 735	7.3033e+01	10.7516	62.153723	0.000507	5.066715	1.716649	-0.000203
 736	7.3132e+01	10.7099	61.927644	0.000567	5.674720	1.922647	-0.000227
 737	7.3232e+01	10.6794	61.717713	0.000527	5.269383	1.785315	-0.000211
 738	7.3332e+01	10.6361	61.523930	0.000486	4.864046	1.647983	-0.000195
 739	7.3431e+01	10.5927	61.297850	0.000567	5.674720	1.922647	-0.000227
 740	7.3531e+01	10.5559	61.112142	0.000466	4.661377	1.579317	-0.000187
 741	7.3630e+01	10.5157	60.886063	0.000567	5.674720	1.922647	-0.000227
 742	7.3730e+01	10.4788	60.655946	0.000578	5.776055	1.956980	-0.000231
 743	7.3829e+01	10.4339	60.421792	0.000588	5.877389	1.991313	-0.000235
 744	7.3928e+01	10.3970	60.260307	0.000405	4.053372	1.373319	-0.000162
 745	7.4028e+01	10.3505	60.058450	0.000507	5.066715	1.716649	-0.000203
 746	7.4127e+01	10.3216	59.892927	0.000415	4.154706	1.407652	-0.000166
 747	7.4227e+01	10.2751	59.626476	0.000669	6.688063	2.265977	-0.000268
 748	7.4326e+01	10.2318	59.412508	0.000537	5.370717	1.819648	-0.000215
 749	7.4426e+01	10.1981	59.222763	0.000476	4.762712	1.613650	-0.000191
 750	7.4525e+01	10.1628	59.004757	0.000547	5.472052	1.853981	-0.000219
 751	7.4625e+01	10.1195	58.770604	0.000588	5.877389	1.991313	-0.000235
 752	7.4725e+01	10.0826	58.613155	0.000395	3.952037	1.338986	-0.000158
 753	7.4824e+01	10.0329	58.374964	0.000598	5.978723	2.025646	-0.000239
 754	7.4924e+01	9.9896	58.152922	0.000557	5.573386	1.888314	-0.000223
 755	7.5023e+01	9.9559	57.942991	0.000527	5.269383	1.785315	-0.000211
 756	7.5123e+01	9.9142	57.729022	0.000537	5.370717	1.819648	-0.000215
 757	7.5222e+01	9.8837	57.527166	0.000507	5.066715	1.716649	-0.000203
 758	7.5322e+01	9.8356	57.321272	0.000517	5.168049	1.750982	-0.000207
 759	7.5421e+01	9.8067	57.119415	0.000507	5.066715	1.716649	-0.000203
 760	7.5520e+01	9.7602	56.909484	0.000527	5.269383	1.785315	-0.000211
 761	7.5620e+01	9.7217	56.699553	0.000527	5.269383	1.785315	-0.000211
 762	7.5719e+01	9.6735	56.473473	0.000567	5.674720	1.922647	-0.000227
 763	7.5819e+01	9.6382	56.283728	0.000476	4.762712	1.613650	-0.000191
 764	7.5918e+01	9.5949	56.045537	0.000598	5.978723	2.025646	-0.000239
 765	7.6018e+01	9.5676	55.871940	0.000436	4.357374	1.476318	-0.000174
 766	7.6118e+01	9.5179	55.649898	0.000557	5.573386	1.888314	-0.000223
 767	7.6217e+01	9.4746	55.435929	0.000537	5.370717	1.819648	-0.000215
 768	7.6317e+01	9.4393	55.238110	0.000497	4.965380	1.682316	-0.000199
 769	7.6416e+01	9.4088	54.999919	0.000598	5.978723	2.025646	-0.000239
 770	7.6516e+01	9.3559	54.802099	0.000497	4.965380	1.682316	-0.000199
 771	7.6615e+01	9.3238	54.600242	0.000507	5.066715	1.716649	-0.000203
 772	7.6715e+01	9.2885	54.370126	0.000578	5.776055	1.956980	-0.000231
 773	7.6814e+01	9.2356	54.164232	0.000517	5.168049	1.750982	-0.000207
 774	7.6913e+01	9.1939	53.938152	0.000567	5.674720	1.922647	-0.000227
 775	7.7013e+01	9.1602	53.720147	0.000547	5.472052	1.853981	-0.000219
 776	7.7112e+01	9.1249	53.502141	0.000547	5.472052	1.853981	-0.000219
 777	7.7212e+01	9.0864	53.348730	0.000385	3.850703	1.304654	-0.000154
 778	7.7311e+01	9.0415	53.106502	0.000608	6.080057	2.059979	-0.000243
 779	7.7411e+01	9.0030	52.920794	0.000466	4.661377	1.579317	-0.000187
 780	7.7510e+01	8.9661	52.666454	0.000638	6.384060	2.162978	-0.000256
 781	7.7610e+01	8.9211	52.492857	0.000436	4.357374	1.476318	-0.000174
 782	7.7710e+01	8.8762	52.254666	0.000598	5.978723	2.025646	-0.000239
 783	7.7809e+01	8.8425	52.072995	0.000456	4.560043	1.544984	-0.000183
 784	7.7909e+01	8.7960	51.850953	0.000557	5.573386	1.888314	-0.000223
 785	7.8008e+01	8.7623	51.608725	0.000608	6.080057	2.059979	-0.000243
 786	7.8108e+01	8.7238	51.382645	0.000567	5.674720	1.922647	-0.000227
 787	7.8207e+01	8.6805	51.196937	0.000466	4.661377	1.579317	-0.000187
 788	7.8306e+01	8.6436	50.950672	0.000618	6.181392	2.094312	-0.000248
 789	7.8406e+01	8.6099	50.716518	0.000588	5.877389	1.991313	-0.000235
 790	7.8505e+01	8.5634	50.550995	0.000415	4.154706	1.407652	-0.000166
 791	7.8605e+01	8.5169	50.328953	0.000557	5.573386	1.888314	-0.000223
 792	7.8704e+01	8.4896	50.094799	0.000588	5.877389	1.991313	-0.000235
 793	7.8804e+01	8.4399	49.917165	0.000446	4.458709	1.510651	-0.000179
 794	7.8903e+01	8.4110	49.703197	0.000537	5.370717	1.819648	-0.000215
 795	7.9003e+01	8.3773	49.460968	0.000608	6.080057	2.059979	-0.000243
 796	7.9103e+01	8.3276	49.255075	0.000517	5.168049	1.750982	-0.000207
 797	7.9202e+01	8.2762	49.049181	0.000517	5.168049	1.750982	-0.000207
 798	7.9302e+01	8.2458	48.815027	0.000588	5.877389	1.991313	-0.000235
 799	7.9401e+01	8.2105	48.592984	0.000557	5.573386	1.888314	-0.000223
 800	7.9501e+01	8.1527	48.379016	0.000537	5.370717	1.819648	-0.000215
 801	7.9600e+01	8.1303	48.197345	0.000456	4.560043	1.544984	-0.000183
 802	7.9700e+01	8.0918	47.979340	0.000547	5.472052	1.853981	-0.000219
 803	7.9799e+01	8.0404	47.749223	0.000578	5.776055	1.956980	-0.000231
 804	7.9898e+01	7.9987	47.559478	0.000476	4.762712	1.613650	-0.000191
 805	7.9998e+01	7.9618	47.329361	0.000578	5.776055	1.956980	-0.000231
 806	8.0097e+01	7.9153	47.159801	0.000426	4.256040	1.441985	-0.000170
 807	8.0197e+01	7.8896	46.889313	0.000679	6.789397	2.300310	-0.000272
 808	8.0296e+01	7.8415	46.679382	0.000527	5.269383	1.785315	-0.000211
 809	8.0396e+01	7.8094	46.485599	0.000486	4.864046	1.647983	-0.000195
 810	8.0496e+01	7.7597	46.287780	0.000497	4.965380	1.682316	-0.000199
 811	8.0595e+01	7.7228	46.049589	0.000598	5.978723	2.025646	-0.000239
 812	8.0695e+01	7.6875	45.819472	0.000578	5.776055	1.956980	-0.000231
 813	8.0794e+01	7.6458	45.641838	0.000446	4.458709	1.510651	-0.000179
 814	8.0894e+01	7.6041	45.371350	0.000679	6.789397	2.300310	-0.000272
 815	8.0993e+01	7.5624	45.161419	0.000527	5.269383	1.785315	-0.000211
 816	8.1093e+01	7.5255	44.951488	0.000527	5.269383	1.785315	-0.000211
 817	8.1192e+01	7.4837	44.761742	0.000476	4.762712	1.613650	-0.000191
 818	8.1291e+01	7.4468	44.555849	0.000517	5.168049	1.750982	-0.000207
 819	8.1391e+01	7.4116	44.285360	0.000679	6.789397	2.300310	-0.000272
 820	8.1490e+01	7.3570	44.095615	0.000476	4.762712	1.613650	-0.000191
 821	8.1590e+01	7.3233	43.845313	0.000628	6.282726	2.128645	-0.000252
 822	8.1689e+01	7.2816	43.675753	0.000426	4.256040	1.441985	-0.000170
 823	8.1789e+01	7.2431	43.445636	0.000578	5.776055	1.956980	-0.000231
 824	8.1888e+01	7.2126	43.231668	0.000537	5.370717	1.819648	-0.000215
 825	8.1988e+01	7.1741	42.997514	0.000588	5.877389	1.991313	-0.000235
 826	8.2088e+01	7.1244	42.823917	0.000436	4.357374	1.476318	-0.000174
 827	8.2187e+01	7.0891	42.573615	0.000628	6.282726	2.128645	-0.000252
 828	8.2287e+01	7.0458	42.327350	0.000618	6.181392	2.094312	-0.000248
 829	8.2386e+01	7.0105	42.157790	0.000426	4.256040	1.441985	-0.000170
 830	8.2486e+01	6.9624	41.899413	0.000649	6.485395	2.197311	-0.000260
 831	8.2585e+01	6.9319	41.733891	0.000415	4.154706	1.407652	-0.000166
 832	8.2684e+01	6.8790	41.507811	0.000567	5.674720	1.922647	-0.000227
 833	8.2784e+01	6.8388	41.225212	0.000709	7.093400	2.403309	-0.000284
 834	8.2883e+01	6.8148	41.059689	0.000415	4.154706	1.407652	-0.000166
 835	8.2983e+01	6.7634	40.849758	0.000527	5.269383	1.785315	-0.000211
 836	8.3082e+01	6.7330	40.643864	0.000517	5.168049	1.750982	-0.000207
 837	8.3182e+01	6.6913	40.421822	0.000557	5.573386	1.888314	-0.000223
 838	8.3281e+01	6.6560	40.207853	0.000537	5.370717	1.819648	-0.000215
 839	8.3381e+01	6.6094	39.989848	0.000547	5.472052	1.853981	-0.000219
 840	8.3481e+01	6.5629	39.723397	0.000669	6.688063	2.265977	-0.000268
 841	8.3580e+01	6.5244	39.525577	0.000497	4.965380	1.682316	-0.000199
 842	8.3680e+01	6.4891	39.307572	0.000547	5.472052	1.853981	-0.000219
 843	8.3779e+01	6.4522	39.093604	0.000537	5.370717	1.819648	-0.000215
 844	8.3879e+01	6.4137	38.867524	0.000567	5.674720	1.922647	-0.000227
 845	8.3978e+01	6.3704	38.641445	0.000567	5.674720	1.922647	-0.000227
 846	8.4078e+01	6.3255	38.439588	0.000507	5.066715	1.716649	-0.000203
 847	8.4177e+01	6.2934	38.241768	0.000497	4.965380	1.682316	-0.000199
 848	8.4276e+01	6.2501	37.979354	0.000659	6.586729	2.231644	-0.000264
 849	8.4376e+01	6.2148	37.765386	0.000537	5.370717	1.819648	-0.000215
 850	8.4475e+01	6.1651	37.543344	0.000557	5.573386	1.888314	-0.000223
 851	8.4575e+01	6.1330	37.305153	0.000598	5.978723	2.025646	-0.000239
 852	8.4674e+01	6.0961	37.139630	0.000415	4.154706	1.407652	-0.000166
 853	8.4774e+01	6.0447	36.885291	0.000638	6.384060	2.162978	-0.000256
 854	8.4874e+01	6.0079	36.671322	0.000537	5.370717	1.819648	-0.000215
 855	8.4973e+01	5.9710	36.461391	0.000527	5.269383	1.785315	-0.000211
 856	8.5073e+01	5.9325	36.235312	0.000567	5.674720	1.922647	-0.000227
 857	8.5172e+01	5.8891	36.025381	0.000527	5.269383	1.785315	-0.000211
 858	8.5272e+01	5.8651	35.775078	0.000628	6.282726	2.128645	-0.000252
 859	8.5371e+01	5.8089	35.573222	0.000507	5.066715	1.716649	-0.000203
 860	8.5471e+01	5.7704	35.335031	0.000598	5.978723	2.025646	-0.000239
 861	8.5570e+01	5.7335	35.161434	0.000436	4.357374	1.476318	-0.000174
 862	8.5669e+01	5.6934	34.903057	0.000649	6.485395	2.197311	-0.000260
 863	8.5769e+01	5.6469	34.681015	0.000557	5.573386	1.888314	-0.000223
 864	8.5868e+01	5.6100	34.446861	0.000588	5.877389	1.991313	-0.000235
 865	8.5968e+01	5.5763	34.236930	0.000527	5.269383	1.785315	-0.000211
 866	8.6067e+01	5.5314	34.002776	0.000588	5.877389	1.991313	-0.000235
 867	8.6167e+01	5.4897	33.796882	0.000517	5.168049	1.750982	-0.000207
 868	8.6266e+01	5.4560	33.578877	0.000547	5.472052	1.853981	-0.000219
 869	8.6366e+01	5.4111	33.381057	0.000497	4.965380	1.682316	-0.000199
 870	8.6466e+01	5.3806	33.134792	0.000618	6.181392	2.094312	-0.000248
 871	8.6565e+01	5.3437	32.936972	0.000497	4.965380	1.682316	-0.000199
 872	8.6665e+01	5.2924	32.694744	0.000608	6.080057	2.059979	-0.000243
 873	8.6764e+01	5.2587	32.513073	0.000456	4.560043	1.544984	-0.000183
 874	8.6864e+01	5.2186	32.262770	0.000628	6.282726	2.128645	-0.000252
 875	8.6963e+01	5.1688	32.036691	0.000567	5.674720	1.922647	-0.000227
 876	8.7063e+01	5.1416	31.842908	0.000486	4.864046	1.647983	-0.000195
 877	8.7162e+01	5.0870	31.576457	0.000669	6.688063	2.265977	-0.000268
 878	8.7261e+01	5.0598	31.338266	0.000598	5.978723	2.025646	-0.000239
 879	8.7361e+01	5.0180	31.140447	0.000497	4.965380	1.682316	-0.000199
 880	8.7460e+01	4.9795	30.938590	0.000507	5.066715	1.716649	-0.000203
 881	8.7560e+01	4.9410	30.692324	0.000618	6.181392	2.094312	-0.000248
 882	8.7659e+01	4.8945	30.458171	0.000588	5.877389	1.991313	-0.000235
 883	8.7759e+01	4.8576	30.260351	0.000497	4.965380	1.682316	-0.000199
 884	8.7859e+01	4.8127	30.054457	0.000517	5.168049	1.750982	-0.000207
 885	8.7958e+01	4.7886	29.792043	0.000659	6.586729	2.231644	-0.000264
 886	8.8058e+01	4.7437	29.590186	0.000507	5.066715	1.716649	-0.000203
 887	8.8157e+01	4.6956	29.376218	0.000537	5.370717	1.819648	-0.000215
 888	8.8257e+01	4.6539	29.129953	0.000618	6.181392	2.094312	-0.000248
 889	8.8356e+01	4.6138	28.891762	0.000598	5.978723	2.025646	-0.000239
 890	8.8456e+01	4.5737	28.685868	0.000517	5.168049	1.750982	-0.000207
 891	8.8555e+01	4.5416	28.439603	0.000618	6.181392	2.094312	-0.000248
 892	8.8654e+01	4.4935	28.253894	0.000466	4.661377	1.579317	-0.000187
 893	8.8754e+01	4.4662	28.003592	0.000628	6.282726	2.128645	-0.000252
 894	8.8853e+01	4.4245	27.793661	0.000527	5.269383	1.785315	-0.000211
 895	8.8953e+01	4.3844	27.571619	0.000557	5.573386	1.888314	-0.000223
 896	8.9052e+01	4.3427	27.341502	0.000578	5.776055	1.956980	-0.000231
 897	8.9152e+01	4.3058	27.103311	0.000598	5.978723	2.025646	-0.000239
 898	8.9251e+01	4.2689	26.901454	0.000507	5.066715	1.716649	-0.000203
 899	8.9351e+01	4.2191	26.651152	0.000628	6.282726	2.128645	-0.000252
 900	8.9451e+01	4.1774	26.412961	0.000598	5.978723	2.025646	-0.000239
 901	8.9550e+01	4.1405	26.207067	0.000517	5.168049	1.750982	-0.000207
 902	8.9650e+01	4.0972	25.993098	0.000537	5.370717	1.819648	-0.000215
 903	8.9749e+01	4.0683	25.746833	0.000618	6.181392	2.094312	-0.000248
 904	8.9849e+01	4.0186	25.532865	0.000537	5.370717	1.819648	-0.000215
 905	8.9948e+01	3.9801	25.282563	0.000628	6.282726	2.128645	-0.000252
 906	9.0047e+01	3.9448	25.104929	0.000446	4.458709	1.510651	-0.000179
 907	9.0147e+01	3.8935	24.858663	0.000618	6.181392	2.094312	-0.000248
 908	9.0246e+01	3.8646	24.624509	0.000588	5.877389	1.991313	-0.000235
 909	9.0346e+01	3.8165	24.390356	0.000588	5.877389	1.991313	-0.000235
 910	9.0445e+01	3.7780	24.172350	0.000547	5.472052	1.853981	-0.000219
 911	9.0545e+01	3.7427	23.946271	0.000567	5.674720	1.922647	-0.000227
 912	9.0644e+01	3.6994	23.712117	0.000588	5.877389	1.991313	-0.000235
 913	9.0744e+01	3.6673	23.502186	0.000527	5.269383	1.785315	-0.000211
 914	9.0844e+01	3.6224	23.288218	0.000537	5.370717	1.819648	-0.000215
 915	9.0943e+01	3.5887	23.005618	0.000709	7.093400	2.403309	-0.000284
 916	9.1043e+01	3.5405	22.795687	0.000527	5.269383	1.785315	-0.000211
 917	9.1142e+01	3.5197	22.634202	0.000405	4.053372	1.373319	-0.000162
 918	9.1242e+01	3.4667	22.387936	0.000618	6.181392	2.094312	-0.000248
 919	9.1341e+01	3.4186	22.186079	0.000507	5.066715	1.716649	-0.000203
 920	9.1441e+01	3.3769	21.911554	0.000689	6.890732	2.334643	-0.000276
 921	9.1540e+01	3.3384	21.705660	0.000517	5.168049	1.750982	-0.000207
 922	9.1639e+01	3.2967	21.427098	0.000699	6.992066	2.368976	-0.000280
 923	9.1739e+01	3.2614	21.213130	0.000537	5.370717	1.819648	-0.000215
 924	9.1838e+01	3.2341	21.031459	0.000456	4.560043	1.544984	-0.000183
 925	9.1938e+01	3.1780	20.773082	0.000649	6.485395	2.197311	-0.000260
 926	9.2037e+01	3.1443	20.538928	0.000588	5.877389	1.991313	-0.000235
 927	9.2137e+01	3.1090	20.341108	0.000497	4.965380	1.682316	-0.000199
 928	9.2237e+01	3.0689	20.106955	0.000588	5.877389	1.991313	-0.000235
 929	9.2336e+01	3.0160	19.872801	0.000588	5.877389	1.991313	-0.000235
 930	9.2436e+01	2.9903	19.634610	0.000598	5.978723	2.025646	-0.000239
 931	9.2535e+01	2.9470	19.420641	0.000537	5.370717	1.819648	-0.000215
 932	9.2635e+01	2.9101	19.166302	0.000638	6.384060	2.162978	-0.000256
 933	9.2734e+01	2.8620	19.000779	0.000415	4.154706	1.407652	-0.000166
 934	9.2834e+01	2.8186	18.746440	0.000638	6.384060	2.162978	-0.000256
 935	9.2933e+01	2.7801	18.536509	0.000527	5.269383	1.785315	-0.000211
 936	9.3032e+01	2.7384	18.290243	0.000618	6.181392	2.094312	-0.000248
 937	9.3132e+01	2.7112	18.080312	0.000527	5.269383	1.785315	-0.000211
 938	9.3231e+01	2.6646	17.813861	0.000669	6.688063	2.265977	-0.000268
 939	9.3331e+01	2.6293	17.603930	0.000527	5.269383	1.785315	-0.000211
 940	9.3430e+01	2.5924	17.361702	0.000608	6.080057	2.059979	-0.000243
 941	9.3530e+01	2.5475	17.135623	0.000567	5.674720	1.922647	-0.000227
 942	9.3629e+01	2.5042	16.962026	0.000436	4.357374	1.476318	-0.000174
 943	9.3729e+01	2.4609	16.715761	0.000618	6.181392	2.094312	-0.000248
 944	9.3829e+01	2.4240	16.513904	0.000507	5.066715	1.716649	-0.000203
 945	9.3928e+01	2.3871	16.247453	0.000669	6.688063	2.265977	-0.000268
 946	9.4028e+01	2.3406	16.005225	0.000608	6.080057	2.059979	-0.000243
 947	9.4127e+01	2.3021	15.762996	0.000608	6.080057	2.059979	-0.000243
 948	9.4227e+01	2.2700	15.609585	0.000385	3.850703	1.304654	-0.000154
 949	9.4326e+01	2.2267	15.367357	0.000608	6.080057	2.059979	-0.000243
 950	9.4425e+01	2.1946	15.104943	0.000659	6.586729	2.231644	-0.000264
 951	9.4525e+01	2.1465	14.866752	0.000598	5.978723	2.025646	-0.000239
 952	9.4624e+01	2.1031	14.640673	0.000567	5.674720	1.922647	-0.000227
 953	9.4724e+01	2.0614	14.410556	0.000578	5.776055	1.956980	-0.000231
 954	9.4823e+01	2.0310	14.224848	0.000466	4.661377	1.579317	-0.000187
 955	9.4923e+01	1.9844	14.002805	0.000557	5.573386	1.888314	-0.000223
 956	9.5022e+01	1.9475	13.728280	0.000689	6.890732	2.334643	-0.000276
 957	9.5122e+01	1.8978	13.514312	0.000537	5.370717	1.819648	-0.000215
 958	9.5222e+01	1.8641	13.251898	0.000659	6.586729	2.231644	-0.000264
 959	9.5321e+01	1.8352	13.078301	0.000436	4.357374	1.476318	-0.000174
 960	9.5421e+01	1.7919	12.787627	0.000730	7.296069	2.471975	-0.000292
 961	9.5520e+01	1.7422	12.618068	0.000426	4.256040	1.441985	-0.000170
 962	9.5620e+01	1.7053	12.359691	0.000649	6.485395	2.197311	-0.000260
 963	9.5719e+01	1.6652	12.125537	0.000588	5.877389	1.991313	-0.000235
 964	9.5819e+01	1.6299	11.871198	0.000638	6.384060	2.162978	-0.000256
 965	9.5918e+01	1.5898	11.661267	0.000527	5.269383	1.785315	-0.000211
 966	9.6017e+01	1.5513	11.479595	0.000456	4.560043	1.544984	-0.000183
 967	9.6117e+01	1.5080	11.188922	0.000730	7.296069	2.471975	-0.000292
 968	9.6216e+01	1.4727	10.995139	0.000486	4.864046	1.647983	-0.000195
 969	9.6316e+01	1.4310	10.765022	0.000578	5.776055	1.956980	-0.000231
 970	9.6415e+01	1.3925	10.615648	0.000375	3.749369	1.270321	-0.000150
 971	9.6515e+01	1.3476	10.316900	0.000750	7.498737	2.540641	-0.000300
 972	9.6615e+01	1.3171	10.058524	0.000649	6.485395	2.197311	-0.000260
 973	9.6714e+01	1.2802	9.852630	0.000517	5.168049	1.750982	-0.000207
 974	9.6814e+01	1.2272	9.650773	0.000507	5.066715	1.716649	-0.000203
 975	9.6913e+01	1.1919	9.400471	0.000628	6.282726	2.128645	-0.000252
 976	9.7013e+01	1.1502	9.162280	0.000598	5.978723	2.025646	-0.000239
 977	9.7112e+01	1.1117	8.952348	0.000527	5.269383	1.785315	-0.000211
 978	9.7212e+01	1.0684	8.714157	0.000598	5.978723	2.025646	-0.000239
 979	9.7311e+01	1.0283	8.520375	0.000486	4.864046	1.647983	-0.000195
 980	9.7410e+01	1.0026	8.257961	0.000659	6.586729	2.231644	-0.000264
 981	9.7510e+01	0.9465	8.035919	0.000557	5.573386	1.888314	-0.000223
 982	9.7609e+01	0.9096	7.866359	0.000426	4.256040	1.441985	-0.000170
 983	9.7709e+01	0.8807	7.571648	0.000740	7.397403	2.506308	-0.000296
 984	9.7808e+01	0.8278	7.341531	0.000578	5.776055	1.956980	-0.000231
 985	9.7908e+01	0.7893	7.135637	0.000517	5.168049	1.750982	-0.000207
 986	9.8007e+01	0.7508	6.881298	0.000638	6.384060	2.162978	-0.000256
 987	9.8107e+01	0.6946	6.655218	0.000567	5.674720	1.922647	-0.000227
 988	9.8207e+01	0.6786	6.513919	0.000355	3.546700	1.201655	-0.000142
 989	9.8306e+01	0.6353	6.223245	0.000730	7.296069	2.471975	-0.000292
 990	9.8406e+01	0.5823	5.964868	0.000649	6.485395	2.197311	-0.000260
 991	9.8505e+01	0.5470	5.771086	0.000486	4.864046	1.647983	-0.000195
 992	9.8605e+01	0.5134	5.532895	0.000598	5.978723	2.025646	-0.000239
 993	9.8704e+01	0.4749	5.327001	0.000517	5.168049	1.750982	-0.000207
 994	9.8803e+01	0.4347	5.100921	0.000567	5.674720	1.922647	-0.000227
 995	9.8903e+01	0.3995	4.862730	0.000598	5.978723	2.025646	-0.000239
 996	9.9002e+01	0.3529	4.592242	0.000679	6.789397	2.300310	-0.000272
 997	9.9102e+01	0.3096	4.386348	0.000517	5.168049	1.750982	-0.000207
 998	9.9201e+01	0.2727	4.172380	0.000537	5.370717	1.819648	-0.000215
 999	9.9301e+01	0.2326	3.942263	0.000578	5.776055	1.956980	-0.000231
1000	9.9400e+01	0.2005	3.687923	0.000638	6.384060	2.162978	-0.000256
1001	9.9500e+01	0.1508	3.510290	0.000446	4.458709	1.510651	-0.000179
1002	9.9600e+01	0.1187	3.239801	0.000679	6.789397	2.300310	-0.000272
1003	9.9699e+01	0.0754	2.977388	0.000659	6.586729	2.231644	-0.000264
1004	9.9799e+01	0.0433	2.799754	0.000446	4.458709	1.510651	-0.000179
1005	9.9898e+01	0.0112	2.622120	0.000446	4.458709	1.510651	-0.000179
1006	9.9998e+01	-0.0321	2.371817	0.000628	6.282726	2.128645	-0.000252
1007	1.0010e+02	-0.0818	2.169960	0.000507	5.066715	1.716649	-0.000203
1008	1.0020e+02	-0.1123	1.903510	0.000669	6.688063	2.265977	-0.000268
1009	1.0030e+02	-0.1556	1.685504	0.000547	5.472052	1.853981	-0.000219
1010	1.0040e+02	-0.2005	1.475573	0.000527	5.269383	1.785315	-0.000211
1011	1.0050e+02	-0.2390	1.253531	0.000557	5.573386	1.888314	-0.000223
1012	1.0059e+02	-0.2888	1.015340	0.000598	5.978723	2.025646	-0.000239
1013	1.0069e+02	-0.3096	0.785223	0.000578	5.776055	1.956980	-0.000231
1014	1.0079e+02	-0.3561	0.542995	0.000608	6.080057	2.059979	-0.000243
1015	1.0089e+02	-0.3962	0.337101	0.000517	5.168049	1.750982	-0.000207
1016	1.0099e+02	-0.4396	0.074687	0.000659	6.586729	2.231644	-0.000264
1017	1.0109e+02	-0.4765	-0.119096	0.000486	4.864046	1.647983	-0.000195
1018	1.0119e+02	-0.5085	-0.345175	0.000567	5.674720	1.922647	-0.000227
1019	1.0129e+02	-0.5486	-0.591440	0.000618	6.181392	2.094312	-0.000248
1020	1.0139e+02	-0.5984	-0.829631	0.000598	5.978723	2.025646	-0.000239
1021	1.0149e+02	-0.6401	-1.063785	0.000588	5.877389	1.991313	-0.000235
1022	1.0159e+02	-0.6738	-1.277753	0.000537	5.370717	1.819648	-0.000215
1023	1.0169e+02	-0.7139	-1.471536	0.000486	4.864046	1.647983	-0.000195
1024	1.0179e+02	-0.7524	-1.729913	0.000649	6.485395	2.197311	-0.000260
1025	1.0189e+02	-0.7973	-1.947918	0.000547	5.472052	1.853981	-0.000219
1026	1.0199e+02	-0.8390	-2.145738	0.000497	4.965380	1.682316	-0.000199
1027	1.0209e+02	-0.8695	-2.392003	0.000618	6.181392	2.094312	-0.000248
1028	1.0219e+02	-0.9208	-2.614045	0.000557	5.573386	1.888314	-0.000223
1029	1.0229e+02	-0.9497	-2.852236	0.000598	5.978723	2.025646	-0.000239
1030	1.0239e+02	-0.9930	-3.070242	0.000547	5.472052	1.853981	-0.000219
1031	1.0248e+02	-1.0331	-3.332656	0.000659	6.586729	2.231644	-0.000264
1032	1.0258e+02	-1.0684	-3.522401	0.000476	4.762712	1.613650	-0.000191
1033	1.0268e+02	-1.1117	-3.809038	0.000719	7.194735	2.437642	-0.000288
1034	1.0278e+02	-1.1599	-4.018969	0.000527	5.269383	1.785315	-0.000211
1035	1.0288e+02	-1.1871	-4.212751	0.000486	4.864046	1.647983	-0.000195
1036	1.0298e+02	-1.2304	-4.459016	0.000618	6.181392	2.094312	-0.000248
1037	1.0308e+02	-1.2706	-4.656836	0.000497	4.965380	1.682316	-0.000199
1038	1.0318e+02	-1.3091	-4.895027	0.000598	5.978723	2.025646	-0.000239
1039	1.0328e+02	-1.3556	-5.149367	0.000638	6.384060	2.162978	-0.000256
1040	1.0338e+02	-1.3893	-5.367372	0.000547	5.472052	1.853981	-0.000219
1041	1.0348e+02	-1.4342	-5.536932	0.000426	4.256040	1.441985	-0.000170
1042	1.0358e+02	-1.4759	-5.819531	0.000709	7.093400	2.403309	-0.000284
1043	1.0368e+02	-1.5112	-6.029462	0.000527	5.269383	1.785315	-0.000211
1044	1.0378e+02	-1.5561	-6.231319	0.000507	5.066715	1.716649	-0.000203
1045	1.0388e+02	-1.5914	-6.513919	0.000709	7.093400	2.403309	-0.000284
1046	1.0398e+02	-1.6299	-6.683478	0.000426	4.256040	1.441985	-0.000170
1047	1.0408e+02	-1.6700	-6.937818	0.000638	6.384060	2.162978	-0.000256
1048	1.0418e+02	-1.7101	-7.139675	0.000507	5.066715	1.716649	-0.000203
1049	1.0428e+02	-1.7518	-7.365754	0.000567	5.674720	1.922647	-0.000227
1050	1.0438e+02	-1.7919	-7.583759	0.000547	5.472052	1.853981	-0.000219
1051	1.0447e+02	-1.8272	-7.830025	0.000618	6.181392	2.094312	-0.000248
1052	1.0457e+02	-1.8673	-8.035919	0.000517	5.168049	1.750982	-0.000207
1053	1.0467e+02	-1.9042	-8.294295	0.000649	6.485395	2.197311	-0.000260
1054	1.0477e+02	-1.9475	-8.528449	0.000588	5.877389	1.991313	-0.000235
1055	1.0487e+02	-1.9957	-8.750492	0.000557	5.573386	1.888314	-0.000223
1056	1.0497e+02	-2.0261	-9.016943	0.000669	6.688063	2.265977	-0.000268
1057	1.0507e+02	-2.0646	-9.210725	0.000486	4.864046	1.647983	-0.000195
1058	1.0517e+02	-2.1048	-9.456990	0.000618	6.181392	2.094312	-0.000248
1059	1.0527e+02	-2.1513	-9.654810	0.000497	4.965380	1.682316	-0.000199
1060	1.0537e+02	-2.1866	-9.893001	0.000598	5.978723	2.025646	-0.000239
1061	1.0547e+02	-2.2219	-10.123118	0.000578	5.776055	1.956980	-0.000231
1062	1.0557e+02	-2.2764	-10.337086	0.000537	5.370717	1.819648	-0.000215
1063	1.0567e+02	-2.3005	-10.575277	0.000598	5.978723	2.025646	-0.000239
1064	1.0577e+02	-2.3502	-10.793282	0.000547	5.472052	1.853981	-0.000219
1065	1.0587e+02	-2.3887	-11.043585	0.000628	6.282726	2.128645	-0.000252
1066	1.0597e+02	-2.4272	-11.277739	0.000588	5.877389	1.991313	-0.000235
1067	1.0607e+02	-2.4625	-11.443261	0.000415	4.154706	1.407652	-0.000166
1068	1.0617e+02	-2.5042	-11.697601	0.000638	6.384060	2.162978	-0.000256
1069	1.0627e+02	-2.5459	-11.947903	0.000628	6.282726	2.128645	-0.000252
1070	1.0637e+02	-2.5780	-12.182057	0.000588	5.877389	1.991313	-0.000235
1071	1.0647e+02	-2.6309	-12.359691	0.000446	4.458709	1.510651	-0.000179
1072	1.0656e+02	-2.6678	-12.593845	0.000588	5.877389	1.991313	-0.000235
1073	1.0666e+02	-2.7015	-12.823962	0.000578	5.776055	1.956980	-0.000231
1074	1.0676e+02	-2.7481	-13.066190	0.000608	6.080057	2.059979	-0.000243
1075	1.0686e+02	-2.7866	-13.292269	0.000567	5.674720	1.922647	-0.000227
1076	1.0696e+02	-2.8299	-13.518349	0.000567	5.674720	1.922647	-0.000227
1077	1.0706e+02	-2.8748	-13.748466	0.000578	5.776055	1.956980	-0.000231
1078	1.0716e+02	-2.9069	-13.962434	0.000537	5.370717	1.819648	-0.000215
1079	1.0726e+02	-2.9502	-14.236959	0.000689	6.890732	2.334643	-0.000276
1080	1.0736e+02	-2.9919	-14.422667	0.000466	4.661377	1.579317	-0.000187
1081	1.0746e+02	-3.0320	-14.652784	0.000578	5.776055	1.956980	-0.000231
1082	1.0756e+02	-3.0609	-14.842530	0.000476	4.762712	1.613650	-0.000191
1083	1.0766e+02	-3.1074	-15.068609	0.000567	5.674720	1.922647	-0.000227
1084	1.0776e+02	-3.1443	-15.343134	0.000689	6.890732	2.334643	-0.000276
1085	1.0786e+02	-3.1892	-15.549028	0.000517	5.168049	1.750982	-0.000207
1086	1.0796e+02	-3.2245	-15.750885	0.000507	5.066715	1.716649	-0.000203
1087	1.0806e+02	-3.2646	-16.017336	0.000669	6.688063	2.265977	-0.000268
1088	1.0816e+02	-3.3079	-16.166710	0.000375	3.749369	1.270321	-0.000150
1089	1.0826e+02	-3.3561	-16.433161	0.000669	6.688063	2.265977	-0.000268
1090	1.0836e+02	-3.3817	-16.667315	0.000588	5.877389	1.991313	-0.000235
1091	1.0845e+02	-3.4250	-16.889357	0.000557	5.573386	1.888314	-0.000223
1092	1.0855e+02	-3.4635	-17.083140	0.000486	4.864046	1.647983	-0.000195
1093	1.0865e+02	-3.4972	-17.321331	0.000598	5.978723	2.025646	-0.000239
1094	1.0875e+02	-3.5454	-17.555485	0.000588	5.877389	1.991313	-0.000235
1095	1.0885e+02	-3.5839	-17.789639	0.000588	5.877389	1.991313	-0.000235
1096	1.0895e+02	-3.6272	-17.979384	0.000476	4.762712	1.613650	-0.000191
1097	1.0905e+02	-3.6705	-18.173167	0.000486	4.864046	1.647983	-0.000195
1098	1.0915e+02	-3.7042	-18.415395	0.000608	6.080057	2.059979	-0.000243
1099	1.0925e+02	-3.7459	-18.653586	0.000598	5.978723	2.025646	-0.000239
1100	1.0935e+02	-3.7876	-18.891777	0.000598	5.978723	2.025646	-0.000239
1101	1.0945e+02	-3.8245	-19.101708	0.000527	5.269383	1.785315	-0.000211
1102	1.0955e+02	-3.8550	-19.335862	0.000588	5.877389	1.991313	-0.000235
1103	1.0965e+02	-3.9015	-19.578090	0.000608	6.080057	2.059979	-0.000243
1104	1.0975e+02	-3.9416	-19.775909	0.000497	4.965380	1.682316	-0.000199
1105	1.0985e+02	-3.9849	-19.993915	0.000547	5.472052	1.853981	-0.000219
1106	1.0995e+02	-4.0330	-20.236143	0.000608	6.080057	2.059979	-0.000243
1107	1.1005e+02	-4.0619	-20.433963	0.000497	4.965380	1.682316	-0.000199
1108	1.1015e+02	-4.1084	-20.680228	0.000618	6.181392	2.094312	-0.000248
1109	1.1025e+02	-4.1357	-20.914382	0.000588	5.877389	1.991313	-0.000235
1110	1.1035e+02	-4.1790	-21.100090	0.000466	4.661377	1.579317	-0.000187
1111	1.1044e+02	-4.2239	-21.330207	0.000578	5.776055	1.956980	-0.000231
1112	1.1054e+02	-4.2624	-21.523989	0.000486	4.864046	1.647983	-0.000195
1113	1.1064e+02	-4.3058	-21.766217	0.000608	6.080057	2.059979	-0.000243
1114	1.1074e+02	-4.3314	-22.012483	0.000618	6.181392	2.094312	-0.000248
1115	1.1084e+02	-4.3796	-22.194154	0.000456	4.560043	1.544984	-0.000183
1116	1.1094e+02	-4.4165	-22.444456	0.000628	6.282726	2.128645	-0.000252
1117	1.1104e+02	-4.4614	-22.642276	0.000497	4.965380	1.682316	-0.000199
1118	1.1114e+02	-4.4935	-22.876430	0.000588	5.877389	1.991313	-0.000235
1119	1.1124e+02	-4.5400	-23.134806	0.000649	6.485395	2.197311	-0.000260
1120	1.1134e+02	-4.5769	-23.332626	0.000497	4.965380	1.682316	-0.000199
1121	1.1144e+02	-4.6314	-23.550631	0.000547	5.472052	1.853981	-0.000219
1122	1.1154e+02	-4.6555	-23.768637	0.000547	5.472052	1.853981	-0.000219
1123	1.1164e+02	-4.7004	-24.018939	0.000628	6.282726	2.128645	-0.000252
1124	1.1174e+02	-4.7357	-24.232907	0.000537	5.370717	1.819648	-0.000215
1125	1.1184e+02	-4.7854	-24.450913	0.000547	5.472052	1.853981	-0.000219
1126	1.1194e+02	-4.8175	-24.636621	0.000466	4.661377	1.579317	-0.000187
1127	1.1204e+02	-4.8496	-24.882886	0.000618	6.181392	2.094312	-0.000248
1128	1.1214e+02	-4.8961	-25.133189	0.000628	6.282726	2.128645	-0.000252
1129	1.1224e+02	-4.9394	-25.322934	0.000476	4.762712	1.613650	-0.000191
1130	1.1234e+02	-4.9763	-25.524791	0.000507	5.066715	1.716649	-0.000203
1131	1.1244e+02	-5.0180	-25.767019	0.000608	6.080057	2.059979	-0.000243
1132	1.1253e+02	-5.0501	-25.952727	0.000466	4.661377	1.579317	-0.000187
1133	1.1263e+02	-5.0966	-26.219178	0.000669	6.688063	2.265977	-0.000268
1134	1.1273e+02	-5.1400	-26.400849	0.000456	4.560043	1.544984	-0.000183
1135	1.1283e+02	-5.1769	-26.663263	0.000659	6.586729	2.231644	-0.000264
1136	1.1293e+02	-5.2314	-26.824748	0.000405	4.053372	1.373319	-0.000162
1137	1.1303e+02	-5.2571	-27.075051	0.000628	6.282726	2.128645	-0.000252
1138	1.1313e+02	-5.2924	-27.284982	0.000527	5.269383	1.785315	-0.000211
1139	1.1323e+02	-5.3357	-27.462616	0.000446	4.458709	1.510651	-0.000179
1140	1.1333e+02	-5.3790	-27.688695	0.000567	5.674720	1.922647	-0.000227
1141	1.1343e+02	-5.4175	-27.955146	0.000669	6.688063	2.265977	-0.000268
1142	1.1353e+02	-5.4544	-28.148929	0.000486	4.864046	1.647983	-0.000195
1143	1.1363e+02	-5.4961	-28.375009	0.000567	5.674720	1.922647	-0.000227
1144	1.1373e+02	-5.5330	-28.584940	0.000527	5.269383	1.785315	-0.000211
1145	1.1383e+02	-5.5779	-28.815056	0.000578	5.776055	1.956980	-0.000231
1146	1.1393e+02	-5.6164	-28.996727	0.000456	4.560043	1.544984	-0.000183
1147	1.1403e+02	-5.6613	-29.218770	0.000557	5.573386	1.888314	-0.000223
1148	1.1413e+02	-5.6982	-29.448887	0.000578	5.776055	1.956980	-0.000231
1149	1.1423e+02	-5.7271	-29.691115	0.000608	6.080057	2.059979	-0.000243
1150	1.1433e+02	-5.7688	-29.864712	0.000436	4.357374	1.476318	-0.000174
1151	1.1442e+02	-5.8121	-30.058494	0.000486	4.864046	1.647983	-0.000195
1152	1.1452e+02	-5.8587	-30.341094	0.000709	7.093400	2.403309	-0.000284
1153	1.1462e+02	-5.8940	-30.494505	0.000385	3.850703	1.304654	-0.000154
1154	1.1472e+02	-5.9276	-30.720584	0.000567	5.674720	1.922647	-0.000227
1155	1.1482e+02	-5.9742	-30.942627	0.000557	5.573386	1.888314	-0.000223
1156	1.1492e+02	-6.0127	-31.213115	0.000679	6.789397	2.300310	-0.000272
1157	1.1502e+02	-6.0512	-31.410935	0.000497	4.965380	1.682316	-0.000199
1158	1.1512e+02	-6.0929	-31.588569	0.000446	4.458709	1.510651	-0.000179
1159	1.1522e+02	-6.1378	-31.786388	0.000497	4.965380	1.682316	-0.000199
1160	1.1532e+02	-6.1747	-32.089173	0.000760	7.600072	2.574974	-0.000304
1161	1.1542e+02	-6.2148	-32.262770	0.000436	4.357374	1.476318	-0.000174
1162	1.1552e+02	-6.2485	-32.509036	0.000618	6.181392	2.094312	-0.000248
1163	1.1562e+02	-6.2950	-32.698781	0.000476	4.762712	1.613650	-0.000191
1164	1.1572e+02	-6.3303	-32.916786	0.000547	5.472052	1.853981	-0.000219
1165	1.1582e+02	-6.3720	-33.126717	0.000527	5.269383	1.785315	-0.000211
1166	1.1592e+02	-6.4137	-33.348760	0.000557	5.573386	1.888314	-0.000223
1167	1.1602e+02	-6.4538	-33.510245	0.000405	4.053372	1.373319	-0.000162
1168	1.1612e+02	-6.4987	-33.756510	0.000618	6.181392	2.094312	-0.000248
1169	1.1622e+02	-6.5308	-33.942219	0.000466	4.661377	1.579317	-0.000187
1170	1.1632e+02	-6.5693	-34.172335	0.000578	5.776055	1.956980	-0.000231
1171	1.1642e+02	-6.6126	-34.398415	0.000567	5.674720	1.922647	-0.000227
1172	1.1651e+02	-6.6447	-34.608346	0.000527	5.269383	1.785315	-0.000211
1173	1.1661e+02	-6.6816	-34.790017	0.000456	4.560043	1.544984	-0.000183
1174	1.1671e+02	-6.7346	-35.048394	0.000649	6.485395	2.197311	-0.000260
1175	1.1681e+02	-6.7650	-35.230065	0.000456	4.560043	1.544984	-0.000183
1176	1.1691e+02	-6.8100	-35.472293	0.000608	6.080057	2.059979	-0.000243
1177	1.1701e+02	-6.8485	-35.658001	0.000466	4.661377	1.579317	-0.000187
1178	1.1711e+02	-6.8902	-35.892155	0.000588	5.877389	1.991313	-0.000235
1179	1.1721e+02	-6.9319	-36.081901	0.000476	4.762712	1.613650	-0.000191
1180	1.1731e+02	-6.9624	-36.299906	0.000547	5.472052	1.853981	-0.000219
1181	1.1741e+02	-7.0073	-36.513874	0.000537	5.370717	1.819648	-0.000215
1182	1.1751e+02	-7.0506	-36.671322	0.000395	3.952037	1.338986	-0.000158
1183	1.1761e+02	-7.0875	-36.970071	0.000750	7.498737	2.540641	-0.000300
1184	1.1771e+02	-7.1260	-37.131556	0.000405	4.053372	1.373319	-0.000162
1185	1.1781e+02	-7.1677	-37.389933	0.000649	6.485395	2.197311	-0.000260
1186	1.1791e+02	-7.2078	-37.611975	0.000557	5.573386	1.888314	-0.000223
1187	1.1801e+02	-7.2463	-37.797683	0.000466	4.661377	1.579317	-0.000187
1188	1.1811e+02	-7.2848	-38.007614	0.000527	5.269383	1.785315	-0.000211
1189	1.1821e+02	-7.3297	-38.225620	0.000547	5.472052	1.853981	-0.000219
1190	1.1831e+02	-7.3602	-38.423439	0.000497	4.965380	1.682316	-0.000199
1191	1.1841e+02	-7.4067	-38.653556	0.000578	5.776055	1.956980	-0.000231
1192	1.1850e+02	-7.4436	-38.806967	0.000385	3.850703	1.304654	-0.000154
1193	1.1860e+02	-7.4837	-39.077455	0.000679	6.789397	2.300310	-0.000272
1194	1.1870e+02	-7.5271	-39.275275	0.000497	4.965380	1.682316	-0.000199
1195	1.1880e+02	-7.5607	-39.485206	0.000527	5.269383	1.785315	-0.000211
1196	1.1890e+02	-7.6025	-39.723397	0.000598	5.978723	2.025646	-0.000239
1197	1.1900e+02	-7.6570	-39.921217	0.000497	4.965380	1.682316	-0.000199
1198	1.1910e+02	-7.6891	-40.106925	0.000466	4.661377	1.579317	-0.000187
1199	1.1920e+02	-7.7228	-40.345116	0.000598	5.978723	2.025646	-0.000239
1200	1.1930e+02	-7.7677	-40.526787	0.000456	4.560043	1.544984	-0.000183
1201	1.1940e+02	-7.8078	-40.760941	0.000588	5.877389	1.991313	-0.000235
1202	1.1950e+02	-7.8399	-40.926464	0.000415	4.154706	1.407652	-0.000166
1203	1.1960e+02	-7.8896	-41.140432	0.000537	5.370717	1.819648	-0.000215
1204	1.1970e+02	-7.9169	-41.374586	0.000588	5.877389	1.991313	-0.000235
1205	1.1980e+02	-7.9602	-41.584517	0.000527	5.269383	1.785315	-0.000211
1206	1.1990e+02	-8.0067	-41.838856	0.000638	6.384060	2.162978	-0.000256
1207	1.2000e+02	-8.0420	-41.984193	0.000365	3.648034	1.235988	-0.000146
1208	1.2010e+02	-8.0869	-42.218347	0.000588	5.877389	1.991313	-0.000235
1209	1.2020e+02	-8.1270	-42.424241	0.000517	5.168049	1.750982	-0.000207
1210	1.2030e+02	-8.1671	-42.630135	0.000517	5.168049	1.750982	-0.000207
1211	1.2039e+02	-8.1992	-42.819880	0.000476	4.762712	1.613650	-0.000191
1212	1.2049e+02	-8.2425	-43.058071	0.000598	5.978723	2.025646	-0.000239
1213	1.2059e+02	-8.2778	-43.255891	0.000497	4.965380	1.682316	-0.000199
1214	1.2069e+02	-8.3244	-43.477933	0.000557	5.573386	1.888314	-0.000223
1215	1.2079e+02	-8.3564	-43.671716	0.000486	4.864046	1.647983	-0.000195
1216	1.2089e+02	-8.4078	-43.849350	0.000446	4.458709	1.510651	-0.000179
1217	1.2099e+02	-8.4495	-44.095615	0.000618	6.181392	2.094312	-0.000248
1218	1.2109e+02	-8.4848	-44.317658	0.000557	5.573386	1.888314	-0.000223
1219	1.2119e+02	-8.5201	-44.483180	0.000415	4.154706	1.407652	-0.000166
1220	1.2129e+02	-8.5650	-44.701185	0.000547	5.472052	1.853981	-0.000219
1221	1.2139e+02	-8.5971	-44.919191	0.000547	5.472052	1.853981	-0.000219
1222	1.2149e+02	-8.6388	-45.121048	0.000507	5.066715	1.716649	-0.000203
1223	1.2159e+02	-8.6837	-45.351164	0.000578	5.776055	1.956980	-0.000231
1224	1.2169e+02	-8.7142	-45.544947	0.000486	4.864046	1.647983	-0.000195
1225	1.2179e+02	-8.7559	-45.738729	0.000486	4.864046	1.647983	-0.000195
1226	1.2189e+02	-8.7992	-45.948660	0.000527	5.269383	1.785315	-0.000211
1227	1.2199e+02	-8.8441	-46.178777	0.000578	5.776055	1.956980	-0.000231
1228	1.2209e+02	-8.8730	-46.421005	0.000608	6.080057	2.059979	-0.000243
1229	1.2219e+02	-8.9276	-46.566342	0.000365	3.648034	1.235988	-0.000146
1230	1.2229e+02	-8.9693	-46.784348	0.000547	5.472052	1.853981	-0.000219
1231	1.2239e+02	-9.0014	-46.998316	0.000537	5.370717	1.819648	-0.000215
1232	1.2248e+02	-9.0350	-47.204210	0.000517	5.168049	1.750982	-0.000207
1233	1.2258e+02	-9.0767	-47.410104	0.000517	5.168049	1.750982	-0.000207
1234	1.2268e+02	-9.1233	-47.599849	0.000476	4.762712	1.613650	-0.000191
1235	1.2278e+02	-9.1602	-47.789594	0.000476	4.762712	1.613650	-0.000191
1236	1.2288e+02	-9.1987	-48.015674	0.000567	5.674720	1.922647	-0.000227
1237	1.2298e+02	-9.2388	-48.185234	0.000426	4.256040	1.441985	-0.000170
1238	1.2308e+02	-9.2757	-48.423425	0.000598	5.978723	2.025646	-0.000239
1239	1.2318e+02	-9.3174	-48.665653	0.000608	6.080057	2.059979	-0.000243
1240	1.2328e+02	-9.3559	-48.831175	0.000415	4.154706	1.407652	-0.000166
1241	1.2338e+02	-9.4040	-49.053218	0.000557	5.573386	1.888314	-0.000223
1242	1.2348e+02	-9.4409	-49.299483	0.000618	6.181392	2.094312	-0.000248
1243	1.2358e+02	-9.4746	-49.489228	0.000476	4.762712	1.613650	-0.000191
1244	1.2368e+02	-9.5147	-49.634565	0.000365	3.648034	1.235988	-0.000146
1245	1.2378e+02	-9.5660	-49.876793	0.000608	6.080057	2.059979	-0.000243
1246	1.2388e+02	-9.5917	-50.094799	0.000547	5.472052	1.853981	-0.000219
1247	1.2398e+02	-9.6350	-50.292618	0.000497	4.965380	1.682316	-0.000199
1248	1.2408e+02	-9.6735	-50.490438	0.000497	4.965380	1.682316	-0.000199
1249	1.2418e+02	-9.7120	-50.680183	0.000476	4.762712	1.613650	-0.000191
1250	1.2428e+02	-9.7553	-50.930486	0.000628	6.282726	2.128645	-0.000252
1251	1.2438e+02	-9.8099	-51.091971	0.000405	4.053372	1.373319	-0.000162
1252	1.2447e+02	-9.8275	-51.249420	0.000395	3.952037	1.338986	-0.000158
1253	1.2457e+02	-9.8773	-51.479536	0.000578	5.776055	1.956980	-0.000231
1254	1.2467e+02	-9.9158	-51.669282	0.000476	4.762712	1.613650	-0.000191
1255	1.2477e+02	-9.9527	-51.891324	0.000557	5.573386	1.888314	-0.000223
1256	1.2487e+02	-10.0040	-52.113367	0.000557	5.573386	1.888314	-0.000223
1257	1.2497e+02	-10.0345	-52.299075	0.000466	4.661377	1.579317	-0.000187
1258	1.2507e+02	-10.0842	-52.504969	0.000517	5.168049	1.750982	-0.000207
1259	1.2517e+02	-10.1131	-52.702788	0.000497	4.965380	1.682316	-0.000199
1260	1.2527e+02	-10.1580	-52.924831	0.000557	5.573386	1.888314	-0.000223
1261	1.2537e+02	-10.1981	-53.082279	0.000395	3.952037	1.338986	-0.000158
1262	1.2547e+02	-10.2382	-53.296247	0.000537	5.370717	1.819648	-0.000215
1263	1.2557e+02	-10.2783	-53.538476	0.000608	6.080057	2.059979	-0.000243
1264	1.2567e+02	-10.3248	-53.728221	0.000476	4.762712	1.613650	-0.000191
1265	1.2577e+02	-10.3553	-53.930078	0.000507	5.066715	1.716649	-0.000203
1266	1.2587e+02	-10.3970	-54.099637	0.000426	4.256040	1.441985	-0.000170
1267	1.2597e+02	-10.4307	-54.301494	0.000507	5.066715	1.716649	-0.000203
1268	1.2607e+02	-10.4772	-54.523537	0.000557	5.573386	1.888314	-0.000223
1269	1.2617e+02	-10.5077	-54.680985	0.000395	3.952037	1.338986	-0.000158
1270	1.2627e+02	-10.5542	-54.931287	0.000628	6.282726	2.128645	-0.000252
1271	1.2636e+02	-10.5944	-55.121033	0.000476	4.762712	1.613650	-0.000191
1272	1.2646e+02	-10.6345	-55.282518	0.000405	4.053372	1.373319	-0.000162
1273	1.2656e+02	-10.6778	-55.520709	0.000598	5.978723	2.025646	-0.000239
1274	1.2666e+02	-10.7115	-55.694306	0.000436	4.357374	1.476318	-0.000174
1275	1.2676e+02	-10.7580	-55.904237	0.000527	5.269383	1.785315	-0.000211
1276	1.2686e+02	-10.7965	-56.098020	0.000486	4.864046	1.647983	-0.000195
1277	1.2696e+02	-10.8206	-56.328136	0.000578	5.776055	1.956980	-0.000231
1278	1.2706e+02	-10.8703	-56.525956	0.000497	4.965380	1.682316	-0.000199
1279	1.2716e+02	-10.9200	-56.719739	0.000486	4.864046	1.647983	-0.000195
1280	1.2726e+02	-10.9441	-56.897373	0.000446	4.458709	1.510651	-0.000179
1281	1.2736e+02	-10.9954	-57.111341	0.000537	5.370717	1.819648	-0.000215
1282	1.2746e+02	-11.0339	-57.305123	0.000486	4.864046	1.647983	-0.000195
1283	1.2756e+02	-11.0660	-57.523129	0.000547	5.472052	1.853981	-0.000219
1284	1.2766e+02	-11.1061	-57.724985	0.000507	5.066715	1.716649	-0.000203
1285	1.2776e+02	-11.1590	-57.902619	0.000446	4.458709	1.510651	-0.000179
1286	1.2786e+02	-11.2024	-58.124662	0.000557	5.573386	1.888314	-0.000223
1287	1.2796e+02	-11.2344	-58.302296	0.000446	4.458709	1.510651	-0.000179
1288	1.2806e+02	-11.2745	-58.508190	0.000517	5.168049	1.750982	-0.000207
1289	1.2816e+02	-11.3147	-58.710046	0.000507	5.066715	1.716649	-0.000203
1290	1.2826e+02	-11.3532	-58.960349	0.000628	6.282726	2.128645	-0.000252
1291	1.2835e+02	-11.3981	-59.129909	0.000426	4.256040	1.441985	-0.000170
1292	1.2845e+02	-11.4253	-59.295431	0.000415	4.154706	1.407652	-0.000166
1293	1.2855e+02	-11.4751	-59.505362	0.000527	5.269383	1.785315	-0.000211
1294	1.2865e+02	-11.5088	-59.674922	0.000426	4.256040	1.441985	-0.000170
1295	1.2875e+02	-11.5521	-59.888890	0.000537	5.370717	1.819648	-0.000215
1296	1.2885e+02	-11.5794	-60.046338	0.000395	3.952037	1.338986	-0.000158
1297	1.2895e+02	-11.6259	-60.312789	0.000669	6.688063	2.265977	-0.000268
1298	1.2905e+02	-11.6612	-60.462163	0.000375	3.749369	1.270321	-0.000150
1299	1.2915e+02	-11.7077	-60.676132	0.000537	5.370717	1.819648	-0.000215
1300	1.2925e+02	-11.7462	-60.857803	0.000456	4.560043	1.544984	-0.000183
1301	1.2935e+02	-11.7863	-61.051585	0.000486	4.864046	1.647983	-0.000195
1302	1.2945e+02	-11.8200	-61.265553	0.000537	5.370717	1.819648	-0.000215
1303	1.2955e+02	-11.8697	-61.463373	0.000497	4.965380	1.682316	-0.000199
1304	1.2965e+02	-11.9034	-61.657156	0.000486	4.864046	1.647983	-0.000195
1305	1.2975e+02	-11.9419	-61.846901	0.000476	4.762712	1.613650	-0.000191
1306	1.2985e+02	-11.9836	-62.056832	0.000527	5.269383	1.785315	-0.000211
1307	1.2995e+02	-12.0221	-62.246577	0.000476	4.762712	1.613650	-0.000191
1308	1.3005e+02	-12.0670	-62.408063	0.000405	4.053372	1.373319	-0.000162
1309	1.3015e+02	-12.1023	-62.605882	0.000497	4.965380	1.682316	-0.000199
1310	1.3025e+02	-12.1424	-62.791591	0.000466	4.661377	1.579317	-0.000187
1311	1.3034e+02	-12.1906	-62.981336	0.000476	4.762712	1.613650	-0.000191
1312	1.3044e+02	-12.2275	-63.207416	0.000567	5.674720	1.922647	-0.000227
1313	1.3054e+02	-12.2644	-63.405235	0.000497	4.965380	1.682316	-0.000199
1314	1.3064e+02	-12.3109	-63.578832	0.000436	4.357374	1.476318	-0.000174
1315	1.3074e+02	-12.3446	-63.752429	0.000436	4.357374	1.476318	-0.000174
1316	1.3084e+02	-12.3911	-63.990620	0.000598	5.978723	2.025646	-0.000239
1317	1.3094e+02	-12.4376	-64.152105	0.000405	4.053372	1.373319	-0.000162
1318	1.3104e+02	-12.4649	-64.333777	0.000456	4.560043	1.544984	-0.000183
1319	1.3114e+02	-12.5098	-64.555819	0.000557	5.573386	1.888314	-0.000223
1320	1.3124e+02	-12.5467	-64.753639	0.000497	4.965380	1.682316	-0.000199
1321	1.3134e+02	-12.5820	-64.903013	0.000375	3.749369	1.270321	-0.000150
1322	1.3144e+02	-12.6285	-65.121018	0.000547	5.472052	1.853981	-0.000219
1323	1.3154e+02	-12.6702	-65.302689	0.000456	4.560043	1.544984	-0.000183
1324	1.3164e+02	-12.7055	-65.520694	0.000547	5.472052	1.853981	-0.000219
1325	1.3174e+02	-12.7456	-65.706403	0.000466	4.661377	1.579317	-0.000187
1326	1.3184e+02	-12.7938	-65.871925	0.000415	4.154706	1.407652	-0.000166
1327	1.3194e+02	-12.8242	-66.106079	0.000588	5.877389	1.991313	-0.000235
1328	1.3204e+02	-12.8676	-66.283713	0.000446	4.458709	1.510651	-0.000179
1329	1.3214e+02	-12.9028	-66.477496	0.000486	4.864046	1.647983	-0.000195
1330	1.3224e+02	-12.9381	-66.671278	0.000486	4.864046	1.647983	-0.000195
1331	1.3234e+02	-12.9847	-66.824689	0.000385	3.850703	1.304654	-0.000154
1332	1.3243e+02	-13.0151	-67.050769	0.000567	5.674720	1.922647	-0.000227
1333	1.3253e+02	-13.0665	-67.212254	0.000405	4.053372	1.373319	-0.000162
1334	1.3263e+02	-13.1018	-67.426223	0.000537	5.370717	1.819648	-0.000215
1335	1.3273e+02	-13.1467	-67.628079	0.000507	5.066715	1.716649	-0.000203
1336	1.3283e+02	-13.1868	-67.793602	0.000415	4.154706	1.407652	-0.000166
1337	1.3293e+02	-13.2365	-68.023719	0.000578	5.776055	1.956980	-0.000231
1338	1.3303e+02	-13.2590	-68.205390	0.000456	4.560043	1.544984	-0.000183
1339	1.3313e+02	-13.3023	-68.362838	0.000395	3.952037	1.338986	-0.000158
1340	1.3323e+02	-13.3424	-68.596992	0.000588	5.877389	1.991313	-0.000235
1341	1.3333e+02	-13.3825	-68.746366	0.000375	3.749369	1.270321	-0.000150
1342	1.3343e+02	-13.4194	-68.940148	0.000486	4.864046	1.647983	-0.000195
1343	1.3353e+02	-13.4659	-69.125857	0.000466	4.661377	1.579317	-0.000187
1344	1.3363e+02	-13.4932	-69.339825	0.000537	5.370717	1.819648	-0.000215
1345	1.3373e+02	-13.5429	-69.513422	0.000436	4.357374	1.476318	-0.000174
1346	1.3383e+02	-13.5879	-69.735464	0.000557	5.573386	1.888314	-0.000223
1347	1.3393e+02	-13.6167	-69.917135	0.000456	4.560043	1.544984	-0.000183
1348	1.3403e+02	-13.6552	-70.070546	0.000385	3.850703	1.304654	-0.000154
1349	1.3413e+02	-13.7001	-70.292589	0.000557	5.573386	1.888314	-0.000223
1350	1.3423e+02	-13.7435	-70.490409	0.000497	4.965380	1.682316	-0.000199
1351	1.3432e+02	-13.7772	-70.659968	0.000426	4.256040	1.441985	-0.000170
1352	1.3442e+02	-13.8189	-70.829528	0.000426	4.256040	1.441985	-0.000170
1353	1.3452e+02	-13.8558	-71.063682	0.000588	5.877389	1.991313	-0.000235
1354	1.3462e+02	-13.8975	-71.204982	0.000355	3.546700	1.201655	-0.000142
1355	1.3472e+02	-13.9456	-71.402801	0.000497	4.965380	1.682316	-0.000199
1356	1.3482e+02	-13.9713	-71.604658	0.000507	5.066715	1.716649	-0.000203
1357	1.3492e+02	-14.0242	-71.810552	0.000517	5.168049	1.750982	-0.000207
1358	1.3502e+02	-14.0515	-71.976075	0.000415	4.154706	1.407652	-0.000166
1359	1.3512e+02	-14.0948	-72.173894	0.000497	4.965380	1.682316	-0.000199
1360	1.3522e+02	-14.1541	-72.391899	0.000547	5.472052	1.853981	-0.000219
1361	1.3532e+02	-14.1782	-72.573571	0.000456	4.560043	1.544984	-0.000183
1362	1.3542e+02	-14.2183	-72.739093	0.000415	4.154706	1.407652	-0.000166
1363	1.3552e+02	-14.2552	-72.957098	0.000547	5.472052	1.853981	-0.000219
1364	1.3562e+02	-14.2969	-73.138770	0.000456	4.560043	1.544984	-0.000183
1365	1.3572e+02	-14.3370	-73.308329	0.000426	4.256040	1.441985	-0.000170
1366	1.3582e+02	-14.3723	-73.502112	0.000486	4.864046	1.647983	-0.000195
1367	1.3592e+02	-14.4140	-73.691857	0.000476	4.762712	1.613650	-0.000191
1368	1.3602e+02	-14.4654	-73.873528	0.000456	4.560043	1.544984	-0.000183
1369	1.3612e+02	-14.5071	-74.002717	0.000324	3.242697	1.098656	-0.000130
1370	1.3622e+02	-14.5360	-74.220722	0.000547	5.472052	1.853981	-0.000219
1371	1.3631e+02	-14.5729	-74.422579	0.000507	5.066715	1.716649	-0.000203
1372	1.3641e+02	-14.6194	-74.612324	0.000476	4.762712	1.613650	-0.000191
1373	1.3651e+02	-14.6659	-74.810144	0.000497	4.965380	1.682316	-0.000199
1374	1.3661e+02	-14.7060	-74.963555	0.000385	3.850703	1.304654	-0.000154
1375	1.3671e+02	-14.7365	-75.145226	0.000456	4.560043	1.544984	-0.000183
1376	1.3681e+02	-14.7734	-75.310749	0.000415	4.154706	1.407652	-0.000166
1377	1.3691e+02	-14.8215	-75.528754	0.000547	5.472052	1.853981	-0.000219
1378	1.3701e+02	-14.8568	-75.754834	0.000567	5.674720	1.922647	-0.000227
1379	1.3711e+02	-14.8905	-75.912282	0.000395	3.952037	1.338986	-0.000158
1380	1.3721e+02	-14.9434	-76.089916	0.000446	4.458709	1.510651	-0.000179
1381	1.3731e+02	-14.9739	-76.267550	0.000446	4.458709	1.510651	-0.000179
1382	1.3741e+02	-15.0108	-76.489592	0.000557	5.573386	1.888314	-0.000223
1383	1.3751e+02	-15.0525	-76.634929	0.000365	3.648034	1.235988	-0.000146
1384	1.3761e+02	-15.0894	-76.852934	0.000547	5.472052	1.853981	-0.000219
1385	1.3771e+02	-15.1424	-76.990197	0.000345	3.445366	1.167322	-0.000138
1386	1.3781e+02	-15.1760	-77.224351	0.000588	5.877389	1.991313	-0.000235
1387	1.3791e+02	-15.2145	-77.430245	0.000517	5.168049	1.750982	-0.000207
1388	1.3801e+02	-15.2514	-77.583656	0.000385	3.850703	1.304654	-0.000154
1389	1.3811e+02	-15.2948	-77.765327	0.000456	4.560043	1.544984	-0.000183
1390	1.3821e+02	-15.3300	-77.983332	0.000547	5.472052	1.853981	-0.000219
1391	1.3831e+02	-15.3766	-78.217486	0.000588	5.877389	1.991313	-0.000235
1392	1.3840e+02	-15.4135	-78.326489	0.000274	2.736026	0.926991	-0.000110
1393	1.3850e+02	-15.4439	-78.552569	0.000567	5.674720	1.922647	-0.000227
1394	1.3860e+02	-15.4969	-78.754425	0.000507	5.066715	1.716649	-0.000203
1395	1.3870e+02	-15.5306	-78.907837	0.000385	3.850703	1.304654	-0.000154
1396	1.3880e+02	-15.5675	-79.089508	0.000456	4.560043	1.544984	-0.000183
1397	1.3890e+02	-15.6156	-79.263105	0.000436	4.357374	1.476318	-0.000174
1398	1.3900e+02	-15.6493	-79.509370	0.000618	6.181392	2.094312	-0.000248
1399	1.3910e+02	-15.7006	-79.678929	0.000426	4.256040	1.441985	-0.000170
1400	1.3920e+02	-15.7327	-79.868675	0.000476	4.762712	1.613650	-0.000191
1401	1.3930e+02	-15.7664	-80.054383	0.000466	4.661377	1.579317	-0.000187
1402	1.3940e+02	-15.8145	-80.236054	0.000456	4.560043	1.544984	-0.000183
1403	1.3950e+02	-15.8514	-80.405614	0.000426	4.256040	1.441985	-0.000170
1404	1.3960e+02	-15.8883	-80.587285	0.000456	4.560043	1.544984	-0.000183
1405	1.3970e+02	-15.9413	-80.768956	0.000456	4.560043	1.544984	-0.000183
1406	1.3980e+02	-15.9637	-80.966776	0.000497	4.965380	1.682316	-0.000199
1407	1.3990e+02	-16.0151	-81.168633	0.000507	5.066715	1.716649	-0.000203
1408	1.4000e+02	-16.0487	-81.354341	0.000466	4.661377	1.579317	-0.000187
1409	1.4010e+02	-16.0824	-81.540049	0.000466	4.661377	1.579317	-0.000187
1410	1.4020e+02	-16.1290	-81.717683	0.000446	4.458709	1.510651	-0.000179
1411	1.4029e+02	-16.1626	-81.903391	0.000466	4.661377	1.579317	-0.000187
1412	1.4039e+02	-16.2076	-82.085062	0.000456	4.560043	1.544984	-0.000183
1413	1.4049e+02	-16.2509	-82.294993	0.000527	5.269383	1.785315	-0.000211
1414	1.4059e+02	-16.2910	-82.512999	0.000547	5.472052	1.853981	-0.000219
1415	1.4069e+02	-16.3311	-82.642187	0.000324	3.242697	1.098656	-0.000130
1416	1.4079e+02	-16.3696	-82.852118	0.000527	5.269383	1.785315	-0.000211
1417	1.4089e+02	-16.4097	-83.033789	0.000456	4.560043	1.544984	-0.000183
1418	1.4099e+02	-16.4562	-83.227572	0.000486	4.864046	1.647983	-0.000195
1419	1.4109e+02	-16.4899	-83.393094	0.000415	4.154706	1.407652	-0.000166
1420	1.4119e+02	-16.5252	-83.611100	0.000547	5.472052	1.853981	-0.000219
1421	1.4129e+02	-16.5557	-83.772585	0.000405	4.053372	1.373319	-0.000162
1422	1.4139e+02	-16.6134	-83.986553	0.000537	5.370717	1.819648	-0.000215
1423	1.4149e+02	-16.6423	-84.240893	0.000638	6.384060	2.162978	-0.000256
1424	1.4159e+02	-16.6985	-84.394304	0.000385	3.850703	1.304654	-0.000154
1425	1.4169e+02	-16.7273	-84.588087	0.000486	4.864046	1.647983	-0.000195
1426	1.4179e+02	-16.7706	-84.810129	0.000557	5.573386	1.888314	-0.000223
1427	1.4189e+02	-16.8108	-84.931243	0.000304	3.040029	1.029990	-0.000122
1428	1.4199e+02	-16.8477	-85.185583	0.000638	6.384060	2.162978	-0.000256
1429	1.4209e+02	-16.8942	-85.355142	0.000426	4.256040	1.441985	-0.000170
1430	1.4219e+02	-16.9295	-85.552962	0.000497	4.965380	1.682316	-0.000199
1431	1.4228e+02	-16.9648	-85.746745	0.000486	4.864046	1.647983	-0.000195
1432	1.4238e+02	-16.9968	-85.952638	0.000517	5.168049	1.750982	-0.000207
1433	1.4248e+02	-17.0466	-86.162569	0.000527	5.269383	1.785315	-0.000211
1434	1.4258e+02	-17.0867	-86.340203	0.000446	4.458709	1.510651	-0.000179
1435	1.4268e+02	-17.1236	-86.586469	0.000618	6.181392	2.094312	-0.000248
1436	1.4278e+02	-17.1701	-86.760066	0.000436	4.357374	1.476318	-0.000174
1437	1.4288e+02	-17.2086	-86.953848	0.000486	4.864046	1.647983	-0.000195
1438	1.4298e+02	-17.2503	-87.131482	0.000446	4.458709	1.510651	-0.000179
1439	1.4308e+02	-17.2840	-87.341413	0.000527	5.269383	1.785315	-0.000211
1440	1.4318e+02	-17.3241	-87.591716	0.000628	6.282726	2.128645	-0.000252
1441	1.4328e+02	-17.3738	-87.765312	0.000436	4.357374	1.476318	-0.000174
1442	1.4338e+02	-17.4107	-88.003503	0.000598	5.978723	2.025646	-0.000239
1443	1.4348e+02	-17.4557	-88.148840	0.000365	3.648034	1.235988	-0.000146
1444	1.4358e+02	-17.4813	-88.395106	0.000618	6.181392	2.094312	-0.000248
1445	1.4368e+02	-17.5327	-88.657519	0.000659	6.586729	2.231644	-0.000264
1446	1.4378e+02	-17.5680	-88.806893	0.000375	3.749369	1.270321	-0.000150
1447	1.4388e+02	-17.6049	-89.073344	0.000669	6.688063	2.265977	-0.000268
1448	1.4398e+02	-17.6498	-89.255015	0.000456	4.560043	1.544984	-0.000183
1449	1.4408e+02	-17.6899	-89.436687	0.000456	4.560043	1.544984	-0.000183
1450	1.4418e+02	-17.7284	-89.670840	0.000588	5.877389	1.991313	-0.000235
1451	1.4428e+02	-17.7556	-89.876734	0.000517	5.168049	1.750982	-0.000207
1452	1.4437e+02	-17.7974	-90.118963	0.000608	6.080057	2.059979	-0.000243
1453	1.4447e+02	-17.8439	-90.324856	0.000517	5.168049	1.750982	-0.000207
1454	1.4457e+02	-17.8824	-90.530750	0.000517	5.168049	1.750982	-0.000207
1455	1.4467e+02	-17.9337	-90.764904	0.000588	5.877389	1.991313	-0.000235
1456	1.4477e+02	-17.9626	-91.015207	0.000628	6.282726	2.128645	-0.000252
1457	1.4487e+02	-17.9995	-91.225138	0.000527	5.269383	1.785315	-0.000211
1458	1.4497e+02	-18.0412	-91.471403	0.000618	6.181392	2.094312	-0.000248
1459	1.4507e+02	-18.0845	-91.681334	0.000527	5.269383	1.785315	-0.000211
1460	1.4517e+02	-18.1214	-91.951822	0.000679	6.789397	2.300310	-0.000272
1461	1.4527e+02	-18.1583	-92.165790	0.000537	5.370717	1.819648	-0.000215
1462	1.4537e+02	-18.2048	-92.412056	0.000618	6.181392	2.094312	-0.000248
1463	1.4547e+02	-18.2433	-92.617950	0.000517	5.168049	1.750982	-0.000207
1464	1.4557e+02	-18.2834	-92.884400	0.000669	6.688063	2.265977	-0.000268
1465	1.4567e+02	-18.3171	-93.134703	0.000628	6.282726	2.128645	-0.000252
1466	1.4577e+02	-18.3685	-93.364820	0.000578	5.776055	1.956980	-0.000231
1467	1.4587e+02	-18.3989	-93.623196	0.000649	6.485395	2.197311	-0.000260
1468	1.4597e+02	-18.4519	-93.861387	0.000598	5.978723	2.025646	-0.000239
1469	1.4607e+02	-18.4888	-94.091504	0.000578	5.776055	1.956980	-0.000231
1470	1.4617e+02	-18.5193	-94.361992	0.000679	6.789397	2.300310	-0.000272
1471	1.4626e+02	-18.5674	-94.632480	0.000679	6.789397	2.300310	-0.000272
1472	1.4636e+02	-18.5995	-94.870671	0.000598	5.978723	2.025646	-0.000239
1473	1.4646e+02	-18.6428	-95.088677	0.000547	5.472052	1.853981	-0.000219
1474	1.4656e+02	-18.6845	-95.391462	0.000760	7.600072	2.574974	-0.000304
1475	1.4666e+02	-18.7246	-95.645801	0.000638	6.384060	2.162978	-0.000256
1476	1.4676e+02	-18.7567	-95.904178	0.000649	6.485395	2.197311	-0.000260
1477	1.4686e+02	-18.7920	-96.114109	0.000527	5.269383	1.785315	-0.000211
1478	1.4696e+02	-18.8465	-96.400746	0.000719	7.194735	2.437642	-0.000288
1479	1.4706e+02	-18.8850	-96.711605	0.000780	7.802740	2.643640	-0.000312
1480	1.4716e+02	-18.9203	-96.986130	0.000689	6.890732	2.334643	-0.000276
1481	1.4726e+02	-18.9604	-97.220284	0.000588	5.877389	1.991313	-0.000235
1482	1.4736e+02	-18.9989	-97.510958	0.000730	7.296069	2.471975	-0.000292
1483	1.4746e+02	-19.0406	-97.789520	0.000699	6.992066	2.368976	-0.000280
1484	1.4756e+02	-19.0807	-98.080194	0.000730	7.296069	2.471975	-0.000292
1485	1.4766e+02	-19.1048	-98.326459	0.000618	6.181392	2.094312	-0.000248
1486	1.4776e+02	-19.1658	-98.649430	0.000811	8.106743	2.746639	-0.000325
1487	1.4786e+02	-19.2059	-98.972401	0.000811	8.106743	2.746639	-0.000325
1488	1.4796e+02	-19.2331	-99.222704	0.000628	6.282726	2.128645	-0.000252
1489	1.4806e+02	-19.2733	-99.517415	0.000740	7.397403	2.506308	-0.000296
1490	1.4816e+02	-19.3278	-99.771754	0.000638	6.384060	2.162978	-0.000256
1491	1.4825e+02	-19.3631	-100.098762	0.000821	8.208078	2.780972	-0.000329
1492	1.4835e+02	-19.3952	-100.425770	0.000821	8.208078	2.780972	-0.000329
1493	1.4845e+02	-19.4433	-100.728555	0.000760	7.600072	2.574974	-0.000304
1494	1.4855e+02	-19.4802	-101.051526	0.000811	8.106743	2.746639	-0.000325
1495	1.4865e+02	-19.5155	-101.358348	0.000770	7.701406	2.609307	-0.000308
1496	1.4875e+02	-19.5524	-101.644985	0.000719	7.194735	2.437642	-0.000288
1497	1.4885e+02	-19.6037	-101.980067	0.000841	8.410746	2.849638	-0.000337
1498	1.4895e+02	-19.6262	-102.290927	0.000780	7.802740	2.643640	-0.000312
1499	1.4905e+02	-19.6663	-102.617935	0.000821	8.208078	2.780972	-0.000329
1500	1.4915e+02	-19.7176	-102.953017	0.000841	8.410746	2.849638	-0.000337
1501	1.4925e+02	-19.7513	-103.336545	0.000963	9.626758	3.261634	-0.000385
1502	1.4935e+02	-19.8043	-103.639330	0.000760	7.600072	2.574974	-0.000304
1503	1.4945e+02	-19.8428	-104.022858	0.000963	9.626758	3.261634	-0.000385
1504	1.4955e+02	-19.8732	-104.313532	0.000730	7.296069	2.471975	-0.000292
1505	1.4965e+02	-19.9182	-104.676874	0.000912	9.120086	3.089969	-0.000365
1506	1.4975e+02	-19.9486	-105.007919	0.000831	8.309412	2.815305	-0.000333
1507	1.4985e+02	-19.9968	-105.399521	0.000983	9.829426	3.330300	-0.000394
1508	1.4995e+02	-19.9534	-105.480264	-0.000203	-2.026686	-0.686660	-0.000081
1509	1.5005e+02	-19.9053	-105.512561	-0.000081	-0.810674	-0.274664	-0.000032
1510	1.5015e+02	-19.8748	-105.589267	-0.000193	-1.925352	-0.652327	-0.000077
1511	1.5025e+02	-19.8315	-105.613489	-0.000061	-0.608006	-0.205998	-0.000024
1512	1.5034e+02	-19.8043	-105.637712	-0.000061	-0.608006	-0.205998	-0.000024
1513	1.5044e+02	-19.7481	-105.657898	-0.000051	-0.506671	-0.171665	-0.000020
1514	1.5054e+02	-19.7144	-105.661935	-0.000010	-0.101334	-0.034333	-0.000004
1515	1.5064e+02	-19.6711	-105.653861	0.000020	0.202669	0.068666	0.000008
1516	1.5074e+02	-19.6278	-105.653861	0.000000	0.000000	0.000000	0.000000
1517	1.5084e+02	-19.5989	-105.682121	-0.000071	-0.709340	-0.240331	-0.000028
1518	1.5094e+02	-19.5572	-105.633675	0.000122	1.216011	0.411996	0.000049
1519	1.5104e+02	-19.5155	-105.625601	0.000020	0.202669	0.068666	0.000008
1520	1.5114e+02	-19.4674	-105.573118	0.000132	1.317346	0.446329	0.000053
1521	1.5124e+02	-19.4337	-105.524672	0.000122	1.216011	0.411996	0.000049
1522	1.5134e+02	-19.3984	-105.548895	-0.000061	-0.608006	-0.205998	-0.000024
1523	1.5144e+02	-19.3583	-105.456041	0.000233	2.330689	0.789659	0.000093
1524	1.5154e+02	-19.3214	-105.447967	0.000020	0.202669	0.068666	0.000008
1525	1.5164e+02	-19.2861	-105.347039	0.000253	2.533357	0.858325	0.000101
1526	1.5174e+02	-19.2315	-105.334927	0.000030	0.304003	0.102999	0.000012
1527	1.5184e+02	-19.1979	-105.246110	0.000223	2.229354	0.755326	0.000089
1528	1.5194e+02	-19.1674	-105.209776	0.000091	0.912009	0.308997	0.000037
1529	1.5204e+02	-19.1128	-105.104810	0.000263	2.634692	0.892658	0.000105
1530	1.5214e+02	-19.0775	-105.032142	0.000182	1.824017	0.617994	0.000073
1531	1.5224e+02	-19.0438	-105.015993	0.000041	0.405337	0.137332	0.000016
1532	1.5233e+02	-19.0005	-104.915065	0.000253	2.533357	0.858325	0.000101
1533	1.5243e+02	-18.9701	-104.830285	0.000213	2.128020	0.720993	0.000085
1534	1.5253e+02	-18.9187	-104.721282	0.000274	2.736026	0.926991	0.000110
1535	1.5263e+02	-18.8786	-104.624391	0.000243	2.432023	0.823992	0.000097
1536	1.5273e+02	-18.8449	-104.575946	0.000122	1.216011	0.411996	0.000049
1537	1.5283e+02	-18.8016	-104.446757	0.000324	3.242697	1.098656	0.000130
1538	1.5293e+02	-18.7567	-104.394274	0.000132	1.317346	0.446329	0.000053
1539	1.5303e+02	-18.7262	-104.297383	0.000243	2.432023	0.823992	0.000097
1540	1.5313e+02	-18.6781	-104.156083	0.000355	3.546700	1.201655	0.000142
1541	1.5323e+02	-18.6364	-104.063229	0.000233	2.330689	0.789659	0.000093
1542	1.5333e+02	-18.5995	-103.958264	0.000263	2.634692	0.892658	0.000105
1543	1.5343e+02	-18.5754	-103.873484	0.000213	2.128020	0.720993	0.000085
1544	1.5353e+02	-18.5225	-103.752370	0.000304	3.040029	1.029990	0.000122
1545	1.5363e+02	-18.4872	-103.639330	0.000284	2.837360	0.961324	0.000114
1546	1.5373e+02	-18.4407	-103.510142	0.000324	3.242697	1.098656	0.000130
1547	1.5383e+02	-18.4150	-103.397102	0.000284	2.837360	0.961324	0.000114
1548	1.5393e+02	-18.3717	-103.304248	0.000233	2.330689	0.789659	0.000093
1549	1.5403e+02	-18.3252	-103.227542	0.000193	1.925352	0.652327	0.000077
1550	1.5413e+02	-18.2818	-103.102391	0.000314	3.141363	1.064323	0.000126
1551	1.5422e+02	-18.2337	-102.973203	0.000324	3.242697	1.098656	0.000130
1552	1.5432e+02	-18.2048	-102.848051	0.000314	3.141363	1.064323	0.000126
1553	1.5442e+02	-18.1615	-102.722900	0.000314	3.141363	1.064323	0.000126
1554	1.5452e+02	-18.1182	-102.597749	0.000314	3.141363	1.064323	0.000126
1555	1.5462e+02	-18.0845	-102.492784	0.000263	2.634692	0.892658	0.000105
1556	1.5472e+02	-18.0444	-102.383781	0.000274	2.736026	0.926991	0.000110
1557	1.5482e+02	-18.0011	-102.242481	0.000355	3.546700	1.201655	0.000142
1558	1.5492e+02	-17.9690	-102.153664	0.000223	2.229354	0.755326	0.000089
1559	1.5502e+02	-17.9353	-101.980067	0.000436	4.357374	1.476318	0.000174
1560	1.5512e+02	-17.8808	-101.858953	0.000304	3.040029	1.029990	0.000122
1561	1.5522e+02	-17.8503	-101.749951	0.000274	2.736026	0.926991	0.000110
1562	1.5532e+02	-17.8022	-101.612688	0.000345	3.445366	1.167322	0.000138
1563	1.5542e+02	-17.7701	-101.535982	0.000193	1.925352	0.652327	0.000077
1564	1.5552e+02	-17.7284	-101.398720	0.000345	3.445366	1.167322	0.000138
1565	1.5562e+02	-17.6819	-101.225123	0.000436	4.357374	1.476318	0.000174
1566	1.5572e+02	-17.6417	-101.099972	0.000314	3.141363	1.064323	0.000126
1567	1.5582e+02	-17.6049	-101.019229	0.000203	2.026686	0.686660	0.000081
1568	1.5592e+02	-17.5776	-100.829484	0.000476	4.762712	1.613650	0.000191
1569	1.5602e+02	-17.5295	-100.704332	0.000314	3.141363	1.064323	0.000126
1570	1.5612e+02	-17.4781	-100.583218	0.000304	3.040029	1.029990	0.000122
1571	1.5622e+02	-17.4444	-100.458067	0.000314	3.141363	1.064323	0.000126
1572	1.5631e+02	-17.4043	-100.332916	0.000314	3.141363	1.064323	0.000126
1573	1.5641e+02	-17.3674	-100.187579	0.000365	3.648034	1.235988	0.000146
1574	1.5651e+02	-17.3305	-100.038205	0.000375	3.749369	1.270321	0.000150
1575	1.5661e+02	-17.2904	-99.896905	0.000355	3.546700	1.201655	0.000142
1576	1.5671e+02	-17.2471	-99.763680	0.000334	3.344032	1.132989	0.000134
1577	1.5681e+02	-17.2070	-99.634491	0.000324	3.242697	1.098656	0.000130
1578	1.5691e+02	-17.1717	-99.493192	0.000355	3.546700	1.201655	0.000142
1579	1.5701e+02	-17.1236	-99.351892	0.000355	3.546700	1.201655	0.000142
1580	1.5711e+02	-17.0899	-99.198481	0.000385	3.850703	1.304654	0.000154
1581	1.5721e+02	-17.0353	-99.045070	0.000385	3.850703	1.304654	0.000154
1582	1.5731e+02	-17.0097	-98.907807	0.000345	3.445366	1.167322	0.000138
1583	1.5741e+02	-16.9664	-98.794767	0.000284	2.837360	0.961324	0.000114
1584	1.5751e+02	-16.9247	-98.661542	0.000334	3.344032	1.132989	0.000134
1585	1.5761e+02	-16.8990	-98.512168	0.000375	3.749369	1.270321	0.000150
1586	1.5771e+02	-16.8525	-98.362794	0.000375	3.749369	1.270321	0.000150
1587	1.5781e+02	-16.8108	-98.205345	0.000395	3.952037	1.338986	0.000158
1588	1.5791e+02	-16.7674	-98.064046	0.000355	3.546700	1.201655	0.000142
1589	1.5801e+02	-16.7305	-97.926783	0.000345	3.445366	1.167322	0.000138
1590	1.5811e+02	-16.6856	-97.728963	0.000497	4.965380	1.682316	0.000199
1591	1.5821e+02	-16.6471	-97.636109	0.000233	2.330689	0.789659	0.000093
1592	1.5830e+02	-16.6102	-97.482698	0.000385	3.850703	1.304654	0.000154
1593	1.5840e+02	-16.5637	-97.369658	0.000284	2.837360	0.961324	0.000114
1594	1.5850e+02	-16.5252	-97.183950	0.000466	4.661377	1.579317	0.000187
1595	1.5860e+02	-16.4915	-97.010353	0.000436	4.357374	1.476318	0.000174
1596	1.5870e+02	-16.4466	-96.917499	0.000233	2.330689	0.789659	0.000093
1597	1.5880e+02	-16.4097	-96.756014	0.000405	4.053372	1.373319	0.000162
1598	1.5890e+02	-16.3680	-96.626825	0.000324	3.242697	1.098656	0.000130
1599	1.5900e+02	-16.3327	-96.457266	0.000426	4.256040	1.441985	0.000170
1600	1.5910e+02	-16.2894	-96.307892	0.000375	3.749369	1.270321	0.000150
1601	1.5920e+02	-16.2573	-96.138332	0.000426	4.256040	1.441985	0.000170
1602	1.5930e+02	-16.2060	-96.033366	0.000263	2.634692	0.892658	0.000105
1603	1.5940e+02	-16.1691	-95.859770	0.000436	4.357374	1.476318	0.000174
1604	1.5950e+02	-16.1306	-95.718470	0.000355	3.546700	1.201655	0.000142
1605	1.5960e+02	-16.1017	-95.573133	0.000365	3.648034	1.235988	0.000146
1606	1.5970e+02	-16.0455	-95.395499	0.000446	4.458709	1.510651	0.000179
1607	1.5980e+02	-16.0135	-95.266311	0.000324	3.242697	1.098656	0.000130
1608	1.5990e+02	-15.9766	-95.104825	0.000405	4.053372	1.373319	0.000162
1609	1.6000e+02	-15.9332	-94.943340	0.000405	4.053372	1.373319	0.000162
1610	1.6010e+02	-15.8947	-94.846448	0.000243	2.432023	0.823992	0.000097
1611	1.6019e+02	-15.8482	-94.652666	0.000486	4.864046	1.647983	0.000195
1612	1.6029e+02	-15.8129	-94.519440	0.000334	3.344032	1.132989	0.000134
1613	1.6039e+02	-15.7728	-94.341806	0.000446	4.458709	1.510651	0.000179
1614	1.6049e+02	-15.7391	-94.200507	0.000355	3.546700	1.201655	0.000142
1615	1.6059e+02	-15.6910	-94.047096	0.000385	3.850703	1.304654	0.000154
1616	1.6069e+02	-15.6557	-93.885610	0.000405	4.053372	1.373319	0.000162
1617	1.6079e+02	-15.6156	-93.768533	0.000294	2.938694	0.995657	0.000118
1618	1.6089e+02	-15.5675	-93.590899	0.000446	4.458709	1.510651	0.000179
1619	1.6099e+02	-15.5322	-93.433451	0.000395	3.952037	1.338986	0.000158
1620	1.6109e+02	-15.4889	-93.292151	0.000355	3.546700	1.201655	0.000142
1621	1.6119e+02	-15.4504	-93.118554	0.000436	4.357374	1.476318	0.000174
1622	1.6129e+02	-15.4135	-92.932846	0.000466	4.661377	1.579317	0.000187
1623	1.6139e+02	-15.3734	-92.835955	0.000243	2.432023	0.823992	0.000097
1624	1.6149e+02	-15.3445	-92.670432	0.000415	4.154706	1.407652	0.000166
1625	1.6159e+02	-15.2932	-92.565467	0.000263	2.634692	0.892658	0.000105
1626	1.6169e+02	-15.2546	-92.359573	0.000517	5.168049	1.750982	0.000207
1627	1.6179e+02	-15.2081	-92.214236	0.000365	3.648034	1.235988	0.000146
1628	1.6189e+02	-15.1632	-92.076973	0.000345	3.445366	1.167322	0.000138
1629	1.6199e+02	-15.1311	-91.895302	0.000456	4.560043	1.544984	0.000183
1630	1.6209e+02	-15.0926	-91.713631	0.000456	4.560043	1.544984	0.000183
1631	1.6219e+02	-15.0557	-91.624814	0.000223	2.229354	0.755326	0.000089
1632	1.6228e+02	-15.0140	-91.414883	0.000527	5.269383	1.785315	0.000211
1633	1.6238e+02	-14.9851	-91.265509	0.000375	3.749369	1.270321	0.000150
1634	1.6248e+02	-14.9338	-91.087875	0.000446	4.458709	1.510651	0.000179
1635	1.6258e+02	-14.8985	-90.962724	0.000314	3.141363	1.064323	0.000126
1636	1.6268e+02	-14.8632	-90.833536	0.000324	3.242697	1.098656	0.000130
1637	1.6278e+02	-14.8135	-90.595345	0.000598	5.978723	2.025646	0.000239
1638	1.6288e+02	-14.7782	-90.490379	0.000263	2.634692	0.892658	0.000105
1639	1.6298e+02	-14.7381	-90.316782	0.000436	4.357374	1.476318	0.000174
1640	1.6308e+02	-14.6964	-90.151260	0.000415	4.154706	1.407652	0.000166
1641	1.6318e+02	-14.6531	-90.013997	0.000345	3.445366	1.167322	0.000138
1642	1.6328e+02	-14.6130	-89.856549	0.000395	3.952037	1.338986	0.000158
1643	1.6338e+02	-14.5825	-89.662766	0.000486	4.864046	1.647983	0.000195
1644	1.6348e+02	-14.5392	-89.525504	0.000345	3.445366	1.167322	0.000138
1645	1.6358e+02	-14.4926	-89.343832	0.000456	4.560043	1.544984	0.000183
1646	1.6368e+02	-14.4590	-89.182347	0.000405	4.053372	1.373319	0.000162
1647	1.6378e+02	-14.4156	-89.020862	0.000405	4.053372	1.373319	0.000162
1648	1.6388e+02	-14.3723	-88.855339	0.000415	4.154706	1.407652	0.000166
1649	1.6398e+02	-14.3354	-88.693854	0.000405	4.053372	1.373319	0.000162
1650	1.6408e+02	-14.2969	-88.540442	0.000385	3.850703	1.304654	0.000154
1651	1.6418e+02	-14.2664	-88.382994	0.000395	3.952037	1.338986	0.000158
1652	1.6427e+02	-14.2231	-88.213434	0.000426	4.256040	1.441985	0.000170
1653	1.6437e+02	-14.1798	-88.031763	0.000456	4.560043	1.544984	0.000183
1654	1.6447e+02	-14.1429	-87.918724	0.000284	2.837360	0.961324	0.000114
1655	1.6457e+02	-14.0996	-87.708792	0.000527	5.269383	1.785315	0.000211
1656	1.6467e+02	-14.0595	-87.555381	0.000385	3.850703	1.304654	0.000154
1657	1.6477e+02	-14.0130	-87.422156	0.000334	3.344032	1.132989	0.000134
1658	1.6487e+02	-13.9793	-87.248559	0.000436	4.357374	1.476318	0.000174
1659	1.6497e+02	-13.9392	-87.066888	0.000456	4.560043	1.544984	0.000183
1660	1.6507e+02	-13.8927	-86.941737	0.000314	3.141363	1.064323	0.000126
1661	1.6517e+02	-13.8654	-86.764103	0.000446	4.458709	1.510651	0.000179
1662	1.6527e+02	-13.8253	-86.610692	0.000385	3.850703	1.304654	0.000154
1663	1.6537e+02	-13.7707	-86.412872	0.000497	4.965380	1.682316	0.000199
1664	1.6547e+02	-13.7435	-86.215052	0.000497	4.965380	1.682316	0.000199
1665	1.6557e+02	-13.7001	-86.077790	0.000345	3.445366	1.167322	0.000138
1666	1.6567e+02	-13.6633	-85.980898	0.000243	2.432023	0.823992	0.000097
1667	1.6577e+02	-13.6183	-85.775004	0.000517	5.168049	1.750982	0.000207
1668	1.6587e+02	-13.5686	-85.548925	0.000567	5.674720	1.922647	0.000227
1669	1.6597e+02	-13.5349	-85.415699	0.000334	3.344032	1.132989	0.000134
1670	1.6607e+02	-13.4996	-85.294585	0.000304	3.040029	1.029990	0.000122
1671	1.6616e+02	-13.4707	-85.120988	0.000436	4.357374	1.476318	0.000174
1672	1.6626e+02	-13.4242	-84.886835	0.000588	5.877389	1.991313	0.000235
1673	1.6636e+02	-13.3841	-84.753609	0.000334	3.344032	1.132989	0.000134
1674	1.6646e+02	-13.3440	-84.580012	0.000436	4.357374	1.476318	0.000174
1675	1.6656e+02	-13.2927	-84.438713	0.000355	3.546700	1.201655	0.000142
1676	1.6666e+02	-13.2718	-84.309524	0.000324	3.242697	1.098656	0.000130
1677	1.6676e+02	-13.2221	-84.091519	0.000547	5.472052	1.853981	0.000219
1678	1.6686e+02	-13.1772	-83.930033	0.000405	4.053372	1.373319	0.000162
1679	1.6696e+02	-13.1371	-83.784697	0.000365	3.648034	1.235988	0.000146
1680	1.6706e+02	-13.0954	-83.574765	0.000527	5.269383	1.785315	0.000211
1681	1.6716e+02	-13.0713	-83.397132	0.000446	4.458709	1.510651	0.000179
1682	1.6726e+02	-13.0232	-83.267943	0.000324	3.242697	1.098656	0.000130
1683	1.6736e+02	-12.9879	-83.074161	0.000486	4.864046	1.647983	0.000195
1684	1.6746e+02	-12.9494	-82.876341	0.000497	4.965380	1.682316	0.000199
1685	1.6756e+02	-12.9077	-82.763301	0.000284	2.837360	0.961324	0.000114
1686	1.6766e+02	-12.8595	-82.589704	0.000436	4.357374	1.476318	0.000174
1687	1.6776e+02	-12.8210	-82.375736	0.000537	5.370717	1.819648	0.000215
1688	1.6786e+02	-12.7825	-82.250585	0.000314	3.141363	1.064323	0.000126
1689	1.6796e+02	-12.7488	-82.052765	0.000497	4.965380	1.682316	0.000199
1690	1.6806e+02	-12.7087	-81.871094	0.000456	4.560043	1.544984	0.000183
1691	1.6816e+02	-12.6670	-81.701534	0.000426	4.256040	1.441985	0.000170
1692	1.6825e+02	-12.6205	-81.536012	0.000415	4.154706	1.407652	0.000166
1693	1.6835e+02	-12.5852	-81.427009	0.000274	2.736026	0.926991	0.000110
1694	1.6845e+02	-12.5403	-81.237264	0.000476	4.762712	1.613650	0.000191
1695	1.6855e+02	-12.5082	-81.079816	0.000395	3.952037	1.338986	0.000158
1696	1.6865e+02	-12.4601	-80.845662	0.000588	5.877389	1.991313	0.000235
1697	1.6875e+02	-12.4328	-80.724548	0.000304	3.040029	1.029990	0.000122
1698	1.6885e+02	-12.3927	-80.546914	0.000446	4.458709	1.510651	0.000179
1699	1.6895e+02	-12.3542	-80.365243	0.000456	4.560043	1.544984	0.000183
1700	1.6905e+02	-12.3029	-80.183571	0.000456	4.560043	1.544984	0.000183
1701	1.6915e+02	-12.2644	-80.001900	0.000456	4.560043	1.544984	0.000183
1702	1.6925e+02	-12.2275	-79.856563	0.000365	3.648034	1.235988	0.000146
1703	1.6935e+02	-12.1954	-79.699115	0.000395	3.952037	1.338986	0.000158
1704	1.6945e+02	-12.1505	-79.477073	0.000557	5.573386	1.888314	0.000223
1705	1.6955e+02	-12.1055	-79.315587	0.000405	4.053372	1.373319	0.000162
1706	1.6965e+02	-12.0638	-79.154102	0.000405	4.053372	1.373319	0.000162
1707	1.6975e+02	-12.0205	-78.964356	0.000476	4.762712	1.613650	0.000191
1708	1.6985e+02	-11.9820	-78.798834	0.000415	4.154706	1.407652	0.000166
1709	1.6995e+02	-11.9451	-78.649460	0.000375	3.749369	1.270321	0.000150
1710	1.7005e+02	-11.9114	-78.475863	0.000436	4.357374	1.476318	0.000174
1711	1.7015e+02	-11.8665	-78.269969	0.000517	5.168049	1.750982	0.000207
1712	1.7024e+02	-11.8296	-78.136744	0.000334	3.344032	1.132989	0.000134
1713	1.7034e+02	-11.7911	-77.918738	0.000547	5.472052	1.853981	0.000219
1714	1.7044e+02	-11.7478	-77.765327	0.000385	3.850703	1.304654	0.000154
1715	1.7054e+02	-11.7093	-77.587693	0.000446	4.458709	1.510651	0.000179
1716	1.7064e+02	-11.6548	-77.442356	0.000365	3.648034	1.235988	0.000146
1717	1.7074e+02	-11.6259	-77.248574	0.000486	4.864046	1.647983	0.000195
1718	1.7084e+02	-11.5890	-77.038643	0.000527	5.269383	1.785315	0.000211
1719	1.7094e+02	-11.5505	-76.893306	0.000365	3.648034	1.235988	0.000146
1720	1.7104e+02	-11.5168	-76.723746	0.000426	4.256040	1.441985	0.000170
1721	1.7114e+02	-11.4687	-76.517852	0.000517	5.168049	1.750982	0.000207
1722	1.7124e+02	-11.4286	-76.348293	0.000426	4.256040	1.441985	0.000170
1723	1.7134e+02	-11.3901	-76.194881	0.000385	3.850703	1.304654	0.000154
1724	1.7144e+02	-11.3467	-76.001099	0.000486	4.864046	1.647983	0.000195
1725	1.7154e+02	-11.3114	-75.839613	0.000405	4.053372	1.373319	0.000162
1726	1.7164e+02	-11.2697	-75.686202	0.000385	3.850703	1.304654	0.000154
1727	1.7174e+02	-11.2312	-75.496457	0.000476	4.762712	1.613650	0.000191
1728	1.7184e+02	-11.1991	-75.302674	0.000486	4.864046	1.647983	0.000195
1729	1.7194e+02	-11.1478	-75.116966	0.000466	4.661377	1.579317	0.000187
1730	1.7204e+02	-11.1077	-74.943369	0.000436	4.357374	1.476318	0.000174
1731	1.7213e+02	-11.0836	-74.769772	0.000436	4.357374	1.476318	0.000174
1732	1.7223e+02	-11.0307	-74.644621	0.000314	3.141363	1.064323	0.000126
1733	1.7233e+02	-10.9922	-74.410467	0.000588	5.877389	1.991313	0.000235
1734	1.7243e+02	-10.9537	-74.248982	0.000405	4.053372	1.373319	0.000162
1735	1.7253e+02	-10.9088	-74.079422	0.000426	4.256040	1.441985	0.000170
1736	1.7263e+02	-10.8703	-73.865454	0.000537	5.370717	1.819648	0.000215
1737	1.7273e+02	-10.8254	-73.716080	0.000375	3.749369	1.270321	0.000150
1738	1.7283e+02	-10.7869	-73.566706	0.000375	3.749369	1.270321	0.000150
1739	1.7293e+02	-10.7564	-73.352738	0.000537	5.370717	1.819648	0.000215
1740	1.7303e+02	-10.7115	-73.211438	0.000355	3.546700	1.201655	0.000142
1741	1.7313e+02	-10.6633	-72.993433	0.000547	5.472052	1.853981	0.000219
1742	1.7323e+02	-10.6377	-72.844059	0.000375	3.749369	1.270321	0.000150
1743	1.7333e+02	-10.5960	-72.642202	0.000507	5.066715	1.716649	0.000203
1744	1.7343e+02	-10.5462	-72.444382	0.000497	4.965380	1.682316	0.000199
1745	1.7353e+02	-10.5125	-72.262711	0.000456	4.560043	1.544984	0.000183
1746	1.7363e+02	-10.4740	-72.121411	0.000355	3.546700	1.201655	0.000142
1747	1.7373e+02	-10.4387	-71.903406	0.000547	5.472052	1.853981	0.000219
1748	1.7383e+02	-10.3970	-71.709624	0.000486	4.864046	1.647983	0.000195
1749	1.7393e+02	-10.3505	-71.531990	0.000446	4.458709	1.510651	0.000179
1750	1.7403e+02	-10.3104	-71.338207	0.000486	4.864046	1.647983	0.000195
1751	1.7413e+02	-10.2719	-71.188833	0.000375	3.749369	1.270321	0.000150
1752	1.7422e+02	-10.2382	-71.019273	0.000426	4.256040	1.441985	0.000170
1753	1.7432e+02	-10.1997	-70.809342	0.000527	5.269383	1.785315	0.000211
1754	1.7442e+02	-10.1548	-70.639783	0.000426	4.256040	1.441985	0.000170
1755	1.7452e+02	-10.1067	-70.462149	0.000446	4.458709	1.510651	0.000179
1756	1.7462e+02	-10.0842	-70.308737	0.000385	3.850703	1.304654	0.000154
1757	1.7472e+02	-10.0329	-70.127066	0.000456	4.560043	1.544984	0.000183
1758	1.7482e+02	-9.9960	-69.876764	0.000628	6.282726	2.128645	0.000252
1759	1.7492e+02	-9.9543	-69.711241	0.000415	4.154706	1.407652	0.000166
1760	1.7502e+02	-9.9126	-69.557830	0.000385	3.850703	1.304654	0.000154
1761	1.7512e+02	-9.8757	-69.339825	0.000547	5.472052	1.853981	0.000219
1762	1.7522e+02	-9.8243	-69.202562	0.000345	3.445366	1.167322	0.000138
1763	1.7532e+02	-9.7987	-69.016854	0.000466	4.661377	1.579317	0.000187
1764	1.7542e+02	-9.7569	-68.814997	0.000507	5.066715	1.716649	0.000203
1765	1.7552e+02	-9.7152	-68.617178	0.000497	4.965380	1.682316	0.000199
1766	1.7562e+02	-9.6831	-68.435506	0.000456	4.560043	1.544984	0.000183
1767	1.7572e+02	-9.6350	-68.269984	0.000415	4.154706	1.407652	0.000166
1768	1.7582e+02	-9.5981	-68.056016	0.000537	5.370717	1.819648	0.000215
1769	1.7592e+02	-9.5628	-67.914716	0.000355	3.546700	1.201655	0.000142
1770	1.7602e+02	-9.5179	-67.664414	0.000628	6.282726	2.128645	0.000252
1771	1.7612e+02	-9.4858	-67.547337	0.000294	2.938694	0.995657	0.000118
1772	1.7621e+02	-9.4409	-67.329331	0.000547	5.472052	1.853981	0.000219
1773	1.7631e+02	-9.3992	-67.147660	0.000456	4.560043	1.544984	0.000183
1774	1.7641e+02	-9.3543	-66.974063	0.000436	4.357374	1.476318	0.000174
1775	1.7651e+02	-9.3254	-66.764132	0.000527	5.269383	1.785315	0.000211
1776	1.7661e+02	-9.2789	-66.606684	0.000395	3.952037	1.338986	0.000158
1777	1.7671e+02	-9.2436	-66.372530	0.000588	5.877389	1.991313	0.000235
1778	1.7681e+02	-9.1955	-66.190859	0.000456	4.560043	1.544984	0.000183
1779	1.7691e+02	-9.1650	-66.001114	0.000476	4.762712	1.613650	0.000191
1780	1.7701e+02	-9.1233	-65.787145	0.000537	5.370717	1.819648	0.000215
1781	1.7711e+02	-9.0832	-65.625660	0.000405	4.053372	1.373319	0.000162
1782	1.7721e+02	-9.0318	-65.452063	0.000436	4.357374	1.476318	0.000174
1783	1.7731e+02	-8.9949	-65.290578	0.000405	4.053372	1.373319	0.000162
1784	1.7741e+02	-8.9580	-65.100832	0.000476	4.762712	1.613650	0.000191
1785	1.7751e+02	-8.9099	-64.911087	0.000476	4.762712	1.613650	0.000191
1786	1.7761e+02	-8.8762	-64.737490	0.000436	4.357374	1.476318	0.000174
1787	1.7771e+02	-8.8329	-64.547745	0.000476	4.762712	1.613650	0.000191
1788	1.7781e+02	-8.8040	-64.309554	0.000598	5.978723	2.025646	0.000239
1789	1.7791e+02	-8.7495	-64.139994	0.000426	4.256040	1.441985	0.000170
1790	1.7801e+02	-8.7190	-63.970434	0.000426	4.256040	1.441985	0.000170
1791	1.7810e+02	-8.6805	-63.732243	0.000598	5.978723	2.025646	0.000239
1792	1.7820e+02	-8.6420	-63.570758	0.000405	4.053372	1.373319	0.000162
1793	1.7830e+02	-8.6083	-63.372938	0.000497	4.965380	1.682316	0.000199
1794	1.7840e+02	-8.5682	-63.154933	0.000547	5.472052	1.853981	0.000219
1795	1.7850e+02	-8.5249	-63.021707	0.000334	3.344032	1.132989	0.000134
1796	1.7860e+02	-8.4752	-62.848111	0.000436	4.357374	1.476318	0.000174
1797	1.7870e+02	-8.4415	-62.605882	0.000608	6.080057	2.059979	0.000243
1798	1.7880e+02	-8.4014	-62.416137	0.000476	4.762712	1.613650	0.000191
1799	1.7890e+02	-8.3645	-62.218317	0.000497	4.965380	1.682316	0.000199
1800	1.7900e+02	-8.3260	-62.068943	0.000375	3.749369	1.270321	0.000150
1801	1.7910e+02	-8.2859	-61.850938	0.000547	5.472052	1.853981	0.000219
1802	1.7920e+02	-8.2393	-61.632933	0.000547	5.472052	1.853981	0.000219
1803	1.7930e+02	-8.1960	-61.479522	0.000385	3.850703	1.304654	0.000154
1804	1.7940e+02	-8.1704	-61.293813	0.000466	4.661377	1.579317	0.000187
1805	1.7950e+02	-8.1206	-61.067734	0.000567	5.674720	1.922647	0.000227
1806	1.7960e+02	-8.0821	-60.910285	0.000395	3.952037	1.338986	0.000158
1807	1.7970e+02	-8.0404	-60.696317	0.000537	5.370717	1.819648	0.000215
1808	1.7980e+02	-8.0003	-60.482349	0.000537	5.370717	1.819648	0.000215
1809	1.7990e+02	-7.9586	-60.332975	0.000375	3.749369	1.270321	0.000150
1810	1.8000e+02	-7.9233	-60.086710	0.000618	6.181392	2.094312	0.000248
1811	1.8009e+02	-7.8816	-59.905039	0.000456	4.560043	1.544984	0.000183
1812	1.8019e+02	-7.8399	-59.747590	0.000395	3.952037	1.338986	0.000158
1813	1.8029e+02	-7.8014	-59.557845	0.000476	4.762712	1.613650	0.000191
1814	1.8039e+02	-7.7677	-59.307543	0.000628	6.282726	2.128645	0.000252
1815	1.8049e+02	-7.7276	-59.146057	0.000405	4.053372	1.373319	0.000162
1816	1.8059e+02	-7.6827	-58.956312	0.000476	4.762712	1.613650	0.000191
1817	1.8069e+02	-7.6442	-58.738306	0.000547	5.472052	1.853981	0.000219
1818	1.8079e+02	-7.5993	-58.528375	0.000527	5.269383	1.785315	0.000211
1819	1.8089e+02	-7.5704	-58.338630	0.000476	4.762712	1.613650	0.000191
1820	1.8099e+02	-7.5190	-58.169070	0.000426	4.256040	1.441985	0.000170
1821	1.8109e+02	-7.4870	-57.975288	0.000486	4.864046	1.647983	0.000195
1822	1.8119e+02	-7.4549	-57.813802	0.000405	4.053372	1.373319	0.000162
1823	1.8129e+02	-7.4051	-57.607908	0.000517	5.168049	1.750982	0.000207
1824	1.8139e+02	-7.3682	-57.357606	0.000628	6.282726	2.128645	0.000252
1825	1.8149e+02	-7.3313	-57.192083	0.000415	4.154706	1.407652	0.000166
1826	1.8159e+02	-7.2832	-56.982152	0.000527	5.269383	1.785315	0.000211
1827	1.8169e+02	-7.2415	-56.820667	0.000405	4.053372	1.373319	0.000162
1828	1.8179e+02	-7.2062	-56.602662	0.000547	5.472052	1.853981	0.000219
1829	1.8189e+02	-7.1597	-56.400805	0.000507	5.066715	1.716649	0.000203
1830	1.8199e+02	-7.1292	-56.207022	0.000486	4.864046	1.647983	0.000195
1831	1.8209e+02	-7.0891	-56.009203	0.000497	4.965380	1.682316	0.000199
1832	1.8218e+02	-7.0554	-55.791197	0.000547	5.472052	1.853981	0.000219
1833	1.8228e+02	-7.0009	-55.605489	0.000466	4.661377	1.579317	0.000187
1834	1.8238e+02	-6.9688	-55.435929	0.000426	4.256040	1.441985	0.000170
1835	1.8248e+02	-6.9223	-55.217924	0.000547	5.472052	1.853981	0.000219
1836	1.8258e+02	-6.8886	-55.003956	0.000537	5.370717	1.819648	0.000215
1837	1.8268e+02	-6.8501	-54.794025	0.000527	5.269383	1.785315	0.000211
1838	1.8278e+02	-6.8052	-54.600242	0.000486	4.864046	1.647983	0.000195
1839	1.8288e+02	-6.7715	-54.430683	0.000426	4.256040	1.441985	0.000170
1840	1.8298e+02	-6.7314	-54.216714	0.000537	5.370717	1.819648	0.000215
1841	1.8308e+02	-6.6864	-54.006783	0.000527	5.269383	1.785315	0.000211
1842	1.8318e+02	-6.6576	-53.813001	0.000486	4.864046	1.647983	0.000195
1843	1.8328e+02	-6.6159	-53.611144	0.000507	5.066715	1.716649	0.000203
1844	1.8338e+02	-6.5693	-53.417362	0.000486	4.864046	1.647983	0.000195
1845	1.8348e+02	-6.5308	-53.211468	0.000517	5.168049	1.750982	0.000207
1846	1.8358e+02	-6.4859	-53.009611	0.000507	5.066715	1.716649	0.000203
1847	1.8368e+02	-6.4538	-52.827940	0.000456	4.560043	1.544984	0.000183
1848	1.8378e+02	-6.4169	-52.634157	0.000486	4.864046	1.647983	0.000195
1849	1.8388e+02	-6.3720	-52.448449	0.000466	4.661377	1.579317	0.000187
1850	1.8398e+02	-6.3383	-52.222369	0.000567	5.674720	1.922647	0.000227
1851	1.8407e+02	-6.2934	-52.020513	0.000507	5.066715	1.716649	0.000203
1852	1.8417e+02	-6.2469	-51.778284	0.000608	6.080057	2.059979	0.000243
1853	1.8427e+02	-6.2068	-51.612762	0.000415	4.154706	1.407652	0.000166
1854	1.8437e+02	-6.1715	-51.386682	0.000567	5.674720	1.922647	0.000227
1855	1.8447e+02	-6.1378	-51.213085	0.000436	4.357374	1.476318	0.000174
1856	1.8457e+02	-6.0881	-51.007191	0.000517	5.168049	1.750982	0.000207
1857	1.8467e+02	-6.0464	-50.813409	0.000486	4.864046	1.647983	0.000195
1858	1.8477e+02	-6.0095	-50.611552	0.000507	5.066715	1.716649	0.000203
1859	1.8487e+02	-5.9790	-50.385473	0.000567	5.674720	1.922647	0.000227
1860	1.8497e+02	-5.9325	-50.183616	0.000507	5.066715	1.716649	0.000203
1861	1.8507e+02	-5.9036	-50.005982	0.000446	4.458709	1.510651	0.000179
1862	1.8517e+02	-5.8554	-49.763754	0.000608	6.080057	2.059979	0.000243
1863	1.8527e+02	-5.8137	-49.634565	0.000324	3.242697	1.098656	0.000130
1864	1.8537e+02	-5.7768	-49.376189	0.000649	6.485395	2.197311	0.000260
1865	1.8547e+02	-5.7383	-49.174332	0.000507	5.066715	1.716649	0.000203
1866	1.8557e+02	-5.6966	-48.992661	0.000456	4.560043	1.544984	0.000183
1867	1.8567e+02	-5.6549	-48.782730	0.000527	5.269383	1.785315	0.000211
1868	1.8577e+02	-5.6180	-48.564724	0.000547	5.472052	1.853981	0.000219
1869	1.8587e+02	-5.5811	-48.391128	0.000436	4.357374	1.476318	0.000174
1870	1.8597e+02	-5.5314	-48.161011	0.000578	5.776055	1.956980	0.000231
1871	1.8606e+02	-5.4993	-47.922820	0.000598	5.978723	2.025646	0.000239
1872	1.8616e+02	-5.4592	-47.753260	0.000426	4.256040	1.441985	0.000170
1873	1.8626e+02	-5.4143	-47.539292	0.000537	5.370717	1.819648	0.000215
1874	1.8636e+02	-5.3678	-47.317249	0.000557	5.573386	1.888314	0.000223
1875	1.8646e+02	-5.3325	-47.143653	0.000436	4.357374	1.476318	0.000174
1876	1.8656e+02	-5.2988	-46.869127	0.000689	6.890732	2.334643	0.000276
1877	1.8666e+02	-5.2539	-46.719753	0.000375	3.749369	1.270321	0.000150
1878	1.8676e+02	-5.2186	-46.521934	0.000497	4.965380	1.682316	0.000199
1879	1.8686e+02	-5.1672	-46.295854	0.000567	5.674720	1.922647	0.000227
1880	1.8696e+02	-5.1351	-46.065737	0.000578	5.776055	1.956980	0.000231
1881	1.8706e+02	-5.1047	-45.892141	0.000436	4.357374	1.476318	0.000174
1882	1.8716e+02	-5.0549	-45.678172	0.000537	5.370717	1.819648	0.000215
1883	1.8726e+02	-5.0212	-45.448056	0.000578	5.776055	1.956980	0.000231
1884	1.8736e+02	-4.9795	-45.246199	0.000507	5.066715	1.716649	0.000203
1885	1.8746e+02	-4.9426	-45.036268	0.000527	5.269383	1.785315	0.000211
1886	1.8756e+02	-4.8961	-44.866708	0.000426	4.256040	1.441985	0.000170
1887	1.8766e+02	-4.8544	-44.632554	0.000588	5.877389	1.991313	0.000235
1888	1.8776e+02	-4.8175	-44.450883	0.000456	4.560043	1.544984	0.000183
1889	1.8786e+02	-4.7854	-44.216729	0.000588	5.877389	1.991313	0.000235
1890	1.8796e+02	-4.7501	-43.990650	0.000567	5.674720	1.922647	0.000227
1891	1.8806e+02	-4.6972	-43.792830	0.000497	4.965380	1.682316	0.000199
1892	1.8815e+02	-4.6603	-43.623270	0.000426	4.256040	1.441985	0.000170
1893	1.8825e+02	-4.6186	-43.360856	0.000659	6.586729	2.231644	0.000264
1894	1.8835e+02	-4.5753	-43.191297	0.000426	4.256040	1.441985	0.000170
1895	1.8845e+02	-4.5368	-42.961180	0.000578	5.776055	1.956980	0.000231
1896	1.8855e+02	-4.4999	-42.771435	0.000476	4.762712	1.613650	0.000191
1897	1.8865e+02	-4.4614	-42.569578	0.000507	5.066715	1.716649	0.000203
1898	1.8875e+02	-4.4277	-42.391944	0.000446	4.458709	1.510651	0.000179
1899	1.8885e+02	-4.3763	-42.153753	0.000598	5.978723	2.025646	0.000239
1900	1.8895e+02	-4.3427	-41.955933	0.000497	4.965380	1.682316	0.000199
1901	1.8905e+02	-4.3042	-41.697556	0.000649	6.485395	2.197311	0.000260
1902	1.8915e+02	-4.2624	-41.495700	0.000507	5.066715	1.716649	0.000203
1903	1.8925e+02	-4.2223	-41.297880	0.000497	4.965380	1.682316	0.000199
1904	1.8935e+02	-4.1806	-41.108135	0.000476	4.762712	1.613650	0.000191
1905	1.8945e+02	-4.1437	-40.878018	0.000578	5.776055	1.956980	0.000231
1906	1.8955e+02	-4.1020	-40.736718	0.000355	3.546700	1.201655	0.000142
1907	1.8965e+02	-4.0587	-40.470267	0.000669	6.688063	2.265977	0.000268
1908	1.8975e+02	-4.0234	-40.284559	0.000466	4.661377	1.579317	0.000187
1909	1.8985e+02	-3.9849	-40.026182	0.000649	6.485395	2.197311	0.000260
1910	1.8995e+02	-3.9400	-39.816251	0.000527	5.269383	1.785315	0.000211
1911	1.9004e+02	-3.9063	-39.638617	0.000446	4.458709	1.510651	0.000179
1912	1.9014e+02	-3.8598	-39.392352	0.000618	6.181392	2.094312	0.000248
1913	1.9024e+02	-3.8293	-39.186458	0.000517	5.168049	1.750982	0.000207
1914	1.9034e+02	-3.7892	-38.976527	0.000527	5.269383	1.785315	0.000211
1915	1.9044e+02	-3.7491	-38.794856	0.000456	4.560043	1.544984	0.000183
1916	1.9054e+02	-3.6962	-38.560702	0.000588	5.877389	1.991313	0.000235
1917	1.9064e+02	-3.6609	-38.358845	0.000507	5.066715	1.716649	0.000203
1918	1.9074e+02	-3.6272	-38.140840	0.000547	5.472052	1.853981	0.000219
1919	1.9084e+02	-3.5806	-37.926872	0.000537	5.370717	1.819648	0.000215
1920	1.9094e+02	-3.5389	-37.672532	0.000638	6.384060	2.162978	0.000256
1921	1.9104e+02	-3.5004	-37.434341	0.000598	5.978723	2.025646	0.000239
1922	1.9114e+02	-3.4667	-37.264781	0.000426	4.256040	1.441985	0.000170
1923	1.9124e+02	-3.4282	-37.058888	0.000517	5.168049	1.750982	0.000207
1924	1.9134e+02	-3.3817	-36.840882	0.000547	5.472052	1.853981	0.000219
1925	1.9144e+02	-3.3416	-36.639025	0.000507	5.066715	1.716649	0.000203
1926	1.9154e+02	-3.3015	-36.421020	0.000547	5.472052	1.853981	0.000219
1927	1.9164e+02	-3.2662	-36.211089	0.000527	5.269383	1.785315	0.000211
1928	1.9174e+02	-3.2197	-35.993084	0.000547	5.472052	1.853981	0.000219
1929	1.9184e+02	-3.1876	-35.799301	0.000486	4.864046	1.647983	0.000195
1930	1.9194e+02	-3.1459	-35.548999	0.000628	6.282726	2.128645	0.000252
1931	1.9203e+02	-3.1042	-35.367328	0.000456	4.560043	1.544984	0.000183
1932	1.9213e+02	-3.0705	-35.121062	0.000618	6.181392	2.094312	0.000248
1933	1.9223e+02	-3.0256	-34.903057	0.000547	5.472052	1.853981	0.000219
1934	1.9233e+02	-2.9887	-34.676977	0.000567	5.674720	1.922647	0.000227
1935	1.9243e+02	-2.9470	-34.487232	0.000476	4.762712	1.613650	0.000191
1936	1.9253e+02	-2.9085	-34.261152	0.000567	5.674720	1.922647	0.000227
1937	1.9263e+02	-2.8636	-34.099667	0.000405	4.053372	1.373319	0.000162
1938	1.9273e+02	-2.8234	-33.821105	0.000699	6.992066	2.368976	0.000280
1939	1.9283e+02	-2.7866	-33.643471	0.000446	4.458709	1.510651	0.000179
1940	1.9293e+02	-2.7448	-33.425465	0.000547	5.472052	1.853981	0.000219
1941	1.9303e+02	-2.6983	-33.159014	0.000669	6.688063	2.265977	0.000268
1942	1.9313e+02	-2.6759	-32.945046	0.000537	5.370717	1.819648	0.000215
1943	1.9323e+02	-2.6261	-32.747227	0.000497	4.965380	1.682316	0.000199
1944	1.9333e+02	-2.5876	-32.565555	0.000456	4.560043	1.544984	0.000183
1945	1.9343e+02	-2.5443	-32.282956	0.000709	7.093400	2.403309	0.000284
1946	1.9353e+02	-2.5106	-32.073025	0.000527	5.269383	1.785315	0.000211
1947	1.9363e+02	-2.4673	-31.895391	0.000446	4.458709	1.510651	0.000179
1948	1.9373e+02	-2.4288	-31.689497	0.000517	5.168049	1.750982	0.000207
1949	1.9383e+02	-2.3903	-31.471492	0.000547	5.472052	1.853981	0.000219
1950	1.9393e+02	-2.3438	-31.205041	0.000669	6.688063	2.265977	0.000268
1951	1.9403e+02	-2.2973	-30.982998	0.000557	5.573386	1.888314	0.000223
1952	1.9412e+02	-2.2716	-30.793253	0.000476	4.762712	1.613650	0.000191
1953	1.9422e+02	-2.2299	-30.546988	0.000618	6.181392	2.094312	0.000248
1954	1.9432e+02	-2.1914	-30.405688	0.000355	3.546700	1.201655	0.000142
1955	1.9442e+02	-2.1529	-30.151348	0.000638	6.384060	2.162978	0.000256
1956	1.9452e+02	-2.1128	-29.909120	0.000608	6.080057	2.059979	0.000243
1957	1.9462e+02	-2.0711	-29.683041	0.000567	5.674720	1.922647	0.000227
1958	1.9472e+02	-2.0342	-29.501369	0.000456	4.560043	1.544984	0.000183
1959	1.9482e+02	-1.9876	-29.275290	0.000567	5.674720	1.922647	0.000227
1960	1.9492e+02	-1.9443	-29.041136	0.000588	5.877389	1.991313	0.000235
1961	1.9502e+02	-1.9138	-28.843316	0.000497	4.965380	1.682316	0.000199
1962	1.9512e+02	-1.8721	-28.621274	0.000557	5.573386	1.888314	0.000223
1963	1.9522e+02	-1.8288	-28.387120	0.000588	5.877389	1.991313	0.000235
1964	1.9532e+02	-1.7871	-28.169115	0.000547	5.472052	1.853981	0.000219
1965	1.9542e+02	-1.7566	-27.930924	0.000598	5.978723	2.025646	0.000239
1966	1.9552e+02	-1.7085	-27.757327	0.000436	4.357374	1.476318	0.000174
1967	1.9562e+02	-1.6764	-27.519136	0.000598	5.978723	2.025646	0.000239
1968	1.9572e+02	-1.6379	-27.284982	0.000588	5.877389	1.991313	0.000235
1969	1.9582e+02	-1.5882	-27.054865	0.000578	5.776055	1.956980	0.000231
1970	1.9592e+02	-1.5513	-26.873194	0.000456	4.560043	1.544984	0.000183
1971	1.9601e+02	-1.5160	-26.651152	0.000557	5.573386	1.888314	0.000223
1972	1.9611e+02	-1.4743	-26.412961	0.000598	5.978723	2.025646	0.000239
1973	1.9621e+02	-1.4294	-26.174770	0.000598	5.978723	2.025646	0.000239
1974	1.9631e+02	-1.3893	-25.960801	0.000537	5.370717	1.819648	0.000215
1975	1.9641e+02	-1.3588	-25.750870	0.000527	5.269383	1.785315	0.000211
1976	1.9651e+02	-1.3107	-25.488456	0.000659	6.586729	2.231644	0.000264
1977	1.9661e+02	-1.2706	-25.310823	0.000446	4.458709	1.510651	0.000179
1978	1.9671e+02	-1.2321	-24.991889	0.000801	8.005409	2.712306	0.000321
1979	1.9681e+02	-1.1887	-24.814255	0.000446	4.458709	1.510651	0.000179
1980	1.9691e+02	-1.1502	-24.636621	0.000446	4.458709	1.510651	0.000179
1981	1.9701e+02	-1.1182	-24.378244	0.000649	6.485395	2.197311	0.000260
1982	1.9711e+02	-1.0796	-24.172350	0.000517	5.168049	1.750982	0.000207
1983	1.9721e+02	-1.0315	-23.978568	0.000486	4.864046	1.647983	0.000195
1984	1.9731e+02	-0.9914	-23.700005	0.000699	6.992066	2.368976	0.000280
1985	1.9741e+02	-0.9577	-23.502186	0.000497	4.965380	1.682316	0.000199
1986	1.9751e+02	-0.9208	-23.276106	0.000567	5.674720	1.922647	0.000227
1987	1.9761e+02	-0.8743	-23.041952	0.000588	5.877389	1.991313	0.000235
1988	1.9771e+02	-0.8358	-22.836058	0.000517	5.168049	1.750982	0.000207
1989	1.9781e+02	-0.7829	-22.626127	0.000527	5.269383	1.785315	0.000211
1990	1.9791e+02	-0.7492	-22.383899	0.000608	6.080057	2.059979	0.000243
1991	1.9800e+02	-0.7091	-22.141671	0.000608	6.080057	2.059979	0.000243
1992	1.9810e+02	-0.6674	-21.951926	0.000476	4.762712	1.613650	0.000191
1993	1.9820e+02	-0.6369	-21.693549	0.000649	6.485395	2.197311	0.000260
1994	1.9830e+02	-0.5936	-21.467469	0.000567	5.674720	1.922647	0.000227
1995	1.9840e+02	-0.5503	-21.221204	0.000618	6.181392	2.094312	0.000248
1996	1.9850e+02	-0.5166	-21.075867	0.000365	3.648034	1.235988	0.000146
1997	1.9860e+02	-0.4781	-20.781156	0.000740	7.397403	2.506308	0.000296
1998	1.9870e+02	-0.4347	-20.575262	0.000517	5.168049	1.750982	0.000207
1999	1.9880e+02	-0.3882	-20.349183	0.000567	5.674720	1.922647	0.000227
2000	1.9890e+02	-0.3593	-20.131177	0.000547	5.472052	1.853981	0.000219
2001	1.9900e+02	-0.3160	-19.929321	0.000507	5.066715	1.716649	0.000203
2002	1.9910e+02	-0.2727	-19.670944	0.000649	6.485395	2.197311	0.000260
2003	1.9920e+02	-0.2310	-19.440827	0.000578	5.776055	1.956980	0.000231
2004	1.9930e+02	-0.1973	-19.226859	0.000537	5.370717	1.819648	0.000215
2005	1.9940e+02	-0.1588	-19.012891	0.000537	5.370717	1.819648	0.000215
2006	1.9950e+02	-0.1187	-18.770663	0.000608	6.080057	2.059979	0.000243
2007	1.9960e+02	-0.0802	-18.601103	0.000426	4.256040	1.441985	0.000170
2008	1.9970e+02	-0.0433	-18.354838	0.000618	6.181392	2.094312	0.000248
2009	1.9980e+02	0.0128	-18.128758	0.000618	6.181392	2.094312	0.000227

PMax (uC/cm2):	1.10e+02
Pr (uC/cm2):	6.53e+00
-Pr (uC/cm2):	-1.42e+01
PLoss (uC/cm2):	-1.41e+01
-Vc:	-1.15e+00
C (Max-Eff) (nF):	5.48e-01
K (Eff):	1.86e+03
Vert. (+/-Pr) Shift (uC/cm2):	-3.81e+00
Offset (uC/cm2):	3.97e+00

A (Loop Area - uC/cm2·Volts):	1.82e-01



Hysteresis Version: 5.48.1 - Radiant Technologies, Inc., 1999 - 9/12/24

