»»»»»»»»»»»»»»»»»»»»»»»»»»»»»»»»»»»» Hysteresis ««««««««««««««««««««««««««««««««««««
»»»  Executed Version:	5.48.1
»»»  Vision Version:	5.48.4 (R)
»»»  Vision Compiled:	9/18/24
»»»  Driver Version:	5.47.0
»»»  Windows Version:	Windows 8 or 8.1
»»»  Processor Information:	x86 (AMD or Intel) - 32 Processors
»»»  Tester Name:	PMF21124-494 (100V)
»»»  Tester S/N:	PMF21124-494
»»»  Internal Amp Type:	100V RevK 270k
»»»  Internal Amp S/N:	iAB2-596/K     
»»»  Execution Count:	1
»»»»»»»»»»»»»»»»»»»»»»»»»»»»»»»»»»»»»»»»»»««««««««««««««««««««««««««««««««««««««««««

Stored:	6/18/2025 - 15:1:56
Configured:	06/18/25 09:47:30 AM
Executed:	06/18/25 03:01:27 PM

»»»»»»»»»»»»»»»»»»»»»»»»»»»»»»»»»»» Sample Info ««««««««««««««««««««««««««««««««««««
Sample Name:	
Lot Name:	
Wafer Name:	
Die Row/Column:	0/0
Capacitor Number:	0
Sample Area (cm2):	1.00e-04
Sample Thickness (microns):	3.00e-01

Amplifier:	Internal

»»»»»»»»»»»»»»»»»»»»»»»»»»»»»»»»»»» Tester Info «««««««««««««««««««««««««««««««««««
Tester Name:	PMF21124-494 (100V)
Tester Serial Number:	PMF21124-494
Return Signal Amp. Level:	0.19 [Index: 3]

»»»»»»»»»»»»»»»»»»»»»»»»»»»»»»»» Hysteresis Info ««««««««««««««««««««««««««««««««««
Task Name:	Hyst-554
Volts:	20.00
Field:	666.67 (kV/cm)
DCBias:	0.00
DCField:	0.00 (kV/cm)
Hysteresis Period (ms):	1.00e+00
Preset:	Enabled
Preset Delay (ms):	1.00e+03
Profile:	Standard Bipolar

»»»»»»»»»»»»»»»»»»»»»»»»»»»»»»»»»»»»»» Data «««««««««««««««««««««««««««««««««««««««
Points:	2001

Valid Data

Point	Time (ms)	Drive Voltage	Measured Polarization (uC/cm2)	Capacitance (uF)	Normalized Capacitance (uF/cm2)	Dielectric Constant	Instantaneous Current (mA)
   1	0.0000e+00	0.0225	-6.212988	0.000889	8.887463	3.011154	0.070983
   2	5.0000e-04	0.0289	-5.858076	0.000889	8.887463	3.011154	0.070983
   3	1.0000e-03	0.0561	-5.733050	0.000313	3.130811	1.060747	0.025005
   4	1.5000e-03	0.0946	-5.745149	-0.000030	-0.302982	-0.102653	-0.002420
   5	2.0000e-03	0.1315	-5.539461	0.000515	5.150689	1.745101	0.041138
   6	2.5000e-03	0.1781	-5.313607	0.000566	5.655658	1.916189	0.045171
   7	3.0000e-03	0.2134	-5.454766	-0.000353	-3.534787	-1.197618	-0.028232
   8	3.5000e-03	0.2551	-4.990960	0.001161	11.614299	3.935031	0.092761
   9	4.0000e-03	0.2904	-4.906264	0.000212	2.120872	0.718571	0.016939
  10	4.5000e-03	0.3321	-4.627981	0.000697	6.968579	2.361019	0.055657
  11	5.0000e-03	0.3706	-4.502955	0.000313	3.130811	1.060747	0.025005
  12	5.5000e-03	0.4091	-4.192406	0.000778	7.776530	2.634760	0.062110
  13	6.0000e-03	0.4524	-4.063347	0.000323	3.231805	1.094965	0.025812
  14	6.5000e-03	0.4941	-3.744732	0.000798	7.978518	2.703195	0.063723
  15	7.0000e-03	0.5262	-3.555176	0.000475	4.746713	1.608230	0.037911
  16	7.5000e-03	0.5791	-3.438217	0.000293	2.928823	0.992312	0.023392
  17	8.0000e-03	0.6128	-3.526945	-0.000222	-2.221866	-0.752789	-0.017746
  18	8.5000e-03	0.6513	-3.184131	0.000858	8.584482	2.908501	0.068563
  19	9.0000e-03	0.6850	-2.990543	0.000485	4.847707	1.642448	0.038718
  20	9.5000e-03	0.7283	-2.696126	0.000737	7.372555	2.497889	0.058883
  21	1.0000e-02	0.7716	-2.470273	0.000566	5.655658	1.916189	0.045171
  22	1.0500e-02	0.8085	-2.280717	0.000475	4.746713	1.608230	0.037911
  23	1.1000e-02	0.8567	-2.091162	0.000475	4.746713	1.608230	0.037911
  24	1.1500e-02	0.8968	-1.966136	0.000313	3.130811	1.060747	0.025005
  25	1.2000e-02	0.9305	-1.780613	0.000465	4.645719	1.574012	0.037105
  26	1.2500e-02	0.9834	-1.526528	0.000636	6.362616	2.155713	0.050817
  27	1.3000e-02	1.0155	-1.240178	0.000717	7.170567	2.429454	0.057270
  28	1.3500e-02	1.0508	-1.288575	-0.000121	-1.211927	-0.410612	-0.009679
  29	1.4000e-02	1.0909	-0.965927	0.000808	8.079512	2.737413	0.064530
  30	1.4500e-02	1.1310	-0.877199	0.000222	2.221866	0.752789	0.017746
  31	1.5000e-02	1.1775	-0.760239	0.000293	2.928823	0.992312	0.023392
  32	1.5500e-02	1.2064	-0.473889	0.000717	7.170567	2.429454	0.057270
  33	1.6000e-02	1.2545	-0.227870	0.000616	6.160628	2.087277	0.049204
  34	1.6500e-02	1.2850	-0.054447	0.000434	4.342738	1.471359	0.034685
  35	1.7000e-02	1.3331	0.284333	0.000848	8.483488	2.874283	0.067756
  36	1.7500e-02	1.3732	0.393227	0.000273	2.726835	0.923877	0.021779
  37	1.8000e-02	1.4133	0.401293	0.000020	0.201988	0.068435	0.001613
  38	1.8500e-02	1.4679	0.756206	0.000889	8.887463	3.011154	0.070983
  39	1.9000e-02	1.4984	0.949795	0.000485	4.847707	1.642448	0.038718
  40	1.9500e-02	1.5353	0.986093	0.000091	0.908945	0.307959	0.007260
  41	2.0000e-02	1.5754	1.236145	0.000626	6.261622	2.121495	0.050010
  42	2.0500e-02	1.6090	1.913705	0.001697	16.966975	5.748567	0.135512
  43	2.1000e-02	1.6540	1.893540	-0.000050	-0.504970	-0.171088	-0.004033
  44	2.1500e-02	1.7005	1.909672	0.000040	0.403976	0.136871	0.003226
  45	2.2000e-02	1.7342	1.865308	-0.000111	-1.110933	-0.376394	-0.008873
  46	2.2500e-02	1.7695	2.300883	0.001091	10.907341	3.695507	0.087115
  47	2.3000e-02	1.8096	2.647729	0.000869	8.685475	2.942719	0.069369
  48	2.3500e-02	1.8529	2.716292	0.000172	1.716896	0.581700	0.013713
  49	2.4000e-02	1.8962	2.849384	0.000333	3.332799	1.129183	0.026618
  50	2.4500e-02	1.9363	3.075238	0.000566	5.655658	1.916189	0.045171
  51	2.5000e-02	1.9716	3.325290	0.000626	6.261622	2.121495	0.050010
  52	2.5500e-02	2.0213	3.639871	0.000788	7.877524	2.668977	0.062916
  53	2.6000e-02	2.0598	3.696335	0.000141	1.413915	0.479047	0.011293
  54	2.6500e-02	2.0951	3.897990	0.000505	5.049695	1.710883	0.040331
  55	2.7000e-02	2.1352	4.156108	0.000646	6.463610	2.189930	0.051624
  56	2.7500e-02	2.1769	4.180307	0.000061	0.605963	0.205306	0.004840
  57	2.8000e-02	2.2090	4.511021	0.000828	8.281500	2.805848	0.066143
  58	2.8500e-02	2.2620	4.511021	0.000000	0.000000	0.000000	0.000000
  59	2.9000e-02	2.2892	4.785271	0.000687	6.867585	2.326801	0.054850
  60	2.9500e-02	2.3310	5.176482	0.000980	9.796408	3.319113	0.078242
  61	3.0000e-02	2.3743	5.434600	0.000646	6.463610	2.189930	0.051624
  62	3.0500e-02	2.4096	5.519295	0.000212	2.120872	0.718571	0.016939
  63	3.1000e-02	2.4529	5.789513	0.000677	6.766591	2.292583	0.054044
  64	3.1500e-02	2.4914	6.015367	0.000566	5.655658	1.916189	0.045171
  65	3.2000e-02	2.5315	6.342048	0.000818	8.180506	2.771630	0.065336
  66	3.2500e-02	2.5748	6.430776	0.000222	2.221866	0.752789	0.017746
  67	3.3000e-02	2.6101	6.459007	0.000071	0.706957	0.239524	0.005646
  68	3.3500e-02	2.6502	6.717126	0.000646	6.463610	2.189930	0.051624
  69	3.4000e-02	2.6983	6.793755	0.000192	1.918884	0.650136	0.015326
  70	3.4500e-02	2.7384	7.112369	0.000798	7.978518	2.703195	0.063723
  71	3.5000e-02	2.7705	7.285793	0.000434	4.342738	1.471359	0.034685
  72	3.5500e-02	2.8058	7.656838	0.000929	9.291439	3.148025	0.074209
  73	3.6000e-02	2.8620	7.652805	-0.000010	-0.100994	-0.034218	-0.000807
  74	3.6500e-02	2.8860	7.971419	0.000798	7.978518	2.703195	0.063723
  75	3.7000e-02	2.9293	8.322299	0.000879	8.786469	2.976936	0.070176
  76	3.7500e-02	2.9775	8.169041	-0.000384	-3.837768	-1.300271	-0.030652
  77	3.8000e-02	3.0031	8.725609	0.001394	13.937158	4.722037	0.111314
  78	3.8500e-02	3.0593	8.915164	0.000475	4.746713	1.608230	0.037911
  79	3.9000e-02	3.0865	9.032124	0.000293	2.928823	0.992312	0.023392
  80	3.9500e-02	3.1347	9.149084	0.000293	2.928823	0.992312	0.023392
  81	4.0000e-02	3.1732	9.286210	0.000343	3.433793	1.163400	0.027425
  82	4.0500e-02	3.2053	9.862943	0.001444	14.442128	4.893125	0.115347
  83	4.1000e-02	3.2518	9.983936	0.000303	3.029817	1.026530	0.024199
  84	4.1500e-02	3.2951	10.137193	0.000384	3.837768	1.300271	0.030652
  85	4.2000e-02	3.3288	10.217855	0.000202	2.019878	0.684353	0.016132
  86	4.2500e-02	3.3785	10.314650	0.000242	2.423854	0.821224	0.019359
  87	4.3000e-02	3.4090	10.484040	0.000424	4.241744	1.437142	0.033878
  88	4.3500e-02	3.4507	10.641331	0.000394	3.938762	1.334489	0.031458
  89	4.4000e-02	3.4892	10.891383	0.000626	6.261622	2.121495	0.050010
  90	4.4500e-02	3.5357	11.189832	0.000747	7.473549	2.532107	0.059690
  91	4.5000e-02	3.5774	11.266461	0.000192	1.918884	0.650136	0.015326
  92	4.5500e-02	3.6095	11.593142	0.000818	8.180506	2.771630	0.065336
  93	4.6000e-02	3.6577	11.750433	0.000394	3.938762	1.334489	0.031458
  94	4.6500e-02	3.7042	11.927889	0.000444	4.443732	1.505577	0.035491
  95	4.7000e-02	3.7395	12.032750	0.000263	2.625841	0.889659	0.020972
  96	4.7500e-02	3.7732	12.177941	0.000364	3.635780	1.231836	0.029038
  97	4.8000e-02	3.8149	12.682079	0.001262	12.624238	4.277207	0.100827
  98	4.8500e-02	3.8598	12.807105	0.000313	3.130811	1.060747	0.025005
  99	4.9000e-02	3.8903	13.157984	0.000879	8.786469	2.976936	0.070176
 100	4.9500e-02	3.9320	13.315275	0.000394	3.938762	1.334489	0.031458
 101	5.0000e-02	3.9721	13.508864	0.000485	4.847707	1.642448	0.038718
 102	5.0500e-02	4.0058	13.783114	0.000687	6.867585	2.326801	0.054850
 103	5.1000e-02	4.0587	14.029133	0.000616	6.160628	2.087277	0.049204
 104	5.1500e-02	4.1004	14.101729	0.000182	1.817890	0.615918	0.014519
 105	5.2000e-02	4.1309	14.275153	0.000434	4.342738	1.471359	0.034685
 106	5.2500e-02	4.1887	14.404212	0.000323	3.231805	1.094965	0.025812
 107	5.3000e-02	4.2127	14.553436	0.000374	3.736774	1.266053	0.029845
 108	5.3500e-02	4.2480	14.916415	0.000909	9.089451	3.079589	0.072596
 109	5.4000e-02	4.2961	15.057574	0.000353	3.534787	1.197618	0.028232
 110	5.4500e-02	4.3394	15.235030	0.000444	4.443732	1.505577	0.035491
 111	5.5000e-02	4.3683	15.493148	0.000646	6.463610	2.189930	0.051624
 112	5.5500e-02	4.4116	15.759333	0.000667	6.665597	2.258366	0.053237
 113	5.6000e-02	4.4566	15.856127	0.000242	2.423854	0.821224	0.019359
 114	5.6500e-02	4.4951	16.198941	0.000858	8.584482	2.908501	0.068563
 115	5.7000e-02	4.5368	16.307834	0.000273	2.726835	0.923877	0.021779
 116	5.7500e-02	4.5705	16.739376	0.001081	10.806347	3.661290	0.086308
 117	5.8000e-02	4.6090	16.908766	0.000424	4.241744	1.437142	0.033878
 118	5.8500e-02	4.6555	16.985395	0.000192	1.918884	0.650136	0.015326
 119	5.9000e-02	4.6908	17.328208	0.000858	8.584482	2.908501	0.068563
 120	5.9500e-02	4.7277	17.473400	0.000364	3.635780	1.231836	0.029038
 121	6.0000e-02	4.7726	17.582293	0.000273	2.726835	0.923877	0.021779
 122	6.0500e-02	4.8207	17.977537	0.000990	9.897402	3.353331	0.079049
 123	6.1000e-02	4.8528	18.094497	0.000293	2.928823	0.992312	0.023392
 124	6.1500e-02	4.8897	18.154993	0.000151	1.514909	0.513265	0.012099
 125	6.2000e-02	4.9314	18.348582	0.000485	4.847707	1.642448	0.038718
 126	6.2500e-02	4.9731	18.703495	0.000889	8.887463	3.011154	0.070983
 127	6.3000e-02	5.0068	18.820455	0.000293	2.928823	0.992312	0.023392
 128	6.3500e-02	5.0533	19.171334	0.000879	8.786469	2.976936	0.070176
 129	6.4000e-02	5.0950	19.610942	0.001101	11.008335	3.729725	0.087922
 130	6.4500e-02	5.1351	19.703703	0.000232	2.322860	0.787006	0.018552
 131	6.5000e-02	5.1688	20.042484	0.000848	8.483488	2.874283	0.067756
 132	6.5500e-02	5.2105	20.256238	0.000535	5.352677	1.813536	0.042751
 133	6.6000e-02	5.2490	20.316734	0.000151	1.514909	0.513265	0.012099
 134	6.6500e-02	5.2940	20.526455	0.000525	5.251683	1.779318	0.041944
 135	6.7000e-02	5.3309	20.901534	0.000939	9.392433	3.182242	0.075016
 136	6.7500e-02	5.3742	20.945898	0.000111	1.110933	0.376394	0.008873
 137	6.8000e-02	5.4079	21.030593	0.000212	2.120872	0.718571	0.016939
 138	6.8500e-02	5.4560	21.292744	0.000656	6.564604	2.224148	0.052430
 139	6.9000e-02	5.4929	21.389538	0.000242	2.423854	0.821224	0.019359
 140	6.9500e-02	5.5378	21.813014	0.001060	10.604360	3.592854	0.084695
 141	7.0000e-02	5.5779	22.139695	0.000818	8.180506	2.771630	0.065336
 142	7.0500e-02	5.6084	22.317151	0.000444	4.443732	1.505577	0.035491
 143	7.1000e-02	5.6517	22.401846	0.000212	2.120872	0.718571	0.016939
 144	7.1500e-02	5.6902	22.534938	0.000333	3.332799	1.129183	0.026618
 145	7.2000e-02	5.7399	22.805156	0.000677	6.766591	2.292583	0.054044
 146	7.2500e-02	5.7704	23.099572	0.000737	7.372555	2.497889	0.058883
 147	7.3000e-02	5.8073	23.139903	0.000101	1.009939	0.342177	0.008066
 148	7.3500e-02	5.8571	23.369790	0.000576	5.756652	1.950407	0.045977
 149	7.4000e-02	5.8875	23.482717	0.000283	2.827829	0.958094	0.022585
 150	7.4500e-02	5.9308	23.902159	0.001050	10.503366	3.558637	0.083888
 151	7.5000e-02	5.9726	24.321601	0.001050	10.503366	3.558637	0.083888
 152	7.5500e-02	6.0175	24.406296	0.000212	2.120872	0.718571	0.016939
 153	7.6000e-02	6.0431	24.527289	0.000303	3.029817	1.026530	0.024199
 154	7.6500e-02	6.0977	24.478892	-0.000121	-1.211927	-0.410612	-0.009679
 155	7.7000e-02	6.1378	24.866069	0.000970	9.695414	3.284895	0.077435
 156	7.7500e-02	6.1779	25.099989	0.000586	5.857646	1.984624	0.046784
 157	7.8000e-02	6.2164	25.346008	0.000616	6.160628	2.087277	0.049204
 158	7.8500e-02	6.2565	25.628325	0.000707	7.069573	2.395236	0.056463
 159	7.9000e-02	6.2982	25.842079	0.000535	5.352677	1.813536	0.042751
 160	7.9500e-02	6.3319	26.108264	0.000667	6.665597	2.258366	0.053237
 161	8.0000e-02	6.3704	26.289753	0.000454	4.544726	1.539795	0.036298
 162	8.0500e-02	6.4153	26.463176	0.000434	4.342738	1.471359	0.034685
 163	8.1000e-02	6.4570	26.870519	0.001020	10.200384	3.455984	0.081469
 164	8.1500e-02	6.4859	26.939082	0.000172	1.716896	0.581700	0.013713
 165	8.2000e-02	6.5372	26.898751	-0.000101	-1.009939	-0.342177	-0.008066
 166	8.2500e-02	6.5806	27.358524	0.001151	11.513305	3.900813	0.091955
 167	8.3000e-02	6.6175	27.661007	0.000757	7.574543	2.566324	0.060496
 168	8.3500e-02	6.6560	27.798132	0.000343	3.433793	1.163400	0.027425
 169	8.4000e-02	6.6897	27.858629	0.000151	1.514909	0.513265	0.012099
 170	8.4500e-02	6.7282	28.136912	0.000697	6.968579	2.361019	0.055657
 171	8.5000e-02	6.7763	28.411163	0.000687	6.867585	2.326801	0.054850
 172	8.5500e-02	6.8068	28.645083	0.000586	5.857646	1.984624	0.046784
 173	8.6000e-02	6.8597	28.665248	0.000050	0.504970	0.171088	0.004033
 174	8.6500e-02	6.8902	29.137121	0.001182	11.816286	4.003466	0.094375
 175	8.7000e-02	6.9287	29.354908	0.000545	5.453671	1.847754	0.043557
 176	8.7500e-02	6.9736	29.306511	-0.000121	-1.211927	-0.410612	-0.009679
 177	8.8000e-02	7.0121	29.520265	0.000535	5.352677	1.813536	0.042751
 178	8.8500e-02	7.0586	29.955840	0.001091	10.907341	3.695507	0.087115
 179	8.9000e-02	7.0843	30.286554	0.000828	8.281500	2.805848	0.066143
 180	8.9500e-02	7.1260	30.403514	0.000293	2.928823	0.992312	0.023392
 181	9.0000e-02	7.1805	30.383348	-0.000050	-0.504970	-0.171088	-0.004033
 182	9.0500e-02	7.2078	30.863287	0.001202	12.018274	4.071902	0.095988
 183	9.1000e-02	7.2511	31.044776	0.000454	4.544726	1.539795	0.036298
 184	9.1500e-02	7.2944	31.310961	0.000667	6.665597	2.258366	0.053237
 185	9.2000e-02	7.3394	31.552947	0.000606	6.059634	2.053060	0.048397
 186	9.2500e-02	7.3698	31.786867	0.000586	5.857646	1.984624	0.046784
 187	9.3000e-02	7.4083	31.923992	0.000343	3.433793	1.163400	0.027425
 188	9.3500e-02	7.4517	31.980455	0.000141	1.413915	0.479047	0.011293
 189	9.4000e-02	7.5062	32.190176	0.000525	5.251683	1.779318	0.041944
 190	9.4500e-02	7.5319	32.637850	0.001121	11.210323	3.798160	0.089535
 191	9.5000e-02	7.5720	32.916134	0.000697	6.968579	2.361019	0.055657
 192	9.5500e-02	7.6169	32.867737	-0.000121	-1.211927	-0.410612	-0.009679
 193	9.6000e-02	7.6538	33.004862	0.000343	3.433793	1.163400	0.027425
 194	9.6500e-02	7.6891	33.182319	0.000444	4.443732	1.505577	0.035491
 195	9.7000e-02	7.7260	33.646125	0.001161	11.614299	3.935031	0.092761
 196	9.7500e-02	7.7709	33.920376	0.000687	6.867585	2.326801	0.054850
 197	9.8000e-02	7.8094	34.126064	0.000515	5.150689	1.745101	0.041138
 198	9.8500e-02	7.8543	34.218825	0.000232	2.322860	0.787006	0.018552
 199	9.9000e-02	7.8896	34.581804	0.000909	9.089451	3.079589	0.072596
 200	9.9500e-02	7.9410	34.815724	0.000586	5.857646	1.984624	0.046784
 201	1.0000e-01	7.9650	34.872187	0.000141	1.413915	0.479047	0.011293
 202	1.0050e-01	8.0212	35.154504	0.000707	7.069573	2.395236	0.056463
 203	1.0100e-01	8.0500	35.243232	0.000222	2.221866	0.752789	0.017746
 204	1.0150e-01	8.0982	35.654608	0.001030	10.301378	3.490201	0.082275
 205	1.0200e-01	8.1399	35.711072	0.000141	1.413915	0.479047	0.011293
 206	1.0250e-01	8.1704	36.106315	0.000990	9.897402	3.353331	0.079049
 207	1.0300e-01	8.2105	36.408798	0.000757	7.574543	2.566324	0.060496
 208	1.0350e-01	8.2506	36.481393	0.000182	1.817890	0.615918	0.014519
 209	1.0400e-01	8.2827	36.634651	0.000384	3.837768	1.300271	0.030652
 210	1.0450e-01	8.3324	36.957299	0.000808	8.079512	2.737413	0.064530
 211	1.0500e-01	8.3693	37.070226	0.000283	2.827829	0.958094	0.022585
 212	1.0550e-01	8.4094	37.332377	0.000656	6.564604	2.224148	0.052430
 213	1.0600e-01	8.4479	37.695356	0.000909	9.089451	3.079589	0.072596
 214	1.0650e-01	8.4928	37.719555	0.000061	0.605963	0.205306	0.004840
 215	1.0700e-01	8.5249	38.066401	0.000869	8.685475	2.942719	0.069369
 216	1.0750e-01	8.5730	38.251924	0.000465	4.645719	1.574012	0.037105
 217	1.0800e-01	8.6115	38.292255	0.000101	1.009939	0.342177	0.008066
 218	1.0850e-01	8.6564	38.582638	0.000727	7.271561	2.463672	0.058077
 219	1.0900e-01	8.6869	38.909319	0.000818	8.180506	2.771630	0.065336
 220	1.0950e-01	8.7367	39.090808	0.000454	4.544726	1.539795	0.036298
 221	1.1000e-01	8.7735	39.236000	0.000364	3.635780	1.231836	0.029038
 222	1.1050e-01	8.8121	39.356993	0.000303	3.029817	1.026530	0.024199
 223	1.1100e-01	8.8506	39.675608	0.000798	7.978518	2.703195	0.063723
 224	1.1150e-01	8.8858	40.139414	0.001161	11.614299	3.935031	0.092761
 225	1.1200e-01	8.9356	40.389466	0.000626	6.261622	2.121495	0.050010
 226	1.1250e-01	8.9741	40.381400	-0.000020	-0.201988	-0.068435	-0.001613
 227	1.1300e-01	9.0142	40.526591	0.000364	3.635780	1.231836	0.029038
 228	1.1350e-01	9.0527	40.869405	0.000858	8.584482	2.908501	0.068563
 229	1.1400e-01	9.0896	40.994431	0.000313	3.130811	1.060747	0.025005
 230	1.1450e-01	9.1249	41.357410	0.000909	9.089451	3.079589	0.072596
 231	1.1500e-01	9.1666	41.603429	0.000616	6.160628	2.087277	0.049204
 232	1.1550e-01	9.2131	41.788951	0.000465	4.645719	1.574012	0.037105
 233	1.1600e-01	9.2564	41.877679	0.000222	2.221866	0.752789	0.017746
 234	1.1650e-01	9.2869	42.240658	0.000909	9.089451	3.079589	0.072596
 235	1.1700e-01	9.3318	42.418115	0.000444	4.443732	1.505577	0.035491
 236	1.1750e-01	9.3623	42.563306	0.000364	3.635780	1.231836	0.029038
 237	1.1800e-01	9.4201	42.781093	0.000545	5.453671	1.847754	0.043557
 238	1.1850e-01	9.4521	42.801259	0.000050	0.504970	0.171088	0.004033
 239	1.1900e-01	9.4938	43.119874	0.000798	7.978518	2.703195	0.063723
 240	1.1950e-01	9.5340	43.377992	0.000646	6.463610	2.189930	0.051624
 241	1.2000e-01	9.5789	43.515117	0.000343	3.433793	1.163400	0.027425
 242	1.2050e-01	9.6078	43.753070	0.000596	5.958640	2.018842	0.047591
 243	1.2100e-01	9.6495	44.136215	0.000959	9.594421	3.250678	0.076629
 244	1.2150e-01	9.6912	44.777477	0.001606	16.058030	5.440608	0.128253
 245	1.2200e-01	9.7345	44.813775	0.000091	0.908945	0.307959	0.007260
 246	1.2250e-01	9.7682	44.918636	0.000263	2.625841	0.889659	0.020972
 247	1.2300e-01	9.8115	44.910569	-0.000020	-0.201988	-0.068435	-0.001613
 248	1.2350e-01	9.8436	45.051728	0.000353	3.534787	1.197618	0.028232
 249	1.2400e-01	9.8917	45.414707	0.000909	9.089451	3.079589	0.072596
 250	1.2450e-01	9.9350	45.697024	0.000707	7.069573	2.395236	0.056463
 251	1.2500e-01	9.9767	45.797851	0.000252	2.524848	0.855441	0.020165
 252	1.2550e-01	10.0072	46.104367	0.000768	7.675536	2.600542	0.061303
 253	1.2600e-01	10.0489	46.402816	0.000747	7.473549	2.532107	0.059690
 254	1.2650e-01	10.0986	46.366518	-0.000091	-0.908945	-0.307959	-0.007260
 255	1.2700e-01	10.1339	46.471379	0.000263	2.625841	0.889659	0.020972
 256	1.2750e-01	10.1628	46.963417	0.001232	12.321256	4.174555	0.098408
 257	1.2800e-01	10.2190	47.209436	0.000616	6.160628	2.087277	0.049204
 258	1.2850e-01	10.2559	47.350594	0.000353	3.534787	1.197618	0.028232
 259	1.2900e-01	10.2912	47.515951	0.000414	4.140750	1.402924	0.033071
 260	1.2950e-01	10.3313	47.798268	0.000707	7.069573	2.395236	0.056463
 261	1.3000e-01	10.3698	48.048320	0.000626	6.261622	2.121495	0.050010
 262	1.3050e-01	10.4083	48.379034	0.000828	8.281500	2.805848	0.066143
 263	1.3100e-01	10.4500	48.556491	0.000444	4.443732	1.505577	0.035491
 264	1.3150e-01	10.4901	48.891238	0.000838	8.382494	2.840066	0.066949
 265	1.3200e-01	10.5302	49.221952	0.000828	8.281500	2.805848	0.066143
 266	1.3250e-01	10.5735	49.100959	-0.000303	-3.029817	-1.026530	-0.024199
 267	1.3300e-01	10.6136	49.338912	0.000596	5.958640	2.018842	0.047591
 268	1.3350e-01	10.6441	49.609129	0.000677	6.766591	2.292583	0.054044
 269	1.3400e-01	10.6906	49.754321	0.000364	3.635780	1.231836	0.029038
 270	1.3450e-01	10.7371	49.802718	0.000121	1.211927	0.410612	0.009679
 271	1.3500e-01	10.7708	50.076969	0.000687	6.867585	2.326801	0.054850
 272	1.3550e-01	10.8206	50.359286	0.000707	7.069573	2.395236	0.056463
 273	1.3600e-01	10.8526	50.560941	0.000505	5.049695	1.710883	0.040331
 274	1.3650e-01	10.8911	50.730331	0.000424	4.241744	1.437142	0.033878
 275	1.3700e-01	10.9393	51.186071	0.001141	11.412311	3.866596	0.091148
 276	1.3750e-01	10.9697	51.347395	0.000404	4.039756	1.368706	0.032265
 277	1.3800e-01	11.0163	51.488553	0.000353	3.534787	1.197618	0.028232
 278	1.3850e-01	11.0660	51.645844	0.000394	3.938762	1.334489	0.031458
 279	1.3900e-01	11.0949	51.742639	0.000242	2.423854	0.821224	0.019359
 280	1.3950e-01	11.1350	51.976558	0.000586	5.857646	1.984624	0.046784
 281	1.4000e-01	11.1703	52.234677	0.000646	6.463610	2.189930	0.051624
 282	1.4050e-01	11.2184	52.658152	0.001060	10.604360	3.592854	0.084695
 283	1.4100e-01	11.2505	52.686384	0.000071	0.706957	0.239524	0.005646
 284	1.4150e-01	11.2874	52.823509	0.000343	3.433793	1.163400	0.027425
 285	1.4200e-01	11.3387	53.267150	0.001111	11.109329	3.763943	0.088728
 286	1.4250e-01	11.3692	53.351845	0.000212	2.120872	0.718571	0.016939
 287	1.4300e-01	11.4125	53.622062	0.000677	6.766591	2.292583	0.054044
 288	1.4350e-01	11.4510	54.045538	0.001060	10.604360	3.592854	0.084695
 289	1.4400e-01	11.4927	54.138299	0.000232	2.322860	0.787006	0.018552
 290	1.4450e-01	11.5360	54.122167	-0.000040	-0.403976	-0.136871	-0.003226
 291	1.4500e-01	11.5665	54.464980	0.000858	8.584482	2.908501	0.068563
 292	1.4550e-01	11.6130	54.569841	0.000263	2.625841	0.889659	0.020972
 293	1.4600e-01	11.6483	54.831992	0.000656	6.564604	2.224148	0.052430
 294	1.4650e-01	11.7013	55.150607	0.000798	7.978518	2.703195	0.063723
 295	1.4700e-01	11.7350	55.174805	0.000061	0.605963	0.205306	0.004840
 296	1.4750e-01	11.7687	55.549884	0.000939	9.392433	3.182242	0.075016
 297	1.4800e-01	11.8152	55.703141	0.000384	3.837768	1.300271	0.030652
 298	1.4850e-01	11.8473	56.058054	0.000889	8.887463	3.011154	0.070983
 299	1.4900e-01	11.8906	56.437165	0.000949	9.493427	3.216460	0.075822
 300	1.4950e-01	11.9403	56.408934	-0.000071	-0.706957	-0.239524	-0.005646
 301	1.5000e-01	11.9836	56.493629	0.000212	2.120872	0.718571	0.016939
 302	1.5050e-01	12.0157	56.747714	0.000636	6.362616	2.155713	0.050817
 303	1.5100e-01	12.0526	57.098593	0.000879	8.786469	2.976936	0.070176
 304	1.5150e-01	12.0959	57.433341	0.000838	8.382494	2.840066	0.066949
 305	1.5200e-01	12.1376	57.518036	0.000212	2.120872	0.718571	0.016939
 306	1.5250e-01	12.1777	57.655161	0.000343	3.433793	1.163400	0.027425
 307	1.5300e-01	12.2098	58.026206	0.000929	9.291439	3.148025	0.074209
 308	1.5350e-01	12.2595	58.094769	0.000172	1.716896	0.581700	0.013713
 309	1.5400e-01	12.2836	58.498079	0.001010	10.099390	3.421766	0.080662
 310	1.5450e-01	12.3269	58.651336	0.000384	3.837768	1.300271	0.030652
 311	1.5500e-01	12.3686	58.740065	0.000222	2.221866	0.752789	0.017746
 312	1.5550e-01	12.4136	59.002216	0.000656	6.564604	2.224148	0.052430
 313	1.5600e-01	12.4488	59.280500	0.000697	6.968579	2.361019	0.055657
 314	1.5650e-01	12.4938	59.526519	0.000616	6.160628	2.087277	0.049204
 315	1.5700e-01	12.5291	59.542651	0.000040	0.403976	0.136871	0.003226
 316	1.5750e-01	12.5836	59.873365	0.000828	8.281500	2.805848	0.066143
 317	1.5800e-01	12.6109	60.111318	0.000596	5.958640	2.018842	0.047591
 318	1.5850e-01	12.6542	60.417834	0.000768	7.675536	2.600542	0.061303
 319	1.5900e-01	12.6911	60.514628	0.000242	2.423854	0.821224	0.019359
 320	1.5950e-01	12.7392	60.800978	0.000717	7.170567	2.429454	0.057270
 321	1.6000e-01	12.7697	61.240586	0.001101	11.008335	3.729725	0.087922
 322	1.6050e-01	12.8002	61.405943	0.000414	4.140750	1.402924	0.033071
 323	1.6100e-01	12.8515	61.474505	0.000172	1.716896	0.581700	0.013713
 324	1.6150e-01	12.8932	61.902014	0.001071	10.705353	3.627072	0.085502
 325	1.6200e-01	12.9365	61.833451	-0.000172	-1.716896	-0.581700	-0.013713
 326	1.6250e-01	12.9718	61.764889	-0.000172	-1.716896	-0.581700	-0.013713
 327	1.6300e-01	13.0007	62.176265	0.001030	10.301378	3.490201	0.082275
 328	1.6350e-01	13.0504	62.369853	0.000485	4.847707	1.642448	0.038718
 329	1.6400e-01	13.0970	62.402118	0.000081	0.807951	0.273741	0.006453
 330	1.6450e-01	13.1178	62.716700	0.000788	7.877524	2.668977	0.062916
 331	1.6500e-01	13.1691	62.950620	0.000586	5.857646	1.984624	0.046784
 332	1.6550e-01	13.2093	63.083712	0.000333	3.332799	1.129183	0.026618
 333	1.6600e-01	13.2397	63.317632	0.000586	5.857646	1.984624	0.046784
 334	1.6650e-01	13.2847	63.442658	0.000313	3.130811	1.060747	0.025005
 335	1.6700e-01	13.3296	63.870166	0.001071	10.705353	3.627072	0.085502
 336	1.6750e-01	13.3649	64.051655	0.000454	4.544726	1.539795	0.036298
 337	1.6800e-01	13.4162	64.325906	0.000687	6.867585	2.326801	0.054850
 338	1.6850e-01	13.4515	64.442866	0.000293	2.928823	0.992312	0.023392
 339	1.6900e-01	13.4868	64.499329	0.000141	1.413915	0.479047	0.011293
 340	1.6950e-01	13.5349	64.749382	0.000626	6.261622	2.121495	0.050010
 341	1.7000e-01	13.5686	65.285784	0.001343	13.432189	4.550949	0.107280
 342	1.7050e-01	13.6135	65.305949	0.000050	0.504970	0.171088	0.004033
 343	1.7100e-01	13.6504	65.604398	0.000747	7.473549	2.532107	0.059690
 344	1.7150e-01	13.6857	65.923013	0.000798	7.978518	2.703195	0.063723
 345	1.7200e-01	13.7322	66.092403	0.000424	4.241744	1.437142	0.033878
 346	1.7250e-01	13.7772	66.330356	0.000596	5.958640	2.018842	0.047591
 347	1.7300e-01	13.8108	66.338422	0.000020	0.201988	0.068435	0.001613
 348	1.7350e-01	13.8509	66.532011	0.000485	4.847707	1.642448	0.038718
 349	1.7400e-01	13.8878	66.931288	0.001000	9.998396	3.387548	0.079855
 350	1.7450e-01	13.9360	67.177307	0.000616	6.160628	2.087277	0.049204
 351	1.7500e-01	13.9665	67.374929	0.000495	4.948701	1.676665	0.039524
 352	1.7550e-01	14.0162	67.661279	0.000717	7.170567	2.429454	0.057270
 353	1.7600e-01	14.0483	67.717742	0.000141	1.413915	0.479047	0.011293
 354	1.7650e-01	14.0948	67.887132	0.000424	4.241744	1.437142	0.033878
 355	1.7700e-01	14.1269	68.169449	0.000707	7.069573	2.395236	0.056463
 356	1.7750e-01	14.1702	68.229946	0.000151	1.514909	0.513265	0.012099
 357	1.7800e-01	14.1943	68.556627	0.000818	8.180506	2.771630	0.065336
 358	1.7850e-01	14.2472	68.762315	0.000515	5.150689	1.745101	0.041138
 359	1.7900e-01	14.2953	68.968003	0.000515	5.150689	1.745101	0.041138
 360	1.7950e-01	14.3306	69.165624	0.000495	4.948701	1.676665	0.039524
 361	1.8000e-01	14.3627	69.601199	0.001091	10.907341	3.695507	0.087115
 362	1.8050e-01	14.4044	69.609265	0.000020	0.201988	0.068435	0.001613
 363	1.8100e-01	14.4541	69.851251	0.000606	6.059634	2.053060	0.048397
 364	1.8150e-01	14.4878	69.935946	0.000212	2.120872	0.718571	0.016939
 365	1.8200e-01	14.5327	70.254561	0.000798	7.978518	2.703195	0.063723
 366	1.8250e-01	14.5729	70.254561	0.000000	0.000000	0.000000	0.000000
 367	1.8300e-01	14.6081	70.484448	0.000576	5.756652	1.950407	0.045977
 368	1.8350e-01	14.6531	70.674003	0.000475	4.746713	1.608230	0.037911
 369	1.8400e-01	14.6851	71.073280	0.001000	9.998396	3.387548	0.079855
 370	1.8450e-01	14.7349	71.460458	0.000970	9.695414	3.284895	0.077435
 371	1.8500e-01	14.7622	71.658079	0.000495	4.948701	1.676665	0.039524
 372	1.8550e-01	14.8087	71.730675	0.000182	1.817890	0.615918	0.014519
 373	1.8600e-01	14.8488	71.875867	0.000364	3.635780	1.231836	0.029038
 374	1.8650e-01	14.8857	72.259011	0.000959	9.594421	3.250678	0.076629
 375	1.8700e-01	14.9258	72.416302	0.000394	3.938762	1.334489	0.031458
 376	1.8750e-01	14.9803	72.630056	0.000535	5.352677	1.813536	0.042751
 377	1.8800e-01	15.0028	72.759115	0.000323	3.231805	1.094965	0.025812
 378	1.8850e-01	15.0589	72.839777	0.000202	2.019878	0.684353	0.016132
 379	1.8900e-01	15.0910	73.013201	0.000434	4.342738	1.471359	0.034685
 380	1.8950e-01	15.1247	73.323749	0.000778	7.776530	2.634760	0.062110
 381	1.9000e-01	15.1584	73.618165	0.000737	7.372555	2.497889	0.058883
 382	1.9050e-01	15.2178	73.666563	0.000121	1.211927	0.410612	0.009679
 383	1.9100e-01	15.2450	74.086005	0.001050	10.503366	3.558637	0.083888
 384	1.9150e-01	15.2835	74.086005	0.000000	0.000000	0.000000	0.000000
 385	1.9200e-01	15.3252	74.565944	0.001202	12.018274	4.071902	0.095988
 386	1.9250e-01	15.3782	74.618374	0.000131	1.312921	0.444830	0.010486
 387	1.9300e-01	15.4071	74.646605	0.000071	0.706957	0.239524	0.005646
 388	1.9350e-01	15.4520	74.920856	0.000687	6.867585	2.326801	0.054850
 389	1.9400e-01	15.4937	75.187041	0.000667	6.665597	2.258366	0.053237
 390	1.9450e-01	15.5322	75.328199	0.000353	3.534787	1.197618	0.028232
 391	1.9500e-01	15.5691	75.424994	0.000242	2.423854	0.821224	0.019359
 392	1.9550e-01	15.6076	75.779906	0.000889	8.887463	3.011154	0.070983
 393	1.9600e-01	15.6461	76.070289	0.000727	7.271561	2.463672	0.058077
 394	1.9650e-01	15.6846	76.199348	0.000323	3.231805	1.094965	0.025812
 395	1.9700e-01	15.7279	76.465533	0.000667	6.665597	2.258366	0.053237
 396	1.9750e-01	15.7728	76.820446	0.000889	8.887463	3.011154	0.070983
 397	1.9800e-01	15.8145	76.905141	0.000212	2.120872	0.718571	0.016939
 398	1.9850e-01	15.8418	76.965637	0.000151	1.514909	0.513265	0.012099
 399	1.9900e-01	15.8915	77.268120	0.000757	7.574543	2.566324	0.060496
 400	1.9950e-01	15.9364	77.409278	0.000353	3.534787	1.197618	0.028232
 401	2.0000e-01	15.9701	77.703694	0.000737	7.372555	2.497889	0.058883
 402	2.0050e-01	16.0086	77.812588	0.000273	2.726835	0.923877	0.021779
 403	2.0100e-01	16.0568	78.171534	0.000899	8.988457	3.045372	0.071789
 404	2.0150e-01	16.0824	78.361089	0.000475	4.746713	1.608230	0.037911
 405	2.0200e-01	16.1290	78.667605	0.000768	7.675536	2.600542	0.061303
 406	2.0250e-01	16.1755	78.655505	-0.000030	-0.302982	-0.102653	-0.002420
 407	2.0300e-01	16.2076	78.764399	0.000273	2.726835	0.923877	0.021779
 408	2.0350e-01	16.2525	79.111246	0.000869	8.685475	2.942719	0.069369
 409	2.0400e-01	16.2926	79.341132	0.000576	5.756652	1.950407	0.045977
 410	2.0450e-01	16.3311	79.522622	0.000454	4.544726	1.539795	0.036298
 411	2.0500e-01	16.3696	79.792839	0.000677	6.766591	2.292583	0.054044
 412	2.0550e-01	16.4129	79.978362	0.000465	4.645719	1.574012	0.037105
 413	2.0600e-01	16.4418	80.159851	0.000454	4.544726	1.539795	0.036298
 414	2.0650e-01	16.4915	80.409903	0.000626	6.261622	2.121495	0.050010
 415	2.0700e-01	16.5316	80.623658	0.000535	5.352677	1.813536	0.042751
 416	2.0750e-01	16.5749	80.672055	0.000121	1.211927	0.410612	0.009679
 417	2.0800e-01	16.6006	80.910008	0.000596	5.958640	2.018842	0.047591
 418	2.0850e-01	16.6471	80.962438	0.000131	1.312921	0.444830	0.010486
 419	2.0900e-01	16.6872	81.240722	0.000697	6.968579	2.361019	0.055657
 420	2.0950e-01	16.7273	81.684363	0.001111	11.109329	3.763943	0.088728
 421	2.1000e-01	16.7674	81.809389	0.000313	3.130811	1.060747	0.025005
 422	2.1050e-01	16.8027	81.942481	0.000333	3.332799	1.129183	0.026618
 423	2.1100e-01	16.8493	82.212698	0.000677	6.766591	2.292583	0.054044
 424	2.1150e-01	16.8894	82.353857	0.000353	3.534787	1.197618	0.028232
 425	2.1200e-01	16.9311	82.632141	0.000697	6.968579	2.361019	0.055657
 426	2.1250e-01	16.9744	82.777332	0.000364	3.635780	1.231836	0.029038
 427	2.1300e-01	17.0033	82.882193	0.000263	2.625841	0.889659	0.020972
 428	2.1350e-01	17.0530	83.233072	0.000879	8.786469	2.976936	0.070176
 429	2.1400e-01	17.0899	83.354065	0.000303	3.029817	1.026530	0.024199
 430	2.1450e-01	17.1236	83.592018	0.000596	5.958640	2.018842	0.047591
 431	2.1500e-01	17.1637	83.652515	0.000151	1.514909	0.513265	0.012099
 432	2.1550e-01	17.2134	84.039692	0.000970	9.695414	3.284895	0.077435
 433	2.1600e-01	17.2439	84.281678	0.000606	6.059634	2.053060	0.048397
 434	2.1650e-01	17.2856	84.543829	0.000656	6.564604	2.224148	0.052430
 435	2.1700e-01	17.3289	84.584160	0.000101	1.009939	0.342177	0.008066
 436	2.1750e-01	17.3626	84.749517	0.000414	4.140750	1.402924	0.033071
 437	2.1800e-01	17.4075	84.947139	0.000495	4.948701	1.676665	0.039524
 438	2.1850e-01	17.4492	85.201225	0.000636	6.362616	2.155713	0.050817
 439	2.1900e-01	17.4861	85.455310	0.000636	6.362616	2.155713	0.050817
 440	2.1950e-01	17.5214	85.733594	0.000697	6.968579	2.361019	0.055657
 441	2.2000e-01	17.5680	85.999778	0.000667	6.665597	2.258366	0.053237
 442	2.2050e-01	17.6177	86.124804	0.000313	3.130811	1.060747	0.025005
 443	2.2100e-01	17.6546	86.104639	-0.000050	-0.504970	-0.171088	-0.004033
 444	2.2150e-01	17.6947	86.213532	0.000273	2.726835	0.923877	0.021779
 445	2.2200e-01	17.7268	86.762034	0.001374	13.735170	4.653602	0.109700
 446	2.2250e-01	17.7717	86.931424	0.000424	4.241744	1.437142	0.033878
 447	2.2300e-01	17.8118	87.217774	0.000717	7.170567	2.429454	0.057270
 448	2.2350e-01	17.8535	87.391197	0.000434	4.342738	1.471359	0.034685
 449	2.2400e-01	17.8968	87.346833	-0.000111	-1.110933	-0.376394	-0.008873
 450	2.2450e-01	17.9289	87.548488	0.000505	5.049695	1.710883	0.040331
 451	2.2500e-01	17.9706	87.887268	0.000848	8.483488	2.874283	0.067756
 452	2.2550e-01	18.0027	88.197817	0.000778	7.776530	2.634760	0.062110
 453	2.2600e-01	18.0524	88.302677	0.000263	2.625841	0.889659	0.020972
 454	2.2650e-01	18.1038	88.455935	0.000384	3.837768	1.300271	0.030652
 455	2.2700e-01	18.1326	88.705987	0.000626	6.261622	2.121495	0.050010
 456	2.2750e-01	18.1760	88.826980	0.000303	3.029817	1.026530	0.024199
 457	2.2800e-01	18.2113	89.016536	0.000475	4.746713	1.608230	0.037911
 458	2.2850e-01	18.2449	89.480342	0.001161	11.614299	3.935031	0.092761
 459	2.2900e-01	18.2883	89.641666	0.000404	4.039756	1.368706	0.032265
 460	2.2950e-01	18.3380	89.802990	0.000404	4.039756	1.368706	0.032265
 461	2.3000e-01	18.3717	89.976413	0.000434	4.342738	1.471359	0.034685
 462	2.3050e-01	18.4086	90.061108	0.000212	2.120872	0.718571	0.016939
 463	2.3100e-01	18.4439	90.363591	0.000757	7.574543	2.566324	0.060496
 464	2.3150e-01	18.4824	90.698338	0.000838	8.382494	2.840066	0.066949
 465	2.3200e-01	18.5289	90.787066	0.000222	2.221866	0.752789	0.017746
 466	2.3250e-01	18.5722	90.936291	0.000374	3.736774	1.266053	0.029845
 467	2.3300e-01	18.6107	91.178277	0.000606	6.059634	2.053060	0.048397
 468	2.3350e-01	18.6524	91.218608	0.000101	1.009939	0.342177	0.008066
 469	2.3400e-01	18.6909	91.674348	0.001141	11.412311	3.866596	0.091148
 470	2.3450e-01	18.7390	91.763076	0.000222	2.221866	0.752789	0.017746
 471	2.3500e-01	18.7791	91.698546	-0.000162	-1.615902	-0.547483	-0.012906
 472	2.3550e-01	18.8080	92.057492	0.000899	8.988457	3.045372	0.071789
 473	2.3600e-01	18.8481	91.968764	-0.000222	-2.221866	-0.752789	-0.017746
 474	2.3650e-01	18.8914	92.642291	0.001687	16.865981	5.714349	0.134705
 475	2.3700e-01	18.9316	92.686656	0.000111	1.110933	0.376394	0.008873
 476	2.3750e-01	18.9733	92.815715	0.000323	3.231805	1.094965	0.025812
 477	2.3800e-01	19.0021	93.214991	0.001000	9.998396	3.387548	0.079855
 478	2.3850e-01	19.0535	93.493275	0.000697	6.968579	2.361019	0.055657
 479	2.3900e-01	19.1032	93.557805	0.000162	1.615902	0.547483	0.012906
 480	2.3950e-01	19.1289	93.694930	0.000343	3.433793	1.163400	0.027425
 481	2.4000e-01	19.1722	93.908684	0.000535	5.352677	1.813536	0.042751
 482	2.4050e-01	19.2187	94.263597	0.000889	8.887463	3.011154	0.070983
 483	2.4100e-01	19.2604	94.344259	0.000202	2.019878	0.684353	0.016132
 484	2.4150e-01	19.2957	94.646741	0.000757	7.574543	2.566324	0.060496
 485	2.4200e-01	19.3406	94.783867	0.000343	3.433793	1.163400	0.027425
 486	2.4250e-01	19.3711	95.324302	0.001353	13.533183	4.585166	0.108087
 487	2.4300e-01	19.4160	95.162978	-0.000404	-4.039756	-1.368706	-0.032265
 488	2.4350e-01	19.4545	95.465460	0.000757	7.574543	2.566324	0.060496
 489	2.4400e-01	19.4882	95.707446	0.000606	6.059634	2.053060	0.048397
 490	2.4450e-01	19.5299	95.703413	-0.000010	-0.100994	-0.034218	-0.000807
 491	2.4500e-01	19.5732	96.017995	0.000788	7.877524	2.668977	0.062916
 492	2.4550e-01	19.6166	96.102690	0.000212	2.120872	0.718571	0.016939
 493	2.4600e-01	19.6567	96.227716	0.000313	3.130811	1.060747	0.025005
 494	2.4650e-01	19.6855	96.481801	0.000636	6.362616	2.155713	0.050817
 495	2.4700e-01	19.7353	96.566496	0.000212	2.120872	0.718571	0.016939
 496	2.4750e-01	19.7706	96.808482	0.000606	6.059634	2.053060	0.048397
 497	2.4800e-01	19.8091	97.010137	0.000505	5.049695	1.710883	0.040331
 498	2.4850e-01	19.8540	97.123064	0.000283	2.827829	0.958094	0.022585
 499	2.4900e-01	19.8861	97.385215	0.000656	6.564604	2.224148	0.052430
 500	2.4950e-01	19.9310	97.647367	0.000656	6.564604	2.224148	0.052430
 501	2.5000e-01	19.9743	97.748194	0.000252	2.524848	0.855441	0.020165
 502	2.5050e-01	19.9743	97.913551	-0.000414	-4.140750	-1.402924	0.033071
 503	2.5100e-01	19.9567	97.792558	0.000303	3.029817	1.026530	-0.024199
 504	2.5150e-01	19.9198	97.586870	0.000515	5.150689	1.745101	-0.041138
 505	2.5200e-01	19.8861	97.421513	0.000414	4.140750	1.402924	-0.033071
 506	2.5250e-01	19.8363	97.449745	-0.000071	-0.706957	-0.239524	0.005646
 507	2.5300e-01	19.7978	97.082733	0.000919	9.190445	3.113807	-0.073402
 508	2.5350e-01	19.7545	97.022237	0.000151	1.514909	0.513265	-0.012099
 509	2.5400e-01	19.7240	96.965773	0.000141	1.413915	0.479047	-0.011293
 510	2.5450e-01	19.6743	96.659258	0.000768	7.675536	2.600542	-0.061303
 511	2.5500e-01	19.6422	96.655225	0.000010	0.100994	0.034218	-0.000807
 512	2.5550e-01	19.5973	96.723787	-0.000172	-1.716896	-0.581700	0.013713
 513	2.5600e-01	19.5572	96.272080	0.001131	11.311317	3.832378	-0.090341
 514	2.5650e-01	19.5219	96.005896	0.000667	6.665597	2.258366	-0.053237
 515	2.5700e-01	19.4706	95.945399	0.000151	1.514909	0.513265	-0.012099
 516	2.5750e-01	19.4369	95.872803	0.000182	1.817890	0.615918	-0.014519
 517	2.5800e-01	19.3968	95.384798	0.001222	12.220262	4.140337	-0.097601
 518	2.5850e-01	19.3599	95.449328	-0.000162	-1.615902	-0.547483	0.012906
 519	2.5900e-01	19.3134	95.376732	0.000182	1.817890	0.615918	-0.014519
 520	2.5950e-01	19.2781	95.473527	-0.000242	-2.423854	-0.821224	0.019359
 521	2.6000e-01	19.2412	95.090382	0.000959	9.594421	3.250678	-0.076629
 522	2.6050e-01	19.1818	94.727403	0.000909	9.089451	3.079589	-0.072596
 523	2.6100e-01	19.1610	94.670940	0.000141	1.413915	0.479047	-0.011293
 524	2.6150e-01	19.1176	94.501550	0.000424	4.241744	1.437142	-0.033878
 525	2.6200e-01	19.0695	94.380557	0.000303	3.029817	1.026530	-0.024199
 526	2.6250e-01	19.0390	94.364425	0.000040	0.403976	0.136871	-0.003226
 527	2.6300e-01	18.9973	94.017578	0.000869	8.685475	2.942719	-0.069369
 528	2.6350e-01	18.9556	93.916751	0.000252	2.524848	0.855441	-0.020165
 529	2.6400e-01	18.9171	93.775592	0.000353	3.534787	1.197618	-0.028232
 530	2.6450e-01	18.8786	93.541672	0.000586	5.857646	1.984624	-0.046784
 531	2.6500e-01	18.8369	93.408580	0.000333	3.332799	1.129183	-0.026618
 532	2.6550e-01	18.8016	93.170627	0.000596	5.958640	2.018842	-0.047591
 533	2.6600e-01	18.7535	92.944774	0.000566	5.655658	1.916189	-0.045171
 534	2.6650e-01	18.7166	92.880244	0.000162	1.615902	0.547483	-0.012906
 535	2.6700e-01	18.6829	92.597927	0.000707	7.069573	2.395236	-0.056463
 536	2.6750e-01	18.6364	92.537431	0.000151	1.514909	0.513265	-0.012099
 537	2.6800e-01	18.6011	92.166386	0.000929	9.291439	3.148025	-0.074209
 538	2.6850e-01	18.5546	92.073625	0.000232	2.322860	0.787006	-0.018552
 539	2.6900e-01	18.5145	91.884069	0.000475	4.746713	1.608230	-0.037911
 540	2.6950e-01	18.4743	91.984896	-0.000252	-2.524848	-0.855441	0.020165
 541	2.7000e-01	18.4374	91.613851	0.000929	9.291439	3.148025	-0.074209
 542	2.7050e-01	18.3941	91.593686	0.000050	0.504970	0.171088	-0.004033
 543	2.7100e-01	18.3572	91.400097	0.000485	4.847707	1.642448	-0.038718
 544	2.7150e-01	18.3107	91.218608	0.000454	4.544726	1.539795	-0.036298
 545	2.7200e-01	18.2754	90.968556	0.000626	6.261622	2.121495	-0.050010
 546	2.7250e-01	18.2401	90.891927	0.000192	1.918884	0.650136	-0.015326
 547	2.7300e-01	18.1936	90.799165	0.000232	2.322860	0.787006	-0.018552
 548	2.7350e-01	18.1615	90.432153	0.000919	9.190445	3.113807	-0.073402
 549	2.7400e-01	18.1182	90.242598	0.000475	4.746713	1.608230	-0.037911
 550	2.7450e-01	18.0781	89.996579	0.000616	6.160628	2.087277	-0.049204
 551	2.7500e-01	18.0412	89.863487	0.000333	3.332799	1.129183	-0.026618
 552	2.7550e-01	17.9963	89.665865	0.000495	4.948701	1.676665	-0.039524
 553	2.7600e-01	17.9530	89.520673	0.000364	3.635780	1.231836	-0.029038
 554	2.7650e-01	17.9129	89.266588	0.000636	6.362616	2.155713	-0.050817
 555	2.7700e-01	17.8760	89.145595	0.000303	3.029817	1.026530	-0.024199
 556	2.7750e-01	17.8359	89.105264	0.000101	1.009939	0.342177	-0.008066
 557	2.7800e-01	17.7974	88.927808	0.000444	4.443732	1.505577	-0.035491
 558	2.7850e-01	17.7556	88.758417	0.000424	4.241744	1.437142	-0.033878
 559	2.7900e-01	17.7188	88.568862	0.000475	4.746713	1.608230	-0.037911
 560	2.7950e-01	17.6786	88.403505	0.000414	4.140750	1.402924	-0.033071
 561	2.8000e-01	17.6353	88.197817	0.000515	5.150689	1.745101	-0.041138
 562	2.8050e-01	17.5968	88.092956	0.000263	2.625841	0.889659	-0.020972
 563	2.8100e-01	17.5567	87.794507	0.000747	7.473549	2.532107	-0.059690
 564	2.8150e-01	17.5246	87.746110	0.000121	1.211927	0.410612	-0.009679
 565	2.8200e-01	17.4765	87.548488	0.000495	4.948701	1.676665	-0.039524
 566	2.8250e-01	17.4348	87.326667	0.000555	5.554665	1.881971	-0.044364
 567	2.8300e-01	17.3995	87.100814	0.000566	5.655658	1.916189	-0.045171
 568	2.8350e-01	17.3626	86.935457	0.000414	4.140750	1.402924	-0.033071
 569	2.8400e-01	17.3145	86.766067	0.000424	4.241744	1.437142	-0.033878
 570	2.8450e-01	17.2728	86.806398	-0.000101	-1.009939	-0.342177	0.008066
 571	2.8500e-01	17.2246	86.278062	0.001323	13.230201	4.482513	-0.105667
 572	2.8550e-01	17.1958	86.249830	0.000071	0.706957	0.239524	-0.005646
 573	2.8600e-01	17.1605	85.943315	0.000768	7.675536	2.600542	-0.061303
 574	2.8650e-01	17.1156	85.911050	0.000081	0.807951	0.273741	-0.006453
 575	2.8700e-01	17.0867	85.612601	0.000747	7.473549	2.532107	-0.059690
 576	2.8750e-01	17.0321	85.612601	-0.000000	-0.000000	-0.000000	0.000000
 577	2.8800e-01	16.9968	85.370615	0.000606	6.059634	2.053060	-0.048397
 578	2.8850e-01	16.9519	85.019735	0.000879	8.786469	2.976936	-0.070176
 579	2.8900e-01	16.9214	84.955206	0.000162	1.615902	0.547483	-0.012906
 580	2.8950e-01	16.8749	84.846312	0.000273	2.726835	0.923877	-0.021779
 581	2.9000e-01	16.8332	84.543829	0.000757	7.574543	2.566324	-0.060496
 582	2.9050e-01	16.7995	84.592227	-0.000121	-1.211927	-0.410612	0.009679
 583	2.9100e-01	16.7562	84.249413	0.000858	8.584482	2.908501	-0.068563
 584	2.9150e-01	16.7145	84.011460	0.000596	5.958640	2.018842	-0.047591
 585	2.9200e-01	16.6664	84.031626	-0.000050	-0.504970	-0.171088	0.004033
 586	2.9250e-01	16.6391	83.922732	0.000273	2.726835	0.923877	-0.021779
 587	2.9300e-01	16.6006	83.624283	0.000747	7.473549	2.532107	-0.059690
 588	2.9350e-01	16.5541	83.571853	0.000131	1.312921	0.444830	-0.010486
 589	2.9400e-01	16.5220	83.160477	0.001030	10.301378	3.490201	-0.082275
 590	2.9450e-01	16.4851	83.095947	0.000162	1.615902	0.547483	-0.012906
 591	2.9500e-01	16.4354	82.765233	0.000828	8.281500	2.805848	-0.066143
 592	2.9550e-01	16.3937	82.652306	0.000283	2.827829	0.958094	-0.022585
 593	2.9600e-01	16.3632	82.499048	0.000384	3.837768	1.300271	-0.030652
 594	2.9650e-01	16.3102	82.176401	0.000808	8.079512	2.737413	-0.064530
 595	2.9700e-01	16.2798	82.257063	-0.000202	-2.019878	-0.684353	0.016132
 596	2.9750e-01	16.2252	82.083639	0.000434	4.342738	1.471359	-0.034685
 597	2.9800e-01	16.1931	81.886017	0.000495	4.948701	1.676665	-0.039524
 598	2.9850e-01	16.1626	81.470608	0.001040	10.402372	3.524419	-0.083082
 599	2.9900e-01	16.1241	81.107629	0.000909	9.089451	3.079589	-0.072596
 600	2.9950e-01	16.0712	81.156027	-0.000121	-1.211927	-0.410612	0.009679
 601	3.0000e-01	16.0391	80.672055	0.001212	12.119268	4.106119	-0.096794
 602	3.0050e-01	16.0006	80.595426	0.000192	1.918884	0.650136	-0.015326
 603	3.0100e-01	15.9477	80.603492	-0.000020	-0.201988	-0.068435	0.001613
 604	3.0150e-01	15.9236	80.514764	0.000222	2.221866	0.752789	-0.017746
 605	3.0200e-01	15.8707	80.095322	0.001050	10.503366	3.558637	-0.083888
 606	3.0250e-01	15.8370	80.224381	-0.000323	-3.231805	-1.094965	0.025812
 607	3.0300e-01	15.7905	79.974329	0.000626	6.261622	2.121495	-0.050010
 608	3.0350e-01	15.7536	79.728310	0.000616	6.160628	2.087277	-0.049204
 609	3.0400e-01	15.7199	79.619416	0.000273	2.726835	0.923877	-0.021779
 610	3.0450e-01	15.6766	79.377430	0.000606	6.059634	2.053060	-0.048397
 611	3.0500e-01	15.6445	79.139477	0.000596	5.958640	2.018842	-0.047591
 612	3.0550e-01	15.5996	78.760366	0.000949	9.493427	3.216460	-0.075822
 613	3.0600e-01	15.5595	78.691803	0.000172	1.716896	0.581700	-0.013713
 614	3.0650e-01	15.5129	78.518380	0.000434	4.342738	1.471359	-0.034685
 615	3.0700e-01	15.4808	78.401420	0.000293	2.928823	0.992312	-0.023392
 616	3.0750e-01	15.4391	78.264295	0.000343	3.433793	1.163400	-0.027425
 617	3.0800e-01	15.4054	78.034408	0.000576	5.756652	1.950407	-0.045977
 618	3.0850e-01	15.3541	77.739992	0.000737	7.372555	2.497889	-0.058883
 619	3.0900e-01	15.3156	77.485907	0.000636	6.362616	2.155713	-0.050817
 620	3.0950e-01	15.2819	77.542370	-0.000141	-1.413915	-0.479047	0.011293
 621	3.1000e-01	15.2466	77.219722	0.000808	8.079512	2.737413	-0.064530
 622	3.1050e-01	15.1921	77.018067	0.000505	5.049695	1.710883	-0.040331
 623	3.1100e-01	15.1632	76.739784	0.000697	6.968579	2.361019	-0.055657
 624	3.1150e-01	15.1167	76.606691	0.000333	3.332799	1.129183	-0.026618
 625	3.1200e-01	15.0782	76.372772	0.000586	5.857646	1.984624	-0.046784
 626	3.1250e-01	15.0285	76.324374	0.000121	1.211927	0.410612	-0.009679
 627	3.1300e-01	14.9948	76.255812	0.000172	1.716896	0.581700	-0.013713
 628	3.1350e-01	14.9579	75.852502	0.001010	10.099390	3.421766	-0.080662
 629	3.1400e-01	14.9162	75.888800	-0.000091	-0.908945	-0.307959	0.007260
 630	3.1450e-01	14.8793	75.646814	0.000606	6.059634	2.053060	-0.048397
 631	3.1500e-01	14.8375	75.408861	0.000596	5.958640	2.018842	-0.047591
 632	3.1550e-01	14.7974	75.166875	0.000606	6.059634	2.053060	-0.048397
 633	3.1600e-01	14.7541	75.001518	0.000414	4.140750	1.402924	-0.033071
 634	3.1650e-01	14.7204	74.836161	0.000414	4.140750	1.402924	-0.033071
 635	3.1700e-01	14.6755	74.674837	0.000404	4.039756	1.368706	-0.032265
 636	3.1750e-01	14.6306	74.565944	0.000273	2.726835	0.923877	-0.021779
 637	3.1800e-01	14.5953	74.271527	0.000737	7.372555	2.497889	-0.058883
 638	3.1850e-01	14.5552	74.239263	0.000081	0.807951	0.273741	-0.006453
 639	3.1900e-01	14.5183	74.053740	0.000465	4.645719	1.574012	-0.037105
 640	3.1950e-01	14.4750	73.948879	0.000263	2.625841	0.889659	-0.020972
 641	3.2000e-01	14.4365	73.517338	0.001081	10.806347	3.661290	-0.086308
 642	3.2050e-01	14.3980	73.319716	0.000495	4.948701	1.676665	-0.039524
 643	3.2100e-01	14.3627	73.315683	0.000010	0.100994	0.034218	-0.000807
 644	3.2150e-01	14.3162	72.980936	0.000838	8.382494	2.840066	-0.066949
 645	3.2200e-01	14.2777	72.722817	0.000646	6.463610	2.189930	-0.051624
 646	3.2250e-01	14.2360	72.549394	0.000434	4.342738	1.471359	-0.034685
 647	3.2300e-01	14.2023	72.331607	0.000545	5.453671	1.847754	-0.043557
 648	3.2350e-01	14.1606	72.202548	0.000323	3.231805	1.094965	-0.025812
 649	3.2400e-01	14.1221	71.863767	0.000848	8.483488	2.874283	-0.067756
 650	3.2450e-01	14.0707	71.847635	0.000040	0.403976	0.136871	-0.003226
 651	3.2500e-01	14.0354	71.650013	0.000495	4.948701	1.676665	-0.039524
 652	3.2550e-01	14.0050	71.480623	0.000424	4.241744	1.437142	-0.033878
 653	3.2600e-01	13.9520	71.355597	0.000313	3.130811	1.060747	-0.025005
 654	3.2650e-01	13.9167	71.174108	0.000454	4.544726	1.539795	-0.036298
 655	3.2700e-01	13.8830	70.855493	0.000798	7.978518	2.703195	-0.063723
 656	3.2750e-01	13.8413	70.492514	0.000909	9.089451	3.079589	-0.072596
 657	3.2800e-01	13.7932	70.657871	-0.000414	-4.140750	-1.402924	0.033071
 658	3.2850e-01	13.7643	70.185998	0.001182	11.816286	4.003466	-0.094375
 659	3.2900e-01	13.7146	70.194065	-0.000020	-0.201988	-0.068435	0.001613
 660	3.2950e-01	13.6857	69.931913	0.000656	6.564604	2.224148	-0.052430
 661	3.3000e-01	13.6280	69.818986	0.000283	2.827829	0.958094	-0.022585
 662	3.3050e-01	13.5959	69.685894	0.000333	3.332799	1.129183	-0.026618
 663	3.3100e-01	13.5558	69.359213	0.000818	8.180506	2.771630	-0.065336
 664	3.3150e-01	13.5125	69.181757	0.000444	4.443732	1.505577	-0.035491
 665	3.3200e-01	13.4788	69.088996	0.000232	2.322860	0.787006	-0.018552
 666	3.3250e-01	13.4419	68.794579	0.000737	7.372555	2.497889	-0.058883
 667	3.3300e-01	13.4018	68.596958	0.000495	4.948701	1.676665	-0.039524
 668	3.3350e-01	13.3633	68.185582	0.001030	10.301378	3.490201	-0.082275
 669	3.3400e-01	13.3264	68.217846	-0.000081	-0.807951	-0.273741	0.006453
 670	3.3450e-01	13.2766	68.153317	0.000162	1.615902	0.547483	-0.012906
 671	3.3500e-01	13.2365	67.685477	0.001172	11.715292	3.969249	-0.093568
 672	3.3550e-01	13.1980	67.540286	0.000364	3.635780	1.231836	-0.029038
 673	3.3600e-01	13.1531	67.463657	0.000192	1.918884	0.650136	-0.015326
 674	3.3650e-01	13.1226	67.225704	0.000596	5.958640	2.018842	-0.047591
 675	3.3700e-01	13.0713	67.197472	0.000071	0.706957	0.239524	-0.005646
 676	3.3750e-01	13.0328	66.955486	0.000606	6.059634	2.053060	-0.048397
 677	3.3800e-01	13.0023	66.773997	0.000454	4.544726	1.539795	-0.036298
 678	3.3850e-01	12.9622	66.358588	0.001040	10.402372	3.524419	-0.083082
 679	3.3900e-01	12.9109	65.914947	0.001111	11.109329	3.763943	-0.088728
 680	3.3950e-01	12.8820	65.640696	0.000687	6.867585	2.326801	-0.054850
 681	3.4000e-01	12.8307	65.769755	-0.000323	-3.231805	-1.094965	0.025812
 682	3.4050e-01	12.8050	65.640696	0.000323	3.231805	1.094965	-0.025812
 683	3.4100e-01	12.7585	65.547935	0.000232	2.322860	0.787006	-0.018552
 684	3.4150e-01	12.7216	65.386611	0.000404	4.039756	1.368706	-0.032265
 685	3.4200e-01	12.6766	65.039765	0.000869	8.685475	2.942719	-0.069369
 686	3.4250e-01	12.6430	64.854242	0.000465	4.645719	1.574012	-0.037105
 687	3.4300e-01	12.5996	64.721150	0.000333	3.332799	1.129183	-0.026618
 688	3.4350e-01	12.5708	64.471098	0.000626	6.261622	2.121495	-0.050010
 689	3.4400e-01	12.5210	64.104086	0.000919	9.190445	3.113807	-0.073402
 690	3.4450e-01	12.4841	64.075854	0.000071	0.706957	0.239524	-0.005646
 691	3.4500e-01	12.4360	64.132317	-0.000141	-1.413915	-0.479047	0.011293
 692	3.4550e-01	12.4023	63.821769	0.000778	7.776530	2.634760	-0.062110
 693	3.4600e-01	12.3574	63.499121	0.000808	8.079512	2.737413	-0.064530
 694	3.4650e-01	12.3205	63.317632	0.000454	4.544726	1.539795	-0.036298
 695	3.4700e-01	12.2932	63.091778	0.000566	5.655658	1.916189	-0.045171
 696	3.4750e-01	12.2435	62.744932	0.000869	8.685475	2.942719	-0.069369
 697	3.4800e-01	12.2002	62.684435	0.000151	1.514909	0.513265	-0.012099
 698	3.4850e-01	12.1585	62.337589	0.000869	8.685475	2.942719	-0.069369
 699	3.4900e-01	12.1184	62.353721	-0.000040	-0.403976	-0.136871	0.003226
 700	3.4950e-01	12.0767	62.264993	0.000222	2.221866	0.752789	-0.017746
 701	3.5000e-01	12.0334	61.958477	0.000768	7.675536	2.600542	-0.061303
 702	3.5050e-01	12.0013	61.853617	0.000263	2.625841	0.889659	-0.020972
 703	3.5100e-01	11.9660	61.768922	0.000212	2.120872	0.718571	-0.016939
 704	3.5150e-01	11.9291	61.389810	0.000949	9.493427	3.216460	-0.075822
 705	3.5200e-01	11.8826	61.159924	0.000576	5.756652	1.950407	-0.045977
 706	3.5250e-01	11.8473	60.954236	0.000515	5.150689	1.745101	-0.041138
 707	3.5300e-01	11.8007	60.966335	-0.000030	-0.302982	-0.102653	0.002420
 708	3.5350e-01	11.7542	60.800978	0.000414	4.140750	1.402924	-0.033071
 709	3.5400e-01	11.7237	60.442032	0.000899	8.988457	3.045372	-0.071789
 710	3.5450e-01	11.6820	60.107285	0.000838	8.382494	2.840066	-0.066949
 711	3.5500e-01	11.6451	60.143583	-0.000091	-0.908945	-0.307959	0.007260
 712	3.5550e-01	11.5970	59.877398	0.000667	6.665597	2.258366	-0.053237
 713	3.5600e-01	11.5633	59.397460	0.001202	12.018274	4.071902	-0.095988
 714	3.5650e-01	11.5136	59.220003	0.000444	4.443732	1.505577	-0.035491
 715	3.5700e-01	11.4767	59.159507	0.000151	1.514909	0.513265	-0.012099
 716	3.5750e-01	11.4398	58.990117	0.000424	4.241744	1.437142	-0.033878
 717	3.5800e-01	11.3949	58.776362	0.000535	5.352677	1.813536	-0.042751
 718	3.5850e-01	11.3483	58.409351	0.000919	9.190445	3.113807	-0.073402
 719	3.5900e-01	11.3179	58.300457	0.000273	2.726835	0.923877	-0.021779
 720	3.5950e-01	11.2794	58.219795	0.000202	2.019878	0.684353	-0.016132
 721	3.6000e-01	11.2425	58.010074	0.000525	5.251683	1.779318	-0.041944
 722	3.6050e-01	11.2072	57.832617	0.000444	4.443732	1.505577	-0.035491
 723	3.6100e-01	11.1590	57.614830	0.000545	5.453671	1.847754	-0.043557
 724	3.6150e-01	11.1221	57.401076	0.000535	5.352677	1.813536	-0.042751
 725	3.6200e-01	11.0852	57.159090	0.000606	6.059634	2.053060	-0.048397
 726	3.6250e-01	11.0387	57.163123	-0.000010	-0.100994	-0.034218	0.000807
 727	3.6300e-01	10.9970	56.848541	0.000788	7.877524	2.668977	-0.062916
 728	3.6350e-01	10.9585	56.715449	0.000333	3.332799	1.129183	-0.026618
 729	3.6400e-01	10.9184	56.396834	0.000798	7.978518	2.703195	-0.063723
 730	3.6450e-01	10.8799	56.336338	0.000151	1.514909	0.513265	-0.012099
 731	3.6500e-01	10.8414	56.134683	0.000505	5.049695	1.710883	-0.040331
 732	3.6550e-01	10.7933	55.634579	0.001252	12.523244	4.242990	-0.100021
 733	3.6600e-01	10.7580	55.715241	-0.000202	-2.019878	-0.684353	0.016132
 734	3.6650e-01	10.7163	55.606347	0.000273	2.726835	0.923877	-0.021779
 735	3.6700e-01	10.6746	55.566016	0.000101	1.009939	0.342177	-0.008066
 736	3.6750e-01	10.6393	55.078011	0.001222	12.220262	4.140337	-0.097601
 737	3.6800e-01	10.5976	54.868290	0.000525	5.251683	1.779318	-0.041944
 738	3.6850e-01	10.5623	54.565808	0.000757	7.574543	2.566324	-0.060496
 739	3.6900e-01	10.5190	54.364153	0.000505	5.049695	1.710883	-0.040331
 740	3.6950e-01	10.4772	54.009240	0.000889	8.887463	3.011154	-0.070983
 741	3.7000e-01	10.4500	53.904379	0.000263	2.625841	0.889659	-0.020972
 742	3.7050e-01	10.4051	53.759188	0.000364	3.635780	1.231836	-0.029038
 743	3.7100e-01	10.3601	53.505103	0.000636	6.362616	2.155713	-0.050817
 744	3.7150e-01	10.3232	53.089693	0.001040	10.402372	3.524419	-0.083082
 745	3.7200e-01	10.2735	53.125991	-0.000091	-0.908945	-0.307959	0.007260
 746	3.7250e-01	10.2350	52.879972	0.000616	6.160628	2.087277	-0.049204
 747	3.7300e-01	10.1997	52.819476	0.000151	1.514909	0.513265	-0.012099
 748	3.7350e-01	10.1564	52.799310	0.000050	0.504970	0.171088	-0.004033
 749	3.7400e-01	10.1131	52.359703	0.001101	11.008335	3.729725	-0.087922
 750	3.7450e-01	10.0762	52.073353	0.000717	7.170567	2.429454	-0.057270
 751	3.7500e-01	10.0377	51.815234	0.000646	6.463610	2.189930	-0.051624
 752	3.7550e-01	9.9992	51.484520	0.000828	8.281500	2.805848	-0.066143
 753	3.7600e-01	9.9559	51.375627	0.000273	2.726835	0.923877	-0.021779
 754	3.7650e-01	9.9190	51.488553	-0.000283	-2.827829	-0.958094	0.022585
 755	3.7700e-01	9.8757	51.347395	0.000353	3.534787	1.197618	-0.028232
 756	3.7750e-01	9.8388	50.927953	0.001050	10.503366	3.558637	-0.083888
 757	3.7800e-01	9.8099	50.597239	0.000828	8.281500	2.805848	-0.066143
 758	3.7850e-01	9.7634	50.468179	0.000323	3.231805	1.094965	-0.025812
 759	3.7900e-01	9.7184	50.181829	0.000717	7.170567	2.429454	-0.057270
 760	3.7950e-01	9.6831	50.149565	0.000081	0.807951	0.273741	-0.006453
 761	3.8000e-01	9.6350	49.927744	0.000555	5.554665	1.881971	-0.044364
 762	3.8050e-01	9.5949	49.689791	0.000596	5.958640	2.018842	-0.047591
 763	3.8100e-01	9.5596	49.500236	0.000475	4.746713	1.608230	-0.037911
 764	3.8150e-01	9.5227	49.246150	0.000636	6.362616	2.155713	-0.050817
 765	3.8200e-01	9.4810	49.145323	0.000252	2.524848	0.855441	-0.020165
 766	3.8250e-01	9.4409	48.883172	0.000656	6.564604	2.224148	-0.052430
 767	3.8300e-01	9.3992	48.681517	0.000505	5.049695	1.710883	-0.040331
 768	3.8350e-01	9.3639	48.500027	0.000454	4.544726	1.539795	-0.036298
 769	3.8400e-01	9.3142	48.286273	0.000535	5.352677	1.813536	-0.042751
 770	3.8450e-01	9.2805	47.939427	0.000869	8.685475	2.942719	-0.069369
 771	3.8500e-01	9.2388	47.733739	0.000515	5.150689	1.745101	-0.041138
 772	3.8550e-01	9.2083	47.673242	0.000151	1.514909	0.513265	-0.012099
 773	3.8600e-01	9.1618	47.479653	0.000485	4.847707	1.642448	-0.038718
 774	3.8650e-01	9.1153	47.398991	0.000202	2.019878	0.684353	-0.016132
 775	3.8700e-01	9.0800	47.282031	0.000293	2.928823	0.992312	-0.023392
 776	3.8750e-01	9.0479	46.761762	0.001303	13.028213	4.414078	-0.104054
 777	3.8800e-01	9.0014	46.729497	0.000081	0.807951	0.273741	-0.006453
 778	3.8850e-01	8.9484	46.584305	0.000364	3.635780	1.231836	-0.029038
 779	3.8900e-01	8.9099	46.390717	0.000485	4.847707	1.642448	-0.038718
 780	3.8950e-01	8.8666	45.934977	0.001141	11.412311	3.866596	-0.091148
 781	3.9000e-01	8.8425	45.765586	0.000424	4.241744	1.437142	-0.033878
 782	3.9050e-01	8.8072	45.580064	0.000465	4.645719	1.574012	-0.037105
 783	3.9100e-01	8.7575	45.430839	0.000374	3.736774	1.266053	-0.029845
 784	3.9150e-01	8.7110	45.196919	0.000586	5.857646	1.984624	-0.046784
 785	3.9200e-01	8.6725	45.104158	0.000232	2.322860	0.787006	-0.018552
 786	3.9250e-01	8.6388	44.712948	0.000980	9.796408	3.319113	-0.078242
 787	3.9300e-01	8.5907	44.608087	0.000263	2.625841	0.889659	-0.020972
 788	3.9350e-01	8.5618	44.196711	0.001030	10.301378	3.490201	-0.082275
 789	3.9400e-01	8.5121	44.067652	0.000323	3.231805	1.094965	-0.025812
 790	3.9450e-01	8.4768	44.208810	-0.000353	-3.534787	-1.197618	0.028232
 791	3.9500e-01	8.4383	43.628044	0.001454	14.543122	4.927343	-0.116153
 792	3.9550e-01	8.4078	43.357827	0.000677	6.766591	2.292583	-0.054044
 793	3.9600e-01	8.3597	43.232800	0.000313	3.130811	1.060747	-0.025005
 794	3.9650e-01	8.3163	43.047278	0.000465	4.645719	1.574012	-0.037105
 795	3.9700e-01	8.2827	42.793193	0.000636	6.362616	2.155713	-0.050817
 796	3.9750e-01	8.2425	42.539108	0.000636	6.362616	2.155713	-0.050817
 797	3.9800e-01	8.2040	42.406015	0.000333	3.332799	1.129183	-0.026618
 798	3.9850e-01	8.1591	42.224526	0.000454	4.544726	1.539795	-0.036298
 799	3.9900e-01	8.1206	41.962374	0.000656	6.564604	2.224148	-0.052430
 800	3.9950e-01	8.0741	41.663925	0.000747	7.473549	2.532107	-0.059690
 801	4.0000e-01	8.0324	41.809117	-0.000364	-3.635780	-1.231836	0.029038
 802	4.0050e-01	7.9907	41.595362	0.000535	5.352677	1.813536	-0.042751
 803	4.0100e-01	7.9474	41.393708	0.000505	5.049695	1.710883	-0.040331
 804	4.0150e-01	7.9201	41.127523	0.000667	6.665597	2.258366	-0.053237
 805	4.0200e-01	7.8864	40.800842	0.000818	8.180506	2.771630	-0.065336
 806	4.0250e-01	7.8383	40.562889	0.000596	5.958640	2.018842	-0.047591
 807	4.0300e-01	7.8014	40.288638	0.000687	6.867585	2.326801	-0.054850
 808	4.0350e-01	7.7581	39.998255	0.000727	7.271561	2.463672	-0.058077
 809	4.0400e-01	7.7228	40.042619	-0.000111	-1.110933	-0.376394	0.008873
 810	4.0450e-01	7.6795	39.598979	0.001111	11.109329	3.763943	-0.088728
 811	4.0500e-01	7.6426	39.611078	-0.000030	-0.302982	-0.102653	0.002420
 812	4.0550e-01	7.5960	39.227934	0.000959	9.594421	3.250678	-0.076629
 813	4.0600e-01	7.5575	38.953683	0.000687	6.867585	2.326801	-0.054850
 814	4.0650e-01	7.5190	38.953683	-0.000000	-0.000000	-0.000000	0.000000
 815	4.0700e-01	7.4789	38.844789	0.000273	2.726835	0.923877	-0.021779
 816	4.0750e-01	7.4404	38.457612	0.000970	9.695414	3.284895	-0.077435
 817	4.0800e-01	7.4019	38.259990	0.000495	4.948701	1.676665	-0.039524
 818	4.0850e-01	7.3698	37.945408	0.000788	7.877524	2.668977	-0.062916
 819	4.0900e-01	7.3137	37.989772	-0.000111	-1.110933	-0.376394	0.008873
 820	4.0950e-01	7.2720	37.719555	0.000677	6.766591	2.292583	-0.054044
 821	4.1000e-01	7.2303	37.360609	0.000899	8.988457	3.045372	-0.071789
 822	4.1050e-01	7.1982	37.070226	0.000727	7.271561	2.463672	-0.058077
 823	4.1100e-01	7.1581	36.779843	0.000727	7.271561	2.463672	-0.058077
 824	4.1150e-01	7.1212	36.699181	0.000202	2.019878	0.684353	-0.016132
 825	4.1200e-01	7.0731	36.566088	0.000333	3.332799	1.129183	-0.026618
 826	4.1250e-01	7.0346	36.545923	0.000050	0.504970	0.171088	-0.004033
 827	4.1300e-01	6.9929	36.094216	0.001131	11.311317	3.832378	-0.090341
 828	4.1350e-01	6.9592	35.928859	0.000414	4.140750	1.402924	-0.033071
 829	4.1400e-01	6.9142	35.779634	0.000374	3.736774	1.266053	-0.029845
 830	4.1450e-01	6.8790	35.420688	0.000899	8.988457	3.045372	-0.071789
 831	4.1500e-01	6.8453	35.376324	0.000111	1.110933	0.376394	-0.008873
 832	4.1550e-01	6.8003	35.029478	0.000869	8.685475	2.942719	-0.069369
 833	4.1600e-01	6.7683	34.916551	0.000283	2.827829	0.958094	-0.022585
 834	4.1650e-01	6.7233	34.714896	0.000505	5.049695	1.710883	-0.040331
 835	4.1700e-01	6.6848	34.646334	0.000172	1.716896	0.581700	-0.013713
 836	4.1750e-01	6.6463	34.392248	0.000636	6.362616	2.155713	-0.050817
 837	4.1800e-01	6.5918	34.178494	0.000535	5.352677	1.813536	-0.042751
 838	4.1850e-01	6.5565	34.057501	0.000303	3.029817	1.026530	-0.024199
 839	4.1900e-01	6.5148	33.577562	0.001202	12.018274	4.071902	-0.095988
 840	4.1950e-01	6.4731	33.158120	0.001050	10.503366	3.558637	-0.083888
 841	4.2000e-01	6.4410	33.275080	-0.000293	-2.928823	-0.992312	0.023392
 842	4.2050e-01	6.3945	32.980664	0.000737	7.372555	2.497889	-0.058883
 843	4.2100e-01	6.3528	32.746744	0.000586	5.857646	1.984624	-0.046784
 844	4.2150e-01	6.3159	32.855638	-0.000273	-2.726835	-0.923877	0.021779
 845	4.2200e-01	6.2918	32.238574	0.001545	15.452067	5.235302	-0.123413
 846	4.2250e-01	6.2389	32.335368	-0.000242	-2.423854	-0.821224	0.019359
 847	4.2300e-01	6.1939	32.170011	0.000414	4.140750	1.402924	-0.033071
 848	4.2350e-01	6.1731	31.730403	0.001101	11.008335	3.729725	-0.087922
 849	4.2400e-01	6.1234	31.673940	0.000141	1.413915	0.479047	-0.011293
 850	4.2450e-01	6.0752	31.565046	0.000273	2.726835	0.923877	-0.021779
 851	4.2500e-01	6.0431	31.125438	0.001101	11.008335	3.729725	-0.087922
 852	4.2550e-01	6.0030	31.012512	0.000283	2.827829	0.958094	-0.022585
 853	4.2600e-01	5.9629	30.822956	0.000475	4.746713	1.608230	-0.037911
 854	4.2650e-01	5.9132	30.516441	0.000768	7.675536	2.600542	-0.061303
 855	4.2700e-01	5.8811	30.338984	0.000444	4.443732	1.505577	-0.035491
 856	4.2750e-01	5.8378	30.161528	0.000444	4.443732	1.505577	-0.035491
 857	4.2800e-01	5.7961	29.608993	0.001384	13.836164	4.687819	-0.110507
 858	4.2850e-01	5.7608	29.532365	0.000192	1.918884	0.650136	-0.015326
 859	4.2900e-01	5.7255	29.467835	0.000162	1.615902	0.547483	-0.012906
 860	4.2950e-01	5.6822	29.048393	0.001050	10.503366	3.558637	-0.083888
 861	4.3000e-01	5.6357	28.987896	0.000151	1.514909	0.513265	-0.012099
 862	4.3050e-01	5.6004	28.899168	0.000222	2.221866	0.752789	-0.017746
 863	4.3100e-01	5.5651	28.903201	-0.000010	-0.100994	-0.034218	0.000807
 864	4.3150e-01	5.5202	28.245806	0.001646	16.462006	5.577479	-0.131479
 865	4.3200e-01	5.4769	28.153045	0.000232	2.322860	0.787006	-0.018552
 866	4.3250e-01	5.4416	27.955423	0.000495	4.948701	1.676665	-0.039524
 867	4.3300e-01	5.4015	27.822331	0.000333	3.332799	1.129183	-0.026618
 868	4.3350e-01	5.3517	27.431120	0.000980	9.796408	3.319113	-0.078242
 869	4.3400e-01	5.3196	27.346425	0.000212	2.120872	0.718571	-0.016939
 870	4.3450e-01	5.2763	27.269796	0.000192	1.918884	0.650136	-0.015326
 871	4.3500e-01	5.2394	26.834222	0.001091	10.907341	3.695507	-0.087115
 872	4.3550e-01	5.2041	26.620467	0.000535	5.352677	1.813536	-0.042751
 873	4.3600e-01	5.1560	26.426879	0.000485	4.847707	1.642448	-0.038718
 874	4.3650e-01	5.1159	26.281687	0.000364	3.635780	1.231836	-0.029038
 875	4.3700e-01	5.0822	25.934841	0.000869	8.685475	2.942719	-0.069369
 876	4.3750e-01	5.0405	25.684788	0.000626	6.261622	2.121495	-0.050010
 877	4.3800e-01	5.0004	25.515398	0.000424	4.241744	1.437142	-0.033878
 878	4.3850e-01	4.9731	25.350041	0.000414	4.140750	1.402924	-0.033071
 879	4.3900e-01	4.9170	25.285512	0.000162	1.615902	0.547483	-0.012906
 880	4.3950e-01	4.8849	24.684580	0.001505	15.048091	5.098431	-0.120186
 881	4.4000e-01	4.8400	24.466793	0.000545	5.453671	1.847754	-0.043557
 882	4.4050e-01	4.7983	24.555521	-0.000222	-2.221866	-0.752789	0.017746
 883	4.4100e-01	4.7662	24.204641	0.000879	8.786469	2.976936	-0.070176
 884	4.4150e-01	4.7197	24.152211	0.000131	1.312921	0.444830	-0.010486
 885	4.4200e-01	4.6763	23.906192	0.000616	6.160628	2.087277	-0.049204
 886	4.4250e-01	4.6378	23.607743	0.000747	7.473549	2.532107	-0.059690
 887	4.4300e-01	4.5977	23.305260	0.000757	7.574543	2.566324	-0.060496
 888	4.4350e-01	4.5608	22.910017	0.000990	9.897402	3.353331	-0.079049
 889	4.4400e-01	4.5159	22.893884	0.000040	0.403976	0.136871	-0.003226
 890	4.4450e-01	4.4790	22.672064	0.000555	5.554665	1.881971	-0.044364
 891	4.4500e-01	4.4453	22.280853	0.000980	9.796408	3.319113	-0.078242
 892	4.4550e-01	4.3988	22.135662	0.000364	3.635780	1.231836	-0.029038
 893	4.4600e-01	4.3571	22.260688	-0.000313	-3.130811	-1.060747	0.025005
 894	4.4650e-01	4.3154	22.055000	0.000515	5.150689	1.745101	-0.041138
 895	4.4700e-01	4.2849	21.514564	0.001353	13.533183	4.585166	-0.108087
 896	4.4750e-01	4.2400	21.349207	0.000414	4.140750	1.402924	-0.033071
 897	4.4800e-01	4.1999	21.498432	-0.000374	-3.736774	-1.266053	0.029845
 898	4.4850e-01	4.1566	21.171751	0.000818	8.180506	2.771630	-0.065336
 899	4.4900e-01	4.1229	20.756342	0.001040	10.402372	3.524419	-0.083082
 900	4.4950e-01	4.0715	20.550654	0.000515	5.150689	1.745101	-0.041138
 901	4.5000e-01	4.0411	20.272370	0.000697	6.968579	2.361019	-0.055657
 902	4.5050e-01	3.9977	20.203807	0.000172	1.716896	0.581700	-0.013713
 903	4.5100e-01	3.9609	19.816630	0.000970	9.695414	3.284895	-0.077435
 904	4.5150e-01	3.9175	19.869060	-0.000131	-1.312921	-0.444830	0.010486
 905	4.5200e-01	3.8871	19.558512	0.000778	7.776530	2.634760	-0.062110
 906	4.5250e-01	3.8437	19.288294	0.000677	6.766591	2.292583	-0.054044
 907	4.5300e-01	3.7924	19.251996	0.000091	0.908945	0.307959	-0.007260
 908	4.5350e-01	3.7651	18.929348	0.000808	8.079512	2.737413	-0.064530
 909	4.5400e-01	3.7154	18.897084	0.000081	0.807951	0.273741	-0.006453
 910	4.5450e-01	3.6865	18.445376	0.001131	11.311317	3.832378	-0.090341
 911	4.5500e-01	3.6384	18.038033	0.001020	10.200384	3.455984	-0.081469
 912	4.5550e-01	3.5951	17.840412	0.000495	4.948701	1.676665	-0.039524
 913	4.5600e-01	3.5678	17.880743	-0.000101	-1.009939	-0.342177	0.008066
 914	4.5650e-01	3.5197	17.699253	0.000454	4.544726	1.539795	-0.036298
 915	4.5700e-01	3.4812	17.400804	0.000747	7.473549	2.532107	-0.059690
 916	4.5750e-01	3.4282	17.154785	0.000616	6.160628	2.087277	-0.049204
 917	4.5800e-01	3.3962	16.912799	0.000606	6.059634	2.053060	-0.048397
 918	4.5850e-01	3.3625	16.537721	0.000939	9.392433	3.182242	-0.075016
 919	4.5900e-01	3.3256	16.448993	0.000222	2.221866	0.752789	-0.017746
 920	4.5950e-01	3.2774	16.497390	-0.000121	-1.211927	-0.410612	0.009679
 921	4.6000e-01	3.2422	15.977120	0.001303	13.028213	4.414078	-0.104054
 922	4.6050e-01	3.2020	15.831929	0.000364	3.635780	1.231836	-0.029038
 923	4.6100e-01	3.1635	15.557678	0.000687	6.867585	2.326801	-0.054850
 924	4.6150e-01	3.1170	15.380222	0.000444	4.443732	1.505577	-0.035491
 925	4.6200e-01	3.0785	15.142269	0.000596	5.958640	2.018842	-0.047591
 926	4.6250e-01	3.0304	15.065640	0.000192	1.918884	0.650136	-0.015326
 927	4.6300e-01	2.9967	14.847853	0.000545	5.453671	1.847754	-0.043557
 928	4.6350e-01	2.9598	14.476807	0.000929	9.291439	3.148025	-0.074209
 929	4.6400e-01	2.9213	14.384046	0.000232	2.322860	0.787006	-0.018552
 930	4.6450e-01	2.8892	14.182391	0.000505	5.049695	1.710883	-0.040331
 931	4.6500e-01	2.8331	13.984769	0.000495	4.948701	1.676665	-0.039524
 932	4.6550e-01	2.7930	13.694386	0.000727	7.271561	2.463672	-0.058077
 933	4.6600e-01	2.7545	13.436268	0.000646	6.463610	2.189930	-0.051624
 934	4.6650e-01	2.7256	13.323341	0.000283	2.827829	0.958094	-0.022585
 935	4.6700e-01	2.6759	13.057157	0.000667	6.665597	2.258366	-0.053237
 936	4.6750e-01	2.6406	12.702244	0.000889	8.887463	3.011154	-0.070983
 937	4.6800e-01	2.5973	12.544953	0.000394	3.938762	1.334489	-0.031458
 938	4.6850e-01	2.5620	12.464291	0.000202	2.019878	0.684353	-0.016132
 939	4.6900e-01	2.5219	12.198107	0.000667	6.665597	2.258366	-0.053237
 940	4.6950e-01	2.4801	12.000485	0.000495	4.948701	1.676665	-0.039524
 941	4.7000e-01	2.4368	11.738333	0.000656	6.564604	2.224148	-0.052430
 942	4.7050e-01	2.3983	11.488281	0.000626	6.261622	2.121495	-0.050010
 943	4.7100e-01	2.3486	11.371322	0.000293	2.928823	0.992312	-0.023392
 944	4.7150e-01	2.3197	11.145468	0.000566	5.655658	1.916189	-0.045171
 945	4.7200e-01	2.2780	10.911548	0.000586	5.857646	1.984624	-0.046784
 946	4.7250e-01	2.2427	10.693761	0.000545	5.453671	1.847754	-0.043557
 947	4.7300e-01	2.1930	10.544536	0.000374	3.736774	1.266053	-0.029845
 948	4.7350e-01	2.1593	10.173491	0.000929	9.291439	3.148025	-0.074209
 949	4.7400e-01	2.1256	9.996035	0.000444	4.443732	1.505577	-0.035491
 950	4.7450e-01	2.0839	9.810512	0.000465	4.645719	1.574012	-0.037105
 951	4.7500e-01	2.0374	9.600791	0.000525	5.251683	1.779318	-0.041944
 952	4.7550e-01	1.9892	9.310408	0.000727	7.271561	2.463672	-0.058077
 953	4.7600e-01	1.9507	9.201514	0.000273	2.726835	0.923877	-0.021779
 954	4.7650e-01	1.9235	9.104720	0.000242	2.423854	0.821224	-0.019359
 955	4.7700e-01	1.8786	8.580417	0.001313	13.129207	4.448296	-0.104861
 956	4.7750e-01	1.8385	8.503788	0.000192	1.918884	0.650136	-0.015326
 957	4.7800e-01	1.7935	8.136776	0.000919	9.190445	3.113807	-0.073402
 958	4.7850e-01	1.7614	7.999651	0.000343	3.433793	1.163400	-0.027425
 959	4.7900e-01	1.7133	7.685069	0.000788	7.877524	2.668977	-0.062916
 960	4.7950e-01	1.6780	7.677003	0.000020	0.201988	0.068435	-0.001613
 961	4.8000e-01	1.6347	7.459216	0.000545	5.453671	1.847754	-0.043557
 962	4.8050e-01	1.6010	7.261594	0.000495	4.948701	1.676665	-0.039524
 963	4.8100e-01	1.5577	6.866350	0.000990	9.897402	3.353331	-0.079049
 964	4.8150e-01	1.5288	6.664695	0.000505	5.049695	1.710883	-0.040331
 965	4.8200e-01	1.4743	6.551769	0.000283	2.827829	0.958094	-0.022585
 966	4.8250e-01	1.4422	6.309783	0.000606	6.059634	2.053060	-0.048397
 967	4.8300e-01	1.4069	6.144426	0.000414	4.140750	1.402924	-0.033071
 968	4.8350e-01	1.3556	5.845976	0.000747	7.473549	2.532107	-0.059690
 969	4.8400e-01	1.3203	5.777414	0.000172	1.716896	0.581700	-0.013713
 970	4.8450e-01	1.2722	5.478964	0.000747	7.473549	2.532107	-0.059690
 971	4.8500e-01	1.2417	5.281343	0.000495	4.948701	1.676665	-0.039524
 972	4.8550e-01	1.1935	4.970794	0.000778	7.776530	2.634760	-0.062110
 973	4.8600e-01	1.1599	4.874000	0.000242	2.423854	0.821224	-0.019359
 974	4.8650e-01	1.1182	4.365829	0.001273	12.725231	4.311425	-0.101634
 975	4.8700e-01	1.0813	4.228704	0.000343	3.433793	1.163400	-0.027425
 976	4.8750e-01	1.0428	4.236770	-0.000020	-0.201988	-0.068435	0.001613
 977	4.8800e-01	0.9962	3.869758	0.000919	9.190445	3.113807	-0.073402
 978	4.8850e-01	0.9561	3.446283	0.001060	10.604360	3.592854	-0.084695
 979	4.8900e-01	0.9144	3.176065	0.000677	6.766591	2.292583	-0.054044
 980	4.8950e-01	0.8807	3.139767	0.000091	0.908945	0.307959	-0.007260
 981	4.9000e-01	0.8470	2.970377	0.000424	4.241744	1.437142	-0.033878
 982	4.9050e-01	0.8005	2.921980	0.000121	1.211927	0.410612	-0.009679
 983	4.9100e-01	0.7492	2.591266	0.000828	8.281500	2.805848	-0.066143
 984	4.9150e-01	0.7219	2.212155	0.000949	9.493427	3.216460	-0.075822
 985	4.9200e-01	0.6738	1.970169	0.000606	6.059634	2.053060	-0.048397
 986	4.9250e-01	0.6353	1.824977	0.000364	3.635780	1.231836	-0.029038
 987	4.9300e-01	0.5936	1.639455	0.000465	4.645719	1.574012	-0.037105
 988	4.9350e-01	0.5567	1.461998	0.000444	4.443732	1.505577	-0.035491
 989	4.9400e-01	0.5150	1.292608	0.000424	4.241744	1.437142	-0.033878
 990	4.9450e-01	0.4813	1.143383	0.000374	3.736774	1.266053	-0.029845
 991	4.9500e-01	0.4396	0.832835	0.000778	7.776530	2.634760	-0.062110
 992	4.9550e-01	0.3978	0.401293	0.001081	10.806347	3.661290	-0.086308
 993	4.9600e-01	0.3577	0.268201	0.000333	3.332799	1.129183	-0.026618
 994	4.9650e-01	0.3192	0.086712	0.000454	4.544726	1.539795	-0.036298
 995	4.9700e-01	0.2727	0.082679	0.000010	0.100994	0.034218	-0.000807
 996	4.9750e-01	0.2294	-0.276267	0.000899	8.988457	3.045372	-0.071789
 997	4.9800e-01	0.1909	-0.421459	0.000364	3.635780	1.231836	-0.029038
 998	4.9850e-01	0.1572	-0.534386	0.000283	2.827829	0.958094	-0.022585
 999	4.9900e-01	0.1171	-0.857033	0.000808	8.079512	2.737413	-0.064530
1000	4.9950e-01	0.0818	-1.199847	0.000858	8.584482	2.908501	-0.068563
1001	5.0000e-01	0.0353	-1.494263	0.000737	7.372555	2.497889	-0.058883
1002	5.0050e-01	0.0112	-1.716083	0.000555	5.554665	1.881971	-0.044364
1003	5.0100e-01	-0.0305	-1.873374	0.000394	3.938762	1.334489	-0.031458
1004	5.0150e-01	-0.0738	-1.970169	0.000242	2.423854	0.821224	-0.019359
1005	5.0200e-01	-0.1187	-2.143592	0.000434	4.342738	1.471359	-0.034685
1006	5.0250e-01	-0.1588	-2.244419	0.000252	2.524848	0.855441	-0.020165
1007	5.0300e-01	-0.1941	-2.587233	0.000858	8.584482	2.908501	-0.068563
1008	5.0350e-01	-0.2294	-2.817119	0.000576	5.756652	1.950407	-0.045977
1009	5.0400e-01	-0.2743	-2.921980	0.000263	2.625841	0.889659	-0.020972
1010	5.0450e-01	-0.3192	-3.059105	0.000343	3.433793	1.163400	-0.027425
1011	5.0500e-01	-0.3513	-3.498713	0.001101	11.008335	3.729725	-0.087922
1012	5.0550e-01	-0.3882	-3.611640	0.000283	2.827829	0.958094	-0.022585
1013	5.0600e-01	-0.4299	-3.849593	0.000596	5.958640	2.018842	-0.047591
1014	5.0650e-01	-0.4684	-4.164174	0.000788	7.877524	2.668977	-0.062916
1015	5.0700e-01	-0.5134	-4.252902	0.000222	2.221866	0.752789	-0.017746
1016	5.0750e-01	-0.5519	-4.466657	0.000535	5.352677	1.813536	-0.042751
1017	5.0800e-01	-0.6000	-4.563451	0.000242	2.423854	0.821224	-0.019359
1018	5.0850e-01	-0.6433	-5.035324	0.001182	11.816286	4.003466	-0.094375
1019	5.0900e-01	-0.6850	-5.273276	0.000596	5.958640	2.018842	-0.047591
1020	5.0950e-01	-0.7139	-5.579792	0.000768	7.675536	2.600542	-0.061303
1021	5.1000e-01	-0.7556	-5.769348	0.000475	4.746713	1.608230	-0.037911
1022	5.1050e-01	-0.8037	-5.813712	0.000111	1.110933	0.376394	-0.008873
1023	5.1100e-01	-0.8294	-6.120227	0.000768	7.675536	2.600542	-0.061303
1024	5.1150e-01	-0.8775	-6.325915	0.000515	5.150689	1.745101	-0.041138
1025	5.1200e-01	-0.9176	-6.543702	0.000545	5.453671	1.847754	-0.043557
1026	5.1250e-01	-0.9625	-6.866350	0.000808	8.079512	2.737413	-0.064530
1027	5.1300e-01	-0.9978	-6.926847	0.000151	1.514909	0.513265	-0.012099
1028	5.1350e-01	-1.0315	-7.019608	0.000232	2.322860	0.787006	-0.018552
1029	5.1400e-01	-1.0780	-7.277726	0.000646	6.463610	2.189930	-0.051624
1030	5.1450e-01	-1.1214	-7.447117	0.000424	4.241744	1.437142	-0.033878
1031	5.1500e-01	-1.1567	-7.656838	0.000525	5.251683	1.779318	-0.041944
1032	5.1550e-01	-1.1935	-7.890757	0.000586	5.857646	1.984624	-0.046784
1033	5.1600e-01	-1.2385	-8.338431	0.001121	11.210323	3.798160	-0.089535
1034	5.1650e-01	-1.2882	-8.511855	0.000434	4.342738	1.471359	-0.034685
1035	5.1700e-01	-1.3187	-8.697377	0.000465	4.645719	1.574012	-0.037105
1036	5.1750e-01	-1.3508	-8.927264	0.000576	5.756652	1.950407	-0.045977
1037	5.1800e-01	-1.3957	-9.177316	0.000626	6.261622	2.121495	-0.050010
1038	5.1850e-01	-1.4422	-9.161183	-0.000040	-0.403976	-0.136871	0.003226
1039	5.1900e-01	-1.4711	-9.471732	0.000778	7.776530	2.634760	-0.062110
1040	5.1950e-01	-1.5160	-9.532229	0.000151	1.514909	0.513265	-0.012099
1041	5.2000e-01	-1.5561	-9.923439	0.000980	9.796408	3.319113	-0.078242
1042	5.2050e-01	-1.5978	-10.322716	0.001000	9.998396	3.387548	-0.079855
1043	5.2100e-01	-1.6283	-10.318683	-0.000010	-0.100994	-0.034218	0.000807
1044	5.2150e-01	-1.6700	-10.496139	0.000444	4.443732	1.505577	-0.035491
1045	5.2200e-01	-1.7213	-10.855085	0.000899	8.988457	3.045372	-0.071789
1046	5.2250e-01	-1.7486	-11.048674	0.000485	4.847707	1.642448	-0.038718
1047	5.2300e-01	-1.8048	-11.306792	0.000646	6.463610	2.189930	-0.051624
1048	5.2350e-01	-1.8320	-11.476182	0.000424	4.241744	1.437142	-0.033878
1049	5.2400e-01	-1.8753	-11.762532	0.000717	7.170567	2.429454	-0.057270
1050	5.2450e-01	-1.9203	-12.105345	0.000858	8.584482	2.908501	-0.068563
1051	5.2500e-01	-1.9668	-12.294901	0.000475	4.746713	1.608230	-0.037911
1052	5.2550e-01	-1.9892	-12.161809	-0.000333	-3.332799	-1.129183	0.026618
1053	5.2600e-01	-2.0390	-12.625615	0.001161	11.614299	3.935031	-0.092761
1054	5.2650e-01	-2.0695	-12.899866	0.000687	6.867585	2.326801	-0.054850
1055	5.2700e-01	-2.1160	-12.988594	0.000222	2.221866	0.752789	-0.017746
1056	5.2750e-01	-2.1529	-13.117653	0.000323	3.231805	1.094965	-0.025812
1057	5.2800e-01	-2.1994	-13.299143	0.000454	4.544726	1.539795	-0.036298
1058	5.2850e-01	-2.2315	-13.573393	0.000687	6.867585	2.326801	-0.054850
1059	5.2900e-01	-2.2684	-13.831512	0.000646	6.463610	2.189930	-0.051624
1060	5.2950e-01	-2.3197	-14.178358	0.000869	8.685475	2.942719	-0.069369
1061	5.3000e-01	-2.3534	-14.331616	0.000384	3.837768	1.300271	-0.030652
1062	5.3050e-01	-2.4047	-14.488907	0.000394	3.938762	1.334489	-0.031458
1063	5.3100e-01	-2.4304	-14.751058	0.000656	6.564604	2.224148	-0.052430
1064	5.3150e-01	-2.4769	-14.944647	0.000485	4.847707	1.642448	-0.038718
1065	5.3200e-01	-2.5154	-15.134203	0.000475	4.746713	1.608230	-0.037911
1066	5.3250e-01	-2.5571	-15.493148	0.000899	8.988457	3.045372	-0.071789
1067	5.3300e-01	-2.5876	-15.472983	-0.000050	-0.504970	-0.171088	0.004033
1068	5.3350e-01	-2.6374	-15.779498	0.000768	7.675536	2.600542	-0.061303
1069	5.3400e-01	-2.6759	-15.936789	0.000394	3.938762	1.334489	-0.031458
1070	5.3450e-01	-2.7192	-16.360264	0.001060	10.604360	3.592854	-0.084695
1071	5.3500e-01	-2.7545	-16.618383	0.000646	6.463610	2.189930	-0.051624
1072	5.3550e-01	-2.8010	-16.569986	-0.000121	-1.211927	-0.410612	0.009679
1073	5.3600e-01	-2.8379	-16.602250	0.000081	0.807951	0.273741	-0.006453
1074	5.3650e-01	-2.8684	-16.949097	0.000869	8.685475	2.942719	-0.069369
1075	5.3700e-01	-2.9101	-17.332241	0.000959	9.594421	3.250678	-0.076629
1076	5.3750e-01	-2.9534	-17.497598	0.000414	4.140750	1.402924	-0.033071
1077	5.3800e-01	-2.9999	-17.634724	0.000343	3.433793	1.163400	-0.027425
1078	5.3850e-01	-3.0416	-17.904941	0.000677	6.766591	2.292583	-0.054044
1079	5.3900e-01	-3.0881	-17.985603	0.000202	2.019878	0.684353	-0.016132
1080	5.3950e-01	-3.1138	-18.340516	0.000889	8.887463	3.011154	-0.070983
1081	5.4000e-01	-3.1555	-18.711561	0.000929	9.291439	3.148025	-0.074209
1082	5.4050e-01	-3.1956	-18.953547	0.000606	6.059634	2.053060	-0.048397
1083	5.4100e-01	-3.2470	-18.820455	-0.000333	-3.332799	-1.129183	0.026618
1084	5.4150e-01	-3.2758	-19.264095	0.001111	11.109329	3.763943	-0.088728
1085	5.4200e-01	-3.3176	-19.417353	0.000384	3.837768	1.300271	-0.030652
1086	5.4250e-01	-3.3480	-19.534313	0.000293	2.928823	0.992312	-0.023392
1087	5.4300e-01	-3.3946	-19.881160	0.000869	8.685475	2.942719	-0.069369
1088	5.4350e-01	-3.4379	-20.006186	0.000313	3.130811	1.060747	-0.025005
1089	5.4400e-01	-3.4796	-20.482091	0.001192	11.917280	4.037684	-0.095181
1090	5.4450e-01	-3.5133	-20.526455	0.000111	1.110933	0.376394	-0.008873
1091	5.4500e-01	-3.5502	-20.663581	0.000343	3.433793	1.163400	-0.027425
1092	5.4550e-01	-3.5999	-20.873302	0.000525	5.251683	1.779318	-0.041944
1093	5.4600e-01	-3.6416	-20.970096	0.000242	2.423854	0.821224	-0.019359
1094	5.4650e-01	-3.6737	-21.070924	0.000252	2.524848	0.855441	-0.020165
1095	5.4700e-01	-3.7170	-21.619425	0.001374	13.735170	4.653602	-0.109700
1096	5.4750e-01	-3.7507	-21.671855	0.000131	1.312921	0.444830	-0.010486
1097	5.4800e-01	-3.7908	-21.917874	0.000616	6.160628	2.087277	-0.049204
1098	5.4850e-01	-3.8373	-22.059033	0.000353	3.534787	1.197618	-0.028232
1099	5.4900e-01	-3.8758	-22.442177	0.000959	9.594421	3.250678	-0.076629
1100	5.4950e-01	-3.9159	-22.748693	0.000768	7.675536	2.600542	-0.061303
1101	5.5000e-01	-3.9528	-22.740626	-0.000020	-0.201988	-0.068435	0.001613
1102	5.5050e-01	-3.9945	-23.022943	0.000707	7.069573	2.395236	-0.056463
1103	5.5100e-01	-4.0330	-23.313326	0.000727	7.271561	2.463672	-0.058077
1104	5.5150e-01	-4.0635	-23.684372	0.000929	9.291439	3.148025	-0.074209
1105	5.5200e-01	-4.1100	-23.861828	0.000444	4.443732	1.505577	-0.035491
1106	5.5250e-01	-4.1502	-24.011053	0.000374	3.736774	1.266053	-0.029845
1107	5.5300e-01	-4.1999	-23.970722	-0.000101	-1.009939	-0.342177	0.008066
1108	5.5350e-01	-4.2368	-24.390164	0.001050	10.503366	3.558637	-0.083888
1109	5.5400e-01	-4.2721	-24.515190	0.000313	3.130811	1.060747	-0.025005
1110	5.5450e-01	-4.3266	-24.716845	0.000505	5.049695	1.710883	-0.040331
1111	5.5500e-01	-4.3571	-25.055625	0.000848	8.483488	2.874283	-0.067756
1112	5.5550e-01	-4.3908	-25.144353	0.000222	2.221866	0.752789	-0.017746
1113	5.5600e-01	-4.4437	-25.458935	0.000788	7.877524	2.668977	-0.062916
1114	5.5650e-01	-4.4758	-25.696888	0.000596	5.958640	2.018842	-0.047591
1115	5.5700e-01	-4.5079	-25.838046	0.000353	3.534787	1.197618	-0.028232
1116	5.5750e-01	-4.5528	-25.858212	0.000050	0.504970	0.171088	-0.004033
1117	5.5800e-01	-4.5993	-26.168760	0.000778	7.776530	2.634760	-0.062110
1118	5.5850e-01	-4.6394	-26.418812	0.000626	6.261622	2.121495	-0.050010
1119	5.5900e-01	-4.6731	-26.511574	0.000232	2.322860	0.787006	-0.018552
1120	5.5950e-01	-4.7164	-26.733394	0.000555	5.554665	1.881971	-0.044364
1121	5.6000e-01	-4.7598	-27.148803	0.001040	10.402372	3.524419	-0.083082
1122	5.6050e-01	-4.7983	-27.386756	0.000596	5.958640	2.018842	-0.047591
1123	5.6100e-01	-4.8400	-27.455319	0.000172	1.716896	0.581700	-0.013713
1124	5.6150e-01	-4.8737	-27.644874	0.000475	4.746713	1.608230	-0.037911
1125	5.6200e-01	-4.9202	-27.878794	0.000586	5.857646	1.984624	-0.046784
1126	5.6250e-01	-4.9555	-28.132879	0.000636	6.362616	2.155713	-0.050817
1127	5.6300e-01	-4.9876	-28.193376	0.000151	1.514909	0.513265	-0.012099
1128	5.6350e-01	-5.0373	-28.443428	0.000626	6.261622	2.121495	-0.050010
1129	5.6400e-01	-5.0870	-28.685414	0.000606	6.059634	2.053060	-0.048397
1130	5.6450e-01	-5.1063	-28.850771	0.000414	4.140750	1.402924	-0.033071
1131	5.6500e-01	-5.1544	-29.104856	0.000636	6.362616	2.155713	-0.050817
1132	5.6550e-01	-5.1977	-29.387173	0.000707	7.069573	2.395236	-0.056463
1133	5.6600e-01	-5.2314	-29.471868	0.000212	2.120872	0.718571	-0.016939
1134	5.6650e-01	-5.2763	-29.641258	0.000424	4.241744	1.437142	-0.033878
1135	5.6700e-01	-5.3212	-29.980038	0.000848	8.483488	2.874283	-0.067756
1136	5.6750e-01	-5.3533	-29.963906	-0.000040	-0.403976	-0.136871	0.003226
1137	5.6800e-01	-5.4047	-30.189760	0.000566	5.655658	1.916189	-0.045171
1138	5.6850e-01	-5.4335	-30.601136	0.001030	10.301378	3.490201	-0.082275
1139	5.6900e-01	-5.4704	-30.782625	0.000454	4.544726	1.539795	-0.036298
1140	5.6950e-01	-5.5218	-30.972181	0.000475	4.746713	1.608230	-0.037911
1141	5.7000e-01	-5.5571	-31.008479	0.000091	0.908945	0.307959	-0.007260
1142	5.7050e-01	-5.5924	-31.399689	0.000980	9.796408	3.319113	-0.078242
1143	5.7100e-01	-5.6373	-31.540848	0.000353	3.534787	1.197618	-0.028232
1144	5.7150e-01	-5.6838	-31.794933	0.000636	6.362616	2.155713	-0.050817
1145	5.7200e-01	-5.7191	-31.996588	0.000505	5.049695	1.710883	-0.040331
1146	5.7250e-01	-5.7464	-32.286971	0.000727	7.271561	2.463672	-0.058077
1147	5.7300e-01	-5.7961	-32.424096	0.000343	3.433793	1.163400	-0.027425
1148	5.7350e-01	-5.8378	-32.613652	0.000475	4.746713	1.608230	-0.037911
1149	5.7400e-01	-5.8747	-32.996796	0.000959	9.594421	3.250678	-0.076629
1150	5.7450e-01	-5.9292	-33.061326	0.000162	1.615902	0.547483	-0.012906
1151	5.7500e-01	-5.9549	-33.202484	0.000353	3.534787	1.197618	-0.028232
1152	5.7550e-01	-5.9966	-33.472702	0.000677	6.766591	2.292583	-0.054044
1153	5.7600e-01	-6.0303	-33.759052	0.000717	7.170567	2.429454	-0.057270
1154	5.7650e-01	-6.0800	-33.742919	-0.000040	-0.403976	-0.136871	0.003226
1155	5.7700e-01	-6.1073	-33.988938	0.000616	6.160628	2.087277	-0.049204
1156	5.7750e-01	-6.1554	-34.259156	0.000677	6.766591	2.292583	-0.054044
1157	5.7800e-01	-6.1923	-34.388215	0.000323	3.231805	1.094965	-0.025812
1158	5.7850e-01	-6.2405	-34.569705	0.000454	4.544726	1.539795	-0.036298
1159	5.7900e-01	-6.2758	-34.852022	0.000707	7.069573	2.395236	-0.056463
1160	5.7950e-01	-6.3094	-35.037544	0.000465	4.645719	1.574012	-0.037105
1161	5.8000e-01	-6.3512	-35.344060	0.000768	7.675536	2.600542	-0.061303
1162	5.8050e-01	-6.3929	-35.561847	0.000545	5.453671	1.847754	-0.043557
1163	5.8100e-01	-6.4410	-36.074050	0.001283	12.826225	4.345643	-0.102441
1164	5.8150e-01	-6.4811	-35.977256	-0.000242	-2.423854	-0.821224	0.019359
1165	5.8200e-01	-6.5244	-35.949024	-0.000071	-0.706957	-0.239524	0.005646
1166	5.8250e-01	-6.5581	-36.247474	0.000747	7.473549	2.532107	-0.059690
1167	5.8300e-01	-6.5902	-36.715313	0.001172	11.715292	3.969249	-0.093568
1168	5.8350e-01	-6.6399	-36.832273	0.000293	2.928823	0.992312	-0.023392
1169	5.8400e-01	-6.6768	-36.969398	0.000343	3.433793	1.163400	-0.027425
1170	5.8450e-01	-6.7137	-36.969398	-0.000000	-0.000000	-0.000000	0.000000
1171	5.8500e-01	-6.7538	-37.158954	0.000475	4.746713	1.608230	-0.037911
1172	5.8550e-01	-6.7939	-37.336410	0.000444	4.443732	1.505577	-0.035491
1173	5.8600e-01	-6.8292	-37.634860	0.000747	7.473549	2.532107	-0.059690
1174	5.8650e-01	-6.8741	-37.751819	0.000293	2.928823	0.992312	-0.023392
1175	5.8700e-01	-6.9126	-38.098666	0.000869	8.685475	2.942719	-0.069369
1176	5.8750e-01	-6.9463	-38.393082	0.000737	7.372555	2.497889	-0.058883
1177	5.8800e-01	-6.9929	-38.534241	0.000353	3.534787	1.197618	-0.028232
1178	5.8850e-01	-7.0378	-38.747995	0.000535	5.352677	1.813536	-0.042751
1179	5.8900e-01	-7.0763	-38.893186	0.000364	3.635780	1.231836	-0.029038
1180	5.8950e-01	-7.1148	-39.086775	0.000485	4.847707	1.642448	-0.038718
1181	5.9000e-01	-7.1581	-39.490085	0.001010	10.099390	3.421766	-0.080662
1182	5.9050e-01	-7.1918	-39.473953	-0.000040	-0.403976	-0.136871	0.003226
1183	5.9100e-01	-7.2447	-39.655442	0.000454	4.544726	1.539795	-0.036298
1184	5.9150e-01	-7.2736	-40.042619	0.000970	9.695414	3.284895	-0.077435
1185	5.9200e-01	-7.3185	-40.199910	0.000394	3.938762	1.334489	-0.031458
1186	5.9250e-01	-7.3490	-40.381400	0.000454	4.544726	1.539795	-0.036298
1187	5.9300e-01	-7.3955	-40.385433	0.000010	0.100994	0.034218	-0.000807
1188	5.9350e-01	-7.4388	-40.772610	0.000970	9.695414	3.284895	-0.077435
1189	5.9400e-01	-7.4789	-41.147688	0.000939	9.392433	3.182242	-0.075016
1190	5.9450e-01	-7.5078	-41.272715	0.000313	3.130811	1.060747	-0.025005
1191	5.9500e-01	-7.5527	-41.466303	0.000485	4.847707	1.642448	-0.038718
1192	5.9550e-01	-7.5912	-41.978507	0.001283	12.826225	4.345643	-0.102441
1193	5.9600e-01	-7.6378	-41.696190	-0.000707	-7.069573	-2.395236	0.056463
1194	5.9650e-01	-7.6763	-41.760719	0.000162	1.615902	0.547483	-0.012906
1195	5.9700e-01	-7.7228	-41.954308	0.000485	4.847707	1.642448	-0.038718
1196	5.9750e-01	-7.7565	-42.224526	0.000677	6.766591	2.292583	-0.054044
1197	5.9800e-01	-7.7966	-42.752862	0.001323	13.230201	4.482513	-0.105667
1198	5.9850e-01	-7.8431	-42.817391	0.000162	1.615902	0.547483	-0.012906
1199	5.9900e-01	-7.8784	-43.010980	0.000485	4.847707	1.642448	-0.038718
1200	5.9950e-01	-7.9169	-43.390091	0.000949	9.493427	3.216460	-0.075822
1201	6.0000e-01	-7.9522	-43.531250	0.000353	3.534787	1.197618	-0.028232
1202	6.0050e-01	-7.9923	-43.728872	0.000495	4.948701	1.676665	-0.039524
1203	6.0100e-01	-8.0356	-43.728872	-0.000000	-0.000000	-0.000000	0.000000
1204	6.0150e-01	-8.0789	-43.906328	0.000444	4.443732	1.505577	-0.035491
1205	6.0200e-01	-8.1158	-44.116049	0.000525	5.251683	1.779318	-0.041944
1206	6.0250e-01	-8.1591	-44.329803	0.000535	5.352677	1.813536	-0.042751
1207	6.0300e-01	-8.1928	-44.632286	0.000757	7.574543	2.566324	-0.060496
1208	6.0350e-01	-8.2345	-44.918636	0.000717	7.170567	2.429454	-0.057270
1209	6.0400e-01	-8.2714	-44.950900	0.000081	0.807951	0.273741	-0.006453
1210	6.0450e-01	-8.3163	-45.027529	0.000192	1.918884	0.650136	-0.015326
1211	6.0500e-01	-8.3581	-45.398574	0.000929	9.291439	3.148025	-0.074209
1212	6.0550e-01	-8.3982	-45.487303	0.000222	2.221866	0.752789	-0.017746
1213	6.0600e-01	-8.4415	-45.725255	0.000596	5.958640	2.018842	-0.047591
1214	6.0650e-01	-8.4736	-46.112433	0.000970	9.695414	3.284895	-0.077435
1215	6.0700e-01	-8.5121	-46.148731	0.000091	0.908945	0.307959	-0.007260
1216	6.0750e-01	-8.5490	-46.257624	0.000273	2.726835	0.923877	-0.021779
1217	6.0800e-01	-8.5971	-46.539941	0.000707	7.069573	2.395236	-0.056463
1218	6.0850e-01	-8.6372	-46.697232	0.000394	3.938762	1.334489	-0.031458
1219	6.0900e-01	-8.6725	-47.060211	0.000909	9.089451	3.079589	-0.072596
1220	6.0950e-01	-8.7110	-47.152972	0.000232	2.322860	0.787006	-0.018552
1221	6.1000e-01	-8.7527	-47.225568	0.000182	1.817890	0.615918	-0.014519
1222	6.1050e-01	-8.7896	-47.580481	0.000889	8.887463	3.011154	-0.070983
1223	6.1100e-01	-8.8377	-47.689374	0.000273	2.726835	0.923877	-0.021779
1224	6.1150e-01	-8.8730	-47.830533	0.000353	3.534787	1.197618	-0.028232
1225	6.1200e-01	-8.9179	-47.951526	0.000303	3.029817	1.026530	-0.024199
1226	6.1250e-01	-8.9484	-48.249975	0.000747	7.473549	2.532107	-0.059690
1227	6.1300e-01	-8.9917	-48.576656	0.000818	8.180506	2.771630	-0.065336
1228	6.1350e-01	-9.0399	-48.701682	0.000313	3.130811	1.060747	-0.025005
1229	6.1400e-01	-9.0735	-48.899304	0.000495	4.948701	1.676665	-0.039524
1230	6.1450e-01	-9.1136	-49.294548	0.000990	9.897402	3.353331	-0.079049
1231	6.1500e-01	-9.1554	-49.383276	0.000222	2.221866	0.752789	-0.017746
1232	6.1550e-01	-9.1955	-49.568798	0.000465	4.645719	1.574012	-0.037105
1233	6.1600e-01	-9.2340	-49.742222	0.000434	4.342738	1.471359	-0.034685
1234	6.1650e-01	-9.2773	-49.951943	0.000525	5.251683	1.779318	-0.041944
1235	6.1700e-01	-9.3158	-50.274591	0.000808	8.079512	2.737413	-0.064530
1236	6.1750e-01	-9.3463	-50.500444	0.000566	5.655658	1.916189	-0.045171
1237	6.1800e-01	-9.4024	-50.476246	-0.000061	-0.605963	-0.205306	0.004840
1238	6.1850e-01	-9.4233	-50.625470	0.000374	3.736774	1.266053	-0.029845
1239	6.1900e-01	-9.4730	-50.972317	0.000869	8.685475	2.942719	-0.069369
1240	6.1950e-01	-9.5099	-51.000548	0.000071	0.706957	0.239524	-0.005646
1241	6.2000e-01	-9.5628	-51.307064	0.000768	7.675536	2.600542	-0.061303
1242	6.2050e-01	-9.5933	-51.633745	0.000818	8.180506	2.771630	-0.065336
1243	6.2100e-01	-9.6270	-51.686175	0.000131	1.312921	0.444830	-0.010486
1244	6.2150e-01	-9.6719	-51.811201	0.000313	3.130811	1.060747	-0.025005
1245	6.2200e-01	-9.7184	-52.069320	0.000646	6.463610	2.189930	-0.051624
1246	6.2250e-01	-9.7585	-52.258875	0.000475	4.746713	1.608230	-0.037911
1247	6.2300e-01	-9.8003	-52.250809	-0.000020	-0.201988	-0.068435	0.001613
1248	6.2350e-01	-9.8195	-52.593622	0.000858	8.584482	2.908501	-0.068563
1249	6.2400e-01	-9.8724	-52.646053	0.000131	1.312921	0.444830	-0.010486
1250	6.2450e-01	-9.9158	-52.952568	0.000768	7.675536	2.600542	-0.061303
1251	6.2500e-01	-9.9543	-53.412341	0.001151	11.513305	3.900813	-0.091955
1252	6.2550e-01	-9.9928	-53.565599	0.000384	3.837768	1.300271	-0.030652
1253	6.2600e-01	-10.0441	-53.638195	0.000182	1.817890	0.615918	-0.014519
1254	6.2650e-01	-10.0698	-53.755155	0.000293	2.928823	0.992312	-0.023392
1255	6.2700e-01	-10.1131	-54.126200	0.000929	9.291439	3.148025	-0.074209
1256	6.2750e-01	-10.1612	-54.436748	0.000778	7.776530	2.634760	-0.062110
1257	6.2800e-01	-10.1901	-54.388351	-0.000121	-1.211927	-0.410612	0.009679
1258	6.2850e-01	-10.2366	-54.549675	0.000404	4.039756	1.368706	-0.032265
1259	6.2900e-01	-10.2831	-54.779562	0.000576	5.756652	1.950407	-0.045977
1260	6.2950e-01	-10.3056	-55.102210	0.000808	8.079512	2.737413	-0.064530
1261	6.3000e-01	-10.3505	-55.291765	0.000475	4.746713	1.608230	-0.037911
1262	6.3050e-01	-10.4034	-55.473255	0.000454	4.544726	1.539795	-0.036298
1263	6.3100e-01	-10.4307	-55.598281	0.000313	3.130811	1.060747	-0.025005
1264	6.3150e-01	-10.4724	-55.561983	-0.000091	-0.908945	-0.307959	0.007260
1265	6.3200e-01	-10.5109	-56.041922	0.001202	12.018274	4.071902	-0.095988
1266	6.3250e-01	-10.5526	-56.017723	-0.000061	-0.605963	-0.205306	0.004840
1267	6.3300e-01	-10.5927	-56.263742	0.000616	6.160628	2.087277	-0.049204
1268	6.3350e-01	-10.6377	-56.529927	0.000667	6.665597	2.258366	-0.053237
1269	6.3400e-01	-10.6730	-56.675118	0.000364	3.635780	1.231836	-0.029038
1270	6.3450e-01	-10.7115	-56.937270	0.000656	6.564604	2.224148	-0.052430
1271	6.3500e-01	-10.7612	-57.187322	0.000626	6.261622	2.121495	-0.050010
1272	6.3550e-01	-10.8029	-57.142958	-0.000111	-1.110933	-0.376394	0.008873
1273	6.3600e-01	-10.8398	-57.187322	0.000111	1.110933	0.376394	-0.008873
1274	6.3650e-01	-10.8767	-57.300248	0.000283	2.827829	0.958094	-0.022585
1275	6.3700e-01	-10.9168	-57.695492	0.000990	9.897402	3.353331	-0.079049
1276	6.3750e-01	-10.9489	-58.030239	0.000838	8.382494	2.840066	-0.066949
1277	6.3800e-01	-10.9938	-58.320622	0.000727	7.271561	2.463672	-0.058077
1278	6.3850e-01	-11.0275	-58.373053	0.000131	1.312921	0.444830	-0.010486
1279	6.3900e-01	-11.0740	-58.671502	0.000747	7.473549	2.532107	-0.059690
1280	6.3950e-01	-11.1077	-58.699734	0.000071	0.706957	0.239524	-0.005646
1281	6.4000e-01	-11.1526	-58.848958	0.000374	3.736774	1.266053	-0.029845
1282	6.4050e-01	-11.1991	-59.147408	0.000747	7.473549	2.532107	-0.059690
1283	6.4100e-01	-11.2344	-59.421658	0.000687	6.867585	2.326801	-0.054850
1284	6.4150e-01	-11.2762	-59.538618	0.000293	2.928823	0.992312	-0.023392
1285	6.4200e-01	-11.3098	-59.663644	0.000313	3.130811	1.060747	-0.025005
1286	6.4250e-01	-11.3660	-59.574916	-0.000222	-2.221866	-0.752789	0.017746
1287	6.4300e-01	-11.3901	-59.744306	0.000424	4.241744	1.437142	-0.033878
1288	6.4350e-01	-11.4382	-60.179881	0.001091	10.907341	3.695507	-0.087115
1289	6.4400e-01	-11.4783	-60.357337	0.000444	4.443732	1.505577	-0.035491
1290	6.4450e-01	-11.5152	-60.554959	0.000495	4.948701	1.676665	-0.039524
1291	6.4500e-01	-11.5681	-60.611422	0.000141	1.413915	0.479047	-0.011293
1292	6.4550e-01	-11.5986	-60.913905	0.000757	7.574543	2.566324	-0.060496
1293	6.4600e-01	-11.6323	-61.155891	0.000606	6.059634	2.053060	-0.048397
1294	6.4650e-01	-11.6756	-61.401910	0.000616	6.160628	2.087277	-0.049204
1295	6.4700e-01	-11.7141	-61.651962	0.000626	6.261622	2.121495	-0.050010
1296	6.4750e-01	-11.7542	-61.551134	-0.000252	-2.524848	-0.855441	0.020165
1297	6.4800e-01	-11.7959	-62.018974	0.001172	11.715292	3.969249	-0.093568
1298	6.4850e-01	-11.8296	-62.212562	0.000485	4.847707	1.642448	-0.038718
1299	6.4900e-01	-11.8793	-62.224662	0.000030	0.302982	0.102653	-0.002420
1300	6.4950e-01	-11.9194	-62.180298	-0.000111	-1.110933	-0.376394	0.008873
1301	6.5000e-01	-11.9515	-62.543277	0.000909	9.089451	3.079589	-0.072596
1302	6.5050e-01	-11.9965	-62.849792	0.000768	7.675536	2.600542	-0.061303
1303	6.5100e-01	-12.0334	-63.083712	0.000586	5.857646	1.984624	-0.046784
1304	6.5150e-01	-12.0751	-63.402327	0.000798	7.978518	2.703195	-0.063723
1305	6.5200e-01	-12.1184	-63.366029	-0.000091	-0.908945	-0.307959	0.007260
1306	6.5250e-01	-12.1569	-63.301499	-0.000162	-1.615902	-0.547483	0.012906
1307	6.5300e-01	-12.1906	-63.837901	0.001343	13.432189	4.550949	-0.107280
1308	6.5350e-01	-12.2275	-64.075854	0.000596	5.958640	2.018842	-0.047591
1309	6.5400e-01	-12.2820	-64.184748	0.000273	2.726835	0.923877	-0.021779
1310	6.5450e-01	-12.3061	-64.366237	0.000454	4.544726	1.539795	-0.036298
1311	6.5500e-01	-12.3606	-64.692918	0.000818	8.180506	2.771630	-0.065336
1312	6.5550e-01	-12.3879	-64.547727	-0.000364	-3.635780	-1.231836	0.029038
1313	6.5600e-01	-12.4344	-64.801812	0.000636	6.362616	2.155713	-0.050817
1314	6.5650e-01	-12.4761	-65.084129	0.000707	7.069573	2.395236	-0.056463
1315	6.5700e-01	-12.5194	-65.063963	-0.000050	-0.504970	-0.171088	0.004033
1316	6.5750e-01	-12.5563	-65.418876	0.000889	8.887463	3.011154	-0.070983
1317	6.5800e-01	-12.5948	-65.672961	0.000636	6.362616	2.155713	-0.050817
1318	6.5850e-01	-12.6317	-65.890748	0.000545	5.453671	1.847754	-0.043557
1319	6.5900e-01	-12.6686	-66.011741	0.000303	3.029817	1.026530	-0.024199
1320	6.5950e-01	-12.7151	-66.249694	0.000596	5.958640	2.018842	-0.047591
1321	6.6000e-01	-12.7569	-66.330356	0.000202	2.019878	0.684353	-0.016132
1322	6.6050e-01	-12.7938	-66.326323	-0.000010	-0.100994	-0.034218	0.000807
1323	6.6100e-01	-12.8387	-66.588474	0.000656	6.564604	2.224148	-0.052430
1324	6.6150e-01	-12.8772	-67.193439	0.001515	15.149085	5.132649	-0.120993
1325	6.6200e-01	-12.9237	-67.290234	0.000242	2.423854	0.821224	-0.019359
1326	6.6250e-01	-12.9478	-67.338631	0.000121	1.211927	0.410612	-0.009679
1327	6.6300e-01	-12.9927	-67.580617	0.000606	6.059634	2.053060	-0.048397
1328	6.6350e-01	-13.0264	-67.697577	0.000293	2.928823	0.992312	-0.023392
1329	6.6400e-01	-13.0761	-67.846801	0.000374	3.736774	1.266053	-0.029845
1330	6.6450e-01	-13.1146	-68.056522	0.000525	5.251683	1.779318	-0.041944
1331	6.6500e-01	-13.1595	-68.189615	0.000333	3.332799	1.129183	-0.026618
1332	6.6550e-01	-13.2012	-68.524362	0.000838	8.382494	2.840066	-0.066949
1333	6.6600e-01	-13.2397	-68.532428	0.000020	0.201988	0.068435	-0.001613
1334	6.6650e-01	-13.2750	-68.665520	0.000333	3.332799	1.129183	-0.026618
1335	6.6700e-01	-13.3087	-68.677620	0.000030	0.302982	0.102653	-0.002420
1336	6.6750e-01	-13.3601	-69.125293	0.001121	11.210323	3.798160	-0.089535
1337	6.6800e-01	-13.3905	-69.298717	0.000434	4.342738	1.471359	-0.034685
1338	6.6850e-01	-13.4274	-69.492305	0.000485	4.847707	1.642448	-0.038718
1339	6.6900e-01	-13.4723	-69.621365	0.000323	3.231805	1.094965	-0.025812
1340	6.6950e-01	-13.5189	-69.685894	0.000162	1.615902	0.547483	-0.012906
1341	6.7000e-01	-13.5510	-70.044840	0.000899	8.988457	3.045372	-0.071789
1342	6.7050e-01	-13.6007	-70.194065	0.000374	3.736774	1.266053	-0.029845
1343	6.7100e-01	-13.6264	-70.367488	0.000434	4.342738	1.471359	-0.034685
1344	6.7150e-01	-13.6745	-70.407819	0.000101	1.009939	0.342177	-0.008066
1345	6.7200e-01	-13.7114	-70.698202	0.000727	7.271561	2.463672	-0.058077
1346	6.7250e-01	-13.7531	-70.790963	0.000232	2.322860	0.787006	-0.018552
1347	6.7300e-01	-13.7948	-70.843393	0.000131	1.312921	0.444830	-0.010486
1348	6.7350e-01	-13.8269	-71.262836	0.001050	10.503366	3.558637	-0.083888
1349	6.7400e-01	-13.8750	-71.609682	0.000869	8.685475	2.942719	-0.069369
1350	6.7450e-01	-13.9135	-71.742774	0.000333	3.332799	1.129183	-0.026618
1351	6.7500e-01	-13.9552	-71.686311	-0.000141	-1.413915	-0.479047	0.011293
1352	6.7550e-01	-14.0017	-71.900065	0.000535	5.352677	1.813536	-0.042751
1353	6.7600e-01	-14.0354	-71.883933	-0.000040	-0.403976	-0.136871	0.003226
1354	6.7650e-01	-14.0707	-72.392103	0.001273	12.725231	4.311425	-0.101634
1355	6.7700e-01	-14.1221	-72.553427	0.000404	4.039756	1.368706	-0.032265
1356	6.7750e-01	-14.1493	-72.654255	0.000252	2.524848	0.855441	-0.020165
1357	6.7800e-01	-14.1943	-72.900274	0.000616	6.160628	2.087277	-0.049204
1358	6.7850e-01	-14.2328	-72.980936	0.000202	2.019878	0.684353	-0.016132
1359	6.7900e-01	-14.2713	-73.109995	0.000323	3.231805	1.094965	-0.025812
1360	6.7950e-01	-14.3210	-73.243087	0.000333	3.332799	1.129183	-0.026618
1361	6.8000e-01	-14.3418	-73.618165	0.000939	9.392433	3.182242	-0.075016
1362	6.8050e-01	-14.3964	-73.674629	0.000141	1.413915	0.479047	-0.011293
1363	6.8100e-01	-14.4461	-73.981144	0.000768	7.675536	2.600542	-0.061303
1364	6.8150e-01	-14.4782	-74.186832	0.000515	5.150689	1.745101	-0.041138
1365	6.8200e-01	-14.5199	-74.315891	0.000323	3.231805	1.094965	-0.025812
1366	6.8250e-01	-14.5584	-74.319924	0.000010	0.100994	0.034218	-0.000807
1367	6.8300e-01	-14.5985	-74.638539	0.000798	7.978518	2.703195	-0.063723
1368	6.8350e-01	-14.6322	-74.904724	0.000667	6.665597	2.258366	-0.053237
1369	6.8400e-01	-14.6739	-74.969253	0.000162	1.615902	0.547483	-0.012906
1370	6.8450e-01	-14.7140	-75.130577	0.000404	4.039756	1.368706	-0.032265
1371	6.8500e-01	-14.7573	-75.312067	0.000454	4.544726	1.539795	-0.036298
1372	6.8550e-01	-14.7974	-75.477424	0.000414	4.140750	1.402924	-0.033071
1373	6.8600e-01	-14.8327	-75.509689	0.000081	0.807951	0.273741	-0.006453
1374	6.8650e-01	-14.8696	-75.711344	0.000505	5.049695	1.710883	-0.040331
1375	6.8700e-01	-14.9210	-75.783939	0.000182	1.817890	0.615918	-0.014519
1376	6.8750e-01	-14.9595	-76.046091	0.000656	6.564604	2.224148	-0.052430
1377	6.8800e-01	-14.9900	-76.376805	0.000828	8.281500	2.805848	-0.066143
1378	6.8850e-01	-15.0301	-76.554261	0.000444	4.443732	1.505577	-0.035491
1379	6.8900e-01	-15.0637	-76.804313	0.000626	6.261622	2.121495	-0.050010
1380	6.8950e-01	-15.1231	-77.038233	0.000586	5.857646	1.984624	-0.046784
1381	6.9000e-01	-15.1616	-76.989836	-0.000121	-1.211927	-0.410612	0.009679
1382	6.9050e-01	-15.1985	-76.925306	-0.000162	-1.615902	-0.547483	0.012906
1383	6.9100e-01	-15.2306	-77.304417	0.000949	9.493427	3.216460	-0.075822
1384	6.9150e-01	-15.2739	-77.538337	0.000586	5.857646	1.984624	-0.046784
1385	6.9200e-01	-15.3172	-77.731926	0.000485	4.847707	1.642448	-0.038718
1386	6.9250e-01	-15.3525	-78.030375	0.000747	7.473549	2.532107	-0.059690
1387	6.9300e-01	-15.3958	-78.078772	0.000121	1.211927	0.410612	-0.009679
1388	6.9350e-01	-15.4295	-78.248163	0.000424	4.241744	1.437142	-0.033878
1389	6.9400e-01	-15.4712	-78.288494	0.000101	1.009939	0.342177	-0.008066
1390	6.9450e-01	-15.5145	-78.554678	0.000667	6.665597	2.258366	-0.053237
1391	6.9500e-01	-15.5562	-79.018484	0.001161	11.614299	3.935031	-0.092761
1392	6.9550e-01	-15.5915	-79.050749	0.000081	0.807951	0.273741	-0.006453
1393	6.9600e-01	-15.6397	-79.046716	-0.000010	-0.100994	-0.034218	0.000807
1394	6.9650e-01	-15.6701	-79.208040	0.000404	4.039756	1.368706	-0.032265
1395	6.9700e-01	-15.7183	-79.466158	0.000646	6.463610	2.189930	-0.051624
1396	6.9750e-01	-15.7552	-79.562953	0.000242	2.423854	0.821224	-0.019359
1397	6.9800e-01	-15.7921	-79.921898	0.000899	8.988457	3.045372	-0.071789
1398	6.9850e-01	-15.8322	-80.059024	0.000343	3.433793	1.163400	-0.027425
1399	6.9900e-01	-15.8707	-80.204215	0.000364	3.635780	1.231836	-0.029038
1400	6.9950e-01	-15.9220	-80.345374	0.000353	3.534787	1.197618	-0.028232
1401	7.0000e-01	-15.9525	-80.422003	0.000192	1.918884	0.650136	-0.015326
1402	7.0050e-01	-15.9958	-80.627691	0.000515	5.150689	1.745101	-0.041138
1403	7.0100e-01	-16.0359	-80.986636	0.000899	8.988457	3.045372	-0.071789
1404	7.0150e-01	-16.0664	-80.998736	0.000030	0.302982	0.102653	-0.002420
1405	7.0200e-01	-16.1225	-81.329450	0.000828	8.281500	2.805848	-0.066143
1406	7.0250e-01	-16.1610	-81.377847	0.000121	1.211927	0.410612	-0.009679
1407	7.0300e-01	-16.1963	-81.631932	0.000636	6.362616	2.155713	-0.050817
1408	7.0350e-01	-16.2413	-81.817455	0.000465	4.645719	1.574012	-0.037105
1409	7.0400e-01	-16.2782	-81.748892	-0.000172	-1.716896	-0.581700	0.013713
1410	7.0450e-01	-16.3150	-82.111871	0.000909	9.089451	3.079589	-0.072596
1411	7.0500e-01	-16.3632	-82.269162	0.000394	3.938762	1.334489	-0.031458
1412	7.0550e-01	-16.3937	-82.386122	0.000293	2.928823	0.992312	-0.023392
1413	7.0600e-01	-16.4370	-82.446618	0.000151	1.514909	0.513265	-0.012099
1414	7.0650e-01	-16.4755	-82.785398	0.000848	8.483488	2.874283	-0.067756
1415	7.0700e-01	-16.5188	-82.862027	0.000192	1.918884	0.650136	-0.015326
1416	7.0750e-01	-16.5493	-83.216940	0.000889	8.887463	3.011154	-0.070983
1417	7.0800e-01	-16.5926	-83.358098	0.000353	3.534787	1.197618	-0.028232
1418	7.0850e-01	-16.6359	-83.430694	0.000182	1.817890	0.615918	-0.014519
1419	7.0900e-01	-16.6696	-83.567820	0.000343	3.433793	1.163400	-0.027425
1420	7.0950e-01	-16.7145	-83.664614	0.000242	2.423854	0.821224	-0.019359
1421	7.1000e-01	-16.7562	-83.882401	0.000545	5.453671	1.847754	-0.043557
1422	7.1050e-01	-16.7899	-84.092122	0.000525	5.251683	1.779318	-0.041944
1423	7.1100e-01	-16.8364	-84.309910	0.000545	5.453671	1.847754	-0.043557
1424	7.1150e-01	-16.8701	-84.551896	0.000606	6.059634	2.053060	-0.048397
1425	7.1200e-01	-16.9086	-84.588194	0.000091	0.908945	0.307959	-0.007260
1426	7.1250e-01	-16.9551	-84.914875	0.000818	8.180506	2.771630	-0.065336
1427	7.1300e-01	-16.9968	-85.047967	0.000333	3.332799	1.129183	-0.026618
1428	7.1350e-01	-17.0418	-85.116529	0.000172	1.716896	0.581700	-0.013713
1429	7.1400e-01	-17.0722	-85.298019	0.000454	4.544726	1.539795	-0.036298
1430	7.1450e-01	-17.1043	-85.487575	0.000475	4.746713	1.608230	-0.037911
1431	7.1500e-01	-17.1525	-85.673097	0.000465	4.645719	1.574012	-0.037105
1432	7.1550e-01	-17.1942	-85.834421	0.000404	4.039756	1.368706	-0.032265
1433	7.1600e-01	-17.2327	-85.890884	0.000141	1.413915	0.479047	-0.011293
1434	7.1650e-01	-17.2728	-85.882818	-0.000020	-0.201988	-0.068435	0.001613
1435	7.1700e-01	-17.3113	-86.338558	0.001141	11.412311	3.866596	-0.091148
1436	7.1750e-01	-17.3498	-86.588610	0.000626	6.261622	2.121495	-0.050010
1437	7.1800e-01	-17.4043	-86.580544	-0.000020	-0.201988	-0.068435	0.001613
1438	7.1850e-01	-17.4396	-86.673306	0.000232	2.322860	0.787006	-0.018552
1439	7.1900e-01	-17.4861	-86.903192	0.000576	5.756652	1.950407	-0.045977
1440	7.1950e-01	-17.5214	-87.120979	0.000545	5.453671	1.847754	-0.043557
1441	7.2000e-01	-17.5599	-87.346833	0.000566	5.655658	1.916189	-0.045171
1442	7.2050e-01	-17.5888	-87.564620	0.000545	5.453671	1.847754	-0.043557
1443	7.2100e-01	-17.6417	-87.846937	0.000707	7.069573	2.395236	-0.056463
1444	7.2150e-01	-17.6770	-87.923566	0.000192	1.918884	0.650136	-0.015326
1445	7.2200e-01	-17.7188	-88.020360	0.000242	2.423854	0.821224	-0.019359
1446	7.2250e-01	-17.7556	-88.185717	0.000414	4.140750	1.402924	-0.033071
1447	7.2300e-01	-17.8006	-88.250247	0.000162	1.615902	0.547483	-0.012906
1448	7.2350e-01	-17.8359	-88.552729	0.000757	7.574543	2.566324	-0.060496
1449	7.2400e-01	-17.8663	-88.774550	0.000555	5.554665	1.881971	-0.044364
1450	7.2450e-01	-17.9129	-88.843113	0.000172	1.716896	0.581700	-0.013713
1451	7.2500e-01	-17.9482	-89.064933	0.000555	5.554665	1.881971	-0.044364
1452	7.2550e-01	-17.9979	-89.109297	0.000111	1.110933	0.376394	-0.008873
1453	7.2600e-01	-18.0284	-89.411779	0.000757	7.574543	2.566324	-0.060496
1454	7.2650e-01	-18.0765	-89.686030	0.000687	6.867585	2.326801	-0.054850
1455	7.2700e-01	-18.1150	-89.746527	0.000151	1.514909	0.513265	-0.012099
1456	7.2750e-01	-18.1599	-89.758626	0.000030	0.302982	0.102653	-0.002420
1457	7.2800e-01	-18.1952	-90.004645	0.000616	6.160628	2.087277	-0.049204
1458	7.2850e-01	-18.2305	-90.420054	0.001040	10.402372	3.524419	-0.083082
1459	7.2900e-01	-18.2658	-90.395856	-0.000061	-0.605963	-0.205306	0.004840
1460	7.2950e-01	-18.3091	-90.641875	0.000616	6.160628	2.087277	-0.049204
1461	7.3000e-01	-18.3508	-90.992754	0.000879	8.786469	2.976936	-0.070176
1462	7.3050e-01	-18.3989	-91.146012	0.000384	3.837768	1.300271	-0.030652
1463	7.3100e-01	-18.4439	-91.194409	0.000121	1.211927	0.410612	-0.009679
1464	7.3150e-01	-18.4776	-91.363799	0.000424	4.241744	1.437142	-0.033878
1465	7.3200e-01	-18.5096	-91.702579	0.000848	8.483488	2.874283	-0.067756
1466	7.3250e-01	-18.5481	-91.613851	-0.000222	-2.221866	-0.752789	0.017746
1467	7.3300e-01	-18.5931	-91.783241	0.000424	4.241744	1.437142	-0.033878
1468	7.3350e-01	-18.6332	-91.944565	0.000404	4.039756	1.368706	-0.032265
1469	7.3400e-01	-18.6733	-92.226882	0.000707	7.069573	2.395236	-0.056463
1470	7.3450e-01	-18.7182	-92.279313	0.000131	1.312921	0.444830	-0.010486
1471	7.3500e-01	-18.7583	-92.468868	0.000475	4.746713	1.608230	-0.037911
1472	7.3550e-01	-18.7888	-92.642291	0.000434	4.342738	1.471359	-0.034685
1473	7.3600e-01	-18.8353	-92.993171	0.000879	8.786469	2.976936	-0.070176
1474	7.3650e-01	-18.8706	-93.085932	0.000232	2.322860	0.787006	-0.018552
1475	7.3700e-01	-18.9155	-93.364216	0.000697	6.968579	2.361019	-0.055657
1476	7.3750e-01	-18.9540	-93.602169	0.000596	5.958640	2.018842	-0.047591
1477	7.3800e-01	-18.9861	-93.707029	0.000263	2.625841	0.889659	-0.020972
1478	7.3850e-01	-19.0326	-93.694930	-0.000030	-0.302982	-0.102653	0.002420
1479	7.3900e-01	-19.0759	-93.751394	0.000141	1.413915	0.479047	-0.011293
1480	7.3950e-01	-19.1176	-93.908684	0.000394	3.938762	1.334489	-0.031458
1481	7.4000e-01	-19.1513	-94.211167	0.000757	7.574543	2.566324	-0.060496
1482	7.4050e-01	-19.1898	-94.465252	0.000636	6.362616	2.155713	-0.050817
1483	7.4100e-01	-19.2380	-94.646741	0.000454	4.544726	1.539795	-0.036298
1484	7.4150e-01	-19.2604	-94.888727	0.000606	6.059634	2.053060	-0.048397
1485	7.4200e-01	-19.3150	-95.312203	0.001060	10.604360	3.592854	-0.084695
1486	7.4250e-01	-19.3487	-95.320269	0.000020	0.201988	0.068435	-0.001613
1487	7.4300e-01	-19.3936	-95.453361	0.000333	3.332799	1.129183	-0.026618
1488	7.4350e-01	-19.4401	-95.610652	0.000394	3.938762	1.334489	-0.031458
1489	7.4400e-01	-19.4738	-95.824406	0.000535	5.352677	1.813536	-0.042751
1490	7.4450e-01	-19.5059	-96.001863	0.000444	4.443732	1.505577	-0.035491
1491	7.4500e-01	-19.5572	-96.086558	0.000212	2.120872	0.718571	-0.016939
1492	7.4550e-01	-19.5861	-96.360808	0.000687	6.867585	2.326801	-0.054850
1493	7.4600e-01	-19.6278	-96.489868	0.000323	3.231805	1.094965	-0.025812
1494	7.4650e-01	-19.6599	-96.554397	0.000162	1.615902	0.547483	-0.012906
1495	7.4700e-01	-19.7144	-96.784284	0.000576	5.756652	1.950407	-0.045977
1496	7.4750e-01	-19.7497	-97.046435	0.000656	6.564604	2.224148	-0.052430
1497	7.4800e-01	-19.7994	-97.397315	0.000879	8.786469	2.976936	-0.070176
1498	7.4850e-01	-19.8331	-97.477977	0.000202	2.019878	0.684353	-0.016132
1499	7.4900e-01	-19.8780	-97.623168	0.000364	3.635780	1.231836	-0.029038
1500	7.4950e-01	-19.9133	-97.655433	0.000081	0.807951	0.273741	-0.006453
1501	7.5000e-01	-19.9534	-97.715929	0.000151	1.514909	0.513265	-0.012099
1502	7.5050e-01	-19.9583	-97.897419	0.000454	4.544726	1.539795	-0.036298
1503	7.5100e-01	-19.9294	-97.913551	-0.000040	-0.403976	-0.136871	-0.003226
1504	7.5150e-01	-19.9005	-97.820790	0.000232	2.322860	0.787006	0.018552
1505	7.5200e-01	-19.8556	-97.619135	0.000505	5.049695	1.710883	0.040331
1506	7.5250e-01	-19.8203	-97.655433	-0.000091	-0.908945	-0.307959	-0.007260
1507	7.5300e-01	-19.7786	-97.457811	0.000495	4.948701	1.676665	0.039524
1508	7.5350e-01	-19.7401	-97.276322	0.000454	4.544726	1.539795	0.036298
1509	7.5400e-01	-19.7096	-97.135163	0.000353	3.534787	1.197618	0.028232
1510	7.5450e-01	-19.6567	-97.066601	0.000172	1.716896	0.581700	0.013713
1511	7.5500e-01	-19.6182	-96.929475	0.000343	3.433793	1.163400	0.027425
1512	7.5550e-01	-19.5765	-96.893177	0.000091	0.908945	0.307959	0.007260
1513	7.5600e-01	-19.5412	-96.800416	0.000232	2.322860	0.787006	0.018552
1514	7.5650e-01	-19.5011	-96.739920	0.000151	1.514909	0.513265	0.012099
1515	7.5700e-01	-19.4561	-96.441470	0.000747	7.473549	2.532107	0.059690
1516	7.5750e-01	-19.4144	-96.518099	-0.000192	-1.918884	-0.650136	-0.015326
1517	7.5800e-01	-19.3791	-96.320477	0.000495	4.948701	1.676665	0.039524
1518	7.5850e-01	-19.3406	-96.022028	0.000747	7.473549	2.532107	0.059690
1519	7.5900e-01	-19.2941	-96.292246	-0.000677	-6.766591	-2.292583	-0.054044
1520	7.5950e-01	-19.2492	-96.147054	0.000364	3.635780	1.231836	0.029038
1521	7.6000e-01	-19.2299	-95.848605	0.000747	7.473549	2.532107	0.059690
1522	7.6050e-01	-19.1754	-95.937333	-0.000222	-2.221866	-0.752789	-0.017746
1523	7.6100e-01	-19.1273	-95.602586	0.000838	8.382494	2.840066	0.066949
1524	7.6150e-01	-19.1064	-95.259772	0.000858	8.584482	2.908501	0.068563
1525	7.6200e-01	-19.0663	-95.501758	-0.000606	-6.059634	-2.053060	-0.048397
1526	7.6250e-01	-19.0214	-95.348501	0.000384	3.837768	1.300271	0.030652
1527	7.6300e-01	-18.9845	-95.279938	0.000172	1.716896	0.581700	0.013713
1528	7.6350e-01	-18.9412	-94.993588	0.000717	7.170567	2.429454	0.057270
1529	7.6400e-01	-18.8963	-95.013753	-0.000050	-0.504970	-0.171088	-0.004033
1530	7.6450e-01	-18.8562	-94.674973	0.000848	8.483488	2.874283	0.067756
1531	7.6500e-01	-18.8080	-94.731437	-0.000141	-1.413915	-0.479047	-0.011293
1532	7.6550e-01	-18.7791	-94.562046	0.000424	4.241744	1.437142	0.033878
1533	7.6600e-01	-18.7374	-94.541881	0.000050	0.504970	0.171088	0.004033
1534	7.6650e-01	-18.6973	-94.247465	0.000737	7.372555	2.497889	0.058883
1535	7.6700e-01	-18.6620	-93.953048	0.000737	7.372555	2.497889	0.058883
1536	7.6750e-01	-18.6300	-93.924817	0.000071	0.706957	0.239524	0.005646
1537	7.6800e-01	-18.5915	-93.735261	0.000475	4.746713	1.608230	0.037911
1538	7.6850e-01	-18.5401	-93.892552	-0.000394	-3.938762	-1.334489	-0.031458
1539	7.6900e-01	-18.4984	-93.642500	0.000626	6.261622	2.121495	0.050010
1540	7.6950e-01	-18.4599	-93.444878	0.000495	4.948701	1.676665	0.039524
1541	7.7000e-01	-18.4230	-93.388415	0.000141	1.413915	0.479047	0.011293
1542	7.7050e-01	-18.3717	-93.126263	0.000656	6.564604	2.224148	0.052430
1543	7.7100e-01	-18.3316	-93.033502	0.000232	2.322860	0.787006	0.018552
1544	7.7150e-01	-18.3091	-92.924608	0.000273	2.726835	0.923877	0.021779
1545	7.7200e-01	-18.2674	-92.618093	0.000768	7.675536	2.600542	0.061303
1546	7.7250e-01	-18.2161	-92.831847	-0.000535	-5.352677	-1.813536	-0.042751
1547	7.7300e-01	-18.1920	-92.561629	0.000677	6.766591	2.292583	0.054044
1548	7.7350e-01	-18.1407	-92.351908	0.000525	5.251683	1.779318	0.041944
1549	7.7400e-01	-18.1006	-92.142187	0.000525	5.251683	1.779318	0.041944
1550	7.7450e-01	-18.0556	-92.077658	0.000162	1.615902	0.547483	0.012906
1551	7.7500e-01	-18.0220	-91.940532	0.000343	3.433793	1.163400	0.027425
1552	7.7550e-01	-17.9802	-91.710646	0.000576	5.756652	1.950407	0.045977
1553	7.7600e-01	-17.9401	-91.690480	0.000050	0.504970	0.171088	0.004033
1554	7.7650e-01	-17.9000	-91.843738	-0.000384	-3.837768	-1.300271	-0.030652
1555	7.7700e-01	-17.8615	-91.456560	0.000970	9.695414	3.284895	0.077435
1556	7.7750e-01	-17.8150	-91.182310	0.000687	6.867585	2.326801	0.054850
1557	7.7800e-01	-17.7829	-91.020986	0.000404	4.039756	1.368706	0.032265
1558	7.7850e-01	-17.7444	-90.895960	0.000313	3.130811	1.060747	0.025005
1559	7.7900e-01	-17.7027	-90.815298	0.000202	2.019878	0.684353	0.016132
1560	7.7950e-01	-17.6578	-90.831430	-0.000040	-0.403976	-0.136871	-0.003226
1561	7.8000e-01	-17.6225	-90.682206	0.000374	3.736774	1.266053	0.029845
1562	7.8050e-01	-17.5808	-90.488617	0.000485	4.847707	1.642448	0.038718
1563	7.8100e-01	-17.5439	-90.242598	0.000616	6.160628	2.087277	0.049204
1564	7.8150e-01	-17.5054	-90.262763	-0.000050	-0.504970	-0.171088	-0.004033
1565	7.8200e-01	-17.4637	-90.125638	0.000343	3.433793	1.163400	0.027425
1566	7.8250e-01	-17.4156	-90.137737	-0.000030	-0.302982	-0.102653	-0.002420
1567	7.8300e-01	-17.3770	-89.811056	0.000818	8.180506	2.771630	0.065336
1568	7.8350e-01	-17.3353	-89.661832	0.000374	3.736774	1.266053	0.029845
1569	7.8400e-01	-17.3000	-89.637633	0.000061	0.605963	0.205306	0.004840
1570	7.8450e-01	-17.2583	-89.387581	0.000626	6.261622	2.121495	0.050010
1571	7.8500e-01	-17.2246	-89.222224	0.000414	4.140750	1.402924	0.033071
1572	7.8550e-01	-17.1749	-88.960072	0.000656	6.564604	2.224148	0.052430
1573	7.8600e-01	-17.1428	-88.879410	0.000202	2.019878	0.684353	0.016132
1574	7.8650e-01	-17.1011	-88.802782	0.000192	1.918884	0.650136	0.015326
1575	7.8700e-01	-17.0578	-88.613226	0.000475	4.746713	1.608230	0.037911
1576	7.8750e-01	-17.0289	-88.423670	0.000475	4.746713	1.608230	0.037911
1577	7.8800e-01	-16.9824	-88.347041	0.000192	1.918884	0.650136	0.015326
1578	7.8850e-01	-16.9359	-88.052625	0.000737	7.372555	2.497889	0.058883
1579	7.8900e-01	-16.9038	-88.088923	-0.000091	-0.908945	-0.307959	-0.007260
1580	7.8950e-01	-16.8525	-88.016327	0.000182	1.817890	0.615918	0.014519
1581	7.9000e-01	-16.8188	-87.806606	0.000525	5.251683	1.779318	0.041944
1582	7.9050e-01	-16.7803	-87.677547	0.000323	3.231805	1.094965	0.025812
1583	7.9100e-01	-16.7402	-87.592852	0.000212	2.120872	0.718571	0.016939
1584	7.9150e-01	-16.6969	-87.435561	0.000394	3.938762	1.334489	0.031458
1585	7.9200e-01	-16.6600	-87.294403	0.000353	3.534787	1.197618	0.028232
1586	7.9250e-01	-16.6150	-86.927391	0.000919	9.190445	3.113807	0.073402
1587	7.9300e-01	-16.5862	-86.935457	-0.000020	-0.201988	-0.068435	-0.001613
1588	7.9350e-01	-16.5380	-86.721703	0.000535	5.352677	1.813536	0.042751
1589	7.9400e-01	-16.4995	-86.475684	0.000616	6.160628	2.087277	0.049204
1590	7.9450e-01	-16.4546	-86.475684	0.000000	0.000000	0.000000	0.000000
1591	7.9500e-01	-16.4193	-86.213532	0.000656	6.564604	2.224148	0.052430
1592	7.9550e-01	-16.3856	-86.350658	-0.000343	-3.433793	-1.163400	-0.027425
1593	7.9600e-01	-16.3439	-86.092539	0.000646	6.463610	2.189930	0.051624
1594	7.9650e-01	-16.2942	-86.003811	0.000222	2.221866	0.752789	0.017746
1595	7.9700e-01	-16.2621	-85.632766	0.000929	9.291439	3.148025	0.074209
1596	7.9750e-01	-16.2124	-85.467409	0.000414	4.140750	1.402924	0.033071
1597	7.9800e-01	-16.1707	-85.362548	0.000263	2.625841	0.889659	0.020972
1598	7.9850e-01	-16.1434	-85.152827	0.000525	5.251683	1.779318	0.041944
1599	7.9900e-01	-16.1001	-85.197191	-0.000111	-1.110933	-0.376394	-0.008873
1600	7.9950e-01	-16.0584	-84.773716	0.001060	10.604360	3.592854	0.084695
1601	8.0000e-01	-16.0231	-84.882610	-0.000273	-2.726835	-0.923877	-0.021779
1602	8.0050e-01	-15.9830	-84.507532	0.000939	9.392433	3.182242	0.075016
1603	8.0100e-01	-15.9541	-84.495432	0.000030	0.302982	0.102653	0.002420
1604	8.0150e-01	-15.9044	-84.402671	0.000232	2.322860	0.787006	0.018552
1605	8.0200e-01	-15.8610	-84.305877	0.000242	2.423854	0.821224	0.019359
1606	8.0250e-01	-15.8225	-84.152619	0.000384	3.837768	1.300271	0.030652
1607	8.0300e-01	-15.7905	-83.906600	0.000616	6.160628	2.087277	0.049204
1608	8.0350e-01	-15.7423	-83.749309	0.000394	3.938762	1.334489	0.031458
1609	8.0400e-01	-15.6974	-83.725110	0.000061	0.605963	0.205306	0.004840
1610	8.0450e-01	-15.6589	-83.475058	0.000626	6.261622	2.121495	0.050010
1611	8.0500e-01	-15.6204	-83.499257	-0.000061	-0.605963	-0.205306	-0.004840
1612	8.0550e-01	-15.5787	-83.329867	0.000424	4.241744	1.437142	0.033878
1613	8.0600e-01	-15.5402	-83.087881	0.000606	6.059634	2.053060	0.048397
1614	8.0650e-01	-15.5081	-82.769266	0.000798	7.978518	2.703195	0.063723
1615	8.0700e-01	-15.4680	-82.805564	-0.000091	-0.908945	-0.307959	-0.007260
1616	8.0750e-01	-15.4215	-82.753134	0.000131	1.312921	0.444830	0.010486
1617	8.0800e-01	-15.3878	-82.394188	0.000899	8.988457	3.045372	0.071789
1618	8.0850e-01	-15.3365	-82.240930	0.000384	3.837768	1.300271	0.030652
1619	8.0900e-01	-15.2996	-82.071540	0.000424	4.241744	1.437142	0.033878
1620	8.0950e-01	-15.2546	-81.954580	0.000293	2.928823	0.992312	0.023392
1621	8.1000e-01	-15.2274	-81.857786	0.000242	2.423854	0.821224	0.019359
1622	8.1050e-01	-15.1728	-81.567403	0.000727	7.271561	2.463672	0.058077
1623	8.1100e-01	-15.1375	-81.353648	0.000535	5.352677	1.813536	0.042751
1624	8.1150e-01	-15.1039	-81.494807	-0.000353	-3.534787	-1.197618	-0.028232
1625	8.1200e-01	-15.0605	-81.281053	0.000535	5.352677	1.813536	0.042751
1626	8.1250e-01	-15.0252	-81.067298	0.000535	5.352677	1.813536	0.042751
1627	8.1300e-01	-14.9819	-80.877743	0.000475	4.746713	1.608230	0.037911
1628	8.1350e-01	-14.9402	-80.817246	0.000151	1.514909	0.513265	0.012099
1629	8.1400e-01	-14.8969	-80.530896	0.000717	7.170567	2.429454	0.057270
1630	8.1450e-01	-14.8616	-80.530896	0.000000	0.000000	0.000000	0.000000
1631	8.1500e-01	-14.8199	-80.200182	0.000828	8.281500	2.805848	0.066143
1632	8.1550e-01	-14.7766	-79.974329	0.000566	5.655658	1.916189	0.045171
1633	8.1600e-01	-14.7413	-80.050958	-0.000192	-1.918884	-0.650136	-0.015326
1634	8.1650e-01	-14.7044	-79.599251	0.001131	11.311317	3.832378	0.090341
1635	8.1700e-01	-14.6675	-79.280636	0.000798	7.978518	2.703195	0.063723
1636	8.1750e-01	-14.6114	-79.357265	-0.000192	-1.918884	-0.650136	-0.015326
1637	8.1800e-01	-14.5745	-79.316934	0.000101	1.009939	0.342177	0.008066
1638	8.1850e-01	-14.5424	-79.232239	0.000212	2.120872	0.718571	0.016939
1639	8.1900e-01	-14.5023	-79.066882	0.000414	4.140750	1.402924	0.033071
1640	8.1950e-01	-14.4654	-78.893458	0.000434	4.342738	1.471359	0.034685
1641	8.2000e-01	-14.4221	-78.639373	0.000636	6.362616	2.155713	0.050817
1642	8.2050e-01	-14.3787	-78.724068	-0.000212	-2.120872	-0.718571	-0.016939
1643	8.2100e-01	-14.3483	-78.256229	0.001172	11.715292	3.969249	0.093568
1644	8.2150e-01	-14.2937	-78.058607	0.000495	4.948701	1.676665	0.039524
1645	8.2200e-01	-14.2568	-78.026342	0.000081	0.807951	0.273741	0.006453
1646	8.2250e-01	-14.2183	-77.824687	0.000505	5.049695	1.710883	0.040331
1647	8.2300e-01	-14.1814	-77.719827	0.000263	2.625841	0.889659	0.020972
1648	8.2350e-01	-14.1493	-77.671429	0.000121	1.211927	0.410612	0.009679
1649	8.2400e-01	-14.1060	-77.469775	0.000505	5.049695	1.710883	0.040331
1650	8.2450e-01	-14.0547	-77.377013	0.000232	2.322860	0.787006	0.018552
1651	8.2500e-01	-14.0226	-77.074531	0.000757	7.574543	2.566324	0.060496
1652	8.2550e-01	-13.9761	-77.118895	-0.000111	-1.110933	-0.376394	-0.008873
1653	8.2600e-01	-13.9424	-76.852710	0.000667	6.665597	2.258366	0.053237
1654	8.2650e-01	-13.8878	-76.743817	0.000273	2.726835	0.923877	0.021779
1655	8.2700e-01	-13.8606	-76.425202	0.000798	7.978518	2.703195	0.063723
1656	8.2750e-01	-13.8189	-76.243713	0.000454	4.544726	1.539795	0.036298
1657	8.2800e-01	-13.7852	-76.142885	0.000252	2.524848	0.855441	0.020165
1658	8.2850e-01	-13.7322	-76.098521	0.000111	1.110933	0.376394	0.008873
1659	8.2900e-01	-13.7050	-75.852502	0.000616	6.160628	2.087277	0.049204
1660	8.2950e-01	-13.6552	-75.949296	-0.000242	-2.423854	-0.821224	-0.019359
1661	8.3000e-01	-13.6103	-75.662946	0.000717	7.170567	2.429454	0.057270
1662	8.3050e-01	-13.5798	-75.380629	0.000707	7.069573	2.395236	0.056463
1663	8.3100e-01	-13.5365	-75.102346	0.000697	6.968579	2.361019	0.055657
1664	8.3150e-01	-13.5044	-75.106379	-0.000010	-0.100994	-0.034218	-0.000807
1665	8.3200e-01	-13.4659	-75.045882	0.000151	1.514909	0.513265	0.012099
1666	8.3250e-01	-13.4178	-74.912790	0.000333	3.332799	1.129183	0.026618
1667	8.3300e-01	-13.3761	-74.686936	0.000566	5.655658	1.916189	0.045171
1668	8.3350e-01	-13.3296	-74.388487	0.000747	7.473549	2.532107	0.059690
1669	8.3400e-01	-13.3023	-74.130369	0.000646	6.463610	2.189930	0.051624
1670	8.3450e-01	-13.2478	-74.267494	-0.000343	-3.433793	-1.163400	-0.027425
1671	8.3500e-01	-13.2205	-73.948879	0.000798	7.978518	2.703195	0.063723
1672	8.3550e-01	-13.1756	-73.674629	0.000687	6.867585	2.326801	0.054850
1673	8.3600e-01	-13.1371	-73.460874	0.000535	5.352677	1.813536	0.042751
1674	8.3650e-01	-13.0970	-73.392312	0.000172	1.716896	0.581700	0.013713
1675	8.3700e-01	-13.0617	-73.372146	0.000050	0.504970	0.171088	0.004033
1676	8.3750e-01	-13.0232	-73.247120	0.000313	3.130811	1.060747	0.025005
1677	8.3800e-01	-12.9911	-72.880108	0.000919	9.190445	3.113807	0.073402
1678	8.3850e-01	-12.9381	-72.868009	0.000030	0.302982	0.102653	0.002420
1679	8.3900e-01	-12.8996	-72.355805	0.001283	12.826225	4.345643	0.102441
1680	8.3950e-01	-12.8676	-72.388070	-0.000081	-0.807951	-0.273741	-0.006453
1681	8.4000e-01	-12.8226	-72.416302	-0.000071	-0.706957	-0.239524	-0.005646
1682	8.4050e-01	-12.7793	-72.238846	0.000444	4.443732	1.505577	0.035491
1683	8.4100e-01	-12.7408	-71.867801	0.000929	9.291439	3.148025	0.074209
1684	8.4150e-01	-12.6943	-71.613715	0.000636	6.362616	2.155713	0.050817
1685	8.4200e-01	-12.6558	-71.698410	-0.000212	-2.120872	-0.718571	-0.016939
1686	8.4250e-01	-12.6221	-71.432226	0.000667	6.665597	2.258366	0.053237
1687	8.4300e-01	-12.5900	-71.198306	0.000586	5.857646	1.984624	0.046784
1688	8.4350e-01	-12.5419	-71.166041	0.000081	0.807951	0.273741	0.006453
1689	8.4400e-01	-12.4954	-71.238637	-0.000182	-1.817890	-0.615918	-0.014519
1690	8.4450e-01	-12.4681	-71.065214	0.000434	4.342738	1.471359	0.034685
1691	8.4500e-01	-12.4216	-70.778864	0.000717	7.170567	2.429454	0.057270
1692	8.4550e-01	-12.3831	-70.440084	0.000848	8.483488	2.874283	0.067756
1693	8.4600e-01	-12.3414	-70.258594	0.000454	4.544726	1.539795	0.036298
1694	8.4650e-01	-12.2997	-70.133568	0.000313	3.130811	1.060747	0.025005
1695	8.4700e-01	-12.2676	-69.923847	0.000525	5.251683	1.779318	0.041944
1696	8.4750e-01	-12.2259	-69.754457	0.000424	4.241744	1.437142	0.033878
1697	8.4800e-01	-12.1729	-69.560868	0.000485	4.847707	1.642448	0.038718
1698	8.4850e-01	-12.1360	-69.552802	0.000020	0.201988	0.068435	0.001613
1699	8.4900e-01	-12.0975	-69.185790	0.000919	9.190445	3.113807	0.073402
1700	8.4950e-01	-12.0638	-69.169658	0.000040	0.403976	0.136871	0.003226
1701	8.5000e-01	-12.0141	-69.133360	0.000091	0.908945	0.307959	0.007260
1702	8.5050e-01	-11.9708	-68.778447	0.000889	8.887463	3.011154	0.070983
1703	8.5100e-01	-11.9387	-68.847010	-0.000172	-1.716896	-0.581700	-0.013713
1704	8.5150e-01	-11.8906	-68.778447	0.000172	1.716896	0.581700	0.013713
1705	8.5200e-01	-11.8697	-68.439667	0.000848	8.483488	2.874283	0.067756
1706	8.5250e-01	-11.8296	-68.363038	0.000192	1.918884	0.650136	0.015326
1707	8.5300e-01	-11.7799	-68.068622	0.000737	7.372555	2.497889	0.058883
1708	8.5350e-01	-11.7446	-67.939563	0.000323	3.231805	1.094965	0.025812
1709	8.5400e-01	-11.6981	-67.612882	0.000818	8.180506	2.771630	0.065336
1710	8.5450e-01	-11.6660	-67.467690	0.000364	3.635780	1.231836	0.029038
1711	8.5500e-01	-11.6243	-67.423326	0.000111	1.110933	0.376394	0.008873
1712	8.5550e-01	-11.5890	-67.221671	0.000505	5.049695	1.710883	0.040331
1713	8.5600e-01	-11.5457	-67.056314	0.000414	4.140750	1.402924	0.033071
1714	8.5650e-01	-11.5056	-66.818361	0.000596	5.958640	2.018842	0.047591
1715	8.5700e-01	-11.4574	-66.697368	0.000303	3.029817	1.026530	0.024199
1716	8.5750e-01	-11.4141	-66.596541	0.000252	2.524848	0.855441	0.020165
1717	8.5800e-01	-11.3772	-66.370687	0.000566	5.655658	1.916189	0.045171
1718	8.5850e-01	-11.3403	-66.124668	0.000616	6.160628	2.087277	0.049204
1719	8.5900e-01	-11.2986	-65.882682	0.000606	6.059634	2.053060	0.048397
1720	8.5950e-01	-11.2585	-65.777822	0.000263	2.625841	0.889659	0.020972
1721	8.6000e-01	-11.2200	-65.519703	0.000646	6.463610	2.189930	0.051624
1722	8.6050e-01	-11.1847	-65.451141	0.000172	1.716896	0.581700	0.013713
1723	8.6100e-01	-11.1542	-65.386611	0.000162	1.615902	0.547483	0.012906
1724	8.6150e-01	-11.1093	-65.015566	0.000929	9.291439	3.148025	0.074209
1725	8.6200e-01	-11.0580	-65.080096	-0.000162	-1.615902	-0.547483	-0.012906
1726	8.6250e-01	-11.0227	-64.797779	0.000707	7.069573	2.395236	0.056463
1727	8.6300e-01	-10.9858	-64.616289	0.000454	4.544726	1.539795	0.036298
1728	8.6350e-01	-10.9425	-64.463032	0.000384	3.837768	1.300271	0.030652
1729	8.6400e-01	-10.9040	-64.317840	0.000364	3.635780	1.231836	0.029038
1730	8.6450e-01	-10.8655	-64.172648	0.000364	3.635780	1.231836	0.029038
1731	8.6500e-01	-10.8206	-63.938729	0.000586	5.857646	1.984624	0.046784
1732	8.6550e-01	-10.7820	-63.761272	0.000444	4.443732	1.505577	0.035491
1733	8.6600e-01	-10.7291	-63.620114	0.000353	3.534787	1.197618	0.028232
1734	8.6650e-01	-10.6970	-63.462823	0.000394	3.938762	1.334489	0.031458
1735	8.6700e-01	-10.6537	-63.345863	0.000293	2.928823	0.992312	0.023392
1736	8.6750e-01	-10.6296	-63.128076	0.000545	5.453671	1.847754	0.043557
1737	8.6800e-01	-10.5847	-63.019182	0.000273	2.726835	0.923877	0.021779
1738	8.6850e-01	-10.5542	-62.777196	0.000606	6.059634	2.053060	0.048397
1739	8.6900e-01	-10.5093	-62.494879	0.000707	7.069573	2.395236	0.056463
1740	8.6950e-01	-10.4676	-62.410184	0.000212	2.120872	0.718571	0.016939
1741	8.7000e-01	-10.4211	-62.273059	0.000343	3.433793	1.163400	0.027425
1742	8.7050e-01	-10.3810	-62.103669	0.000424	4.241744	1.437142	0.033878
1743	8.7100e-01	-10.3425	-61.801186	0.000757	7.574543	2.566324	0.060496
1744	8.7150e-01	-10.3072	-61.567267	0.000586	5.857646	1.984624	0.046784
1745	8.7200e-01	-10.2591	-61.664061	-0.000242	-2.423854	-0.821224	-0.019359
1746	8.7250e-01	-10.2206	-61.494671	0.000424	4.241744	1.437142	0.033878
1747	8.7300e-01	-10.1805	-61.401910	0.000232	2.322860	0.787006	0.018552
1748	8.7350e-01	-10.1436	-61.115560	0.000717	7.170567	2.429454	0.057270
1749	8.7400e-01	-10.0986	-60.909872	0.000515	5.150689	1.745101	0.041138
1750	8.7450e-01	-10.0617	-60.571091	0.000848	8.483488	2.874283	0.067756
1751	8.7500e-01	-10.0281	-60.510595	0.000151	1.514909	0.513265	0.012099
1752	8.7550e-01	-9.9751	-60.417834	0.000232	2.322860	0.787006	0.018552
1753	8.7600e-01	-9.9462	-60.103252	0.000788	7.877524	2.668977	0.062916
1754	8.7650e-01	-9.8965	-60.155682	-0.000131	-1.312921	-0.444830	-0.010486
1755	8.7700e-01	-9.8628	-59.772538	0.000959	9.594421	3.250678	0.076629
1756	8.7750e-01	-9.8179	-59.623313	0.000374	3.736774	1.266053	0.029845
1757	8.7800e-01	-9.7826	-59.240169	0.000959	9.594421	3.250678	0.076629
1758	8.7850e-01	-9.7377	-59.397460	-0.000394	-3.938762	-1.334489	-0.031458
1759	8.7900e-01	-9.7024	-59.086911	0.000778	7.776530	2.634760	0.062110
1760	8.7950e-01	-9.6575	-58.752164	0.000838	8.382494	2.840066	0.066949
1761	8.8000e-01	-9.6094	-58.719899	0.000081	0.807951	0.273741	0.006453
1762	8.8050e-01	-9.5709	-58.421450	0.000747	7.473549	2.532107	0.059690
1763	8.8100e-01	-9.5452	-58.264159	0.000394	3.938762	1.334489	0.031458
1764	8.8150e-01	-9.5067	-58.135100	0.000323	3.231805	1.094965	0.025812
1765	8.8200e-01	-9.4570	-58.139133	-0.000010	-0.100994	-0.034218	-0.000807
1766	8.8250e-01	-9.4217	-57.860849	0.000697	6.968579	2.361019	0.055657
1767	8.8300e-01	-9.3848	-57.651128	0.000525	5.251683	1.779318	0.041944
1768	8.8350e-01	-9.3463	-57.308315	0.000858	8.584482	2.908501	0.068563
1769	8.8400e-01	-9.3046	-57.457539	-0.000374	-3.736774	-1.266053	-0.029845
1770	8.8450e-01	-9.2580	-57.030031	0.001071	10.705353	3.627072	0.085502
1771	8.8500e-01	-9.2195	-56.812243	0.000545	5.453671	1.847754	0.043557
1772	8.8550e-01	-9.1810	-56.767879	0.000111	1.110933	0.376394	0.008873
1773	8.8600e-01	-9.1441	-56.271808	0.001242	12.422250	4.208772	0.099214
1774	8.8650e-01	-9.1008	-56.275841	-0.000010	-0.100994	-0.034218	-0.000807
1775	8.8700e-01	-9.0511	-56.372636	-0.000242	-2.423854	-0.821224	-0.019359
1776	8.8750e-01	-9.0142	-56.021756	0.000879	8.786469	2.976936	0.070176
1777	8.8800e-01	-8.9757	-55.808002	0.000535	5.352677	1.813536	0.042751
1778	8.8850e-01	-8.9276	-55.610380	0.000495	4.948701	1.676665	0.039524
1779	8.8900e-01	-8.9051	-55.642645	-0.000081	-0.807951	-0.273741	-0.006453
1780	8.8950e-01	-8.8538	-55.404692	0.000596	5.958640	2.018842	0.047591
1781	8.9000e-01	-8.8201	-55.190938	0.000535	5.352677	1.813536	0.042751
1782	8.9050e-01	-8.7703	-55.094143	0.000242	2.423854	0.821224	0.019359
1783	8.9100e-01	-8.7431	-55.061879	0.000081	0.807951	0.273741	0.006453
1784	8.9150e-01	-8.6965	-54.755363	0.000768	7.675536	2.600542	0.061303
1785	8.9200e-01	-8.6596	-54.602105	0.000384	3.837768	1.300271	0.030652
1786	8.9250e-01	-8.6147	-54.210895	0.000980	9.796408	3.319113	0.078242
1787	8.9300e-01	-8.5826	-54.053604	0.000394	3.938762	1.334489	0.031458
1788	8.9350e-01	-8.5474	-53.807585	0.000616	6.160628	2.087277	0.049204
1789	8.9400e-01	-8.4992	-53.690625	0.000293	2.928823	0.992312	0.023392
1790	8.9450e-01	-8.4543	-53.597864	0.000232	2.322860	0.787006	0.018552
1791	8.9500e-01	-8.4174	-53.533334	0.000162	1.615902	0.547483	0.012906
1792	8.9550e-01	-8.3869	-53.271183	0.000656	6.564604	2.224148	0.052430
1793	8.9600e-01	-8.3372	-53.109859	0.000404	4.039756	1.368706	0.032265
1794	8.9650e-01	-8.2923	-52.875939	0.000586	5.857646	1.984624	0.046784
1795	8.9700e-01	-8.2586	-52.605722	0.000677	6.766591	2.292583	0.054044
1796	8.9750e-01	-8.2361	-52.335504	0.000677	6.766591	2.292583	0.054044
1797	8.9800e-01	-8.1864	-52.170147	0.000414	4.140750	1.402924	0.033071
1798	8.9850e-01	-8.1447	-51.899929	0.000677	6.766591	2.292583	0.054044
1799	8.9900e-01	-8.0982	-51.710374	0.000475	4.746713	1.608230	0.037911
1800	8.9950e-01	-8.0597	-51.641811	0.000172	1.716896	0.581700	0.013713
1801	9.0000e-01	-8.0212	-51.540984	0.000252	2.524848	0.855441	0.020165
1802	9.0050e-01	-7.9795	-51.254634	0.000717	7.170567	2.429454	0.057270
1803	9.0100e-01	-7.9410	-51.194137	0.000151	1.514909	0.513265	0.012099
1804	9.0150e-01	-7.9025	-51.161872	0.000081	0.807951	0.273741	0.006453
1805	9.0200e-01	-7.8639	-50.702099	0.001151	11.513305	3.900813	0.091955
1806	9.0250e-01	-7.8158	-50.552874	0.000374	3.736774	1.266053	0.029845
1807	9.0300e-01	-7.7789	-50.480279	0.000182	1.817890	0.615918	0.014519
1808	9.0350e-01	-7.7468	-50.274591	0.000515	5.150689	1.745101	0.041138
1809	9.0400e-01	-7.7019	-49.879347	0.000990	9.897402	3.353331	0.079049
1810	9.0450e-01	-7.6522	-49.826917	0.000131	1.312921	0.444830	0.010486
1811	9.0500e-01	-7.6201	-49.492169	0.000838	8.382494	2.840066	0.066949
1812	9.0550e-01	-7.5816	-49.407474	0.000212	2.120872	0.718571	0.016939
1813	9.0600e-01	-7.5447	-49.205819	0.000505	5.049695	1.710883	0.040331
1814	9.0650e-01	-7.4950	-49.149356	0.000141	1.413915	0.479047	0.011293
1815	9.0700e-01	-7.4565	-48.887205	0.000656	6.564604	2.224148	0.052430
1816	9.0750e-01	-7.4180	-48.721848	0.000414	4.140750	1.402924	0.033071
1817	9.0800e-01	-7.3795	-48.407266	0.000788	7.877524	2.668977	0.062916
1818	9.0850e-01	-7.3394	-48.370968	0.000091	0.908945	0.307959	0.007260
1819	9.0900e-01	-7.2993	-48.314505	0.000141	1.413915	0.479047	0.011293
1820	9.0950e-01	-7.2447	-48.193512	0.000303	3.029817	1.026530	0.024199
1821	9.1000e-01	-7.2126	-47.967658	0.000566	5.655658	1.916189	0.045171
1822	9.1050e-01	-7.1838	-47.713573	0.000636	6.362616	2.155713	0.050817
1823	9.1100e-01	-7.1372	-47.515951	0.000495	4.948701	1.676665	0.039524
1824	9.1150e-01	-7.1116	-47.132807	0.000959	9.594421	3.250678	0.076629
1825	9.1200e-01	-7.0522	-47.140873	-0.000020	-0.201988	-0.068435	-0.001613
1826	9.1250e-01	-7.0153	-46.939218	0.000505	5.049695	1.710883	0.040331
1827	9.1300e-01	-6.9784	-46.753696	0.000465	4.645719	1.574012	0.037105
1828	9.1350e-01	-6.9383	-46.600438	0.000384	3.837768	1.300271	0.030652
1829	9.1400e-01	-6.9062	-46.233426	0.000919	9.190445	3.113807	0.073402
1830	9.1450e-01	-6.8581	-46.039837	0.000485	4.847707	1.642448	0.038718
1831	9.1500e-01	-6.8244	-45.801884	0.000596	5.958640	2.018842	0.047591
1832	9.1550e-01	-6.7779	-45.757520	0.000111	1.110933	0.376394	0.008873
1833	9.1600e-01	-6.7442	-45.374376	0.000959	9.594421	3.250678	0.076629
1834	9.1650e-01	-6.7025	-45.330012	0.000111	1.110933	0.376394	0.008873
1835	9.1700e-01	-6.6688	-45.168688	0.000404	4.039756	1.368706	0.032265
1836	9.1750e-01	-6.6062	-45.043662	0.000313	3.130811	1.060747	0.025005
1837	9.1800e-01	-6.5790	-44.777477	0.000667	6.665597	2.258366	0.053237
1838	9.1850e-01	-6.5405	-44.712948	0.000162	1.615902	0.547483	0.012906
1839	9.1900e-01	-6.5004	-44.325770	0.000970	9.695414	3.284895	0.077435
1840	9.1950e-01	-6.4586	-43.857931	0.001172	11.715292	3.969249	0.093568
1841	9.2000e-01	-6.4121	-44.023288	-0.000414	-4.140750	-1.402924	-0.033071
1842	9.2050e-01	-6.3913	-44.019255	0.000010	0.100994	0.034218	0.000807
1843	9.2100e-01	-6.3367	-43.797434	0.000555	5.554665	1.881971	0.044364
1844	9.2150e-01	-6.3094	-43.551415	0.000616	6.160628	2.087277	0.049204
1845	9.2200e-01	-6.2693	-43.305396	0.000616	6.160628	2.087277	0.049204
1846	9.2250e-01	-6.2180	-43.055344	0.000626	6.261622	2.121495	0.050010
1847	9.2300e-01	-6.1779	-42.978715	0.000192	1.918884	0.650136	0.015326
1848	9.2350e-01	-6.1426	-42.817391	0.000404	4.039756	1.368706	0.032265
1849	9.2400e-01	-6.1009	-42.619769	0.000495	4.948701	1.676665	0.039524
1850	9.2450e-01	-6.0704	-42.385850	0.000586	5.857646	1.984624	0.046784
1851	9.2500e-01	-6.0271	-42.204360	0.000454	4.544726	1.539795	0.036298
1852	9.2550e-01	-5.9790	-41.776852	0.001071	10.705353	3.627072	0.085502
1853	9.2600e-01	-5.9357	-41.740554	0.000091	0.908945	0.307959	0.007260
1854	9.2650e-01	-5.9052	-41.454204	0.000717	7.170567	2.429454	0.057270
1855	9.2700e-01	-5.8651	-41.369509	0.000212	2.120872	0.718571	0.016939
1856	9.2750e-01	-5.8202	-41.236417	0.000333	3.332799	1.129183	0.026618
1857	9.2800e-01	-5.7736	-40.909736	0.000818	8.180506	2.771630	0.065336
1858	9.2850e-01	-5.7496	-40.607253	0.000757	7.574543	2.566324	0.060496
1859	9.2900e-01	-5.7063	-40.449962	0.000394	3.938762	1.334489	0.031458
1860	9.2950e-01	-5.6581	-40.369300	0.000202	2.019878	0.684353	0.016132
1861	9.3000e-01	-5.6228	-40.280572	0.000222	2.221866	0.752789	0.017746
1862	9.3050e-01	-5.5924	-39.897428	0.000959	9.594421	3.250678	0.076629
1863	9.3100e-01	-5.5522	-39.929693	-0.000081	-0.807951	-0.273741	-0.006453
1864	9.3150e-01	-5.4961	-39.736104	0.000485	4.847707	1.642448	0.038718
1865	9.3200e-01	-5.4576	-39.365059	0.000929	9.291439	3.148025	0.074209
1866	9.3250e-01	-5.4239	-39.159371	0.000515	5.150689	1.745101	0.041138
1867	9.3300e-01	-5.3886	-38.961749	0.000495	4.948701	1.676665	0.039524
1868	9.3350e-01	-5.3325	-38.792359	0.000424	4.241744	1.437142	0.033878
1869	9.3400e-01	-5.3068	-38.655234	0.000343	3.433793	1.163400	0.027425
1870	9.3450e-01	-5.2603	-38.401148	0.000636	6.362616	2.155713	0.050817
1871	9.3500e-01	-5.2234	-38.336619	0.000162	1.615902	0.547483	0.012906
1872	9.3550e-01	-5.1833	-38.086567	0.000626	6.261622	2.121495	0.050010
1873	9.3600e-01	-5.1432	-37.973640	0.000283	2.827829	0.958094	0.022585
1874	9.3650e-01	-5.0870	-37.784084	0.000475	4.746713	1.608230	0.037911
1875	9.3700e-01	-5.0662	-37.481602	0.000757	7.574543	2.566324	0.060496
1876	9.3750e-01	-5.0277	-37.118623	0.000909	9.089451	3.079589	0.072596
1877	9.3800e-01	-4.9860	-37.041994	0.000192	1.918884	0.650136	0.015326
1878	9.3850e-01	-4.9394	-37.021829	0.000050	0.504970	0.171088	0.004033
1879	9.3900e-01	-4.9025	-36.735479	0.000717	7.170567	2.429454	0.057270
1880	9.3950e-01	-4.8705	-36.340235	0.000990	9.897402	3.353331	0.079049
1881	9.4000e-01	-4.8191	-36.299904	0.000101	1.009939	0.342177	0.008066
1882	9.4050e-01	-4.7886	-36.074050	0.000566	5.655658	1.916189	0.045171
1883	9.4100e-01	-4.7421	-36.061951	0.000030	0.302982	0.102653	0.002420
1884	9.4150e-01	-4.7020	-35.727204	0.000838	8.382494	2.840066	0.066949
1885	9.4200e-01	-4.6603	-35.557814	0.000424	4.241744	1.437142	0.033878
1886	9.4250e-01	-4.6234	-35.299696	0.000646	6.463610	2.189930	0.051624
1887	9.4300e-01	-4.5865	-35.166603	0.000333	3.332799	1.129183	0.026618
1888	9.4350e-01	-4.5432	-34.876220	0.000727	7.271561	2.463672	0.058077
1889	9.4400e-01	-4.5063	-34.678598	0.000495	4.948701	1.676665	0.039524
1890	9.4450e-01	-4.4630	-34.759260	-0.000202	-2.019878	-0.684353	-0.016132
1891	9.4500e-01	-4.4261	-34.440646	0.000798	7.978518	2.703195	0.063723
1892	9.4550e-01	-4.3763	-34.166395	0.000687	6.867585	2.326801	0.054850
1893	9.4600e-01	-4.3427	-33.976839	0.000475	4.746713	1.608230	0.037911
1894	9.4650e-01	-4.2977	-33.888111	0.000222	2.221866	0.752789	0.017746
1895	9.4700e-01	-4.2769	-33.609827	0.000697	6.968579	2.361019	0.055657
1896	9.4750e-01	-4.2143	-33.267014	0.000858	8.584482	2.908501	0.068563
1897	9.4800e-01	-4.1790	-33.093591	0.000434	4.342738	1.471359	0.034685
1898	9.4850e-01	-4.1373	-32.875803	0.000545	5.453671	1.847754	0.043557
1899	9.4900e-01	-4.0924	-32.871770	0.000010	0.100994	0.034218	0.000807
1900	9.4950e-01	-4.0555	-32.827406	0.000111	1.110933	0.376394	0.008873
1901	9.5000e-01	-4.0250	-32.476526	0.000879	8.786469	2.976936	0.070176
1902	9.5050e-01	-3.9753	-32.331335	0.000364	3.635780	1.231836	0.029038
1903	9.5100e-01	-3.9384	-31.907860	0.001060	10.604360	3.592854	0.084695
1904	9.5150e-01	-3.9079	-31.682006	0.000566	5.655658	1.916189	0.045171
1905	9.5200e-01	-3.8598	-31.528748	0.000384	3.837768	1.300271	0.030652
1906	9.5250e-01	-3.8197	-31.319027	0.000525	5.251683	1.779318	0.041944
1907	9.5300e-01	-3.7780	-30.947982	0.000929	9.291439	3.148025	0.074209
1908	9.5350e-01	-3.7411	-30.822956	0.000313	3.130811	1.060747	0.025005
1909	9.5400e-01	-3.6929	-30.810857	0.000030	0.302982	0.102653	0.002420
1910	9.5450e-01	-3.6641	-30.476110	0.000838	8.382494	2.840066	0.066949
1911	9.5500e-01	-3.6320	-30.205892	0.000677	6.766591	2.292583	0.054044
1912	9.5550e-01	-3.5871	-30.117164	0.000222	2.221866	0.752789	0.017746
1913	9.5600e-01	-3.5438	-29.955840	0.000404	4.039756	1.368706	0.032265
1914	9.5650e-01	-3.5004	-29.729986	0.000566	5.655658	1.916189	0.045171
1915	9.5700e-01	-3.4603	-29.544464	0.000465	4.645719	1.574012	0.037105
1916	9.5750e-01	-3.4218	-29.391206	0.000384	3.837768	1.300271	0.030652
1917	9.5800e-01	-3.3801	-29.145187	0.000616	6.160628	2.087277	0.049204
1918	9.5850e-01	-3.3352	-28.838672	0.000768	7.675536	2.600542	0.061303
1919	9.5900e-01	-3.3063	-28.479726	0.000899	8.988457	3.045372	0.071789
1920	9.5950e-01	-3.2614	-28.568454	-0.000222	-2.221866	-0.752789	-0.017746
1921	9.6000e-01	-3.2229	-28.229674	0.000848	8.483488	2.874283	0.067756
1922	9.6050e-01	-3.1844	-28.161111	0.000172	1.716896	0.581700	0.013713
1923	9.6100e-01	-3.1507	-28.011886	0.000374	3.736774	1.266053	0.029845
1924	9.6150e-01	-3.1010	-27.757801	0.000636	6.362616	2.155713	0.050817
1925	9.6200e-01	-3.0593	-27.697305	0.000151	1.514909	0.513265	0.012099
1926	9.6250e-01	-3.0224	-27.334326	0.000909	9.089451	3.079589	0.072596
1927	9.6300e-01	-2.9791	-27.068141	0.000667	6.665597	2.258366	0.053237
1928	9.6350e-01	-2.9422	-26.910850	0.000394	3.938762	1.334489	0.031458
1929	9.6400e-01	-2.8988	-26.850354	0.000151	1.514909	0.513265	0.012099
1930	9.6450e-01	-2.8587	-26.491408	0.000899	8.988457	3.045372	0.071789
1931	9.6500e-01	-2.8234	-26.358316	0.000333	3.332799	1.129183	0.026618
1932	9.6550e-01	-2.7817	-26.067933	0.000727	7.271561	2.463672	0.058077
1933	9.6600e-01	-2.7481	-25.777550	0.000727	7.271561	2.463672	0.058077
1934	9.6650e-01	-2.7015	-25.809815	-0.000081	-0.807951	-0.273741	-0.006453
1935	9.6700e-01	-2.6566	-25.374240	0.001091	10.907341	3.695507	0.087115
1936	9.6750e-01	-2.6165	-25.378273	-0.000010	-0.100994	-0.034218	-0.000807
1937	9.6800e-01	-2.5892	-24.983029	0.000990	9.897402	3.353331	0.079049
1938	9.6850e-01	-2.5491	-24.765242	0.000545	5.453671	1.847754	0.043557
1939	9.6900e-01	-2.5026	-24.753143	0.000030	0.302982	0.102653	0.002420
1940	9.6950e-01	-2.4593	-24.611984	0.000353	3.534787	1.197618	0.028232
1941	9.7000e-01	-2.4176	-24.353866	0.000646	6.463610	2.189930	0.051624
1942	9.7050e-01	-2.3759	-24.063483	0.000727	7.271561	2.463672	0.058077
1943	9.7100e-01	-2.3358	-23.877960	0.000465	4.645719	1.574012	0.037105
1944	9.7150e-01	-2.3021	-23.688405	0.000475	4.746713	1.608230	0.037911
1945	9.7200e-01	-2.2652	-23.506915	0.000454	4.544726	1.539795	0.036298
1946	9.7250e-01	-2.2251	-23.337525	0.000424	4.241744	1.437142	0.033878
1947	9.7300e-01	-2.1850	-23.087473	0.000626	6.261622	2.121495	0.050010
1948	9.7350e-01	-2.1481	-22.756759	0.000828	8.281500	2.805848	0.066143
1949	9.7400e-01	-2.1015	-22.587369	0.000424	4.241744	1.437142	0.033878
1950	9.7450e-01	-2.0614	-22.321184	0.000667	6.665597	2.258366	0.053237
1951	9.7500e-01	-2.0165	-22.119529	0.000505	5.049695	1.710883	0.040331
1952	9.7550e-01	-1.9828	-21.901742	0.000545	5.453671	1.847754	0.043557
1953	9.7600e-01	-1.9331	-21.853345	0.000121	1.211927	0.410612	0.009679
1954	9.7650e-01	-1.8962	-21.518598	0.000838	8.382494	2.840066	0.066949
1955	9.7700e-01	-1.8561	-21.256446	0.000656	6.564604	2.224148	0.052430
1956	9.7750e-01	-1.8224	-21.135453	0.000303	3.029817	1.026530	0.024199
1957	9.7800e-01	-1.7791	-21.058824	0.000192	1.918884	0.650136	0.015326
1958	9.7850e-01	-1.7374	-20.937831	0.000303	3.029817	1.026530	0.024199
1959	9.7900e-01	-1.7037	-20.647448	0.000727	7.271561	2.463672	0.058077
1960	9.7950e-01	-1.6572	-20.163476	0.001212	12.119268	4.106119	0.096794
1961	9.8000e-01	-1.6203	-20.022318	0.000353	3.534787	1.197618	0.028232
1962	9.8050e-01	-1.5721	-20.070715	-0.000121	-1.211927	-0.410612	-0.009679
1963	9.8100e-01	-1.5449	-19.671438	0.001000	9.998396	3.387548	0.079855
1964	9.8150e-01	-1.5032	-19.518181	0.000384	3.837768	1.300271	0.030652
1965	9.8200e-01	-1.4615	-19.425419	0.000232	2.322860	0.787006	0.018552
1966	9.8250e-01	-1.4197	-19.207632	0.000545	5.453671	1.847754	0.043557
1967	9.8300e-01	-1.3861	-18.897084	0.000778	7.776530	2.634760	0.062110
1968	9.8350e-01	-1.3379	-18.788190	0.000273	2.726835	0.923877	0.021779
1969	9.8400e-01	-1.2946	-18.546204	0.000606	6.059634	2.053060	0.048397
1970	9.8450e-01	-1.2625	-18.175159	0.000929	9.291439	3.148025	0.074209
1971	9.8500e-01	-1.2208	-18.154993	0.000050	0.504970	0.171088	0.004033
1972	9.8550e-01	-1.1823	-17.727485	0.001071	10.705353	3.627072	0.085502
1973	9.8600e-01	-1.1374	-17.558095	0.000424	4.241744	1.437142	0.033878
1974	9.8650e-01	-1.0989	-17.445168	0.000283	2.827829	0.958094	0.022585
1975	9.8700e-01	-1.0620	-17.195116	0.000626	6.261622	2.121495	0.050010
1976	9.8750e-01	-1.0187	-16.981362	0.000535	5.352677	1.813536	0.042751
1977	9.8800e-01	-0.9882	-16.731310	0.000626	6.261622	2.121495	0.050010
1978	9.8850e-01	-0.9369	-16.436893	0.000737	7.372555	2.497889	0.058883
1979	9.8900e-01	-0.9032	-16.118279	0.000798	7.978518	2.703195	0.063723
1980	9.8950e-01	-0.8502	-16.110212	0.000020	0.201988	0.068435	0.001613
1981	9.9000e-01	-0.8230	-16.001319	0.000273	2.726835	0.923877	0.021779
1982	9.9050e-01	-0.7829	-15.823862	0.000444	4.443732	1.505577	0.035491
1983	9.9100e-01	-0.7524	-15.400387	0.001060	10.604360	3.592854	0.084695
1984	9.9150e-01	-0.6930	-15.472983	-0.000182	-1.817890	-0.615918	-0.014519
1985	9.9200e-01	-0.6625	-15.101938	0.000929	9.291439	3.148025	0.074209
1986	9.9250e-01	-0.6192	-14.847853	0.000636	6.362616	2.155713	0.050817
1987	9.9300e-01	-0.5759	-14.690562	0.000394	3.938762	1.334489	0.031458
1988	9.9350e-01	-0.5422	-14.609900	0.000202	2.019878	0.684353	0.016132
1989	9.9400e-01	-0.5053	-14.343715	0.000667	6.665597	2.258366	0.053237
1990	9.9450e-01	-0.4572	-14.041233	0.000757	7.574543	2.566324	0.060496
1991	9.9500e-01	-0.4235	-13.666155	0.000939	9.392433	3.182242	0.075016
1992	9.9550e-01	-0.3850	-13.408036	0.000646	6.463610	2.189930	0.051624
1993	9.9600e-01	-0.3417	-13.371738	0.000091	0.908945	0.307959	0.007260
1994	9.9650e-01	-0.2984	-12.940197	0.001081	10.806347	3.661290	0.086308
1995	9.9700e-01	-0.2599	-13.024892	-0.000212	-2.120872	-0.718571	-0.016939
1996	9.9750e-01	-0.2198	-12.762741	0.000656	6.564604	2.224148	0.052430
1997	9.9800e-01	-0.1717	-12.617549	0.000364	3.635780	1.231836	0.029038
1998	9.9850e-01	-0.1412	-12.222305	0.000990	9.897402	3.353331	0.079049
1999	9.9900e-01	-0.0995	-12.105345	0.000293	2.928823	0.992312	0.023392
2000	9.9950e-01	-0.0578	-11.903691	0.000505	5.049695	1.710883	0.040331
2001	1.0000e+00	-0.0144	-11.730267	0.000505	5.049695	1.710883	0.034685

PMax (uC/cm2):	1.04e+02
Pr (uC/cm2):	4.39e+00
-Pr (uC/cm2):	-5.59e+00
PLoss (uC/cm2):	-5.52e+00
-Vc:	-8.35e-01
C (Max-Eff) (nF):	5.20e-01
K (Eff):	1.76e+03
Vert. (+/-Pr) Shift (uC/cm2):	-6.00e-01
Offset (uC/cm2):	6.14e+00

A (Loop Area - uC/cm2·Volts):	1.69e-03



Hysteresis Version: 5.48.1 - Radiant Technologies, Inc., 1999 - 9/12/24

