»»»»»»»»»»»»»»»»»»»»»»»»»»»»»»»»»»»» Hysteresis ««««««««««««««««««««««««««««««««««««
»»»  Executed Version:	5.48.1
»»»  Vision Version:	5.48.4 (R)
»»»  Vision Compiled:	9/18/24
»»»  Driver Version:	5.47.0
»»»  Windows Version:	Windows 8 or 8.1
»»»  Processor Information:	x86 (AMD or Intel) - 32 Processors
»»»  Tester Name:	PMF21124-494 (100V)
»»»  Tester S/N:	PMF21124-494
»»»  Internal Amp Type:	100V RevK 270k
»»»  Internal Amp S/N:	iAB2-596/K     
»»»  Execution Count:	1
»»»»»»»»»»»»»»»»»»»»»»»»»»»»»»»»»»»»»»»»»»««««««««««««««««««««««««««««««««««««««««««

Stored:	6/18/2025 - 15:7:17
Configured:	06/18/25 09:47:30 AM
Executed:	06/18/25 03:06:38 PM

»»»»»»»»»»»»»»»»»»»»»»»»»»»»»»»»»»» Sample Info ««««««««««««««««««««««««««««««««««««
Sample Name:	
Lot Name:	
Wafer Name:	
Die Row/Column:	0/0
Capacitor Number:	0
Sample Area (cm2):	1.00e-04
Sample Thickness (microns):	3.00e-01

Amplifier:	Internal

»»»»»»»»»»»»»»»»»»»»»»»»»»»»»»»»»»» Tester Info «««««««««««««««««««««««««««««««««««
Tester Name:	PMF21124-494 (100V)
Tester Serial Number:	PMF21124-494
Return Signal Amp. Level:	0.19 [Index: 3]

»»»»»»»»»»»»»»»»»»»»»»»»»»»»»»»» Hysteresis Info ««««««««««««««««««««««««««««««««««
Task Name:	Hyst-554
Volts:	20.00
Field:	666.67 (kV/cm)
DCBias:	0.00
DCField:	0.00 (kV/cm)
Hysteresis Period (ms):	2.00e+02
Preset:	Enabled
Preset Delay (ms):	1.00e+03
Profile:	Standard Bipolar

»»»»»»»»»»»»»»»»»»»»»»»»»»»»»»»»»»»»»» Data «««««««««««««««««««««««««««««««««««««««
Points:	2009

Valid Data

Point	Time (ms)	Drive Voltage	Measured Polarization (uC/cm2)	Capacitance (uF)	Normalized Capacitance (uF/cm2)	Dielectric Constant	Instantaneous Current (mA)
   1	0.0000e+00	0.0032	-6.429139	0.000385	3.851630	1.304968	0.000154
   2	9.9500e-02	0.0273	-6.275728	0.000385	3.851630	1.304968	0.000154
   3	1.9900e-01	0.0690	-6.081945	0.000487	4.865217	1.648380	0.000195
   4	2.9850e-01	0.1107	-5.795308	0.000720	7.196466	2.438229	0.000288
   5	3.9800e-01	0.1604	-5.645934	0.000375	3.750271	1.270626	0.000150
   6	4.9750e-01	0.1989	-5.415818	0.000578	5.777445	1.957451	0.000231
   7	5.9700e-01	0.2358	-5.181664	0.000588	5.878804	1.991793	0.000235
   8	6.9650e-01	0.2727	-4.955584	0.000568	5.676086	1.923110	0.000227
   9	7.9600e-01	0.3192	-4.753727	0.000507	5.067934	1.717063	0.000203
  10	8.9550e-01	0.3610	-4.519573	0.000588	5.878804	1.991793	0.000235
  11	9.9500e-01	0.3898	-4.309642	0.000527	5.270651	1.785745	0.000211
  12	1.0945e+00	0.4412	-4.075489	0.000588	5.878804	1.991793	0.000235
  13	1.1940e+00	0.4749	-3.841335	0.000588	5.878804	1.991793	0.000235
  14	1.2935e+00	0.5134	-3.603144	0.000598	5.980162	2.026134	0.000239
  15	1.3930e+00	0.5503	-3.360916	0.000608	6.081521	2.060475	0.000243
  16	1.4925e+00	0.6016	-3.171170	0.000476	4.763858	1.614039	0.000191
  17	1.5920e+00	0.6353	-2.896645	0.000689	6.892390	2.335205	0.000276
  18	1.6915e+00	0.6802	-2.694788	0.000507	5.067934	1.717063	0.000203
  19	1.7910e+00	0.7123	-2.448523	0.000618	6.182880	2.094816	0.000248
  20	1.8905e+00	0.7492	-2.214369	0.000588	5.878804	1.991793	0.000235
  21	1.9900e+00	0.7973	-1.980215	0.000588	5.878804	1.991793	0.000235
  22	2.0895e+00	0.8278	-1.693578	0.000720	7.196466	2.438229	0.000288
  23	2.1890e+00	0.8695	-1.487685	0.000517	5.169293	1.751404	0.000207
  24	2.2885e+00	0.9128	-1.281791	0.000517	5.169293	1.751404	0.000207
  25	2.3880e+00	0.9481	-1.011303	0.000679	6.791032	2.300864	0.000272
  26	2.4875e+00	0.9914	-0.777149	0.000588	5.878804	1.991793	0.000235
  27	2.5870e+00	1.0363	-0.551069	0.000568	5.676086	1.923110	0.000227
  28	2.6865e+00	1.0716	-0.268470	0.000710	7.095108	2.403888	0.000284
  29	2.7860e+00	1.1005	-0.066613	0.000507	5.067934	1.717063	0.000203
  30	2.8855e+00	1.1406	0.159467	0.000568	5.676086	1.923110	0.000227
  31	2.9850e+00	1.1887	0.397658	0.000598	5.980162	2.026134	0.000239
  32	3.0845e+00	1.2417	0.647960	0.000628	6.284238	2.129158	0.000252
  33	3.1840e+00	1.2738	0.890188	0.000608	6.081521	2.060475	0.000243
  34	3.2835e+00	1.3139	1.128379	0.000598	5.980162	2.026134	0.000239
  35	3.3830e+00	1.3556	1.358496	0.000578	5.777445	1.957451	0.000231
  36	3.4825e+00	1.3957	1.624947	0.000669	6.689673	2.266523	0.000268
  37	3.5820e+00	1.4262	1.863138	0.000598	5.980162	2.026134	0.000239
  38	3.6815e+00	1.4647	2.093255	0.000578	5.777445	1.957451	0.000231
  39	3.7810e+00	1.5064	2.327409	0.000588	5.878804	1.991793	0.000235
  40	3.8805e+00	1.5449	2.577711	0.000628	6.284238	2.129158	0.000252
  41	3.9800e+00	1.5914	2.832051	0.000639	6.385597	2.163499	0.000256
  42	4.0795e+00	1.6315	3.058130	0.000568	5.676086	1.923110	0.000227
  43	4.1790e+00	1.6716	3.268061	0.000527	5.270651	1.785745	0.000211
  44	4.2785e+00	1.7262	3.574884	0.000770	7.703260	2.609935	0.000308
  45	4.3780e+00	1.7502	3.809038	0.000588	5.878804	1.991793	0.000235
  46	4.4775e+00	1.7871	4.043191	0.000588	5.878804	1.991793	0.000235
  47	4.5770e+00	1.8256	4.273308	0.000578	5.777445	1.957451	0.000231
  48	4.6765e+00	1.8721	4.543796	0.000679	6.791032	2.300864	0.000272
  49	4.7760e+00	1.9155	4.794099	0.000628	6.284238	2.129158	0.000252
  50	4.8755e+00	1.9427	5.036327	0.000608	6.081521	2.060475	0.000243
  51	4.9750e+00	1.9844	5.246258	0.000527	5.270651	1.785745	0.000211
  52	5.0745e+00	2.0326	5.524820	0.000699	6.993749	2.369546	0.000280
  53	5.1740e+00	2.0646	5.787234	0.000659	6.588314	2.232181	0.000264
  54	5.2735e+00	2.1096	6.005239	0.000547	5.473369	1.854428	0.000219
  55	5.3730e+00	2.1497	6.263616	0.000649	6.486956	2.197840	0.000260
  56	5.4725e+00	2.1898	6.513919	0.000628	6.284238	2.129158	0.000252
  57	5.5720e+00	2.2315	6.756147	0.000608	6.081521	2.060475	0.000243
  58	5.6715e+00	2.2684	7.002412	0.000618	6.182880	2.094816	0.000248
  59	5.7710e+00	2.3085	7.264826	0.000659	6.588314	2.232181	0.000264
  60	5.8705e+00	2.3502	7.486868	0.000557	5.574727	1.888769	0.000223
  61	5.9700e+00	2.3903	7.700836	0.000537	5.372010	1.820086	0.000215
  62	6.0695e+00	2.4304	8.015733	0.000791	7.905977	2.678618	0.000316
  63	6.1690e+00	2.4705	8.257961	0.000608	6.081521	2.060475	0.000243
  64	6.2685e+00	2.5106	8.500189	0.000608	6.081521	2.060475	0.000243
  65	6.3680e+00	2.5443	8.738380	0.000598	5.980162	2.026134	0.000239
  66	6.4675e+00	2.5844	8.992720	0.000639	6.385597	2.163499	0.000256
  67	6.5670e+00	2.6309	9.255134	0.000659	6.588314	2.232181	0.000264
  68	6.6665e+00	2.6694	9.509473	0.000639	6.385597	2.163499	0.000256
  69	6.7660e+00	2.7095	9.723441	0.000537	5.372010	1.820086	0.000215
  70	6.8655e+00	2.7513	10.006041	0.000710	7.095108	2.403888	0.000284
  71	6.9650e+00	2.7833	10.272492	0.000669	6.689673	2.266523	0.000268
  72	7.0645e+00	2.8299	10.486460	0.000537	5.372010	1.820086	0.000215
  73	7.1640e+00	2.8700	10.769060	0.000710	7.095108	2.403888	0.000284
  74	7.2635e+00	2.9085	10.987065	0.000547	5.473369	1.854428	0.000219
  75	7.3630e+00	2.9374	11.249479	0.000659	6.588314	2.232181	0.000264
  76	7.4625e+00	2.9855	11.483633	0.000588	5.878804	1.991793	0.000235
  77	7.5620e+00	3.0160	11.782381	0.000750	7.500542	2.541253	0.000300
  78	7.6615e+00	3.0753	12.016535	0.000588	5.878804	1.991793	0.000235
  79	7.7610e+00	3.0994	12.258763	0.000608	6.081521	2.060475	0.000243
  80	7.8605e+00	3.1379	12.585771	0.000821	8.210053	2.781641	0.000329
  81	7.9600e+00	3.1764	12.783590	0.000497	4.966575	1.682721	0.000199
  82	8.0595e+00	3.2245	13.062153	0.000699	6.993749	2.369546	0.000280
  83	8.1590e+00	3.2646	13.340715	0.000699	6.993749	2.369546	0.000280
  84	8.2585e+00	3.3031	13.542572	0.000507	5.067934	1.717063	0.000203
  85	8.3580e+00	3.3448	13.817097	0.000689	6.892390	2.335205	0.000276
  86	8.4575e+00	3.3737	14.059325	0.000608	6.081521	2.060475	0.000243
  87	8.5570e+00	3.4218	14.366148	0.000770	7.703260	2.609935	0.000308
  88	8.6565e+00	3.4667	14.580116	0.000537	5.372010	1.820086	0.000215
  89	8.7560e+00	3.5133	14.850604	0.000679	6.791032	2.300864	0.000272
  90	8.8555e+00	3.5421	15.121092	0.000679	6.791032	2.300864	0.000272
  91	8.9550e+00	3.5887	15.379469	0.000649	6.486956	2.197840	0.000260
  92	9.0545e+00	3.6175	15.637845	0.000649	6.486956	2.197840	0.000260
  93	9.1540e+00	3.6625	15.876036	0.000598	5.980162	2.026134	0.000239
  94	9.2535e+00	3.6994	16.142487	0.000669	6.689673	2.266523	0.000268
  95	9.3530e+00	3.7459	16.400864	0.000649	6.486956	2.197840	0.000260
  96	9.4525e+00	3.7732	16.659241	0.000649	6.486956	2.197840	0.000260
  97	9.5520e+00	3.8357	16.937803	0.000699	6.993749	2.369546	0.000280
  98	9.6515e+00	3.8550	17.192143	0.000639	6.385597	2.163499	0.000256
  99	9.7510e+00	3.8967	17.389962	0.000497	4.966575	1.682721	0.000199
 100	9.8505e+00	3.9464	17.696785	0.000770	7.703260	2.609935	0.000308
 101	9.9500e+00	3.9881	17.947087	0.000628	6.284238	2.129158	0.000252
 102	1.0050e+01	4.0170	18.161055	0.000537	5.372010	1.820086	0.000215
 103	1.0149e+01	4.0635	18.395209	0.000588	5.878804	1.991793	0.000235
 104	1.0248e+01	4.0988	18.714143	0.000801	8.007336	2.712959	0.000321
 105	1.0348e+01	4.1437	18.960408	0.000618	6.182880	2.094816	0.000248
 106	1.0447e+01	4.1758	19.202636	0.000608	6.081521	2.060475	0.000243
 107	1.0547e+01	4.2079	19.444864	0.000608	6.081521	2.060475	0.000243
 108	1.0646e+01	4.2641	19.743612	0.000750	7.500542	2.541253	0.000300
 109	1.0746e+01	4.2993	19.937395	0.000487	4.865217	1.648380	0.000195
 110	1.0845e+01	4.3250	20.232106	0.000740	7.399184	2.506911	0.000296
 111	1.0945e+01	4.3876	20.551039	0.000801	8.007336	2.712959	0.000321
 112	1.1044e+01	4.4213	20.756933	0.000517	5.169293	1.751404	0.000207
 113	1.1144e+01	4.4582	21.059719	0.000760	7.601901	2.575594	0.000304
 114	1.1243e+01	4.5031	21.285798	0.000568	5.676086	1.923110	0.000227
 115	1.1343e+01	4.5352	21.564361	0.000699	6.993749	2.369546	0.000280
 116	1.1443e+01	4.5705	21.842923	0.000699	6.993749	2.369546	0.000280
 117	1.1542e+01	4.6122	22.056891	0.000537	5.372010	1.820086	0.000215
 118	1.1642e+01	4.6635	22.319305	0.000659	6.588314	2.232181	0.000264
 119	1.1741e+01	4.6988	22.581719	0.000659	6.588314	2.232181	0.000264
 120	1.1841e+01	4.7389	22.864318	0.000710	7.095108	2.403888	0.000284
 121	1.1940e+01	4.7742	23.086361	0.000557	5.574727	1.888769	0.000223
 122	1.2040e+01	4.8191	23.356849	0.000679	6.791032	2.300864	0.000272
 123	1.2139e+01	4.8544	23.651560	0.000740	7.399184	2.506911	0.000296
 124	1.2239e+01	4.9057	23.913974	0.000659	6.588314	2.232181	0.000264
 125	1.2338e+01	4.9442	24.176387	0.000659	6.588314	2.232181	0.000264
 126	1.2438e+01	4.9811	24.382281	0.000517	5.169293	1.751404	0.000207
 127	1.2537e+01	5.0100	24.648732	0.000669	6.689673	2.266523	0.000268
 128	1.2636e+01	5.0549	24.943443	0.000740	7.399184	2.506911	0.000296
 129	1.2736e+01	5.1015	25.193746	0.000628	6.284238	2.129158	0.000252
 130	1.2835e+01	5.1384	25.452122	0.000649	6.486956	2.197840	0.000260
 131	1.2935e+01	5.1704	25.734722	0.000710	7.095108	2.403888	0.000284
 132	1.3034e+01	5.2170	25.976950	0.000608	6.081521	2.060475	0.000243
 133	1.3134e+01	5.2571	26.231289	0.000639	6.385597	2.163499	0.000256
 134	1.3233e+01	5.2956	26.501778	0.000679	6.791032	2.300864	0.000272
 135	1.3333e+01	5.3389	26.800526	0.000750	7.500542	2.541253	0.000300
 136	1.3432e+01	5.3694	27.042754	0.000608	6.081521	2.060475	0.000243
 137	1.3532e+01	5.4127	27.317279	0.000689	6.892390	2.335205	0.000276
 138	1.3632e+01	5.4544	27.599878	0.000710	7.095108	2.403888	0.000284
 139	1.3731e+01	5.4977	27.825958	0.000568	5.676086	1.923110	0.000227
 140	1.3831e+01	5.5378	28.116632	0.000730	7.297825	2.472570	0.000292
 141	1.3930e+01	5.5795	28.362897	0.000618	6.182880	2.094816	0.000248
 142	1.4030e+01	5.6036	28.605125	0.000608	6.081521	2.060475	0.000243
 143	1.4129e+01	5.6565	28.891762	0.000720	7.196466	2.438229	0.000288
 144	1.4229e+01	5.6902	29.121879	0.000578	5.777445	1.957451	0.000231
 145	1.4328e+01	5.7383	29.428701	0.000770	7.703260	2.609935	0.000308
 146	1.4428e+01	5.7736	29.654781	0.000568	5.676086	1.923110	0.000227
 147	1.4527e+01	5.8121	29.925269	0.000679	6.791032	2.300864	0.000272
 148	1.4627e+01	5.8554	30.207868	0.000710	7.095108	2.403888	0.000284
 149	1.4726e+01	5.8972	30.474319	0.000669	6.689673	2.266523	0.000268
 150	1.4825e+01	5.9308	30.732696	0.000649	6.486956	2.197840	0.000260
 151	1.4925e+01	5.9661	30.966850	0.000588	5.878804	1.991793	0.000235
 152	1.5024e+01	6.0095	31.245412	0.000699	6.993749	2.369546	0.000280
 153	1.5124e+01	6.0640	31.515900	0.000679	6.791032	2.300864	0.000272
 154	1.5223e+01	6.0913	31.782351	0.000669	6.689673	2.266523	0.000268
 155	1.5323e+01	6.1298	32.044765	0.000659	6.588314	2.232181	0.000264
 156	1.5422e+01	6.1699	32.331402	0.000720	7.196466	2.438229	0.000288
 157	1.5522e+01	6.2164	32.597853	0.000669	6.689673	2.266523	0.000268
 158	1.5621e+01	6.2549	32.868341	0.000679	6.791032	2.300864	0.000272
 159	1.5721e+01	6.2966	33.134792	0.000669	6.689673	2.266523	0.000268
 160	1.5820e+01	6.3335	33.385094	0.000628	6.284238	2.129158	0.000252
 161	1.5920e+01	6.3688	33.619248	0.000588	5.878804	1.991793	0.000235
 162	1.6020e+01	6.4121	33.917996	0.000750	7.500542	2.541253	0.000300
 163	1.6119e+01	6.4554	34.160224	0.000608	6.081521	2.060475	0.000243
 164	1.6218e+01	6.4843	34.442824	0.000710	7.095108	2.403888	0.000284
 165	1.6318e+01	6.5372	34.656792	0.000537	5.372010	1.820086	0.000215
 166	1.6418e+01	6.5790	34.927280	0.000679	6.791032	2.300864	0.000272
 167	1.6517e+01	6.6014	35.221991	0.000740	7.399184	2.506911	0.000296
 168	1.6616e+01	6.6399	35.496516	0.000689	6.892390	2.335205	0.000276
 169	1.6716e+01	6.6864	35.738744	0.000608	6.081521	2.060475	0.000243
 170	1.6816e+01	6.7298	36.017306	0.000699	6.993749	2.369546	0.000280
 171	1.6915e+01	6.7747	36.239349	0.000557	5.574727	1.888769	0.000223
 172	1.7015e+01	6.8116	36.546171	0.000770	7.703260	2.609935	0.000308
 173	1.7114e+01	6.8501	36.808585	0.000659	6.588314	2.232181	0.000264
 174	1.7213e+01	6.8966	37.018516	0.000527	5.270651	1.785745	0.000211
 175	1.7313e+01	6.9303	37.357636	0.000851	8.514129	2.884665	0.000341
 176	1.7413e+01	6.9640	37.555455	0.000497	4.966575	1.682721	0.000199
 177	1.7512e+01	7.0105	37.854203	0.000750	7.500542	2.541253	0.000300
 178	1.7611e+01	7.0506	38.128728	0.000689	6.892390	2.335205	0.000276
 179	1.7711e+01	7.0827	38.399217	0.000679	6.791032	2.300864	0.000272
 180	1.7811e+01	7.1212	38.669705	0.000679	6.791032	2.300864	0.000272
 181	1.7910e+01	7.1741	38.952304	0.000710	7.095108	2.403888	0.000284
 182	1.8009e+01	7.2030	39.190495	0.000598	5.980162	2.026134	0.000239
 183	1.8109e+01	7.2367	39.444835	0.000639	6.385597	2.163499	0.000256
 184	1.8209e+01	7.2800	39.759731	0.000791	7.905977	2.678618	0.000316
 185	1.8308e+01	7.3169	40.034257	0.000689	6.892390	2.335205	0.000276
 186	1.8407e+01	7.3666	40.292633	0.000649	6.486956	2.197840	0.000260
 187	1.8507e+01	7.4067	40.551010	0.000649	6.486956	2.197840	0.000260
 188	1.8607e+01	7.4501	40.841684	0.000730	7.297825	2.472570	0.000292
 189	1.8706e+01	7.4950	41.108135	0.000669	6.689673	2.266523	0.000268
 190	1.8805e+01	7.5222	41.374586	0.000669	6.689673	2.266523	0.000268
 191	1.8905e+01	7.5720	41.632962	0.000649	6.486956	2.197840	0.000260
 192	1.9005e+01	7.6057	41.879228	0.000618	6.182880	2.094816	0.000248
 193	1.9104e+01	7.6361	42.141641	0.000659	6.588314	2.232181	0.000264
 194	1.9203e+01	7.6859	42.416167	0.000689	6.892390	2.335205	0.000276
 195	1.9303e+01	7.7308	42.727026	0.000780	7.804618	2.644276	0.000312
 196	1.9402e+01	7.7645	42.936957	0.000527	5.270651	1.785745	0.000211
 197	1.9502e+01	7.8030	43.207445	0.000679	6.791032	2.300864	0.000272
 198	1.9602e+01	7.8559	43.522342	0.000791	7.905977	2.678618	0.000316
 199	1.9701e+01	7.8832	43.784756	0.000659	6.588314	2.232181	0.000264
 200	1.9800e+01	7.9153	44.059281	0.000689	6.892390	2.335205	0.000276
 201	1.9900e+01	7.9618	44.309583	0.000628	6.284238	2.129158	0.000252
 202	2.0000e+01	8.0083	44.576034	0.000669	6.689673	2.266523	0.000268
 203	2.0099e+01	8.0484	44.818262	0.000608	6.081521	2.060475	0.000243
 204	2.0198e+01	8.0885	45.088750	0.000679	6.791032	2.300864	0.000272
 205	2.0298e+01	8.1206	45.375387	0.000720	7.196466	2.438229	0.000288
 206	2.0398e+01	8.1688	45.653949	0.000699	6.993749	2.369546	0.000280
 207	2.0497e+01	8.2121	45.920400	0.000669	6.689673	2.266523	0.000268
 208	2.0596e+01	8.2522	46.190889	0.000679	6.791032	2.300864	0.000272
 209	2.0696e+01	8.2810	46.445228	0.000639	6.385597	2.163499	0.000256
 210	2.0796e+01	8.3179	46.727828	0.000710	7.095108	2.403888	0.000284
 211	2.0895e+01	8.3548	46.953907	0.000568	5.676086	1.923110	0.000227
 212	2.0994e+01	8.3950	47.212284	0.000649	6.486956	2.197840	0.000260
 213	2.1094e+01	8.4463	47.466623	0.000639	6.385597	2.163499	0.000256
 214	2.1194e+01	8.4784	47.777483	0.000780	7.804618	2.644276	0.000312
 215	2.1293e+01	8.5185	48.031822	0.000639	6.385597	2.163499	0.000256
 216	2.1392e+01	8.5650	48.314422	0.000710	7.095108	2.403888	0.000284
 217	2.1492e+01	8.5955	48.576836	0.000659	6.588314	2.232181	0.000264
 218	2.1591e+01	8.6436	48.810990	0.000588	5.878804	1.991793	0.000235
 219	2.1691e+01	8.6869	49.097626	0.000720	7.196466	2.438229	0.000288
 220	2.1791e+01	8.7190	49.424634	0.000821	8.210053	2.781641	0.000329
 221	2.1890e+01	8.7623	49.630528	0.000517	5.169293	1.751404	0.000207
 222	2.1989e+01	8.8008	49.925239	0.000740	7.399184	2.506911	0.000296
 223	2.2089e+01	8.8361	50.183616	0.000649	6.486956	2.197840	0.000260
 224	2.2189e+01	8.8794	50.425844	0.000608	6.081521	2.060475	0.000243
 225	2.2288e+01	8.9243	50.712481	0.000720	7.196466	2.438229	0.000288
 226	2.2387e+01	8.9564	50.987006	0.000689	6.892390	2.335205	0.000276
 227	2.2487e+01	8.9949	51.188863	0.000507	5.067934	1.717063	0.000203
 228	2.2587e+01	9.0447	51.499722	0.000780	7.804618	2.644276	0.000312
 229	2.2686e+01	9.0767	51.802507	0.000760	7.601901	2.575594	0.000304
 230	2.2785e+01	9.1265	52.032624	0.000578	5.777445	1.957451	0.000231
 231	2.2885e+01	9.1602	52.315223	0.000710	7.095108	2.403888	0.000284
 232	2.2985e+01	9.2035	52.589749	0.000689	6.892390	2.335205	0.000276
 233	2.3084e+01	9.2388	52.811791	0.000557	5.574727	1.888769	0.000223
 234	2.3183e+01	9.2853	53.114576	0.000760	7.601901	2.575594	0.000304
 235	2.3283e+01	9.3142	53.348730	0.000588	5.878804	1.991793	0.000235
 236	2.3383e+01	9.3703	53.643441	0.000740	7.399184	2.506911	0.000296
 237	2.3482e+01	9.4104	53.913929	0.000679	6.791032	2.300864	0.000272
 238	2.3581e+01	9.4425	54.196529	0.000710	7.095108	2.403888	0.000284
 239	2.3681e+01	9.4778	54.430683	0.000588	5.878804	1.991793	0.000235
 240	2.3780e+01	9.5227	54.701171	0.000679	6.791032	2.300864	0.000272
 241	2.3880e+01	9.5692	54.959547	0.000649	6.486956	2.197840	0.000260
 242	2.3980e+01	9.6045	55.230035	0.000679	6.791032	2.300864	0.000272
 243	2.4079e+01	9.6366	55.524746	0.000740	7.399184	2.506911	0.000296
 244	2.4178e+01	9.6848	55.750826	0.000568	5.676086	1.923110	0.000227
 245	2.4278e+01	9.7217	56.017277	0.000669	6.689673	2.266523	0.000268
 246	2.4378e+01	9.7618	56.295839	0.000699	6.993749	2.369546	0.000280
 247	2.4477e+01	9.7987	56.546142	0.000628	6.284238	2.129158	0.000252
 248	2.4576e+01	9.8372	56.844890	0.000750	7.500542	2.541253	0.000300
 249	2.4676e+01	9.8757	57.066932	0.000557	5.574727	1.888769	0.000223
 250	2.4776e+01	9.9158	57.345495	0.000699	6.993749	2.369546	0.000280
 251	2.4875e+01	9.9687	57.656354	0.000780	7.804618	2.644276	0.000312
 252	2.4974e+01	9.9944	57.898582	0.000608	6.081521	2.060475	0.000243
 253	2.5074e+01	10.0313	58.148885	0.000628	6.284238	2.129158	0.000252
 254	2.5174e+01	10.0778	58.435521	0.000720	7.196466	2.438229	0.000288
 255	2.5273e+01	10.1291	58.689861	0.000639	6.385597	2.163499	0.000256
 256	2.5372e+01	10.1596	58.944200	0.000639	6.385597	2.163499	0.000256
 257	2.5472e+01	10.1917	59.190466	0.000618	6.182880	2.094816	0.000248
 258	2.5572e+01	10.2286	59.485177	0.000740	7.399184	2.506911	0.000296
 259	2.5671e+01	10.2735	59.751627	0.000669	6.689673	2.266523	0.000268
 260	2.5770e+01	10.3345	60.014041	0.000659	6.588314	2.232181	0.000264
 261	2.5870e+01	10.3569	60.264344	0.000628	6.284238	2.129158	0.000252
 262	2.5970e+01	10.3922	60.546943	0.000710	7.095108	2.403888	0.000284
 263	2.6069e+01	10.4275	60.809357	0.000659	6.588314	2.232181	0.000264
 264	2.6169e+01	10.4805	61.100031	0.000730	7.297825	2.472570	0.000292
 265	2.6268e+01	10.5174	61.374556	0.000689	6.892390	2.335205	0.000276
 266	2.6367e+01	10.5591	61.612747	0.000598	5.980162	2.026134	0.000239
 267	2.6467e+01	10.5992	61.891309	0.000699	6.993749	2.369546	0.000280
 268	2.6567e+01	10.6393	62.105278	0.000537	5.372010	1.820086	0.000215
 269	2.6666e+01	10.6698	62.387877	0.000710	7.095108	2.403888	0.000284
 270	2.6765e+01	10.7131	62.670477	0.000710	7.095108	2.403888	0.000284
 271	2.6865e+01	10.7516	62.904631	0.000588	5.878804	1.991793	0.000235
 272	2.6965e+01	10.7981	63.158970	0.000639	6.385597	2.163499	0.000256
 273	2.7064e+01	10.8270	63.445607	0.000720	7.196466	2.438229	0.000288
 274	2.7163e+01	10.8735	63.663612	0.000547	5.473369	1.854428	0.000219
 275	2.7263e+01	10.9056	63.954286	0.000730	7.297825	2.472570	0.000292
 276	2.7363e+01	10.9585	64.200551	0.000618	6.182880	2.094816	0.000248
 277	2.7462e+01	10.9906	64.479113	0.000699	6.993749	2.369546	0.000280
 278	2.7561e+01	11.0307	64.721342	0.000608	6.081521	2.060475	0.000243
 279	2.7661e+01	11.0628	64.979718	0.000649	6.486956	2.197840	0.000260
 280	2.7761e+01	11.1270	65.230021	0.000628	6.284238	2.129158	0.000252
 281	2.7860e+01	11.1639	65.532806	0.000760	7.601901	2.575594	0.000304
 282	2.7959e+01	11.1943	65.811368	0.000699	6.993749	2.369546	0.000280
 283	2.8059e+01	11.2344	66.029374	0.000547	5.473369	1.854428	0.000219
 284	2.8159e+01	11.2762	66.307936	0.000699	6.993749	2.369546	0.000280
 285	2.8258e+01	11.3147	66.562275	0.000639	6.385597	2.163499	0.000256
 286	2.8358e+01	11.3548	66.828726	0.000669	6.689673	2.266523	0.000268
 287	2.8457e+01	11.3917	67.095177	0.000669	6.689673	2.266523	0.000268
 288	2.8556e+01	11.4334	67.337406	0.000608	6.081521	2.060475	0.000243
 289	2.8656e+01	11.4655	67.603857	0.000669	6.689673	2.266523	0.000268
 290	2.8756e+01	11.5120	67.858196	0.000639	6.385597	2.163499	0.000256
 291	2.8855e+01	11.5601	68.124647	0.000669	6.689673	2.266523	0.000268
 292	2.8954e+01	11.5890	68.427432	0.000760	7.601901	2.575594	0.000304
 293	2.9054e+01	11.6323	68.633326	0.000517	5.169293	1.751404	0.000207
 294	2.9154e+01	11.6756	68.932074	0.000750	7.500542	2.541253	0.000300
 295	2.9253e+01	11.7061	69.158154	0.000568	5.676086	1.923110	0.000227
 296	2.9352e+01	11.7590	69.404419	0.000618	6.182880	2.094816	0.000248
 297	2.9452e+01	11.7863	69.731427	0.000821	8.210053	2.781641	0.000329
 298	2.9552e+01	11.8344	70.005952	0.000689	6.892390	2.335205	0.000276
 299	2.9651e+01	11.8777	70.240106	0.000588	5.878804	1.991793	0.000235
 300	2.9750e+01	11.9098	70.482334	0.000608	6.081521	2.060475	0.000243
 301	2.9850e+01	11.9515	70.732637	0.000628	6.284238	2.129158	0.000252
 302	2.9950e+01	11.9868	71.011199	0.000699	6.993749	2.369546	0.000280
 303	3.0049e+01	12.0173	71.289761	0.000699	6.993749	2.369546	0.000280
 304	3.0148e+01	12.0638	71.544101	0.000639	6.385597	2.163499	0.000256
 305	3.0248e+01	12.1087	71.822663	0.000699	6.993749	2.369546	0.000280
 306	3.0348e+01	12.1521	72.040669	0.000547	5.473369	1.854428	0.000219
 307	3.0447e+01	12.1954	72.319231	0.000699	6.993749	2.369546	0.000280
 308	3.0547e+01	12.2323	72.577608	0.000649	6.486956	2.197840	0.000260
 309	3.0646e+01	12.2676	72.848096	0.000679	6.791032	2.300864	0.000272
 310	3.0745e+01	12.3029	73.074175	0.000568	5.676086	1.923110	0.000227
 311	3.0845e+01	12.3526	73.356775	0.000710	7.095108	2.403888	0.000284
 312	3.0945e+01	12.3863	73.607077	0.000628	6.284238	2.129158	0.000252
 313	3.1044e+01	12.4280	73.865454	0.000649	6.486956	2.197840	0.000260
 314	3.1143e+01	12.4713	74.168239	0.000760	7.601901	2.575594	0.000304
 315	3.1243e+01	12.5114	74.426616	0.000649	6.486956	2.197840	0.000260
 316	3.1343e+01	12.5467	74.660770	0.000588	5.878804	1.991793	0.000235
 317	3.1442e+01	12.5852	74.927221	0.000669	6.689673	2.266523	0.000268
 318	3.1541e+01	12.6221	75.181560	0.000639	6.385597	2.163499	0.000256
 319	3.1641e+01	12.6638	75.443974	0.000659	6.588314	2.232181	0.000264
 320	3.1741e+01	12.7135	75.710425	0.000669	6.689673	2.266523	0.000268
 321	3.1840e+01	12.7456	75.976876	0.000669	6.689673	2.266523	0.000268
 322	3.1939e+01	12.7873	76.215067	0.000598	5.980162	2.026134	0.000239
 323	3.2039e+01	12.8194	76.477481	0.000659	6.588314	2.232181	0.000264
 324	3.2139e+01	12.8692	76.735858	0.000649	6.486956	2.197840	0.000260
 325	3.2238e+01	12.9093	76.990197	0.000639	6.385597	2.163499	0.000256
 326	3.2337e+01	12.9526	77.236462	0.000618	6.182880	2.094816	0.000248
 327	3.2437e+01	12.9766	77.494839	0.000649	6.486956	2.197840	0.000260
 328	3.2536e+01	13.0232	77.809736	0.000791	7.905977	2.678618	0.000316
 329	3.2636e+01	13.0617	78.047927	0.000598	5.980162	2.026134	0.000239
 330	3.2736e+01	13.1082	78.274006	0.000568	5.676086	1.923110	0.000227
 331	3.2835e+01	13.1467	78.524309	0.000628	6.284238	2.129158	0.000252
 332	3.2934e+01	13.1804	78.806908	0.000710	7.095108	2.403888	0.000284
 333	3.3034e+01	13.2285	79.037025	0.000578	5.777445	1.957451	0.000231
 334	3.3133e+01	13.2702	79.311550	0.000689	6.892390	2.335205	0.000276
 335	3.3233e+01	13.2991	79.586075	0.000689	6.892390	2.335205	0.000276
 336	3.3333e+01	13.3392	79.840415	0.000639	6.385597	2.163499	0.000256
 337	3.3432e+01	13.3793	80.090717	0.000628	6.284238	2.129158	0.000252
 338	3.3532e+01	13.4274	80.324871	0.000588	5.878804	1.991793	0.000235
 339	3.3631e+01	13.4756	80.607471	0.000710	7.095108	2.403888	0.000284
 340	3.3730e+01	13.5044	80.849699	0.000608	6.081521	2.060475	0.000243
 341	3.3830e+01	13.5461	81.124224	0.000689	6.892390	2.335205	0.000276
 342	3.3929e+01	13.5814	81.366452	0.000608	6.081521	2.060475	0.000243
 343	3.4029e+01	13.6247	81.612718	0.000618	6.182880	2.094816	0.000248
 344	3.4129e+01	13.6568	81.895317	0.000710	7.095108	2.403888	0.000284
 345	3.4228e+01	13.7018	82.173879	0.000699	6.993749	2.369546	0.000280
 346	3.4328e+01	13.7499	82.424182	0.000628	6.284238	2.129158	0.000252
 347	3.4427e+01	13.7804	82.678521	0.000639	6.385597	2.163499	0.000256
 348	3.4526e+01	13.8157	82.949009	0.000679	6.791032	2.300864	0.000272
 349	3.4626e+01	13.8574	83.211423	0.000659	6.588314	2.232181	0.000264
 350	3.4725e+01	13.9055	83.433466	0.000557	5.574727	1.888769	0.000223
 351	3.4825e+01	13.9472	83.703954	0.000679	6.791032	2.300864	0.000272
 352	3.4925e+01	13.9793	83.978479	0.000689	6.892390	2.335205	0.000276
 353	3.5024e+01	14.0178	84.261079	0.000710	7.095108	2.403888	0.000284
 354	3.5123e+01	14.0531	84.511381	0.000628	6.284238	2.129158	0.000252
 355	3.5223e+01	14.0964	84.717275	0.000517	5.169293	1.751404	0.000207
 356	3.5322e+01	14.1445	85.040246	0.000811	8.108694	2.747300	0.000325
 357	3.5422e+01	14.1830	85.298622	0.000649	6.486956	2.197840	0.000260
 358	3.5522e+01	14.2151	85.556999	0.000649	6.486956	2.197840	0.000260
 359	3.5621e+01	14.2552	85.783079	0.000568	5.676086	1.923110	0.000227
 360	3.5721e+01	14.2953	86.077790	0.000740	7.399184	2.506911	0.000296
 361	3.5820e+01	14.3483	86.320018	0.000608	6.081521	2.060475	0.000243
 362	3.5919e+01	14.3836	86.574357	0.000639	6.385597	2.163499	0.000256
 363	3.6019e+01	14.4253	86.856957	0.000710	7.095108	2.403888	0.000284
 364	3.6118e+01	14.4670	87.107259	0.000628	6.284238	2.129158	0.000252
 365	3.6218e+01	14.4975	87.377747	0.000679	6.791032	2.300864	0.000272
 366	3.6318e+01	14.5408	87.628050	0.000628	6.284238	2.129158	0.000252
 367	3.6417e+01	14.5761	87.862204	0.000588	5.878804	1.991793	0.000235
 368	3.6517e+01	14.6114	88.140766	0.000699	6.993749	2.369546	0.000280
 369	3.6616e+01	14.6611	88.427403	0.000720	7.196466	2.438229	0.000288
 370	3.6715e+01	14.6996	88.661557	0.000588	5.878804	1.991793	0.000235
 371	3.6815e+01	14.7317	88.879562	0.000547	5.473369	1.854428	0.000219
 372	3.6914e+01	14.7766	89.186384	0.000770	7.703260	2.609935	0.000308
 373	3.7014e+01	14.8151	89.420538	0.000588	5.878804	1.991793	0.000235
 374	3.7114e+01	14.8584	89.682952	0.000659	6.588314	2.232181	0.000264
 375	3.7213e+01	14.8969	89.941329	0.000649	6.486956	2.197840	0.000260
 376	3.7313e+01	14.9354	90.171445	0.000578	5.777445	1.957451	0.000231
 377	3.7412e+01	14.9739	90.437896	0.000669	6.689673	2.266523	0.000268
 378	3.7511e+01	15.0156	90.696273	0.000649	6.486956	2.197840	0.000260
 379	3.7611e+01	15.0461	90.974835	0.000699	6.993749	2.369546	0.000280
 380	3.7711e+01	15.0958	91.245323	0.000679	6.791032	2.300864	0.000272
 381	3.7810e+01	15.1407	91.459292	0.000537	5.372010	1.820086	0.000215
 382	3.7910e+01	15.1776	91.766114	0.000770	7.703260	2.609935	0.000308
 383	3.8009e+01	15.2161	92.024491	0.000649	6.486956	2.197840	0.000260
 384	3.8108e+01	15.2514	92.250570	0.000568	5.676086	1.923110	0.000227
 385	3.8208e+01	15.2899	92.508947	0.000649	6.486956	2.197840	0.000260
 386	3.8307e+01	15.3300	92.767324	0.000649	6.486956	2.197840	0.000260
 387	3.8407e+01	15.3750	93.017626	0.000628	6.284238	2.129158	0.000252
 388	3.8507e+01	15.4087	93.304263	0.000720	7.196466	2.438229	0.000288
 389	3.8606e+01	15.4520	93.574751	0.000679	6.791032	2.300864	0.000272
 390	3.8706e+01	15.4937	93.800830	0.000568	5.676086	1.923110	0.000227
 391	3.8805e+01	15.5290	94.059207	0.000649	6.486956	2.197840	0.000260
 392	3.8904e+01	15.5803	94.321621	0.000659	6.588314	2.232181	0.000264
 393	3.9004e+01	15.6140	94.592109	0.000679	6.791032	2.300864	0.000272
 394	3.9103e+01	15.6541	94.810114	0.000547	5.473369	1.854428	0.000219
 395	3.9203e+01	15.6926	95.104825	0.000740	7.399184	2.506911	0.000296
 396	3.9303e+01	15.7359	95.347053	0.000608	6.081521	2.060475	0.000243
 397	3.9402e+01	15.7728	95.605430	0.000649	6.486956	2.197840	0.000260
 398	3.9502e+01	15.8145	95.863807	0.000649	6.486956	2.197840	0.000260
 399	3.9601e+01	15.8466	96.118146	0.000639	6.385597	2.163499	0.000256
 400	3.9700e+01	15.8947	96.380560	0.000659	6.588314	2.232181	0.000264
 401	3.9800e+01	15.9268	96.610677	0.000578	5.777445	1.957451	0.000231
 402	3.9900e+01	15.9653	96.893276	0.000710	7.095108	2.403888	0.000284
 403	3.9999e+01	16.0086	97.115319	0.000557	5.574727	1.888769	0.000223
 404	4.0099e+01	16.0487	97.369658	0.000639	6.385597	2.163499	0.000256
 405	4.0198e+01	16.0921	97.652258	0.000710	7.095108	2.403888	0.000284
 406	4.0297e+01	16.1290	97.910634	0.000649	6.486956	2.197840	0.000260
 407	4.0397e+01	16.1755	98.152863	0.000608	6.081521	2.060475	0.000243
 408	4.0496e+01	16.2092	98.387017	0.000588	5.878804	1.991793	0.000235
 409	4.0596e+01	16.2493	98.681727	0.000740	7.399184	2.506911	0.000296
 410	4.0696e+01	16.2974	98.964327	0.000710	7.095108	2.403888	0.000284
 411	4.0795e+01	16.3359	99.194444	0.000578	5.777445	1.957451	0.000231
 412	4.0895e+01	16.3632	99.440709	0.000618	6.182880	2.094816	0.000248
 413	4.0994e+01	16.4145	99.735420	0.000740	7.399184	2.506911	0.000296
 414	4.1093e+01	16.4562	99.957462	0.000557	5.574727	1.888769	0.000223
 415	4.1193e+01	16.4867	100.227950	0.000679	6.791032	2.300864	0.000272
 416	4.1292e+01	16.5300	100.470179	0.000608	6.081521	2.060475	0.000243
 417	4.1392e+01	16.5685	100.756815	0.000720	7.196466	2.438229	0.000288
 418	4.1492e+01	16.6134	100.978858	0.000557	5.574727	1.888769	0.000223
 419	4.1591e+01	16.6519	101.241271	0.000659	6.588314	2.232181	0.000264
 420	4.1691e+01	16.6953	101.491574	0.000628	6.284238	2.129158	0.000252
 421	4.1790e+01	16.7338	101.733802	0.000608	6.081521	2.060475	0.000243
 422	4.1889e+01	16.7626	102.020439	0.000720	7.196466	2.438229	0.000288
 423	4.1989e+01	16.8027	102.290927	0.000679	6.791032	2.300864	0.000272
 424	4.2089e+01	16.8493	102.525081	0.000588	5.878804	1.991793	0.000235
 425	4.2188e+01	16.8797	102.779420	0.000639	6.385597	2.163499	0.000256
 426	4.2288e+01	16.9311	103.021648	0.000608	6.081521	2.060475	0.000243
 427	4.2387e+01	16.9664	103.328471	0.000770	7.703260	2.609935	0.000308
 428	4.2486e+01	17.0097	103.542439	0.000537	5.372010	1.820086	0.000215
 429	4.2586e+01	17.0562	103.821001	0.000699	6.993749	2.369546	0.000280
 430	4.2685e+01	17.0947	104.075341	0.000639	6.385597	2.163499	0.000256
 431	4.2785e+01	17.1268	104.317569	0.000608	6.081521	2.060475	0.000243
 432	4.2885e+01	17.1669	104.555760	0.000598	5.980162	2.026134	0.000239
 433	4.2984e+01	17.2118	104.810099	0.000639	6.385597	2.163499	0.000256
 434	4.3084e+01	17.2423	105.084625	0.000689	6.892390	2.335205	0.000276
 435	4.3183e+01	17.2872	105.278407	0.000487	4.865217	1.648380	0.000195
 436	4.3282e+01	17.3337	105.565044	0.000720	7.196466	2.438229	0.000288
 437	4.3382e+01	17.3658	105.827458	0.000659	6.588314	2.232181	0.000264
 438	4.3481e+01	17.4075	106.089871	0.000659	6.588314	2.232181	0.000264
 439	4.3581e+01	17.4524	106.324025	0.000588	5.878804	1.991793	0.000235
 440	4.3681e+01	17.4877	106.586439	0.000659	6.588314	2.232181	0.000264
 441	4.3780e+01	17.5278	106.840779	0.000639	6.385597	2.163499	0.000256
 442	4.3880e+01	17.5728	107.070895	0.000578	5.777445	1.957451	0.000231
 443	4.3979e+01	17.6113	107.341384	0.000679	6.791032	2.300864	0.000272
 444	4.4078e+01	17.6514	107.611872	0.000679	6.791032	2.300864	0.000272
 445	4.4178e+01	17.6819	107.854100	0.000608	6.081521	2.060475	0.000243
 446	4.4278e+01	17.7316	108.076142	0.000557	5.574727	1.888769	0.000223
 447	4.4377e+01	17.7685	108.342593	0.000669	6.689673	2.266523	0.000268
 448	4.4477e+01	17.8054	108.568673	0.000568	5.676086	1.923110	0.000227
 449	4.4576e+01	17.8487	108.843198	0.000689	6.892390	2.335205	0.000276
 450	4.4675e+01	17.8840	109.053129	0.000527	5.270651	1.785745	0.000211
 451	4.4775e+01	17.9209	109.335729	0.000710	7.095108	2.403888	0.000284
 452	4.4874e+01	17.9658	109.626402	0.000730	7.297825	2.472570	0.000292
 453	4.4974e+01	18.0027	109.880742	0.000639	6.385597	2.163499	0.000256
 454	4.5074e+01	18.0412	110.066450	0.000466	4.662499	1.579698	0.000187
 455	4.5173e+01	18.0765	110.340975	0.000689	6.892390	2.335205	0.000276
 456	4.5273e+01	18.1230	110.595315	0.000639	6.385597	2.163499	0.000256
 457	4.5372e+01	18.1711	110.837543	0.000608	6.081521	2.060475	0.000243
 458	4.5471e+01	18.2064	111.099957	0.000659	6.588314	2.232181	0.000264
 459	4.5571e+01	18.2530	111.386594	0.000720	7.196466	2.438229	0.000288
 460	4.5670e+01	18.2818	111.608636	0.000557	5.574727	1.888769	0.000223
 461	4.5770e+01	18.3171	111.862976	0.000639	6.385597	2.163499	0.000256
 462	4.5870e+01	18.3572	112.121352	0.000649	6.486956	2.197840	0.000260
 463	4.5969e+01	18.4070	112.359543	0.000598	5.980162	2.026134	0.000239
 464	4.6069e+01	18.4407	112.617920	0.000649	6.486956	2.197840	0.000260
 465	4.6168e+01	18.4824	112.884371	0.000669	6.689673	2.266523	0.000268
 466	4.6267e+01	18.5257	113.110451	0.000568	5.676086	1.923110	0.000227
 467	4.6367e+01	18.5578	113.352679	0.000608	6.081521	2.060475	0.000243
 468	4.6467e+01	18.6043	113.623167	0.000679	6.791032	2.300864	0.000272
 469	4.6566e+01	18.6428	113.857321	0.000588	5.878804	1.991793	0.000235
 470	4.6666e+01	18.6845	114.103586	0.000618	6.182880	2.094816	0.000248
 471	4.6765e+01	18.7262	114.398297	0.000740	7.399184	2.506911	0.000296
 472	4.6864e+01	18.7551	114.616302	0.000547	5.473369	1.854428	0.000219
 473	4.6964e+01	18.7984	114.842382	0.000568	5.676086	1.923110	0.000227
 474	4.7063e+01	18.8449	115.100758	0.000649	6.486956	2.197840	0.000260
 475	4.7163e+01	18.8754	115.383358	0.000710	7.095108	2.403888	0.000284
 476	4.7263e+01	18.9171	115.637698	0.000639	6.385597	2.163499	0.000256
 477	4.7362e+01	18.9556	115.875889	0.000598	5.980162	2.026134	0.000239
 478	4.7462e+01	18.9973	116.130228	0.000639	6.385597	2.163499	0.000256
 479	4.7561e+01	19.0374	116.384568	0.000639	6.385597	2.163499	0.000256
 480	4.7660e+01	19.0727	116.630833	0.000618	6.182880	2.094816	0.000248
 481	4.7760e+01	19.1160	116.864987	0.000588	5.878804	1.991793	0.000235
 482	4.7859e+01	19.1545	117.070881	0.000517	5.169293	1.751404	0.000207
 483	4.7959e+01	19.1946	117.369629	0.000750	7.500542	2.541253	0.000300
 484	4.8059e+01	19.2460	117.619931	0.000628	6.284238	2.129158	0.000252
 485	4.8158e+01	19.2797	117.866196	0.000618	6.182880	2.094816	0.000248
 486	4.8258e+01	19.3118	118.104387	0.000598	5.980162	2.026134	0.000239
 487	4.8357e+01	19.3583	118.374876	0.000679	6.791032	2.300864	0.000272
 488	4.8456e+01	19.4064	118.633252	0.000649	6.486956	2.197840	0.000260
 489	4.8556e+01	19.4465	118.875480	0.000608	6.081521	2.060475	0.000243
 490	4.8656e+01	19.4802	119.089449	0.000537	5.372010	1.820086	0.000215
 491	4.8755e+01	19.5203	119.355900	0.000669	6.689673	2.266523	0.000268
 492	4.8855e+01	19.5604	119.622350	0.000669	6.689673	2.266523	0.000268
 493	4.8954e+01	19.6085	119.860541	0.000598	5.980162	2.026134	0.000239
 494	4.9053e+01	19.6390	120.098733	0.000598	5.980162	2.026134	0.000239
 495	4.9153e+01	19.6759	120.316738	0.000547	5.473369	1.854428	0.000219
 496	4.9252e+01	19.7160	120.567040	0.000628	6.284238	2.129158	0.000252
 497	4.9352e+01	19.7609	120.825417	0.000649	6.486956	2.197840	0.000260
 498	4.9452e+01	19.7994	121.087831	0.000659	6.588314	2.232181	0.000264
 499	4.9551e+01	19.8299	121.370430	0.000710	7.095108	2.403888	0.000284
 500	4.9651e+01	19.8716	121.588436	0.000547	5.473369	1.854428	0.000219
 501	4.9750e+01	19.9133	121.834701	0.000618	6.182880	2.094816	0.000248
 502	4.9849e+01	19.9518	122.085003	0.000628	6.284238	2.129158	0.000252
 503	4.9949e+01	19.9919	122.315120	0.000578	5.777445	1.957451	0.000231
 504	5.0048e+01	19.9663	122.177857	0.000345	3.446195	1.167603	-0.000138
 505	5.0148e+01	19.9182	122.036558	0.000355	3.547554	1.201944	-0.000142
 506	5.0248e+01	19.8748	121.887184	0.000375	3.750271	1.270626	-0.000150
 507	5.0347e+01	19.8315	121.741847	0.000365	3.648913	1.236285	-0.000146
 508	5.0447e+01	19.8026	121.600547	0.000355	3.547554	1.201944	-0.000142
 509	5.0546e+01	19.7593	121.435024	0.000416	4.155706	1.407991	-0.000166
 510	5.0645e+01	19.7176	121.273539	0.000405	4.054347	1.373650	-0.000162
 511	5.0745e+01	19.6807	121.099942	0.000436	4.358423	1.476674	-0.000174
 512	5.0844e+01	19.6470	120.966717	0.000334	3.344836	1.133261	-0.000134
 513	5.0944e+01	19.5845	120.756786	0.000527	5.270651	1.785745	-0.000211
 514	5.1044e+01	19.5572	120.619523	0.000345	3.446195	1.167603	-0.000138
 515	5.1143e+01	19.5123	120.401518	0.000547	5.473369	1.854428	-0.000219
 516	5.1242e+01	19.4690	120.256181	0.000365	3.648913	1.236285	-0.000146
 517	5.1342e+01	19.4321	120.102770	0.000385	3.851630	1.304968	-0.000154
 518	5.1441e+01	19.4000	119.896876	0.000517	5.169293	1.751404	-0.000207
 519	5.1541e+01	19.3583	119.715205	0.000456	4.561141	1.545356	-0.000183
 520	5.1641e+01	19.3214	119.561793	0.000385	3.851630	1.304968	-0.000154
 521	5.1740e+01	19.2781	119.376085	0.000466	4.662499	1.579698	-0.000187
 522	5.1840e+01	19.2364	119.198451	0.000446	4.459782	1.511015	-0.000179
 523	5.1939e+01	19.2011	119.004669	0.000487	4.865217	1.648380	-0.000195
 524	5.2038e+01	19.1626	118.831072	0.000436	4.358423	1.476674	-0.000174
 525	5.2138e+01	19.1289	118.621141	0.000527	5.270651	1.785745	-0.000211
 526	5.2237e+01	19.0759	118.475804	0.000365	3.648913	1.236285	-0.000146
 527	5.2337e+01	19.0455	118.241650	0.000588	5.878804	1.991793	-0.000235
 528	5.2437e+01	19.0102	118.108425	0.000334	3.344836	1.133261	-0.000134
 529	5.2536e+01	18.9701	117.886382	0.000557	5.574727	1.888769	-0.000223
 530	5.2636e+01	18.9219	117.724897	0.000405	4.054347	1.373650	-0.000162
 531	5.2735e+01	18.8818	117.514966	0.000527	5.270651	1.785745	-0.000211
 532	5.2834e+01	18.8433	117.305035	0.000527	5.270651	1.785745	-0.000211
 533	5.2934e+01	18.8000	117.111252	0.000487	4.865217	1.648380	-0.000195
 534	5.3033e+01	18.7663	116.929581	0.000456	4.561141	1.545356	-0.000183
 535	5.3133e+01	18.7166	116.764058	0.000416	4.155706	1.407991	-0.000166
 536	5.3233e+01	18.6829	116.562202	0.000507	5.067934	1.717063	-0.000203
 537	5.3332e+01	18.6380	116.384568	0.000446	4.459782	1.511015	-0.000179
 538	5.3431e+01	18.6043	116.142339	0.000608	6.081521	2.060475	-0.000243
 539	5.3531e+01	18.5642	115.988928	0.000385	3.851630	1.304968	-0.000154
 540	5.3630e+01	18.5257	115.795146	0.000487	4.865217	1.648380	-0.000195
 541	5.3730e+01	18.4840	115.556955	0.000598	5.980162	2.026134	-0.000239
 542	5.3830e+01	18.4407	115.387395	0.000426	4.257065	1.442333	-0.000170
 543	5.3929e+01	18.3989	115.201687	0.000466	4.662499	1.579698	-0.000187
 544	5.4029e+01	18.3653	114.983682	0.000547	5.473369	1.854428	-0.000219
 545	5.4128e+01	18.3219	114.802010	0.000456	4.561141	1.545356	-0.000183
 546	5.4227e+01	18.2850	114.571894	0.000578	5.777445	1.957451	-0.000231
 547	5.4327e+01	18.2514	114.378111	0.000487	4.865217	1.648380	-0.000195
 548	5.4426e+01	18.2000	114.192403	0.000466	4.662499	1.579698	-0.000187
 549	5.4526e+01	18.1663	114.010732	0.000456	4.561141	1.545356	-0.000183
 550	5.4626e+01	18.1134	113.788689	0.000557	5.574727	1.888769	-0.000223
 551	5.4725e+01	18.0813	113.594907	0.000487	4.865217	1.648380	-0.000195
 552	5.4825e+01	18.0492	113.405161	0.000476	4.763858	1.614039	-0.000191
 553	5.4924e+01	18.0011	113.191193	0.000537	5.372010	1.820086	-0.000215
 554	5.5023e+01	17.9610	113.005485	0.000466	4.662499	1.579698	-0.000187
 555	5.5123e+01	17.9209	112.755183	0.000628	6.284238	2.129158	-0.000252
 556	5.5222e+01	17.8808	112.557363	0.000497	4.966575	1.682721	-0.000199
 557	5.5322e+01	17.8519	112.371655	0.000466	4.662499	1.579698	-0.000187
 558	5.5422e+01	17.8054	112.125389	0.000618	6.182880	2.094816	-0.000248
 559	5.5521e+01	17.7669	111.988127	0.000345	3.446195	1.167603	-0.000138
 560	5.5620e+01	17.7236	111.770121	0.000547	5.473369	1.854428	-0.000219
 561	5.5720e+01	17.6851	111.531930	0.000598	5.980162	2.026134	-0.000239
 562	5.5819e+01	17.6498	111.346222	0.000466	4.662499	1.579698	-0.000187
 563	5.5919e+01	17.5984	111.128217	0.000547	5.473369	1.854428	-0.000219
 564	5.6019e+01	17.5663	110.938472	0.000476	4.763858	1.614039	-0.000191
 565	5.6118e+01	17.5262	110.696243	0.000608	6.081521	2.060475	-0.000243
 566	5.6218e+01	17.4958	110.518609	0.000446	4.459782	1.511015	-0.000179
 567	5.6317e+01	17.4428	110.280418	0.000598	5.980162	2.026134	-0.000239
 568	5.6416e+01	17.4059	110.066450	0.000537	5.372010	1.820086	-0.000215
 569	5.6516e+01	17.3642	109.876705	0.000476	4.763858	1.614039	-0.000191
 570	5.6615e+01	17.3321	109.674848	0.000507	5.067934	1.717063	-0.000203
 571	5.6715e+01	17.2808	109.468954	0.000517	5.169293	1.751404	-0.000207
 572	5.6815e+01	17.2503	109.254986	0.000537	5.372010	1.820086	-0.000215
 573	5.6914e+01	17.2054	109.057166	0.000497	4.966575	1.682721	-0.000199
 574	5.7014e+01	17.1701	108.859347	0.000497	4.966575	1.682721	-0.000199
 575	5.7113e+01	17.1300	108.605007	0.000639	6.385597	2.163499	-0.000256
 576	5.7212e+01	17.0867	108.411225	0.000487	4.865217	1.648380	-0.000195
 577	5.7312e+01	17.0450	108.181108	0.000578	5.777445	1.957451	-0.000231
 578	5.7411e+01	17.0017	107.979251	0.000507	5.067934	1.717063	-0.000203
 579	5.7511e+01	16.9712	107.785469	0.000487	4.865217	1.648380	-0.000195
 580	5.7611e+01	16.9214	107.571500	0.000537	5.372010	1.820086	-0.000215
 581	5.7710e+01	16.8846	107.357532	0.000537	5.372010	1.820086	-0.000215
 582	5.7809e+01	16.8412	107.143564	0.000537	5.372010	1.820086	-0.000215
 583	5.7909e+01	16.8156	106.937670	0.000517	5.169293	1.751404	-0.000207
 584	5.8008e+01	16.7658	106.727739	0.000527	5.270651	1.785745	-0.000211
 585	5.8108e+01	16.7225	106.517808	0.000527	5.270651	1.785745	-0.000211
 586	5.8208e+01	16.6920	106.311914	0.000517	5.169293	1.751404	-0.000207
 587	5.8307e+01	16.6407	106.114094	0.000497	4.966575	1.682721	-0.000199
 588	5.8407e+01	16.6118	105.888015	0.000568	5.676086	1.923110	-0.000227
 589	5.8506e+01	16.5733	105.682121	0.000517	5.169293	1.751404	-0.000207
 590	5.8605e+01	16.5268	105.464115	0.000547	5.473369	1.854428	-0.000219
 591	5.8705e+01	16.4883	105.221887	0.000608	6.081521	2.060475	-0.000243
 592	5.8804e+01	16.4498	105.024068	0.000497	4.966575	1.682721	-0.000199
 593	5.8904e+01	16.4129	104.822211	0.000507	5.067934	1.717063	-0.000203
 594	5.9004e+01	16.3792	104.588057	0.000588	5.878804	1.991793	-0.000235
 595	5.9103e+01	16.3247	104.361977	0.000568	5.676086	1.923110	-0.000227
 596	5.9203e+01	16.2894	104.156083	0.000517	5.169293	1.751404	-0.000207
 597	5.9302e+01	16.2461	103.966338	0.000476	4.763858	1.614039	-0.000191
 598	5.9401e+01	16.2044	103.752370	0.000537	5.372010	1.820086	-0.000215
 599	5.9501e+01	16.1642	103.485919	0.000669	6.689673	2.266523	-0.000268
 600	5.9600e+01	16.1241	103.267914	0.000547	5.473369	1.854428	-0.000219
 601	5.9700e+01	16.0856	103.094317	0.000436	4.358423	1.476674	-0.000174
 602	5.9800e+01	16.0439	102.831903	0.000659	6.588314	2.232181	-0.000264
 603	5.9899e+01	16.0054	102.609860	0.000557	5.574727	1.888769	-0.000223
 604	5.9998e+01	15.9717	102.371669	0.000598	5.980162	2.026134	-0.000239
 605	6.0098e+01	15.9316	102.177887	0.000487	4.865217	1.648380	-0.000195
 606	6.0197e+01	15.8867	101.947770	0.000578	5.777445	1.957451	-0.000231
 607	6.0297e+01	15.8594	101.753988	0.000487	4.865217	1.648380	-0.000195
 608	6.0397e+01	15.8177	101.479462	0.000689	6.892390	2.335205	-0.000276
 609	6.0496e+01	15.7696	101.301829	0.000446	4.459782	1.511015	-0.000179
 610	6.0596e+01	15.7295	101.087860	0.000537	5.372010	1.820086	-0.000215
 611	6.0695e+01	15.6910	100.853706	0.000588	5.878804	1.991793	-0.000235
 612	6.0794e+01	15.6541	100.591293	0.000659	6.588314	2.232181	-0.000264
 613	6.0894e+01	15.6076	100.413659	0.000446	4.459782	1.511015	-0.000179
 614	6.0993e+01	15.5707	100.179505	0.000588	5.878804	1.991793	-0.000235
 615	6.1093e+01	15.5306	99.949388	0.000578	5.777445	1.957451	-0.000231
 616	6.1193e+01	15.5049	99.723308	0.000568	5.676086	1.923110	-0.000227
 617	6.1292e+01	15.4552	99.505303	0.000547	5.473369	1.854428	-0.000219
 618	6.1392e+01	15.4135	99.323632	0.000456	4.561141	1.545356	-0.000183
 619	6.1491e+01	15.3702	99.093515	0.000578	5.777445	1.957451	-0.000231
 620	6.1590e+01	15.3461	98.835139	0.000649	6.486956	2.197840	-0.000260
 621	6.1690e+01	15.2835	98.621170	0.000537	5.372010	1.820086	-0.000215
 622	6.1789e+01	15.2595	98.395091	0.000568	5.676086	1.923110	-0.000227
 623	6.1889e+01	15.2049	98.160937	0.000588	5.878804	1.991793	-0.000235
 624	6.1989e+01	15.1760	97.951006	0.000527	5.270651	1.785745	-0.000211
 625	6.2088e+01	15.1391	97.745112	0.000517	5.169293	1.751404	-0.000207
 626	6.2188e+01	15.0894	97.470587	0.000689	6.892390	2.335205	-0.000276
 627	6.2287e+01	15.0637	97.268730	0.000507	5.067934	1.717063	-0.000203
 628	6.2386e+01	15.0220	97.058799	0.000527	5.270651	1.785745	-0.000211
 629	6.2486e+01	14.9755	96.824645	0.000588	5.878804	1.991793	-0.000235
 630	6.2586e+01	14.9322	96.582417	0.000608	6.081521	2.060475	-0.000243
 631	6.2685e+01	14.9017	96.372486	0.000527	5.270651	1.785745	-0.000211
 632	6.2785e+01	14.8568	96.158518	0.000537	5.372010	1.820086	-0.000215
 633	6.2884e+01	14.8151	95.924364	0.000588	5.878804	1.991793	-0.000235
 634	6.2983e+01	14.7686	95.686173	0.000598	5.980162	2.026134	-0.000239
 635	6.3083e+01	14.7253	95.456056	0.000578	5.777445	1.957451	-0.000231
 636	6.3182e+01	14.6980	95.234013	0.000557	5.574727	1.888769	-0.000223
 637	6.3282e+01	14.6579	95.036194	0.000497	4.966575	1.682721	-0.000199
 638	6.3382e+01	14.6178	94.785891	0.000628	6.284238	2.129158	-0.000252
 639	6.3481e+01	14.5825	94.555775	0.000578	5.777445	1.957451	-0.000231
 640	6.3581e+01	14.5311	94.325658	0.000578	5.777445	1.957451	-0.000231
 641	6.3680e+01	14.5007	94.107653	0.000547	5.473369	1.854428	-0.000219
 642	6.3779e+01	14.4590	93.881573	0.000568	5.676086	1.923110	-0.000227
 643	6.3879e+01	14.4204	93.675679	0.000517	5.169293	1.751404	-0.000207
 644	6.3978e+01	14.3836	93.417302	0.000649	6.486956	2.197840	-0.000260
 645	6.4078e+01	14.3402	93.191223	0.000568	5.676086	1.923110	-0.000227
 646	6.4177e+01	14.2985	92.953032	0.000598	5.980162	2.026134	-0.000239
 647	6.4277e+01	14.2568	92.735026	0.000547	5.473369	1.854428	-0.000219
 648	6.4376e+01	14.2167	92.472613	0.000659	6.588314	2.232181	-0.000264
 649	6.4476e+01	14.1750	92.290942	0.000456	4.561141	1.545356	-0.000183
 650	6.4576e+01	14.1381	92.032565	0.000649	6.486956	2.197840	-0.000260
 651	6.4675e+01	14.0964	91.834745	0.000497	4.966575	1.682721	-0.000199
 652	6.4775e+01	14.0547	91.580406	0.000639	6.385597	2.163499	-0.000256
 653	6.4874e+01	14.0194	91.374512	0.000517	5.169293	1.751404	-0.000207
 654	6.4974e+01	13.9793	91.124209	0.000628	6.284238	2.129158	-0.000252
 655	6.5073e+01	13.9392	90.910241	0.000537	5.372010	1.820086	-0.000215
 656	6.5172e+01	13.9023	90.676087	0.000588	5.878804	1.991793	-0.000235
 657	6.5272e+01	13.8654	90.458082	0.000547	5.473369	1.854428	-0.000219
 658	6.5371e+01	13.8253	90.227965	0.000578	5.777445	1.957451	-0.000231
 659	6.5471e+01	13.7772	90.005923	0.000557	5.574727	1.888769	-0.000223
 660	6.5570e+01	13.7338	89.767732	0.000598	5.980162	2.026134	-0.000239
 661	6.5670e+01	13.6985	89.497244	0.000679	6.791032	2.300864	-0.000272
 662	6.5769e+01	13.6584	89.315573	0.000456	4.561141	1.545356	-0.000183
 663	6.5869e+01	13.6280	89.085456	0.000578	5.777445	1.957451	-0.000231
 664	6.5969e+01	13.5798	88.806893	0.000699	6.993749	2.369546	-0.000280
 665	6.6068e+01	13.5413	88.588888	0.000547	5.473369	1.854428	-0.000219
 666	6.6168e+01	13.5012	88.358771	0.000578	5.777445	1.957451	-0.000231
 667	6.6267e+01	13.4627	88.132692	0.000568	5.676086	1.923110	-0.000227
 668	6.6367e+01	13.4242	87.910649	0.000557	5.574727	1.888769	-0.000223
 669	6.6466e+01	13.3761	87.644198	0.000669	6.689673	2.266523	-0.000268
 670	6.6566e+01	13.3424	87.426193	0.000547	5.473369	1.854428	-0.000219
 671	6.6665e+01	13.3023	87.163779	0.000659	6.588314	2.232181	-0.000264
 672	6.6764e+01	13.2718	86.937700	0.000568	5.676086	1.923110	-0.000227
 673	6.6864e+01	13.2141	86.687397	0.000628	6.284238	2.129158	-0.000252
 674	6.6963e+01	13.1756	86.477466	0.000527	5.270651	1.785745	-0.000211
 675	6.7063e+01	13.1387	86.247349	0.000578	5.777445	1.957451	-0.000231
 676	6.7162e+01	13.1050	86.033381	0.000537	5.372010	1.820086	-0.000215
 677	6.7262e+01	13.0569	85.754819	0.000699	6.993749	2.369546	-0.000280
 678	6.7362e+01	13.0328	85.569111	0.000466	4.662499	1.579698	-0.000187
 679	6.7461e+01	12.9798	85.302660	0.000669	6.689673	2.266523	-0.000268
 680	6.7561e+01	12.9510	85.072543	0.000578	5.777445	1.957451	-0.000231
 681	6.7660e+01	12.9012	84.902983	0.000426	4.257065	1.442333	-0.000170
 682	6.7760e+01	12.8692	84.628458	0.000689	6.892390	2.335205	-0.000276
 683	6.7859e+01	12.8258	84.414490	0.000537	5.372010	1.820086	-0.000215
 684	6.7959e+01	12.7841	84.184373	0.000578	5.777445	1.957451	-0.000231
 685	6.8058e+01	12.7553	83.921959	0.000659	6.588314	2.232181	-0.000264
 686	6.8157e+01	12.7055	83.699917	0.000557	5.574727	1.888769	-0.000223
 687	6.8257e+01	12.6670	83.465763	0.000588	5.878804	1.991793	-0.000235
 688	6.8356e+01	12.6349	83.239683	0.000568	5.676086	1.923110	-0.000227
 689	6.8456e+01	12.5820	83.005529	0.000588	5.878804	1.991793	-0.000235
 690	6.8555e+01	12.5531	82.783487	0.000557	5.574727	1.888769	-0.000223
 691	6.8655e+01	12.5162	82.537222	0.000618	6.182880	2.094816	-0.000248
 692	6.8754e+01	12.4665	82.311142	0.000568	5.676086	1.923110	-0.000227
 693	6.8854e+01	12.4232	82.032580	0.000699	6.993749	2.369546	-0.000280
 694	6.8954e+01	12.3975	81.834760	0.000497	4.966575	1.682721	-0.000199
 695	6.9053e+01	12.3494	81.600606	0.000588	5.878804	1.991793	-0.000235
 696	6.9153e+01	12.3061	81.322044	0.000699	6.993749	2.369546	-0.000280
 697	6.9252e+01	12.2676	81.128261	0.000487	4.865217	1.648380	-0.000195
 698	6.9352e+01	12.2307	80.918330	0.000527	5.270651	1.785745	-0.000211
 699	6.9451e+01	12.1761	80.647842	0.000679	6.791032	2.300864	-0.000272
 700	6.9550e+01	12.1440	80.429837	0.000547	5.473369	1.854428	-0.000219
 701	6.9650e+01	12.1104	80.179534	0.000628	6.284238	2.129158	-0.000252
 702	6.9749e+01	12.0670	79.933269	0.000618	6.182880	2.094816	-0.000248
 703	6.9849e+01	12.0269	79.666818	0.000669	6.689673	2.266523	-0.000268
 704	6.9948e+01	11.9852	79.497258	0.000426	4.257065	1.442333	-0.000170
 705	7.0048e+01	11.9499	79.230807	0.000669	6.689673	2.266523	-0.000268
 706	7.0147e+01	11.9194	79.016839	0.000537	5.372010	1.820086	-0.000215
 707	7.0247e+01	11.8761	78.766537	0.000628	6.284238	2.129158	-0.000252
 708	7.0347e+01	11.8344	78.504123	0.000659	6.588314	2.232181	-0.000264
 709	7.0446e+01	11.7879	78.306303	0.000497	4.966575	1.682721	-0.000199
 710	7.0546e+01	11.7494	77.999481	0.000770	7.703260	2.609935	-0.000308
 711	7.0645e+01	11.7109	77.833958	0.000416	4.155706	1.407991	-0.000166
 712	7.0745e+01	11.6692	77.599805	0.000588	5.878804	1.991793	-0.000235
 713	7.0844e+01	11.6291	77.353539	0.000618	6.182880	2.094816	-0.000248
 714	7.0944e+01	11.5954	77.066903	0.000720	7.196466	2.438229	-0.000288
 715	7.1043e+01	11.5553	76.824675	0.000608	6.081521	2.060475	-0.000243
 716	7.1142e+01	11.5168	76.602632	0.000557	5.574727	1.888769	-0.000223
 717	7.1242e+01	11.4655	76.368478	0.000588	5.878804	1.991793	-0.000235
 718	7.1341e+01	11.4302	76.154510	0.000537	5.372010	1.820086	-0.000215
 719	7.1441e+01	11.3981	75.896133	0.000649	6.486956	2.197840	-0.000260
 720	7.1540e+01	11.3435	75.670054	0.000568	5.676086	1.923110	-0.000227
 721	7.1640e+01	11.3098	75.371306	0.000750	7.500542	2.541253	-0.000300
 722	7.1740e+01	11.2745	75.153300	0.000547	5.473369	1.854428	-0.000219
 723	7.1839e+01	11.2312	74.931258	0.000557	5.574727	1.888769	-0.000223
 724	7.1939e+01	11.1847	74.676918	0.000639	6.385597	2.163499	-0.000256
 725	7.2038e+01	11.1526	74.462950	0.000537	5.372010	1.820086	-0.000215
 726	7.2138e+01	11.1189	74.228796	0.000588	5.878804	1.991793	-0.000235
 727	7.2237e+01	11.0740	73.974457	0.000639	6.385597	2.163499	-0.000256
 728	7.2337e+01	11.0435	73.760489	0.000537	5.372010	1.820086	-0.000215
 729	7.2436e+01	10.9922	73.473852	0.000720	7.196466	2.438229	-0.000288
 730	7.2535e+01	10.9505	73.243735	0.000578	5.777445	1.957451	-0.000231
 731	7.2635e+01	10.9184	72.977284	0.000669	6.689673	2.266523	-0.000268
 732	7.2734e+01	10.8687	72.731019	0.000618	6.182880	2.094816	-0.000248
 733	7.2834e+01	10.8350	72.500902	0.000578	5.777445	1.957451	-0.000231
 734	7.2933e+01	10.7933	72.274823	0.000568	5.676086	1.923110	-0.000227
 735	7.3033e+01	10.7484	72.044706	0.000578	5.777445	1.957451	-0.000231
 736	7.3132e+01	10.7099	71.778255	0.000669	6.689673	2.266523	-0.000268
 737	7.3232e+01	10.6698	71.564287	0.000537	5.372010	1.820086	-0.000215
 738	7.3332e+01	10.6425	71.326096	0.000598	5.980162	2.026134	-0.000239
 739	7.3431e+01	10.5879	71.059645	0.000669	6.689673	2.266523	-0.000268
 740	7.3531e+01	10.5526	70.789157	0.000679	6.791032	2.300864	-0.000272
 741	7.3630e+01	10.5206	70.579226	0.000527	5.270651	1.785745	-0.000211
 742	7.3730e+01	10.4805	70.373332	0.000517	5.169293	1.751404	-0.000207
 743	7.3829e+01	10.4436	70.082658	0.000730	7.297825	2.472570	-0.000292
 744	7.3928e+01	10.3954	69.836393	0.000618	6.182880	2.094816	-0.000248
 745	7.4028e+01	10.3553	69.590127	0.000618	6.182880	2.094816	-0.000248
 746	7.4127e+01	10.3216	69.347899	0.000608	6.081521	2.060475	-0.000243
 747	7.4227e+01	10.2783	69.121820	0.000568	5.676086	1.923110	-0.000227
 748	7.4326e+01	10.2350	68.827109	0.000740	7.399184	2.506911	-0.000296
 749	7.4426e+01	10.1965	68.629289	0.000497	4.966575	1.682721	-0.000199
 750	7.4525e+01	10.1500	68.391098	0.000598	5.980162	2.026134	-0.000239
 751	7.4625e+01	10.1099	68.140796	0.000628	6.284238	2.129158	-0.000252
 752	7.4725e+01	10.0842	67.898567	0.000608	6.081521	2.060475	-0.000243
 753	7.4824e+01	10.0425	67.648265	0.000628	6.284238	2.129158	-0.000252
 754	7.4924e+01	9.9992	67.410074	0.000598	5.980162	2.026134	-0.000239
 755	7.5023e+01	9.9655	67.143623	0.000669	6.689673	2.266523	-0.000268
 756	7.5123e+01	9.9174	66.929655	0.000537	5.372010	1.820086	-0.000215
 757	7.5222e+01	9.8837	66.687427	0.000608	6.081521	2.060475	-0.000243
 758	7.5322e+01	9.8420	66.416939	0.000679	6.791032	2.300864	-0.000272
 759	7.5421e+01	9.7954	66.170673	0.000618	6.182880	2.094816	-0.000248
 760	7.5520e+01	9.7602	65.896148	0.000689	6.892390	2.335205	-0.000276
 761	7.5620e+01	9.7152	65.698328	0.000497	4.966575	1.682721	-0.000199
 762	7.5719e+01	9.6815	65.415729	0.000710	7.095108	2.403888	-0.000284
 763	7.5819e+01	9.6414	65.205798	0.000527	5.270651	1.785745	-0.000211
 764	7.5918e+01	9.5949	64.951458	0.000639	6.385597	2.163499	-0.000256
 765	7.6018e+01	9.5532	64.701156	0.000628	6.284238	2.129158	-0.000252
 766	7.6118e+01	9.5420	64.442779	0.000649	6.486956	2.197840	-0.000260
 767	7.6217e+01	9.4810	64.208625	0.000588	5.878804	1.991793	-0.000235
 768	7.6317e+01	9.4345	63.942174	0.000669	6.689673	2.266523	-0.000268
 769	7.6416e+01	9.4088	63.667649	0.000689	6.892390	2.335205	-0.000276
 770	7.6516e+01	9.3623	63.445607	0.000557	5.574727	1.888769	-0.000223
 771	7.6615e+01	9.3158	63.183193	0.000659	6.588314	2.232181	-0.000264
 772	7.6715e+01	9.2741	62.949039	0.000588	5.878804	1.991793	-0.000235
 773	7.6814e+01	9.2388	62.686625	0.000659	6.588314	2.232181	-0.000264
 774	7.6913e+01	9.1890	62.408063	0.000699	6.993749	2.369546	-0.000280
 775	7.7013e+01	9.1538	62.198132	0.000527	5.270651	1.785745	-0.000211
 776	7.7112e+01	9.1201	61.923607	0.000689	6.892390	2.335205	-0.000276
 777	7.7212e+01	9.0767	61.669267	0.000639	6.385597	2.163499	-0.000256
 778	7.7311e+01	9.0399	61.414927	0.000639	6.385597	2.163499	-0.000256
 779	7.7411e+01	8.9997	61.172699	0.000608	6.081521	2.060475	-0.000243
 780	7.7510e+01	8.9564	60.890100	0.000710	7.095108	2.403888	-0.000284
 781	7.7610e+01	8.9115	60.688243	0.000507	5.067934	1.717063	-0.000203
 782	7.7710e+01	8.8858	60.409681	0.000699	6.993749	2.369546	-0.000280
 783	7.7809e+01	8.8409	60.123044	0.000720	7.196466	2.438229	-0.000288
 784	7.7909e+01	8.7992	59.892927	0.000578	5.777445	1.957451	-0.000231
 785	7.8008e+01	8.7543	59.622439	0.000679	6.791032	2.300864	-0.000272
 786	7.8108e+01	8.7174	59.440768	0.000456	4.561141	1.545356	-0.000183
 787	7.8207e+01	8.6821	59.146057	0.000740	7.399184	2.506911	-0.000296
 788	7.8306e+01	8.6500	58.903829	0.000608	6.081521	2.060475	-0.000243
 789	7.8406e+01	8.6035	58.629304	0.000689	6.892390	2.335205	-0.000276
 790	7.8505e+01	8.5570	58.403224	0.000568	5.676086	1.923110	-0.000227
 791	7.8605e+01	8.5153	58.156959	0.000618	6.182880	2.094816	-0.000248
 792	7.8704e+01	8.4848	57.914731	0.000608	6.081521	2.060475	-0.000243
 793	7.8804e+01	8.4367	57.611946	0.000760	7.601901	2.575594	-0.000304
 794	7.8903e+01	8.4126	57.397977	0.000537	5.372010	1.820086	-0.000215
 795	7.9003e+01	8.3677	57.147675	0.000628	6.284238	2.129158	-0.000252
 796	7.9103e+01	8.3260	56.885261	0.000659	6.588314	2.232181	-0.000264
 797	7.9202e+01	8.2762	56.630922	0.000639	6.385597	2.163499	-0.000256
 798	7.9302e+01	8.2345	56.372545	0.000649	6.486956	2.197840	-0.000260
 799	7.9401e+01	8.2040	56.146465	0.000568	5.676086	1.923110	-0.000227
 800	7.9501e+01	8.1639	55.892126	0.000639	6.385597	2.163499	-0.000256
 801	7.9600e+01	8.1238	55.609526	0.000710	7.095108	2.403888	-0.000284
 802	7.9700e+01	8.0773	55.375372	0.000588	5.878804	1.991793	-0.000235
 803	7.9799e+01	8.0500	55.129107	0.000618	6.182880	2.094816	-0.000248
 804	7.9898e+01	7.9971	54.878805	0.000628	6.284238	2.129158	-0.000252
 805	7.9998e+01	7.9634	54.584094	0.000740	7.399184	2.506911	-0.000296
 806	8.0097e+01	7.9217	54.374163	0.000527	5.270651	1.785745	-0.000211
 807	8.0197e+01	7.8784	54.111749	0.000659	6.588314	2.232181	-0.000264
 808	8.0296e+01	7.8463	53.853372	0.000649	6.486956	2.197840	-0.000260
 809	8.0396e+01	7.8030	53.582884	0.000679	6.791032	2.300864	-0.000272
 810	8.0496e+01	7.7709	53.336619	0.000618	6.182880	2.094816	-0.000248
 811	8.0595e+01	7.7260	53.086316	0.000628	6.284238	2.129158	-0.000252
 812	8.0695e+01	7.6875	52.831977	0.000639	6.385597	2.163499	-0.000256
 813	8.0794e+01	7.6426	52.585712	0.000618	6.182880	2.094816	-0.000248
 814	8.0894e+01	7.6169	52.331372	0.000639	6.385597	2.163499	-0.000256
 815	8.0993e+01	7.5640	52.072995	0.000649	6.486956	2.197840	-0.000260
 816	8.1093e+01	7.5255	51.822693	0.000628	6.284238	2.129158	-0.000252
 817	8.1192e+01	7.4886	51.536056	0.000720	7.196466	2.438229	-0.000288
 818	8.1291e+01	7.4420	51.322088	0.000537	5.372010	1.820086	-0.000215
 819	8.1391e+01	7.4132	51.063711	0.000649	6.486956	2.197840	-0.000260
 820	8.1490e+01	7.3650	50.797260	0.000669	6.689673	2.266523	-0.000268
 821	8.1590e+01	7.3233	50.530809	0.000669	6.689673	2.266523	-0.000268
 822	8.1689e+01	7.2848	50.264359	0.000669	6.689673	2.266523	-0.000268
 823	8.1789e+01	7.2479	50.046353	0.000547	5.473369	1.854428	-0.000219
 824	8.1888e+01	7.2078	49.792014	0.000639	6.385597	2.163499	-0.000256
 825	8.1988e+01	7.1693	49.513451	0.000699	6.993749	2.369546	-0.000280
 826	8.2088e+01	7.1292	49.242963	0.000679	6.791032	2.300864	-0.000272
 827	8.2187e+01	7.0875	48.980549	0.000659	6.588314	2.232181	-0.000264
 828	8.2287e+01	7.0394	48.738321	0.000608	6.081521	2.060475	-0.000243
 829	8.2386e+01	7.0089	48.492056	0.000618	6.182880	2.094816	-0.000248
 830	8.2486e+01	6.9704	48.221568	0.000679	6.791032	2.300864	-0.000272
 831	8.2585e+01	6.9175	47.971265	0.000628	6.284238	2.129158	-0.000252
 832	8.2684e+01	6.8902	47.741149	0.000578	5.777445	1.957451	-0.000231
 833	8.2784e+01	6.8533	47.462586	0.000699	6.993749	2.369546	-0.000280
 834	8.2883e+01	6.8100	47.179987	0.000710	7.095108	2.403888	-0.000284
 835	8.2983e+01	6.7634	46.917573	0.000659	6.588314	2.232181	-0.000264
 836	8.3082e+01	6.7249	46.671308	0.000618	6.182880	2.094816	-0.000248
 837	8.3182e+01	6.6864	46.400820	0.000679	6.791032	2.300864	-0.000272
 838	8.3281e+01	6.6399	46.186851	0.000537	5.372010	1.820086	-0.000215
 839	8.3381e+01	6.6175	45.908289	0.000699	6.993749	2.369546	-0.000280
 840	8.3481e+01	6.5758	45.662024	0.000618	6.182880	2.094816	-0.000248
 841	8.3580e+01	6.5276	45.367313	0.000740	7.399184	2.506911	-0.000296
 842	8.3680e+01	6.4907	45.104899	0.000659	6.588314	2.232181	-0.000264
 843	8.3779e+01	6.4586	44.858634	0.000618	6.182880	2.094816	-0.000248
 844	8.3879e+01	6.4185	44.632554	0.000568	5.676086	1.923110	-0.000227
 845	8.3978e+01	6.3688	44.358029	0.000689	6.892390	2.335205	-0.000276
 846	8.4078e+01	6.3255	44.111764	0.000618	6.182880	2.094816	-0.000248
 847	8.4177e+01	6.3014	43.849350	0.000659	6.588314	2.232181	-0.000264
 848	8.4276e+01	6.2517	43.603085	0.000618	6.182880	2.094816	-0.000248
 849	8.4376e+01	6.2116	43.352782	0.000628	6.284238	2.129158	-0.000252
 850	8.4475e+01	6.1779	43.049997	0.000760	7.601901	2.575594	-0.000304
 851	8.4575e+01	6.1314	42.836029	0.000537	5.372010	1.820086	-0.000215
 852	8.4674e+01	6.0961	42.529206	0.000770	7.703260	2.609935	-0.000308
 853	8.4774e+01	6.0576	42.278904	0.000628	6.284238	2.129158	-0.000252
 854	8.4874e+01	6.0143	42.048787	0.000578	5.777445	1.957451	-0.000231
 855	8.4973e+01	5.9774	41.798485	0.000628	6.284238	2.129158	-0.000252
 856	8.5073e+01	5.9437	41.515885	0.000710	7.095108	2.403888	-0.000284
 857	8.5172e+01	5.8956	41.269620	0.000618	6.182880	2.094816	-0.000248
 858	8.5272e+01	5.8571	40.999132	0.000679	6.791032	2.300864	-0.000272
 859	8.5371e+01	5.8153	40.769015	0.000578	5.777445	1.957451	-0.000231
 860	8.5471e+01	5.7849	40.474304	0.000740	7.399184	2.506911	-0.000296
 861	8.5570e+01	5.7383	40.211891	0.000659	6.588314	2.232181	-0.000264
 862	8.5669e+01	5.6966	40.005997	0.000517	5.169293	1.751404	-0.000207
 863	8.5769e+01	5.6549	39.715323	0.000730	7.297825	2.472570	-0.000292
 864	8.5868e+01	5.6084	39.452909	0.000659	6.588314	2.232181	-0.000264
 865	8.5968e+01	5.5683	39.222792	0.000578	5.777445	1.957451	-0.000231
 866	8.6067e+01	5.5394	38.944230	0.000699	6.993749	2.369546	-0.000280
 867	8.6167e+01	5.4881	38.697965	0.000618	6.182880	2.094816	-0.000248
 868	8.6266e+01	5.4560	38.411328	0.000720	7.196466	2.438229	-0.000288
 869	8.6366e+01	5.4223	38.169100	0.000608	6.081521	2.060475	-0.000243
 870	8.6466e+01	5.3790	37.914760	0.000639	6.385597	2.163499	-0.000256
 871	8.6565e+01	5.3293	37.676569	0.000598	5.980162	2.026134	-0.000239
 872	8.6665e+01	5.2940	37.389933	0.000720	7.196466	2.438229	-0.000288
 873	8.6764e+01	5.2619	37.135593	0.000639	6.385597	2.163499	-0.000256
 874	8.6864e+01	5.2218	36.873179	0.000659	6.588314	2.232181	-0.000264
 875	8.6963e+01	5.1865	36.610765	0.000659	6.588314	2.232181	-0.000264
 876	8.7063e+01	5.1351	36.340277	0.000679	6.791032	2.300864	-0.000272
 877	8.7162e+01	5.0934	36.073826	0.000669	6.689673	2.266523	-0.000268
 878	8.7261e+01	5.0662	35.835635	0.000598	5.980162	2.026134	-0.000239
 879	8.7361e+01	5.0068	35.557073	0.000699	6.993749	2.369546	-0.000280
 880	8.7460e+01	4.9763	35.266399	0.000730	7.297825	2.472570	-0.000292
 881	8.7560e+01	4.9330	35.052431	0.000537	5.372010	1.820086	-0.000215
 882	8.7659e+01	4.9106	34.777906	0.000689	6.892390	2.335205	-0.000276
 883	8.7759e+01	4.8560	34.531641	0.000618	6.182880	2.094816	-0.000248
 884	8.7859e+01	4.8159	34.232892	0.000750	7.500542	2.541253	-0.000300
 885	8.7958e+01	4.7806	33.966442	0.000669	6.689673	2.266523	-0.000268
 886	8.8058e+01	4.7389	33.724213	0.000608	6.081521	2.060475	-0.000243
 887	8.8157e+01	4.7052	33.486022	0.000598	5.980162	2.026134	-0.000239
 888	8.8257e+01	4.6619	33.219571	0.000669	6.689673	2.266523	-0.000268
 889	8.8356e+01	4.6202	32.916786	0.000760	7.601901	2.575594	-0.000304
 890	8.8456e+01	4.5801	32.694744	0.000557	5.574727	1.888769	-0.000223
 891	8.8555e+01	4.5432	32.408107	0.000720	7.196466	2.438229	-0.000288
 892	8.8654e+01	4.4919	32.161842	0.000618	6.182880	2.094816	-0.000248
 893	8.8754e+01	4.4614	31.899428	0.000659	6.588314	2.232181	-0.000264
 894	8.8853e+01	4.4213	31.645088	0.000639	6.385597	2.163499	-0.000256
 895	8.8953e+01	4.3763	31.394786	0.000628	6.284238	2.129158	-0.000252
 896	8.9052e+01	4.3443	31.120261	0.000689	6.892390	2.335205	-0.000276
 897	8.9152e+01	4.3026	30.841698	0.000699	6.993749	2.369546	-0.000280
 898	8.9251e+01	4.2544	30.567173	0.000689	6.892390	2.335205	-0.000276
 899	8.9351e+01	4.2239	30.300722	0.000669	6.689673	2.266523	-0.000268
 900	8.9451e+01	4.1774	30.074643	0.000568	5.676086	1.923110	-0.000227
 901	8.9550e+01	4.1389	29.755709	0.000801	8.007336	2.712959	-0.000321
 902	8.9650e+01	4.0956	29.545778	0.000527	5.270651	1.785745	-0.000211
 903	8.9749e+01	4.0651	29.234918	0.000780	7.804618	2.644276	-0.000312
 904	8.9849e+01	4.0186	28.972505	0.000659	6.588314	2.232181	-0.000264
 905	8.9948e+01	3.9849	28.738351	0.000588	5.878804	1.991793	-0.000235
 906	9.0047e+01	3.9352	28.467863	0.000679	6.791032	2.300864	-0.000272
 907	9.0147e+01	3.8967	28.217560	0.000628	6.284238	2.129158	-0.000252
 908	9.0246e+01	3.8550	27.967258	0.000628	6.284238	2.129158	-0.000252
 909	9.0346e+01	3.8197	27.680621	0.000720	7.196466	2.438229	-0.000288
 910	9.0445e+01	3.7796	27.410133	0.000679	6.791032	2.300864	-0.000272
 911	9.0545e+01	3.7443	27.175979	0.000588	5.878804	1.991793	-0.000235
 912	9.0644e+01	3.7074	26.889343	0.000720	7.196466	2.438229	-0.000288
 913	9.0744e+01	3.6609	26.651152	0.000598	5.980162	2.026134	-0.000239
 914	9.0844e+01	3.6240	26.356441	0.000740	7.399184	2.506911	-0.000296
 915	9.0943e+01	3.5855	26.114213	0.000608	6.081521	2.060475	-0.000243
 916	9.1043e+01	3.5373	25.831613	0.000710	7.095108	2.403888	-0.000284
 917	9.1142e+01	3.5004	25.532865	0.000750	7.500542	2.541253	-0.000300
 918	9.1242e+01	3.4587	25.262377	0.000679	6.791032	2.300864	-0.000272
 919	9.1341e+01	3.4282	25.056483	0.000517	5.169293	1.751404	-0.000207
 920	9.1441e+01	3.3865	24.781958	0.000689	6.892390	2.335205	-0.000276
 921	9.1540e+01	3.3368	24.495321	0.000720	7.196466	2.438229	-0.000288
 922	9.1639e+01	3.3079	24.253093	0.000608	6.081521	2.060475	-0.000243
 923	9.1739e+01	3.2678	24.027013	0.000568	5.676086	1.923110	-0.000227
 924	9.1838e+01	3.2245	23.748451	0.000699	6.993749	2.369546	-0.000280
 925	9.1938e+01	3.1988	23.441629	0.000770	7.703260	2.609935	-0.000308
 926	9.2037e+01	3.1427	23.179215	0.000659	6.588314	2.232181	-0.000264
 927	9.2137e+01	3.1058	22.941024	0.000598	5.980162	2.026134	-0.000239
 928	9.2237e+01	3.0689	22.690721	0.000628	6.284238	2.129158	-0.000252
 929	9.2336e+01	3.0224	22.412159	0.000699	6.993749	2.369546	-0.000280
 930	9.2436e+01	2.9871	22.113411	0.000750	7.500542	2.541253	-0.000300
 931	9.2535e+01	2.9502	21.863109	0.000628	6.284238	2.129158	-0.000252
 932	9.2635e+01	2.9101	21.584546	0.000699	6.993749	2.369546	-0.000280
 933	9.2734e+01	2.8684	21.334244	0.000628	6.284238	2.129158	-0.000252
 934	9.2834e+01	2.8299	21.055681	0.000699	6.993749	2.369546	-0.000280
 935	9.2933e+01	2.7914	20.805379	0.000628	6.284238	2.129158	-0.000252
 936	9.3032e+01	2.7497	20.506631	0.000750	7.500542	2.541253	-0.000300
 937	9.3132e+01	2.6999	20.260366	0.000618	6.182880	2.094816	-0.000248
 938	9.3231e+01	2.6646	19.977766	0.000710	7.095108	2.403888	-0.000284
 939	9.3331e+01	2.6165	19.719390	0.000649	6.486956	2.197840	-0.000260
 940	9.3430e+01	2.5908	19.432753	0.000720	7.196466	2.438229	-0.000288
 941	9.3530e+01	2.5507	19.194562	0.000598	5.980162	2.026134	-0.000239
 942	9.3629e+01	2.4898	18.907925	0.000720	7.196466	2.438229	-0.000288
 943	9.3729e+01	2.4577	18.665697	0.000608	6.081521	2.060475	-0.000243
 944	9.3829e+01	2.4352	18.358875	0.000770	7.703260	2.609935	-0.000308
 945	9.3928e+01	2.3919	18.116647	0.000608	6.081521	2.060475	-0.000243
 946	9.4028e+01	2.3470	17.821936	0.000740	7.399184	2.506911	-0.000296
 947	9.4127e+01	2.3085	17.607968	0.000537	5.372010	1.820086	-0.000215
 948	9.4227e+01	2.2652	17.284997	0.000811	8.108694	2.747300	-0.000325
 949	9.4326e+01	2.2219	17.034694	0.000628	6.284238	2.129158	-0.000252
 950	9.4425e+01	2.1866	16.760169	0.000689	6.892390	2.335205	-0.000276
 951	9.4525e+01	2.1433	16.485644	0.000689	6.892390	2.335205	-0.000276
 952	9.4624e+01	2.1112	16.215156	0.000679	6.791032	2.300864	-0.000272
 953	9.4724e+01	2.0679	15.928519	0.000720	7.196466	2.438229	-0.000288
 954	9.4823e+01	2.0310	15.702439	0.000568	5.676086	1.923110	-0.000227
 955	9.4923e+01	1.9812	15.423877	0.000699	6.993749	2.369546	-0.000280
 956	9.5022e+01	1.9524	15.157426	0.000669	6.689673	2.266523	-0.000268
 957	9.5122e+01	1.9187	14.886938	0.000679	6.791032	2.300864	-0.000272
 958	9.5222e+01	1.8657	14.624524	0.000659	6.588314	2.232181	-0.000264
 959	9.5321e+01	1.8304	14.337888	0.000720	7.196466	2.438229	-0.000288
 960	9.5421e+01	1.7919	14.027028	0.000780	7.804618	2.644276	-0.000312
 961	9.5520e+01	1.7566	13.817097	0.000527	5.270651	1.785745	-0.000211
 962	9.5620e+01	1.7181	13.506238	0.000780	7.804618	2.644276	-0.000312
 963	9.5719e+01	1.6716	13.247861	0.000649	6.486956	2.197840	-0.000260
 964	9.5819e+01	1.6331	13.017744	0.000578	5.777445	1.957451	-0.000231
 965	9.5918e+01	1.5834	12.694773	0.000811	8.108694	2.747300	-0.000325
 966	9.6017e+01	1.5545	12.412174	0.000710	7.095108	2.403888	-0.000284
 967	9.6117e+01	1.5208	12.214354	0.000497	4.966575	1.682721	-0.000199
 968	9.6216e+01	1.4727	11.895420	0.000801	8.007336	2.712959	-0.000321
 969	9.6316e+01	1.4262	11.633007	0.000659	6.588314	2.232181	-0.000264
 970	9.6415e+01	1.3941	11.362519	0.000679	6.791032	2.300864	-0.000272
 971	9.6515e+01	1.3508	11.104142	0.000649	6.486956	2.197840	-0.000260
 972	9.6615e+01	1.3139	10.809431	0.000740	7.399184	2.506911	-0.000296
 973	9.6714e+01	1.2770	10.591426	0.000547	5.473369	1.854428	-0.000219
 974	9.6814e+01	1.2240	10.329012	0.000659	6.588314	2.232181	-0.000264
 975	9.6913e+01	1.1952	10.002004	0.000821	8.210053	2.781641	-0.000329
 976	9.7013e+01	1.1486	9.739590	0.000659	6.588314	2.232181	-0.000264
 977	9.7112e+01	1.1037	9.529659	0.000527	5.270651	1.785745	-0.000211
 978	9.7212e+01	1.0604	9.198614	0.000831	8.311412	2.815983	-0.000333
 979	9.7311e+01	1.0315	8.936200	0.000659	6.588314	2.232181	-0.000264
 980	9.7410e+01	0.9962	8.681860	0.000639	6.385597	2.163499	-0.000256
 981	9.7510e+01	0.9497	8.371001	0.000780	7.804618	2.644276	-0.000312
 982	9.7609e+01	0.9096	8.140884	0.000578	5.777445	1.957451	-0.000231
 983	9.7709e+01	0.8727	7.862322	0.000699	6.993749	2.369546	-0.000280
 984	9.7808e+01	0.8358	7.616057	0.000618	6.182880	2.094816	-0.000248
 985	9.7908e+01	0.7957	7.321346	0.000740	7.399184	2.506911	-0.000296
 986	9.8007e+01	0.7508	7.046820	0.000689	6.892390	2.335205	-0.000276
 987	9.8107e+01	0.7059	6.784407	0.000659	6.588314	2.232181	-0.000264
 988	9.8207e+01	0.6786	6.558327	0.000568	5.676086	1.923110	-0.000227
 989	9.8306e+01	0.6273	6.267653	0.000730	7.297825	2.472570	-0.000292
 990	9.8406e+01	0.5871	5.985054	0.000710	7.095108	2.403888	-0.000284
 991	9.8505e+01	0.5519	5.706491	0.000699	6.993749	2.369546	-0.000280
 992	9.8605e+01	0.5246	5.444078	0.000659	6.588314	2.232181	-0.000264
 993	9.8704e+01	0.4668	5.157441	0.000720	7.196466	2.438229	-0.000288
 994	9.8803e+01	0.4412	4.927324	0.000578	5.777445	1.957451	-0.000231
 995	9.8903e+01	0.3898	4.620502	0.000770	7.703260	2.609935	-0.000308
 996	9.9002e+01	0.3626	4.337902	0.000710	7.095108	2.403888	-0.000284
 997	9.9102e+01	0.3048	4.099711	0.000598	5.980162	2.026134	-0.000239
 998	9.9201e+01	0.2759	3.821149	0.000699	6.993749	2.369546	-0.000280
 999	9.9301e+01	0.2390	3.554698	0.000669	6.689673	2.266523	-0.000268
1000	9.9400e+01	0.1909	3.276136	0.000699	6.993749	2.369546	-0.000280
1001	9.9500e+01	0.1524	3.009685	0.000669	6.689673	2.266523	-0.000268
1002	9.9600e+01	0.1139	2.787642	0.000557	5.574727	1.888769	-0.000223
1003	9.9699e+01	0.0770	2.484857	0.000760	7.601901	2.575594	-0.000304
1004	9.9799e+01	0.0401	2.178035	0.000770	7.703260	2.609935	-0.000308
1005	9.9898e+01	0.0128	1.972141	0.000517	5.169293	1.751404	-0.000207
1006	9.9998e+01	-0.0337	1.693578	0.000699	6.993749	2.369546	-0.000280
1007	1.0010e+02	-0.0706	1.431165	0.000659	6.588314	2.232181	-0.000264
1008	1.0020e+02	-0.1171	1.176825	0.000639	6.385597	2.163499	-0.000256
1009	1.0030e+02	-0.1492	0.910374	0.000669	6.689673	2.266523	-0.000268
1010	1.0040e+02	-0.2069	0.623737	0.000720	7.196466	2.438229	-0.000288
1011	1.0050e+02	-0.2342	0.349212	0.000689	6.892390	2.335205	-0.000276
1012	1.0059e+02	-0.2759	0.058538	0.000730	7.297825	2.472570	-0.000292
1013	1.0069e+02	-0.3128	-0.195801	0.000639	6.385597	2.163499	-0.000256
1014	1.0079e+02	-0.3545	-0.458215	0.000659	6.588314	2.232181	-0.000264
1015	1.0089e+02	-0.3898	-0.716592	0.000649	6.486956	2.197840	-0.000260
1016	1.0099e+02	-0.4315	-1.003228	0.000720	7.196466	2.438229	-0.000288
1017	1.0109e+02	-0.4813	-1.237382	0.000588	5.878804	1.991793	-0.000235
1018	1.0119e+02	-0.5214	-1.528056	0.000730	7.297825	2.472570	-0.000292
1019	1.0129e+02	-0.5599	-1.790470	0.000659	6.588314	2.232181	-0.000264
1020	1.0139e+02	-0.5952	-2.069032	0.000699	6.993749	2.369546	-0.000280
1021	1.0149e+02	-0.6401	-2.339520	0.000679	6.791032	2.300864	-0.000272
1022	1.0159e+02	-0.6818	-2.589823	0.000628	6.284238	2.129158	-0.000252
1023	1.0169e+02	-0.7187	-2.868385	0.000699	6.993749	2.369546	-0.000280
1024	1.0179e+02	-0.7476	-3.142910	0.000689	6.892390	2.335205	-0.000276
1025	1.0189e+02	-0.7957	-3.364953	0.000557	5.574727	1.888769	-0.000223
1026	1.0199e+02	-0.8406	-3.663701	0.000750	7.500542	2.541253	-0.000300
1027	1.0209e+02	-0.8679	-3.865557	0.000507	5.067934	1.717063	-0.000203
1028	1.0219e+02	-0.9016	-4.148157	0.000710	7.095108	2.403888	-0.000284
1029	1.0229e+02	-0.9545	-4.434794	0.000720	7.196466	2.438229	-0.000288
1030	1.0239e+02	-1.0026	-4.713356	0.000699	6.993749	2.369546	-0.000280
1031	1.0248e+02	-1.0235	-4.975770	0.000659	6.588314	2.232181	-0.000264
1032	1.0258e+02	-1.0732	-5.234146	0.000649	6.486956	2.197840	-0.000260
1033	1.0268e+02	-1.1085	-5.496560	0.000659	6.588314	2.232181	-0.000264
1034	1.0278e+02	-1.1470	-5.775123	0.000699	6.993749	2.369546	-0.000280
1035	1.0288e+02	-1.1919	-6.021388	0.000618	6.182880	2.094816	-0.000248
1036	1.0298e+02	-1.2337	-6.324173	0.000760	7.601901	2.575594	-0.000304
1037	1.0308e+02	-1.2738	-6.566401	0.000608	6.081521	2.060475	-0.000243
1038	1.0318e+02	-1.3123	-6.889372	0.000811	8.108694	2.747300	-0.000325
1039	1.0328e+02	-1.3604	-7.131600	0.000608	6.081521	2.060475	-0.000243
1040	1.0338e+02	-1.3925	-7.406126	0.000689	6.892390	2.335205	-0.000276
1041	1.0348e+02	-1.4310	-7.624131	0.000547	5.473369	1.854428	-0.000219
1042	1.0358e+02	-1.4775	-7.934990	0.000780	7.804618	2.644276	-0.000312
1043	1.0368e+02	-1.5096	-8.181256	0.000618	6.182880	2.094816	-0.000248
1044	1.0378e+02	-1.5497	-8.471929	0.000730	7.297825	2.472570	-0.000292
1045	1.0388e+02	-1.5914	-8.738380	0.000669	6.689673	2.266523	-0.000268
1046	1.0398e+02	-1.6267	-9.008868	0.000679	6.791032	2.300864	-0.000272
1047	1.0408e+02	-1.6700	-9.247059	0.000598	5.980162	2.026134	-0.000239
1048	1.0418e+02	-1.7101	-9.497362	0.000628	6.284238	2.129158	-0.000252
1049	1.0428e+02	-1.7502	-9.792073	0.000740	7.399184	2.506911	-0.000296
1050	1.0438e+02	-1.7839	-10.074672	0.000710	7.095108	2.403888	-0.000284
1051	1.0447e+02	-1.8401	-10.329012	0.000639	6.385597	2.163499	-0.000256
1052	1.0457e+02	-1.8689	-10.542980	0.000537	5.372010	1.820086	-0.000215
1053	1.0467e+02	-1.9058	-10.841728	0.000750	7.500542	2.541253	-0.000300
1054	1.0477e+02	-1.9443	-11.120290	0.000699	6.993749	2.369546	-0.000280
1055	1.0487e+02	-1.9828	-11.386741	0.000669	6.689673	2.266523	-0.000268
1056	1.0497e+02	-2.0261	-11.649155	0.000659	6.588314	2.232181	-0.000264
1057	1.0507e+02	-2.0679	-11.911569	0.000659	6.588314	2.232181	-0.000264
1058	1.0517e+02	-2.1064	-12.165909	0.000639	6.385597	2.163499	-0.000256
1059	1.0527e+02	-2.1497	-12.460619	0.000740	7.399184	2.506911	-0.000296
1060	1.0537e+02	-2.1978	-12.735145	0.000689	6.892390	2.335205	-0.000276
1061	1.0547e+02	-2.2347	-12.957187	0.000557	5.574727	1.888769	-0.000223
1062	1.0557e+02	-2.2732	-13.259972	0.000760	7.601901	2.575594	-0.000304
1063	1.0567e+02	-2.3005	-13.498163	0.000598	5.980162	2.026134	-0.000239
1064	1.0577e+02	-2.3518	-13.784800	0.000720	7.196466	2.438229	-0.000288
1065	1.0587e+02	-2.3951	-14.051251	0.000669	6.689673	2.266523	-0.000268
1066	1.0597e+02	-2.4272	-14.341925	0.000730	7.297825	2.472570	-0.000292
1067	1.0607e+02	-2.4609	-14.568004	0.000568	5.676086	1.923110	-0.000227
1068	1.0617e+02	-2.5074	-14.874827	0.000770	7.703260	2.609935	-0.000308
1069	1.0627e+02	-2.5459	-15.129166	0.000639	6.385597	2.163499	-0.000256
1070	1.0637e+02	-2.5892	-15.375431	0.000618	6.182880	2.094816	-0.000248
1071	1.0647e+02	-2.6245	-15.625734	0.000628	6.284238	2.129158	-0.000252
1072	1.0656e+02	-2.6727	-15.944668	0.000801	8.007336	2.712959	-0.000321
1073	1.0666e+02	-2.7079	-16.186896	0.000608	6.081521	2.060475	-0.000243
1074	1.0676e+02	-2.7497	-16.461421	0.000689	6.892390	2.335205	-0.000276
1075	1.0686e+02	-2.7866	-16.727872	0.000669	6.689673	2.266523	-0.000268
1076	1.0696e+02	-2.8283	-16.990286	0.000659	6.588314	2.232181	-0.000264
1077	1.0706e+02	-2.8652	-17.252700	0.000659	6.588314	2.232181	-0.000264
1078	1.0716e+02	-2.9037	-17.515113	0.000659	6.588314	2.232181	-0.000264
1079	1.0726e+02	-2.9406	-17.765416	0.000628	6.284238	2.129158	-0.000252
1080	1.0736e+02	-2.9887	-18.056090	0.000730	7.297825	2.472570	-0.000292
1081	1.0746e+02	-3.0224	-18.318503	0.000659	6.588314	2.232181	-0.000264
1082	1.0756e+02	-3.0705	-18.560732	0.000608	6.081521	2.060475	-0.000243
1083	1.0766e+02	-3.1074	-18.798923	0.000598	5.980162	2.026134	-0.000239
1084	1.0776e+02	-3.1443	-19.101708	0.000760	7.601901	2.575594	-0.000304
1085	1.0786e+02	-3.1828	-19.368159	0.000669	6.689673	2.266523	-0.000268
1086	1.0796e+02	-3.2197	-19.606350	0.000598	5.980162	2.026134	-0.000239
1087	1.0806e+02	-3.2630	-19.880875	0.000689	6.892390	2.335205	-0.000276
1088	1.0816e+02	-3.3047	-20.155400	0.000689	6.892390	2.335205	-0.000276
1089	1.0826e+02	-3.3416	-20.401665	0.000618	6.182880	2.094816	-0.000248
1090	1.0836e+02	-3.3849	-20.672154	0.000679	6.791032	2.300864	-0.000272
1091	1.0845e+02	-3.4266	-20.950716	0.000699	6.993749	2.369546	-0.000280
1092	1.0855e+02	-3.4700	-21.188907	0.000598	5.980162	2.026134	-0.000239
1093	1.0865e+02	-3.5069	-21.483618	0.000740	7.399184	2.506911	-0.000296
1094	1.0875e+02	-3.5486	-21.725846	0.000608	6.081521	2.060475	-0.000243
1095	1.0885e+02	-3.5710	-21.988260	0.000659	6.588314	2.232181	-0.000264
1096	1.0895e+02	-3.6224	-22.254711	0.000669	6.689673	2.266523	-0.000268
1097	1.0905e+02	-3.6737	-22.496939	0.000608	6.081521	2.060475	-0.000243
1098	1.0915e+02	-3.7026	-22.751278	0.000639	6.385597	2.163499	-0.000256
1099	1.0925e+02	-3.7443	-23.037915	0.000720	7.196466	2.438229	-0.000288
1100	1.0935e+02	-3.7828	-23.296292	0.000649	6.486956	2.197840	-0.000260
1101	1.0945e+02	-3.8181	-23.562743	0.000669	6.689673	2.266523	-0.000268
1102	1.0955e+02	-3.8566	-23.829194	0.000669	6.689673	2.266523	-0.000268
1103	1.0965e+02	-3.8951	-24.123905	0.000740	7.399184	2.506911	-0.000296
1104	1.0975e+02	-3.9464	-24.354021	0.000578	5.777445	1.957451	-0.000231
1105	1.0985e+02	-3.9849	-24.664881	0.000780	7.804618	2.644276	-0.000312
1106	1.0995e+02	-4.0234	-24.907109	0.000608	6.081521	2.060475	-0.000243
1107	1.1005e+02	-4.0555	-25.149337	0.000608	6.081521	2.060475	-0.000243
1108	1.1015e+02	-4.1004	-25.444048	0.000740	7.399184	2.506911	-0.000296
1109	1.1025e+02	-4.1389	-25.658016	0.000537	5.372010	1.820086	-0.000215
1110	1.1035e+02	-4.1822	-25.956764	0.000750	7.500542	2.541253	-0.000300
1111	1.1044e+02	-4.2207	-26.235327	0.000699	6.993749	2.369546	-0.000280
1112	1.1054e+02	-4.2544	-26.481592	0.000618	6.182880	2.094816	-0.000248
1113	1.1064e+02	-4.2993	-26.727857	0.000618	6.182880	2.094816	-0.000248
1114	1.1074e+02	-4.3394	-27.014494	0.000720	7.196466	2.438229	-0.000288
1115	1.1084e+02	-4.3747	-27.284982	0.000679	6.791032	2.300864	-0.000272
1116	1.1094e+02	-4.4213	-27.511061	0.000568	5.676086	1.923110	-0.000227
1117	1.1104e+02	-4.4678	-27.789624	0.000699	6.993749	2.369546	-0.000280
1118	1.1114e+02	-4.5063	-28.080298	0.000730	7.297825	2.472570	-0.000292
1119	1.1124e+02	-4.5400	-28.322526	0.000608	6.081521	2.060475	-0.000243
1120	1.1134e+02	-4.5849	-28.621274	0.000750	7.500542	2.541253	-0.000300
1121	1.1144e+02	-4.6186	-28.831205	0.000527	5.270651	1.785745	-0.000211
1122	1.1154e+02	-4.6603	-29.125916	0.000740	7.399184	2.506911	-0.000296
1123	1.1164e+02	-4.6956	-29.388330	0.000659	6.588314	2.232181	-0.000264
1124	1.1174e+02	-4.7453	-29.662855	0.000689	6.892390	2.335205	-0.000276
1125	1.1184e+02	-4.7790	-29.913157	0.000628	6.284238	2.129158	-0.000252
1126	1.1194e+02	-4.8127	-30.155385	0.000608	6.081521	2.060475	-0.000243
1127	1.1204e+02	-4.8560	-30.429911	0.000689	6.892390	2.335205	-0.000276
1128	1.1214e+02	-4.9009	-30.708473	0.000699	6.993749	2.369546	-0.000280
1129	1.1224e+02	-4.9346	-30.987035	0.000699	6.993749	2.369546	-0.000280
1130	1.1234e+02	-4.9779	-31.241375	0.000639	6.385597	2.163499	-0.000256
1131	1.1244e+02	-5.0229	-31.471492	0.000578	5.777445	1.957451	-0.000231
1132	1.1253e+02	-5.0549	-31.766203	0.000740	7.399184	2.506911	-0.000296
1133	1.1263e+02	-5.1015	-31.992282	0.000568	5.676086	1.923110	-0.000227
1134	1.1273e+02	-5.1400	-32.274882	0.000710	7.095108	2.403888	-0.000284
1135	1.1283e+02	-5.1704	-32.533258	0.000649	6.486956	2.197840	-0.000260
1136	1.1293e+02	-5.2154	-32.787598	0.000639	6.385597	2.163499	-0.000256
1137	1.1303e+02	-5.2507	-32.989455	0.000507	5.067934	1.717063	-0.000203
1138	1.1313e+02	-5.2876	-33.308388	0.000801	8.007336	2.712959	-0.000321
1139	1.1323e+02	-5.3437	-33.574839	0.000669	6.689673	2.266523	-0.000268
1140	1.1333e+02	-5.3774	-33.804956	0.000578	5.777445	1.957451	-0.000231
1141	1.1343e+02	-5.4175	-34.091593	0.000720	7.196466	2.438229	-0.000288
1142	1.1353e+02	-5.4528	-34.317672	0.000568	5.676086	1.923110	-0.000227
1143	1.1363e+02	-5.4961	-34.636606	0.000801	8.007336	2.712959	-0.000321
1144	1.1373e+02	-5.5378	-34.854611	0.000547	5.473369	1.854428	-0.000219
1145	1.1383e+02	-5.5683	-35.169508	0.000791	7.905977	2.678618	-0.000316
1146	1.1393e+02	-5.6180	-35.379439	0.000527	5.270651	1.785745	-0.000211
1147	1.1403e+02	-5.6565	-35.621667	0.000608	6.081521	2.060475	-0.000243
1148	1.1413e+02	-5.6966	-35.892155	0.000679	6.791032	2.300864	-0.000272
1149	1.1423e+02	-5.7319	-36.190903	0.000750	7.500542	2.541253	-0.000300
1150	1.1433e+02	-5.7736	-36.416983	0.000568	5.676086	1.923110	-0.000227
1151	1.1442e+02	-5.8105	-36.687471	0.000679	6.791032	2.300864	-0.000272
1152	1.1452e+02	-5.8554	-36.905476	0.000547	5.473369	1.854428	-0.000219
1153	1.1462e+02	-5.9004	-37.175964	0.000679	6.791032	2.300864	-0.000272
1154	1.1472e+02	-5.9308	-37.450490	0.000689	6.892390	2.335205	-0.000276
1155	1.1482e+02	-5.9806	-37.700792	0.000628	6.284238	2.129158	-0.000252
1156	1.1492e+02	-6.0175	-37.930909	0.000578	5.777445	1.957451	-0.000231
1157	1.1502e+02	-6.0512	-38.241768	0.000780	7.804618	2.644276	-0.000312
1158	1.1512e+02	-6.0929	-38.492071	0.000628	6.284238	2.129158	-0.000252
1159	1.1522e+02	-6.1346	-38.730262	0.000598	5.980162	2.026134	-0.000239
1160	1.1532e+02	-6.1827	-39.008824	0.000699	6.993749	2.369546	-0.000280
1161	1.1542e+02	-6.2116	-39.255089	0.000618	6.182880	2.094816	-0.000248
1162	1.1552e+02	-6.2421	-39.493280	0.000598	5.980162	2.026134	-0.000239
1163	1.1562e+02	-6.2966	-39.771843	0.000699	6.993749	2.369546	-0.000280
1164	1.1572e+02	-6.3351	-39.993885	0.000557	5.574727	1.888769	-0.000223
1165	1.1582e+02	-6.3736	-40.292633	0.000750	7.500542	2.541253	-0.000300
1166	1.1592e+02	-6.4105	-40.514676	0.000557	5.574727	1.888769	-0.000223
1167	1.1602e+02	-6.4490	-40.789201	0.000689	6.892390	2.335205	-0.000276
1168	1.1612e+02	-6.4955	-41.015281	0.000568	5.676086	1.923110	-0.000227
1169	1.1622e+02	-6.5292	-41.269620	0.000639	6.385597	2.163499	-0.000256
1170	1.1632e+02	-6.5661	-41.519922	0.000628	6.284238	2.129158	-0.000252
1171	1.1642e+02	-6.5998	-41.798485	0.000699	6.993749	2.369546	-0.000280
1172	1.1651e+02	-6.6528	-42.036676	0.000598	5.980162	2.026134	-0.000239
1173	1.1661e+02	-6.6864	-42.303127	0.000669	6.689673	2.266523	-0.000268
1174	1.1671e+02	-6.7249	-42.589763	0.000720	7.196466	2.438229	-0.000288
1175	1.1681e+02	-6.7715	-42.840066	0.000628	6.284238	2.129158	-0.000252
1176	1.1691e+02	-6.8164	-43.094405	0.000639	6.385597	2.163499	-0.000256
1177	1.1701e+02	-6.8485	-43.320485	0.000568	5.676086	1.923110	-0.000227
1178	1.1711e+02	-6.8854	-43.562713	0.000608	6.081521	2.060475	-0.000243
1179	1.1721e+02	-6.9255	-43.861461	0.000750	7.500542	2.541253	-0.000300
1180	1.1731e+02	-6.9656	-44.083504	0.000557	5.574727	1.888769	-0.000223
1181	1.1741e+02	-7.0105	-44.353992	0.000679	6.791032	2.300864	-0.000272
1182	1.1751e+02	-7.0474	-44.592183	0.000598	5.980162	2.026134	-0.000239
1183	1.1761e+02	-7.0891	-44.870745	0.000699	6.993749	2.369546	-0.000280
1184	1.1771e+02	-7.1276	-45.100862	0.000578	5.777445	1.957451	-0.000231
1185	1.1781e+02	-7.1677	-45.347127	0.000618	6.182880	2.094816	-0.000248
1186	1.1791e+02	-7.2062	-45.605504	0.000649	6.486956	2.197840	-0.000260
1187	1.1801e+02	-7.2479	-45.847732	0.000608	6.081521	2.060475	-0.000243
1188	1.1811e+02	-7.2977	-46.049589	0.000507	5.067934	1.717063	-0.000203
1189	1.1821e+02	-7.3265	-46.376597	0.000821	8.210053	2.781641	-0.000329
1190	1.1831e+02	-7.3618	-46.594602	0.000547	5.473369	1.854428	-0.000219
1191	1.1841e+02	-7.3987	-46.865090	0.000679	6.791032	2.300864	-0.000272
1192	1.1850e+02	-7.4501	-47.091170	0.000568	5.676086	1.923110	-0.000227
1193	1.1860e+02	-7.4870	-47.345509	0.000639	6.385597	2.163499	-0.000256
1194	1.1870e+02	-7.5174	-47.587738	0.000608	6.081521	2.060475	-0.000243
1195	1.1880e+02	-7.5736	-47.858226	0.000679	6.791032	2.300864	-0.000272
1196	1.1890e+02	-7.6057	-48.060082	0.000507	5.067934	1.717063	-0.000203
1197	1.1900e+02	-7.6410	-48.338645	0.000699	6.993749	2.369546	-0.000280
1198	1.1910e+02	-7.6875	-48.605096	0.000669	6.689673	2.266523	-0.000268
1199	1.1920e+02	-7.7212	-48.806953	0.000507	5.067934	1.717063	-0.000203
1200	1.1930e+02	-7.7549	-49.073403	0.000669	6.689673	2.266523	-0.000268
1201	1.1940e+02	-7.8046	-49.376189	0.000760	7.601901	2.575594	-0.000304
1202	1.1950e+02	-7.8383	-49.557860	0.000456	4.561141	1.545356	-0.000183
1203	1.1960e+02	-7.8816	-49.816236	0.000649	6.486956	2.197840	-0.000260
1204	1.1970e+02	-7.9233	-50.086725	0.000679	6.791032	2.300864	-0.000272
1205	1.1980e+02	-7.9634	-50.341064	0.000639	6.385597	2.163499	-0.000256
1206	1.1990e+02	-8.0131	-50.559069	0.000547	5.473369	1.854428	-0.000219
1207	1.2000e+02	-8.0404	-50.813409	0.000639	6.385597	2.163499	-0.000256
1208	1.2010e+02	-8.0773	-51.067749	0.000639	6.385597	2.163499	-0.000256
1209	1.2020e+02	-8.1238	-51.314014	0.000618	6.182880	2.094816	-0.000248
1210	1.2030e+02	-8.1575	-51.592576	0.000699	6.993749	2.369546	-0.000280
1211	1.2039e+02	-8.2008	-51.770210	0.000446	4.459782	1.511015	-0.000179
1212	1.2049e+02	-8.2442	-52.072995	0.000760	7.601901	2.575594	-0.000304
1213	1.2059e+02	-8.2859	-52.291001	0.000547	5.473369	1.854428	-0.000219
1214	1.2069e+02	-8.3276	-52.585712	0.000740	7.399184	2.506911	-0.000296
1215	1.2079e+02	-8.3661	-52.819865	0.000588	5.878804	1.991793	-0.000235
1216	1.2089e+02	-8.4062	-53.070168	0.000628	6.284238	2.129158	-0.000252
1217	1.2099e+02	-8.4399	-53.296247	0.000568	5.676086	1.923110	-0.000227
1218	1.2109e+02	-8.4816	-53.554624	0.000649	6.486956	2.197840	-0.000260
1219	1.2119e+02	-8.5233	-53.800889	0.000618	6.182880	2.094816	-0.000248
1220	1.2129e+02	-8.5650	-54.079452	0.000699	6.993749	2.369546	-0.000280
1221	1.2139e+02	-8.5971	-54.285346	0.000517	5.169293	1.751404	-0.000207
1222	1.2149e+02	-8.6292	-54.535648	0.000628	6.284238	2.129158	-0.000252
1223	1.2159e+02	-8.6837	-54.794025	0.000649	6.486956	2.197840	-0.000260
1224	1.2169e+02	-8.7078	-55.003956	0.000527	5.270651	1.785745	-0.000211
1225	1.2179e+02	-8.7607	-55.262333	0.000649	6.486956	2.197840	-0.000260
1226	1.2189e+02	-8.7960	-55.524746	0.000659	6.588314	2.232181	-0.000264
1227	1.2199e+02	-8.8377	-55.754863	0.000578	5.777445	1.957451	-0.000231
1228	1.2209e+02	-8.8810	-55.997091	0.000608	6.081521	2.060475	-0.000243
1229	1.2219e+02	-8.9211	-56.259505	0.000659	6.588314	2.232181	-0.000264
1230	1.2229e+02	-8.9628	-56.465399	0.000517	5.169293	1.751404	-0.000207
1231	1.2239e+02	-9.0014	-56.719739	0.000639	6.385597	2.163499	-0.000256
1232	1.2248e+02	-9.0399	-56.949855	0.000578	5.777445	1.957451	-0.000231
1233	1.2258e+02	-9.0848	-57.248603	0.000750	7.500542	2.541253	-0.000300
1234	1.2268e+02	-9.1153	-57.494869	0.000618	6.182880	2.094816	-0.000248
1235	1.2278e+02	-9.1586	-57.757282	0.000659	6.588314	2.232181	-0.000264
1236	1.2288e+02	-9.1987	-57.947028	0.000476	4.763858	1.614039	-0.000191
1237	1.2298e+02	-9.2436	-58.213479	0.000669	6.689673	2.266523	-0.000268
1238	1.2308e+02	-9.2757	-58.459744	0.000618	6.182880	2.094816	-0.000248
1239	1.2318e+02	-9.3174	-58.697935	0.000598	5.980162	2.026134	-0.000239
1240	1.2328e+02	-9.3575	-58.928052	0.000578	5.777445	1.957451	-0.000231
1241	1.2338e+02	-9.3912	-59.222763	0.000740	7.399184	2.506911	-0.000296
1242	1.2348e+02	-9.4425	-59.432694	0.000527	5.270651	1.785745	-0.000211
1243	1.2358e+02	-9.4778	-59.658773	0.000568	5.676086	1.923110	-0.000227
1244	1.2368e+02	-9.5195	-59.937336	0.000699	6.993749	2.369546	-0.000280
1245	1.2378e+02	-9.5644	-60.151304	0.000537	5.372010	1.820086	-0.000215
1246	1.2388e+02	-9.5949	-60.381421	0.000578	5.777445	1.957451	-0.000231
1247	1.2398e+02	-9.6430	-60.643834	0.000659	6.588314	2.232181	-0.000264
1248	1.2408e+02	-9.6767	-60.861840	0.000547	5.473369	1.854428	-0.000219
1249	1.2418e+02	-9.7168	-61.140402	0.000699	6.993749	2.369546	-0.000280
1250	1.2428e+02	-9.7537	-61.374556	0.000588	5.878804	1.991793	-0.000235
1251	1.2438e+02	-9.7954	-61.616784	0.000608	6.081521	2.060475	-0.000243
1252	1.2447e+02	-9.8323	-61.830752	0.000537	5.372010	1.820086	-0.000215
1253	1.2457e+02	-9.8757	-62.109315	0.000699	6.993749	2.369546	-0.000280
1254	1.2467e+02	-9.9222	-62.315209	0.000517	5.169293	1.751404	-0.000207
1255	1.2477e+02	-9.9655	-62.557437	0.000608	6.081521	2.060475	-0.000243
1256	1.2487e+02	-9.9880	-62.795628	0.000598	5.980162	2.026134	-0.000239
1257	1.2497e+02	-10.0281	-63.029782	0.000588	5.878804	1.991793	-0.000235
1258	1.2507e+02	-10.0762	-63.308344	0.000699	6.993749	2.369546	-0.000280
1259	1.2517e+02	-10.1115	-63.546535	0.000598	5.980162	2.026134	-0.000239
1260	1.2527e+02	-10.1564	-63.812986	0.000669	6.689673	2.266523	-0.000268
1261	1.2537e+02	-10.1949	-64.026954	0.000537	5.372010	1.820086	-0.000215
1262	1.2547e+02	-10.2334	-64.285331	0.000649	6.486956	2.197840	-0.000260
1263	1.2557e+02	-10.2783	-64.495262	0.000527	5.270651	1.785745	-0.000211
1264	1.2567e+02	-10.3088	-64.721342	0.000568	5.676086	1.923110	-0.000227
1265	1.2577e+02	-10.3441	-64.955495	0.000588	5.878804	1.991793	-0.000235
1266	1.2587e+02	-10.3938	-65.230021	0.000689	6.892390	2.335205	-0.000276
1267	1.2597e+02	-10.4323	-65.472249	0.000608	6.081521	2.060475	-0.000243
1268	1.2607e+02	-10.4708	-65.698328	0.000568	5.676086	1.923110	-0.000227
1269	1.2617e+02	-10.5109	-65.944594	0.000618	6.182880	2.094816	-0.000248
1270	1.2627e+02	-10.5526	-66.202970	0.000649	6.486956	2.197840	-0.000260
1271	1.2636e+02	-10.5895	-66.461347	0.000649	6.486956	2.197840	-0.000260
1272	1.2646e+02	-10.6329	-66.675315	0.000537	5.372010	1.820086	-0.000215
1273	1.2656e+02	-10.6810	-66.921581	0.000618	6.182880	2.094816	-0.000248
1274	1.2666e+02	-10.7115	-67.167846	0.000618	6.182880	2.094816	-0.000248
1275	1.2676e+02	-10.7532	-67.381814	0.000537	5.372010	1.820086	-0.000215
1276	1.2686e+02	-10.7901	-67.648265	0.000669	6.689673	2.266523	-0.000268
1277	1.2696e+02	-10.8286	-67.898567	0.000628	6.284238	2.129158	-0.000252
1278	1.2706e+02	-10.8831	-68.112536	0.000537	5.372010	1.820086	-0.000215
1279	1.2716e+02	-10.9056	-68.338615	0.000568	5.676086	1.923110	-0.000227
1280	1.2726e+02	-10.9521	-68.584880	0.000618	6.182880	2.094816	-0.000248
1281	1.2736e+02	-10.9954	-68.871517	0.000720	7.196466	2.438229	-0.000288
1282	1.2746e+02	-11.0291	-69.085485	0.000537	5.372010	1.820086	-0.000215
1283	1.2756e+02	-11.0708	-69.311565	0.000568	5.676086	1.923110	-0.000227
1284	1.2766e+02	-11.1045	-69.529570	0.000547	5.473369	1.854428	-0.000219
1285	1.2776e+02	-11.1542	-69.796021	0.000669	6.689673	2.266523	-0.000268
1286	1.2786e+02	-11.1943	-70.054398	0.000649	6.486956	2.197840	-0.000260
1287	1.2796e+02	-11.2216	-70.284515	0.000578	5.777445	1.957451	-0.000231
1288	1.2806e+02	-11.2681	-70.502520	0.000547	5.473369	1.854428	-0.000219
1289	1.2816e+02	-11.3114	-70.724562	0.000557	5.574727	1.888769	-0.000223
1290	1.2826e+02	-11.3499	-70.978902	0.000639	6.385597	2.163499	-0.000256
1291	1.2835e+02	-11.3965	-71.217093	0.000598	5.980162	2.026134	-0.000239
1292	1.2845e+02	-11.4253	-71.459321	0.000608	6.081521	2.060475	-0.000243
1293	1.2855e+02	-11.4703	-71.685401	0.000568	5.676086	1.923110	-0.000227
1294	1.2865e+02	-11.5088	-71.907443	0.000557	5.574727	1.888769	-0.000223
1295	1.2875e+02	-11.5489	-72.161783	0.000639	6.385597	2.163499	-0.000256
1296	1.2885e+02	-11.5810	-72.424197	0.000659	6.588314	2.232181	-0.000264
1297	1.2895e+02	-11.6243	-72.654313	0.000578	5.777445	1.957451	-0.000231
1298	1.2905e+02	-11.6756	-72.904616	0.000628	6.284238	2.129158	-0.000252
1299	1.2915e+02	-11.7125	-73.102435	0.000497	4.966575	1.682721	-0.000199
1300	1.2925e+02	-11.7510	-73.364849	0.000659	6.588314	2.232181	-0.000264
1301	1.2935e+02	-11.7927	-73.582855	0.000547	5.473369	1.854428	-0.000219
1302	1.2945e+02	-11.8312	-73.792786	0.000527	5.270651	1.785745	-0.000211
1303	1.2955e+02	-11.8777	-74.022902	0.000578	5.777445	1.957451	-0.000231
1304	1.2965e+02	-11.9066	-74.293390	0.000679	6.791032	2.300864	-0.000272
1305	1.2975e+02	-11.9467	-74.519470	0.000568	5.676086	1.923110	-0.000227
1306	1.2985e+02	-11.9756	-74.814181	0.000740	7.399184	2.506911	-0.000296
1307	1.2995e+02	-12.0189	-75.007963	0.000487	4.865217	1.648380	-0.000195
1308	1.3005e+02	-12.0654	-75.242117	0.000588	5.878804	1.991793	-0.000235
1309	1.3015e+02	-12.1055	-75.508568	0.000669	6.689673	2.266523	-0.000268
1310	1.3025e+02	-12.1521	-75.722536	0.000537	5.372010	1.820086	-0.000215
1311	1.3034e+02	-12.1938	-75.924393	0.000507	5.067934	1.717063	-0.000203
1312	1.3044e+02	-12.2275	-76.198918	0.000689	6.892390	2.335205	-0.000276
1313	1.3054e+02	-12.2628	-76.392701	0.000487	4.865217	1.648380	-0.000195
1314	1.3064e+02	-12.2997	-76.602632	0.000527	5.270651	1.785745	-0.000211
1315	1.3074e+02	-12.3542	-76.844860	0.000608	6.081521	2.060475	-0.000243
1316	1.3084e+02	-12.3847	-77.143608	0.000750	7.500542	2.541253	-0.000300
1317	1.3094e+02	-12.4312	-77.297019	0.000385	3.851630	1.304968	-0.000154
1318	1.3104e+02	-12.4649	-77.555396	0.000649	6.486956	2.197840	-0.000260
1319	1.3114e+02	-12.5018	-77.813773	0.000649	6.486956	2.197840	-0.000260
1320	1.3124e+02	-12.5403	-78.019667	0.000517	5.169293	1.751404	-0.000207
1321	1.3134e+02	-12.5884	-78.257858	0.000598	5.980162	2.026134	-0.000239
1322	1.3144e+02	-12.6333	-78.483937	0.000568	5.676086	1.923110	-0.000227
1323	1.3154e+02	-12.6670	-78.738277	0.000639	6.385597	2.163499	-0.000256
1324	1.3164e+02	-12.7103	-78.956282	0.000547	5.473369	1.854428	-0.000219
1325	1.3174e+02	-12.7376	-79.198510	0.000608	6.081521	2.060475	-0.000243
1326	1.3184e+02	-12.7889	-79.428627	0.000578	5.777445	1.957451	-0.000231
1327	1.3194e+02	-12.8258	-79.638558	0.000527	5.270651	1.785745	-0.000211
1328	1.3204e+02	-12.8595	-79.840415	0.000507	5.067934	1.717063	-0.000203
1329	1.3214e+02	-12.9044	-80.082643	0.000608	6.081521	2.060475	-0.000243
1330	1.3224e+02	-12.9462	-80.324871	0.000608	6.081521	2.060475	-0.000243
1331	1.3234e+02	-12.9798	-80.546914	0.000557	5.574727	1.888769	-0.000223
1332	1.3243e+02	-13.0183	-80.841625	0.000740	7.399184	2.506911	-0.000296
1333	1.3253e+02	-13.0536	-81.035407	0.000487	4.865217	1.648380	-0.000195
1334	1.3263e+02	-13.0986	-81.261487	0.000568	5.676086	1.923110	-0.000227
1335	1.3273e+02	-13.1451	-81.499678	0.000598	5.980162	2.026134	-0.000239
1336	1.3283e+02	-13.1820	-81.693460	0.000487	4.865217	1.648380	-0.000195
1337	1.3293e+02	-13.2269	-81.951837	0.000649	6.486956	2.197840	-0.000260
1338	1.3303e+02	-13.2590	-82.185991	0.000588	5.878804	1.991793	-0.000235
1339	1.3313e+02	-13.3039	-82.408033	0.000557	5.574727	1.888769	-0.000223
1340	1.3323e+02	-13.3376	-82.650261	0.000608	6.081521	2.060475	-0.000243
1341	1.3333e+02	-13.3793	-82.876341	0.000568	5.676086	1.923110	-0.000227
1342	1.3343e+02	-13.4242	-83.110495	0.000588	5.878804	1.991793	-0.000235
1343	1.3353e+02	-13.4563	-83.316389	0.000517	5.169293	1.751404	-0.000207
1344	1.3363e+02	-13.4964	-83.534394	0.000547	5.473369	1.854428	-0.000219
1345	1.3373e+02	-13.5413	-83.800845	0.000669	6.689673	2.266523	-0.000268
1346	1.3383e+02	-13.5830	-84.030962	0.000578	5.777445	1.957451	-0.000231
1347	1.3393e+02	-13.6199	-84.240893	0.000527	5.270651	1.785745	-0.000211
1348	1.3403e+02	-13.6488	-84.462935	0.000557	5.574727	1.888769	-0.000223
1349	1.3413e+02	-13.6969	-84.680941	0.000547	5.473369	1.854428	-0.000219
1350	1.3423e+02	-13.7354	-84.939317	0.000649	6.486956	2.197840	-0.000260
1351	1.3432e+02	-13.7755	-85.157323	0.000547	5.473369	1.854428	-0.000219
1352	1.3442e+02	-13.8157	-85.383402	0.000568	5.676086	1.923110	-0.000227
1353	1.3452e+02	-13.8654	-85.585259	0.000507	5.067934	1.717063	-0.000203
1354	1.3462e+02	-13.8911	-85.831524	0.000618	6.182880	2.094816	-0.000248
1355	1.3472e+02	-13.9360	-86.081827	0.000628	6.284238	2.129158	-0.000252
1356	1.3482e+02	-13.9793	-86.283684	0.000507	5.067934	1.717063	-0.000203
1357	1.3492e+02	-14.0210	-86.465355	0.000456	4.561141	1.545356	-0.000183
1358	1.3502e+02	-14.0611	-86.743917	0.000699	6.993749	2.369546	-0.000280
1359	1.3512e+02	-14.1028	-86.965960	0.000557	5.574727	1.888769	-0.000223
1360	1.3522e+02	-14.1301	-87.200113	0.000588	5.878804	1.991793	-0.000235
1361	1.3532e+02	-14.1798	-87.377747	0.000446	4.459782	1.511015	-0.000179
1362	1.3542e+02	-14.2087	-87.603827	0.000568	5.676086	1.923110	-0.000227
1363	1.3552e+02	-14.2552	-87.842018	0.000598	5.980162	2.026134	-0.000239
1364	1.3562e+02	-14.2969	-88.051949	0.000527	5.270651	1.785745	-0.000211
1365	1.3572e+02	-14.3338	-88.306289	0.000639	6.385597	2.163499	-0.000256
1366	1.3582e+02	-14.3723	-88.532368	0.000568	5.676086	1.923110	-0.000227
1367	1.3592e+02	-14.4188	-88.726151	0.000487	4.865217	1.648380	-0.000195
1368	1.3602e+02	-14.4509	-89.000676	0.000689	6.892390	2.335205	-0.000276
1369	1.3612e+02	-14.5039	-89.162161	0.000405	4.054347	1.373650	-0.000162
1370	1.3622e+02	-14.5456	-89.412464	0.000628	6.284238	2.129158	-0.000252
1371	1.3631e+02	-14.5809	-89.646618	0.000588	5.878804	1.991793	-0.000235
1372	1.3641e+02	-14.6097	-89.856549	0.000527	5.270651	1.785745	-0.000211
1373	1.3651e+02	-14.6531	-90.114925	0.000649	6.486956	2.197840	-0.000260
1374	1.3661e+02	-14.6932	-90.300634	0.000466	4.662499	1.579698	-0.000187
1375	1.3671e+02	-14.7333	-90.522676	0.000557	5.574727	1.888769	-0.000223
1376	1.3681e+02	-14.7766	-90.752793	0.000578	5.777445	1.957451	-0.000231
1377	1.3691e+02	-14.8247	-90.995021	0.000608	6.081521	2.060475	-0.000243
1378	1.3701e+02	-14.8648	-91.192841	0.000497	4.966575	1.682721	-0.000199
1379	1.3711e+02	-14.8841	-91.443143	0.000628	6.284238	2.129158	-0.000252
1380	1.3721e+02	-14.9290	-91.640963	0.000497	4.966575	1.682721	-0.000199
1381	1.3731e+02	-14.9787	-91.834745	0.000487	4.865217	1.648380	-0.000195
1382	1.3741e+02	-15.0092	-92.056788	0.000557	5.574727	1.888769	-0.000223
1383	1.3751e+02	-15.0621	-92.327276	0.000679	6.791032	2.300864	-0.000272
1384	1.3761e+02	-15.0878	-92.529133	0.000507	5.067934	1.717063	-0.000203
1385	1.3771e+02	-15.1391	-92.714841	0.000466	4.662499	1.579698	-0.000187
1386	1.3781e+02	-15.1712	-92.993403	0.000699	6.993749	2.369546	-0.000280
1387	1.3791e+02	-15.2161	-93.227557	0.000588	5.878804	1.991793	-0.000235
1388	1.3801e+02	-15.2466	-93.405191	0.000446	4.459782	1.511015	-0.000179
1389	1.3811e+02	-15.2932	-93.647419	0.000608	6.081521	2.060475	-0.000243
1390	1.3821e+02	-15.3268	-93.873499	0.000568	5.676086	1.923110	-0.000227
1391	1.3831e+02	-15.3653	-94.047096	0.000436	4.358423	1.476674	-0.000174
1392	1.3840e+02	-15.4183	-94.325658	0.000699	6.993749	2.369546	-0.000280
1393	1.3850e+02	-15.4616	-94.523478	0.000497	4.966575	1.682721	-0.000199
1394	1.3860e+02	-15.4857	-94.717260	0.000487	4.865217	1.648380	-0.000195
1395	1.3870e+02	-15.5370	-94.979674	0.000659	6.588314	2.232181	-0.000264
1396	1.3880e+02	-15.5755	-95.181531	0.000507	5.067934	1.717063	-0.000203
1397	1.3890e+02	-15.6092	-95.391462	0.000527	5.270651	1.785745	-0.000211
1398	1.3900e+02	-15.6477	-95.629653	0.000598	5.980162	2.026134	-0.000239
1399	1.3910e+02	-15.6894	-95.839584	0.000527	5.270651	1.785745	-0.000211
1400	1.3920e+02	-15.7327	-96.101998	0.000659	6.588314	2.232181	-0.000264
1401	1.3930e+02	-15.7712	-96.279632	0.000446	4.459782	1.511015	-0.000179
1402	1.3940e+02	-15.8049	-96.485526	0.000517	5.169293	1.751404	-0.000207
1403	1.3950e+02	-15.8530	-96.743902	0.000649	6.486956	2.197840	-0.000260
1404	1.3960e+02	-15.8851	-96.937685	0.000487	4.865217	1.648380	-0.000195
1405	1.3970e+02	-15.9348	-97.179913	0.000608	6.081521	2.060475	-0.000243
1406	1.3980e+02	-15.9653	-97.405993	0.000568	5.676086	1.923110	-0.000227
1407	1.3990e+02	-16.0135	-97.599775	0.000487	4.865217	1.648380	-0.000195
1408	1.4000e+02	-16.0584	-97.854115	0.000639	6.385597	2.163499	-0.000256
1409	1.4010e+02	-16.0905	-98.035786	0.000456	4.561141	1.545356	-0.000183
1410	1.4020e+02	-16.1322	-98.237642	0.000507	5.067934	1.717063	-0.000203
1411	1.4029e+02	-16.1787	-98.479871	0.000608	6.081521	2.060475	-0.000243
1412	1.4039e+02	-16.2124	-98.758433	0.000699	6.993749	2.369546	-0.000280
1413	1.4049e+02	-16.2413	-98.936067	0.000446	4.459782	1.511015	-0.000179
1414	1.4059e+02	-16.3006	-99.154072	0.000547	5.473369	1.854428	-0.000219
1415	1.4069e+02	-16.3327	-99.380152	0.000568	5.676086	1.923110	-0.000227
1416	1.4079e+02	-16.3712	-99.598157	0.000547	5.473369	1.854428	-0.000219
1417	1.4089e+02	-16.4097	-99.800014	0.000507	5.067934	1.717063	-0.000203
1418	1.4099e+02	-16.4482	-100.018019	0.000547	5.473369	1.854428	-0.000219
1419	1.4109e+02	-16.4915	-100.223913	0.000517	5.169293	1.751404	-0.000207
1420	1.4119e+02	-16.5332	-100.478253	0.000639	6.385597	2.163499	-0.000256
1421	1.4129e+02	-16.5669	-100.700295	0.000557	5.574727	1.888769	-0.000223
1422	1.4139e+02	-16.6086	-100.890041	0.000476	4.763858	1.614039	-0.000191
1423	1.4149e+02	-16.6551	-101.104009	0.000537	5.372010	1.820086	-0.000215
1424	1.4159e+02	-16.6840	-101.354311	0.000628	6.284238	2.129158	-0.000252
1425	1.4169e+02	-16.7273	-101.531945	0.000446	4.459782	1.511015	-0.000179
1426	1.4179e+02	-16.7594	-101.790322	0.000649	6.486956	2.197840	-0.000260
1427	1.4189e+02	-16.8124	-101.988142	0.000497	4.966575	1.682721	-0.000199
1428	1.4199e+02	-16.8460	-102.234407	0.000618	6.182880	2.094816	-0.000248
1429	1.4209e+02	-16.8878	-102.408004	0.000436	4.358423	1.476674	-0.000174
1430	1.4219e+02	-16.9327	-102.658306	0.000628	6.284238	2.129158	-0.000252
1431	1.4228e+02	-16.9567	-102.839977	0.000456	4.561141	1.545356	-0.000183
1432	1.4238e+02	-17.0113	-103.106428	0.000669	6.689673	2.266523	-0.000268
1433	1.4248e+02	-17.0626	-103.312322	0.000517	5.169293	1.751404	-0.000207
1434	1.4258e+02	-17.0835	-103.538402	0.000568	5.676086	1.923110	-0.000227
1435	1.4268e+02	-17.1284	-103.744296	0.000517	5.169293	1.751404	-0.000207
1436	1.4278e+02	-17.1829	-103.994598	0.000628	6.284238	2.129158	-0.000252
1437	1.4288e+02	-17.2006	-104.200492	0.000517	5.169293	1.751404	-0.000207
1438	1.4298e+02	-17.2439	-104.438683	0.000598	5.980162	2.026134	-0.000239
1439	1.4308e+02	-17.2808	-104.656688	0.000547	5.473369	1.854428	-0.000219
1440	1.4318e+02	-17.3337	-104.894879	0.000598	5.980162	2.026134	-0.000239
1441	1.4328e+02	-17.3658	-105.108848	0.000537	5.372010	1.820086	-0.000215
1442	1.4338e+02	-17.4091	-105.334927	0.000568	5.676086	1.923110	-0.000227
1443	1.4348e+02	-17.4524	-105.581192	0.000618	6.182880	2.094816	-0.000248
1444	1.4358e+02	-17.4926	-105.787086	0.000517	5.169293	1.751404	-0.000207
1445	1.4368e+02	-17.5214	-105.992980	0.000517	5.169293	1.751404	-0.000207
1446	1.4378e+02	-17.5712	-106.267505	0.000689	6.892390	2.335205	-0.000276
1447	1.4388e+02	-17.6016	-106.465325	0.000497	4.966575	1.682721	-0.000199
1448	1.4398e+02	-17.6466	-106.651033	0.000466	4.662499	1.579698	-0.000187
1449	1.4408e+02	-17.6915	-106.897299	0.000618	6.182880	2.094816	-0.000248
1450	1.4418e+02	-17.7252	-107.163750	0.000669	6.689673	2.266523	-0.000268
1451	1.4428e+02	-17.7765	-107.361569	0.000497	4.966575	1.682721	-0.000199
1452	1.4437e+02	-17.8086	-107.583612	0.000557	5.574727	1.888769	-0.000223
1453	1.4447e+02	-17.8455	-107.837951	0.000639	6.385597	2.163499	-0.000256
1454	1.4457e+02	-17.8760	-108.108439	0.000679	6.791032	2.300864	-0.000272
1455	1.4467e+02	-17.9225	-108.326445	0.000547	5.473369	1.854428	-0.000219
1456	1.4477e+02	-17.9658	-108.524264	0.000497	4.966575	1.682721	-0.000199
1457	1.4487e+02	-18.0059	-108.794752	0.000679	6.791032	2.300864	-0.000272
1458	1.4497e+02	-18.0380	-109.036981	0.000608	6.081521	2.060475	-0.000243
1459	1.4507e+02	-18.0813	-109.287283	0.000628	6.284238	2.129158	-0.000252
1460	1.4517e+02	-18.1198	-109.501251	0.000537	5.372010	1.820086	-0.000215
1461	1.4527e+02	-18.1647	-109.739442	0.000598	5.980162	2.026134	-0.000239
1462	1.4537e+02	-18.1984	-109.993782	0.000639	6.385597	2.163499	-0.000256
1463	1.4547e+02	-18.2385	-110.215824	0.000557	5.574727	1.888769	-0.000223
1464	1.4557e+02	-18.2850	-110.490349	0.000689	6.892390	2.335205	-0.000276
1465	1.4567e+02	-18.3123	-110.692206	0.000507	5.067934	1.717063	-0.000203
1466	1.4577e+02	-18.3588	-110.946546	0.000639	6.385597	2.163499	-0.000256
1467	1.4587e+02	-18.4054	-111.160514	0.000537	5.372010	1.820086	-0.000215
1468	1.4597e+02	-18.4423	-111.410816	0.000628	6.284238	2.129158	-0.000252
1469	1.4607e+02	-18.4872	-111.717639	0.000770	7.703260	2.609935	-0.000308
1470	1.4617e+02	-18.5257	-111.959867	0.000608	6.081521	2.060475	-0.000243
1471	1.4626e+02	-18.5610	-112.202095	0.000608	6.081521	2.060475	-0.000243
1472	1.4636e+02	-18.6091	-112.452397	0.000628	6.284238	2.129158	-0.000252
1473	1.4646e+02	-18.6428	-112.625994	0.000436	4.358423	1.476674	-0.000174
1474	1.4656e+02	-18.6765	-112.932817	0.000770	7.703260	2.609935	-0.000308
1475	1.4666e+02	-18.7166	-113.199268	0.000669	6.689673	2.266523	-0.000268
1476	1.4676e+02	-18.7663	-113.465718	0.000669	6.689673	2.266523	-0.000268
1477	1.4686e+02	-18.7984	-113.707947	0.000608	6.081521	2.060475	-0.000243
1478	1.4696e+02	-18.8385	-113.990546	0.000710	7.095108	2.403888	-0.000284
1479	1.4706e+02	-18.8850	-114.265071	0.000689	6.892390	2.335205	-0.000276
1480	1.4716e+02	-18.9171	-114.523448	0.000649	6.486956	2.197840	-0.000260
1481	1.4726e+02	-18.9604	-114.777788	0.000639	6.385597	2.163499	-0.000256
1482	1.4736e+02	-19.0005	-115.011941	0.000588	5.878804	1.991793	-0.000235
1483	1.4746e+02	-19.0471	-115.266281	0.000639	6.385597	2.163499	-0.000256
1484	1.4756e+02	-19.0759	-115.577140	0.000780	7.804618	2.644276	-0.000312
1485	1.4766e+02	-19.1176	-115.803220	0.000568	5.676086	1.923110	-0.000227
1486	1.4776e+02	-19.1626	-116.110042	0.000770	7.703260	2.609935	-0.000308
1487	1.4786e+02	-19.2027	-116.420902	0.000780	7.804618	2.644276	-0.000312
1488	1.4796e+02	-19.2444	-116.667167	0.000618	6.182880	2.094816	-0.000248
1489	1.4806e+02	-19.2797	-116.901321	0.000588	5.878804	1.991793	-0.000235
1490	1.4816e+02	-19.3166	-117.216218	0.000791	7.905977	2.678618	-0.000316
1491	1.4825e+02	-19.3599	-117.494780	0.000699	6.993749	2.369546	-0.000280
1492	1.4835e+02	-19.3984	-117.777379	0.000710	7.095108	2.403888	-0.000284
1493	1.4845e+02	-19.4385	-118.051905	0.000689	6.892390	2.335205	-0.000276
1494	1.4855e+02	-19.4754	-118.326430	0.000689	6.892390	2.335205	-0.000276
1495	1.4865e+02	-19.5219	-118.649401	0.000811	8.108694	2.747300	-0.000325
1496	1.4875e+02	-19.5604	-118.932000	0.000710	7.095108	2.403888	-0.000284
1497	1.4885e+02	-19.5893	-119.226711	0.000740	7.399184	2.506911	-0.000296
1498	1.4895e+02	-19.6342	-119.517385	0.000730	7.297825	2.472570	-0.000292
1499	1.4905e+02	-19.6711	-119.816133	0.000750	7.500542	2.541253	-0.000300
1500	1.4915e+02	-19.7160	-120.114881	0.000750	7.500542	2.541253	-0.000300
1501	1.4925e+02	-19.7545	-120.401518	0.000720	7.196466	2.438229	-0.000288
1502	1.4935e+02	-19.7946	-120.744674	0.000862	8.615488	2.919006	-0.000345
1503	1.4945e+02	-19.8347	-121.039385	0.000740	7.399184	2.506911	-0.000296
1504	1.4955e+02	-19.8716	-121.334096	0.000740	7.399184	2.506911	-0.000296
1505	1.4965e+02	-19.9166	-121.681290	0.000872	8.716847	2.953348	-0.000349
1506	1.4975e+02	-19.9599	-121.976001	0.000740	7.399184	2.506911	-0.000296
1507	1.4985e+02	-19.9968	-122.307046	0.000831	8.311412	2.815983	-0.000333
1508	1.4995e+02	-19.9486	-122.303009	0.000010	0.101359	0.034341	0.000004
1509	1.5005e+02	-19.9214	-122.315120	-0.000030	-0.304076	-0.103024	-0.000012
1510	1.5015e+02	-19.8716	-122.230340	0.000213	2.128532	0.721166	0.000085
1511	1.5025e+02	-19.8412	-122.218229	0.000030	0.304076	0.103024	0.000012
1512	1.5034e+02	-19.7882	-122.194006	0.000061	0.608152	0.206048	0.000024
1513	1.5044e+02	-19.7625	-122.117300	0.000193	1.925815	0.652484	0.000077
1514	1.5054e+02	-19.7128	-122.076929	0.000101	1.013587	0.343413	0.000041
1515	1.5064e+02	-19.6711	-122.008298	0.000172	1.723098	0.583801	0.000069
1516	1.5074e+02	-19.6342	-121.939666	0.000172	1.723098	0.583801	0.000069
1517	1.5084e+02	-19.5941	-121.879109	0.000152	1.520380	0.515119	0.000061
1518	1.5094e+02	-19.5540	-121.774144	0.000264	2.635326	0.892873	0.000105
1519	1.5104e+02	-19.5219	-121.685327	0.000223	2.229891	0.755508	0.000089
1520	1.5114e+02	-19.4754	-121.596510	0.000223	2.229891	0.755508	0.000089
1521	1.5124e+02	-19.4401	-121.564213	0.000081	0.810869	0.274730	0.000032
1522	1.5134e+02	-19.3936	-121.422913	0.000355	3.547554	1.201944	0.000142
1523	1.5144e+02	-19.3551	-121.301799	0.000304	3.040760	1.030238	0.000122
1524	1.5154e+02	-19.3150	-121.184722	0.000294	2.939402	0.995896	0.000118
1525	1.5164e+02	-19.2749	-121.079756	0.000264	2.635326	0.892873	0.000105
1526	1.5174e+02	-19.2444	-121.027274	0.000132	1.317663	0.446436	0.000053
1527	1.5184e+02	-19.1962	-120.885974	0.000355	3.547554	1.201944	0.000142
1528	1.5194e+02	-19.1626	-120.740637	0.000365	3.648913	1.236285	0.000146
1529	1.5204e+02	-19.1112	-120.623560	0.000294	2.939402	0.995896	0.000118
1530	1.5214e+02	-19.0775	-120.478223	0.000365	3.648913	1.236285	0.000146
1531	1.5224e+02	-19.0503	-120.389406	0.000223	2.229891	0.755508	0.000089
1532	1.5233e+02	-19.0021	-120.256181	0.000334	3.344836	1.133261	0.000134
1533	1.5243e+02	-18.9604	-120.135067	0.000304	3.040760	1.030238	0.000122
1534	1.5253e+02	-18.9203	-120.009916	0.000314	3.142119	1.064579	0.000126
1535	1.5263e+02	-18.8866	-119.913024	0.000243	2.432608	0.824190	0.000097
1536	1.5273e+02	-18.8337	-119.743465	0.000426	4.257065	1.442333	0.000170
1537	1.5283e+02	-18.8128	-119.569868	0.000436	4.358423	1.476674	0.000174
1538	1.5293e+02	-18.7583	-119.489125	0.000203	2.027174	0.686825	0.000081
1539	1.5303e+02	-18.7182	-119.327640	0.000405	4.054347	1.373650	0.000162
1540	1.5313e+02	-18.6781	-119.174228	0.000385	3.851630	1.304968	0.000154
1541	1.5323e+02	-18.6412	-119.061189	0.000284	2.838043	0.961555	0.000114
1542	1.5333e+02	-18.5979	-118.887592	0.000436	4.358423	1.476674	0.000174
1543	1.5343e+02	-18.5578	-118.774552	0.000284	2.838043	0.961555	0.000114
1544	1.5353e+02	-18.5177	-118.604992	0.000426	4.257065	1.442333	0.000170
1545	1.5363e+02	-18.4808	-118.487915	0.000294	2.939402	0.995896	0.000118
1546	1.5373e+02	-18.4439	-118.314319	0.000436	4.358423	1.476674	0.000174
1547	1.5383e+02	-18.3925	-118.173019	0.000355	3.547554	1.201944	0.000142
1548	1.5393e+02	-18.3637	-118.023645	0.000375	3.750271	1.270626	0.000150
1549	1.5403e+02	-18.3171	-117.894456	0.000324	3.243478	1.098920	0.000130
1550	1.5413e+02	-18.2850	-117.761231	0.000334	3.344836	1.133261	0.000134
1551	1.5422e+02	-18.2465	-117.567448	0.000487	4.865217	1.648380	0.000195
1552	1.5432e+02	-18.2048	-117.410000	0.000395	3.952989	1.339309	0.000158
1553	1.5442e+02	-18.1567	-117.256589	0.000385	3.851630	1.304968	0.000154
1554	1.5452e+02	-18.1182	-117.127401	0.000324	3.243478	1.098920	0.000130
1555	1.5462e+02	-18.0829	-116.994175	0.000334	3.344836	1.133261	0.000134
1556	1.5472e+02	-18.0412	-116.816541	0.000446	4.459782	1.511015	0.000179
1557	1.5482e+02	-17.9995	-116.651019	0.000416	4.155706	1.407991	0.000166
1558	1.5492e+02	-17.9578	-116.529905	0.000304	3.040760	1.030238	0.000122
1559	1.5502e+02	-17.9257	-116.328048	0.000507	5.067934	1.717063	0.000203
1560	1.5512e+02	-17.8792	-116.170599	0.000395	3.952989	1.339309	0.000158
1561	1.5522e+02	-17.8391	-116.037374	0.000334	3.344836	1.133261	0.000134
1562	1.5532e+02	-17.8038	-115.879926	0.000395	3.952989	1.339309	0.000158
1563	1.5542e+02	-17.7717	-115.698255	0.000456	4.561141	1.545356	0.000183
1564	1.5552e+02	-17.7252	-115.524658	0.000436	4.358423	1.476674	0.000174
1565	1.5562e+02	-17.6931	-115.431804	0.000233	2.331250	0.789849	0.000093
1566	1.5572e+02	-17.6401	-115.238021	0.000487	4.865217	1.648380	0.000195
1567	1.5582e+02	-17.6145	-115.072499	0.000416	4.155706	1.407991	0.000166
1568	1.5592e+02	-17.5647	-114.898902	0.000436	4.358423	1.476674	0.000174
1569	1.5602e+02	-17.5295	-114.753565	0.000365	3.648913	1.236285	0.000146
1570	1.5612e+02	-17.4813	-114.567857	0.000466	4.662499	1.579698	0.000187
1571	1.5622e+02	-17.4492	-114.446742	0.000304	3.040760	1.030238	0.000122
1572	1.5631e+02	-17.4027	-114.244886	0.000507	5.067934	1.717063	0.000203
1573	1.5641e+02	-17.3690	-114.087437	0.000395	3.952989	1.339309	0.000158
1574	1.5651e+02	-17.3257	-113.901729	0.000466	4.662499	1.579698	0.000187
1575	1.5661e+02	-17.2888	-113.780615	0.000304	3.040760	1.030238	0.000122
1576	1.5671e+02	-17.2487	-113.542424	0.000598	5.980162	2.026134	0.000239
1577	1.5681e+02	-17.2150	-113.384976	0.000395	3.952989	1.339309	0.000158
1578	1.5691e+02	-17.1669	-113.243676	0.000355	3.547554	1.201944	0.000142
1579	1.5701e+02	-17.1348	-113.066042	0.000446	4.459782	1.511015	0.000179
1580	1.5711e+02	-17.0771	-112.876297	0.000476	4.763858	1.614039	0.000191
1581	1.5721e+02	-17.0450	-112.706737	0.000426	4.257065	1.442333	0.000170
1582	1.5731e+02	-17.0097	-112.549289	0.000395	3.952989	1.339309	0.000158
1583	1.5741e+02	-16.9696	-112.375692	0.000436	4.358423	1.476674	0.000174
1584	1.5751e+02	-16.9295	-112.222281	0.000385	3.851630	1.304968	0.000154
1585	1.5761e+02	-16.8846	-112.020424	0.000507	5.067934	1.717063	0.000203
1586	1.5771e+02	-16.8460	-111.850864	0.000426	4.257065	1.442333	0.000170
1587	1.5781e+02	-16.8124	-111.689379	0.000405	4.054347	1.373650	0.000162
1588	1.5791e+02	-16.7755	-111.527893	0.000405	4.054347	1.373650	0.000162
1589	1.5801e+02	-16.7321	-111.386594	0.000355	3.547554	1.201944	0.000142
1590	1.5811e+02	-16.6920	-111.184737	0.000507	5.067934	1.717063	0.000203
1591	1.5821e+02	-16.6455	-111.003066	0.000456	4.561141	1.545356	0.000183
1592	1.5830e+02	-16.6102	-110.805246	0.000497	4.966575	1.682721	0.000199
1593	1.5840e+02	-16.5765	-110.676058	0.000324	3.243478	1.098920	0.000130
1594	1.5850e+02	-16.5220	-110.462089	0.000537	5.372010	1.820086	0.000215
1595	1.5860e+02	-16.4883	-110.304641	0.000395	3.952989	1.339309	0.000158
1596	1.5870e+02	-16.4514	-110.110859	0.000487	4.865217	1.648380	0.000195
1597	1.5880e+02	-16.4129	-109.913039	0.000497	4.966575	1.682721	0.000199
1598	1.5890e+02	-16.3696	-109.779814	0.000334	3.344836	1.133261	0.000134
1599	1.5900e+02	-16.3295	-109.610254	0.000426	4.257065	1.442333	0.000170
1600	1.5910e+02	-16.2990	-109.416471	0.000487	4.865217	1.648380	0.000195
1601	1.5920e+02	-16.2429	-109.230763	0.000466	4.662499	1.579698	0.000187
1602	1.5930e+02	-16.2204	-109.081389	0.000375	3.750271	1.270626	0.000150
1603	1.5940e+02	-16.1755	-108.895681	0.000466	4.662499	1.579698	0.000187
1604	1.5950e+02	-16.1257	-108.709973	0.000466	4.662499	1.579698	0.000187
1605	1.5960e+02	-16.1001	-108.528301	0.000456	4.561141	1.545356	0.000183
1606	1.5970e+02	-16.0536	-108.370853	0.000395	3.952989	1.339309	0.000158
1607	1.5980e+02	-16.0118	-108.217442	0.000385	3.851630	1.304968	0.000154
1608	1.5990e+02	-15.9733	-108.011548	0.000517	5.169293	1.751404	0.000207
1609	1.6000e+02	-15.9316	-107.833914	0.000446	4.459782	1.511015	0.000179
1610	1.6010e+02	-15.8947	-107.660317	0.000436	4.358423	1.476674	0.000174
1611	1.6019e+02	-15.8546	-107.494795	0.000416	4.155706	1.407991	0.000166
1612	1.6029e+02	-15.8097	-107.301012	0.000487	4.865217	1.648380	0.000195
1613	1.6039e+02	-15.7808	-107.111267	0.000476	4.763858	1.614039	0.000191
1614	1.6049e+02	-15.7231	-106.925559	0.000466	4.662499	1.579698	0.000187
1615	1.6059e+02	-15.7006	-106.747925	0.000446	4.459782	1.511015	0.000179
1616	1.6069e+02	-15.6605	-106.590476	0.000395	3.952989	1.339309	0.000158
1617	1.6079e+02	-15.6204	-106.416879	0.000436	4.358423	1.476674	0.000174
1618	1.6089e+02	-15.5707	-106.235208	0.000456	4.561141	1.545356	0.000183
1619	1.6099e+02	-15.5386	-106.033352	0.000507	5.067934	1.717063	0.000203
1620	1.6109e+02	-15.4937	-105.859755	0.000436	4.358423	1.476674	0.000174
1621	1.6119e+02	-15.4552	-105.674047	0.000466	4.662499	1.579698	0.000187
1622	1.6129e+02	-15.4215	-105.496413	0.000446	4.459782	1.511015	0.000179
1623	1.6139e+02	-15.3718	-105.302630	0.000487	4.865217	1.648380	0.000195
1624	1.6149e+02	-15.3333	-105.141145	0.000405	4.054347	1.373650	0.000162
1625	1.6159e+02	-15.2996	-104.991771	0.000375	3.750271	1.270626	0.000150
1626	1.6169e+02	-15.2514	-104.753580	0.000598	5.980162	2.026134	0.000239
1627	1.6179e+02	-15.2290	-104.579983	0.000436	4.358423	1.476674	0.000174
1628	1.6189e+02	-15.1744	-104.410423	0.000426	4.257065	1.442333	0.000170
1629	1.6199e+02	-15.1391	-104.252975	0.000395	3.952989	1.339309	0.000158
1630	1.6209e+02	-15.0910	-104.022858	0.000578	5.777445	1.957451	0.000231
1631	1.6219e+02	-15.0589	-103.841187	0.000456	4.561141	1.545356	0.000183
1632	1.6228e+02	-15.0108	-103.667590	0.000436	4.358423	1.476674	0.000174
1633	1.6238e+02	-14.9771	-103.465733	0.000507	5.067934	1.717063	0.000203
1634	1.6248e+02	-14.9226	-103.316359	0.000375	3.750271	1.270626	0.000150
1635	1.6258e+02	-14.8921	-103.086243	0.000578	5.777445	1.957451	0.000231
1636	1.6268e+02	-14.8552	-102.872274	0.000537	5.372010	1.820086	0.000215
1637	1.6278e+02	-14.8103	-102.739049	0.000334	3.344836	1.133261	0.000134
1638	1.6288e+02	-14.7670	-102.557378	0.000456	4.561141	1.545356	0.000183
1639	1.6298e+02	-14.7365	-102.339372	0.000547	5.473369	1.854428	0.000219
1640	1.6308e+02	-14.6964	-102.153664	0.000466	4.662499	1.579698	0.000187
1641	1.6318e+02	-14.6563	-102.004290	0.000375	3.750271	1.270626	0.000150
1642	1.6328e+02	-14.6178	-101.745913	0.000649	6.486956	2.197840	0.000260
1643	1.6338e+02	-14.5761	-101.616725	0.000324	3.243478	1.098920	0.000130
1644	1.6348e+02	-14.5327	-101.390645	0.000568	5.676086	1.923110	0.000227
1645	1.6358e+02	-14.4958	-101.237234	0.000385	3.851630	1.304968	0.000154
1646	1.6368e+02	-14.4557	-101.019229	0.000547	5.473369	1.854428	0.000219
1647	1.6378e+02	-14.4221	-100.813335	0.000517	5.169293	1.751404	0.000207
1648	1.6388e+02	-14.3819	-100.655887	0.000395	3.952989	1.339309	0.000158
1649	1.6398e+02	-14.3467	-100.466141	0.000476	4.763858	1.614039	0.000191
1650	1.6408e+02	-14.2985	-100.268322	0.000497	4.966575	1.682721	0.000199
1651	1.6418e+02	-14.2616	-100.042242	0.000568	5.676086	1.923110	0.000227
1652	1.6427e+02	-14.2103	-99.864608	0.000446	4.459782	1.511015	0.000179
1653	1.6437e+02	-14.1878	-99.703123	0.000405	4.054347	1.373650	0.000162
1654	1.6447e+02	-14.1445	-99.529526	0.000436	4.358423	1.476674	0.000174
1655	1.6457e+02	-14.1012	-99.303446	0.000568	5.676086	1.923110	0.000227
1656	1.6467e+02	-14.0579	-99.105627	0.000497	4.966575	1.682721	0.000199
1657	1.6477e+02	-14.0146	-98.907807	0.000497	4.966575	1.682721	0.000199
1658	1.6487e+02	-13.9873	-98.701913	0.000517	5.169293	1.751404	0.000207
1659	1.6497e+02	-13.9488	-98.552539	0.000375	3.750271	1.270626	0.000150
1660	1.6507e+02	-13.9023	-98.370868	0.000456	4.561141	1.545356	0.000183
1661	1.6517e+02	-13.8526	-98.152863	0.000547	5.473369	1.854428	0.000219
1662	1.6527e+02	-13.8253	-97.971192	0.000456	4.561141	1.545356	0.000183
1663	1.6537e+02	-13.7820	-97.785483	0.000466	4.662499	1.579698	0.000187
1664	1.6547e+02	-13.7435	-97.547292	0.000598	5.980162	2.026134	0.000239
1665	1.6557e+02	-13.7034	-97.349473	0.000497	4.966575	1.682721	0.000199
1666	1.6567e+02	-13.6552	-97.179913	0.000426	4.257065	1.442333	0.000170
1667	1.6577e+02	-13.6119	-96.990168	0.000476	4.763858	1.614039	0.000191
1668	1.6587e+02	-13.5814	-96.776199	0.000537	5.372010	1.820086	0.000215
1669	1.6597e+02	-13.5413	-96.606640	0.000426	4.257065	1.442333	0.000170
1670	1.6607e+02	-13.4996	-96.408820	0.000497	4.966575	1.682721	0.000199
1671	1.6616e+02	-13.4707	-96.231186	0.000446	4.459782	1.511015	0.000179
1672	1.6626e+02	-13.4274	-95.984921	0.000618	6.182880	2.094816	0.000248
1673	1.6636e+02	-13.3793	-95.827472	0.000395	3.952989	1.339309	0.000158
1674	1.6646e+02	-13.3392	-95.585244	0.000608	6.081521	2.060475	0.000243
1675	1.6656e+02	-13.2975	-95.427796	0.000395	3.952989	1.339309	0.000158
1676	1.6666e+02	-13.2670	-95.225939	0.000507	5.067934	1.717063	0.000203
1677	1.6676e+02	-13.2221	-95.024082	0.000507	5.067934	1.717063	0.000203
1678	1.6686e+02	-13.1820	-94.854523	0.000426	4.257065	1.442333	0.000170
1679	1.6696e+02	-13.1403	-94.596146	0.000649	6.486956	2.197840	0.000260
1680	1.6706e+02	-13.0889	-94.454846	0.000355	3.547554	1.201944	0.000142
1681	1.6716e+02	-13.0713	-94.244915	0.000527	5.270651	1.785745	0.000211
1682	1.6726e+02	-13.0183	-94.010761	0.000588	5.878804	1.991793	0.000235
1683	1.6736e+02	-12.9798	-93.845239	0.000416	4.155706	1.407991	0.000166
1684	1.6746e+02	-12.9478	-93.635308	0.000527	5.270651	1.785745	0.000211
1685	1.6756e+02	-12.9061	-93.437488	0.000497	4.966575	1.682721	0.000199
1686	1.6766e+02	-12.8659	-93.247743	0.000476	4.763858	1.614039	0.000191
1687	1.6776e+02	-12.8178	-93.033775	0.000537	5.372010	1.820086	0.000215
1688	1.6786e+02	-12.7841	-92.868252	0.000416	4.155706	1.407991	0.000166
1689	1.6796e+02	-12.7440	-92.666395	0.000507	5.067934	1.717063	0.000203
1690	1.6806e+02	-12.6943	-92.412056	0.000639	6.385597	2.163499	0.000256
1691	1.6816e+02	-12.6590	-92.214236	0.000497	4.966575	1.682721	0.000199
1692	1.6825e+02	-12.6221	-92.040639	0.000436	4.358423	1.476674	0.000174
1693	1.6835e+02	-12.5852	-91.842819	0.000497	4.966575	1.682721	0.000199
1694	1.6845e+02	-12.5451	-91.661148	0.000456	4.561141	1.545356	0.000183
1695	1.6855e+02	-12.5034	-91.414883	0.000618	6.182880	2.094816	0.000248
1696	1.6865e+02	-12.4569	-91.221101	0.000487	4.865217	1.648380	0.000195
1697	1.6875e+02	-12.4344	-91.031355	0.000476	4.763858	1.614039	0.000191
1698	1.6885e+02	-12.3943	-90.760867	0.000679	6.791032	2.300864	0.000272
1699	1.6895e+02	-12.3510	-90.627642	0.000334	3.344836	1.133261	0.000134
1700	1.6905e+02	-12.3013	-90.393488	0.000588	5.878804	1.991793	0.000235
1701	1.6915e+02	-12.2644	-90.171445	0.000557	5.574727	1.888769	0.000223
1702	1.6925e+02	-12.2307	-89.989774	0.000456	4.561141	1.545356	0.000183
1703	1.6935e+02	-12.1874	-89.800029	0.000476	4.763858	1.614039	0.000191
1704	1.6945e+02	-12.1489	-89.598172	0.000507	5.067934	1.717063	0.000203
1705	1.6955e+02	-12.1152	-89.364018	0.000588	5.878804	1.991793	0.000235
1706	1.6965e+02	-12.0686	-89.162161	0.000507	5.067934	1.717063	0.000203
1707	1.6975e+02	-12.0221	-88.940119	0.000557	5.574727	1.888769	0.000223
1708	1.6985e+02	-11.9852	-88.730188	0.000527	5.270651	1.785745	0.000211
1709	1.6995e+02	-11.9580	-88.528331	0.000507	5.067934	1.717063	0.000203
1710	1.7005e+02	-11.9098	-88.314363	0.000537	5.372010	1.820086	0.000215
1711	1.7015e+02	-11.8745	-88.088283	0.000568	5.676086	1.923110	0.000227
1712	1.7024e+02	-11.8328	-87.894501	0.000487	4.865217	1.648380	0.000195
1713	1.7034e+02	-11.7927	-87.712830	0.000456	4.561141	1.545356	0.000183
1714	1.7044e+02	-11.7382	-87.478676	0.000588	5.878804	1.991793	0.000235
1715	1.7054e+02	-11.7013	-87.313153	0.000416	4.155706	1.407991	0.000166
1716	1.7064e+02	-11.6660	-87.078999	0.000588	5.878804	1.991793	0.000235
1717	1.7074e+02	-11.6339	-86.852920	0.000568	5.676086	1.923110	0.000227
1718	1.7084e+02	-11.5922	-86.659137	0.000487	4.865217	1.648380	0.000195
1719	1.7094e+02	-11.5537	-86.481503	0.000446	4.459782	1.511015	0.000179
1720	1.7104e+02	-11.5040	-86.223127	0.000649	6.486956	2.197840	0.000260
1721	1.7114e+02	-11.4687	-86.049530	0.000436	4.358423	1.476674	0.000174
1722	1.7124e+02	-11.4286	-85.807302	0.000608	6.081521	2.060475	0.000243
1723	1.7134e+02	-11.3884	-85.585259	0.000557	5.574727	1.888769	0.000223
1724	1.7144e+02	-11.3451	-85.423774	0.000405	4.054347	1.373650	0.000162
1725	1.7154e+02	-11.3066	-85.205768	0.000547	5.473369	1.854428	0.000219
1726	1.7164e+02	-11.2729	-84.991800	0.000537	5.372010	1.820086	0.000215
1727	1.7174e+02	-11.2393	-84.765721	0.000568	5.676086	1.923110	0.000227
1728	1.7184e+02	-11.1895	-84.563864	0.000507	5.067934	1.717063	0.000203
1729	1.7194e+02	-11.1526	-84.366044	0.000497	4.966575	1.682721	0.000199
1730	1.7204e+02	-11.1077	-84.144002	0.000557	5.574727	1.888769	0.000223
1731	1.7213e+02	-11.0788	-83.938108	0.000517	5.169293	1.751404	0.000207
1732	1.7223e+02	-11.0211	-83.740288	0.000497	4.966575	1.682721	0.000199
1733	1.7233e+02	-10.9954	-83.498060	0.000608	6.081521	2.060475	0.000243
1734	1.7243e+02	-10.9457	-83.312352	0.000466	4.662499	1.579698	0.000187
1735	1.7253e+02	-10.9040	-83.058012	0.000639	6.385597	2.163499	0.000256
1736	1.7263e+02	-10.8607	-82.803673	0.000639	6.385597	2.163499	0.000256
1737	1.7273e+02	-10.8366	-82.630076	0.000436	4.358423	1.476674	0.000174
1738	1.7283e+02	-10.7949	-82.448405	0.000456	4.561141	1.545356	0.000183
1739	1.7293e+02	-10.7419	-82.198102	0.000628	6.284238	2.129158	0.000252
1740	1.7303e+02	-10.7099	-82.008357	0.000476	4.763858	1.614039	0.000191
1741	1.7313e+02	-10.6746	-81.806500	0.000507	5.067934	1.717063	0.000203
1742	1.7323e+02	-10.6345	-81.620792	0.000466	4.662499	1.579698	0.000187
1743	1.7333e+02	-10.5976	-81.374527	0.000618	6.182880	2.094816	0.000248
1744	1.7343e+02	-10.5510	-81.160558	0.000537	5.372010	1.820086	0.000215
1745	1.7353e+02	-10.5061	-80.950627	0.000527	5.270651	1.785745	0.000211
1746	1.7363e+02	-10.4708	-80.748770	0.000507	5.067934	1.717063	0.000203
1747	1.7373e+02	-10.4323	-80.526728	0.000557	5.574727	1.888769	0.000223
1748	1.7383e+02	-10.3954	-80.296611	0.000578	5.777445	1.957451	0.000231
1749	1.7393e+02	-10.3537	-80.094754	0.000507	5.067934	1.717063	0.000203
1750	1.7403e+02	-10.3120	-79.864638	0.000578	5.777445	1.957451	0.000231
1751	1.7413e+02	-10.2751	-79.626447	0.000598	5.980162	2.026134	0.000239
1752	1.7422e+02	-10.2382	-79.444776	0.000456	4.561141	1.545356	0.000183
1753	1.7432e+02	-10.1917	-79.210622	0.000588	5.878804	1.991793	0.000235
1754	1.7442e+02	-10.1484	-79.008765	0.000507	5.067934	1.717063	0.000203
1755	1.7452e+02	-10.1211	-78.798834	0.000527	5.270651	1.785745	0.000211
1756	1.7462e+02	-10.0698	-78.544494	0.000639	6.385597	2.163499	0.000256
1757	1.7472e+02	-10.0409	-78.322452	0.000557	5.574727	1.888769	0.000223
1758	1.7482e+02	-9.9912	-78.108484	0.000537	5.372010	1.820086	0.000215
1759	1.7492e+02	-9.9543	-77.886441	0.000557	5.574727	1.888769	0.000223
1760	1.7502e+02	-9.9110	-77.688622	0.000497	4.966575	1.682721	0.000199
1761	1.7512e+02	-9.8708	-77.506950	0.000456	4.561141	1.545356	0.000183
1762	1.7522e+02	-9.8275	-77.208202	0.000750	7.500542	2.541253	0.000300
1763	1.7532e+02	-9.7890	-77.026531	0.000456	4.561141	1.545356	0.000183
1764	1.7542e+02	-9.7489	-76.796415	0.000578	5.777445	1.957451	0.000231
1765	1.7552e+02	-9.7136	-76.602632	0.000487	4.865217	1.648380	0.000195
1766	1.7562e+02	-9.6751	-76.368478	0.000588	5.878804	1.991793	0.000235
1767	1.7572e+02	-9.6414	-76.142399	0.000568	5.676086	1.923110	0.000227
1768	1.7582e+02	-9.5949	-75.928430	0.000537	5.372010	1.820086	0.000215
1769	1.7592e+02	-9.5548	-75.657942	0.000679	6.791032	2.300864	0.000272
1770	1.7602e+02	-9.5211	-75.496457	0.000405	4.054347	1.373650	0.000162
1771	1.7612e+02	-9.4714	-75.242117	0.000639	6.385597	2.163499	0.000256
1772	1.7621e+02	-9.4361	-75.088706	0.000385	3.851630	1.304968	0.000154
1773	1.7631e+02	-9.3976	-74.858589	0.000578	5.777445	1.957451	0.000231
1774	1.7641e+02	-9.3527	-74.604250	0.000639	6.385597	2.163499	0.000256
1775	1.7651e+02	-9.3254	-74.406430	0.000497	4.966575	1.682721	0.000199
1776	1.7661e+02	-9.2789	-74.208611	0.000497	4.966575	1.682721	0.000199
1777	1.7671e+02	-9.2356	-73.962345	0.000618	6.182880	2.094816	0.000248
1778	1.7681e+02	-9.1987	-73.720117	0.000608	6.081521	2.060475	0.000243
1779	1.7691e+02	-9.1570	-73.534409	0.000466	4.662499	1.579698	0.000187
1780	1.7701e+02	-9.1169	-73.296218	0.000598	5.980162	2.026134	0.000239
1781	1.7711e+02	-9.0800	-73.086287	0.000527	5.270651	1.785745	0.000211
1782	1.7721e+02	-9.0399	-72.815799	0.000679	6.791032	2.300864	0.000272
1783	1.7731e+02	-8.9949	-72.630090	0.000466	4.662499	1.579698	0.000187
1784	1.7741e+02	-8.9661	-72.395937	0.000588	5.878804	1.991793	0.000235
1785	1.7751e+02	-8.9195	-72.190043	0.000517	5.169293	1.751404	0.000207
1786	1.7761e+02	-8.8794	-71.963963	0.000568	5.676086	1.923110	0.000227
1787	1.7771e+02	-8.8377	-71.713661	0.000628	6.284238	2.129158	0.000252
1788	1.7781e+02	-8.7976	-71.523915	0.000476	4.763858	1.614039	0.000191
1789	1.7791e+02	-8.7607	-71.330133	0.000487	4.865217	1.648380	0.000195
1790	1.7801e+02	-8.7206	-71.095979	0.000588	5.878804	1.991793	0.000235
1791	1.7810e+02	-8.6837	-70.861825	0.000588	5.878804	1.991793	0.000235
1792	1.7820e+02	-8.6436	-70.688228	0.000436	4.358423	1.476674	0.000174
1793	1.7830e+02	-8.5955	-70.405629	0.000710	7.095108	2.403888	0.000284
1794	1.7840e+02	-8.5490	-70.191661	0.000537	5.372010	1.820086	0.000215
1795	1.7850e+02	-8.5281	-69.985767	0.000517	5.169293	1.751404	0.000207
1796	1.7860e+02	-8.4832	-69.755650	0.000578	5.777445	1.957451	0.000231
1797	1.7870e+02	-8.4383	-69.513422	0.000608	6.081521	2.060475	0.000243
1798	1.7880e+02	-8.4014	-69.319639	0.000487	4.865217	1.648380	0.000195
1799	1.7890e+02	-8.3613	-69.057225	0.000659	6.588314	2.232181	0.000264
1800	1.7900e+02	-8.3163	-68.859406	0.000497	4.966575	1.682721	0.000199
1801	1.7910e+02	-8.2875	-68.629289	0.000578	5.777445	1.957451	0.000231
1802	1.7920e+02	-8.2361	-68.407247	0.000557	5.574727	1.888769	0.000223
1803	1.7930e+02	-8.2040	-68.193278	0.000537	5.372010	1.820086	0.000215
1804	1.7940e+02	-8.1639	-67.942976	0.000628	6.284238	2.129158	0.000252
1805	1.7950e+02	-8.1174	-67.708822	0.000588	5.878804	1.991793	0.000235
1806	1.7960e+02	-8.0869	-67.498891	0.000527	5.270651	1.785745	0.000211
1807	1.7970e+02	-8.0404	-67.248589	0.000628	6.284238	2.129158	0.000252
1808	1.7980e+02	-8.0003	-67.046732	0.000507	5.067934	1.717063	0.000203
1809	1.7990e+02	-7.9746	-66.804504	0.000608	6.081521	2.060475	0.000243
1810	1.8000e+02	-7.9137	-66.566313	0.000598	5.980162	2.026134	0.000239
1811	1.8009e+02	-7.8768	-66.368493	0.000497	4.966575	1.682721	0.000199
1812	1.8019e+02	-7.8511	-66.138376	0.000578	5.777445	1.957451	0.000231
1813	1.8029e+02	-7.8046	-65.904222	0.000588	5.878804	1.991793	0.000235
1814	1.8039e+02	-7.7613	-65.682180	0.000557	5.574727	1.888769	0.000223
1815	1.8049e+02	-7.7292	-65.431877	0.000628	6.284238	2.129158	0.000252
1816	1.8059e+02	-7.6843	-65.225984	0.000517	5.169293	1.751404	0.000207
1817	1.8069e+02	-7.6458	-64.979718	0.000618	6.182880	2.094816	0.000248
1818	1.8079e+02	-7.6025	-64.753639	0.000568	5.676086	1.923110	0.000227
1819	1.8089e+02	-7.5624	-64.507373	0.000618	6.182880	2.094816	0.000248
1820	1.8099e+02	-7.5190	-64.261108	0.000618	6.182880	2.094816	0.000248
1821	1.8109e+02	-7.4854	-64.039066	0.000557	5.574727	1.888769	0.000223
1822	1.8119e+02	-7.4388	-63.841246	0.000497	4.966575	1.682721	0.000199
1823	1.8129e+02	-7.4051	-63.619204	0.000557	5.574727	1.888769	0.000223
1824	1.8139e+02	-7.3666	-63.381013	0.000598	5.980162	2.026134	0.000239
1825	1.8149e+02	-7.3265	-63.163007	0.000547	5.473369	1.854428	0.000219
1826	1.8159e+02	-7.2800	-62.900593	0.000659	6.588314	2.232181	0.000264
1827	1.8169e+02	-7.2351	-62.686625	0.000537	5.372010	1.820086	0.000215
1828	1.8179e+02	-7.2014	-62.408063	0.000699	6.993749	2.369546	0.000280
1829	1.8189e+02	-7.1757	-62.250615	0.000395	3.952989	1.339309	0.000158
1830	1.8199e+02	-7.1276	-61.984164	0.000669	6.689673	2.266523	0.000268
1831	1.8209e+02	-7.0891	-61.766158	0.000547	5.473369	1.854428	0.000219
1832	1.8218e+02	-7.0506	-61.507782	0.000649	6.486956	2.197840	0.000260
1833	1.8228e+02	-7.0121	-61.281702	0.000568	5.676086	1.923110	0.000227
1834	1.8238e+02	-6.9608	-61.043511	0.000598	5.980162	2.026134	0.000239
1835	1.8248e+02	-6.9255	-60.793209	0.000628	6.284238	2.129158	0.000252
1836	1.8258e+02	-6.8854	-60.563092	0.000578	5.777445	1.957451	0.000231
1837	1.8268e+02	-6.8517	-60.353161	0.000527	5.270651	1.785745	0.000211
1838	1.8278e+02	-6.8052	-60.135155	0.000547	5.473369	1.854428	0.000219
1839	1.8288e+02	-6.7650	-59.872742	0.000659	6.588314	2.232181	0.000264
1840	1.8298e+02	-6.7314	-59.670885	0.000507	5.067934	1.717063	0.000203
1841	1.8308e+02	-6.6929	-59.408471	0.000659	6.588314	2.232181	0.000264
1842	1.8318e+02	-6.6511	-59.174317	0.000588	5.878804	1.991793	0.000235
1843	1.8328e+02	-6.6110	-58.919978	0.000639	6.385597	2.163499	0.000256
1844	1.8338e+02	-6.5645	-58.701972	0.000547	5.473369	1.854428	0.000219
1845	1.8348e+02	-6.5292	-58.435521	0.000669	6.689673	2.266523	0.000268
1846	1.8358e+02	-6.4875	-58.225590	0.000527	5.270651	1.785745	0.000211
1847	1.8368e+02	-6.4458	-58.007585	0.000547	5.473369	1.854428	0.000219
1848	1.8378e+02	-6.4121	-57.781505	0.000568	5.676086	1.923110	0.000227
1849	1.8388e+02	-6.3752	-57.567537	0.000537	5.372010	1.820086	0.000215
1850	1.8398e+02	-6.3319	-57.329346	0.000598	5.980162	2.026134	0.000239
1851	1.8407e+02	-6.2982	-57.070969	0.000649	6.486956	2.197840	0.000260
1852	1.8417e+02	-6.2613	-56.816630	0.000639	6.385597	2.163499	0.000256
1853	1.8427e+02	-6.2180	-56.598624	0.000547	5.473369	1.854428	0.000219
1854	1.8437e+02	-6.1731	-56.380619	0.000547	5.473369	1.854428	0.000219
1855	1.8447e+02	-6.1362	-56.098020	0.000710	7.095108	2.403888	0.000284
1856	1.8457e+02	-6.1009	-55.875977	0.000557	5.574727	1.888769	0.000223
1857	1.8467e+02	-6.0528	-55.605489	0.000679	6.791032	2.300864	0.000272
1858	1.8477e+02	-6.0175	-55.399595	0.000517	5.169293	1.751404	0.000207
1859	1.8487e+02	-5.9677	-55.096810	0.000760	7.601901	2.575594	0.000304
1860	1.8497e+02	-5.9212	-54.907065	0.000476	4.763858	1.614039	0.000191
1861	1.8507e+02	-5.8972	-54.660799	0.000618	6.182880	2.094816	0.000248
1862	1.8517e+02	-5.8571	-54.454905	0.000517	5.169293	1.751404	0.000207
1863	1.8527e+02	-5.8121	-54.164232	0.000730	7.297825	2.472570	0.000292
1864	1.8537e+02	-5.7784	-53.909892	0.000639	6.385597	2.163499	0.000256
1865	1.8547e+02	-5.7351	-53.720147	0.000476	4.763858	1.614039	0.000191
1866	1.8557e+02	-5.6998	-53.433510	0.000720	7.196466	2.438229	0.000288
1867	1.8567e+02	-5.6469	-53.191282	0.000608	6.081521	2.060475	0.000243
1868	1.8577e+02	-5.6036	-52.961165	0.000578	5.777445	1.957451	0.000231
1869	1.8587e+02	-5.5779	-52.710863	0.000628	6.284238	2.129158	0.000252
1870	1.8597e+02	-5.5410	-52.456523	0.000639	6.385597	2.163499	0.000256
1871	1.8606e+02	-5.4913	-52.226406	0.000578	5.777445	1.957451	0.000231
1872	1.8616e+02	-5.4576	-51.972067	0.000639	6.385597	2.163499	0.000256
1873	1.8626e+02	-5.4175	-51.758099	0.000537	5.372010	1.820086	0.000215
1874	1.8636e+02	-5.3678	-51.532019	0.000568	5.676086	1.923110	0.000227
1875	1.8646e+02	-5.3389	-51.281717	0.000628	6.284238	2.129158	0.000252
1876	1.8656e+02	-5.2988	-51.039489	0.000608	6.081521	2.060475	0.000243
1877	1.8666e+02	-5.2635	-50.760926	0.000699	6.993749	2.369546	0.000280
1878	1.8676e+02	-5.2202	-50.555032	0.000517	5.169293	1.751404	0.000207
1879	1.8686e+02	-5.1753	-50.296656	0.000649	6.486956	2.197840	0.000260
1880	1.8696e+02	-5.1400	-50.022130	0.000689	6.892390	2.335205	0.000276
1881	1.8706e+02	-5.0934	-49.800088	0.000557	5.574727	1.888769	0.000223
1882	1.8716e+02	-5.0501	-49.521526	0.000699	6.993749	2.369546	0.000280
1883	1.8726e+02	-5.0245	-49.303520	0.000547	5.473369	1.854428	0.000219
1884	1.8736e+02	-4.9811	-49.061292	0.000608	6.081521	2.060475	0.000243
1885	1.8746e+02	-4.9346	-48.823101	0.000598	5.980162	2.026134	0.000239
1886	1.8756e+02	-4.8977	-48.560687	0.000659	6.588314	2.232181	0.000264
1887	1.8766e+02	-4.8448	-48.354793	0.000517	5.169293	1.751404	0.000207
1888	1.8776e+02	-4.8223	-48.043934	0.000780	7.804618	2.644276	0.000312
1889	1.8786e+02	-4.7742	-47.797669	0.000618	6.182880	2.094816	0.000248
1890	1.8796e+02	-4.7389	-47.579663	0.000547	5.473369	1.854428	0.000219
1891	1.8806e+02	-4.7020	-47.349547	0.000578	5.777445	1.957451	0.000231
1892	1.8815e+02	-4.6410	-47.095207	0.000639	6.385597	2.163499	0.000256
1893	1.8825e+02	-4.6250	-46.836830	0.000649	6.486956	2.197840	0.000260
1894	1.8835e+02	-4.5833	-46.586528	0.000628	6.284238	2.129158	0.000252
1895	1.8845e+02	-4.5432	-46.340263	0.000618	6.182880	2.094816	0.000248
1896	1.8855e+02	-4.5031	-46.098034	0.000608	6.081521	2.060475	0.000243
1897	1.8865e+02	-4.4566	-45.839658	0.000649	6.486956	2.197840	0.000260
1898	1.8875e+02	-4.4197	-45.625690	0.000537	5.372010	1.820086	0.000215
1899	1.8885e+02	-4.3796	-45.363276	0.000659	6.588314	2.232181	0.000264
1900	1.8895e+02	-4.3443	-45.084713	0.000699	6.993749	2.369546	0.000280
1901	1.8905e+02	-4.2961	-44.854597	0.000578	5.777445	1.957451	0.000231
1902	1.8915e+02	-4.2608	-44.608331	0.000618	6.182880	2.094816	0.000248
1903	1.8925e+02	-4.2207	-44.358029	0.000628	6.284238	2.129158	0.000252
1904	1.8935e+02	-4.1790	-44.087541	0.000679	6.791032	2.300864	0.000272
1905	1.8945e+02	-4.1518	-43.841276	0.000618	6.182880	2.094816	0.000248
1906	1.8955e+02	-4.1100	-43.599047	0.000608	6.081521	2.060475	0.000243
1907	1.8965e+02	-4.0635	-43.352782	0.000618	6.182880	2.094816	0.000248
1908	1.8975e+02	-4.0218	-43.094405	0.000649	6.486956	2.197840	0.000260
1909	1.8985e+02	-3.9769	-42.852177	0.000608	6.081521	2.060475	0.000243
1910	1.8995e+02	-3.9416	-42.609949	0.000608	6.081521	2.060475	0.000243
1911	1.9004e+02	-3.8967	-42.379832	0.000578	5.777445	1.957451	0.000231
1912	1.9014e+02	-3.8614	-42.109344	0.000679	6.791032	2.300864	0.000272
1913	1.9024e+02	-3.8149	-41.871153	0.000598	5.980162	2.026134	0.000239
1914	1.9034e+02	-3.7796	-41.604702	0.000669	6.689673	2.266523	0.000268
1915	1.9044e+02	-3.7427	-41.366511	0.000598	5.980162	2.026134	0.000239
1916	1.9054e+02	-3.7074	-41.096023	0.000679	6.791032	2.300864	0.000272
1917	1.9064e+02	-3.6721	-40.869944	0.000568	5.676086	1.923110	0.000227
1918	1.9074e+02	-3.6127	-40.619641	0.000628	6.284238	2.129158	0.000252
1919	1.9084e+02	-3.5823	-40.361265	0.000649	6.486956	2.197840	0.000260
1920	1.9094e+02	-3.5405	-40.046368	0.000791	7.905977	2.678618	0.000316
1921	1.9104e+02	-3.5052	-39.852585	0.000487	4.865217	1.648380	0.000195
1922	1.9114e+02	-3.4539	-39.553837	0.000750	7.500542	2.541253	0.000300
1923	1.9124e+02	-3.4138	-39.307572	0.000618	6.182880	2.094816	0.000248
1924	1.9134e+02	-3.3785	-39.077455	0.000578	5.777445	1.957451	0.000231
1925	1.9144e+02	-3.3416	-38.794856	0.000710	7.095108	2.403888	0.000284
1926	1.9154e+02	-3.3063	-38.556665	0.000598	5.980162	2.026134	0.000239
1927	1.9164e+02	-3.2630	-38.314437	0.000608	6.081521	2.060475	0.000243
1928	1.9174e+02	-3.2229	-38.052023	0.000659	6.588314	2.232181	0.000264
1929	1.9184e+02	-3.1780	-37.805758	0.000618	6.182880	2.094816	0.000248
1930	1.9194e+02	-3.1427	-37.591789	0.000537	5.372010	1.820086	0.000215
1931	1.9203e+02	-3.1090	-37.329376	0.000659	6.588314	2.232181	0.000264
1932	1.9213e+02	-3.0593	-37.062925	0.000669	6.689673	2.266523	0.000268
1933	1.9223e+02	-3.0272	-36.792437	0.000679	6.791032	2.300864	0.000272
1934	1.9233e+02	-2.9855	-36.538097	0.000639	6.385597	2.163499	0.000256
1935	1.9243e+02	-2.9470	-36.307980	0.000578	5.777445	1.957451	0.000231
1936	1.9253e+02	-2.9037	-36.037492	0.000679	6.791032	2.300864	0.000272
1937	1.9263e+02	-2.8652	-35.762967	0.000689	6.892390	2.335205	0.000276
1938	1.9273e+02	-2.8267	-35.472293	0.000730	7.297825	2.472570	0.000292
1939	1.9283e+02	-2.7930	-35.262362	0.000527	5.270651	1.785745	0.000211
1940	1.9293e+02	-2.7448	-35.008023	0.000639	6.385597	2.163499	0.000256
1941	1.9303e+02	-2.7079	-34.729460	0.000699	6.993749	2.369546	0.000280
1942	1.9313e+02	-2.6727	-34.495306	0.000588	5.878804	1.991793	0.000235
1943	1.9323e+02	-2.6245	-34.257115	0.000598	5.980162	2.026134	0.000239
1944	1.9333e+02	-2.5828	-33.966442	0.000730	7.297825	2.472570	0.000292
1945	1.9343e+02	-2.5491	-33.724213	0.000608	6.081521	2.060475	0.000243
1946	1.9353e+02	-2.4994	-33.481985	0.000608	6.081521	2.060475	0.000243
1947	1.9363e+02	-2.4689	-33.219571	0.000659	6.588314	2.232181	0.000264
1948	1.9373e+02	-2.4320	-32.953120	0.000669	6.689673	2.266523	0.000268
1949	1.9383e+02	-2.3823	-32.694744	0.000649	6.486956	2.197840	0.000260
1950	1.9393e+02	-2.3374	-32.472701	0.000557	5.574727	1.888769	0.000223
1951	1.9403e+02	-2.3005	-32.206250	0.000669	6.689673	2.266523	0.000268
1952	1.9412e+02	-2.2604	-31.964022	0.000608	6.081521	2.060475	0.000243
1953	1.9422e+02	-2.2235	-31.701608	0.000659	6.588314	2.232181	0.000264
1954	1.9432e+02	-2.1866	-31.455343	0.000618	6.182880	2.094816	0.000248
1955	1.9442e+02	-2.1433	-31.144484	0.000780	7.804618	2.644276	0.000312
1956	1.9452e+02	-2.1031	-30.938590	0.000517	5.169293	1.751404	0.000207
1957	1.9462e+02	-2.0711	-30.651953	0.000720	7.196466	2.438229	0.000288
1958	1.9472e+02	-2.0342	-30.413762	0.000598	5.980162	2.026134	0.000239
1959	1.9482e+02	-1.9876	-30.123088	0.000730	7.297825	2.472570	0.000292
1960	1.9492e+02	-1.9475	-29.933343	0.000476	4.763858	1.614039	0.000191
1961	1.9502e+02	-1.9138	-29.670929	0.000659	6.588314	2.232181	0.000264
1962	1.9512e+02	-1.8593	-29.376218	0.000740	7.399184	2.506911	0.000296
1963	1.9522e+02	-1.8320	-29.121879	0.000639	6.385597	2.163499	0.000256
1964	1.9532e+02	-1.7871	-28.863502	0.000649	6.486956	2.197840	0.000260
1965	1.9542e+02	-1.7438	-28.653571	0.000527	5.270651	1.785745	0.000211
1966	1.9552e+02	-1.7213	-28.342711	0.000780	7.804618	2.644276	0.000312
1967	1.9562e+02	-1.6700	-28.088372	0.000639	6.385597	2.163499	0.000256
1968	1.9572e+02	-1.6315	-27.829995	0.000649	6.486956	2.197840	0.000260
1969	1.9582e+02	-1.5978	-27.547396	0.000710	7.095108	2.403888	0.000284
1970	1.9592e+02	-1.5497	-27.264796	0.000710	7.095108	2.403888	0.000284
1971	1.9601e+02	-1.5224	-27.066977	0.000497	4.966575	1.682721	0.000199
1972	1.9611e+02	-1.4775	-26.800526	0.000669	6.689673	2.266523	0.000268
1973	1.9621e+02	-1.4390	-26.513889	0.000720	7.196466	2.438229	0.000288
1974	1.9631e+02	-1.3828	-26.259549	0.000639	6.385597	2.163499	0.000256
1975	1.9641e+02	-1.3540	-26.005210	0.000639	6.385597	2.163499	0.000256
1976	1.9651e+02	-1.3091	-25.738759	0.000669	6.689673	2.266523	0.000268
1977	1.9661e+02	-1.2722	-25.492494	0.000618	6.182880	2.094816	0.000248
1978	1.9671e+02	-1.2240	-25.242191	0.000628	6.284238	2.129158	0.000252
1979	1.9681e+02	-1.1935	-24.955555	0.000720	7.196466	2.438229	0.000288
1980	1.9691e+02	-1.1502	-24.725438	0.000578	5.777445	1.957451	0.000231
1981	1.9701e+02	-1.1214	-24.471098	0.000639	6.385597	2.163499	0.000256
1982	1.9711e+02	-1.0748	-24.216759	0.000639	6.385597	2.163499	0.000256
1983	1.9721e+02	-1.0379	-23.946271	0.000679	6.791032	2.300864	0.000272
1984	1.9731e+02	-0.9898	-23.675783	0.000679	6.791032	2.300864	0.000272
1985	1.9741e+02	-0.9481	-23.393183	0.000710	7.095108	2.403888	0.000284
1986	1.9751e+02	-0.9080	-23.159029	0.000588	5.878804	1.991793	0.000235
1987	1.9761e+02	-0.8711	-22.876430	0.000710	7.095108	2.403888	0.000284
1988	1.9771e+02	-0.8358	-22.642276	0.000588	5.878804	1.991793	0.000235
1989	1.9781e+02	-0.7909	-22.339491	0.000760	7.601901	2.575594	0.000304
1990	1.9791e+02	-0.7540	-22.060928	0.000699	6.993749	2.369546	0.000280
1991	1.9800e+02	-0.7107	-21.830812	0.000578	5.777445	1.957451	0.000231
1992	1.9810e+02	-0.6642	-21.572435	0.000649	6.486956	2.197840	0.000260
1993	1.9820e+02	-0.6273	-21.289835	0.000710	7.095108	2.403888	0.000284
1994	1.9830e+02	-0.5920	-21.027421	0.000659	6.588314	2.232181	0.000264
1995	1.9840e+02	-0.5535	-20.760971	0.000669	6.689673	2.266523	0.000268
1996	1.9850e+02	-0.5150	-20.506631	0.000639	6.385597	2.163499	0.000256
1997	1.9860e+02	-0.4781	-20.288626	0.000547	5.473369	1.854428	0.000219
1998	1.9870e+02	-0.4428	-19.977766	0.000780	7.804618	2.644276	0.000312
1999	1.9880e+02	-0.4011	-19.711315	0.000669	6.689673	2.266523	0.000268
2000	1.9890e+02	-0.3545	-19.465050	0.000618	6.182880	2.094816	0.000248
2001	1.9900e+02	-0.3160	-19.174376	0.000730	7.297825	2.472570	0.000292
2002	1.9910e+02	-0.2839	-18.968482	0.000517	5.169293	1.751404	0.000207
2003	1.9920e+02	-0.2342	-18.641474	0.000821	8.210053	2.781641	0.000329
2004	1.9930e+02	-0.1957	-18.407320	0.000588	5.878804	1.991793	0.000235
2005	1.9940e+02	-0.1556	-18.161055	0.000618	6.182880	2.094816	0.000248
2006	1.9950e+02	-0.1091	-17.910753	0.000628	6.284238	2.129158	0.000252
2007	1.9960e+02	-0.0722	-17.632190	0.000699	6.993749	2.369546	0.000280
2008	1.9970e+02	-0.0385	-17.369777	0.000659	6.588314	2.232181	0.000264
2009	1.9980e+02	0.0048	-17.107363	0.000659	6.588314	2.232181	0.000264

PMax (uC/cm2):	1.29e+02
Pr (uC/cm2):	8.30e+00
-Pr (uC/cm2):	-1.07e+01
PLoss (uC/cm2):	-1.07e+01
-Vc:	-1.25e+00
C (Max-Eff) (nF):	6.44e-01
K (Eff):	2.18e+03
Vert. (+/-Pr) Shift (uC/cm2):	-1.20e+00
Offset (uC/cm2):	6.41e+00

A (Loop Area - uC/cm2·Volts):	1.83e-01



Hysteresis Version: 5.48.1 - Radiant Technologies, Inc., 1999 - 9/12/24

