»»»»»»»»»»»»»»»»»»»»»»»»»»»»»»»»»»»» Hysteresis ««««««««««««««««««««««««««««««««««««
»»»  Executed Version:	5.48.1
»»»  Vision Version:	5.48.4 (R)
»»»  Vision Compiled:	9/18/24
»»»  Driver Version:	5.47.0
»»»  Windows Version:	Windows 8 or 8.1
»»»  Processor Information:	x86 (AMD or Intel) - 32 Processors
»»»  Tester Name:	PMF21124-494 (100V)
»»»  Tester S/N:	PMF21124-494
»»»  Internal Amp Type:	100V RevK 270k
»»»  Internal Amp S/N:	iAB2-596/K     
»»»  Execution Count:	1
»»»»»»»»»»»»»»»»»»»»»»»»»»»»»»»»»»»»»»»»»»««««««««««««««««««««««««««««««««««««««««««

Stored:	6/18/2025 - 14:40:46
Configured:	06/18/25 09:47:30 AM
Executed:	06/18/25 02:40:06 PM

»»»»»»»»»»»»»»»»»»»»»»»»»»»»»»»»»»» Sample Info ««««««««««««««««««««««««««««««««««««
Sample Name:	
Lot Name:	
Wafer Name:	
Die Row/Column:	0/0
Capacitor Number:	0
Sample Area (cm2):	1.00e-04
Sample Thickness (microns):	3.00e-01

Amplifier:	Internal

»»»»»»»»»»»»»»»»»»»»»»»»»»»»»»»»»»» Tester Info «««««««««««««««««««««««««««««««««««
Tester Name:	PMF21124-494 (100V)
Tester Serial Number:	PMF21124-494
Return Signal Amp. Level:	0.19 [Index: 3]

»»»»»»»»»»»»»»»»»»»»»»»»»»»»»»»» Hysteresis Info ««««««««««««««««««««««««««««««««««
Task Name:	Hyst-554
Volts:	20.00
Field:	666.67 (kV/cm)
DCBias:	0.00
DCField:	0.00 (kV/cm)
Hysteresis Period (ms):	2.00e+02
Preset:	Enabled
Preset Delay (ms):	1.00e+03
Profile:	Standard Bipolar

»»»»»»»»»»»»»»»»»»»»»»»»»»»»»»»»»»»»»» Data «««««««««««««««««««««««««««««««««««««««
Points:	2009

Valid Data

Point	Time (ms)	Drive Voltage	Measured Polarization (uC/cm2)	Capacitance (uF)	Normalized Capacitance (uF/cm2)	Dielectric Constant	Instantaneous Current (mA)
   1	0.0000e+00	0.0080	-12.389970	0.000618	6.184616	2.095405	0.000248
   2	9.9500e-02	0.0321	-12.143704	0.000618	6.184616	2.095405	0.000248
   3	1.9900e-01	0.0690	-11.820733	0.000811	8.110972	2.748072	0.000325
   4	2.9850e-01	0.1155	-11.513911	0.000771	7.705424	2.610668	0.000308
   5	3.9800e-01	0.1668	-11.243423	0.000679	6.792939	2.301510	0.000272
   6	4.9750e-01	0.1989	-10.888155	0.000892	8.922069	3.022879	0.000357
   7	5.9700e-01	0.2246	-10.609593	0.000700	6.995713	2.370212	0.000280
   8	6.9650e-01	0.2791	-10.290659	0.000801	8.009585	2.713721	0.000321
   9	7.9600e-01	0.3096	-9.995948	0.000740	7.401262	2.507615	0.000296
  10	8.9550e-01	0.3545	-9.689126	0.000771	7.705424	2.610668	0.000308
  11	9.9500e-01	0.3995	-9.386341	0.000760	7.604036	2.576317	0.000304
  12	1.0945e+00	0.4380	-9.027036	0.000902	9.023457	3.057230	0.000361
  13	1.1940e+00	0.4781	-8.748473	0.000700	6.995713	2.370212	0.000280
  14	1.2935e+00	0.5182	-8.465874	0.000710	7.097101	2.404563	0.000284
  15	1.3930e+00	0.5583	-8.171163	0.000740	7.401262	2.507615	0.000296
  16	1.4925e+00	0.6000	-7.836080	0.000842	8.415134	2.851124	0.000337
  17	1.5920e+00	0.6385	-7.545407	0.000730	7.299875	2.473265	0.000292
  18	1.6915e+00	0.6754	-7.222436	0.000811	8.110972	2.748072	0.000325
  19	1.7910e+00	0.7075	-6.927725	0.000740	7.401262	2.507615	0.000296
  20	1.8905e+00	0.7508	-6.604754	0.000811	8.110972	2.748072	0.000325
  21	1.9900e+00	0.7973	-6.273709	0.000831	8.313746	2.816774	0.000333
  22	2.0895e+00	0.8326	-5.966887	0.000771	7.705424	2.610668	0.000308
  23	2.1890e+00	0.8775	-5.643916	0.000811	8.110972	2.748072	0.000325
  24	2.2885e+00	0.9160	-5.312871	0.000831	8.313746	2.816774	0.000333
  25	2.3880e+00	0.9577	-4.993937	0.000801	8.009585	2.713721	0.000321
  26	2.4875e+00	0.9946	-4.711337	0.000710	7.097101	2.404563	0.000284
  27	2.5870e+00	1.0299	-4.420664	0.000730	7.299875	2.473265	0.000292
  28	2.6865e+00	1.0748	-4.061359	0.000902	9.023457	3.057230	0.000361
  29	2.7860e+00	1.1069	-3.778759	0.000710	7.097101	2.404563	0.000284
  30	2.8855e+00	1.1534	-3.403305	0.000943	9.429005	3.194633	0.000377
  31	2.9850e+00	1.1935	-3.144929	0.000649	6.488778	2.198457	0.000260
  32	3.0845e+00	1.2337	-2.842144	0.000760	7.604036	2.576317	0.000304
  33	3.1840e+00	1.2722	-2.466690	0.000943	9.429005	3.194633	0.000377
  34	3.2835e+00	1.3074	-2.192165	0.000689	6.894326	2.335861	0.000276
  35	3.3830e+00	1.3540	-1.840934	0.000882	8.820682	2.988528	0.000353
  36	3.4825e+00	1.4021	-1.574483	0.000669	6.691552	2.267159	0.000268
  37	3.5820e+00	1.4310	-1.247475	0.000821	8.212359	2.782423	0.000329
  38	3.6815e+00	1.4599	-0.900281	0.000872	8.719295	2.954177	0.000349
  39	3.7810e+00	1.5048	-0.609607	0.000730	7.299875	2.473265	0.000292
  40	3.8805e+00	1.5529	-0.294711	0.000791	7.908198	2.679370	0.000316
  41	3.9800e+00	1.5834	0.052483	0.000872	8.719295	2.954177	0.000349
  42	4.0795e+00	1.6363	0.351231	0.000750	7.502649	2.541966	0.000300
  43	4.1790e+00	1.6668	0.662090	0.000781	7.806811	2.645019	0.000312
  44	4.2785e+00	1.7149	0.964875	0.000760	7.604036	2.576317	0.000304
  45	4.3780e+00	1.7502	1.299958	0.000842	8.415134	2.851124	0.000337
  46	4.4775e+00	1.7791	1.590631	0.000730	7.299875	2.473265	0.000292
  47	4.5770e+00	1.8385	1.962048	0.000933	9.327618	3.160283	0.000373
  48	4.6765e+00	1.8657	2.276945	0.000791	7.908198	2.679370	0.000316
  49	4.7760e+00	1.9106	2.587804	0.000781	7.806811	2.645019	0.000312
  50	4.8755e+00	1.9427	2.850218	0.000659	6.590165	2.232808	0.000264
  51	4.9750e+00	1.9812	3.181263	0.000831	8.313746	2.816774	0.000333
  52	5.0745e+00	2.0326	3.540568	0.000902	9.023457	3.057230	0.000361
  53	5.1740e+00	2.0695	3.867576	0.000821	8.212359	2.782423	0.000329
  54	5.2735e+00	2.1112	4.162287	0.000740	7.401262	2.507615	0.000296
  55	5.3730e+00	2.1481	4.557926	0.000994	9.935941	3.366388	0.000398
  56	5.4725e+00	2.1866	4.848600	0.000730	7.299875	2.473265	0.000292
  57	5.5720e+00	2.2299	5.098902	0.000629	6.286003	2.129756	0.000252
  58	5.6715e+00	2.2604	5.466282	0.000923	9.226231	3.125932	0.000369
  59	5.7710e+00	2.3069	5.829624	0.000912	9.124844	3.091581	0.000365
  60	5.8705e+00	2.3534	6.124335	0.000740	7.401262	2.507615	0.000296
  61	5.9700e+00	2.3919	6.463454	0.000852	8.516521	2.885475	0.000341
  62	6.0695e+00	2.4256	6.802574	0.000852	8.516521	2.885475	0.000341
  63	6.1690e+00	2.4577	7.145730	0.000862	8.617908	2.919826	0.000345
  64	6.2685e+00	2.5122	7.428330	0.000710	7.097101	2.404563	0.000284
  65	6.3680e+00	2.5443	7.807821	0.000953	9.530392	3.228984	0.000381
  66	6.4675e+00	2.5956	8.078309	0.000679	6.792939	2.301510	0.000272
  67	6.5670e+00	2.6277	8.457799	0.000953	9.530392	3.228984	0.000381
  68	6.6665e+00	2.6630	8.752510	0.000740	7.401262	2.507615	0.000296
  69	6.7660e+00	2.7079	9.067407	0.000791	7.908198	2.679370	0.000316
  70	6.8655e+00	2.7464	9.398452	0.000831	8.313746	2.816774	0.000333
  71	6.9650e+00	2.7866	9.737571	0.000852	8.516521	2.885475	0.000341
  72	7.0645e+00	2.8267	10.064579	0.000821	8.212359	2.782423	0.000329
  73	7.1640e+00	2.8668	10.403699	0.000852	8.516521	2.885475	0.000341
  74	7.2635e+00	2.9069	10.706484	0.000760	7.604036	2.576317	0.000304
  75	7.3630e+00	2.9357	11.065789	0.000902	9.023457	3.057230	0.000361
  76	7.4625e+00	2.9855	11.380686	0.000791	7.908198	2.679370	0.000316
  77	7.5620e+00	3.0304	11.715768	0.000842	8.415134	2.851124	0.000337
  78	7.6615e+00	3.0673	12.075073	0.000902	9.023457	3.057230	0.000361
  79	7.7610e+00	3.1074	12.357672	0.000710	7.097101	2.404563	0.000284
  80	7.8605e+00	3.1475	12.765423	0.001024	10.240102	3.469441	0.000410
  81	7.9600e+00	3.1828	13.068208	0.000760	7.604036	2.576317	0.000304
  82	8.0595e+00	3.2277	13.431551	0.000912	9.124844	3.091581	0.000365
  83	8.1590e+00	3.2694	13.726262	0.000740	7.401262	2.507615	0.000296
  84	8.2585e+00	3.3159	14.049232	0.000811	8.110972	2.748072	0.000325
  85	8.3580e+00	3.3448	14.376240	0.000821	8.212359	2.782423	0.000329
  86	8.4575e+00	3.3881	14.662877	0.000720	7.198488	2.438914	0.000288
  87	8.5570e+00	3.4298	15.010071	0.000872	8.719295	2.954177	0.000349
  88	8.6565e+00	3.4651	15.341116	0.000831	8.313746	2.816774	0.000333
  89	8.7560e+00	3.5133	15.760978	0.001054	10.544264	3.572493	0.000422
  90	8.8555e+00	3.5421	16.007243	0.000618	6.184616	2.095405	0.000248
  91	8.9550e+00	3.5774	16.330214	0.000811	8.110972	2.748072	0.000325
  92	9.0545e+00	3.6240	16.697593	0.000923	9.226231	3.125932	0.000369
  93	9.1540e+00	3.6641	17.032676	0.000842	8.415134	2.851124	0.000337
  94	9.2535e+00	3.6962	17.307201	0.000689	6.894326	2.335861	0.000276
  95	9.3530e+00	3.7379	17.698803	0.000983	9.834554	3.332037	0.000394
  96	9.4525e+00	3.7796	18.029848	0.000831	8.313746	2.816774	0.000333
  97	9.5520e+00	3.8245	18.413376	0.000963	9.631779	3.263335	0.000385
  98	9.6515e+00	3.8598	18.720198	0.000771	7.705424	2.610668	0.000308
  99	9.7510e+00	3.9015	19.055281	0.000842	8.415134	2.851124	0.000337
 100	9.8505e+00	3.9400	19.349992	0.000740	7.401262	2.507615	0.000296
 101	9.9500e+00	3.9785	19.660851	0.000781	7.806811	2.645019	0.000312
 102	1.0050e+01	4.0266	19.979785	0.000801	8.009585	2.713721	0.000321
 103	1.0149e+01	4.0619	20.335053	0.000892	8.922069	3.022879	0.000357
 104	1.0248e+01	4.1020	20.633801	0.000750	7.502649	2.541966	0.000300
 105	1.0348e+01	4.1405	20.976957	0.000862	8.617908	2.919826	0.000345
 106	1.0447e+01	4.1806	21.299928	0.000811	8.110972	2.748072	0.000325
 107	1.0547e+01	4.2127	21.643085	0.000862	8.617908	2.919826	0.000345
 108	1.0646e+01	4.2657	21.962018	0.000801	8.009585	2.713721	0.000321
 109	1.0746e+01	4.3074	22.301138	0.000852	8.516521	2.885475	0.000341
 110	1.0845e+01	4.3443	22.692740	0.000983	9.834554	3.332037	0.000394
 111	1.0945e+01	4.3699	23.019748	0.000821	8.212359	2.782423	0.000329
 112	1.1044e+01	4.4084	23.330607	0.000781	7.806811	2.645019	0.000312
 113	1.1144e+01	4.4614	23.661653	0.000831	8.313746	2.816774	0.000333
 114	1.1243e+01	4.4983	24.012883	0.000882	8.820682	2.988528	0.000353
 115	1.1343e+01	4.5304	24.343929	0.000831	8.313746	2.816774	0.000333
 116	1.1443e+01	4.5721	24.707271	0.000912	9.124844	3.091581	0.000365
 117	1.1542e+01	4.6218	25.046390	0.000852	8.516521	2.885475	0.000341
 118	1.1642e+01	4.6603	25.337064	0.000730	7.299875	2.473265	0.000292
 119	1.1741e+01	4.6972	25.700406	0.000912	9.124844	3.091581	0.000365
 120	1.1841e+01	4.7421	26.015303	0.000791	7.908198	2.679370	0.000316
 121	1.1940e+01	4.7774	26.342311	0.000821	8.212359	2.782423	0.000329
 122	1.2040e+01	4.8191	26.673356	0.000831	8.313746	2.816774	0.000333
 123	1.2139e+01	4.8624	27.016512	0.000862	8.617908	2.919826	0.000345
 124	1.2239e+01	4.9025	27.371780	0.000892	8.922069	3.022879	0.000357
 125	1.2338e+01	4.9282	27.666491	0.000740	7.401262	2.507615	0.000296
 126	1.2438e+01	4.9747	28.045982	0.000953	9.530392	3.228984	0.000381
 127	1.2537e+01	5.0148	28.360879	0.000791	7.908198	2.679370	0.000316
 128	1.2636e+01	5.0581	28.695961	0.000842	8.415134	2.851124	0.000337
 129	1.2736e+01	5.0999	29.006820	0.000781	7.806811	2.645019	0.000312
 130	1.2835e+01	5.1368	29.362088	0.000892	8.922069	3.022879	0.000357
 131	1.2935e+01	5.1737	29.737542	0.000943	9.429005	3.194633	0.000377
 132	1.3034e+01	5.2170	30.044364	0.000771	7.705424	2.610668	0.000308
 133	1.3134e+01	5.2619	30.407706	0.000912	9.124844	3.091581	0.000365
 134	1.3233e+01	5.2908	30.754900	0.000872	8.719295	2.954177	0.000349
 135	1.3333e+01	5.3277	31.053648	0.000750	7.502649	2.541966	0.000300
 136	1.3432e+01	5.3774	31.380656	0.000821	8.212359	2.782423	0.000329
 137	1.3532e+01	5.4159	31.743998	0.000912	9.124844	3.091581	0.000365
 138	1.3632e+01	5.4576	32.087155	0.000862	8.617908	2.919826	0.000345
 139	1.3731e+01	5.4913	32.434349	0.000872	8.719295	2.954177	0.000349
 140	1.3831e+01	5.5362	32.745208	0.000781	7.806811	2.645019	0.000312
 141	1.3930e+01	5.5763	33.096439	0.000882	8.820682	2.988528	0.000353
 142	1.4030e+01	5.6132	33.399224	0.000760	7.604036	2.576317	0.000304
 143	1.4129e+01	5.6581	33.742380	0.000862	8.617908	2.919826	0.000345
 144	1.4229e+01	5.6886	34.101686	0.000902	9.023457	3.057230	0.000361
 145	1.4328e+01	5.7448	34.416582	0.000791	7.908198	2.679370	0.000316
 146	1.4428e+01	5.7656	34.763776	0.000872	8.719295	2.954177	0.000349
 147	1.4527e+01	5.8234	35.106932	0.000862	8.617908	2.919826	0.000345
 148	1.4627e+01	5.8571	35.413755	0.000771	7.705424	2.610668	0.000308
 149	1.4726e+01	5.8907	35.813431	0.001004	10.037328	3.400739	0.000402
 150	1.4825e+01	5.9389	36.104105	0.000730	7.299875	2.473265	0.000292
 151	1.4925e+01	5.9774	36.406890	0.000760	7.604036	2.576317	0.000304
 152	1.5024e+01	6.0143	36.701601	0.000740	7.401262	2.507615	0.000296
 153	1.5124e+01	6.0512	37.093203	0.000983	9.834554	3.332037	0.000394
 154	1.5223e+01	6.0977	37.416174	0.000811	8.110972	2.748072	0.000325
 155	1.5323e+01	6.1394	37.767405	0.000882	8.820682	2.988528	0.000353
 156	1.5422e+01	6.1715	38.066153	0.000750	7.502649	2.541966	0.000300
 157	1.5522e+01	6.2100	38.421421	0.000892	8.922069	3.022879	0.000357
 158	1.5621e+01	6.2421	38.784763	0.000912	9.124844	3.091581	0.000365
 159	1.5721e+01	6.3014	39.099660	0.000791	7.908198	2.679370	0.000316
 160	1.5820e+01	6.3271	39.414556	0.000791	7.908198	2.679370	0.000316
 161	1.5920e+01	6.3768	39.761750	0.000872	8.719295	2.954177	0.000349
 162	1.6020e+01	6.4089	40.084721	0.000811	8.110972	2.748072	0.000325
 163	1.6119e+01	6.4506	40.407692	0.000811	8.110972	2.748072	0.000325
 164	1.6218e+01	6.4843	40.754885	0.000872	8.719295	2.954177	0.000349
 165	1.6318e+01	6.5340	41.021336	0.000669	6.691552	2.267159	0.000268
 166	1.6418e+01	6.5725	41.400827	0.000953	9.530392	3.228984	0.000381
 167	1.6517e+01	6.6078	41.800503	0.001004	10.037328	3.400739	0.000402
 168	1.6616e+01	6.6544	42.103289	0.000760	7.604036	2.576317	0.000304
 169	1.6716e+01	6.6848	42.393962	0.000730	7.299875	2.473265	0.000292
 170	1.6816e+01	6.7314	42.716933	0.000811	8.110972	2.748072	0.000325
 171	1.6915e+01	6.7747	43.035867	0.000801	8.009585	2.713721	0.000321
 172	1.7015e+01	6.8036	43.383061	0.000872	8.719295	2.954177	0.000349
 173	1.7114e+01	6.8388	43.730254	0.000872	8.719295	2.954177	0.000349
 174	1.7213e+01	6.8918	44.057262	0.000821	8.212359	2.782423	0.000329
 175	1.7313e+01	6.9255	44.380233	0.000811	8.110972	2.748072	0.000325
 176	1.7413e+01	6.9640	44.711278	0.000831	8.313746	2.816774	0.000333
 177	1.7512e+01	7.0073	45.070583	0.000902	9.023457	3.057230	0.000361
 178	1.7611e+01	7.0442	45.349146	0.000700	6.995713	2.370212	0.000280
 179	1.7711e+01	7.0795	45.680191	0.000831	8.313746	2.816774	0.000333
 180	1.7811e+01	7.1164	46.051607	0.000933	9.327618	3.160283	0.000373
 181	1.7910e+01	7.1597	46.358430	0.000771	7.705424	2.610668	0.000308
 182	1.8009e+01	7.2062	46.673326	0.000791	7.908198	2.679370	0.000316
 183	1.8109e+01	7.2431	47.048780	0.000943	9.429005	3.194633	0.000377
 184	1.8209e+01	7.2848	47.383862	0.000842	8.415134	2.851124	0.000337
 185	1.8308e+01	7.3297	47.779501	0.000994	9.935941	3.366388	0.000398
 186	1.8407e+01	7.3731	48.066138	0.000720	7.198488	2.438914	0.000288
 187	1.8507e+01	7.4051	48.372960	0.000771	7.705424	2.610668	0.000308
 188	1.8607e+01	7.4436	48.651523	0.000700	6.995713	2.370212	0.000280
 189	1.8706e+01	7.4950	49.039088	0.000973	9.733167	3.297686	0.000390
 190	1.8805e+01	7.5271	49.378207	0.000852	8.516521	2.885475	0.000341
 191	1.8905e+01	7.5640	49.680992	0.000760	7.604036	2.576317	0.000304
 192	1.9005e+01	7.6025	50.003963	0.000811	8.110972	2.748072	0.000325
 193	1.9104e+01	7.6554	50.359231	0.000892	8.922069	3.022879	0.000357
 194	1.9203e+01	7.7035	50.662016	0.000760	7.604036	2.576317	0.000304
 195	1.9303e+01	7.7292	51.025359	0.000912	9.124844	3.091581	0.000365
 196	1.9402e+01	7.7581	51.291810	0.000669	6.691552	2.267159	0.000268
 197	1.9502e+01	7.8046	51.659189	0.000923	9.226231	3.125932	0.000369
 198	1.9602e+01	7.8415	51.957937	0.000750	7.502649	2.541966	0.000300
 199	1.9701e+01	7.8848	52.305131	0.000872	8.719295	2.954177	0.000349
 200	1.9800e+01	7.9137	52.624064	0.000801	8.009585	2.713721	0.000321
 201	1.9900e+01	7.9618	52.963184	0.000852	8.516521	2.885475	0.000341
 202	2.0000e+01	7.9971	53.278080	0.000791	7.908198	2.679370	0.000316
 203	2.0099e+01	8.0532	53.609125	0.000831	8.313746	2.816774	0.000333
 204	2.0198e+01	8.0805	53.919985	0.000781	7.806811	2.645019	0.000312
 205	2.0298e+01	8.1190	54.230844	0.000781	7.806811	2.645019	0.000312
 206	2.0398e+01	8.1639	54.553815	0.000811	8.110972	2.748072	0.000325
 207	2.0497e+01	8.2089	54.909083	0.000892	8.922069	3.022879	0.000357
 208	2.0596e+01	8.2393	55.179571	0.000679	6.792939	2.301510	0.000272
 209	2.0696e+01	8.2810	55.526765	0.000872	8.719295	2.954177	0.000349
 210	2.0796e+01	8.3260	55.882033	0.000892	8.922069	3.022879	0.000357
 211	2.0895e+01	8.3661	56.188855	0.000771	7.705424	2.610668	0.000308
 212	2.0994e+01	8.4046	56.527975	0.000852	8.516521	2.885475	0.000341
 213	2.1094e+01	8.4415	56.810574	0.000710	7.097101	2.404563	0.000284
 214	2.1194e+01	8.4832	57.149694	0.000852	8.516521	2.885475	0.000341
 215	2.1293e+01	8.5233	57.480739	0.000831	8.313746	2.816774	0.000333
 216	2.1392e+01	8.5570	57.819858	0.000852	8.516521	2.885475	0.000341
 217	2.1492e+01	8.5987	58.106495	0.000720	7.198488	2.438914	0.000288
 218	2.1591e+01	8.6404	58.457725	0.000882	8.820682	2.988528	0.000353
 219	2.1691e+01	8.6773	58.740325	0.000710	7.097101	2.404563	0.000284
 220	2.1791e+01	8.7174	59.091556	0.000882	8.820682	2.988528	0.000353
 221	2.1890e+01	8.7703	59.426638	0.000842	8.415134	2.851124	0.000337
 222	2.1989e+01	8.7976	59.709238	0.000710	7.097101	2.404563	0.000284
 223	2.2089e+01	8.8506	60.064506	0.000892	8.922069	3.022879	0.000357
 224	2.2189e+01	8.8826	60.395551	0.000831	8.313746	2.816774	0.000333
 225	2.2288e+01	8.9163	60.718522	0.000811	8.110972	2.748072	0.000325
 226	2.2387e+01	8.9580	61.017270	0.000750	7.502649	2.541966	0.000300
 227	2.2487e+01	8.9997	61.320055	0.000760	7.604036	2.576317	0.000304
 228	2.2587e+01	9.0366	61.699545	0.000953	9.530392	3.228984	0.000381
 229	2.2686e+01	9.0767	61.986182	0.000720	7.198488	2.438914	0.000288
 230	2.2785e+01	9.1281	62.313190	0.000821	8.212359	2.782423	0.000329
 231	2.2885e+01	9.1570	62.615975	0.000760	7.604036	2.576317	0.000304
 232	2.2985e+01	9.1939	62.979318	0.000912	9.124844	3.091581	0.000365
 233	2.3084e+01	9.2452	63.261917	0.000710	7.097101	2.404563	0.000284
 234	2.3183e+01	9.2709	63.596999	0.000842	8.415134	2.851124	0.000337
 235	2.3283e+01	9.3174	63.924007	0.000821	8.212359	2.782423	0.000329
 236	2.3383e+01	9.3623	64.255052	0.000831	8.313746	2.816774	0.000333
 237	2.3482e+01	9.3944	64.586098	0.000831	8.313746	2.816774	0.000333
 238	2.3581e+01	9.4425	64.884846	0.000750	7.502649	2.541966	0.000300
 239	2.3681e+01	9.4746	65.240114	0.000892	8.922069	3.022879	0.000357
 240	2.3780e+01	9.5147	65.494453	0.000639	6.387391	2.164107	0.000256
 241	2.3880e+01	9.5596	65.809350	0.000791	7.908198	2.679370	0.000316
 242	2.3980e+01	9.6094	66.164618	0.000892	8.922069	3.022879	0.000357
 243	2.4079e+01	9.6430	66.467403	0.000760	7.604036	2.576317	0.000304
 244	2.4178e+01	9.6767	66.774225	0.000771	7.705424	2.610668	0.000308
 245	2.4278e+01	9.7136	67.085085	0.000781	7.806811	2.645019	0.000312
 246	2.4378e+01	9.7569	67.460538	0.000943	9.429005	3.194633	0.000377
 247	2.4477e+01	9.7987	67.767360	0.000771	7.705424	2.610668	0.000308
 248	2.4576e+01	9.8339	68.045923	0.000700	6.995713	2.370212	0.000280
 249	2.4676e+01	9.8708	68.360819	0.000791	7.908198	2.679370	0.000316
 250	2.4776e+01	9.9222	68.683790	0.000811	8.110972	2.748072	0.000325
 251	2.4875e+01	9.9543	68.978501	0.000740	7.401262	2.507615	0.000296
 252	2.4974e+01	9.9944	69.349918	0.000933	9.327618	3.160283	0.000373
 253	2.5074e+01	10.0393	69.612332	0.000659	6.590165	2.232808	0.000264
 254	2.5174e+01	10.0778	69.987785	0.000943	9.429005	3.194633	0.000377
 255	2.5273e+01	10.1163	70.270385	0.000710	7.097101	2.404563	0.000284
 256	2.5372e+01	10.1532	70.633727	0.000912	9.124844	3.091581	0.000365
 257	2.5472e+01	10.1981	70.932475	0.000750	7.502649	2.541966	0.000300
 258	2.5572e+01	10.2350	71.223149	0.000730	7.299875	2.473265	0.000292
 259	2.5671e+01	10.2783	71.542082	0.000801	8.009585	2.713721	0.000321
 260	2.5770e+01	10.3216	71.861016	0.000801	8.009585	2.713721	0.000321
 261	2.5870e+01	10.3521	72.143616	0.000710	7.097101	2.404563	0.000284
 262	2.5970e+01	10.3922	72.438327	0.000740	7.401262	2.507615	0.000296
 263	2.6069e+01	10.4339	72.789557	0.000882	8.820682	2.988528	0.000353
 264	2.6169e+01	10.4676	73.120602	0.000831	8.313746	2.816774	0.000333
 265	2.6268e+01	10.5174	73.463759	0.000862	8.617908	2.919826	0.000345
 266	2.6367e+01	10.5623	73.746359	0.000710	7.097101	2.404563	0.000284
 267	2.6467e+01	10.5879	74.020884	0.000689	6.894326	2.335861	0.000276
 268	2.6567e+01	10.6345	74.388263	0.000923	9.226231	3.125932	0.000369
 269	2.6666e+01	10.6762	74.654714	0.000669	6.691552	2.267159	0.000268
 270	2.6765e+01	10.7195	74.997871	0.000862	8.617908	2.919826	0.000345
 271	2.6865e+01	10.7516	75.324879	0.000821	8.212359	2.782423	0.000329
 272	2.6965e+01	10.7997	75.639775	0.000791	7.908198	2.679370	0.000316
 273	2.7064e+01	10.8382	75.950635	0.000781	7.806811	2.645019	0.000312
 274	2.7163e+01	10.8735	76.277643	0.000821	8.212359	2.782423	0.000329
 275	2.7263e+01	10.9136	76.588502	0.000781	7.806811	2.645019	0.000312
 276	2.7363e+01	10.9569	76.903399	0.000791	7.908198	2.679370	0.000316
 277	2.7462e+01	11.0018	77.198110	0.000740	7.401262	2.507615	0.000296
 278	2.7561e+01	11.0435	77.468598	0.000679	6.792939	2.301510	0.000272
 279	2.7661e+01	11.0580	77.807717	0.000852	8.516521	2.885475	0.000341
 280	2.7761e+01	11.1205	78.122614	0.000791	7.908198	2.679370	0.000316
 281	2.7860e+01	11.1494	78.405213	0.000710	7.097101	2.404563	0.000284
 282	2.7959e+01	11.1927	78.756444	0.000882	8.820682	2.988528	0.000353
 283	2.8059e+01	11.2248	79.059229	0.000760	7.604036	2.576317	0.000304
 284	2.8159e+01	11.2633	79.386237	0.000821	8.212359	2.782423	0.000329
 285	2.8258e+01	11.3114	79.697097	0.000781	7.806811	2.645019	0.000312
 286	2.8358e+01	11.3451	80.024105	0.000821	8.212359	2.782423	0.000329
 287	2.8457e+01	11.3917	80.330927	0.000771	7.705424	2.610668	0.000308
 288	2.8556e+01	11.4318	80.657935	0.000821	8.212359	2.782423	0.000329
 289	2.8656e+01	11.4735	80.976869	0.000801	8.009585	2.713721	0.000321
 290	2.8756e+01	11.5104	81.324062	0.000872	8.719295	2.954177	0.000349
 291	2.8855e+01	11.5505	81.647033	0.000811	8.110972	2.748072	0.000325
 292	2.8954e+01	11.5970	81.933670	0.000720	7.198488	2.438914	0.000288
 293	2.9054e+01	11.6371	82.260678	0.000821	8.212359	2.782423	0.000329
 294	2.9154e+01	11.6676	82.583649	0.000811	8.110972	2.748072	0.000325
 295	2.9253e+01	11.7221	82.886434	0.000760	7.604036	2.576317	0.000304
 296	2.9352e+01	11.7558	83.136736	0.000629	6.286003	2.129756	0.000252
 297	2.9452e+01	11.7863	83.455670	0.000801	8.009585	2.713721	0.000321
 298	2.9552e+01	11.8328	83.814975	0.000902	9.023457	3.057230	0.000361
 299	2.9651e+01	11.8697	84.125835	0.000781	7.806811	2.645019	0.000312
 300	2.9750e+01	11.9194	84.424583	0.000750	7.502649	2.541966	0.000300
 301	2.9850e+01	11.9531	84.727368	0.000760	7.604036	2.576317	0.000304
 302	2.9950e+01	11.9884	85.022079	0.000740	7.401262	2.507615	0.000296
 303	3.0049e+01	12.0269	85.381384	0.000902	9.023457	3.057230	0.000361
 304	3.0148e+01	12.0686	85.659946	0.000700	6.995713	2.370212	0.000280
 305	3.0248e+01	12.1023	86.015214	0.000892	8.922069	3.022879	0.000357
 306	3.0348e+01	12.1456	86.305888	0.000730	7.299875	2.473265	0.000292
 307	3.0447e+01	12.1841	86.640970	0.000842	8.415134	2.851124	0.000337
 308	3.0547e+01	12.2339	86.947792	0.000771	7.705424	2.610668	0.000308
 309	3.0646e+01	12.2676	87.290949	0.000862	8.617908	2.919826	0.000345
 310	3.0745e+01	12.3157	87.646217	0.000892	8.922069	3.022879	0.000357
 311	3.0845e+01	12.3430	87.932854	0.000720	7.198488	2.438914	0.000288
 312	3.0945e+01	12.3879	88.243713	0.000781	7.806811	2.645019	0.000312
 313	3.1044e+01	12.4344	88.570721	0.000821	8.212359	2.782423	0.000329
 314	3.1143e+01	12.4809	88.853320	0.000710	7.097101	2.404563	0.000284
 315	3.1243e+01	12.5146	89.071326	0.000547	5.474906	1.854948	0.000219
 316	3.1343e+01	12.5563	89.414482	0.000862	8.617908	2.919826	0.000345
 317	3.1442e+01	12.5964	89.721305	0.000771	7.705424	2.610668	0.000308
 318	3.1541e+01	12.6253	90.032164	0.000781	7.806811	2.645019	0.000312
 319	3.1641e+01	12.6622	90.347061	0.000791	7.908198	2.679370	0.000316
 320	3.1741e+01	12.7071	90.649846	0.000760	7.604036	2.576317	0.000304
 321	3.1840e+01	12.7601	90.988965	0.000852	8.516521	2.885475	0.000341
 322	3.1939e+01	12.7825	91.295788	0.000771	7.705424	2.610668	0.000308
 323	3.2039e+01	12.8210	91.570313	0.000689	6.894326	2.335861	0.000276
 324	3.2139e+01	12.8595	91.925581	0.000892	8.922069	3.022879	0.000357
 325	3.2238e+01	12.9093	92.256626	0.000831	8.313746	2.816774	0.000333
 326	3.2337e+01	12.9446	92.535188	0.000700	6.995713	2.370212	0.000280
 327	3.2437e+01	12.9831	92.842011	0.000771	7.705424	2.610668	0.000308
 328	3.2536e+01	13.0183	93.173056	0.000831	8.313746	2.816774	0.000333
 329	3.2636e+01	13.0633	93.508138	0.000842	8.415134	2.851124	0.000337
 330	3.2736e+01	13.0970	93.810923	0.000760	7.604036	2.576317	0.000304
 331	3.2835e+01	13.1467	94.125820	0.000791	7.908198	2.679370	0.000316
 332	3.2934e+01	13.1820	94.416494	0.000730	7.299875	2.473265	0.000292
 333	3.3034e+01	13.2205	94.642573	0.000568	5.677681	1.923650	0.000227
 334	3.3133e+01	13.2558	94.965544	0.000811	8.110972	2.748072	0.000325
 335	3.3233e+01	13.3135	95.272366	0.000771	7.705424	2.610668	0.000308
 336	3.3333e+01	13.3392	95.546892	0.000689	6.894326	2.335861	0.000276
 337	3.3432e+01	13.3857	95.865825	0.000801	8.009585	2.713721	0.000321
 338	3.3532e+01	13.4226	96.196870	0.000831	8.313746	2.816774	0.000333
 339	3.3631e+01	13.4547	96.499656	0.000760	7.604036	2.576317	0.000304
 340	3.3730e+01	13.4980	96.806478	0.000771	7.705424	2.610668	0.000308
 341	3.3830e+01	13.5397	97.101189	0.000740	7.401262	2.507615	0.000296
 342	3.3929e+01	13.5830	97.464531	0.000912	9.124844	3.091581	0.000365
 343	3.4029e+01	13.6215	97.743093	0.000700	6.995713	2.370212	0.000280
 344	3.4129e+01	13.6552	98.102398	0.000902	9.023457	3.057230	0.000361
 345	3.4228e+01	13.6969	98.401146	0.000750	7.502649	2.541966	0.000300
 346	3.4328e+01	13.7274	98.712006	0.000781	7.806811	2.645019	0.000312
 347	3.4427e+01	13.7772	99.002680	0.000730	7.299875	2.473265	0.000292
 348	3.4526e+01	13.8333	99.297391	0.000740	7.401262	2.507615	0.000296
 349	3.4626e+01	13.8558	99.600176	0.000760	7.604036	2.576317	0.000304
 350	3.4725e+01	13.8975	99.854515	0.000639	6.387391	2.164107	0.000256
 351	3.4825e+01	13.9344	100.205746	0.000882	8.820682	2.988528	0.000353
 352	3.4925e+01	13.9793	100.504494	0.000750	7.502649	2.541966	0.000300
 353	3.5024e+01	14.0226	100.787094	0.000710	7.097101	2.404563	0.000284
 354	3.5123e+01	14.0627	101.065656	0.000700	6.995713	2.370212	0.000280
 355	3.5223e+01	14.1044	101.428998	0.000912	9.124844	3.091581	0.000365
 356	3.5322e+01	14.1349	101.699486	0.000679	6.792939	2.301510	0.000272
 357	3.5422e+01	14.1798	102.034569	0.000842	8.415134	2.851124	0.000337
 358	3.5522e+01	14.2135	102.288908	0.000639	6.387391	2.164107	0.000256
 359	3.5621e+01	14.2536	102.619953	0.000831	8.313746	2.816774	0.000333
 360	3.5721e+01	14.2969	102.926776	0.000771	7.705424	2.610668	0.000308
 361	3.5820e+01	14.3515	103.290118	0.000912	9.124844	3.091581	0.000365
 362	3.5919e+01	14.3755	103.584829	0.000740	7.401262	2.507615	0.000296
 363	3.6019e+01	14.4269	103.851280	0.000669	6.691552	2.267159	0.000268
 364	3.6118e+01	14.4525	104.158102	0.000771	7.705424	2.610668	0.000308
 365	3.6218e+01	14.5007	104.440702	0.000710	7.097101	2.404563	0.000284
 366	3.6318e+01	14.5424	104.743487	0.000760	7.604036	2.576317	0.000304
 367	3.6417e+01	14.5745	105.009938	0.000669	6.691552	2.267159	0.000268
 368	3.6517e+01	14.6194	105.300611	0.000730	7.299875	2.473265	0.000292
 369	3.6616e+01	14.6515	105.591285	0.000730	7.299875	2.473265	0.000292
 370	3.6715e+01	14.6980	105.894070	0.000760	7.604036	2.576317	0.000304
 371	3.6815e+01	14.7253	106.188781	0.000740	7.401262	2.507615	0.000296
 372	3.6914e+01	14.7814	106.487529	0.000750	7.502649	2.541966	0.000300
 373	3.7014e+01	14.8119	106.802426	0.000791	7.908198	2.679370	0.000316
 374	3.7114e+01	14.8552	107.125397	0.000811	8.110972	2.748072	0.000325
 375	3.7213e+01	14.8969	107.387811	0.000659	6.590165	2.232808	0.000264
 376	3.7313e+01	14.9370	107.694633	0.000771	7.705424	2.610668	0.000308
 377	3.7412e+01	14.9787	107.997418	0.000760	7.604036	2.576317	0.000304
 378	3.7511e+01	15.0156	108.320389	0.000811	8.110972	2.748072	0.000325
 379	3.7611e+01	15.0573	108.598951	0.000700	6.995713	2.370212	0.000280
 380	3.7711e+01	15.1006	108.905774	0.000771	7.705424	2.610668	0.000308
 381	3.7810e+01	15.1359	109.208559	0.000760	7.604036	2.576317	0.000304
 382	3.7910e+01	15.1776	109.523455	0.000791	7.908198	2.679370	0.000316
 383	3.8009e+01	15.2113	109.785869	0.000659	6.590165	2.232808	0.000264
 384	3.8108e+01	15.2579	110.032135	0.000618	6.184616	2.095405	0.000248
 385	3.8208e+01	15.2996	110.306660	0.000689	6.894326	2.335861	0.000276
 386	3.8307e+01	15.3349	110.625593	0.000801	8.009585	2.713721	0.000321
 387	3.8407e+01	15.3798	110.896082	0.000679	6.792939	2.301510	0.000272
 388	3.8507e+01	15.4231	111.210978	0.000791	7.908198	2.679370	0.000316
 389	3.8606e+01	15.4584	111.509726	0.000750	7.502649	2.541966	0.000300
 390	3.8706e+01	15.5033	111.792326	0.000710	7.097101	2.404563	0.000284
 391	3.8805e+01	15.5418	112.091074	0.000750	7.502649	2.541966	0.000300
 392	3.8904e+01	15.5707	112.397896	0.000771	7.705424	2.610668	0.000308
 393	3.9004e+01	15.6156	112.684533	0.000720	7.198488	2.438914	0.000288
 394	3.9103e+01	15.6509	112.942909	0.000649	6.488778	2.198457	0.000260
 395	3.9203e+01	15.6958	113.294140	0.000882	8.820682	2.988528	0.000353
 396	3.9303e+01	15.7423	113.580777	0.000720	7.198488	2.438914	0.000288
 397	3.9402e+01	15.7792	113.903748	0.000811	8.110972	2.748072	0.000325
 398	3.9502e+01	15.8081	114.210570	0.000771	7.705424	2.610668	0.000308
 399	3.9601e+01	15.8482	114.497207	0.000720	7.198488	2.438914	0.000288
 400	3.9700e+01	15.8899	114.799992	0.000760	7.604036	2.576317	0.000304
 401	3.9800e+01	15.9381	115.058369	0.000649	6.488778	2.198457	0.000260
 402	3.9900e+01	15.9605	115.276374	0.000547	5.474906	1.854948	0.000219
 403	3.9999e+01	16.0151	115.583196	0.000771	7.705424	2.610668	0.000308
 404	4.0099e+01	16.0487	115.861759	0.000700	6.995713	2.370212	0.000280
 405	4.0198e+01	16.0905	116.136284	0.000689	6.894326	2.335861	0.000276
 406	4.0297e+01	16.1338	116.443106	0.000771	7.705424	2.610668	0.000308
 407	4.0397e+01	16.1578	116.733780	0.000730	7.299875	2.473265	0.000292
 408	4.0496e+01	16.2092	117.008305	0.000689	6.894326	2.335861	0.000276
 409	4.0596e+01	16.2493	117.335313	0.000821	8.212359	2.782423	0.000329
 410	4.0696e+01	16.2894	117.630024	0.000740	7.401262	2.507615	0.000296
 411	4.0795e+01	16.3263	117.916661	0.000720	7.198488	2.438914	0.000288
 412	4.0895e+01	16.3728	118.179074	0.000659	6.590165	2.232808	0.000264
 413	4.0994e+01	16.4161	118.485897	0.000771	7.705424	2.610668	0.000308
 414	4.1093e+01	16.4578	118.812905	0.000821	8.212359	2.782423	0.000329
 415	4.1193e+01	16.4915	119.063207	0.000629	6.286003	2.129756	0.000252
 416	4.1292e+01	16.5300	119.402327	0.000852	8.516521	2.885475	0.000341
 417	4.1392e+01	16.5637	119.697037	0.000740	7.401262	2.507615	0.000296
 418	4.1492e+01	16.6102	120.011934	0.000791	7.908198	2.679370	0.000316
 419	4.1591e+01	16.6487	120.282422	0.000679	6.792939	2.301510	0.000272
 420	4.1691e+01	16.6936	120.544836	0.000659	6.590165	2.232808	0.000264
 421	4.1790e+01	16.7305	120.778990	0.000588	5.880455	1.992352	0.000235
 422	4.1889e+01	16.7706	121.069664	0.000730	7.299875	2.473265	0.000292
 423	4.1989e+01	16.8156	121.336115	0.000669	6.691552	2.267159	0.000268
 424	4.2089e+01	16.8428	121.602566	0.000669	6.691552	2.267159	0.000268
 425	4.2188e+01	16.8910	121.925536	0.000811	8.110972	2.748072	0.000325
 426	4.2288e+01	16.9231	122.204099	0.000700	6.995713	2.370212	0.000280
 427	4.2387e+01	16.9616	122.462475	0.000649	6.488778	2.198457	0.000260
 428	4.2486e+01	17.0065	122.749112	0.000720	7.198488	2.438914	0.000288
 429	4.2586e+01	17.0386	123.039786	0.000730	7.299875	2.473265	0.000292
 430	4.2685e+01	17.0867	123.346608	0.000771	7.705424	2.610668	0.000308
 431	4.2785e+01	17.1268	123.625171	0.000700	6.995713	2.370212	0.000280
 432	4.2885e+01	17.1701	123.919881	0.000740	7.401262	2.507615	0.000296
 433	4.2984e+01	17.2134	124.202481	0.000710	7.097101	2.404563	0.000284
 434	4.3084e+01	17.2455	124.509303	0.000771	7.705424	2.610668	0.000308
 435	4.3183e+01	17.2792	124.783829	0.000689	6.894326	2.335861	0.000276
 436	4.3282e+01	17.3193	125.078539	0.000740	7.401262	2.507615	0.000296
 437	4.3382e+01	17.3642	125.344990	0.000669	6.691552	2.267159	0.000268
 438	4.3481e+01	17.4091	125.619516	0.000689	6.894326	2.335861	0.000276
 439	4.3581e+01	17.4476	125.865781	0.000618	6.184616	2.095405	0.000248
 440	4.3681e+01	17.4861	126.148380	0.000710	7.097101	2.404563	0.000284
 441	4.3780e+01	17.5278	126.426943	0.000700	6.995713	2.370212	0.000280
 442	4.3880e+01	17.5663	126.725691	0.000750	7.502649	2.541966	0.000300
 443	4.3979e+01	17.6016	127.036550	0.000781	7.806811	2.645019	0.000312
 444	4.4078e+01	17.6466	127.242444	0.000517	5.170745	1.751896	0.000207
 445	4.4178e+01	17.6851	127.537155	0.000740	7.401262	2.507615	0.000296
 446	4.4278e+01	17.7268	127.783420	0.000618	6.184616	2.095405	0.000248
 447	4.4377e+01	17.7669	128.126577	0.000862	8.617908	2.919826	0.000345
 448	4.4477e+01	17.8054	128.356694	0.000578	5.779068	1.958001	0.000231
 449	4.4576e+01	17.8487	128.655442	0.000750	7.502649	2.541966	0.000300
 450	4.4675e+01	17.8904	128.925930	0.000679	6.792939	2.301510	0.000272
 451	4.4775e+01	17.9241	129.220641	0.000740	7.401262	2.507615	0.000296
 452	4.4874e+01	17.9658	129.563797	0.000862	8.617908	2.919826	0.000345
 453	4.4974e+01	18.0027	129.862545	0.000750	7.502649	2.541966	0.000300
 454	4.5074e+01	18.0412	130.120922	0.000649	6.488778	2.198457	0.000260
 455	4.5173e+01	18.0877	130.423707	0.000760	7.604036	2.576317	0.000304
 456	4.5273e+01	18.1262	130.694195	0.000679	6.792939	2.301510	0.000272
 457	4.5372e+01	18.1679	130.940461	0.000618	6.184616	2.095405	0.000248
 458	4.5471e+01	18.2080	131.182689	0.000608	6.083229	2.061054	0.000243
 459	4.5571e+01	18.2449	131.461251	0.000700	6.995713	2.370212	0.000280
 460	4.5670e+01	18.2802	131.751925	0.000730	7.299875	2.473265	0.000292
 461	4.5770e+01	18.3059	132.002227	0.000629	6.286003	2.129756	0.000252
 462	4.5870e+01	18.3572	132.296938	0.000740	7.401262	2.507615	0.000296
 463	4.5969e+01	18.4022	132.599723	0.000760	7.604036	2.576317	0.000304
 464	4.6069e+01	18.4503	132.870211	0.000679	6.792939	2.301510	0.000272
 465	4.6168e+01	18.4792	133.164922	0.000740	7.401262	2.507615	0.000296
 466	4.6267e+01	18.5225	133.459633	0.000740	7.401262	2.507615	0.000296
 467	4.6367e+01	18.5546	133.734158	0.000689	6.894326	2.335861	0.000276
 468	4.6467e+01	18.5979	133.972349	0.000598	5.981842	2.026703	0.000239
 469	4.6566e+01	18.6412	134.230726	0.000649	6.488778	2.198457	0.000260
 470	4.6666e+01	18.6845	134.557734	0.000821	8.212359	2.782423	0.000329
 471	4.6765e+01	18.7214	134.840334	0.000710	7.097101	2.404563	0.000284
 472	4.6864e+01	18.7631	135.098710	0.000649	6.488778	2.198457	0.000260
 473	4.6964e+01	18.8096	135.397458	0.000750	7.502649	2.541966	0.000300
 474	4.7063e+01	18.8289	135.647761	0.000629	6.286003	2.129756	0.000252
 475	4.7163e+01	18.8818	135.934397	0.000720	7.198488	2.438914	0.000288
 476	4.7263e+01	18.9155	136.216997	0.000710	7.097101	2.404563	0.000284
 477	4.7362e+01	18.9668	136.463262	0.000618	6.184616	2.095405	0.000248
 478	4.7462e+01	18.9989	136.749899	0.000720	7.198488	2.438914	0.000288
 479	4.7561e+01	19.0455	137.012313	0.000659	6.590165	2.232808	0.000264
 480	4.7660e+01	19.0807	137.302986	0.000730	7.299875	2.473265	0.000292
 481	4.7760e+01	19.1176	137.537140	0.000588	5.880455	1.992352	0.000235
 482	4.7859e+01	19.1642	137.848000	0.000781	7.806811	2.645019	0.000312
 483	4.7959e+01	19.2043	138.126562	0.000700	6.995713	2.370212	0.000280
 484	4.8059e+01	19.2380	138.405125	0.000700	6.995713	2.370212	0.000280
 485	4.8158e+01	19.2813	138.667538	0.000659	6.590165	2.232808	0.000264
 486	4.8258e+01	19.3230	138.921878	0.000639	6.387391	2.164107	0.000256
 487	4.8357e+01	19.3487	139.204477	0.000710	7.097101	2.404563	0.000284
 488	4.8456e+01	19.4000	139.442668	0.000598	5.981842	2.026703	0.000239
 489	4.8556e+01	19.4321	139.753528	0.000781	7.806811	2.645019	0.000312
 490	4.8656e+01	19.4754	140.032090	0.000700	6.995713	2.370212	0.000280
 491	4.8755e+01	19.5155	140.330838	0.000750	7.502649	2.541966	0.000300
 492	4.8855e+01	19.5620	140.577104	0.000618	6.184616	2.095405	0.000248
 493	4.8954e+01	19.5973	140.827406	0.000629	6.286003	2.129756	0.000252
 494	4.9053e+01	19.6374	141.110005	0.000710	7.097101	2.404563	0.000284
 495	4.9153e+01	19.6759	141.356271	0.000618	6.184616	2.095405	0.000248
 496	4.9252e+01	19.7208	141.614647	0.000649	6.488778	2.198457	0.000260
 497	4.9352e+01	19.7529	141.897247	0.000710	7.097101	2.404563	0.000284
 498	4.9452e+01	19.7978	142.191958	0.000740	7.401262	2.507615	0.000296
 499	4.9551e+01	19.8395	142.442260	0.000629	6.286003	2.129756	0.000252
 500	4.9651e+01	19.8684	142.684488	0.000608	6.083229	2.061054	0.000243
 501	4.9750e+01	19.9149	142.987274	0.000760	7.604036	2.576317	0.000304
 502	4.9849e+01	19.9534	143.249687	0.000659	6.590165	2.232808	0.000264
 503	4.9949e+01	19.9919	143.520175	0.000679	6.792939	2.301510	0.000272
 504	5.0048e+01	19.9567	143.326393	0.000487	4.866583	1.648843	-0.000195
 505	5.0148e+01	19.9117	143.177019	0.000375	3.751325	1.270983	-0.000150
 506	5.0248e+01	19.8636	142.995348	0.000456	4.562422	1.545790	-0.000183
 507	5.0347e+01	19.8460	142.821751	0.000436	4.359648	1.477089	-0.000174
 508	5.0447e+01	19.7978	142.623931	0.000497	4.967970	1.683194	-0.000199
 509	5.0546e+01	19.7529	142.450335	0.000436	4.359648	1.477089	-0.000174
 510	5.0645e+01	19.7240	142.252515	0.000497	4.967970	1.683194	-0.000199
 511	5.0745e+01	19.6807	142.026435	0.000568	5.677681	1.923650	-0.000227
 512	5.0844e+01	19.6422	141.820541	0.000517	5.170745	1.751896	-0.000207
 513	5.0944e+01	19.5925	141.582350	0.000598	5.981842	2.026703	-0.000239
 514	5.1044e+01	19.5572	141.376456	0.000517	5.170745	1.751896	-0.000207
 515	5.1143e+01	19.5139	141.174600	0.000507	5.069358	1.717545	-0.000203
 516	5.1242e+01	19.4834	140.972743	0.000507	5.069358	1.717545	-0.000203
 517	5.1342e+01	19.4353	140.770886	0.000507	5.069358	1.717545	-0.000203
 518	5.1441e+01	19.3952	140.552881	0.000547	5.474906	1.854948	-0.000219
 519	5.1541e+01	19.3599	140.355061	0.000497	4.967970	1.683194	-0.000199
 520	5.1641e+01	19.3230	140.133019	0.000558	5.576293	1.889299	-0.000223
 521	5.1740e+01	19.2733	139.939236	0.000487	4.866583	1.648843	-0.000195
 522	5.1840e+01	19.2283	139.757565	0.000456	4.562422	1.545790	-0.000183
 523	5.1939e+01	19.1962	139.487077	0.000679	6.792939	2.301510	-0.000272
 524	5.2038e+01	19.1594	139.305406	0.000456	4.562422	1.545790	-0.000183
 525	5.2138e+01	19.1192	139.115660	0.000477	4.765196	1.614492	-0.000191
 526	5.2237e+01	19.0872	138.925915	0.000477	4.765196	1.614492	-0.000191
 527	5.2337e+01	19.0422	138.703873	0.000558	5.576293	1.889299	-0.000223
 528	5.2437e+01	19.0053	138.473756	0.000578	5.779068	1.958001	-0.000231
 529	5.2536e+01	18.9604	138.223453	0.000629	6.286003	2.129756	-0.000252
 530	5.2636e+01	18.9283	138.033708	0.000477	4.765196	1.614492	-0.000191
 531	5.2735e+01	18.8722	137.755146	0.000700	6.995713	2.370212	-0.000280
 532	5.2834e+01	18.8337	137.565400	0.000477	4.765196	1.614492	-0.000191
 533	5.2934e+01	18.8048	137.311061	0.000639	6.387391	2.164107	-0.000256
 534	5.3033e+01	18.7695	137.113241	0.000497	4.967970	1.683194	-0.000199
 535	5.3133e+01	18.7262	136.879087	0.000588	5.880455	1.992352	-0.000235
 536	5.3233e+01	18.6797	136.669156	0.000527	5.272132	1.786247	-0.000211
 537	5.3332e+01	18.6332	136.439039	0.000578	5.779068	1.958001	-0.000231
 538	5.3431e+01	18.6091	136.216997	0.000558	5.576293	1.889299	-0.000223
 539	5.3531e+01	18.5610	136.003029	0.000537	5.373519	1.820598	-0.000215
 540	5.3630e+01	18.5369	135.780986	0.000558	5.576293	1.889299	-0.000223
 541	5.3730e+01	18.4856	135.550870	0.000578	5.779068	1.958001	-0.000231
 542	5.3830e+01	18.4423	135.324790	0.000568	5.677681	1.923650	-0.000227
 543	5.3929e+01	18.3973	135.131007	0.000487	4.866583	1.648843	-0.000195
 544	5.4029e+01	18.3653	134.884742	0.000618	6.184616	2.095405	-0.000248
 545	5.4128e+01	18.3203	134.670774	0.000537	5.373519	1.820598	-0.000215
 546	5.4227e+01	18.2883	134.367989	0.000760	7.604036	2.576317	-0.000304
 547	5.4327e+01	18.2401	134.133835	0.000588	5.880455	1.992352	-0.000235
 548	5.4426e+01	18.2048	133.879495	0.000639	6.387391	2.164107	-0.000256
 549	5.4526e+01	18.1663	133.697824	0.000456	4.562422	1.545790	-0.000183
 550	5.4626e+01	18.1278	133.435410	0.000659	6.590165	2.232808	-0.000264
 551	5.4725e+01	18.0813	133.209331	0.000568	5.677681	1.923650	-0.000227
 552	5.4825e+01	18.0396	133.015548	0.000487	4.866583	1.648843	-0.000195
 553	5.4924e+01	17.9947	132.741023	0.000689	6.894326	2.335861	-0.000276
 554	5.5023e+01	17.9642	132.506869	0.000588	5.880455	1.992352	-0.000235
 555	5.5123e+01	17.9289	132.228307	0.000700	6.995713	2.370212	-0.000280
 556	5.5222e+01	17.8808	132.042599	0.000466	4.663809	1.580141	-0.000187
 557	5.5322e+01	17.8455	131.840742	0.000507	5.069358	1.717545	-0.000203
 558	5.5422e+01	17.8006	131.590439	0.000629	6.286003	2.129756	-0.000252
 559	5.5521e+01	17.7653	131.388583	0.000507	5.069358	1.717545	-0.000203
 560	5.5620e+01	17.7300	131.174614	0.000537	5.373519	1.820598	-0.000215
 561	5.5720e+01	17.6931	130.936423	0.000598	5.981842	2.026703	-0.000239
 562	5.5819e+01	17.6466	130.686121	0.000629	6.286003	2.129756	-0.000252
 563	5.5919e+01	17.6161	130.431781	0.000639	6.387391	2.164107	-0.000256
 564	5.6019e+01	17.5712	130.250110	0.000456	4.562422	1.545790	-0.000183
 565	5.6118e+01	17.5278	129.971548	0.000700	6.995713	2.370212	-0.000280
 566	5.6218e+01	17.4861	129.672800	0.000750	7.502649	2.541966	-0.000300
 567	5.6317e+01	17.4573	129.450757	0.000558	5.576293	1.889299	-0.000223
 568	5.6416e+01	17.4075	129.192381	0.000649	6.488778	2.198457	-0.000260
 569	5.6516e+01	17.3706	128.974375	0.000547	5.474906	1.854948	-0.000219
 570	5.6615e+01	17.3273	128.764444	0.000527	5.272132	1.786247	-0.000211
 571	5.6715e+01	17.2792	128.481845	0.000710	7.097101	2.404563	-0.000284
 572	5.6815e+01	17.2455	128.247691	0.000588	5.880455	1.992352	-0.000235
 573	5.6914e+01	17.2134	128.025649	0.000558	5.576293	1.889299	-0.000223
 574	5.7014e+01	17.1717	127.775346	0.000629	6.286003	2.129756	-0.000252
 575	5.7113e+01	17.1300	127.529081	0.000618	6.184616	2.095405	-0.000248
 576	5.7212e+01	17.0899	127.286853	0.000608	6.083229	2.061054	-0.000243
 577	5.7312e+01	17.0434	127.048662	0.000598	5.981842	2.026703	-0.000239
 578	5.7411e+01	17.0065	126.862953	0.000466	4.663809	1.580141	-0.000187
 579	5.7511e+01	16.9680	126.620725	0.000608	6.083229	2.061054	-0.000243
 580	5.7611e+01	16.9327	126.410794	0.000527	5.272132	1.786247	-0.000211
 581	5.7710e+01	16.8942	126.200863	0.000527	5.272132	1.786247	-0.000211
 582	5.7809e+01	16.8428	125.894041	0.000771	7.705424	2.610668	-0.000308
 583	5.7909e+01	16.8092	125.639701	0.000639	6.387391	2.164107	-0.000256
 584	5.8008e+01	16.7690	125.353065	0.000720	7.198488	2.438914	-0.000288
 585	5.8108e+01	16.7321	125.114874	0.000598	5.981842	2.026703	-0.000239
 586	5.8208e+01	16.6792	124.864571	0.000629	6.286003	2.129756	-0.000252
 587	5.8307e+01	16.6503	124.650603	0.000537	5.373519	1.820598	-0.000215
 588	5.8407e+01	16.6166	124.416449	0.000588	5.880455	1.992352	-0.000235
 589	5.8506e+01	16.5653	124.170184	0.000618	6.184616	2.095405	-0.000248
 590	5.8605e+01	16.5284	123.879510	0.000730	7.299875	2.473265	-0.000292
 591	5.8705e+01	16.4883	123.693802	0.000466	4.663809	1.580141	-0.000187
 592	5.8804e+01	16.4482	123.451574	0.000608	6.083229	2.061054	-0.000243
 593	5.8904e+01	16.4081	123.189160	0.000659	6.590165	2.232808	-0.000264
 594	5.9004e+01	16.3584	122.942895	0.000618	6.184616	2.095405	-0.000248
 595	5.9103e+01	16.3359	122.712778	0.000578	5.779068	1.958001	-0.000231
 596	5.9203e+01	16.2894	122.510921	0.000507	5.069358	1.717545	-0.000203
 597	5.9302e+01	16.2461	122.224284	0.000720	7.198488	2.438914	-0.000288
 598	5.9401e+01	16.2124	121.994168	0.000578	5.779068	1.958001	-0.000231
 599	5.9501e+01	16.1626	121.776162	0.000547	5.474906	1.854948	-0.000219
 600	5.9600e+01	16.1354	121.489526	0.000720	7.198488	2.438914	-0.000288
 601	5.9700e+01	16.0921	121.259409	0.000578	5.779068	1.958001	-0.000231
 602	5.9800e+01	16.0568	120.964698	0.000740	7.401262	2.507615	-0.000296
 603	5.9899e+01	16.0199	120.690173	0.000689	6.894326	2.335861	-0.000276
 604	5.9998e+01	15.9701	120.447945	0.000608	6.083229	2.061054	-0.000243
 605	6.0098e+01	15.9316	120.193605	0.000639	6.387391	2.164107	-0.000256
 606	6.0197e+01	15.8947	119.971563	0.000558	5.576293	1.889299	-0.000223
 607	6.0297e+01	15.8514	119.672815	0.000750	7.502649	2.541966	-0.000300
 608	6.0397e+01	15.8177	119.438661	0.000588	5.880455	1.992352	-0.000235
 609	6.0496e+01	15.7696	119.228730	0.000527	5.272132	1.786247	-0.000211
 610	6.0596e+01	15.7295	118.946130	0.000710	7.097101	2.404563	-0.000284
 611	6.0695e+01	15.6894	118.740236	0.000517	5.170745	1.751896	-0.000207
 612	6.0794e+01	15.6493	118.465711	0.000689	6.894326	2.335861	-0.000276
 613	6.0894e+01	15.6204	118.207334	0.000649	6.488778	2.198457	-0.000260
 614	6.0993e+01	15.5643	117.961069	0.000618	6.184616	2.095405	-0.000248
 615	6.1093e+01	15.5338	117.734990	0.000568	5.677681	1.923650	-0.000227
 616	6.1193e+01	15.4969	117.496799	0.000598	5.981842	2.026703	-0.000239
 617	6.1292e+01	15.4648	117.262645	0.000588	5.880455	1.992352	-0.000235
 618	6.1392e+01	15.4183	117.028491	0.000588	5.880455	1.992352	-0.000235
 619	6.1491e+01	15.3718	116.758003	0.000679	6.792939	2.301510	-0.000272
 620	6.1590e+01	15.3333	116.455217	0.000760	7.604036	2.576317	-0.000304
 621	6.1690e+01	15.2980	116.184729	0.000679	6.792939	2.301510	-0.000272
 622	6.1789e+01	15.2563	115.942501	0.000608	6.083229	2.061054	-0.000243
 623	6.1889e+01	15.2129	115.680087	0.000659	6.590165	2.232808	-0.000264
 624	6.1989e+01	15.1793	115.454008	0.000568	5.677681	1.923650	-0.000227
 625	6.2088e+01	15.1295	115.195631	0.000649	6.488778	2.198457	-0.000260
 626	6.2188e+01	15.0846	114.953403	0.000608	6.083229	2.061054	-0.000243
 627	6.2287e+01	15.0589	114.686952	0.000669	6.691552	2.267159	-0.000268
 628	6.2386e+01	15.0172	114.412427	0.000689	6.894326	2.335861	-0.000276
 629	6.2486e+01	14.9739	114.202496	0.000527	5.272132	1.786247	-0.000211
 630	6.2586e+01	14.9354	113.956230	0.000618	6.184616	2.095405	-0.000248
 631	6.2685e+01	14.8873	113.697854	0.000649	6.488778	2.198457	-0.000260
 632	6.2785e+01	14.8536	113.451589	0.000618	6.184616	2.095405	-0.000248
 633	6.2884e+01	14.8167	113.205323	0.000618	6.184616	2.095405	-0.000248
 634	6.2983e+01	14.7798	112.975206	0.000578	5.779068	1.958001	-0.000231
 635	6.3083e+01	14.7477	112.700681	0.000689	6.894326	2.335861	-0.000276
 636	6.3182e+01	14.6900	112.474602	0.000568	5.677681	1.923650	-0.000227
 637	6.3282e+01	14.6627	112.212188	0.000659	6.590165	2.232808	-0.000264
 638	6.3382e+01	14.6258	111.961885	0.000629	6.286003	2.129756	-0.000252
 639	6.3481e+01	14.5793	111.715620	0.000618	6.184616	2.095405	-0.000248
 640	6.3581e+01	14.5440	111.420909	0.000740	7.401262	2.507615	-0.000296
 641	6.3680e+01	14.5087	111.138310	0.000710	7.097101	2.404563	-0.000284
 642	6.3779e+01	14.4638	110.924342	0.000537	5.373519	1.820598	-0.000215
 643	6.3879e+01	14.4188	110.613482	0.000781	7.806811	2.645019	-0.000312
 644	6.3978e+01	14.3852	110.359143	0.000639	6.387391	2.164107	-0.000256
 645	6.4078e+01	14.3338	110.084617	0.000689	6.894326	2.335861	-0.000276
 646	6.4177e+01	14.2953	109.838352	0.000618	6.184616	2.095405	-0.000248
 647	6.4277e+01	14.2568	109.555753	0.000710	7.097101	2.404563	-0.000284
 648	6.4376e+01	14.2247	109.325636	0.000578	5.779068	1.958001	-0.000231
 649	6.4476e+01	14.1766	109.087445	0.000598	5.981842	2.026703	-0.000239
 650	6.4576e+01	14.1349	108.825031	0.000659	6.590165	2.232808	-0.000264
 651	6.4675e+01	14.0948	108.602988	0.000558	5.576293	1.889299	-0.000223
 652	6.4775e+01	14.0579	108.340575	0.000659	6.590165	2.232808	-0.000264
 653	6.4874e+01	14.0258	108.122569	0.000547	5.474906	1.854948	-0.000219
 654	6.4974e+01	13.9777	107.823821	0.000750	7.502649	2.541966	-0.000300
 655	6.5073e+01	13.9456	107.593705	0.000578	5.779068	1.958001	-0.000231
 656	6.5172e+01	13.8943	107.335328	0.000649	6.488778	2.198457	-0.000260
 657	6.5272e+01	13.8590	107.024468	0.000781	7.806811	2.645019	-0.000312
 658	6.5371e+01	13.8157	106.790315	0.000588	5.880455	1.992352	-0.000235
 659	6.5471e+01	13.7820	106.535975	0.000639	6.387391	2.164107	-0.000256
 660	6.5570e+01	13.7483	106.245301	0.000730	7.299875	2.473265	-0.000292
 661	6.5670e+01	13.7050	105.934442	0.000781	7.806811	2.645019	-0.000312
 662	6.5769e+01	13.6616	105.647805	0.000720	7.198488	2.438914	-0.000288
 663	6.5869e+01	13.6231	105.397503	0.000629	6.286003	2.129756	-0.000252
 664	6.5969e+01	13.5766	105.106829	0.000730	7.299875	2.473265	-0.000292
 665	6.6068e+01	13.5397	104.896898	0.000527	5.272132	1.786247	-0.000211
 666	6.6168e+01	13.4900	104.642558	0.000639	6.387391	2.164107	-0.000256
 667	6.6267e+01	13.4627	104.363996	0.000700	6.995713	2.370212	-0.000280
 668	6.6367e+01	13.4210	104.117731	0.000618	6.184616	2.095405	-0.000248
 669	6.6466e+01	13.3937	103.847243	0.000679	6.792939	2.301510	-0.000272
 670	6.6566e+01	13.3504	103.560606	0.000720	7.198488	2.438914	-0.000288
 671	6.6665e+01	13.2975	103.334526	0.000568	5.677681	1.923650	-0.000227
 672	6.6764e+01	13.2702	103.096335	0.000598	5.981842	2.026703	-0.000239
 673	6.6864e+01	13.2189	102.850070	0.000618	6.184616	2.095405	-0.000248
 674	6.6963e+01	13.1820	102.571508	0.000700	6.995713	2.370212	-0.000280
 675	6.7063e+01	13.1451	102.309094	0.000659	6.590165	2.232808	-0.000264
 676	6.7162e+01	13.1002	102.030532	0.000700	6.995713	2.370212	-0.000280
 677	6.7262e+01	13.0665	101.796378	0.000588	5.880455	1.992352	-0.000235
 678	6.7362e+01	13.0232	101.525890	0.000679	6.792939	2.301510	-0.000272
 679	6.7461e+01	12.9927	101.219067	0.000771	7.705424	2.610668	-0.000308
 680	6.7561e+01	12.9446	100.960691	0.000649	6.488778	2.198457	-0.000260
 681	6.7660e+01	12.9093	100.661942	0.000750	7.502649	2.541966	-0.000300
 682	6.7760e+01	12.8740	100.415677	0.000618	6.184616	2.095405	-0.000248
 683	6.7859e+01	12.8226	100.141152	0.000689	6.894326	2.335861	-0.000276
 684	6.7959e+01	12.7841	99.842404	0.000750	7.502649	2.541966	-0.000300
 685	6.8058e+01	12.7440	99.579990	0.000659	6.590165	2.232808	-0.000264
 686	6.8157e+01	12.7103	99.329688	0.000629	6.286003	2.129756	-0.000252
 687	6.8257e+01	12.6622	99.047088	0.000710	7.097101	2.404563	-0.000284
 688	6.8356e+01	12.6221	98.816971	0.000578	5.779068	1.958001	-0.000231
 689	6.8456e+01	12.5836	98.550521	0.000669	6.691552	2.267159	-0.000268
 690	6.8555e+01	12.5515	98.296181	0.000639	6.387391	2.164107	-0.000256
 691	6.8655e+01	12.5018	98.049916	0.000618	6.184616	2.095405	-0.000248
 692	6.8754e+01	12.4681	97.779428	0.000679	6.792939	2.301510	-0.000272
 693	6.8854e+01	12.4200	97.496828	0.000710	7.097101	2.404563	-0.000284
 694	6.8954e+01	12.3895	97.254600	0.000608	6.083229	2.061054	-0.000243
 695	6.9053e+01	12.3558	96.972000	0.000710	7.097101	2.404563	-0.000284
 696	6.9153e+01	12.3045	96.709587	0.000659	6.590165	2.232808	-0.000264
 697	6.9252e+01	12.2692	96.422950	0.000720	7.198488	2.438914	-0.000288
 698	6.9352e+01	12.2339	96.087868	0.000842	8.415134	2.851124	-0.000337
 699	6.9451e+01	12.1922	95.857751	0.000578	5.779068	1.958001	-0.000231
 700	6.9550e+01	12.1537	95.530743	0.000821	8.212359	2.782423	-0.000329
 701	6.9650e+01	12.1071	95.296589	0.000588	5.880455	1.992352	-0.000235
 702	6.9749e+01	12.0670	95.022064	0.000689	6.894326	2.335861	-0.000276
 703	6.9849e+01	12.0350	94.727353	0.000740	7.401262	2.507615	-0.000296
 704	6.9948e+01	11.9852	94.452828	0.000689	6.894326	2.335861	-0.000276
 705	7.0048e+01	11.9499	94.182340	0.000679	6.792939	2.301510	-0.000272
 706	7.0147e+01	11.9130	93.895703	0.000720	7.198488	2.438914	-0.000288
 707	7.0247e+01	11.8729	93.641363	0.000639	6.387391	2.164107	-0.000256
 708	7.0347e+01	11.8136	93.350690	0.000730	7.299875	2.473265	-0.000292
 709	7.0446e+01	11.7911	93.144796	0.000517	5.170745	1.751896	-0.000207
 710	7.0546e+01	11.7462	92.858159	0.000720	7.198488	2.438914	-0.000288
 711	7.0645e+01	11.7173	92.579597	0.000700	6.995713	2.370212	-0.000280
 712	7.0745e+01	11.6788	92.301034	0.000700	6.995713	2.370212	-0.000280
 713	7.0844e+01	11.6323	92.026509	0.000689	6.894326	2.335861	-0.000276
 714	7.0944e+01	11.5954	91.739873	0.000720	7.198488	2.438914	-0.000288
 715	7.1043e+01	11.5521	91.424976	0.000791	7.908198	2.679370	-0.000316
 716	7.1142e+01	11.5120	91.122191	0.000760	7.604036	2.576317	-0.000304
 717	7.1242e+01	11.4831	90.855740	0.000669	6.691552	2.267159	-0.000268
 718	7.1341e+01	11.4318	90.544880	0.000781	7.806811	2.645019	-0.000312
 719	7.1441e+01	11.3965	90.298615	0.000618	6.184616	2.095405	-0.000248
 720	7.1540e+01	11.3483	89.987756	0.000781	7.806811	2.645019	-0.000312
 721	7.1640e+01	11.3098	89.741490	0.000618	6.184616	2.095405	-0.000248
 722	7.1740e+01	11.2681	89.418519	0.000811	8.110972	2.748072	-0.000325
 723	7.1839e+01	11.2360	89.184366	0.000588	5.880455	1.992352	-0.000235
 724	7.1939e+01	11.1943	88.934063	0.000629	6.286003	2.129756	-0.000252
 725	7.2038e+01	11.1542	88.635315	0.000750	7.502649	2.541966	-0.000300
 726	7.2138e+01	11.1093	88.385013	0.000629	6.286003	2.129756	-0.000252
 727	7.2237e+01	11.0740	88.090302	0.000740	7.401262	2.507615	-0.000296
 728	7.2337e+01	11.0275	87.823851	0.000669	6.691552	2.267159	-0.000268
 729	7.2436e+01	10.9954	87.561437	0.000659	6.590165	2.232808	-0.000264
 730	7.2535e+01	10.9425	87.282875	0.000700	6.995713	2.370212	-0.000280
 731	7.2635e+01	10.9040	87.008349	0.000689	6.894326	2.335861	-0.000276
 732	7.2734e+01	10.8767	86.709601	0.000750	7.502649	2.541966	-0.000300
 733	7.2834e+01	10.8414	86.418928	0.000730	7.299875	2.473265	-0.000292
 734	7.2933e+01	10.7997	86.128254	0.000730	7.299875	2.473265	-0.000292
 735	7.3033e+01	10.7564	85.809320	0.000801	8.009585	2.713721	-0.000321
 736	7.3132e+01	10.7163	85.498461	0.000781	7.806811	2.645019	-0.000312
 737	7.3232e+01	10.6778	85.232010	0.000669	6.691552	2.267159	-0.000268
 738	7.3332e+01	10.6457	84.953447	0.000700	6.995713	2.370212	-0.000280
 739	7.3431e+01	10.5879	84.662774	0.000730	7.299875	2.473265	-0.000292
 740	7.3531e+01	10.5510	84.404397	0.000649	6.488778	2.198457	-0.000260
 741	7.3630e+01	10.5061	84.146020	0.000649	6.488778	2.198457	-0.000260
 742	7.3730e+01	10.4724	83.835161	0.000781	7.806811	2.645019	-0.000312
 743	7.3829e+01	10.4339	83.596970	0.000598	5.981842	2.026703	-0.000239
 744	7.3928e+01	10.3970	83.330519	0.000669	6.691552	2.267159	-0.000268
 745	7.4028e+01	10.3457	83.023696	0.000771	7.705424	2.610668	-0.000308
 746	7.4127e+01	10.3136	82.745134	0.000700	6.995713	2.370212	-0.000280
 747	7.4227e+01	10.2751	82.470609	0.000689	6.894326	2.335861	-0.000276
 748	7.4326e+01	10.2318	82.163787	0.000771	7.705424	2.610668	-0.000308
 749	7.4426e+01	10.1901	81.856964	0.000771	7.705424	2.610668	-0.000308
 750	7.4525e+01	10.1612	81.602625	0.000639	6.387391	2.164107	-0.000256
 751	7.4625e+01	10.1083	81.315988	0.000720	7.198488	2.438914	-0.000288
 752	7.4725e+01	10.0714	80.993017	0.000811	8.110972	2.748072	-0.000325
 753	7.4824e+01	10.0345	80.690232	0.000760	7.604036	2.576317	-0.000304
 754	7.4924e+01	9.9976	80.403595	0.000720	7.198488	2.438914	-0.000288
 755	7.5023e+01	9.9478	80.076587	0.000821	8.212359	2.782423	-0.000329
 756	7.5123e+01	9.9206	79.826285	0.000629	6.286003	2.129756	-0.000252
 757	7.5222e+01	9.8805	79.555797	0.000679	6.792939	2.301510	-0.000272
 758	7.5322e+01	9.8372	79.240900	0.000791	7.908198	2.679370	-0.000316
 759	7.5421e+01	9.7906	79.002709	0.000598	5.981842	2.026703	-0.000239
 760	7.5520e+01	9.7441	78.744333	0.000649	6.488778	2.198457	-0.000260
 761	7.5620e+01	9.7184	78.421362	0.000811	8.110972	2.748072	-0.000325
 762	7.5719e+01	9.6767	78.146836	0.000689	6.894326	2.335861	-0.000276
 763	7.5819e+01	9.6366	77.868274	0.000700	6.995713	2.370212	-0.000280
 764	7.5918e+01	9.5933	77.573563	0.000740	7.401262	2.507615	-0.000296
 765	7.6018e+01	9.5564	77.327298	0.000618	6.184616	2.095405	-0.000248
 766	7.6118e+01	9.5115	77.016438	0.000781	7.806811	2.645019	-0.000312
 767	7.6217e+01	9.4762	76.721728	0.000740	7.401262	2.507615	-0.000296
 768	7.6317e+01	9.4393	76.410868	0.000781	7.806811	2.645019	-0.000312
 769	7.6416e+01	9.3944	76.148454	0.000659	6.590165	2.232808	-0.000264
 770	7.6516e+01	9.3511	75.817409	0.000831	8.313746	2.816774	-0.000333
 771	7.6615e+01	9.3174	75.494438	0.000811	8.110972	2.748072	-0.000325
 772	7.6715e+01	9.2757	75.199727	0.000740	7.401262	2.507615	-0.000296
 773	7.6814e+01	9.2468	74.957499	0.000608	6.083229	2.061054	-0.000243
 774	7.6913e+01	9.2099	74.626454	0.000831	8.313746	2.816774	-0.000333
 775	7.7013e+01	9.1505	74.323669	0.000760	7.604036	2.576317	-0.000304
 776	7.7112e+01	9.1169	74.057218	0.000669	6.691552	2.267159	-0.000268
 777	7.7212e+01	9.0848	73.758470	0.000750	7.502649	2.541966	-0.000300
 778	7.7311e+01	9.0495	73.483945	0.000689	6.894326	2.335861	-0.000276
 779	7.7411e+01	8.9981	73.205382	0.000700	6.995713	2.370212	-0.000280
 780	7.7510e+01	8.9628	72.926820	0.000700	6.995713	2.370212	-0.000280
 781	7.7610e+01	8.9227	72.619998	0.000771	7.705424	2.610668	-0.000308
 782	7.7710e+01	8.8907	72.341435	0.000700	6.995713	2.370212	-0.000280
 783	7.7809e+01	8.8345	72.050762	0.000730	7.299875	2.473265	-0.000292
 784	7.7909e+01	8.7960	71.772199	0.000700	6.995713	2.370212	-0.000280
 785	7.8008e+01	8.7607	71.481525	0.000730	7.299875	2.473265	-0.000292
 786	7.8108e+01	8.7174	71.170666	0.000781	7.806811	2.645019	-0.000312
 787	7.8207e+01	8.6821	70.896141	0.000689	6.894326	2.335861	-0.000276
 788	7.8306e+01	8.6532	70.609504	0.000720	7.198488	2.438914	-0.000288
 789	7.8406e+01	8.5987	70.242125	0.000923	9.226231	3.125932	-0.000369
 790	7.8505e+01	8.5618	69.923191	0.000801	8.009585	2.713721	-0.000321
 791	7.8605e+01	8.5281	69.656740	0.000669	6.691552	2.267159	-0.000268
 792	7.8704e+01	8.4784	69.366066	0.000730	7.299875	2.473265	-0.000292
 793	7.8804e+01	8.4367	69.055207	0.000781	7.806811	2.645019	-0.000312
 794	7.8903e+01	8.3998	68.804904	0.000629	6.286003	2.129756	-0.000252
 795	7.9003e+01	8.3597	68.485971	0.000801	8.009585	2.713721	-0.000321
 796	7.9103e+01	8.3228	68.276040	0.000527	5.272132	1.786247	-0.000211
 797	7.9202e+01	8.2827	67.932883	0.000862	8.617908	2.919826	-0.000345
 798	7.9302e+01	8.2425	67.662395	0.000679	6.792939	2.301510	-0.000272
 799	7.9401e+01	8.2008	67.355573	0.000771	7.705424	2.610668	-0.000308
 800	7.9501e+01	8.1655	67.052787	0.000760	7.604036	2.576317	-0.000304
 801	7.9600e+01	8.1126	66.786337	0.000669	6.691552	2.267159	-0.000268
 802	7.9700e+01	8.0757	66.475477	0.000781	7.806811	2.645019	-0.000312
 803	7.9799e+01	8.0468	66.241323	0.000588	5.880455	1.992352	-0.000235
 804	7.9898e+01	8.0003	65.918352	0.000811	8.110972	2.748072	-0.000325
 805	7.9998e+01	7.9666	65.623641	0.000740	7.401262	2.507615	-0.000296
 806	8.0097e+01	7.9249	65.280485	0.000862	8.617908	2.919826	-0.000345
 807	8.0197e+01	7.8848	64.989811	0.000730	7.299875	2.473265	-0.000292
 808	8.0296e+01	7.8511	64.670877	0.000801	8.009585	2.713721	-0.000321
 809	8.0396e+01	7.7950	64.355981	0.000791	7.908198	2.679370	-0.000316
 810	8.0496e+01	7.7613	64.008787	0.000872	8.719295	2.954177	-0.000349
 811	8.0595e+01	7.7308	63.782708	0.000568	5.677681	1.923650	-0.000227
 812	8.0695e+01	7.6923	63.467811	0.000791	7.908198	2.679370	-0.000316
 813	8.0794e+01	7.6426	63.165026	0.000760	7.604036	2.576317	-0.000304
 814	8.0894e+01	7.6121	62.914723	0.000629	6.286003	2.129756	-0.000252
 815	8.0993e+01	7.5640	62.579641	0.000842	8.415134	2.851124	-0.000337
 816	8.1093e+01	7.5239	62.357599	0.000558	5.576293	1.889299	-0.000223
 817	8.1192e+01	7.4934	62.018479	0.000852	8.516521	2.885475	-0.000341
 818	8.1291e+01	7.4452	61.747991	0.000679	6.792939	2.301510	-0.000272
 819	8.1391e+01	7.4051	61.453280	0.000740	7.401262	2.507615	-0.000296
 820	8.1490e+01	7.3650	61.118198	0.000842	8.415134	2.851124	-0.000337
 821	8.1590e+01	7.3249	60.843673	0.000689	6.894326	2.335861	-0.000276
 822	8.1689e+01	7.2704	60.544925	0.000750	7.502649	2.541966	-0.000300
 823	8.1789e+01	7.2447	60.242139	0.000760	7.604036	2.576317	-0.000304
 824	8.1888e+01	7.2046	59.923206	0.000801	8.009585	2.713721	-0.000321
 825	8.1988e+01	7.1757	59.584086	0.000852	8.516521	2.885475	-0.000341
 826	8.2088e+01	7.1308	59.289375	0.000740	7.401262	2.507615	-0.000296
 827	8.2187e+01	7.0827	58.950256	0.000852	8.516521	2.885475	-0.000341
 828	8.2287e+01	7.0442	58.627285	0.000811	8.110972	2.748072	-0.000325
 829	8.2386e+01	7.0137	58.385057	0.000608	6.083229	2.061054	-0.000243
 830	8.2486e+01	6.9704	58.041901	0.000862	8.617908	2.919826	-0.000345
 831	8.2585e+01	6.9415	57.827932	0.000537	5.373519	1.820598	-0.000215
 832	8.2684e+01	6.8934	57.504961	0.000811	8.110972	2.748072	-0.000325
 833	8.2784e+01	6.8469	57.206213	0.000750	7.502649	2.541966	-0.000300
 834	8.2883e+01	6.8036	56.923614	0.000710	7.097101	2.404563	-0.000284
 835	8.2983e+01	6.7763	56.604680	0.000801	8.009585	2.713721	-0.000321
 836	8.3082e+01	6.7314	56.297858	0.000771	7.705424	2.610668	-0.000308
 837	8.3182e+01	6.6897	55.970850	0.000821	8.212359	2.782423	-0.000329
 838	8.3281e+01	6.6544	55.688250	0.000710	7.097101	2.404563	-0.000284
 839	8.3381e+01	6.6014	55.365280	0.000811	8.110972	2.748072	-0.000325
 840	8.3481e+01	6.5677	55.110940	0.000639	6.387391	2.164107	-0.000256
 841	8.3580e+01	6.5340	54.743561	0.000923	9.226231	3.125932	-0.000369
 842	8.3680e+01	6.4907	54.444813	0.000750	7.502649	2.541966	-0.000300
 843	8.3779e+01	6.4442	54.117805	0.000821	8.212359	2.782423	-0.000329
 844	8.3879e+01	6.4105	53.843279	0.000689	6.894326	2.335861	-0.000276
 845	8.3978e+01	6.3656	53.532420	0.000781	7.806811	2.645019	-0.000312
 846	8.4078e+01	6.3351	53.270006	0.000659	6.590165	2.232808	-0.000264
 847	8.4177e+01	6.2918	52.882441	0.000973	9.733167	3.297686	-0.000390
 848	8.4276e+01	6.2533	52.595804	0.000720	7.198488	2.438914	-0.000288
 849	8.4376e+01	6.2180	52.309168	0.000720	7.198488	2.438914	-0.000288
 850	8.4475e+01	6.1699	52.014457	0.000740	7.401262	2.507615	-0.000296
 851	8.4575e+01	6.1346	51.756080	0.000649	6.488778	2.198457	-0.000260
 852	8.4674e+01	6.1009	51.400812	0.000892	8.922069	3.022879	-0.000357
 853	8.4774e+01	6.0528	51.138398	0.000659	6.590165	2.232808	-0.000264
 854	8.4874e+01	6.0046	50.835613	0.000760	7.604036	2.576317	-0.000304
 855	8.4973e+01	5.9694	50.504568	0.000831	8.313746	2.816774	-0.000333
 856	8.5073e+01	5.9228	50.197746	0.000771	7.705424	2.610668	-0.000308
 857	8.5172e+01	5.9036	49.915146	0.000710	7.097101	2.404563	-0.000284
 858	8.5272e+01	5.8474	49.571990	0.000862	8.617908	2.919826	-0.000345
 859	8.5371e+01	5.8202	49.257093	0.000791	7.908198	2.679370	-0.000316
 860	8.5471e+01	5.7720	48.922011	0.000842	8.415134	2.851124	-0.000337
 861	8.5570e+01	5.7303	48.631337	0.000730	7.299875	2.473265	-0.000292
 862	8.5669e+01	5.6998	48.328552	0.000760	7.604036	2.576317	-0.000304
 863	8.5769e+01	5.6565	47.977321	0.000882	8.820682	2.988528	-0.000353
 864	8.5868e+01	5.6164	47.714907	0.000659	6.590165	2.232808	-0.000264
 865	8.5968e+01	5.5763	47.375788	0.000852	8.516521	2.885475	-0.000341
 866	8.6067e+01	5.5314	47.097226	0.000700	6.995713	2.370212	-0.000280
 867	8.6167e+01	5.4993	46.754069	0.000862	8.617908	2.919826	-0.000345
 868	8.6266e+01	5.4544	46.435135	0.000801	8.009585	2.713721	-0.000321
 869	8.6366e+01	5.4271	46.196944	0.000598	5.981842	2.026703	-0.000239
 870	8.6466e+01	5.3742	45.882048	0.000791	7.908198	2.679370	-0.000316
 871	8.6565e+01	5.3357	45.551003	0.000831	8.313746	2.816774	-0.000333
 872	8.6665e+01	5.2940	45.256292	0.000740	7.401262	2.507615	-0.000296
 873	8.6764e+01	5.2507	44.937358	0.000801	8.009585	2.713721	-0.000321
 874	8.6864e+01	5.2330	44.574016	0.000912	9.124844	3.091581	-0.000365
 875	8.6963e+01	5.1785	44.267193	0.000771	7.705424	2.610668	-0.000308
 876	8.7063e+01	5.1319	43.980557	0.000720	7.198488	2.438914	-0.000288
 877	8.7162e+01	5.1031	43.633363	0.000872	8.719295	2.954177	-0.000349
 878	8.7261e+01	5.0565	43.322504	0.000781	7.806811	2.645019	-0.000312
 879	8.7361e+01	5.0084	43.035867	0.000720	7.198488	2.438914	-0.000288
 880	8.7460e+01	4.9731	42.708859	0.000821	8.212359	2.782423	-0.000329
 881	8.7560e+01	4.9378	42.402037	0.000771	7.705424	2.610668	-0.000308
 882	8.7659e+01	4.9025	42.091177	0.000781	7.806811	2.645019	-0.000312
 883	8.7759e+01	4.8560	41.707649	0.000963	9.631779	3.263335	-0.000385
 884	8.7859e+01	4.8223	41.441198	0.000669	6.691552	2.267159	-0.000268
 885	8.7958e+01	4.7758	41.085930	0.000892	8.922069	3.022879	-0.000357
 886	8.8058e+01	4.7405	40.827554	0.000649	6.488778	2.198457	-0.000260
 887	8.8157e+01	4.7004	40.532843	0.000740	7.401262	2.507615	-0.000296
 888	8.8257e+01	4.6635	40.217946	0.000791	7.908198	2.679370	-0.000316
 889	8.8356e+01	4.6106	39.919198	0.000750	7.502649	2.541966	-0.000300
 890	8.8456e+01	4.5785	39.584116	0.000842	8.415134	2.851124	-0.000337
 891	8.8555e+01	4.5432	39.257108	0.000821	8.212359	2.782423	-0.000329
 892	8.8654e+01	4.4967	38.893766	0.000912	9.124844	3.091581	-0.000365
 893	8.8754e+01	4.4598	38.578869	0.000791	7.908198	2.679370	-0.000316
 894	8.8853e+01	4.4261	38.251861	0.000821	8.212359	2.782423	-0.000329
 895	8.8953e+01	4.3876	37.936965	0.000791	7.908198	2.679370	-0.000316
 896	8.9052e+01	4.3459	37.613994	0.000811	8.110972	2.748072	-0.000325
 897	8.9152e+01	4.2977	37.319283	0.000740	7.401262	2.507615	-0.000296
 898	8.9251e+01	4.2560	36.996312	0.000811	8.110972	2.748072	-0.000325
 899	8.9351e+01	4.2207	36.673341	0.000811	8.110972	2.748072	-0.000325
 900	8.9451e+01	4.1758	36.358444	0.000791	7.908198	2.679370	-0.000316
 901	8.9550e+01	4.1357	36.047585	0.000781	7.806811	2.645019	-0.000312
 902	8.9650e+01	4.1068	35.732688	0.000791	7.908198	2.679370	-0.000316
 903	8.9749e+01	4.0571	35.413755	0.000801	8.009585	2.713721	-0.000321
 904	8.9849e+01	4.0170	35.086747	0.000821	8.212359	2.782423	-0.000329
 905	8.9948e+01	3.9817	34.820296	0.000669	6.691552	2.267159	-0.000268
 906	9.0047e+01	3.9368	34.469065	0.000882	8.820682	2.988528	-0.000353
 907	9.0147e+01	3.9031	34.162243	0.000771	7.705424	2.610668	-0.000308
 908	9.0246e+01	3.8646	33.819086	0.000862	8.617908	2.919826	-0.000345
 909	9.0346e+01	3.8165	33.475930	0.000862	8.617908	2.919826	-0.000345
 910	9.0445e+01	3.7828	33.148922	0.000821	8.212359	2.782423	-0.000329
 911	9.0545e+01	3.7395	32.854211	0.000740	7.401262	2.507615	-0.000296
 912	9.0644e+01	3.6994	32.539314	0.000791	7.908198	2.679370	-0.000316
 913	9.0744e+01	3.6560	32.212306	0.000821	8.212359	2.782423	-0.000329
 914	9.0844e+01	3.6208	31.909521	0.000760	7.604036	2.576317	-0.000304
 915	9.0943e+01	3.5871	31.586550	0.000811	8.110972	2.748072	-0.000325
 916	9.1043e+01	3.5405	31.251468	0.000842	8.415134	2.851124	-0.000337
 917	9.1142e+01	3.4924	30.944645	0.000771	7.705424	2.610668	-0.000308
 918	9.1242e+01	3.4651	30.658009	0.000720	7.198488	2.438914	-0.000288
 919	9.1341e+01	3.4186	30.294667	0.000912	9.124844	3.091581	-0.000365
 920	9.1441e+01	3.3785	29.999956	0.000740	7.401262	2.507615	-0.000296
 921	9.1540e+01	3.3368	29.660836	0.000852	8.516521	2.885475	-0.000341
 922	9.1639e+01	3.3015	29.378237	0.000710	7.097101	2.404563	-0.000284
 923	9.1739e+01	3.2678	29.079489	0.000750	7.502649	2.541966	-0.000300
 924	9.1838e+01	3.2229	28.752481	0.000821	8.212359	2.782423	-0.000329
 925	9.1938e+01	3.1940	28.433547	0.000801	8.009585	2.713721	-0.000321
 926	9.2037e+01	3.1411	28.066168	0.000923	9.226231	3.125932	-0.000369
 927	9.2137e+01	3.1074	27.751271	0.000791	7.908198	2.679370	-0.000316
 928	9.2237e+01	3.0561	27.396003	0.000892	8.922069	3.022879	-0.000357
 929	9.2336e+01	3.0176	27.073032	0.000811	8.110972	2.748072	-0.000325
 930	9.2436e+01	2.9742	26.766210	0.000771	7.705424	2.610668	-0.000308
 931	9.2535e+01	2.9454	26.431128	0.000842	8.415134	2.851124	-0.000337
 932	9.2635e+01	2.9053	26.108157	0.000811	8.110972	2.748072	-0.000325
 933	9.2734e+01	2.8748	25.821520	0.000720	7.198488	2.438914	-0.000288
 934	9.2834e+01	2.8170	25.482401	0.000852	8.516521	2.885475	-0.000341
 935	9.2933e+01	2.7817	25.131170	0.000882	8.820682	2.988528	-0.000353
 936	9.3032e+01	2.7384	24.824348	0.000771	7.705424	2.610668	-0.000308
 937	9.3132e+01	2.7079	24.501377	0.000811	8.110972	2.748072	-0.000325
 938	9.3231e+01	2.6710	24.162257	0.000852	8.516521	2.885475	-0.000341
 939	9.3331e+01	2.6325	23.843324	0.000801	8.009585	2.713721	-0.000321
 940	9.3430e+01	2.5908	23.552650	0.000730	7.299875	2.473265	-0.000292
 941	9.3530e+01	2.5555	23.217568	0.000842	8.415134	2.851124	-0.000337
 942	9.3629e+01	2.5010	22.910745	0.000771	7.705424	2.610668	-0.000308
 943	9.3729e+01	2.4689	22.523180	0.000973	9.733167	3.297686	-0.000390
 944	9.3829e+01	2.4288	22.220395	0.000760	7.604036	2.576317	-0.000304
 945	9.3928e+01	2.3839	21.917610	0.000760	7.604036	2.576317	-0.000304
 946	9.4028e+01	2.3534	21.598676	0.000801	8.009585	2.713721	-0.000321
 947	9.4127e+01	2.2989	21.255520	0.000862	8.617908	2.919826	-0.000345
 948	9.4227e+01	2.2636	20.956772	0.000750	7.502649	2.541966	-0.000300
 949	9.4326e+01	2.2331	20.585355	0.000933	9.327618	3.160283	-0.000373
 950	9.4425e+01	2.1850	20.274496	0.000781	7.806811	2.645019	-0.000312
 951	9.4525e+01	2.1513	19.955562	0.000801	8.009585	2.713721	-0.000321
 952	9.4624e+01	2.0999	19.620480	0.000842	8.415134	2.851124	-0.000337
 953	9.4724e+01	2.0695	19.333843	0.000720	7.198488	2.438914	-0.000288
 954	9.4823e+01	2.0213	19.018946	0.000791	7.908198	2.679370	-0.000316
 955	9.4923e+01	1.9892	18.663679	0.000892	8.922069	3.022879	-0.000357
 956	9.5022e+01	1.9507	18.328596	0.000842	8.415134	2.851124	-0.000337
 957	9.5122e+01	1.9122	18.062145	0.000669	6.691552	2.267159	-0.000268
 958	9.5222e+01	1.8721	17.723026	0.000852	8.516521	2.885475	-0.000341
 959	9.5321e+01	1.8336	17.371795	0.000882	8.820682	2.988528	-0.000353
 960	9.5421e+01	1.7999	17.060936	0.000781	7.806811	2.645019	-0.000312
 961	9.5520e+01	1.7470	16.697593	0.000912	9.124844	3.091581	-0.000365
 962	9.5620e+01	1.7117	16.374623	0.000811	8.110972	2.748072	-0.000325
 963	9.5719e+01	1.6652	16.047615	0.000821	8.212359	2.782423	-0.000329
 964	9.5819e+01	1.6267	15.732718	0.000791	7.908198	2.679370	-0.000316
 965	9.5918e+01	1.5866	15.377450	0.000892	8.922069	3.022879	-0.000357
 966	9.6017e+01	1.5481	15.082739	0.000740	7.401262	2.507615	-0.000296
 967	9.6117e+01	1.5064	14.759768	0.000811	8.110972	2.748072	-0.000325
 968	9.6216e+01	1.4679	14.424686	0.000842	8.415134	2.851124	-0.000337
 969	9.6316e+01	1.4246	14.134012	0.000730	7.299875	2.473265	-0.000292
 970	9.6415e+01	1.3957	13.750484	0.000963	9.631779	3.263335	-0.000385
 971	9.6515e+01	1.3524	13.471922	0.000700	6.995713	2.370212	-0.000280
 972	9.6615e+01	1.3155	13.157025	0.000791	7.908198	2.679370	-0.000316
 973	9.6714e+01	1.2657	12.850203	0.000771	7.705424	2.610668	-0.000308
 974	9.6814e+01	1.2192	12.535306	0.000791	7.908198	2.679370	-0.000316
 975	9.6913e+01	1.1984	12.204261	0.000831	8.313746	2.816774	-0.000333
 976	9.7013e+01	1.1470	11.877253	0.000821	8.212359	2.782423	-0.000329
 977	9.7112e+01	1.1085	11.517948	0.000902	9.023457	3.057230	-0.000361
 978	9.7212e+01	1.0636	11.203052	0.000791	7.908198	2.679370	-0.000316
 979	9.7311e+01	1.0251	10.880081	0.000811	8.110972	2.748072	-0.000325
 980	9.7410e+01	0.9930	10.544999	0.000842	8.415134	2.851124	-0.000337
 981	9.7510e+01	0.9481	10.165508	0.000953	9.530392	3.228984	-0.000381
 982	9.7609e+01	0.9240	9.838500	0.000821	8.212359	2.782423	-0.000329
 983	9.7709e+01	0.8743	9.503418	0.000842	8.415134	2.851124	-0.000337
 984	9.7808e+01	0.8342	9.196595	0.000771	7.705424	2.610668	-0.000308
 985	9.7908e+01	0.7941	8.877661	0.000801	8.009585	2.713721	-0.000321
 986	9.8007e+01	0.7444	8.550653	0.000821	8.212359	2.782423	-0.000329
 987	9.8107e+01	0.7059	8.231720	0.000801	8.009585	2.713721	-0.000321
 988	9.8207e+01	0.6722	7.924897	0.000771	7.705424	2.610668	-0.000308
 989	9.8306e+01	0.6273	7.581741	0.000862	8.617908	2.919826	-0.000345
 990	9.8406e+01	0.6000	7.254733	0.000821	8.212359	2.782423	-0.000329
 991	9.8505e+01	0.5551	6.923688	0.000831	8.313746	2.816774	-0.000333
 992	9.8605e+01	0.5150	6.592643	0.000831	8.313746	2.816774	-0.000333
 993	9.8704e+01	0.4652	6.253523	0.000852	8.516521	2.885475	-0.000341
 994	9.8803e+01	0.4315	5.938627	0.000791	7.908198	2.679370	-0.000316
 995	9.8903e+01	0.3962	5.607582	0.000831	8.313746	2.816774	-0.000333
 996	9.9002e+01	0.3433	5.296722	0.000781	7.806811	2.645019	-0.000312
 997	9.9102e+01	0.3208	4.941454	0.000892	8.922069	3.022879	-0.000357
 998	9.9201e+01	0.2759	4.602335	0.000852	8.516521	2.885475	-0.000341
 999	9.9301e+01	0.2390	4.247067	0.000892	8.922069	3.022879	-0.000357
1000	9.9400e+01	0.1893	3.920059	0.000821	8.212359	2.782423	-0.000329
1001	9.9500e+01	0.1588	3.613236	0.000771	7.705424	2.610668	-0.000308
1002	9.9600e+01	0.1059	3.253931	0.000902	9.023457	3.057230	-0.000361
1003	9.9699e+01	0.0850	2.926923	0.000821	8.212359	2.782423	-0.000329
1004	9.9799e+01	0.0401	2.628175	0.000750	7.502649	2.541966	-0.000300
1005	9.9898e+01	0.0032	2.373836	0.000639	6.387391	2.164107	-0.000256
1006	9.9998e+01	-0.0401	2.054902	0.000801	8.009585	2.713721	-0.000321
1007	1.0010e+02	-0.0770	1.731931	0.000811	8.110972	2.748072	-0.000325
1008	1.0020e+02	-0.1219	1.396849	0.000842	8.415134	2.851124	-0.000337
1009	1.0030e+02	-0.1620	1.041581	0.000892	8.922069	3.022879	-0.000357
1010	1.0040e+02	-0.2005	0.738796	0.000760	7.604036	2.576317	-0.000304
1011	1.0050e+02	-0.2374	0.460233	0.000700	6.995713	2.370212	-0.000280
1012	1.0059e+02	-0.2839	0.092854	0.000923	9.226231	3.125932	-0.000369
1013	1.0069e+02	-0.3176	-0.238191	0.000831	8.313746	2.816774	-0.000333
1014	1.0079e+02	-0.3545	-0.609607	0.000933	9.327618	3.160283	-0.000373
1015	1.0089e+02	-0.3898	-0.920467	0.000781	7.806811	2.645019	-0.000312
1016	1.0099e+02	-0.4396	-1.259586	0.000852	8.516521	2.885475	-0.000341
1017	1.0109e+02	-0.4732	-1.631003	0.000933	9.327618	3.160283	-0.000373
1018	1.0119e+02	-0.5214	-1.933788	0.000760	7.604036	2.576317	-0.000304
1019	1.0129e+02	-0.5470	-2.228499	0.000740	7.401262	2.507615	-0.000296
1020	1.0139e+02	-0.5984	-2.595878	0.000923	9.226231	3.125932	-0.000369
1021	1.0149e+02	-0.6289	-2.890589	0.000740	7.401262	2.507615	-0.000296
1022	1.0159e+02	-0.6786	-3.237783	0.000872	8.719295	2.954177	-0.000349
1023	1.0169e+02	-0.7043	-3.508271	0.000679	6.792939	2.301510	-0.000272
1024	1.0179e+02	-0.7524	-3.883725	0.000943	9.429005	3.194633	-0.000377
1025	1.0189e+02	-0.7957	-4.194584	0.000781	7.806811	2.645019	-0.000312
1026	1.0199e+02	-0.8422	-4.525629	0.000831	8.313746	2.816774	-0.000333
1027	1.0209e+02	-0.8791	-4.844563	0.000801	8.009585	2.713721	-0.000321
1028	1.0219e+02	-0.9208	-5.171571	0.000821	8.212359	2.782423	-0.000329
1029	1.0229e+02	-0.9577	-5.542987	0.000933	9.327618	3.160283	-0.000373
1030	1.0239e+02	-0.9818	-5.849810	0.000771	7.705424	2.610668	-0.000308
1031	1.0248e+02	-1.0331	-6.221226	0.000933	9.327618	3.160283	-0.000373
1032	1.0258e+02	-1.0716	-6.540160	0.000801	8.009585	2.713721	-0.000321
1033	1.0268e+02	-1.1182	-6.883316	0.000862	8.617908	2.919826	-0.000345
1034	1.0278e+02	-1.1438	-7.182064	0.000750	7.502649	2.541966	-0.000300
1035	1.0288e+02	-1.1984	-7.549444	0.000923	9.226231	3.125932	-0.000369
1036	1.0298e+02	-1.2304	-7.888563	0.000852	8.516521	2.885475	-0.000341
1037	1.0308e+02	-1.2786	-8.183274	0.000740	7.401262	2.507615	-0.000296
1038	1.0318e+02	-1.3171	-8.498171	0.000791	7.908198	2.679370	-0.000316
1039	1.0328e+02	-1.3572	-8.817104	0.000801	8.009585	2.713721	-0.000321
1040	1.0338e+02	-1.3893	-9.156224	0.000852	8.516521	2.885475	-0.000341
1041	1.0348e+02	-1.4326	-9.499380	0.000862	8.617908	2.919826	-0.000345
1042	1.0358e+02	-1.4695	-9.826388	0.000821	8.212359	2.782423	-0.000329
1043	1.0368e+02	-1.5128	-10.149359	0.000811	8.110972	2.748072	-0.000325
1044	1.0378e+02	-1.5481	-10.460219	0.000781	7.806811	2.645019	-0.000312
1045	1.0388e+02	-1.5930	-10.831635	0.000933	9.327618	3.160283	-0.000373
1046	1.0398e+02	-1.6299	-11.138458	0.000771	7.705424	2.610668	-0.000308
1047	1.0408e+02	-1.6684	-11.501800	0.000912	9.124844	3.091581	-0.000365
1048	1.0418e+02	-1.7053	-11.840919	0.000852	8.516521	2.885475	-0.000341
1049	1.0428e+02	-1.7438	-12.200224	0.000902	9.023457	3.057230	-0.000361
1050	1.0438e+02	-1.7839	-12.539344	0.000852	8.516521	2.885475	-0.000341
1051	1.0447e+02	-1.8352	-12.842129	0.000760	7.604036	2.576317	-0.000304
1052	1.0457e+02	-1.8689	-13.173174	0.000831	8.313746	2.816774	-0.000333
1053	1.0467e+02	-1.9074	-13.488071	0.000791	7.908198	2.679370	-0.000316
1054	1.0477e+02	-1.9572	-13.859487	0.000933	9.327618	3.160283	-0.000373
1055	1.0487e+02	-1.9844	-14.178421	0.000801	8.009585	2.713721	-0.000321
1056	1.0497e+02	-2.0261	-14.493317	0.000791	7.908198	2.679370	-0.000316
1057	1.0507e+02	-2.0743	-14.820325	0.000821	8.212359	2.782423	-0.000329
1058	1.0517e+02	-2.1192	-15.159445	0.000852	8.516521	2.885475	-0.000341
1059	1.0527e+02	-2.1545	-15.466267	0.000771	7.705424	2.610668	-0.000308
1060	1.0537e+02	-2.1785	-15.777126	0.000781	7.806811	2.645019	-0.000312
1061	1.0547e+02	-2.2283	-16.104134	0.000821	8.212359	2.782423	-0.000329
1062	1.0557e+02	-2.2668	-16.431142	0.000821	8.212359	2.782423	-0.000329
1063	1.0567e+02	-2.3149	-16.762188	0.000831	8.313746	2.816774	-0.000333
1064	1.0577e+02	-2.3518	-17.153790	0.000983	9.834554	3.332037	-0.000394
1065	1.0587e+02	-2.3871	-17.428315	0.000689	6.894326	2.335861	-0.000276
1066	1.0597e+02	-2.4320	-17.799731	0.000933	9.327618	3.160283	-0.000373
1067	1.0607e+02	-2.4673	-18.138851	0.000852	8.516521	2.885475	-0.000341
1068	1.0617e+02	-2.5058	-18.457785	0.000801	8.009585	2.713721	-0.000321
1069	1.0627e+02	-2.5443	-18.825164	0.000923	9.226231	3.125932	-0.000369
1070	1.0637e+02	-2.5940	-19.144098	0.000801	8.009585	2.713721	-0.000321
1071	1.0647e+02	-2.6358	-19.454957	0.000781	7.806811	2.645019	-0.000312
1072	1.0656e+02	-2.6710	-19.777928	0.000811	8.110972	2.748072	-0.000325
1073	1.0666e+02	-2.7047	-20.068602	0.000730	7.299875	2.473265	-0.000292
1074	1.0676e+02	-2.7529	-20.399647	0.000831	8.313746	2.816774	-0.000333
1075	1.0686e+02	-2.7866	-20.730692	0.000831	8.313746	2.816774	-0.000333
1076	1.0696e+02	-2.8283	-21.053663	0.000811	8.110972	2.748072	-0.000325
1077	1.0706e+02	-2.8652	-21.360485	0.000771	7.705424	2.610668	-0.000308
1078	1.0716e+02	-2.9101	-21.687493	0.000821	8.212359	2.782423	-0.000329
1079	1.0726e+02	-2.9582	-22.046798	0.000902	9.023457	3.057230	-0.000361
1080	1.0736e+02	-2.9791	-22.353621	0.000771	7.705424	2.610668	-0.000308
1081	1.0746e+02	-3.0256	-22.737148	0.000963	9.631779	3.263335	-0.000385
1082	1.0756e+02	-3.0737	-23.060119	0.000811	8.110972	2.748072	-0.000325
1083	1.0766e+02	-3.1074	-23.366942	0.000771	7.705424	2.610668	-0.000308
1084	1.0776e+02	-3.1459	-23.722210	0.000892	8.922069	3.022879	-0.000357
1085	1.0786e+02	-3.1908	-24.041143	0.000801	8.009585	2.713721	-0.000321
1086	1.0796e+02	-3.2181	-24.347966	0.000771	7.705424	2.610668	-0.000308
1087	1.0806e+02	-3.2726	-24.658825	0.000781	7.806811	2.645019	-0.000312
1088	1.0816e+02	-3.3031	-25.006019	0.000872	8.719295	2.954177	-0.000349
1089	1.0826e+02	-3.3432	-25.369361	0.000912	9.124844	3.091581	-0.000365
1090	1.0836e+02	-3.3785	-25.635812	0.000669	6.691552	2.267159	-0.000268
1091	1.0845e+02	-3.4266	-25.946671	0.000781	7.806811	2.645019	-0.000312
1092	1.0855e+02	-3.4667	-26.233308	0.000720	7.198488	2.438914	-0.000288
1093	1.0865e+02	-3.5052	-26.576465	0.000862	8.617908	2.919826	-0.000345
1094	1.0875e+02	-3.5405	-26.875213	0.000750	7.502649	2.541966	-0.000300
1095	1.0885e+02	-3.5871	-27.230481	0.000892	8.922069	3.022879	-0.000357
1096	1.0895e+02	-3.6272	-27.513080	0.000710	7.097101	2.404563	-0.000284
1097	1.0905e+02	-3.6577	-27.904682	0.000983	9.834554	3.332037	-0.000394
1098	1.0915e+02	-3.7026	-28.247839	0.000862	8.617908	2.919826	-0.000345
1099	1.0925e+02	-3.7363	-28.586958	0.000852	8.516521	2.885475	-0.000341
1100	1.0935e+02	-3.7828	-28.905892	0.000801	8.009585	2.713721	-0.000321
1101	1.0945e+02	-3.8149	-29.245011	0.000852	8.516521	2.885475	-0.000341
1102	1.0955e+02	-3.8614	-29.503388	0.000649	6.488778	2.198457	-0.000260
1103	1.0965e+02	-3.9063	-29.858656	0.000892	8.922069	3.022879	-0.000357
1104	1.0975e+02	-3.9400	-30.226035	0.000923	9.226231	3.125932	-0.000369
1105	1.0985e+02	-3.9849	-30.557080	0.000831	8.313746	2.816774	-0.000333
1106	1.0995e+02	-4.0218	-30.859866	0.000760	7.604036	2.576317	-0.000304
1107	1.1005e+02	-4.0555	-31.138428	0.000700	6.995713	2.370212	-0.000280
1108	1.1015e+02	-4.1004	-31.473510	0.000842	8.415134	2.851124	-0.000337
1109	1.1025e+02	-4.1389	-31.800518	0.000821	8.212359	2.782423	-0.000329
1110	1.1035e+02	-4.1887	-32.123489	0.000811	8.110972	2.748072	-0.000325
1111	1.1044e+02	-4.2255	-32.446460	0.000811	8.110972	2.748072	-0.000325
1112	1.1054e+02	-4.2624	-32.757319	0.000781	7.806811	2.645019	-0.000312
1113	1.1064e+02	-4.3042	-33.084327	0.000821	8.212359	2.782423	-0.000329
1114	1.1074e+02	-4.3394	-33.427484	0.000862	8.617908	2.919826	-0.000345
1115	1.1084e+02	-4.3780	-33.718158	0.000730	7.299875	2.473265	-0.000292
1116	1.1094e+02	-4.4229	-34.081500	0.000912	9.124844	3.091581	-0.000365
1117	1.1104e+02	-4.4614	-34.416582	0.000842	8.415134	2.851124	-0.000337
1118	1.1114e+02	-4.5047	-34.723404	0.000771	7.705424	2.610668	-0.000308
1119	1.1124e+02	-4.5336	-35.074635	0.000882	8.820682	2.988528	-0.000353
1120	1.1134e+02	-4.5753	-35.349161	0.000689	6.894326	2.335861	-0.000276
1121	1.1144e+02	-4.6234	-35.680206	0.000831	8.313746	2.816774	-0.000333
1122	1.1154e+02	-4.6619	-36.011251	0.000831	8.313746	2.816774	-0.000333
1123	1.1164e+02	-4.6988	-36.285776	0.000689	6.894326	2.335861	-0.000276
1124	1.1174e+02	-4.7373	-36.624895	0.000852	8.516521	2.885475	-0.000341
1125	1.1184e+02	-4.7774	-36.915569	0.000730	7.299875	2.473265	-0.000292
1126	1.1194e+02	-4.8223	-37.214317	0.000750	7.502649	2.541966	-0.000300
1127	1.1204e+02	-4.8576	-37.504991	0.000730	7.299875	2.473265	-0.000292
1128	1.1214e+02	-4.8977	-37.860259	0.000892	8.922069	3.022879	-0.000357
1129	1.1224e+02	-4.9362	-38.146896	0.000720	7.198488	2.438914	-0.000288
1130	1.1234e+02	-4.9763	-38.461792	0.000791	7.908198	2.679370	-0.000316
1131	1.1244e+02	-5.0261	-38.776689	0.000791	7.908198	2.679370	-0.000316
1132	1.1253e+02	-5.0581	-39.087548	0.000781	7.806811	2.645019	-0.000312
1133	1.1263e+02	-5.0870	-39.430705	0.000862	8.617908	2.919826	-0.000345
1134	1.1273e+02	-5.1416	-39.749638	0.000801	8.009585	2.713721	-0.000321
1135	1.1283e+02	-5.1688	-40.112981	0.000912	9.124844	3.091581	-0.000365
1136	1.1293e+02	-5.2186	-40.391543	0.000700	6.995713	2.370212	-0.000280
1137	1.1303e+02	-5.2555	-40.702403	0.000781	7.806811	2.645019	-0.000312
1138	1.1313e+02	-5.2988	-40.989039	0.000720	7.198488	2.438914	-0.000288
1139	1.1323e+02	-5.3389	-41.332196	0.000862	8.617908	2.919826	-0.000345
1140	1.1333e+02	-5.3758	-41.647092	0.000791	7.908198	2.679370	-0.000316
1141	1.1343e+02	-5.4175	-41.970063	0.000811	8.110972	2.748072	-0.000325
1142	1.1353e+02	-5.4544	-42.297071	0.000821	8.212359	2.782423	-0.000329
1143	1.1363e+02	-5.4961	-42.575633	0.000700	6.995713	2.370212	-0.000280
1144	1.1373e+02	-5.5362	-42.878419	0.000760	7.604036	2.576317	-0.000304
1145	1.1383e+02	-5.5795	-43.173130	0.000740	7.401262	2.507615	-0.000296
1146	1.1393e+02	-5.6164	-43.455729	0.000710	7.097101	2.404563	-0.000284
1147	1.1403e+02	-5.6629	-43.794848	0.000852	8.516521	2.885475	-0.000341
1148	1.1413e+02	-5.7047	-44.101671	0.000771	7.705424	2.610668	-0.000308
1149	1.1423e+02	-5.7448	-44.380233	0.000700	6.995713	2.370212	-0.000280
1150	1.1433e+02	-5.7656	-44.719353	0.000852	8.516521	2.885475	-0.000341
1151	1.1442e+02	-5.8105	-45.046361	0.000821	8.212359	2.782423	-0.000329
1152	1.1452e+02	-5.8635	-45.332997	0.000720	7.198488	2.438914	-0.000288
1153	1.1462e+02	-5.8940	-45.708451	0.000943	9.429005	3.194633	-0.000377
1154	1.1472e+02	-5.9244	-46.019310	0.000781	7.806811	2.645019	-0.000312
1155	1.1482e+02	-5.9774	-46.338244	0.000801	8.009585	2.713721	-0.000321
1156	1.1492e+02	-6.0159	-46.584509	0.000618	6.184616	2.095405	-0.000248
1157	1.1502e+02	-6.0624	-46.911517	0.000821	8.212359	2.782423	-0.000329
1158	1.1512e+02	-6.1057	-47.246600	0.000842	8.415134	2.851124	-0.000337
1159	1.1522e+02	-6.1330	-47.549385	0.000760	7.604036	2.576317	-0.000304
1160	1.1532e+02	-6.1747	-47.864281	0.000791	7.908198	2.679370	-0.000316
1161	1.1542e+02	-6.2212	-48.163029	0.000750	7.502649	2.541966	-0.000300
1162	1.1552e+02	-6.2501	-48.481963	0.000801	8.009585	2.713721	-0.000321
1163	1.1562e+02	-6.2934	-48.744377	0.000659	6.590165	2.232808	-0.000264
1164	1.1572e+02	-6.3383	-49.055236	0.000781	7.806811	2.645019	-0.000312
1165	1.1582e+02	-6.3688	-49.333799	0.000700	6.995713	2.370212	-0.000280
1166	1.1592e+02	-6.4201	-49.648695	0.000791	7.908198	2.679370	-0.000316
1167	1.1602e+02	-6.4506	-49.951480	0.000760	7.604036	2.576317	-0.000304
1168	1.1612e+02	-6.4955	-50.258303	0.000771	7.705424	2.610668	-0.000308
1169	1.1622e+02	-6.5196	-50.569162	0.000781	7.806811	2.645019	-0.000312
1170	1.1632e+02	-6.5661	-50.884059	0.000791	7.908198	2.679370	-0.000316
1171	1.1642e+02	-6.6078	-51.154547	0.000679	6.792939	2.301510	-0.000272
1172	1.1651e+02	-6.6544	-51.525963	0.000933	9.327618	3.160283	-0.000373
1173	1.1661e+02	-6.6864	-51.820674	0.000740	7.401262	2.507615	-0.000296
1174	1.1671e+02	-6.7249	-52.103274	0.000710	7.097101	2.404563	-0.000284
1175	1.1681e+02	-6.7634	-52.454505	0.000882	8.820682	2.988528	-0.000353
1176	1.1691e+02	-6.7987	-52.749216	0.000740	7.401262	2.507615	-0.000296
1177	1.1701e+02	-6.8485	-53.052001	0.000760	7.604036	2.576317	-0.000304
1178	1.1711e+02	-6.8934	-53.318452	0.000669	6.691552	2.267159	-0.000268
1179	1.1721e+02	-6.9287	-53.637385	0.000801	8.009585	2.713721	-0.000321
1180	1.1731e+02	-6.9656	-53.915948	0.000700	6.995713	2.370212	-0.000280
1181	1.1741e+02	-7.0089	-54.170287	0.000639	6.387391	2.164107	-0.000256
1182	1.1751e+02	-7.0442	-54.481147	0.000781	7.806811	2.645019	-0.000312
1183	1.1761e+02	-7.0843	-54.816229	0.000842	8.415134	2.851124	-0.000337
1184	1.1771e+02	-7.1276	-55.106903	0.000730	7.299875	2.473265	-0.000292
1185	1.1781e+02	-7.1661	-55.417762	0.000781	7.806811	2.645019	-0.000312
1186	1.1791e+02	-7.1982	-55.720547	0.000760	7.604036	2.576317	-0.000304
1187	1.1801e+02	-7.2335	-56.055630	0.000842	8.415134	2.851124	-0.000337
1188	1.1811e+02	-7.2768	-56.309969	0.000639	6.387391	2.164107	-0.000256
1189	1.1821e+02	-7.3329	-56.649089	0.000852	8.516521	2.885475	-0.000341
1190	1.1831e+02	-7.3634	-56.931688	0.000710	7.097101	2.404563	-0.000284
1191	1.1841e+02	-7.4051	-57.254659	0.000811	8.110972	2.748072	-0.000325
1192	1.1850e+02	-7.4404	-57.581667	0.000821	8.212359	2.782423	-0.000329
1193	1.1860e+02	-7.4870	-57.840044	0.000649	6.488778	2.198457	-0.000260
1194	1.1870e+02	-7.5190	-58.126680	0.000720	7.198488	2.438914	-0.000288
1195	1.1880e+02	-7.5736	-58.425428	0.000750	7.502649	2.541966	-0.000300
1196	1.1890e+02	-7.6137	-58.655545	0.000578	5.779068	1.958001	-0.000231
1197	1.1900e+02	-7.6506	-59.006776	0.000882	8.820682	2.988528	-0.000353
1198	1.1910e+02	-7.6907	-59.273227	0.000669	6.691552	2.267159	-0.000268
1199	1.1920e+02	-7.7196	-59.592161	0.000801	8.009585	2.713721	-0.000321
1200	1.1930e+02	-7.7629	-59.858612	0.000669	6.691552	2.267159	-0.000268
1201	1.1940e+02	-7.8046	-60.221954	0.000912	9.124844	3.091581	-0.000365
1202	1.1950e+02	-7.8415	-60.460145	0.000598	5.981842	2.026703	-0.000239
1203	1.1960e+02	-7.8848	-60.823487	0.000912	9.124844	3.091581	-0.000365
1204	1.1970e+02	-7.9217	-61.122235	0.000750	7.502649	2.541966	-0.000300
1205	1.1980e+02	-7.9634	-61.437132	0.000791	7.908198	2.679370	-0.000316
1206	1.1990e+02	-8.0067	-61.768177	0.000831	8.313746	2.816774	-0.000333
1207	1.2000e+02	-8.0420	-62.006368	0.000598	5.981842	2.026703	-0.000239
1208	1.2010e+02	-8.0805	-62.305116	0.000750	7.502649	2.541966	-0.000300
1209	1.2020e+02	-8.1238	-62.591752	0.000720	7.198488	2.438914	-0.000288
1210	1.2030e+02	-8.1736	-62.898575	0.000771	7.705424	2.610668	-0.000308
1211	1.2039e+02	-8.1992	-63.169063	0.000679	6.792939	2.301510	-0.000272
1212	1.2049e+02	-8.2458	-63.443588	0.000689	6.894326	2.335861	-0.000276
1213	1.2059e+02	-8.2794	-63.762522	0.000801	8.009585	2.713721	-0.000321
1214	1.2069e+02	-8.3292	-64.033010	0.000679	6.792939	2.301510	-0.000272
1215	1.2079e+02	-8.3629	-64.295424	0.000659	6.590165	2.232808	-0.000264
1216	1.2089e+02	-8.3998	-64.674915	0.000953	9.530392	3.228984	-0.000381
1217	1.2099e+02	-8.4415	-64.925217	0.000629	6.286003	2.129756	-0.000252
1218	1.2109e+02	-8.4800	-65.211854	0.000720	7.198488	2.438914	-0.000288
1219	1.2119e+02	-8.5281	-65.518676	0.000771	7.705424	2.610668	-0.000308
1220	1.2129e+02	-8.5570	-65.817424	0.000750	7.502649	2.541966	-0.000300
1221	1.2139e+02	-8.6051	-66.156543	0.000852	8.516521	2.885475	-0.000341
1222	1.2149e+02	-8.6388	-66.463366	0.000771	7.705424	2.610668	-0.000308
1223	1.2159e+02	-8.6757	-66.745965	0.000710	7.097101	2.404563	-0.000284
1224	1.2169e+02	-8.7222	-67.068936	0.000811	8.110972	2.748072	-0.000325
1225	1.2179e+02	-8.7575	-67.335387	0.000669	6.691552	2.267159	-0.000268
1226	1.2189e+02	-8.7928	-67.626061	0.000730	7.299875	2.473265	-0.000292
1227	1.2199e+02	-8.8377	-67.928846	0.000760	7.604036	2.576317	-0.000304
1228	1.2209e+02	-8.8987	-68.207408	0.000700	6.995713	2.370212	-0.000280
1229	1.2219e+02	-8.9227	-68.473859	0.000669	6.691552	2.267159	-0.000268
1230	1.2229e+02	-8.9580	-68.736273	0.000659	6.590165	2.232808	-0.000264
1231	1.2239e+02	-9.0110	-69.006761	0.000679	6.792939	2.301510	-0.000272
1232	1.2248e+02	-9.0479	-69.285324	0.000700	6.995713	2.370212	-0.000280
1233	1.2258e+02	-9.0832	-69.604257	0.000801	8.009585	2.713721	-0.000321
1234	1.2268e+02	-9.1233	-69.866671	0.000659	6.590165	2.232808	-0.000264
1235	1.2278e+02	-9.1650	-70.173493	0.000771	7.705424	2.610668	-0.000308
1236	1.2288e+02	-9.2003	-70.460130	0.000720	7.198488	2.438914	-0.000288
1237	1.2298e+02	-9.2372	-70.730618	0.000679	6.792939	2.301510	-0.000272
1238	1.2308e+02	-9.2741	-71.021292	0.000730	7.299875	2.473265	-0.000292
1239	1.2318e+02	-9.3094	-71.352337	0.000831	8.313746	2.816774	-0.000333
1240	1.2328e+02	-9.3623	-71.594565	0.000608	6.083229	2.061054	-0.000243
1241	1.2338e+02	-9.3976	-71.970019	0.000943	9.429005	3.194633	-0.000377
1242	1.2348e+02	-9.4441	-72.276841	0.000771	7.705424	2.610668	-0.000308
1243	1.2358e+02	-9.4858	-72.486772	0.000527	5.272132	1.786247	-0.000211
1244	1.2368e+02	-9.5275	-72.785520	0.000750	7.502649	2.541966	-0.000300
1245	1.2378e+02	-9.5548	-73.056008	0.000679	6.792939	2.301510	-0.000272
1246	1.2388e+02	-9.5997	-73.350719	0.000740	7.401262	2.507615	-0.000296
1247	1.2398e+02	-9.6334	-73.641393	0.000730	7.299875	2.473265	-0.000292
1248	1.2408e+02	-9.6719	-73.907844	0.000669	6.691552	2.267159	-0.000268
1249	1.2418e+02	-9.7120	-74.182369	0.000689	6.894326	2.335861	-0.000276
1250	1.2428e+02	-9.7682	-74.440746	0.000649	6.488778	2.198457	-0.000260
1251	1.2438e+02	-9.8035	-74.735457	0.000740	7.401262	2.507615	-0.000296
1252	1.2447e+02	-9.8356	-75.018056	0.000710	7.097101	2.404563	-0.000284
1253	1.2457e+02	-9.8757	-75.300656	0.000710	7.097101	2.404563	-0.000284
1254	1.2467e+02	-9.9190	-75.603441	0.000760	7.604036	2.576317	-0.000304
1255	1.2477e+02	-9.9639	-75.817409	0.000537	5.373519	1.820598	-0.000215
1256	1.2487e+02	-9.9944	-76.136343	0.000801	8.009585	2.713721	-0.000321
1257	1.2497e+02	-10.0249	-76.455277	0.000801	8.009585	2.713721	-0.000321
1258	1.2507e+02	-10.0794	-76.741913	0.000720	7.198488	2.438914	-0.000288
1259	1.2517e+02	-10.1083	-77.052773	0.000781	7.806811	2.645019	-0.000312
1260	1.2527e+02	-10.1500	-77.303075	0.000629	6.286003	2.129756	-0.000252
1261	1.2537e+02	-10.1965	-77.569526	0.000669	6.691552	2.267159	-0.000268
1262	1.2547e+02	-10.2350	-77.856163	0.000720	7.198488	2.438914	-0.000288
1263	1.2557e+02	-10.2815	-78.146836	0.000730	7.299875	2.473265	-0.000292
1264	1.2567e+02	-10.3120	-78.441547	0.000740	7.401262	2.507615	-0.000296
1265	1.2577e+02	-10.3505	-78.683776	0.000608	6.083229	2.061054	-0.000243
1266	1.2587e+02	-10.3922	-78.974449	0.000730	7.299875	2.473265	-0.000292
1267	1.2597e+02	-10.4371	-79.204566	0.000578	5.779068	1.958001	-0.000231
1268	1.2607e+02	-10.4805	-79.507351	0.000760	7.604036	2.576317	-0.000304
1269	1.2617e+02	-10.5157	-79.838396	0.000831	8.313746	2.816774	-0.000333
1270	1.2627e+02	-10.5591	-80.072550	0.000588	5.880455	1.992352	-0.000235
1271	1.2636e+02	-10.6008	-80.334964	0.000659	6.590165	2.232808	-0.000264
1272	1.2646e+02	-10.6313	-80.633712	0.000750	7.502649	2.541966	-0.000300
1273	1.2656e+02	-10.6778	-80.867866	0.000588	5.880455	1.992352	-0.000235
1274	1.2666e+02	-10.7179	-81.198911	0.000831	8.313746	2.816774	-0.000333
1275	1.2676e+02	-10.7468	-81.501696	0.000760	7.604036	2.576317	-0.000304
1276	1.2686e+02	-10.7837	-81.776222	0.000689	6.894326	2.335861	-0.000276
1277	1.2696e+02	-10.8382	-82.050747	0.000689	6.894326	2.335861	-0.000276
1278	1.2706e+02	-10.8703	-82.309123	0.000649	6.488778	2.198457	-0.000260
1279	1.2716e+02	-10.9088	-82.607871	0.000750	7.502649	2.541966	-0.000300
1280	1.2726e+02	-10.9521	-82.858174	0.000629	6.286003	2.129756	-0.000252
1281	1.2736e+02	-10.9842	-83.152885	0.000740	7.401262	2.507615	-0.000296
1282	1.2746e+02	-11.0355	-83.455670	0.000760	7.604036	2.576317	-0.000304
1283	1.2756e+02	-11.0740	-83.693861	0.000598	5.981842	2.026703	-0.000239
1284	1.2766e+02	-11.1077	-83.952238	0.000649	6.488778	2.198457	-0.000260
1285	1.2776e+02	-11.1526	-84.194466	0.000608	6.083229	2.061054	-0.000243
1286	1.2786e+02	-11.1911	-84.485140	0.000730	7.299875	2.473265	-0.000292
1287	1.2796e+02	-11.2344	-84.739479	0.000639	6.387391	2.164107	-0.000256
1288	1.2806e+02	-11.2665	-85.042264	0.000760	7.604036	2.576317	-0.000304
1289	1.2816e+02	-11.3130	-85.296604	0.000639	6.387391	2.164107	-0.000256
1290	1.2826e+02	-11.3467	-85.567092	0.000679	6.792939	2.301510	-0.000272
1291	1.2835e+02	-11.3852	-85.817394	0.000629	6.286003	2.129756	-0.000252
1292	1.2845e+02	-11.4253	-86.079808	0.000659	6.590165	2.232808	-0.000264
1293	1.2855e+02	-11.4703	-86.386631	0.000771	7.705424	2.610668	-0.000308
1294	1.2865e+02	-11.5120	-86.685379	0.000750	7.502649	2.541966	-0.000300
1295	1.2875e+02	-11.5569	-86.919532	0.000588	5.880455	1.992352	-0.000235
1296	1.2885e+02	-11.5906	-87.141575	0.000558	5.576293	1.889299	-0.000223
1297	1.2895e+02	-11.6339	-87.488769	0.000872	8.719295	2.954177	-0.000349
1298	1.2905e+02	-11.6724	-87.763294	0.000689	6.894326	2.335861	-0.000276
1299	1.2915e+02	-11.7061	-88.029745	0.000669	6.691552	2.267159	-0.000268
1300	1.2925e+02	-11.7414	-88.267936	0.000598	5.981842	2.026703	-0.000239
1301	1.2935e+02	-11.7847	-88.469793	0.000507	5.069358	1.717545	-0.000203
1302	1.2945e+02	-11.8264	-88.792763	0.000811	8.110972	2.748072	-0.000325
1303	1.2955e+02	-11.8729	-89.030954	0.000598	5.981842	2.026703	-0.000239
1304	1.2965e+02	-11.9050	-89.285294	0.000639	6.387391	2.164107	-0.000256
1305	1.2975e+02	-11.9451	-89.531559	0.000618	6.184616	2.095405	-0.000248
1306	1.2985e+02	-11.9868	-89.802047	0.000679	6.792939	2.301510	-0.000272
1307	1.2995e+02	-12.0269	-90.088684	0.000720	7.198488	2.438914	-0.000288
1308	1.3005e+02	-12.0574	-90.375321	0.000720	7.198488	2.438914	-0.000288
1309	1.3015e+02	-12.1055	-90.637734	0.000659	6.590165	2.232808	-0.000264
1310	1.3025e+02	-12.1424	-90.916297	0.000700	6.995713	2.370212	-0.000280
1311	1.3034e+02	-12.1841	-91.158525	0.000608	6.083229	2.061054	-0.000243
1312	1.3044e+02	-12.2259	-91.449199	0.000730	7.299875	2.473265	-0.000292
1313	1.3054e+02	-12.2692	-91.711613	0.000659	6.590165	2.232808	-0.000264
1314	1.3064e+02	-12.3269	-91.982101	0.000679	6.792939	2.301510	-0.000272
1315	1.3074e+02	-12.3494	-92.232403	0.000629	6.286003	2.129756	-0.000252
1316	1.3084e+02	-12.3863	-92.498854	0.000669	6.691552	2.267159	-0.000268
1317	1.3094e+02	-12.4264	-92.753194	0.000639	6.387391	2.164107	-0.000256
1318	1.3104e+02	-12.4697	-93.007533	0.000639	6.387391	2.164107	-0.000256
1319	1.3114e+02	-12.5082	-93.237650	0.000578	5.779068	1.958001	-0.000231
1320	1.3124e+02	-12.5467	-93.483915	0.000618	6.184616	2.095405	-0.000248
1321	1.3134e+02	-12.5932	-93.774589	0.000730	7.299875	2.473265	-0.000292
1322	1.3144e+02	-12.6285	-94.024891	0.000629	6.286003	2.129756	-0.000252
1323	1.3154e+02	-12.6670	-94.267119	0.000608	6.083229	2.061054	-0.000243
1324	1.3164e+02	-12.7055	-94.553756	0.000720	7.198488	2.438914	-0.000288
1325	1.3174e+02	-12.7360	-94.808096	0.000639	6.387391	2.164107	-0.000256
1326	1.3184e+02	-12.7825	-95.050324	0.000608	6.083229	2.061054	-0.000243
1327	1.3194e+02	-12.8194	-95.336960	0.000720	7.198488	2.438914	-0.000288
1328	1.3204e+02	-12.8579	-95.611486	0.000689	6.894326	2.335861	-0.000276
1329	1.3214e+02	-12.9028	-95.922345	0.000781	7.806811	2.645019	-0.000312
1330	1.3224e+02	-12.9478	-96.128239	0.000517	5.170745	1.751896	-0.000207
1331	1.3234e+02	-12.9750	-96.451210	0.000811	8.110972	2.748072	-0.000325
1332	1.3243e+02	-13.0264	-96.681327	0.000578	5.779068	1.958001	-0.000231
1333	1.3253e+02	-13.0569	-96.927592	0.000618	6.184616	2.095405	-0.000248
1334	1.3263e+02	-13.0954	-97.222303	0.000740	7.401262	2.507615	-0.000296
1335	1.3273e+02	-13.1403	-97.444345	0.000558	5.576293	1.889299	-0.000223
1336	1.3283e+02	-13.1868	-97.702722	0.000649	6.488778	2.198457	-0.000260
1337	1.3293e+02	-13.2333	-97.932839	0.000578	5.779068	1.958001	-0.000231
1338	1.3303e+02	-13.2558	-98.187178	0.000639	6.387391	2.164107	-0.000256
1339	1.3313e+02	-13.3023	-98.441518	0.000639	6.387391	2.164107	-0.000256
1340	1.3323e+02	-13.3360	-98.728154	0.000720	7.198488	2.438914	-0.000288
1341	1.3333e+02	-13.3793	-98.970383	0.000608	6.083229	2.061054	-0.000243
1342	1.3343e+02	-13.4194	-99.208574	0.000598	5.981842	2.026703	-0.000239
1343	1.3353e+02	-13.4611	-99.450802	0.000608	6.083229	2.061054	-0.000243
1344	1.3363e+02	-13.4932	-99.737438	0.000720	7.198488	2.438914	-0.000288
1345	1.3373e+02	-13.5349	-99.995815	0.000649	6.488778	2.198457	-0.000260
1346	1.3383e+02	-13.5782	-100.282452	0.000720	7.198488	2.438914	-0.000288
1347	1.3393e+02	-13.6135	-100.573126	0.000730	7.299875	2.473265	-0.000292
1348	1.3403e+02	-13.6584	-100.766908	0.000487	4.866583	1.648843	-0.000195
1349	1.3413e+02	-13.7098	-101.049508	0.000710	7.097101	2.404563	-0.000284
1350	1.3423e+02	-13.7354	-101.303847	0.000639	6.387391	2.164107	-0.000256
1351	1.3432e+02	-13.7804	-101.562224	0.000649	6.488778	2.198457	-0.000260
1352	1.3442e+02	-13.8157	-101.816563	0.000639	6.387391	2.164107	-0.000256
1353	1.3452e+02	-13.8574	-102.030532	0.000537	5.373519	1.820598	-0.000215
1354	1.3462e+02	-13.9007	-102.337354	0.000771	7.705424	2.610668	-0.000308
1355	1.3472e+02	-13.9376	-102.555359	0.000547	5.474906	1.854948	-0.000219
1356	1.3482e+02	-13.9809	-102.785476	0.000578	5.779068	1.958001	-0.000231
1357	1.3492e+02	-14.0274	-103.011555	0.000568	5.677681	1.923650	-0.000227
1358	1.3502e+02	-14.0579	-103.225524	0.000537	5.373519	1.820598	-0.000215
1359	1.3512e+02	-14.1028	-103.568680	0.000862	8.617908	2.919826	-0.000345
1360	1.3522e+02	-14.1397	-103.802834	0.000588	5.880455	1.992352	-0.000235
1361	1.3532e+02	-14.1830	-104.089471	0.000720	7.198488	2.438914	-0.000288
1362	1.3542e+02	-14.2135	-104.275179	0.000466	4.663809	1.580141	-0.000187
1363	1.3552e+02	-14.2552	-104.577964	0.000760	7.604036	2.576317	-0.000304
1364	1.3562e+02	-14.3001	-104.852489	0.000689	6.894326	2.335861	-0.000276
1365	1.3572e+02	-14.3434	-105.131052	0.000700	6.995713	2.370212	-0.000280
1366	1.3582e+02	-14.3739	-105.349057	0.000547	5.474906	1.854948	-0.000219
1367	1.3592e+02	-14.4076	-105.623582	0.000689	6.894326	2.335861	-0.000276
1368	1.3602e+02	-14.4606	-105.861773	0.000598	5.981842	2.026703	-0.000239
1369	1.3612e+02	-14.4975	-106.120150	0.000649	6.488778	2.198457	-0.000260
1370	1.3622e+02	-14.5360	-106.386601	0.000669	6.691552	2.267159	-0.000268
1371	1.3631e+02	-14.5745	-106.616718	0.000578	5.779068	1.958001	-0.000231
1372	1.3641e+02	-14.6194	-106.911429	0.000740	7.401262	2.507615	-0.000296
1373	1.3651e+02	-14.6563	-107.097137	0.000466	4.663809	1.580141	-0.000187
1374	1.3661e+02	-14.6980	-107.375699	0.000700	6.995713	2.370212	-0.000280
1375	1.3671e+02	-14.7349	-107.569482	0.000487	4.866583	1.648843	-0.000195
1376	1.3681e+02	-14.7766	-107.844007	0.000689	6.894326	2.335861	-0.000276
1377	1.3691e+02	-14.8199	-108.086235	0.000608	6.083229	2.061054	-0.000243
1378	1.3701e+02	-14.8504	-108.364797	0.000700	6.995713	2.370212	-0.000280
1379	1.3711e+02	-14.8953	-108.594914	0.000578	5.779068	1.958001	-0.000231
1380	1.3721e+02	-14.9402	-108.893662	0.000750	7.502649	2.541966	-0.000300
1381	1.3731e+02	-14.9739	-109.131853	0.000598	5.981842	2.026703	-0.000239
1382	1.3741e+02	-15.0204	-109.402341	0.000679	6.792939	2.301510	-0.000272
1383	1.3751e+02	-15.0525	-109.648607	0.000618	6.184616	2.095405	-0.000248
1384	1.3761e+02	-15.1022	-109.886798	0.000598	5.981842	2.026703	-0.000239
1385	1.3771e+02	-15.1359	-110.145174	0.000649	6.488778	2.198457	-0.000260
1386	1.3781e+02	-15.1696	-110.391440	0.000618	6.184616	2.095405	-0.000248
1387	1.3791e+02	-15.2178	-110.678076	0.000720	7.198488	2.438914	-0.000288
1388	1.3801e+02	-15.2563	-110.912230	0.000588	5.880455	1.992352	-0.000235
1389	1.3811e+02	-15.3012	-111.166570	0.000639	6.387391	2.164107	-0.000256
1390	1.3821e+02	-15.3381	-111.368426	0.000507	5.069358	1.717545	-0.000203
1391	1.3831e+02	-15.3750	-111.651026	0.000710	7.097101	2.404563	-0.000284
1392	1.3840e+02	-15.4151	-111.917477	0.000669	6.691552	2.267159	-0.000268
1393	1.3850e+02	-15.4536	-112.135482	0.000547	5.474906	1.854948	-0.000219
1394	1.3860e+02	-15.4889	-112.369636	0.000588	5.880455	1.992352	-0.000235
1395	1.3870e+02	-15.5322	-112.640124	0.000679	6.792939	2.301510	-0.000272
1396	1.3880e+02	-15.5819	-112.910612	0.000679	6.792939	2.301510	-0.000272
1397	1.3890e+02	-15.6156	-113.136692	0.000568	5.677681	1.923650	-0.000227
1398	1.3900e+02	-15.6589	-113.395069	0.000649	6.488778	2.198457	-0.000260
1399	1.3910e+02	-15.6846	-113.661520	0.000669	6.691552	2.267159	-0.000268
1400	1.3920e+02	-15.7295	-113.879525	0.000547	5.474906	1.854948	-0.000219
1401	1.3930e+02	-15.7696	-114.170199	0.000730	7.299875	2.473265	-0.000292
1402	1.3940e+02	-15.8129	-114.396278	0.000568	5.677681	1.923650	-0.000227
1403	1.3950e+02	-15.8578	-114.670804	0.000689	6.894326	2.335861	-0.000276
1404	1.3960e+02	-15.8931	-114.876697	0.000517	5.170745	1.751896	-0.000207
1405	1.3970e+02	-15.9364	-115.147186	0.000679	6.792939	2.301510	-0.000272
1406	1.3980e+02	-15.9669	-115.377302	0.000578	5.779068	1.958001	-0.000231
1407	1.3990e+02	-16.0102	-115.607419	0.000578	5.779068	1.958001	-0.000231
1408	1.4000e+02	-16.0552	-115.902130	0.000740	7.401262	2.507615	-0.000296
1409	1.4010e+02	-16.0872	-116.172618	0.000679	6.792939	2.301510	-0.000272
1410	1.4020e+02	-16.1354	-116.346215	0.000436	4.359648	1.477089	-0.000174
1411	1.4029e+02	-16.1675	-116.600554	0.000639	6.387391	2.164107	-0.000256
1412	1.4039e+02	-16.2092	-116.903340	0.000760	7.604036	2.576317	-0.000304
1413	1.4049e+02	-16.2477	-117.181902	0.000700	6.995713	2.370212	-0.000280
1414	1.4059e+02	-16.2910	-117.420093	0.000598	5.981842	2.026703	-0.000239
1415	1.4069e+02	-16.3327	-117.630024	0.000527	5.272132	1.786247	-0.000211
1416	1.4079e+02	-16.3664	-117.900512	0.000679	6.792939	2.301510	-0.000272
1417	1.4089e+02	-16.4065	-118.142740	0.000608	6.083229	2.061054	-0.000243
1418	1.4099e+02	-16.4466	-118.409191	0.000669	6.691552	2.267159	-0.000268
1419	1.4109e+02	-16.4835	-118.663531	0.000639	6.387391	2.164107	-0.000256
1420	1.4119e+02	-16.5236	-118.921907	0.000649	6.488778	2.198457	-0.000260
1421	1.4129e+02	-16.5685	-119.156061	0.000588	5.880455	1.992352	-0.000235
1422	1.4139e+02	-16.6086	-119.422512	0.000669	6.691552	2.267159	-0.000268
1423	1.4149e+02	-16.6519	-119.648592	0.000568	5.677681	1.923650	-0.000227
1424	1.4159e+02	-16.6920	-119.931191	0.000710	7.097101	2.404563	-0.000284
1425	1.4169e+02	-16.7418	-120.129011	0.000497	4.967970	1.683194	-0.000199
1426	1.4179e+02	-16.7674	-120.427759	0.000750	7.502649	2.541966	-0.000300
1427	1.4189e+02	-16.8092	-120.657876	0.000578	5.779068	1.958001	-0.000231
1428	1.4199e+02	-16.8493	-120.900104	0.000608	6.083229	2.061054	-0.000243
1429	1.4209e+02	-16.8910	-121.174629	0.000689	6.894326	2.335861	-0.000276
1430	1.4219e+02	-16.9327	-121.437043	0.000659	6.590165	2.232808	-0.000264
1431	1.4228e+02	-16.9616	-121.675234	0.000598	5.981842	2.026703	-0.000239
1432	1.4238e+02	-17.0129	-121.893239	0.000547	5.474906	1.854948	-0.000219
1433	1.4248e+02	-17.0450	-122.196025	0.000760	7.604036	2.576317	-0.000304
1434	1.4258e+02	-17.0883	-122.454401	0.000649	6.488778	2.198457	-0.000260
1435	1.4268e+02	-17.1332	-122.724889	0.000679	6.792939	2.301510	-0.000272
1436	1.4278e+02	-17.1733	-122.963080	0.000598	5.981842	2.026703	-0.000239
1437	1.4288e+02	-17.2150	-123.249717	0.000720	7.198488	2.438914	-0.000288
1438	1.4298e+02	-17.2471	-123.504056	0.000639	6.387391	2.164107	-0.000256
1439	1.4308e+02	-17.2936	-123.746285	0.000608	6.083229	2.061054	-0.000243
1440	1.4318e+02	-17.3321	-124.032921	0.000720	7.198488	2.438914	-0.000288
1441	1.4328e+02	-17.3722	-124.279187	0.000618	6.184616	2.095405	-0.000248
1442	1.4338e+02	-17.4011	-124.513340	0.000588	5.880455	1.992352	-0.000235
1443	1.4348e+02	-17.4460	-124.812088	0.000750	7.502649	2.541966	-0.000300
1444	1.4358e+02	-17.4926	-125.022020	0.000527	5.272132	1.786247	-0.000211
1445	1.4368e+02	-17.5311	-125.296545	0.000689	6.894326	2.335861	-0.000276
1446	1.4378e+02	-17.5712	-125.571070	0.000689	6.894326	2.335861	-0.000276
1447	1.4388e+02	-17.6065	-125.821372	0.000629	6.286003	2.129756	-0.000252
1448	1.4398e+02	-17.6369	-126.124158	0.000760	7.604036	2.576317	-0.000304
1449	1.4408e+02	-17.6835	-126.366386	0.000608	6.083229	2.061054	-0.000243
1450	1.4418e+02	-17.7204	-126.640911	0.000689	6.894326	2.335861	-0.000276
1451	1.4428e+02	-17.7605	-126.919473	0.000700	6.995713	2.370212	-0.000280
1452	1.4437e+02	-17.8086	-127.173813	0.000639	6.387391	2.164107	-0.000256
1453	1.4447e+02	-17.8503	-127.436227	0.000659	6.590165	2.232808	-0.000264
1454	1.4457e+02	-17.8872	-127.682492	0.000618	6.184616	2.095405	-0.000248
1455	1.4467e+02	-17.9273	-127.997389	0.000791	7.908198	2.679370	-0.000316
1456	1.4477e+02	-17.9466	-128.243654	0.000618	6.184616	2.095405	-0.000248
1457	1.4487e+02	-18.0171	-128.506068	0.000659	6.590165	2.232808	-0.000264
1458	1.4497e+02	-18.0556	-128.756370	0.000629	6.286003	2.129756	-0.000252
1459	1.4507e+02	-18.0813	-129.055118	0.000750	7.502649	2.541966	-0.000300
1460	1.4517e+02	-18.1182	-129.293309	0.000598	5.981842	2.026703	-0.000239
1461	1.4527e+02	-18.1679	-129.624354	0.000831	8.313746	2.816774	-0.000333
1462	1.4537e+02	-18.2113	-129.834285	0.000527	5.272132	1.786247	-0.000211
1463	1.4547e+02	-18.2481	-130.120922	0.000720	7.198488	2.438914	-0.000288
1464	1.4557e+02	-18.2850	-130.363150	0.000608	6.083229	2.061054	-0.000243
1465	1.4567e+02	-18.3252	-130.665935	0.000760	7.604036	2.576317	-0.000304
1466	1.4577e+02	-18.3620	-130.956609	0.000730	7.299875	2.473265	-0.000292
1467	1.4587e+02	-18.3973	-131.227097	0.000679	6.792939	2.301510	-0.000272
1468	1.4597e+02	-18.4358	-131.529882	0.000760	7.604036	2.576317	-0.000304
1469	1.4607e+02	-18.4840	-131.820556	0.000730	7.299875	2.473265	-0.000292
1470	1.4617e+02	-18.5161	-132.062784	0.000608	6.083229	2.061054	-0.000243
1471	1.4626e+02	-18.5674	-132.353458	0.000730	7.299875	2.473265	-0.000292
1472	1.4636e+02	-18.6043	-132.700652	0.000872	8.719295	2.954177	-0.000349
1473	1.4646e+02	-18.6396	-132.938843	0.000598	5.981842	2.026703	-0.000239
1474	1.4656e+02	-18.6813	-133.217405	0.000700	6.995713	2.370212	-0.000280
1475	1.4666e+02	-18.7246	-133.512116	0.000740	7.401262	2.507615	-0.000296
1476	1.4676e+02	-18.7615	-133.786641	0.000689	6.894326	2.335861	-0.000276
1477	1.4686e+02	-18.7952	-134.097501	0.000781	7.806811	2.645019	-0.000312
1478	1.4696e+02	-18.8465	-134.392212	0.000740	7.401262	2.507615	-0.000296
1479	1.4706e+02	-18.8802	-134.674811	0.000710	7.097101	2.404563	-0.000284
1480	1.4716e+02	-18.9283	-134.953373	0.000700	6.995713	2.370212	-0.000280
1481	1.4726e+02	-18.9636	-135.284419	0.000831	8.313746	2.816774	-0.000333
1482	1.4736e+02	-18.9909	-135.587204	0.000760	7.604036	2.576317	-0.000304
1483	1.4746e+02	-19.0310	-135.825395	0.000598	5.981842	2.026703	-0.000239
1484	1.4756e+02	-19.0791	-136.148366	0.000811	8.110972	2.748072	-0.000325
1485	1.4766e+02	-19.1096	-136.503634	0.000892	8.922069	3.022879	-0.000357
1486	1.4776e+02	-19.1610	-136.762010	0.000649	6.488778	2.198457	-0.000260
1487	1.4786e+02	-19.1979	-137.072870	0.000781	7.806811	2.645019	-0.000312
1488	1.4796e+02	-19.2251	-137.424101	0.000882	8.820682	2.988528	-0.000353
1489	1.4806e+02	-19.2797	-137.698626	0.000689	6.894326	2.335861	-0.000276
1490	1.4816e+02	-19.3294	-137.973151	0.000689	6.894326	2.335861	-0.000276
1491	1.4825e+02	-19.3599	-138.320345	0.000872	8.719295	2.954177	-0.000349
1492	1.4835e+02	-19.4000	-138.606981	0.000720	7.198488	2.438914	-0.000288
1493	1.4845e+02	-19.4401	-138.950138	0.000862	8.617908	2.919826	-0.000345
1494	1.4855e+02	-19.4706	-139.252923	0.000760	7.604036	2.576317	-0.000304
1495	1.4865e+02	-19.5235	-139.543597	0.000730	7.299875	2.473265	-0.000292
1496	1.4875e+02	-19.5604	-139.894828	0.000882	8.820682	2.988528	-0.000353
1497	1.4885e+02	-19.5909	-140.246058	0.000882	8.820682	2.988528	-0.000353
1498	1.4895e+02	-19.6438	-140.524621	0.000700	6.995713	2.370212	-0.000280
1499	1.4905e+02	-19.6695	-140.859703	0.000842	8.415134	2.851124	-0.000337
1500	1.4915e+02	-19.7176	-141.154414	0.000740	7.401262	2.507615	-0.000296
1501	1.4925e+02	-19.7497	-141.517756	0.000912	9.124844	3.091581	-0.000365
1502	1.4935e+02	-19.7978	-141.796319	0.000700	6.995713	2.370212	-0.000280
1503	1.4945e+02	-19.8251	-142.123327	0.000821	8.212359	2.782423	-0.000329
1504	1.4955e+02	-19.8813	-142.490706	0.000923	9.226231	3.125932	-0.000369
1505	1.4965e+02	-19.9182	-142.793491	0.000760	7.604036	2.576317	-0.000304
1506	1.4975e+02	-19.9599	-143.160870	0.000923	9.226231	3.125932	-0.000369
1507	1.4985e+02	-19.9903	-143.520175	0.000902	9.023457	3.057230	-0.000361
1508	1.4995e+02	-19.9502	-143.459618	0.000152	1.520807	0.515263	0.000061
1509	1.5005e+02	-19.9198	-143.443470	0.000041	0.405549	0.137404	0.000016
1510	1.5015e+02	-19.8700	-143.407136	0.000091	0.912484	0.309158	0.000037
1511	1.5025e+02	-19.8428	-143.390987	0.000041	0.405549	0.137404	0.000016
1512	1.5034e+02	-19.7866	-143.346579	0.000112	1.115259	0.377860	0.000045
1513	1.5044e+02	-19.7577	-143.253725	0.000233	2.331904	0.790071	0.000093
1514	1.5054e+02	-19.7160	-143.209316	0.000112	1.115259	0.377860	0.000045
1515	1.5064e+02	-19.6711	-143.160870	0.000122	1.216646	0.412211	0.000049
1516	1.5074e+02	-19.6310	-143.055905	0.000264	2.636066	0.893123	0.000105
1517	1.5084e+02	-19.6005	-142.991311	0.000162	1.622194	0.549614	0.000065
1518	1.5094e+02	-19.5492	-142.922679	0.000172	1.723582	0.583965	0.000069
1519	1.5104e+02	-19.5155	-142.773305	0.000375	3.751325	1.270983	0.000150
1520	1.5114e+02	-19.4738	-142.708711	0.000162	1.622194	0.549614	0.000065
1521	1.5124e+02	-19.4417	-142.627968	0.000203	2.027743	0.687018	0.000081
1522	1.5134e+02	-19.3952	-142.535114	0.000233	2.331904	0.790071	0.000093
1523	1.5144e+02	-19.3599	-142.442260	0.000233	2.331904	0.790071	0.000093
1524	1.5154e+02	-19.3166	-142.292886	0.000375	3.751325	1.270983	0.000150
1525	1.5164e+02	-19.2781	-142.216181	0.000193	1.926356	0.652667	0.000077
1526	1.5174e+02	-19.2444	-142.131401	0.000213	2.129130	0.721369	0.000085
1527	1.5184e+02	-19.2107	-142.054695	0.000193	1.926356	0.652667	0.000077
1528	1.5194e+02	-19.1610	-141.868987	0.000466	4.663809	1.580141	0.000187
1529	1.5204e+02	-19.1176	-141.804393	0.000162	1.622194	0.549614	0.000065
1530	1.5214e+02	-19.0791	-141.675204	0.000324	3.244389	1.099229	0.000130
1531	1.5224e+02	-19.0438	-141.550053	0.000314	3.143002	1.064878	0.000126
1532	1.5233e+02	-18.9973	-141.432976	0.000294	2.940227	0.996176	0.000118
1533	1.5243e+02	-18.9556	-141.328011	0.000264	2.636066	0.893123	0.000105
1534	1.5253e+02	-18.9267	-141.227082	0.000253	2.534679	0.858772	0.000101
1535	1.5263e+02	-18.8754	-141.057523	0.000426	4.258260	1.442738	0.000170
1536	1.5273e+02	-18.8481	-140.928334	0.000324	3.244389	1.099229	0.000130
1537	1.5283e+02	-18.7984	-140.795109	0.000335	3.345776	1.133580	0.000134
1538	1.5293e+02	-18.7583	-140.669958	0.000314	3.143002	1.064878	0.000126
1539	1.5303e+02	-18.7278	-140.508472	0.000406	4.055486	1.374036	0.000162
1540	1.5313e+02	-18.6781	-140.399470	0.000274	2.737453	0.927474	0.000110
1541	1.5323e+02	-18.6428	-140.229910	0.000426	4.258260	1.442738	0.000170
1542	1.5333e+02	-18.6075	-140.120907	0.000274	2.737453	0.927474	0.000110
1543	1.5343e+02	-18.5690	-139.919050	0.000507	5.069358	1.717545	0.000203
1544	1.5353e+02	-18.5273	-139.806011	0.000284	2.838840	0.961825	0.000114
1545	1.5363e+02	-18.4776	-139.620302	0.000466	4.663809	1.580141	0.000187
1546	1.5373e+02	-18.4391	-139.519374	0.000253	2.534679	0.858772	0.000101
1547	1.5383e+02	-18.4054	-139.430557	0.000223	2.230517	0.755720	0.000089
1548	1.5393e+02	-18.3540	-139.196403	0.000588	5.880455	1.992352	0.000235
1549	1.5403e+02	-18.3219	-139.018769	0.000446	4.461035	1.511439	0.000179
1550	1.5413e+02	-18.2899	-138.893618	0.000314	3.143002	1.064878	0.000126
1551	1.5422e+02	-18.2353	-138.776541	0.000294	2.940227	0.996176	0.000118
1552	1.5432e+02	-18.2016	-138.582758	0.000487	4.866583	1.648843	0.000195
1553	1.5442e+02	-18.1615	-138.493941	0.000223	2.230517	0.755720	0.000089
1554	1.5452e+02	-18.1246	-138.308233	0.000466	4.663809	1.580141	0.000187
1555	1.5462e+02	-18.0829	-138.158859	0.000375	3.751325	1.270983	0.000150
1556	1.5472e+02	-18.0380	-137.989300	0.000426	4.258260	1.442738	0.000170
1557	1.5482e+02	-17.9979	-137.819740	0.000426	4.258260	1.442738	0.000170
1558	1.5492e+02	-17.9658	-137.690551	0.000324	3.244389	1.099229	0.000130
1559	1.5502e+02	-17.9241	-137.537140	0.000385	3.852712	1.305334	0.000154
1560	1.5512e+02	-17.8824	-137.363543	0.000436	4.359648	1.477089	0.000174
1561	1.5522e+02	-17.8439	-137.189947	0.000436	4.359648	1.477089	0.000174
1562	1.5532e+02	-17.8054	-137.008276	0.000456	4.562422	1.545790	0.000183
1563	1.5542e+02	-17.7701	-136.834679	0.000436	4.359648	1.477089	0.000174
1564	1.5552e+02	-17.7316	-136.632822	0.000507	5.069358	1.717545	0.000203
1565	1.5562e+02	-17.6802	-136.483448	0.000375	3.751325	1.270983	0.000150
1566	1.5572e+02	-17.6514	-136.297740	0.000466	4.663809	1.580141	0.000187
1567	1.5582e+02	-17.5968	-136.180663	0.000294	2.940227	0.996176	0.000118
1568	1.5592e+02	-17.5631	-136.027252	0.000385	3.852712	1.305334	0.000154
1569	1.5602e+02	-17.5214	-135.837506	0.000477	4.765196	1.614492	0.000191
1570	1.5612e+02	-17.4797	-135.688132	0.000375	3.751325	1.270983	0.000150
1571	1.5622e+02	-17.4541	-135.498387	0.000477	4.765196	1.614492	0.000191
1572	1.5631e+02	-17.4011	-135.340938	0.000395	3.954099	1.339685	0.000158
1573	1.5641e+02	-17.3658	-135.183490	0.000395	3.954099	1.339685	0.000158
1574	1.5651e+02	-17.3257	-134.981633	0.000507	5.069358	1.717545	0.000203
1575	1.5661e+02	-17.2824	-134.836297	0.000365	3.649937	1.236632	0.000146
1576	1.5671e+02	-17.2503	-134.666737	0.000426	4.258260	1.442738	0.000170
1577	1.5681e+02	-17.2134	-134.485066	0.000456	4.562422	1.545790	0.000183
1578	1.5691e+02	-17.1701	-134.254949	0.000578	5.779068	1.958001	0.000231
1579	1.5701e+02	-17.1252	-134.057129	0.000497	4.967970	1.683194	0.000199
1580	1.5711e+02	-17.0899	-133.879495	0.000446	4.461035	1.511439	0.000179
1581	1.5721e+02	-17.0402	-133.734158	0.000365	3.649937	1.236632	0.000146
1582	1.5731e+02	-17.0097	-133.495967	0.000598	5.981842	2.026703	0.000239
1583	1.5741e+02	-16.9744	-133.342556	0.000385	3.852712	1.305334	0.000154
1584	1.5751e+02	-16.9182	-133.213368	0.000324	3.244389	1.099229	0.000130
1585	1.5761e+02	-16.8878	-132.995363	0.000547	5.474906	1.854948	0.000219
1586	1.5771e+02	-16.8396	-132.866174	0.000324	3.244389	1.099229	0.000130
1587	1.5781e+02	-16.8075	-132.652206	0.000537	5.373519	1.820598	0.000215
1588	1.5791e+02	-16.7658	-132.470535	0.000456	4.562422	1.545790	0.000183
1589	1.5801e+02	-16.7305	-132.292901	0.000446	4.461035	1.511439	0.000179
1590	1.5811e+02	-16.6872	-132.127378	0.000416	4.156873	1.408387	0.000166
1591	1.5821e+02	-16.6487	-131.901299	0.000568	5.677681	1.923650	0.000227
1592	1.5830e+02	-16.6215	-131.739813	0.000406	4.055486	1.374036	0.000162
1593	1.5840e+02	-16.5669	-131.574291	0.000416	4.156873	1.408387	0.000166
1594	1.5850e+02	-16.5332	-131.328026	0.000618	6.184616	2.095405	0.000248
1595	1.5860e+02	-16.4835	-131.142317	0.000466	4.663809	1.580141	0.000187
1596	1.5870e+02	-16.4546	-130.984869	0.000395	3.954099	1.339685	0.000158
1597	1.5880e+02	-16.4081	-130.783012	0.000507	5.069358	1.717545	0.000203
1598	1.5890e+02	-16.3696	-130.569044	0.000537	5.373519	1.820598	0.000215
1599	1.5900e+02	-16.3215	-130.423707	0.000365	3.649937	1.236632	0.000146
1600	1.5910e+02	-16.2958	-130.229925	0.000487	4.866583	1.648843	0.000195
1601	1.5920e+02	-16.2461	-130.048254	0.000456	4.562422	1.545790	0.000183
1602	1.5930e+02	-16.2140	-129.862545	0.000466	4.663809	1.580141	0.000187
1603	1.5940e+02	-16.1755	-129.680874	0.000456	4.562422	1.545790	0.000183
1604	1.5950e+02	-16.1306	-129.511314	0.000426	4.258260	1.442738	0.000170
1605	1.5960e+02	-16.0905	-129.309458	0.000507	5.069358	1.717545	0.000203
1606	1.5970e+02	-16.0487	-129.087415	0.000558	5.576293	1.889299	0.000223
1607	1.5980e+02	-16.0167	-128.938041	0.000375	3.751325	1.270983	0.000150
1608	1.5990e+02	-15.9798	-128.715999	0.000558	5.576293	1.889299	0.000223
1609	1.6000e+02	-15.9397	-128.522216	0.000487	4.866583	1.648843	0.000195
1610	1.6010e+02	-15.8931	-128.292099	0.000578	5.779068	1.958001	0.000231
1611	1.6019e+02	-15.8578	-128.162911	0.000324	3.244389	1.099229	0.000130
1612	1.6029e+02	-15.7985	-127.892423	0.000679	6.792939	2.301510	0.000272
1613	1.6039e+02	-15.7744	-127.706715	0.000466	4.663809	1.580141	0.000187
1614	1.6049e+02	-15.7391	-127.537155	0.000426	4.258260	1.442738	0.000170
1615	1.6059e+02	-15.6990	-127.347410	0.000477	4.765196	1.614492	0.000191
1616	1.6069e+02	-15.6589	-127.165739	0.000456	4.562422	1.545790	0.000183
1617	1.6079e+02	-15.6124	-126.927548	0.000598	5.981842	2.026703	0.000239
1618	1.6089e+02	-15.5787	-126.814508	0.000284	2.838840	0.961825	0.000114
1619	1.6099e+02	-15.5306	-126.604577	0.000527	5.272132	1.786247	0.000211
1620	1.6109e+02	-15.5017	-126.398683	0.000517	5.170745	1.751896	0.000207
1621	1.6119e+02	-15.4520	-126.188752	0.000527	5.272132	1.786247	0.000211
1622	1.6129e+02	-15.4167	-125.986895	0.000507	5.069358	1.717545	0.000203
1623	1.6139e+02	-15.3734	-125.813298	0.000436	4.359648	1.477089	0.000174
1624	1.6149e+02	-15.3397	-125.607404	0.000517	5.170745	1.751896	0.000207
1625	1.6159e+02	-15.2996	-125.393436	0.000537	5.373519	1.820598	0.000215
1626	1.6169e+02	-15.2563	-125.195616	0.000497	4.967970	1.683194	0.000199
1627	1.6179e+02	-15.2129	-125.001834	0.000487	4.866583	1.648843	0.000195
1628	1.6189e+02	-15.1825	-124.755569	0.000618	6.184616	2.095405	0.000248
1629	1.6199e+02	-15.1407	-124.561786	0.000487	4.866583	1.648843	0.000195
1630	1.6209e+02	-15.0958	-124.315521	0.000618	6.184616	2.095405	0.000248
1631	1.6219e+02	-15.0557	-124.129813	0.000466	4.663809	1.580141	0.000187
1632	1.6228e+02	-15.0204	-123.927956	0.000507	5.069358	1.717545	0.000203
1633	1.6238e+02	-14.9771	-123.726099	0.000507	5.069358	1.717545	0.000203
1634	1.6248e+02	-14.9322	-123.532316	0.000487	4.866583	1.648843	0.000195
1635	1.6258e+02	-14.8905	-123.322385	0.000527	5.272132	1.786247	0.000211
1636	1.6268e+02	-14.8520	-123.156863	0.000416	4.156873	1.408387	0.000166
1637	1.6278e+02	-14.8103	-122.918672	0.000598	5.981842	2.026703	0.000239
1638	1.6288e+02	-14.7718	-122.749112	0.000426	4.258260	1.442738	0.000170
1639	1.6298e+02	-14.7285	-122.531107	0.000547	5.474906	1.854948	0.000219
1640	1.6308e+02	-14.6948	-122.333287	0.000497	4.967970	1.683194	0.000199
1641	1.6318e+02	-14.6563	-122.103170	0.000578	5.779068	1.958001	0.000231
1642	1.6328e+02	-14.6258	-121.917462	0.000466	4.663809	1.580141	0.000187
1643	1.6338e+02	-14.5761	-121.703494	0.000537	5.373519	1.820598	0.000215
1644	1.6348e+02	-14.5424	-121.481451	0.000558	5.576293	1.889299	0.000223
1645	1.6358e+02	-14.5039	-121.279595	0.000507	5.069358	1.717545	0.000203
1646	1.6368e+02	-14.4622	-121.021218	0.000649	6.488778	2.198457	0.000260
1647	1.6378e+02	-14.4221	-120.847621	0.000436	4.359648	1.477089	0.000174
1648	1.6388e+02	-14.3900	-120.621542	0.000568	5.677681	1.923650	0.000227
1649	1.6398e+02	-14.3402	-120.395462	0.000568	5.677681	1.923650	0.000227
1650	1.6408e+02	-14.2905	-120.201679	0.000487	4.866583	1.648843	0.000195
1651	1.6418e+02	-14.2648	-119.991748	0.000527	5.272132	1.786247	0.000211
1652	1.6427e+02	-14.2183	-119.785854	0.000517	5.170745	1.751896	0.000207
1653	1.6437e+02	-14.1734	-119.608221	0.000446	4.461035	1.511439	0.000179
1654	1.6447e+02	-14.1397	-119.378104	0.000578	5.779068	1.958001	0.000231
1655	1.6457e+02	-14.1028	-119.204507	0.000436	4.359648	1.477089	0.000174
1656	1.6467e+02	-14.0499	-118.913833	0.000730	7.299875	2.473265	0.000292
1657	1.6477e+02	-14.0162	-118.792719	0.000304	3.041615	1.030527	0.000122
1658	1.6487e+02	-13.9777	-118.530305	0.000659	6.590165	2.232808	0.000264
1659	1.6497e+02	-13.9472	-118.356708	0.000436	4.359648	1.477089	0.000174
1660	1.6507e+02	-13.8943	-118.142740	0.000537	5.373519	1.820598	0.000215
1661	1.6517e+02	-13.8590	-117.912624	0.000578	5.779068	1.958001	0.000231
1662	1.6527e+02	-13.8237	-117.678470	0.000588	5.880455	1.992352	0.000235
1663	1.6537e+02	-13.7788	-117.440279	0.000598	5.981842	2.026703	0.000239
1664	1.6547e+02	-13.7515	-117.218236	0.000558	5.576293	1.889299	0.000223
1665	1.6557e+02	-13.6953	-117.012342	0.000517	5.170745	1.751896	0.000207
1666	1.6567e+02	-13.6665	-116.822597	0.000477	4.765196	1.614492	0.000191
1667	1.6577e+02	-13.6280	-116.564220	0.000649	6.488778	2.198457	0.000260
1668	1.6587e+02	-13.5830	-116.366401	0.000497	4.967970	1.683194	0.000199
1669	1.6597e+02	-13.5494	-116.164544	0.000507	5.069358	1.717545	0.000203
1670	1.6607e+02	-13.4980	-115.962687	0.000507	5.069358	1.717545	0.000203
1671	1.6616e+02	-13.4675	-115.805239	0.000395	3.954099	1.339685	0.000158
1672	1.6626e+02	-13.4146	-115.554936	0.000629	6.286003	2.129756	0.000252
1673	1.6636e+02	-13.3825	-115.357117	0.000497	4.967970	1.683194	0.000199
1674	1.6646e+02	-13.3408	-115.090666	0.000669	6.691552	2.267159	0.000268
1675	1.6656e+02	-13.3055	-114.925143	0.000416	4.156873	1.408387	0.000166
1676	1.6666e+02	-13.2718	-114.682915	0.000608	6.083229	2.061054	0.000243
1677	1.6676e+02	-13.2205	-114.477021	0.000517	5.170745	1.751896	0.000207
1678	1.6686e+02	-13.1675	-114.238830	0.000598	5.981842	2.026703	0.000239
1679	1.6696e+02	-13.1371	-114.012750	0.000568	5.677681	1.923650	0.000227
1680	1.6706e+02	-13.1146	-113.758411	0.000639	6.387391	2.164107	0.000256
1681	1.6716e+02	-13.0649	-113.520220	0.000598	5.981842	2.026703	0.000239
1682	1.6726e+02	-13.0183	-113.306252	0.000537	5.373519	1.820598	0.000215
1683	1.6736e+02	-12.9782	-113.088246	0.000547	5.474906	1.854948	0.000219
1684	1.6746e+02	-12.9478	-112.890427	0.000497	4.967970	1.683194	0.000199
1685	1.6756e+02	-12.9044	-112.632050	0.000649	6.488778	2.198457	0.000260
1686	1.6766e+02	-12.8676	-112.478639	0.000385	3.852712	1.305334	0.000154
1687	1.6776e+02	-12.8226	-112.236411	0.000608	6.083229	2.061054	0.000243
1688	1.6786e+02	-12.7841	-112.054740	0.000456	4.562422	1.545790	0.000183
1689	1.6796e+02	-12.7440	-111.824623	0.000578	5.779068	1.958001	0.000231
1690	1.6806e+02	-12.7119	-111.602580	0.000558	5.576293	1.889299	0.000223
1691	1.6816e+02	-12.6590	-111.368426	0.000588	5.880455	1.992352	0.000235
1692	1.6825e+02	-12.6269	-111.130235	0.000598	5.981842	2.026703	0.000239
1693	1.6835e+02	-12.5884	-110.940490	0.000477	4.765196	1.614492	0.000191
1694	1.6845e+02	-12.5419	-110.706336	0.000588	5.880455	1.992352	0.000235
1695	1.6855e+02	-12.5066	-110.508517	0.000497	4.967970	1.683194	0.000199
1696	1.6865e+02	-12.4681	-110.254177	0.000639	6.387391	2.164107	0.000256
1697	1.6875e+02	-12.4280	-110.020023	0.000588	5.880455	1.992352	0.000235
1698	1.6885e+02	-12.3831	-109.806055	0.000537	5.373519	1.820598	0.000215
1699	1.6895e+02	-12.3462	-109.539604	0.000669	6.691552	2.267159	0.000268
1700	1.6905e+02	-12.3157	-109.313524	0.000568	5.677681	1.923650	0.000227
1701	1.6915e+02	-12.2740	-109.091482	0.000558	5.576293	1.889299	0.000223
1702	1.6925e+02	-12.2259	-108.885588	0.000517	5.170745	1.751896	0.000207
1703	1.6935e+02	-12.1922	-108.647397	0.000598	5.981842	2.026703	0.000239
1704	1.6945e+02	-12.1473	-108.393057	0.000639	6.387391	2.164107	0.000256
1705	1.6955e+02	-12.1184	-108.247721	0.000365	3.649937	1.236632	0.000146
1706	1.6965e+02	-12.0670	-108.049901	0.000497	4.967970	1.683194	0.000199
1707	1.6975e+02	-12.0285	-107.791524	0.000649	6.488778	2.198457	0.000260
1708	1.6985e+02	-11.9852	-107.585630	0.000517	5.170745	1.751896	0.000207
1709	1.6995e+02	-11.9467	-107.331291	0.000639	6.387391	2.164107	0.000256
1710	1.7005e+02	-11.9050	-107.109248	0.000558	5.576293	1.889299	0.000223
1711	1.7015e+02	-11.8713	-106.887206	0.000558	5.576293	1.889299	0.000223
1712	1.7024e+02	-11.8328	-106.661126	0.000568	5.677681	1.923650	0.000227
1713	1.7034e+02	-11.8055	-106.398712	0.000659	6.590165	2.232808	0.000264
1714	1.7044e+02	-11.7446	-106.192818	0.000517	5.170745	1.751896	0.000207
1715	1.7054e+02	-11.7189	-105.922330	0.000679	6.792939	2.301510	0.000272
1716	1.7064e+02	-11.6708	-105.676065	0.000618	6.184616	2.095405	0.000248
1717	1.7074e+02	-11.6323	-105.490357	0.000466	4.663809	1.580141	0.000187
1718	1.7084e+02	-11.5922	-105.223906	0.000669	6.691552	2.267159	0.000268
1719	1.7094e+02	-11.5569	-105.018012	0.000517	5.170745	1.751896	0.000207
1720	1.7104e+02	-11.5104	-104.812118	0.000517	5.170745	1.751896	0.000207
1721	1.7114e+02	-11.4655	-104.594113	0.000547	5.474906	1.854948	0.000219
1722	1.7124e+02	-11.4253	-104.335736	0.000649	6.488778	2.198457	0.000260
1723	1.7134e+02	-11.3884	-104.121768	0.000537	5.373519	1.820598	0.000215
1724	1.7144e+02	-11.3516	-103.940097	0.000456	4.562422	1.545790	0.000183
1725	1.7154e+02	-11.3163	-103.653460	0.000720	7.198488	2.438914	0.000288
1726	1.7164e+02	-11.2681	-103.483900	0.000426	4.258260	1.442738	0.000170
1727	1.7174e+02	-11.2296	-103.249747	0.000588	5.880455	1.992352	0.000235
1728	1.7184e+02	-11.1959	-102.987333	0.000659	6.590165	2.232808	0.000264
1729	1.7194e+02	-11.1542	-102.720882	0.000669	6.691552	2.267159	0.000268
1730	1.7204e+02	-11.1141	-102.527099	0.000487	4.866583	1.648843	0.000195
1731	1.7213e+02	-11.0708	-102.268723	0.000649	6.488778	2.198457	0.000260
1732	1.7223e+02	-11.0435	-101.982086	0.000720	7.198488	2.438914	0.000288
1733	1.7233e+02	-10.9938	-101.723709	0.000649	6.488778	2.198457	0.000260
1734	1.7243e+02	-10.9569	-101.493592	0.000578	5.779068	1.958001	0.000231
1735	1.7253e+02	-10.9024	-101.291736	0.000507	5.069358	1.717545	0.000203
1736	1.7263e+02	-10.8703	-101.029322	0.000659	6.590165	2.232808	0.000264
1737	1.7273e+02	-10.8286	-100.819391	0.000527	5.272132	1.786247	0.000211
1738	1.7283e+02	-10.7917	-100.589274	0.000578	5.779068	1.958001	0.000231
1739	1.7293e+02	-10.7484	-100.343009	0.000618	6.184616	2.095405	0.000248
1740	1.7303e+02	-10.7163	-100.161338	0.000456	4.562422	1.545790	0.000183
1741	1.7313e+02	-10.6714	-99.931221	0.000578	5.779068	1.958001	0.000231
1742	1.7323e+02	-10.6264	-99.684956	0.000618	6.184616	2.095405	0.000248
1743	1.7333e+02	-10.5944	-99.450802	0.000588	5.880455	1.992352	0.000235
1744	1.7343e+02	-10.5526	-99.188388	0.000659	6.590165	2.232808	0.000264
1745	1.7353e+02	-10.4997	-98.958271	0.000578	5.779068	1.958001	0.000231
1746	1.7363e+02	-10.4788	-98.691820	0.000669	6.691552	2.267159	0.000268
1747	1.7373e+02	-10.4387	-98.461704	0.000578	5.779068	1.958001	0.000231
1748	1.7383e+02	-10.3922	-98.146807	0.000791	7.908198	2.679370	0.000316
1749	1.7393e+02	-10.3537	-97.965136	0.000456	4.562422	1.545790	0.000183
1750	1.7403e+02	-10.3104	-97.735019	0.000578	5.779068	1.958001	0.000231
1751	1.7413e+02	-10.2671	-97.508939	0.000568	5.677681	1.923650	0.000227
1752	1.7422e+02	-10.2334	-97.238451	0.000679	6.792939	2.301510	0.000272
1753	1.7432e+02	-10.1933	-96.996223	0.000608	6.083229	2.061054	0.000243
1754	1.7442e+02	-10.1532	-96.770144	0.000568	5.677681	1.923650	0.000227
1755	1.7452e+02	-10.1211	-96.503693	0.000669	6.691552	2.267159	0.000268
1756	1.7462e+02	-10.0698	-96.297799	0.000517	5.170745	1.751896	0.000207
1757	1.7472e+02	-10.0313	-96.011162	0.000720	7.198488	2.438914	0.000288
1758	1.7482e+02	-9.9928	-95.793157	0.000547	5.474906	1.854948	0.000219
1759	1.7492e+02	-9.9575	-95.546892	0.000618	6.184616	2.095405	0.000248
1760	1.7502e+02	-9.9206	-95.336960	0.000527	5.272132	1.786247	0.000211
1761	1.7512e+02	-9.8789	-95.054361	0.000710	7.097101	2.404563	0.000284
1762	1.7522e+02	-9.8339	-94.795984	0.000649	6.488778	2.198457	0.000260
1763	1.7532e+02	-9.7987	-94.549719	0.000618	6.184616	2.095405	0.000248
1764	1.7542e+02	-9.7521	-94.275194	0.000689	6.894326	2.335861	0.000276
1765	1.7552e+02	-9.7152	-94.037003	0.000598	5.981842	2.026703	0.000239
1766	1.7562e+02	-9.6751	-93.810923	0.000568	5.677681	1.923650	0.000227
1767	1.7572e+02	-9.6302	-93.572732	0.000598	5.981842	2.026703	0.000239
1768	1.7582e+02	-9.6013	-93.302244	0.000679	6.792939	2.301510	0.000272
1769	1.7592e+02	-9.5612	-93.043867	0.000649	6.488778	2.198457	0.000260
1770	1.7602e+02	-9.5227	-92.829899	0.000537	5.373519	1.820598	0.000215
1771	1.7612e+02	-9.4922	-92.567485	0.000659	6.590165	2.232808	0.000264
1772	1.7621e+02	-9.4345	-92.377740	0.000477	4.765196	1.614492	0.000191
1773	1.7631e+02	-9.3992	-92.147623	0.000578	5.779068	1.958001	0.000231
1774	1.7641e+02	-9.3527	-91.885209	0.000659	6.590165	2.232808	0.000264
1775	1.7651e+02	-9.3078	-91.634907	0.000629	6.286003	2.129756	0.000252
1776	1.7661e+02	-9.2821	-91.408827	0.000568	5.677681	1.923650	0.000227
1777	1.7671e+02	-9.2388	-91.130265	0.000700	6.995713	2.370212	0.000280
1778	1.7681e+02	-9.1955	-90.912260	0.000547	5.474906	1.854948	0.000219
1779	1.7691e+02	-9.1554	-90.629660	0.000710	7.097101	2.404563	0.000284
1780	1.7701e+02	-9.1169	-90.343024	0.000720	7.198488	2.438914	0.000288
1781	1.7711e+02	-9.0703	-90.084647	0.000649	6.488778	2.198457	0.000260
1782	1.7721e+02	-9.0463	-89.838382	0.000618	6.184616	2.095405	0.000248
1783	1.7731e+02	-8.9997	-89.596153	0.000608	6.083229	2.061054	0.000243
1784	1.7741e+02	-8.9612	-89.341814	0.000639	6.387391	2.164107	0.000256
1785	1.7751e+02	-8.9243	-89.047103	0.000740	7.401262	2.507615	0.000296
1786	1.7761e+02	-8.8730	-88.849283	0.000497	4.967970	1.683194	0.000199
1787	1.7771e+02	-8.8506	-88.550535	0.000750	7.502649	2.541966	0.000300
1788	1.7781e+02	-8.7976	-88.292159	0.000649	6.488778	2.198457	0.000260
1789	1.7791e+02	-8.7575	-88.045893	0.000618	6.184616	2.095405	0.000248
1790	1.7801e+02	-8.7190	-87.815777	0.000578	5.779068	1.958001	0.000231
1791	1.7810e+02	-8.6853	-87.601808	0.000537	5.373519	1.820598	0.000215
1792	1.7820e+02	-8.6420	-87.347469	0.000639	6.387391	2.164107	0.000256
1793	1.7830e+02	-8.5955	-87.060832	0.000720	7.198488	2.438914	0.000288
1794	1.7840e+02	-8.5602	-86.806493	0.000639	6.387391	2.164107	0.000256
1795	1.7850e+02	-8.5121	-86.552153	0.000639	6.387391	2.164107	0.000256
1796	1.7860e+02	-8.4896	-86.322036	0.000578	5.779068	1.958001	0.000231
1797	1.7870e+02	-8.4318	-86.055585	0.000669	6.691552	2.267159	0.000268
1798	1.7880e+02	-8.4062	-85.821432	0.000588	5.880455	1.992352	0.000235
1799	1.7890e+02	-8.3645	-85.534795	0.000720	7.198488	2.438914	0.000288
1800	1.7900e+02	-8.3212	-85.232010	0.000760	7.604036	2.576317	0.000304
1801	1.7910e+02	-8.2810	-84.949410	0.000710	7.097101	2.404563	0.000284
1802	1.7920e+02	-8.2522	-84.727368	0.000558	5.576293	1.889299	0.000223
1803	1.7930e+02	-8.2057	-84.477065	0.000629	6.286003	2.129756	0.000252
1804	1.7940e+02	-8.1704	-84.166206	0.000781	7.806811	2.645019	0.000312
1805	1.7950e+02	-8.1238	-83.895718	0.000679	6.792939	2.301510	0.000272
1806	1.7960e+02	-8.0805	-83.617155	0.000700	6.995713	2.370212	0.000280
1807	1.7970e+02	-8.0468	-83.387039	0.000578	5.779068	1.958001	0.000231
1808	1.7980e+02	-7.9955	-83.132699	0.000639	6.387391	2.164107	0.000256
1809	1.7990e+02	-7.9602	-82.894508	0.000598	5.981842	2.026703	0.000239
1810	1.8000e+02	-7.9217	-82.607871	0.000720	7.198488	2.438914	0.000288
1811	1.8009e+02	-7.8736	-82.361606	0.000618	6.184616	2.095405	0.000248
1812	1.8019e+02	-7.8431	-82.111304	0.000629	6.286003	2.129756	0.000252
1813	1.8029e+02	-7.8030	-81.861001	0.000629	6.286003	2.129756	0.000252
1814	1.8039e+02	-7.7613	-81.570328	0.000730	7.299875	2.473265	0.000292
1815	1.8049e+02	-7.7308	-81.315988	0.000639	6.387391	2.164107	0.000256
1816	1.8059e+02	-7.6891	-80.980906	0.000842	8.415134	2.851124	0.000337
1817	1.8069e+02	-7.6522	-80.702343	0.000700	6.995713	2.370212	0.000280
1818	1.8079e+02	-7.6041	-80.460115	0.000608	6.083229	2.061054	0.000243
1819	1.8089e+02	-7.5736	-80.229999	0.000578	5.779068	1.958001	0.000231
1820	1.8099e+02	-7.5222	-79.902991	0.000821	8.212359	2.782423	0.000329
1821	1.8109e+02	-7.4805	-79.640577	0.000659	6.590165	2.232808	0.000264
1822	1.8119e+02	-7.4517	-79.357977	0.000710	7.097101	2.404563	0.000284
1823	1.8129e+02	-7.4051	-79.156120	0.000507	5.069358	1.717545	0.000203
1824	1.8139e+02	-7.3570	-78.841224	0.000791	7.908198	2.679370	0.000316
1825	1.8149e+02	-7.3201	-78.623218	0.000547	5.474906	1.854948	0.000219
1826	1.8159e+02	-7.2816	-78.368879	0.000639	6.387391	2.164107	0.000256
1827	1.8169e+02	-7.2447	-78.102428	0.000669	6.691552	2.267159	0.000268
1828	1.8179e+02	-7.2014	-77.823866	0.000700	6.995713	2.370212	0.000280
1829	1.8189e+02	-7.1757	-77.593749	0.000578	5.779068	1.958001	0.000231
1830	1.8199e+02	-7.1324	-77.218295	0.000943	9.429005	3.194633	0.000377
1831	1.8209e+02	-7.0827	-76.988179	0.000578	5.779068	1.958001	0.000231
1832	1.8218e+02	-7.0458	-76.754025	0.000588	5.880455	1.992352	0.000235
1833	1.8228e+02	-7.0089	-76.431054	0.000811	8.110972	2.748072	0.000325
1834	1.8238e+02	-6.9816	-76.144417	0.000720	7.198488	2.438914	0.000288
1835	1.8248e+02	-6.9239	-75.894115	0.000629	6.286003	2.129756	0.000252
1836	1.8258e+02	-6.8966	-75.567107	0.000821	8.212359	2.782423	0.000329
1837	1.8268e+02	-6.8421	-75.341027	0.000568	5.677681	1.923650	0.000227
1838	1.8278e+02	-6.7987	-75.074576	0.000669	6.691552	2.267159	0.000268
1839	1.8288e+02	-6.7779	-74.804088	0.000679	6.792939	2.301510	0.000272
1840	1.8298e+02	-6.7298	-74.541674	0.000659	6.590165	2.232808	0.000264
1841	1.8308e+02	-6.6848	-74.246963	0.000740	7.401262	2.507615	0.000296
1842	1.8318e+02	-6.6479	-74.004735	0.000608	6.083229	2.061054	0.000243
1843	1.8328e+02	-6.6159	-73.750396	0.000639	6.387391	2.164107	0.000256
1844	1.8338e+02	-6.5725	-73.459722	0.000730	7.299875	2.473265	0.000292
1845	1.8348e+02	-6.5276	-73.193271	0.000669	6.691552	2.267159	0.000268
1846	1.8358e+02	-6.4875	-72.951043	0.000608	6.083229	2.061054	0.000243
1847	1.8368e+02	-6.4442	-72.624035	0.000821	8.212359	2.782423	0.000329
1848	1.8378e+02	-6.4041	-72.389881	0.000588	5.880455	1.992352	0.000235
1849	1.8388e+02	-6.3784	-72.115356	0.000689	6.894326	2.335861	0.000276
1850	1.8398e+02	-6.3399	-71.796422	0.000801	8.009585	2.713721	0.000321
1851	1.8407e+02	-6.2934	-71.542082	0.000639	6.387391	2.164107	0.000256
1852	1.8417e+02	-6.2597	-71.211037	0.000831	8.313746	2.816774	0.000333
1853	1.8427e+02	-6.2100	-70.976883	0.000588	5.880455	1.992352	0.000235
1854	1.8437e+02	-6.1747	-70.670061	0.000771	7.705424	2.610668	0.000308
1855	1.8447e+02	-6.1426	-70.399573	0.000679	6.792939	2.301510	0.000272
1856	1.8457e+02	-6.0961	-70.104862	0.000740	7.401262	2.507615	0.000296
1857	1.8467e+02	-6.0544	-69.890894	0.000537	5.373519	1.820598	0.000215
1858	1.8477e+02	-6.0143	-69.563886	0.000821	8.212359	2.782423	0.000329
1859	1.8487e+02	-5.9822	-69.257064	0.000771	7.705424	2.610668	0.000308
1860	1.8497e+02	-5.9325	-68.986575	0.000679	6.792939	2.301510	0.000272
1861	1.8507e+02	-5.9020	-68.720125	0.000669	6.691552	2.267159	0.000268
1862	1.8517e+02	-5.8554	-68.409265	0.000781	7.806811	2.645019	0.000312
1863	1.8527e+02	-5.8234	-68.150888	0.000649	6.488778	2.198457	0.000260
1864	1.8537e+02	-5.7865	-67.872326	0.000700	6.995713	2.370212	0.000280
1865	1.8547e+02	-5.7448	-67.573578	0.000750	7.502649	2.541966	0.000300
1866	1.8557e+02	-5.6918	-67.250607	0.000811	8.110972	2.748072	0.000325
1867	1.8567e+02	-5.6549	-66.959933	0.000730	7.299875	2.473265	0.000292
1868	1.8577e+02	-5.6116	-66.717705	0.000608	6.083229	2.061054	0.000243
1869	1.8587e+02	-5.5763	-66.414920	0.000760	7.604036	2.576317	0.000304
1870	1.8597e+02	-5.5330	-66.148469	0.000669	6.691552	2.267159	0.000268
1871	1.8606e+02	-5.5089	-65.882018	0.000669	6.691552	2.267159	0.000268
1872	1.8616e+02	-5.4608	-65.579233	0.000760	7.604036	2.576317	0.000304
1873	1.8626e+02	-5.4175	-65.300671	0.000700	6.995713	2.370212	0.000280
1874	1.8636e+02	-5.3726	-65.009997	0.000730	7.299875	2.473265	0.000292
1875	1.8646e+02	-5.3373	-64.707212	0.000760	7.604036	2.576317	0.000304
1876	1.8656e+02	-5.2940	-64.448835	0.000649	6.488778	2.198457	0.000260
1877	1.8666e+02	-5.2603	-64.137975	0.000781	7.806811	2.645019	0.000312
1878	1.8676e+02	-5.2218	-63.867487	0.000679	6.792939	2.301510	0.000272
1879	1.8686e+02	-5.1833	-63.588925	0.000700	6.995713	2.370212	0.000280
1880	1.8696e+02	-5.1335	-63.298251	0.000730	7.299875	2.473265	0.000292
1881	1.8706e+02	-5.0983	-63.047949	0.000629	6.286003	2.129756	0.000252
1882	1.8716e+02	-5.0581	-62.716904	0.000831	8.313746	2.816774	0.000333
1883	1.8726e+02	-5.0132	-62.414119	0.000760	7.604036	2.576317	0.000304
1884	1.8736e+02	-4.9699	-62.196113	0.000547	5.474906	1.854948	0.000219
1885	1.8746e+02	-4.9458	-61.852957	0.000862	8.617908	2.919826	0.000345
1886	1.8756e+02	-4.8897	-61.574394	0.000700	6.995713	2.370212	0.000280
1887	1.8766e+02	-4.8608	-61.291795	0.000710	7.097101	2.404563	0.000284
1888	1.8776e+02	-4.8111	-61.001121	0.000730	7.299875	2.473265	0.000292
1889	1.8786e+02	-4.7870	-60.666039	0.000842	8.415134	2.851124	0.000337
1890	1.8796e+02	-4.7453	-60.383439	0.000710	7.097101	2.404563	0.000284
1891	1.8806e+02	-4.6972	-60.112951	0.000679	6.792939	2.301510	0.000272
1892	1.8815e+02	-4.6603	-59.826315	0.000720	7.198488	2.438914	0.000288
1893	1.8825e+02	-4.6154	-59.555826	0.000679	6.792939	2.301510	0.000272
1894	1.8835e+02	-4.5769	-59.257078	0.000750	7.502649	2.541966	0.000300
1895	1.8845e+02	-4.5416	-58.982553	0.000689	6.894326	2.335861	0.000276
1896	1.8855e+02	-4.5015	-58.639397	0.000862	8.617908	2.919826	0.000345
1897	1.8865e+02	-4.4614	-58.401206	0.000598	5.981842	2.026703	0.000239
1898	1.8875e+02	-4.4213	-58.082272	0.000801	8.009585	2.713721	0.000321
1899	1.8885e+02	-4.3635	-57.783524	0.000750	7.502649	2.541966	0.000300
1900	1.8895e+02	-4.3443	-57.537259	0.000618	6.184616	2.095405	0.000248
1901	1.8905e+02	-4.2993	-57.214288	0.000811	8.110972	2.748072	0.000325
1902	1.8915e+02	-4.2592	-56.919577	0.000740	7.401262	2.507615	0.000296
1903	1.8925e+02	-4.2159	-56.568346	0.000882	8.820682	2.988528	0.000353
1904	1.8935e+02	-4.1838	-56.314006	0.000639	6.387391	2.164107	0.000256
1905	1.8945e+02	-4.1421	-55.978924	0.000842	8.415134	2.851124	0.000337
1906	1.8955e+02	-4.1020	-55.704399	0.000689	6.894326	2.335861	0.000276
1907	1.8965e+02	-4.0555	-55.409688	0.000740	7.401262	2.507615	0.000296
1908	1.8975e+02	-4.0186	-55.123051	0.000720	7.198488	2.438914	0.000288
1909	1.8985e+02	-3.9785	-54.804118	0.000801	8.009585	2.713721	0.000321
1910	1.8995e+02	-3.9368	-54.529592	0.000689	6.894326	2.335861	0.000276
1911	1.9004e+02	-3.8999	-54.182399	0.000872	8.719295	2.954177	0.000349
1912	1.9014e+02	-3.8662	-53.899799	0.000710	7.097101	2.404563	0.000284
1913	1.9024e+02	-3.8245	-53.605088	0.000740	7.401262	2.507615	0.000296
1914	1.9034e+02	-3.7860	-53.302303	0.000760	7.604036	2.576317	0.000304
1915	1.9044e+02	-3.7411	-53.007592	0.000740	7.401262	2.507615	0.000296
1916	1.9054e+02	-3.7058	-52.700770	0.000771	7.705424	2.610668	0.000308
1917	1.9064e+02	-3.6657	-52.434319	0.000669	6.691552	2.267159	0.000268
1918	1.9074e+02	-3.6143	-52.119422	0.000791	7.908198	2.679370	0.000316
1919	1.9084e+02	-3.5887	-51.861046	0.000649	6.488778	2.198457	0.000260
1920	1.9094e+02	-3.5438	-51.501741	0.000902	9.023457	3.057230	0.000361
1921	1.9104e+02	-3.5052	-51.186844	0.000791	7.908198	2.679370	0.000316
1922	1.9114e+02	-3.4684	-50.892133	0.000740	7.401262	2.507615	0.000296
1923	1.9124e+02	-3.4298	-50.532828	0.000902	9.023457	3.057230	0.000361
1924	1.9134e+02	-3.3913	-50.278488	0.000639	6.387391	2.164107	0.000256
1925	1.9144e+02	-3.3336	-49.939369	0.000852	8.516521	2.885475	0.000341
1926	1.9154e+02	-3.2983	-49.660807	0.000700	6.995713	2.370212	0.000280
1927	1.9164e+02	-3.2791	-49.366096	0.000740	7.401262	2.507615	0.000296
1928	1.9174e+02	-3.2309	-49.091571	0.000689	6.894326	2.335861	0.000276
1929	1.9184e+02	-3.1876	-48.756488	0.000842	8.415134	2.851124	0.000337
1930	1.9194e+02	-3.1475	-48.445629	0.000781	7.806811	2.645019	0.000312
1931	1.9203e+02	-3.0994	-48.114584	0.000831	8.313746	2.816774	0.000333
1932	1.9213e+02	-3.0593	-47.827947	0.000720	7.198488	2.438914	0.000288
1933	1.9223e+02	-3.0256	-47.537273	0.000730	7.299875	2.473265	0.000292
1934	1.9233e+02	-2.9903	-47.210265	0.000821	8.212359	2.782423	0.000329
1935	1.9243e+02	-2.9502	-46.883257	0.000821	8.212359	2.782423	0.000329
1936	1.9253e+02	-2.9117	-46.612769	0.000679	6.792939	2.301510	0.000272
1937	1.9263e+02	-2.8684	-46.249427	0.000912	9.124844	3.091581	0.000365
1938	1.9273e+02	-2.8218	-45.991050	0.000649	6.488778	2.198457	0.000260
1939	1.9283e+02	-2.7962	-45.700377	0.000730	7.299875	2.473265	0.000292
1940	1.9293e+02	-2.7400	-45.353183	0.000872	8.719295	2.954177	0.000349
1941	1.9303e+02	-2.7015	-45.106918	0.000618	6.184616	2.095405	0.000248
1942	1.9313e+02	-2.6710	-44.751650	0.000892	8.922069	3.022879	0.000357
1943	1.9323e+02	-2.6261	-44.420605	0.000831	8.313746	2.816774	0.000333
1944	1.9333e+02	-2.5876	-44.138005	0.000710	7.097101	2.404563	0.000284
1945	1.9343e+02	-2.5523	-43.823108	0.000791	7.908198	2.679370	0.000316
1946	1.9353e+02	-2.5074	-43.532435	0.000730	7.299875	2.473265	0.000292
1947	1.9363e+02	-2.4689	-43.221575	0.000781	7.806811	2.645019	0.000312
1948	1.9373e+02	-2.4368	-42.890530	0.000831	8.313746	2.816774	0.000333
1949	1.9383e+02	-2.3983	-42.603893	0.000720	7.198488	2.438914	0.000288
1950	1.9393e+02	-2.3438	-42.264774	0.000852	8.516521	2.885475	0.000341
1951	1.9403e+02	-2.3053	-41.929692	0.000842	8.415134	2.851124	0.000337
1952	1.9412e+02	-2.2716	-41.647092	0.000710	7.097101	2.404563	0.000284
1953	1.9422e+02	-2.2331	-41.348344	0.000750	7.502649	2.541966	0.000300
1954	1.9432e+02	-2.1914	-40.985002	0.000912	9.124844	3.091581	0.000365
1955	1.9442e+02	-2.1513	-40.645883	0.000852	8.516521	2.885475	0.000341
1956	1.9452e+02	-2.1096	-40.359246	0.000720	7.198488	2.438914	0.000288
1957	1.9462e+02	-2.0711	-40.052424	0.000771	7.705424	2.610668	0.000308
1958	1.9472e+02	-2.0245	-39.745601	0.000771	7.705424	2.610668	0.000308
1959	1.9482e+02	-1.9892	-39.394371	0.000882	8.820682	2.988528	0.000353
1960	1.9492e+02	-1.9540	-39.039103	0.000892	8.922069	3.022879	0.000357
1961	1.9502e+02	-1.9122	-38.796874	0.000608	6.083229	2.061054	0.000243
1962	1.9512e+02	-1.8818	-38.453718	0.000862	8.617908	2.919826	0.000345
1963	1.9522e+02	-1.8288	-38.134784	0.000801	8.009585	2.713721	0.000321
1964	1.9532e+02	-1.7887	-37.811813	0.000811	8.110972	2.748072	0.000325
1965	1.9542e+02	-1.7566	-37.476731	0.000842	8.415134	2.851124	0.000337
1966	1.9552e+02	-1.7197	-37.173946	0.000760	7.604036	2.576317	0.000304
1967	1.9562e+02	-1.6796	-36.846938	0.000821	8.212359	2.782423	0.000329
1968	1.9572e+02	-1.6331	-36.483596	0.000912	9.124844	3.091581	0.000365
1969	1.9582e+02	-1.5978	-36.217145	0.000669	6.691552	2.267159	0.000268
1970	1.9592e+02	-1.5465	-35.869951	0.000872	8.719295	2.954177	0.000349
1971	1.9601e+02	-1.5064	-35.571203	0.000750	7.502649	2.541966	0.000300
1972	1.9611e+02	-1.4727	-35.236121	0.000842	8.415134	2.851124	0.000337
1973	1.9621e+02	-1.4278	-34.868741	0.000923	9.226231	3.125932	0.000369
1974	1.9631e+02	-1.3909	-34.598253	0.000679	6.792939	2.301510	0.000272
1975	1.9641e+02	-1.3427	-34.267208	0.000831	8.313746	2.816774	0.000333
1976	1.9651e+02	-1.3091	-33.952312	0.000791	7.908198	2.679370	0.000316
1977	1.9661e+02	-1.2866	-33.597044	0.000892	8.922069	3.022879	0.000357
1978	1.9671e+02	-1.2288	-33.270036	0.000821	8.212359	2.782423	0.000329
1979	1.9681e+02	-1.1935	-32.947065	0.000811	8.110972	2.748072	0.000325
1980	1.9691e+02	-1.1486	-32.591797	0.000892	8.922069	3.022879	0.000357
1981	1.9701e+02	-1.1101	-32.349569	0.000608	6.083229	2.061054	0.000243
1982	1.9711e+02	-1.0780	-31.974115	0.000943	9.429005	3.194633	0.000377
1983	1.9721e+02	-1.0363	-31.667293	0.000771	7.705424	2.610668	0.000308
1984	1.9731e+02	-0.9962	-31.340285	0.000821	8.212359	2.782423	0.000329
1985	1.9741e+02	-0.9561	-31.021351	0.000801	8.009585	2.713721	0.000321
1986	1.9751e+02	-0.9096	-30.682232	0.000852	8.516521	2.885475	0.000341
1987	1.9761e+02	-0.8711	-30.318889	0.000912	9.124844	3.091581	0.000365
1988	1.9771e+02	-0.8342	-30.032253	0.000720	7.198488	2.438914	0.000288
1989	1.9781e+02	-0.7893	-29.685059	0.000872	8.719295	2.954177	0.000349
1990	1.9791e+02	-0.7540	-29.345940	0.000852	8.516521	2.885475	0.000341
1991	1.9800e+02	-0.7043	-29.047192	0.000750	7.502649	2.541966	0.000300
1992	1.9810e+02	-0.6754	-28.744406	0.000760	7.604036	2.576317	0.000304
1993	1.9820e+02	-0.6369	-28.381064	0.000912	9.124844	3.091581	0.000365
1994	1.9830e+02	-0.6080	-28.054056	0.000821	8.212359	2.782423	0.000329
1995	1.9840e+02	-0.5599	-27.727048	0.000821	8.212359	2.782423	0.000329
1996	1.9850e+02	-0.5182	-27.436374	0.000730	7.299875	2.473265	0.000292
1997	1.9860e+02	-0.4732	-27.093218	0.000862	8.617908	2.919826	0.000345
1998	1.9870e+02	-0.4331	-26.746024	0.000872	8.719295	2.954177	0.000349
1999	1.9880e+02	-0.3850	-26.386719	0.000902	9.023457	3.057230	0.000361
2000	1.9890e+02	-0.3577	-26.100083	0.000720	7.198488	2.438914	0.000288
2001	1.9900e+02	-0.3241	-25.777112	0.000811	8.110972	2.748072	0.000325
2002	1.9910e+02	-0.2807	-25.429918	0.000872	8.719295	2.954177	0.000349
2003	1.9920e+02	-0.2406	-25.070613	0.000902	9.023457	3.057230	0.000361
2004	1.9930e+02	-0.1957	-24.771865	0.000750	7.502649	2.541966	0.000300
2005	1.9940e+02	-0.1572	-24.477154	0.000740	7.401262	2.507615	0.000296
2006	1.9950e+02	-0.1107	-24.121886	0.000892	8.922069	3.022879	0.000357
2007	1.9960e+02	-0.0754	-23.762581	0.000902	9.023457	3.057230	0.000361
2008	1.9970e+02	-0.0273	-23.431536	0.000831	8.313746	2.816774	0.000333
2009	1.9980e+02	0.0000	-23.108565	0.000831	8.313746	2.816774	0.000325

PMax (uC/cm2):	1.56e+02
Pr (uC/cm2):	1.47e+01
-Pr (uC/cm2):	-1.08e+01
PLoss (uC/cm2):	-1.07e+01
-Vc:	-1.76e+00
C (Max-Eff) (nF):	7.80e-01
K (Eff):	2.64e+03
Vert. (+/-Pr) Shift (uC/cm2):	1.94e+00
Offset (uC/cm2):	1.23e+01

A (Loop Area - uC/cm2·Volts):	7.75e-02



Hysteresis Version: 5.48.1 - Radiant Technologies, Inc., 1999 - 9/12/24

