»»»»»»»»»»»»»»»»»»»»»»»»»»»»»»»»»»»» Hysteresis ««««««««««««««««««««««««««««««««««««
»»»  Executed Version:	5.48.1
»»»  Vision Version:	5.48.4 (R)
»»»  Vision Compiled:	9/18/24
»»»  Driver Version:	5.47.0
»»»  Windows Version:	Windows 8 or 8.1
»»»  Processor Information:	x86 (AMD or Intel) - 32 Processors
»»»  Tester Name:	PMF21124-494 (100V)
»»»  Tester S/N:	PMF21124-494
»»»  Internal Amp Type:	100V RevK 270k
»»»  Internal Amp S/N:	iAB2-596/K     
»»»  Execution Count:	1
»»»»»»»»»»»»»»»»»»»»»»»»»»»»»»»»»»»»»»»»»»««««««««««««««««««««««««««««««««««««««««««

Stored:	6/18/2025 - 14:39:28
Configured:	06/18/25 09:47:30 AM
Executed:	06/18/25 02:38:34 PM

»»»»»»»»»»»»»»»»»»»»»»»»»»»»»»»»»»» Sample Info ««««««««««««««««««««««««««««««««««««
Sample Name:	
Lot Name:	
Wafer Name:	
Die Row/Column:	0/0
Capacitor Number:	0
Sample Area (cm2):	1.00e-04
Sample Thickness (microns):	3.00e-01

Amplifier:	Internal

»»»»»»»»»»»»»»»»»»»»»»»»»»»»»»»»»»» Tester Info «««««««««««««««««««««««««««««««««««
Tester Name:	PMF21124-494 (100V)
Tester Serial Number:	PMF21124-494
Return Signal Amp. Level:	0.19 [Index: 3]

»»»»»»»»»»»»»»»»»»»»»»»»»»»»»»»» Hysteresis Info ««««««««««««««««««««««««««««««««««
Task Name:	Hyst-554
Volts:	20.00
Field:	666.67 (kV/cm)
DCBias:	0.00
DCField:	0.00 (kV/cm)
Hysteresis Period (ms):	1.00e+00
Preset:	Enabled
Preset Delay (ms):	1.00e+03
Profile:	Standard Bipolar

»»»»»»»»»»»»»»»»»»»»»»»»»»»»»»»»»»»»»» Data «««««««««««««««««««««««««««««««««««««««
Points:	2001

Valid Data

Point	Time (ms)	Drive Voltage	Measured Polarization (uC/cm2)	Capacitance (uF)	Normalized Capacitance (uF/cm2)	Dielectric Constant	Instantaneous Current (mA)
   1	0.0000e+00	0.0112	-13.758916	0.000788	7.877982	2.669133	0.062916
   2	5.0000e-04	0.0273	-13.444334	0.000788	7.877982	2.669133	0.062916
   3	1.0000e-03	0.0497	-13.480632	-0.000091	-0.908998	-0.307977	-0.007260
   4	1.5000e-03	0.0866	-13.391904	0.000222	2.221995	0.752832	0.017746
   5	2.0000e-03	0.1332	-13.166050	0.000566	5.655987	1.916300	0.045171
   6	2.5000e-03	0.1652	-12.903899	0.000656	6.564985	2.224277	0.052430
   7	3.0000e-03	0.2037	-12.492523	0.001030	10.301976	3.490404	0.082275
   8	3.5000e-03	0.2551	-12.234405	0.000646	6.463985	2.190057	0.051624
   9	4.0000e-03	0.2888	-11.730267	0.001262	12.624971	4.277456	0.100827
  10	4.5000e-03	0.3321	-11.387454	0.000858	8.584980	2.908670	0.068563
  11	5.0000e-03	0.3770	-11.290660	0.000242	2.423994	0.821272	0.019359
  12	5.5000e-03	0.4107	-11.032541	0.000646	6.463985	2.190057	0.051624
  13	6.0000e-03	0.4588	-10.931714	0.000252	2.524994	0.855491	0.020165
  14	6.5000e-03	0.4941	-10.568735	0.000909	9.089979	3.079768	0.072596
  15	7.0000e-03	0.5374	-10.145260	0.001060	10.604976	3.593063	0.084695
  16	7.5000e-03	0.5743	-9.907307	0.000596	5.958986	2.018959	0.047591
  17	8.0000e-03	0.6048	-9.548361	0.000899	8.988979	3.045549	0.071789
  18	8.5000e-03	0.6449	-9.249912	0.000747	7.473983	2.532254	0.059690
  19	9.0000e-03	0.6914	-8.713510	0.001343	13.432969	4.551213	0.107280
  20	9.5000e-03	0.7363	-8.733675	-0.000050	-0.504999	-0.171098	-0.004033
  21	1.0000e-02	0.7700	-8.286001	0.001121	11.210974	3.798381	0.089535
  22	1.0500e-02	0.8053	-8.023850	0.000656	6.564985	2.224277	0.052430
  23	1.1000e-02	0.8502	-7.576176	0.001121	11.210974	3.798381	0.089535
  24	1.1500e-02	0.8984	-7.459216	0.000293	2.928993	0.992370	0.023392
  25	1.2000e-02	0.9289	-7.152700	0.000768	7.675982	2.600693	0.061303
  26	1.2500e-02	0.9722	-7.039774	0.000283	2.827994	0.958150	0.022585
  27	1.3000e-02	1.0059	-6.636464	0.001010	10.099977	3.421965	0.080662
  28	1.3500e-02	1.0604	-6.329948	0.000768	7.675982	2.600693	0.061303
  29	1.4000e-02	1.0909	-5.789513	0.001353	13.533969	4.585433	0.108087
  30	1.4500e-02	1.1326	-5.632222	0.000394	3.938991	1.334566	0.031458
  31	1.5000e-02	1.1711	-5.228912	0.001010	10.099977	3.421965	0.080662
  32	1.5500e-02	1.2096	-4.954662	0.000687	6.867984	2.326936	0.054850
  33	1.6000e-02	1.2545	-4.506988	0.001121	11.210974	3.798381	0.089535
  34	1.6500e-02	1.3026	-4.277101	0.000576	5.756987	1.950520	0.045977
  35	1.7000e-02	1.3315	-4.184340	0.000232	2.322995	0.787052	0.018552
  36	1.7500e-02	1.3636	-3.781030	0.001010	10.099977	3.421965	0.080662
  37	1.8000e-02	1.4053	-3.393852	0.000970	9.695978	3.285086	0.077435
  38	1.8500e-02	1.4486	-3.047006	0.000869	8.685980	2.942890	0.069369
  39	1.9000e-02	1.4903	-2.792921	0.000636	6.362985	2.155838	0.050817
  40	1.9500e-02	1.5353	-2.623531	0.000424	4.241990	1.437225	0.033878
  41	2.0000e-02	1.5738	-2.260552	0.000909	9.089979	3.079768	0.072596
  42	2.0500e-02	1.6155	-1.651554	0.001525	15.250965	5.167167	0.121800
  43	2.1000e-02	1.6492	-1.474098	0.000444	4.443990	1.505665	0.035491
  44	2.1500e-02	1.6957	-1.300674	0.000434	4.342990	1.471445	0.034685
  45	2.2000e-02	1.7294	-1.099019	0.000505	5.049988	1.710982	0.040331
  46	2.2500e-02	1.7663	-0.655379	0.001111	11.109975	3.764161	0.088728
  47	2.3000e-02	1.8176	-0.405326	0.000626	6.261986	2.121618	0.050010
  48	2.3500e-02	1.8545	0.215771	0.001555	15.553965	5.269826	0.124219
  49	2.4000e-02	1.8914	0.369029	0.000384	3.837991	1.300347	0.030652
  50	2.4500e-02	1.9443	0.409360	0.000101	1.009998	0.342196	0.008066
  51	2.5000e-02	1.9620	0.671511	0.000656	6.564985	2.224277	0.052430
  52	2.5500e-02	2.0101	1.086920	0.001040	10.402976	3.524624	0.083082
  53	2.6000e-02	2.0502	1.578958	0.001232	12.321972	4.174797	0.098408
  54	2.6500e-02	2.0983	1.740282	0.000404	4.039991	1.368786	0.032265
  55	2.7000e-02	2.1336	2.260552	0.001303	13.028970	4.414335	0.104054
  56	2.7500e-02	2.1705	2.530769	0.000677	6.766985	2.292716	0.054044
  57	2.8000e-02	2.2042	2.817119	0.000717	7.170984	2.429595	0.057270
  58	2.8500e-02	2.2572	2.982476	0.000414	4.140991	1.403006	0.033071
  59	2.9000e-02	2.2924	3.345455	0.000909	9.089979	3.079768	0.072596
  60	2.9500e-02	2.3390	3.603574	0.000646	6.463985	2.190057	0.051624
  61	3.0000e-02	2.3630	3.910089	0.000768	7.675982	2.600693	0.061303
  62	3.0500e-02	2.4176	4.519087	0.001525	15.250965	5.167167	0.121800
  63	3.1000e-02	2.4497	4.700576	0.000454	4.544990	1.539884	0.036298
  64	3.1500e-02	2.4898	4.934496	0.000586	5.857987	1.984740	0.046784
  65	3.2000e-02	2.5347	5.232945	0.000747	7.473983	2.532254	0.059690
  66	3.2500e-02	2.5732	5.660454	0.001071	10.705976	3.627283	0.085502
  67	3.3000e-02	2.5940	6.047631	0.000970	9.695978	3.285086	0.077435
  68	3.3500e-02	2.6502	6.317849	0.000677	6.766985	2.292716	0.054044
  69	3.4000e-02	2.6951	6.749391	0.001081	10.806975	3.661502	0.086308
  70	3.4500e-02	2.7304	7.043807	0.000737	7.372983	2.498034	0.058883
  71	3.5000e-02	2.7705	7.362421	0.000798	7.978982	2.703352	0.063723
  72	3.5500e-02	2.8138	7.378554	0.000040	0.403999	0.136879	0.003226
  73	3.6000e-02	2.8539	7.785897	0.001020	10.200977	3.456184	0.081469
  74	3.6500e-02	2.8860	8.233571	0.001121	11.210974	3.798381	0.089535
  75	3.7000e-02	2.9277	8.503788	0.000677	6.766985	2.292716	0.054044
  76	3.7500e-02	2.9775	8.951462	0.001121	11.210974	3.798381	0.089535
  77	3.8000e-02	3.0144	9.310408	0.000899	8.988979	3.045549	0.071789
  78	3.8500e-02	3.0577	9.503997	0.000485	4.847989	1.642543	0.038718
  79	3.9000e-02	3.0898	9.818579	0.000788	7.877982	2.669133	0.062916
  80	3.9500e-02	3.1347	9.987969	0.000424	4.241990	1.437225	0.033878
  81	4.0000e-02	3.1828	10.209789	0.000555	5.554987	1.882081	0.044364
  82	4.0500e-02	3.2085	10.601000	0.000980	9.796978	3.319306	0.078242
  83	4.1000e-02	3.2534	11.230163	0.001576	15.755964	5.338265	0.125833
  84	4.1500e-02	3.3015	11.399553	0.000424	4.241990	1.437225	0.033878
  85	4.2000e-02	3.3304	11.544745	0.000364	3.635992	1.231907	0.029038
  86	4.2500e-02	3.3785	11.948055	0.001010	10.099977	3.421965	0.080662
  87	4.3000e-02	3.4122	12.157776	0.000525	5.251988	1.779422	0.041944
  88	4.3500e-02	3.4411	12.641748	0.001212	12.119972	4.106358	0.096794
  89	4.4000e-02	3.4892	13.113620	0.001182	11.816973	4.003699	0.094375
  90	4.4500e-02	3.5341	13.420136	0.000768	7.675982	2.600693	0.061303
  91	4.5000e-02	3.5694	13.742783	0.000808	8.079982	2.737572	0.064530
  92	4.5500e-02	3.6175	13.908141	0.000414	4.140991	1.403006	0.033071
  93	4.6000e-02	3.6577	14.150126	0.000606	6.059986	2.053179	0.048397
  94	4.6500e-02	3.6945	14.468741	0.000798	7.978982	2.703352	0.063723
  95	4.7000e-02	3.7282	14.771224	0.000757	7.574983	2.566474	0.060496
  96	4.7500e-02	3.7732	15.299560	0.001323	13.230970	4.482774	0.105667
  97	4.8000e-02	3.8197	15.489115	0.000475	4.746989	1.608323	0.037911
  98	4.8500e-02	3.8598	15.795631	0.000768	7.675982	2.600693	0.061303
  99	4.9000e-02	3.9015	16.110212	0.000788	7.877982	2.669133	0.062916
 100	4.9500e-02	3.9336	16.497390	0.000970	9.695978	3.285086	0.077435
 101	5.0000e-02	3.9689	16.795839	0.000747	7.473983	2.532254	0.059690
 102	5.0500e-02	4.0186	17.146719	0.000879	8.786980	2.977109	0.070176
 103	5.1000e-02	4.0443	17.529863	0.000959	9.594978	3.250867	0.076629
 104	5.1500e-02	4.0940	18.050133	0.001303	13.028970	4.414335	0.104054
 105	5.2000e-02	4.1261	17.993669	-0.000141	-1.413997	-0.479075	-0.011293
 106	5.2500e-02	4.1694	18.534105	0.001353	13.533969	4.585433	0.108087
 107	5.3000e-02	4.2159	18.715594	0.000454	4.544990	1.539884	0.036298
 108	5.3500e-02	4.2528	19.102772	0.000970	9.695978	3.285086	0.077435
 109	5.4000e-02	4.2945	19.235864	0.000333	3.332992	1.129248	0.026618
 110	5.4500e-02	4.3282	19.562545	0.000818	8.180981	2.771792	0.065336
 111	5.5000e-02	4.3683	20.030384	0.001172	11.715973	3.969479	0.093568
 112	5.5500e-02	4.4165	20.252205	0.000555	5.554987	1.882081	0.044364
 113	5.6000e-02	4.4582	20.611150	0.000899	8.988979	3.045549	0.071789
 114	5.6500e-02	4.4919	21.062857	0.001131	11.311974	3.832601	0.090341
 115	5.7000e-02	4.5336	21.228214	0.000414	4.140991	1.403006	0.033071
 116	5.7500e-02	4.5705	21.760584	0.001333	13.331970	4.516994	0.106474
 117	5.8000e-02	4.6266	21.986437	0.000566	5.655987	1.916300	0.045171
 118	5.8500e-02	4.6555	22.216324	0.000576	5.756987	1.950520	0.045977
 119	5.9000e-02	4.6908	22.639799	0.001060	10.604976	3.593063	0.084695
 120	5.9500e-02	4.7389	22.901950	0.000656	6.564985	2.224277	0.052430
 121	6.0000e-02	4.7710	23.216532	0.000788	7.877982	2.669133	0.062916
 122	6.0500e-02	4.8063	23.539180	0.000808	8.079982	2.737572	0.064530
 123	6.1000e-02	4.8544	23.797298	0.000646	6.463985	2.190057	0.051624
 124	6.1500e-02	4.9009	24.269171	0.001182	11.816973	4.003699	0.094375
 125	6.2000e-02	4.9250	24.523256	0.000636	6.362985	2.155838	0.050817
 126	6.2500e-02	4.9763	24.890268	0.000919	9.190979	3.113988	0.073402
 127	6.3000e-02	5.0068	25.366174	0.001192	11.917973	4.037918	0.095181
 128	6.3500e-02	5.0469	25.765450	0.001000	9.998977	3.387745	0.079855
 129	6.4000e-02	5.0934	26.055834	0.000727	7.271983	2.463815	0.058077
 130	6.4500e-02	5.1255	26.326051	0.000677	6.766985	2.292716	0.054044
 131	6.5000e-02	5.1817	26.604335	0.000697	6.968984	2.361156	0.055657
 132	6.5500e-02	5.2057	26.818089	0.000535	5.352988	1.813641	0.042751
 133	6.6000e-02	5.2523	27.084274	0.000667	6.665985	2.258497	0.053237
 134	6.6500e-02	5.2924	27.636808	0.001384	13.836968	4.688092	0.110507
 135	6.7000e-02	5.3261	27.866695	0.000576	5.756987	1.950520	0.045977
 136	6.7500e-02	5.3710	28.249839	0.000959	9.594978	3.250867	0.076629
 137	6.8000e-02	5.4143	28.378898	0.000323	3.231993	1.095029	0.025812
 138	6.8500e-02	5.4464	28.846738	0.001172	11.715973	3.969479	0.093568
 139	6.9000e-02	5.4849	29.092757	0.000616	6.160986	2.087399	0.049204
 140	6.9500e-02	5.5234	29.367007	0.000687	6.867984	2.326936	0.054850
 141	7.0000e-02	5.5667	29.689655	0.000808	8.079982	2.737572	0.064530
 142	7.0500e-02	5.6148	29.971972	0.000707	7.069984	2.395375	0.056463
 143	7.1000e-02	5.6517	30.472076	0.001252	12.523971	4.243236	0.100021
 144	7.1500e-02	5.6966	30.843122	0.000929	9.291979	3.148208	0.074209
 145	7.2000e-02	5.7319	31.234332	0.000980	9.796978	3.319306	0.078242
 146	7.2500e-02	5.7784	31.484384	0.000626	6.261986	2.121618	0.050010
 147	7.3000e-02	5.8153	31.686039	0.000505	5.049988	1.710982	0.040331
 148	7.3500e-02	5.8554	31.944157	0.000646	6.463985	2.190057	0.051624
 149	7.4000e-02	5.8907	32.242607	0.000747	7.473983	2.532254	0.059690
 150	7.4500e-02	5.9228	32.714479	0.001182	11.816973	4.003699	0.094375
 151	7.5000e-02	5.9694	33.206517	0.001232	12.321972	4.174797	0.098408
 152	7.5500e-02	6.0111	33.371874	0.000414	4.140991	1.403006	0.033071
 153	7.6000e-02	6.0431	33.726787	0.000889	8.887980	3.011329	0.070983
 154	7.6500e-02	6.0945	34.049435	0.000808	8.079982	2.737572	0.064530
 155	7.7000e-02	6.1346	34.585837	0.001343	13.432969	4.551213	0.107280
 156	7.7500e-02	6.1651	34.839922	0.000636	6.362985	2.155838	0.050817
 157	7.8000e-02	6.2100	35.150471	0.000778	7.776982	2.634913	0.062110
 158	7.8500e-02	6.2533	35.319861	0.000424	4.241990	1.437225	0.033878
 159	7.9000e-02	6.2918	35.686873	0.000919	9.190979	3.113988	0.073402
 160	7.9500e-02	6.3415	35.844164	0.000394	3.938991	1.334566	0.031458
 161	8.0000e-02	6.3720	36.211176	0.000919	9.190979	3.113988	0.073402
 162	8.0500e-02	6.4105	36.606419	0.000990	9.897977	3.353526	0.079049
 163	8.1000e-02	6.4458	37.364642	0.001899	18.987957	6.433294	0.151645
 164	8.1500e-02	6.4923	37.388841	0.000061	0.605999	0.205318	0.004840
 165	8.2000e-02	6.5356	37.485635	0.000242	2.423994	0.821272	0.019359
 166	8.2500e-02	6.5709	37.667124	0.000454	4.544990	1.539884	0.036298
 167	8.3000e-02	6.6110	38.062368	0.000990	9.897977	3.353526	0.079049
 168	8.3500e-02	6.6576	38.768160	0.001767	17.674960	5.988438	0.141158
 169	8.4000e-02	6.6913	38.921418	0.000384	3.837991	1.300347	0.030652
 170	8.4500e-02	6.7346	39.223900	0.000757	7.574983	2.566474	0.060496
 171	8.5000e-02	6.7650	39.615111	0.000980	9.796978	3.319306	0.078242
 172	8.5500e-02	6.8068	39.978090	0.000909	9.089979	3.079768	0.072596
 173	8.6000e-02	6.8453	40.333003	0.000889	8.887980	3.011329	0.070983
 174	8.6500e-02	6.8934	40.470128	0.000343	3.433992	1.163468	0.027425
 175	8.7000e-02	6.9367	41.002497	0.001333	13.331970	4.516994	0.106474
 176	8.7500e-02	6.9704	41.280781	0.000697	6.968984	2.361156	0.055657
 177	8.8000e-02	7.0121	41.454204	0.000434	4.342990	1.471445	0.034685
 178	8.8500e-02	7.0522	41.788951	0.000838	8.382981	2.840231	0.066949
 179	8.9000e-02	7.0971	42.208393	0.001050	10.503976	3.558843	0.083888
 180	8.9500e-02	7.1276	42.664134	0.001141	11.412974	3.866820	0.091148
 181	9.0000e-02	7.1709	42.942417	0.000697	6.968984	2.361156	0.055657
 182	9.0500e-02	7.2142	43.168271	0.000566	5.655987	1.916300	0.045171
 183	9.1000e-02	7.2447	43.414290	0.000616	6.160986	2.087399	0.049204
 184	9.1500e-02	7.2864	43.660309	0.000616	6.160986	2.087399	0.049204
 185	9.2000e-02	7.3281	44.079751	0.001050	10.503976	3.558843	0.083888
 186	9.2500e-02	7.3763	44.479028	0.001000	9.998977	3.387745	0.079855
 187	9.3000e-02	7.4019	44.946867	0.001172	11.715973	3.969479	0.093568
 188	9.3500e-02	7.4565	45.132390	0.000465	4.645989	1.574104	0.037105
 189	9.4000e-02	7.4934	45.305813	0.000434	4.342990	1.471445	0.034685
 190	9.4500e-02	7.5319	45.624428	0.000798	7.978982	2.703352	0.063723
 191	9.5000e-02	7.5752	46.096300	0.001182	11.816973	4.003699	0.094375
 192	9.5500e-02	7.6169	46.495577	0.001000	9.998977	3.387745	0.079855
 193	9.6000e-02	7.6506	46.870655	0.000939	9.392979	3.182427	0.075016
 194	9.6500e-02	7.6955	46.963417	0.000232	2.322995	0.787052	0.018552
 195	9.7000e-02	7.7356	47.390925	0.001071	10.705976	3.627283	0.085502
 196	9.7500e-02	7.7821	47.713573	0.000808	8.079982	2.737572	0.064530
 197	9.8000e-02	7.8206	48.007989	0.000737	7.372983	2.498034	0.058883
 198	9.8500e-02	7.8591	48.036221	0.000071	0.706998	0.239538	0.005646
 199	9.9000e-02	7.8944	48.512127	0.001192	11.917973	4.037918	0.095181
 200	9.9500e-02	7.9249	48.879139	0.000919	9.190979	3.113988	0.073402
 201	1.0000e-01	7.9698	49.149356	0.000677	6.766985	2.292716	0.054044
 202	1.0050e-01	8.0115	49.508302	0.000899	8.988979	3.045549	0.071789
 203	1.0100e-01	8.0484	49.951943	0.001111	11.109975	3.764161	0.088728
 204	1.0150e-01	8.0950	50.121333	0.000424	4.241990	1.437225	0.033878
 205	1.0200e-01	8.1431	50.492378	0.000929	9.291979	3.148208	0.074209
 206	1.0250e-01	8.1736	50.698066	0.000515	5.150988	1.745202	0.041138
 207	1.0300e-01	8.2137	51.008615	0.000778	7.776982	2.634913	0.062110
 208	1.0350e-01	8.2570	51.375627	0.000919	9.190979	3.113988	0.073402
 209	1.0400e-01	8.2891	51.645844	0.000677	6.766985	2.292716	0.054044
 210	1.0450e-01	8.3260	52.020922	0.000939	9.392979	3.182427	0.075016
 211	1.0500e-01	8.3677	52.331471	0.000778	7.776982	2.634913	0.062110
 212	1.0550e-01	8.4094	52.730748	0.001000	9.998977	3.387745	0.079855
 213	1.0600e-01	8.4511	52.843674	0.000283	2.827994	0.958150	0.022585
 214	1.0650e-01	8.4912	53.327646	0.001212	12.119972	4.106358	0.096794
 215	1.0700e-01	8.5265	53.747089	0.001050	10.503976	3.558843	0.083888
 216	1.0750e-01	8.5730	53.771287	0.000061	0.605999	0.205318	0.004840
 217	1.0800e-01	8.6051	54.190729	0.001050	10.503976	3.558843	0.083888
 218	1.0850e-01	8.6484	54.702933	0.001283	12.826971	4.345895	0.102441
 219	1.0900e-01	8.6901	54.985250	0.000707	7.069984	2.395375	0.056463
 220	1.0950e-01	8.7367	55.319997	0.000838	8.382981	2.840231	0.066949
 221	1.1000e-01	8.7735	55.529718	0.000525	5.251988	1.779422	0.041944
 222	1.1050e-01	8.8153	55.844300	0.000788	7.877982	2.669133	0.062916
 223	1.1100e-01	8.8554	56.170981	0.000818	8.180981	2.771792	0.065336
 224	1.1150e-01	8.9003	56.501695	0.000828	8.281981	2.806011	0.066143
 225	1.1200e-01	8.9276	57.046163	0.001363	13.634969	4.619653	0.108894
 226	1.1250e-01	8.9757	57.280083	0.000586	5.857987	1.984740	0.046784
 227	1.1300e-01	9.0110	57.639029	0.000899	8.988979	3.045549	0.071789
 228	1.1350e-01	9.0575	57.675327	0.000091	0.908998	0.307977	0.007260
 229	1.1400e-01	9.0976	58.014107	0.000848	8.483981	2.874450	0.067756
 230	1.1450e-01	9.1249	58.300457	0.000717	7.170984	2.429595	0.057270
 231	1.1500e-01	9.1682	58.611005	0.000778	7.776982	2.634913	0.062110
 232	1.1550e-01	9.2115	59.127242	0.001293	12.927971	4.380115	0.103247
 233	1.1600e-01	9.2532	59.457956	0.000828	8.281981	2.806011	0.066143
 234	1.1650e-01	9.2901	59.550717	0.000232	2.322995	0.787052	0.018552
 235	1.1700e-01	9.3254	60.046789	0.001242	12.422972	4.209017	0.099214
 236	1.1750e-01	9.3735	60.506562	0.001151	11.513974	3.901040	0.091955
 237	1.1800e-01	9.4120	60.768713	0.000656	6.564985	2.224277	0.052430
 238	1.1850e-01	9.4586	61.123626	0.000889	8.887980	3.011329	0.070983
 239	1.1900e-01	9.4842	61.272851	0.000374	3.736991	1.266127	0.029845
 240	1.1950e-01	9.5340	61.559201	0.000717	7.170984	2.429595	0.057270
 241	1.2000e-01	9.5821	62.035106	0.001192	11.917973	4.037918	0.095181
 242	1.2050e-01	9.6286	62.264993	0.000576	5.756987	1.950520	0.045977
 243	1.2100e-01	9.6511	62.543277	0.000697	6.968984	2.361156	0.055657
 244	1.2150e-01	9.6896	63.019182	0.001192	11.917973	4.037918	0.095181
 245	1.2200e-01	9.7361	63.200672	0.000454	4.544990	1.539884	0.036298
 246	1.2250e-01	9.7826	63.664478	0.001161	11.614973	3.935260	0.092761
 247	1.2300e-01	9.8083	63.809670	0.000364	3.635992	1.231907	0.029038
 248	1.2350e-01	9.8532	63.926629	0.000293	2.928993	0.992370	0.023392
 249	1.2400e-01	9.8869	64.608223	0.001707	17.068961	5.783121	0.136319
 250	1.2450e-01	9.9286	64.918772	0.000778	7.776982	2.634913	0.062110
 251	1.2500e-01	9.9687	65.197055	0.000697	6.968984	2.361156	0.055657
 252	1.2550e-01	10.0104	65.241420	0.000111	1.110997	0.376416	0.008873
 253	1.2600e-01	10.0489	65.527770	0.000717	7.170984	2.429595	0.057270
 254	1.2650e-01	10.0922	65.878649	0.000879	8.786980	2.977109	0.070176
 255	1.2700e-01	10.1307	66.330356	0.001131	11.311974	3.832601	0.090341
 256	1.2750e-01	10.1789	66.769964	0.001101	11.008975	3.729942	0.087922
 257	1.2800e-01	10.2142	66.919189	0.000374	3.736991	1.266127	0.029845
 258	1.2850e-01	10.2527	67.153108	0.000586	5.857987	1.984740	0.046784
 259	1.2900e-01	10.2992	67.443491	0.000727	7.271983	2.463815	0.058077
 260	1.2950e-01	10.3393	67.657246	0.000535	5.352988	1.813641	0.042751
 261	1.3000e-01	10.3698	68.197681	0.001353	13.533969	4.585433	0.108087
 262	1.3050e-01	10.4051	68.471932	0.000687	6.867984	2.326936	0.054850
 263	1.3100e-01	10.4532	68.830877	0.000899	8.988979	3.045549	0.071789
 264	1.3150e-01	10.4981	68.984135	0.000384	3.837991	1.300347	0.030652
 265	1.3200e-01	10.5222	69.343081	0.000899	8.988979	3.045549	0.071789
 266	1.3250e-01	10.5687	69.855284	0.001283	12.826971	4.345895	0.102441
 267	1.3300e-01	10.6072	69.895615	0.000101	1.009998	0.342196	0.008066
 268	1.3350e-01	10.6537	70.202131	0.000768	7.675982	2.600693	0.061303
 269	1.3400e-01	10.6954	70.669970	0.001172	11.715973	3.969479	0.093568
 270	1.3450e-01	10.7275	70.996651	0.000818	8.180981	2.771792	0.065336
 271	1.3500e-01	10.7644	71.403994	0.001020	10.200977	3.456184	0.081469
 272	1.3550e-01	10.8141	71.815370	0.001030	10.301976	3.490404	0.082275
 273	1.3600e-01	10.8542	71.815370	0.000000	0.000000	0.000000	0.000000
 274	1.3650e-01	10.8959	72.234813	0.001050	10.503976	3.558843	0.083888
 275	1.3700e-01	10.9361	72.371938	0.000343	3.433992	1.163468	0.027425
 276	1.3750e-01	10.9681	72.525196	0.000384	3.837991	1.300347	0.030652
 277	1.3800e-01	11.0066	73.025300	0.001252	12.523971	4.243236	0.100021
 278	1.3850e-01	11.0451	73.472974	0.001121	11.210974	3.798381	0.089535
 279	1.3900e-01	11.0933	73.827886	0.000889	8.887980	3.011329	0.070983
 280	1.3950e-01	11.1334	74.061806	0.000586	5.857987	1.984740	0.046784
 281	1.4000e-01	11.1703	74.368322	0.000768	7.675982	2.600693	0.061303
 282	1.4050e-01	11.2120	74.610308	0.000606	6.059986	2.053179	0.048397
 283	1.4100e-01	11.2457	75.066048	0.001141	11.412974	3.866820	0.091148
 284	1.4150e-01	11.2954	75.424994	0.000899	8.988979	3.045549	0.071789
 285	1.4200e-01	11.3275	75.477424	0.000131	1.312997	0.444855	0.010486
 286	1.4250e-01	11.3708	75.566152	0.000222	2.221995	0.752832	0.017746
 287	1.4300e-01	11.4125	76.066256	0.001252	12.523971	4.243236	0.100021
 288	1.4350e-01	11.4526	76.489732	0.001060	10.604976	3.593063	0.084695
 289	1.4400e-01	11.4959	76.739784	0.000626	6.261986	2.121618	0.050010
 290	1.4450e-01	11.5409	76.848677	0.000273	2.726994	0.923931	0.021779
 291	1.4500e-01	11.5713	77.211656	0.000909	9.089979	3.079768	0.072596
 292	1.4550e-01	11.6066	77.566569	0.000889	8.887980	3.011329	0.070983
 293	1.4600e-01	11.6499	77.856952	0.000727	7.271983	2.463815	0.058077
 294	1.4650e-01	11.6868	78.441751	0.001464	14.644967	4.961849	0.116960
 295	1.4700e-01	11.7285	78.623241	0.000454	4.544990	1.539884	0.036298
 296	1.4750e-01	11.7687	79.042683	0.001050	10.503976	3.558843	0.083888
 297	1.4800e-01	11.8120	79.320967	0.000697	6.968984	2.361156	0.055657
 298	1.4850e-01	11.8553	79.506489	0.000465	4.645989	1.574104	0.037105
 299	1.4900e-01	11.8954	79.804939	0.000747	7.473983	2.532254	0.059690
 300	1.4950e-01	11.9323	80.180017	0.000939	9.392979	3.182427	0.075016
 301	1.5000e-01	11.9724	80.216315	0.000091	0.908998	0.307977	0.007260
 302	1.5050e-01	12.0125	80.563161	0.000869	8.685980	2.942890	0.069369
 303	1.5100e-01	12.0510	81.047133	0.001212	12.119972	4.106358	0.096794
 304	1.5150e-01	12.0895	81.502873	0.001141	11.412974	3.866820	0.091148
 305	1.5200e-01	12.1248	81.559336	0.000141	1.413997	0.479075	0.011293
 306	1.5250e-01	12.1713	81.861819	0.000757	7.574983	2.566474	0.060496
 307	1.5300e-01	12.2098	82.172367	0.000778	7.776982	2.634913	0.062110
 308	1.5350e-01	12.2579	82.321592	0.000374	3.736991	1.266127	0.029845
 309	1.5400e-01	12.2836	82.914458	0.001485	14.846966	5.030288	0.118573
 310	1.5450e-01	12.3366	83.132245	0.000545	5.453988	1.847861	0.043557
 311	1.5500e-01	12.3767	83.450860	0.000798	7.978982	2.703352	0.063723
 312	1.5550e-01	12.4119	83.688813	0.000596	5.958986	2.018959	0.047591
 313	1.5600e-01	12.4569	83.975163	0.000717	7.170984	2.429595	0.057270
 314	1.5650e-01	12.4986	84.257479	0.000707	7.069984	2.395375	0.056463
 315	1.5700e-01	12.5403	84.309910	0.000131	1.312997	0.444855	0.010486
 316	1.5750e-01	12.5708	84.854378	0.001363	13.634969	4.619653	0.108894
 317	1.5800e-01	12.6077	85.185092	0.000828	8.281981	2.806011	0.066143
 318	1.5850e-01	12.6686	85.354482	0.000424	4.241990	1.437225	0.033878
 319	1.5900e-01	12.6895	85.689229	0.000838	8.382981	2.840231	0.066949
 320	1.5950e-01	12.7376	86.245797	0.001394	13.937968	4.722311	0.111314
 321	1.6000e-01	12.7665	86.362757	0.000293	2.928993	0.992370	0.023392
 322	1.6050e-01	12.8098	86.580544	0.000545	5.453988	1.847861	0.043557
 323	1.6100e-01	12.8483	86.802365	0.000555	5.554987	1.882081	0.044364
 324	1.6150e-01	12.8836	87.423462	0.001555	15.553965	5.269826	0.124219
 325	1.6200e-01	12.9269	87.540422	0.000293	2.928993	0.992370	0.023392
 326	1.6250e-01	12.9654	87.746110	0.000515	5.150988	1.745202	0.041138
 327	1.6300e-01	13.0071	87.931632	0.000465	4.645989	1.574104	0.037105
 328	1.6350e-01	13.0456	88.326876	0.000990	9.897977	3.353526	0.079049
 329	1.6400e-01	13.0905	88.645491	0.000798	7.978982	2.703352	0.063723
 330	1.6450e-01	13.1274	89.008470	0.000909	9.089979	3.079768	0.072596
 331	1.6500e-01	13.1675	89.387581	0.000949	9.493978	3.216647	0.075822
 332	1.6550e-01	13.2157	89.750560	0.000909	9.089979	3.079768	0.072596
 333	1.6600e-01	13.2542	89.770725	0.000050	0.504999	0.171098	0.004033
 334	1.6650e-01	13.2863	90.230498	0.001151	11.513974	3.901040	0.091955
 335	1.6700e-01	13.3312	90.367624	0.000343	3.433992	1.163468	0.027425
 336	1.6750e-01	13.3681	90.734636	0.000919	9.190979	3.113988	0.073402
 337	1.6800e-01	13.4034	91.109714	0.000939	9.392979	3.182427	0.075016
 338	1.6850e-01	13.4483	91.331534	0.000555	5.554987	1.882081	0.044364
 339	1.6900e-01	13.4852	91.791308	0.001151	11.513974	3.901040	0.091955
 340	1.6950e-01	13.5237	91.896168	0.000263	2.625994	0.889711	0.020972
 341	1.7000e-01	13.5718	92.335776	0.001101	11.008975	3.729942	0.087922
 342	1.7050e-01	13.6087	92.372074	0.000091	0.908998	0.307977	0.007260
 343	1.7100e-01	13.6440	92.787483	0.001040	10.402976	3.524624	0.083082
 344	1.7150e-01	13.6937	93.085932	0.000747	7.473983	2.532254	0.059690
 345	1.7200e-01	13.7306	93.283554	0.000495	4.948989	1.676763	0.039524
 346	1.7250e-01	13.7691	93.775592	0.001232	12.321972	4.174797	0.098408
 347	1.7300e-01	13.8108	93.924817	0.000374	3.736991	1.266127	0.029845
 348	1.7350e-01	13.8526	94.166803	0.000606	6.059986	2.053179	0.048397
 349	1.7400e-01	13.8894	94.594311	0.001071	10.705976	3.627283	0.085502
 350	1.7450e-01	13.9247	95.005687	0.001030	10.301976	3.490404	0.082275
 351	1.7500e-01	13.9761	94.961323	-0.000111	-1.110997	-0.376416	-0.008873
 352	1.7550e-01	14.0082	95.473527	0.001283	12.826971	4.345895	0.102441
 353	1.7600e-01	14.0531	95.759877	0.000717	7.170984	2.429595	0.057270
 354	1.7650e-01	14.0852	95.981697	0.000555	5.554987	1.882081	0.044364
 355	1.7700e-01	14.1269	96.280146	0.000747	7.473983	2.532254	0.059690
 356	1.7750e-01	14.1718	96.526165	0.000616	6.160986	2.087399	0.049204
 357	1.7800e-01	14.2039	96.804449	0.000697	6.968984	2.361156	0.055657
 358	1.7850e-01	14.2472	97.344884	0.001353	13.533969	4.585433	0.108087
 359	1.7900e-01	14.2969	97.469910	0.000313	3.130993	1.060809	0.025005
 360	1.7950e-01	14.3290	97.566705	0.000242	2.423994	0.821272	0.019359
 361	1.8000e-01	14.3723	98.212001	0.001616	16.159963	5.475144	0.129059
 362	1.8050e-01	14.4060	98.474152	0.000656	6.564985	2.224277	0.052430
 363	1.8100e-01	14.4445	98.631443	0.000394	3.938991	1.334566	0.031458
 364	1.8150e-01	14.4894	99.042819	0.001030	10.301976	3.490404	0.082275
 365	1.8200e-01	14.5343	99.175911	0.000333	3.332992	1.129248	0.026618
 366	1.8250e-01	14.5552	99.462261	0.000717	7.170984	2.429595	0.057270
 367	1.8300e-01	14.6130	99.692148	0.000576	5.756987	1.950520	0.045977
 368	1.8350e-01	14.6531	99.930101	0.000596	5.958986	2.018959	0.047591
 369	1.8400e-01	14.6851	100.430205	0.001252	12.523971	4.243236	0.100021
 370	1.8450e-01	14.7253	100.853680	0.001060	10.604976	3.593063	0.084695
 371	1.8500e-01	14.7734	101.002905	0.000374	3.736991	1.266127	0.029845
 372	1.8550e-01	14.8071	101.305387	0.000757	7.574983	2.566474	0.060496
 373	1.8600e-01	14.8472	101.523175	0.000545	5.453988	1.847861	0.043557
 374	1.8650e-01	14.8937	101.712730	0.000475	4.746989	1.608323	0.037911
 375	1.8700e-01	14.9258	101.902286	0.000475	4.746989	1.608323	0.037911
 376	1.8750e-01	14.9707	102.261232	0.000899	8.988979	3.045549	0.071789
 377	1.8800e-01	15.0108	102.664541	0.001010	10.099977	3.421965	0.080662
 378	1.8850e-01	15.0541	103.100116	0.001091	10.907975	3.695722	0.087115
 379	1.8900e-01	15.0894	103.261440	0.000404	4.039991	1.368786	0.032265
 380	1.8950e-01	15.1247	103.608287	0.000869	8.685980	2.942890	0.069369
 381	1.9000e-01	15.1680	103.862372	0.000636	6.362985	2.155838	0.050817
 382	1.9050e-01	15.2081	104.148722	0.000717	7.170984	2.429595	0.057270
 383	1.9100e-01	15.2466	104.491535	0.000858	8.584980	2.908670	0.068563
 384	1.9150e-01	15.2867	104.818216	0.000818	8.180981	2.771792	0.065336
 385	1.9200e-01	15.3284	104.789984	-0.000071	-0.706998	-0.239538	-0.005646
 386	1.9250e-01	15.3669	104.955341	0.000414	4.140991	1.403006	0.033071
 387	1.9300e-01	15.4247	105.334453	0.000949	9.493978	3.216647	0.075822
 388	1.9350e-01	15.4439	105.749862	0.001040	10.402976	3.524624	0.083082
 389	1.9400e-01	15.4889	106.076543	0.000818	8.180981	2.771792	0.065336
 390	1.9450e-01	15.5306	106.532283	0.001141	11.412974	3.866820	0.091148
 391	1.9500e-01	15.5643	106.528250	-0.000010	-0.101000	-0.034220	-0.000807
 392	1.9550e-01	15.6076	106.794434	0.000667	6.665985	2.258497	0.053237
 393	1.9600e-01	15.6429	107.109016	0.000788	7.877982	2.669133	0.062916
 394	1.9650e-01	15.6846	107.234042	0.000313	3.130993	1.060809	0.025005
 395	1.9700e-01	15.7295	107.826908	0.001485	14.846966	5.030288	0.118573
 396	1.9750e-01	15.7664	107.806742	-0.000050	-0.504999	-0.171098	-0.004033
 397	1.9800e-01	15.8049	108.343144	0.001343	13.432969	4.551213	0.107280
 398	1.9850e-01	15.8578	108.540766	0.000495	4.948989	1.676763	0.039524
 399	1.9900e-01	15.8819	108.931977	0.000980	9.796978	3.319306	0.078242
 400	1.9950e-01	15.9284	109.153797	0.000555	5.554987	1.882081	0.044364
 401	2.0000e-01	15.9701	109.500644	0.000869	8.685980	2.942890	0.069369
 402	2.0050e-01	15.9990	109.819258	0.000798	7.978982	2.703352	0.063723
 403	2.0100e-01	16.0423	110.182237	0.000909	9.089979	3.079768	0.072596
 404	2.0150e-01	16.0937	110.375826	0.000485	4.847989	1.642543	0.038718
 405	2.0200e-01	16.1402	110.553282	0.000444	4.443990	1.505665	0.035491
 406	2.0250e-01	16.1691	110.561349	0.000020	0.202000	0.068439	0.001613
 407	2.0300e-01	16.2076	110.992890	0.001081	10.806975	3.661502	0.086308
 408	2.0350e-01	16.2396	111.573656	0.001454	14.543967	4.927629	0.116153
 409	2.0400e-01	16.2926	111.831775	0.000646	6.463985	2.190057	0.051624
 410	2.0450e-01	16.3327	112.061661	0.000576	5.756987	1.950520	0.045977
 411	2.0500e-01	16.3744	112.122158	0.000151	1.514997	0.513295	0.012099
 412	2.0550e-01	16.4081	112.517401	0.000990	9.897977	3.353526	0.079049
 413	2.0600e-01	16.4418	112.965075	0.001121	11.210974	3.798381	0.089535
 414	2.0650e-01	16.4867	113.114300	0.000374	3.736991	1.266127	0.029845
 415	2.0700e-01	16.5252	113.533742	0.001050	10.503976	3.558843	0.083888
 416	2.0750e-01	16.5653	113.703132	0.000424	4.241990	1.437225	0.033878
 417	2.0800e-01	16.6118	113.767662	0.000162	1.615996	0.547514	0.012906
 418	2.0850e-01	16.6519	113.933019	0.000414	4.140991	1.403006	0.033071
 419	2.0900e-01	16.6888	114.412958	0.001202	12.018973	4.072138	0.095988
 420	2.0950e-01	16.7305	114.739639	0.000818	8.180981	2.771792	0.065336
 421	2.1000e-01	16.7690	115.199412	0.001151	11.513974	3.901040	0.091955
 422	2.1050e-01	16.8124	115.227644	0.000071	0.706998	0.239538	0.005646
 423	2.1100e-01	16.8493	115.401067	0.000434	4.342990	1.471445	0.034685
 424	2.1150e-01	16.8894	115.719682	0.000798	7.978982	2.703352	0.063723
 425	2.1200e-01	16.9279	116.256084	0.001343	13.432969	4.551213	0.107280
 426	2.1250e-01	16.9744	116.421441	0.000414	4.140991	1.403006	0.033071
 427	2.1300e-01	17.0097	116.667460	0.000616	6.160986	2.087399	0.049204
 428	2.1350e-01	17.0482	116.994141	0.000818	8.180981	2.771792	0.065336
 429	2.1400e-01	17.0883	117.433749	0.001101	11.008975	3.729942	0.087922
 430	2.1450e-01	17.1348	117.845125	0.001030	10.301976	3.490404	0.082275
 431	2.1500e-01	17.1701	117.796727	-0.000121	-1.211997	-0.410636	-0.009679
 432	2.1550e-01	17.2118	118.042746	0.000616	6.160986	2.087399	0.049204
 433	2.1600e-01	17.2487	118.341196	0.000747	7.473983	2.532254	0.059690
 434	2.1650e-01	17.2840	118.599314	0.000646	6.463985	2.190057	0.051624
 435	2.1700e-01	17.3337	118.881631	0.000707	7.069984	2.395375	0.056463
 436	2.1750e-01	17.3690	118.970359	0.000222	2.221995	0.752832	0.017746
 437	2.1800e-01	17.3995	119.301073	0.000828	8.281981	2.806011	0.066143
 438	2.1850e-01	17.4541	119.647920	0.000869	8.685980	2.942890	0.069369
 439	2.1900e-01	17.4893	119.970568	0.000808	8.079982	2.737572	0.064530
 440	2.1950e-01	17.5327	120.293215	0.000808	8.079982	2.737572	0.064530
 441	2.2000e-01	17.5663	120.490837	0.000495	4.948989	1.676763	0.039524
 442	2.2050e-01	17.6049	120.954644	0.001161	11.614973	3.935260	0.092761
 443	2.2100e-01	17.6546	121.023206	0.000172	1.716996	0.581734	0.013713
 444	2.2150e-01	17.6867	121.333755	0.000778	7.776982	2.634913	0.062110
 445	2.2200e-01	17.7300	121.620105	0.000717	7.170984	2.429595	0.057270
 446	2.2250e-01	17.7685	122.051646	0.001081	10.806975	3.661502	0.086308
 447	2.2300e-01	17.7958	122.434791	0.000959	9.594978	3.250867	0.076629
 448	2.2350e-01	17.8503	122.543684	0.000273	2.726994	0.923931	0.021779
 449	2.2400e-01	17.8984	122.813902	0.000677	6.766985	2.292716	0.054044
 450	2.2450e-01	17.9321	123.027656	0.000535	5.352988	1.813641	0.042751
 451	2.2500e-01	17.9626	123.370470	0.000858	8.584980	2.908670	0.068563
 452	2.2550e-01	18.0139	123.475330	0.000263	2.625994	0.889711	0.020972
 453	2.2600e-01	18.0444	123.765713	0.000727	7.271983	2.463815	0.058077
 454	2.2650e-01	18.0861	124.136758	0.000929	9.291979	3.148208	0.074209
 455	2.2700e-01	18.1407	124.394877	0.000646	6.463985	2.190057	0.051624
 456	2.2750e-01	18.1760	124.769955	0.000939	9.392979	3.182427	0.075016
 457	2.2800e-01	18.2145	125.060338	0.000727	7.271983	2.463815	0.058077
 458	2.2850e-01	18.2546	125.213596	0.000384	3.837991	1.300347	0.030652
 459	2.2900e-01	18.2979	125.395085	0.000454	4.544990	1.539884	0.036298
 460	2.2950e-01	18.3268	125.810494	0.001040	10.402976	3.524624	0.083082
 461	2.3000e-01	18.3717	126.145242	0.000838	8.382981	2.840231	0.066949
 462	2.3050e-01	18.4086	126.451757	0.000768	7.675982	2.600693	0.061303
 463	2.3100e-01	18.4519	126.544518	0.000232	2.322995	0.787052	0.018552
 464	2.3150e-01	18.4872	126.976060	0.001081	10.806975	3.661502	0.086308
 465	2.3200e-01	18.5305	126.972027	-0.000010	-0.101000	-0.034220	-0.000807
 466	2.3250e-01	18.5818	127.145450	0.000434	4.342990	1.471445	0.034685
 467	2.3300e-01	18.6123	127.649587	0.001262	12.624971	4.277456	0.100827
 468	2.3350e-01	18.6556	127.980301	0.000828	8.281981	2.806011	0.066143
 469	2.3400e-01	18.6925	128.302949	0.000808	8.079982	2.737572	0.064530
 470	2.3450e-01	18.7390	128.315049	0.000030	0.302999	0.102659	0.002420
 471	2.3500e-01	18.7695	128.460240	0.000364	3.635992	1.231907	0.029038
 472	2.3550e-01	18.8080	128.996642	0.001343	13.432969	4.551213	0.107280
 473	2.3600e-01	18.8562	129.287025	0.000727	7.271983	2.463815	0.058077
 474	2.3650e-01	18.8979	129.516912	0.000576	5.756987	1.950520	0.045977
 475	2.3700e-01	18.9348	129.597574	0.000202	2.019995	0.684393	0.016132
 476	2.3750e-01	18.9717	129.944420	0.000869	8.685980	2.942890	0.069369
 477	2.3800e-01	19.0118	130.142042	0.000495	4.948989	1.676763	0.039524
 478	2.3850e-01	19.0583	130.509054	0.000919	9.190979	3.113988	0.073402
 479	2.3900e-01	19.0952	130.847835	0.000848	8.483981	2.874450	0.067756
 480	2.3950e-01	19.1369	130.980927	0.000333	3.332992	1.129248	0.026618
 481	2.4000e-01	19.1706	131.533461	0.001384	13.836968	4.688092	0.110507
 482	2.4050e-01	19.2155	131.735116	0.000505	5.049988	1.710982	0.040331
 483	2.4100e-01	19.2604	131.763348	0.000071	0.706998	0.239538	0.005646
 484	2.4150e-01	19.2909	132.069863	0.000768	7.675982	2.600693	0.061303
 485	2.4200e-01	19.3262	132.416710	0.000869	8.685980	2.942890	0.069369
 486	2.4250e-01	19.3711	132.771623	0.000889	8.887980	3.011329	0.070983
 487	2.4300e-01	19.4144	132.896649	0.000313	3.130993	1.060809	0.025005
 488	2.4350e-01	19.4577	132.924880	0.000071	0.706998	0.239538	0.005646
 489	2.4400e-01	19.4882	133.360455	0.001091	10.907975	3.695722	0.087115
 490	2.4450e-01	19.5267	133.683103	0.000808	8.079982	2.737572	0.064530
 491	2.4500e-01	19.5765	133.961387	0.000697	6.968984	2.361156	0.055657
 492	2.4550e-01	19.6053	134.292101	0.000828	8.281981	2.806011	0.066143
 493	2.4600e-01	19.6615	134.598616	0.000768	7.675982	2.600693	0.061303
 494	2.4650e-01	19.6952	134.602649	0.000010	0.101000	0.034220	0.000807
 495	2.4700e-01	19.7321	134.929330	0.000818	8.180981	2.771792	0.065336
 496	2.4750e-01	19.7706	135.292309	0.000909	9.089979	3.079768	0.072596
 497	2.4800e-01	19.8091	135.530262	0.000596	5.958986	2.018959	0.047591
 498	2.4850e-01	19.8428	135.941638	0.001030	10.301976	3.490404	0.082275
 499	2.4900e-01	19.8925	136.151359	0.000525	5.251988	1.779422	0.041944
 500	2.4950e-01	19.9310	136.405444	0.000636	6.362985	2.155838	0.050817
 501	2.5000e-01	19.9695	136.570801	0.000414	4.140991	1.403006	0.033071
 502	2.5050e-01	19.9887	136.534504	-0.000091	-0.908998	-0.307977	-0.007260
 503	2.5100e-01	19.9599	136.429643	0.000263	2.625994	0.889711	-0.020972
 504	2.5150e-01	19.9214	136.203789	0.000566	5.655987	1.916300	-0.045171
 505	2.5200e-01	19.8684	136.272352	-0.000172	-1.716996	-0.581734	0.013713
 506	2.5250e-01	19.8428	135.953737	0.000798	7.978982	2.703352	-0.063723
 507	2.5300e-01	19.7994	135.719818	0.000586	5.857987	1.984740	-0.046784
 508	2.5350e-01	19.7561	135.510096	0.000525	5.251988	1.779422	-0.041944
 509	2.5400e-01	19.7176	135.377004	0.000333	3.332992	1.129248	-0.026618
 510	2.5450e-01	19.6743	135.074522	0.000757	7.574983	2.566474	-0.060496
 511	2.5500e-01	19.6406	135.046290	0.000071	0.706998	0.239538	-0.005646
 512	2.5550e-01	19.5973	134.655080	0.000980	9.796978	3.319306	-0.078242
 513	2.5600e-01	19.5604	134.469557	0.000465	4.645989	1.574104	-0.037105
 514	2.5650e-01	19.5155	134.227571	0.000606	6.059986	2.053179	-0.048397
 515	2.5700e-01	19.4818	134.094479	0.000333	3.332992	1.129248	-0.026618
 516	2.5750e-01	19.4433	133.884758	0.000525	5.251988	1.779422	-0.041944
 517	2.5800e-01	19.4032	133.259627	0.001565	15.654964	5.304045	-0.125026
 518	2.5850e-01	19.3583	133.142668	0.000293	2.928993	0.992370	-0.023392
 519	2.5900e-01	19.3166	133.106370	0.000091	0.908998	0.307977	-0.007260
 520	2.5950e-01	19.2829	132.815987	0.000727	7.271983	2.463815	-0.058077
 521	2.6000e-01	19.2396	132.820020	-0.000010	-0.101000	-0.034220	0.000807
 522	2.6050e-01	19.1979	132.569968	0.000626	6.261986	2.121618	-0.050010
 523	2.6100e-01	19.1610	132.424776	0.000364	3.635992	1.231907	-0.029038
 524	2.6150e-01	19.1160	132.295717	0.000323	3.231993	1.095029	-0.025812
 525	2.6200e-01	19.0743	132.009367	0.000717	7.170984	2.429595	-0.057270
 526	2.6250e-01	19.0374	131.727050	0.000707	7.069984	2.395375	-0.056463
 527	2.6300e-01	19.0037	131.384237	0.000858	8.584980	2.908670	-0.068563
 528	2.6350e-01	18.9540	131.218880	0.000414	4.140991	1.403006	-0.033071
 529	2.6400e-01	18.9219	131.206780	0.000030	0.302999	0.102659	-0.002420
 530	2.6450e-01	18.8738	130.811537	0.000990	9.897977	3.353526	-0.079049
 531	2.6500e-01	18.8417	130.585683	0.000566	5.655987	1.916300	-0.045171
 532	2.6550e-01	18.7904	130.400161	0.000465	4.645989	1.574104	-0.037105
 533	2.6600e-01	18.7567	129.988785	0.001030	10.301976	3.490404	-0.082275
 534	2.6650e-01	18.7150	130.025082	-0.000091	-0.908998	-0.307977	0.007260
 535	2.6700e-01	18.6781	129.569342	0.001141	11.412974	3.866820	-0.091148
 536	2.6750e-01	18.6396	129.186198	0.000959	9.594978	3.250867	-0.076629
 537	2.6800e-01	18.6059	128.964377	0.000555	5.554987	1.882081	-0.044364
 538	2.6850e-01	18.5546	128.964377	-0.000000	-0.000000	-0.000000	0.000000
 539	2.6900e-01	18.5145	128.911947	0.000131	1.312997	0.444855	-0.010486
 540	2.6950e-01	18.4792	128.516704	0.000990	9.897977	3.353526	-0.079049
 541	2.7000e-01	18.4423	128.254552	0.000656	6.564985	2.224277	-0.052430
 542	2.7050e-01	18.3941	128.161791	0.000232	2.322995	0.787052	-0.018552
 543	2.7100e-01	18.3588	127.931904	0.000576	5.756987	1.950520	-0.045977
 544	2.7150e-01	18.3155	127.391469	0.001353	13.533969	4.585433	-0.108087
 545	2.7200e-01	18.2834	127.403568	-0.000030	-0.302999	-0.102659	0.002420
 546	2.7250e-01	18.2449	126.996225	0.001020	10.200977	3.456184	-0.081469
 547	2.7300e-01	18.1952	126.879265	0.000293	2.928993	0.992370	-0.023392
 548	2.7350e-01	18.1567	126.681644	0.000495	4.948989	1.676763	-0.039524
 549	2.7400e-01	18.1214	126.637280	0.000111	1.110997	0.376416	-0.008873
 550	2.7450e-01	18.0717	126.298499	0.000848	8.483981	2.874450	-0.067756
 551	2.7500e-01	18.0380	126.032315	0.000667	6.665985	2.258497	-0.053237
 552	2.7550e-01	18.0043	125.891156	0.000353	3.534992	1.197688	-0.028232
 553	2.7600e-01	17.9530	125.600773	0.000727	7.271983	2.463815	-0.058077
 554	2.7650e-01	17.9257	125.225695	0.000939	9.392979	3.182427	-0.075016
 555	2.7700e-01	17.8904	125.128901	0.000242	2.423994	0.821272	-0.019359
 556	2.7750e-01	17.8375	124.870782	0.000646	6.463985	2.190057	-0.051624
 557	2.7800e-01	17.7942	124.495704	0.000939	9.392979	3.182427	-0.075016
 558	2.7850e-01	17.7540	124.455373	0.000101	1.009998	0.342196	-0.008066
 559	2.7900e-01	17.7252	124.181123	0.000687	6.867984	2.326936	-0.054850
 560	2.7950e-01	17.6786	123.995600	0.000465	4.645989	1.574104	-0.037105
 561	2.8000e-01	17.6434	123.713283	0.000707	7.069984	2.395375	-0.056463
 562	2.8050e-01	17.5968	123.648753	0.000162	1.615996	0.547514	-0.012906
 563	2.8100e-01	17.5599	123.197046	0.001131	11.311974	3.832601	-0.090341
 564	2.8150e-01	17.5214	122.858266	0.000848	8.483981	2.874450	-0.067756
 565	2.8200e-01	17.4717	122.640479	0.000545	5.453988	1.847861	-0.043557
 566	2.8250e-01	17.4428	122.483188	0.000394	3.938991	1.334566	-0.031458
 567	2.8300e-01	17.3979	122.414625	0.000172	1.716996	0.581734	-0.013713
 568	2.8350e-01	17.3626	121.966951	0.001121	11.210974	3.798381	-0.089535
 569	2.8400e-01	17.3225	121.648337	0.000798	7.978982	2.703352	-0.063723
 570	2.8450e-01	17.2792	121.309556	0.000848	8.483981	2.874450	-0.067756
 571	2.8500e-01	17.2423	121.220828	0.000222	2.221995	0.752832	-0.017746
 572	2.8550e-01	17.1974	120.898180	0.000808	8.079982	2.737572	-0.064530
 573	2.8600e-01	17.1605	120.845750	0.000131	1.312997	0.444855	-0.010486
 574	2.8650e-01	17.1252	120.603764	0.000606	6.059986	2.053179	-0.048397
 575	2.8700e-01	17.0658	120.353712	0.000626	6.261986	2.121618	-0.050010
 576	2.8750e-01	17.0321	119.962501	0.000980	9.796978	3.319306	-0.078242
 577	2.8800e-01	16.9952	119.639853	0.000808	8.079982	2.737572	-0.064530
 578	2.8850e-01	16.9648	119.268808	0.000929	9.291979	3.148208	-0.074209
 579	2.8900e-01	16.9214	119.212345	0.000141	1.413997	0.479075	-0.011293
 580	2.8950e-01	16.8910	118.869532	0.000858	8.584980	2.908670	-0.068563
 581	2.9000e-01	16.8460	118.752572	0.000293	2.928993	0.992370	-0.023392
 582	2.9050e-01	16.8027	118.760638	-0.000020	-0.202000	-0.068439	0.001613
 583	2.9100e-01	16.7594	118.446056	0.000788	7.877982	2.669133	-0.062916
 584	2.9150e-01	16.7193	118.010482	0.001091	10.907975	3.695722	-0.087115
 585	2.9200e-01	16.6728	117.970151	0.000101	1.009998	0.342196	-0.008066
 586	2.9250e-01	16.6391	117.780595	0.000475	4.746989	1.608323	-0.037911
 587	2.9300e-01	16.5990	117.421649	0.000899	8.988979	3.045549	-0.071789
 588	2.9350e-01	16.5541	117.159498	0.000656	6.564985	2.224277	-0.052430
 589	2.9400e-01	16.5124	116.844916	0.000788	7.877982	2.669133	-0.062916
 590	2.9450e-01	16.4819	116.639228	0.000515	5.150988	1.745202	-0.041138
 591	2.9500e-01	16.4338	116.550500	0.000222	2.221995	0.752832	-0.017746
 592	2.9550e-01	16.4081	116.199620	0.000879	8.786980	2.977109	-0.070176
 593	2.9600e-01	16.3568	115.957634	0.000606	6.059986	2.053179	-0.048397
 594	2.9650e-01	16.3231	115.558358	0.001000	9.998977	3.387745	-0.079855
 595	2.9700e-01	16.2862	115.280074	0.000697	6.968984	2.361156	-0.055657
 596	2.9750e-01	16.2380	114.957426	0.000808	8.079982	2.737572	-0.064530
 597	2.9800e-01	16.2011	114.848532	0.000273	2.726994	0.923931	-0.021779
 598	2.9850e-01	16.1514	114.525884	0.000808	8.079982	2.737572	-0.064530
 599	2.9900e-01	16.1145	114.227435	0.000747	7.473983	2.532254	-0.059690
 600	2.9950e-01	16.0856	114.175005	0.000131	1.312997	0.444855	-0.010486
 601	3.0000e-01	16.0423	113.695066	0.001202	12.018973	4.072138	-0.095988
 602	3.0050e-01	16.0022	113.521643	0.000434	4.342990	1.471445	-0.034685
 603	3.0100e-01	15.9605	113.517610	0.000010	0.101000	0.034220	-0.000807
 604	3.0150e-01	15.9204	113.122366	0.000990	9.897977	3.353526	-0.079049
 605	3.0200e-01	15.8819	112.807784	0.000788	7.877982	2.669133	-0.062916
 606	3.0250e-01	15.8434	112.521434	0.000717	7.170984	2.429595	-0.057270
 607	3.0300e-01	15.7905	112.335912	0.000465	4.645989	1.574104	-0.037105
 608	3.0350e-01	15.7616	112.134257	0.000505	5.049988	1.710982	-0.040331
 609	3.0400e-01	15.7199	111.997132	0.000343	3.433992	1.163468	-0.027425
 610	3.0450e-01	15.6878	111.755146	0.000606	6.059986	2.053179	-0.048397
 611	3.0500e-01	15.6349	111.331670	0.001060	10.604976	3.593063	-0.084695
 612	3.0550e-01	15.6060	111.134049	0.000495	4.948989	1.676763	-0.039524
 613	3.0600e-01	15.5578	111.291339	-0.000394	-3.938991	-1.334566	0.031458
 614	3.0650e-01	15.5193	110.597646	0.001737	17.371960	5.885780	-0.138739
 615	3.0700e-01	15.4744	110.355661	0.000606	6.059986	2.053179	-0.048397
 616	3.0750e-01	15.4359	110.331462	0.000061	0.605999	0.205318	-0.004840
 617	3.0800e-01	15.3958	109.976549	0.000889	8.887980	3.011329	-0.070983
 618	3.0850e-01	15.3509	109.666001	0.000778	7.776982	2.634913	-0.062110
 619	3.0900e-01	15.3156	109.355452	0.000778	7.776982	2.634913	-0.062110
 620	3.0950e-01	15.2819	109.061036	0.000737	7.372983	2.498034	-0.058883
 621	3.1000e-01	15.2386	108.923911	0.000343	3.433992	1.163468	-0.027425
 622	3.1050e-01	15.1905	108.694024	0.000576	5.756987	1.950520	-0.045977
 623	3.1100e-01	15.1632	108.443972	0.000626	6.261986	2.121618	-0.050010
 624	3.1150e-01	15.1231	108.125357	0.000798	7.978982	2.703352	-0.063723
 625	3.1200e-01	15.0766	108.004364	0.000303	3.029993	1.026589	-0.024199
 626	3.1250e-01	15.0349	107.701882	0.000757	7.574983	2.566474	-0.060496
 627	3.1300e-01	15.0060	107.395366	0.000768	7.675982	2.600693	-0.061303
 628	3.1350e-01	14.9627	107.084818	0.000778	7.776982	2.634913	-0.062110
 629	3.1400e-01	14.9290	106.939626	0.000364	3.635992	1.231907	-0.029038
 630	3.1450e-01	14.8744	106.794434	0.000364	3.635992	1.231907	-0.029038
 631	3.1500e-01	14.8392	106.326595	0.001172	11.715973	3.969479	-0.093568
 632	3.1550e-01	14.8007	105.931351	0.000990	9.897977	3.353526	-0.079049
 633	3.1600e-01	14.7557	105.761961	0.000424	4.241990	1.437225	-0.033878
 634	3.1650e-01	14.7156	105.604670	0.000394	3.938991	1.334566	-0.031458
 635	3.1700e-01	14.6723	105.394949	0.000525	5.251988	1.779422	-0.041944
 636	3.1750e-01	14.6338	105.225559	0.000424	4.241990	1.437225	-0.033878
 637	3.1800e-01	14.6049	104.834349	0.000980	9.796978	3.319306	-0.078242
 638	3.1850e-01	14.5504	104.560098	0.000687	6.867984	2.326936	-0.054850
 639	3.1900e-01	14.5199	104.354410	0.000515	5.150988	1.745202	-0.041138
 640	3.1950e-01	14.4782	104.080159	0.000687	6.867984	2.326936	-0.054850
 641	3.2000e-01	14.4381	103.805908	0.000687	6.867984	2.326936	-0.054850
 642	3.2050e-01	14.3948	103.576022	0.000576	5.756987	1.950520	-0.045977
 643	3.2100e-01	14.3611	103.301771	0.000687	6.867984	2.326936	-0.054850
 644	3.2150e-01	14.3226	102.870229	0.001081	10.806975	3.661502	-0.086308
 645	3.2200e-01	14.2745	102.595979	0.000687	6.867984	2.326936	-0.054850
 646	3.2250e-01	14.2408	102.591946	0.000010	0.101000	0.034220	-0.000807
 647	3.2300e-01	14.2071	102.237033	0.000889	8.887980	3.011329	-0.070983
 648	3.2350e-01	14.1574	101.857922	0.000949	9.493978	3.216647	-0.075822
 649	3.2400e-01	14.1205	101.700631	0.000394	3.938991	1.334566	-0.031458
 650	3.2450e-01	14.0707	101.470744	0.000576	5.756987	1.950520	-0.045977
 651	3.2500e-01	14.0418	101.248924	0.000555	5.554987	1.882081	-0.044364
 652	3.2550e-01	13.9889	100.898044	0.000879	8.786980	2.977109	-0.070176
 653	3.2600e-01	13.9600	100.821415	0.000192	1.918996	0.650173	-0.015326
 654	3.2650e-01	13.9167	100.442304	0.000949	9.493978	3.216647	-0.075822
 655	3.2700e-01	13.8814	100.139822	0.000757	7.574983	2.566474	-0.060496
 656	3.2750e-01	13.8381	99.901869	0.000596	5.958986	2.018959	-0.047591
 657	3.2800e-01	13.8012	99.486460	0.001040	10.402976	3.524624	-0.083082
 658	3.2850e-01	13.7643	99.244474	0.000606	6.059986	2.053179	-0.048397
 659	3.2900e-01	13.7146	99.046852	0.000495	4.948989	1.676763	-0.039524
 660	3.2950e-01	13.6841	98.825032	0.000555	5.554987	1.882081	-0.044364
 661	3.3000e-01	13.6392	98.393490	0.001081	10.806975	3.661502	-0.086308
 662	3.3050e-01	13.5959	98.304762	0.000222	2.221995	0.752832	-0.017746
 663	3.3100e-01	13.5558	98.042610	0.000656	6.564985	2.224277	-0.052430
 664	3.3150e-01	13.5157	97.921618	0.000303	3.029993	1.026589	-0.024199
 665	3.3200e-01	13.4804	97.623168	0.000747	7.473983	2.532254	-0.059690
 666	3.3250e-01	13.4403	97.272289	0.000879	8.786980	2.977109	-0.070176
 667	3.3300e-01	13.3969	96.994005	0.000697	6.968984	2.361156	-0.055657
 668	3.3350e-01	13.3552	96.756052	0.000596	5.958986	2.018959	-0.047591
 669	3.3400e-01	13.3151	96.437437	0.000798	7.978982	2.703352	-0.063723
 670	3.3450e-01	13.2766	96.215617	0.000555	5.554987	1.882081	-0.044364
 671	3.3500e-01	13.2333	95.969598	0.000616	6.160986	2.087399	-0.049204
 672	3.3550e-01	13.2028	95.655016	0.000788	7.877982	2.669133	-0.062916
 673	3.3600e-01	13.1595	95.183144	0.001182	11.816973	4.003699	-0.094375
 674	3.3650e-01	13.1194	95.195243	-0.000030	-0.302999	-0.102659	0.002420
 675	3.3700e-01	13.0777	95.054084	0.000353	3.534992	1.197688	-0.028232
 676	3.3750e-01	13.0376	94.804032	0.000626	6.261986	2.121618	-0.050010
 677	3.3800e-01	12.9943	94.384590	0.001050	10.503976	3.558843	-0.083888
 678	3.3850e-01	12.9494	94.078075	0.000768	7.675982	2.600693	-0.061303
 679	3.3900e-01	12.9157	93.537639	0.001353	13.533969	4.585433	-0.108087
 680	3.3950e-01	12.8820	93.400514	0.000343	3.433992	1.163468	-0.027425
 681	3.4000e-01	12.8419	93.085932	0.000788	7.877982	2.669133	-0.062916
 682	3.4050e-01	12.8034	93.033502	0.000131	1.312997	0.444855	-0.010486
 683	3.4100e-01	12.7649	92.565663	0.001172	11.715973	3.969479	-0.093568
 684	3.4150e-01	12.7200	92.444670	0.000303	3.029993	1.026589	-0.024199
 685	3.4200e-01	12.6847	92.243015	0.000505	5.049988	1.710982	-0.040331
 686	3.4250e-01	12.6317	91.916334	0.000818	8.180981	2.771792	-0.065336
 687	3.4300e-01	12.5964	91.678381	0.000596	5.958986	2.018959	-0.047591
 688	3.4350e-01	12.5595	91.295237	0.000959	9.594978	3.250867	-0.076629
 689	3.4400e-01	12.5194	91.275071	0.000050	0.504999	0.171098	-0.004033
 690	3.4450e-01	12.4857	90.887894	0.000970	9.695978	3.285086	-0.077435
 691	3.4500e-01	12.4424	90.387789	0.001252	12.523971	4.243236	-0.100021
 692	3.4550e-01	12.4039	90.262763	0.000313	3.130993	1.060809	-0.025005
 693	3.4600e-01	12.3558	90.036910	0.000566	5.655987	1.916300	-0.045171
 694	3.4650e-01	12.3205	89.782825	0.000636	6.362985	2.155838	-0.050817
 695	3.4700e-01	12.2772	89.411779	0.000929	9.291979	3.148208	-0.074209
 696	3.4750e-01	12.2515	88.911675	0.001252	12.523971	4.243236	-0.100021
 697	3.4800e-01	12.2018	88.818914	0.000232	2.322995	0.787052	-0.018552
 698	3.4850e-01	12.1649	88.520465	0.000747	7.473983	2.532254	-0.059690
 699	3.4900e-01	12.1232	88.145387	0.000939	9.392979	3.182427	-0.075016
 700	3.4950e-01	12.0783	88.109089	0.000091	0.908998	0.307977	-0.007260
 701	3.5000e-01	12.0382	87.778375	0.000828	8.281981	2.806011	-0.066143
 702	3.5050e-01	11.9997	87.459760	0.000798	7.978982	2.703352	-0.063723
 703	3.5100e-01	11.9612	87.286337	0.000434	4.342990	1.471445	-0.034685
 704	3.5150e-01	11.9243	87.177443	0.000273	2.726994	0.923931	-0.021779
 705	3.5200e-01	11.8922	86.814464	0.000909	9.089979	3.079768	-0.072596
 706	3.5250e-01	11.8424	86.455518	0.000899	8.988979	3.045549	-0.071789
 707	3.5300e-01	11.8039	86.177234	0.000697	6.968984	2.361156	-0.055657
 708	3.5350e-01	11.7590	85.786024	0.000980	9.796978	3.319306	-0.078242
 709	3.5400e-01	11.7157	85.677130	0.000273	2.726994	0.923931	-0.021779
 710	3.5450e-01	11.6788	85.390780	0.000717	7.170984	2.429595	-0.057270
 711	3.5500e-01	11.6531	84.975371	0.001040	10.402976	3.524624	-0.083082
 712	3.5550e-01	11.6034	84.519631	0.001141	11.412974	3.866820	-0.091148
 713	3.5600e-01	11.5553	84.317976	0.000505	5.049988	1.710982	-0.040331
 714	3.5650e-01	11.5184	84.176817	0.000353	3.534992	1.197688	-0.028232
 715	3.5700e-01	11.4799	83.999361	0.000444	4.443990	1.505665	-0.035491
 716	3.5750e-01	11.4478	83.765441	0.000586	5.857987	1.984740	-0.046784
 717	3.5800e-01	11.4029	83.442794	0.000808	8.079982	2.737572	-0.064530
 718	3.5850e-01	11.3612	83.023351	0.001050	10.503976	3.558843	-0.083888
 719	3.5900e-01	11.3179	82.954789	0.000172	1.716996	0.581734	-0.013713
 720	3.5950e-01	11.2826	82.495015	0.001151	11.513974	3.901040	-0.091955
 721	3.6000e-01	11.2328	82.410320	0.000212	2.120995	0.718613	-0.016939
 722	3.6050e-01	11.1991	82.369989	0.000101	1.009998	0.342196	-0.008066
 723	3.6100e-01	11.1655	81.918282	0.001131	11.311974	3.832601	-0.090341
 724	3.6150e-01	11.1238	81.543204	0.000939	9.392979	3.182427	-0.075016
 725	3.6200e-01	11.0788	81.200391	0.000858	8.584980	2.908670	-0.068563
 726	3.6250e-01	11.0339	80.942272	0.000646	6.463985	2.190057	-0.051624
 727	3.6300e-01	11.0066	80.623658	0.000798	7.978982	2.703352	-0.063723
 728	3.6350e-01	10.9617	80.409903	0.000535	5.352988	1.813641	-0.042751
 729	3.6400e-01	10.9152	80.087255	0.000808	8.079982	2.737572	-0.064530
 730	3.6450e-01	10.8879	79.889634	0.000495	4.948989	1.676763	-0.039524
 731	3.6500e-01	10.8446	79.599251	0.000727	7.271983	2.463815	-0.058077
 732	3.6550e-01	10.8013	79.264503	0.000838	8.382981	2.840231	-0.066949
 733	3.6600e-01	10.7484	79.070915	0.000485	4.847989	1.642543	-0.038718
 734	3.6650e-01	10.7147	78.707936	0.000909	9.089979	3.079768	-0.072596
 735	3.6700e-01	10.6762	78.457884	0.000626	6.261986	2.121618	-0.050010
 736	3.6750e-01	10.6313	78.054574	0.001010	10.099977	3.421965	-0.080662
 737	3.6800e-01	10.6104	77.647231	0.001020	10.200977	3.456184	-0.081469
 738	3.6850e-01	10.5559	77.340715	0.000768	7.675982	2.600693	-0.061303
 739	3.6900e-01	10.5109	77.296351	0.000111	1.110997	0.376416	-0.008873
 740	3.6950e-01	10.4805	77.135027	0.000404	4.039991	1.368786	-0.032265
 741	3.7000e-01	10.4371	76.804313	0.000828	8.281981	2.806011	-0.066143
 742	3.7050e-01	10.3906	76.469566	0.000838	8.382981	2.840231	-0.066949
 743	3.7100e-01	10.3553	76.328408	0.000353	3.534992	1.197688	-0.028232
 744	3.7150e-01	10.3152	76.138852	0.000475	4.746989	1.608323	-0.037911
 745	3.7200e-01	10.2831	75.707310	0.001081	10.806975	3.661502	-0.086308
 746	3.7250e-01	10.2286	75.457258	0.000626	6.261986	2.121618	-0.050010
 747	3.7300e-01	10.2093	74.953121	0.001262	12.624971	4.277456	-0.100827
 748	3.7350e-01	10.1596	74.892624	0.000151	1.514997	0.513295	-0.012099
 749	3.7400e-01	10.1179	74.537712	0.000889	8.887980	3.011329	-0.070983
 750	3.7450e-01	10.0842	74.049707	0.001222	12.220972	4.140577	-0.097601
 751	3.7500e-01	10.0377	73.771423	0.000697	6.968984	2.361156	-0.055657
 752	3.7550e-01	9.9976	73.694794	0.000192	1.918996	0.650173	-0.015326
 753	3.7600e-01	9.9559	73.315683	0.000949	9.493978	3.216647	-0.075822
 754	3.7650e-01	9.9110	73.005134	0.000778	7.776982	2.634913	-0.062110
 755	3.7700e-01	9.8773	72.686520	0.000798	7.978982	2.703352	-0.063723
 756	3.7750e-01	9.8388	72.730884	-0.000111	-1.110997	-0.376416	0.008873
 757	3.7800e-01	9.8003	72.198515	0.001333	13.331970	4.516994	-0.106474
 758	3.7850e-01	9.7602	71.968628	0.000576	5.756987	1.950520	-0.045977
 759	3.7900e-01	9.7152	71.561285	0.001020	10.200977	3.456184	-0.081469
 760	3.7950e-01	9.6767	71.464491	0.000242	2.423994	0.821272	-0.019359
 761	3.8000e-01	9.6366	71.125710	0.000848	8.483981	2.874450	-0.067756
 762	3.8050e-01	9.5997	70.859526	0.000667	6.665985	2.258497	-0.053237
 763	3.8100e-01	9.5660	70.472348	0.000970	9.695978	3.285086	-0.077435
 764	3.8150e-01	9.5147	70.157767	0.000788	7.877982	2.669133	-0.062916
 765	3.8200e-01	9.4762	69.758490	0.001000	9.998977	3.387745	-0.079855
 766	3.8250e-01	9.4361	69.488272	0.000677	6.766985	2.292716	-0.054044
 767	3.8300e-01	9.4072	69.435842	0.000131	1.312997	0.444855	-0.010486
 768	3.8350e-01	9.3559	69.028499	0.001020	10.200977	3.456184	-0.081469
 769	3.8400e-01	9.3270	68.657454	0.000929	9.291979	3.148208	-0.074209
 770	3.8450e-01	9.2949	68.302541	0.000889	8.887980	3.011329	-0.070983
 771	3.8500e-01	9.2404	68.036357	0.000667	6.665985	2.258497	-0.053237
 772	3.8550e-01	9.2003	67.677411	0.000899	8.988979	3.045549	-0.071789
 773	3.8600e-01	9.1602	67.544319	0.000333	3.332992	1.129248	-0.026618
 774	3.8650e-01	9.1104	67.225704	0.000798	7.978982	2.703352	-0.063723
 775	3.8700e-01	9.0896	67.149075	0.000192	1.918996	0.650173	-0.015326
 776	3.8750e-01	9.0366	66.556210	0.001485	14.846966	5.030288	-0.118573
 777	3.8800e-01	8.9981	66.378753	0.000444	4.443990	1.505665	-0.035491
 778	3.8850e-01	8.9628	66.007708	0.000929	9.291979	3.148208	-0.074209
 779	3.8900e-01	8.9276	65.705226	0.000757	7.574983	2.566474	-0.060496
 780	3.8950e-01	8.8810	65.459207	0.000616	6.160986	2.087399	-0.049204
 781	3.9000e-01	8.8345	65.221254	0.000596	5.958986	2.018959	-0.047591
 782	3.9050e-01	8.8008	65.076062	0.000364	3.635992	1.231907	-0.029038
 783	3.9100e-01	8.7607	64.821977	0.000636	6.362985	2.155838	-0.050817
 784	3.9150e-01	8.7190	64.075854	0.001868	18.684957	6.330635	-0.149225
 785	3.9200e-01	8.6805	63.829835	0.000616	6.160986	2.087399	-0.049204
 786	3.9250e-01	8.6340	63.668511	0.000404	4.039991	1.368786	-0.032265
 787	3.9300e-01	8.6035	63.422492	0.000616	6.160986	2.087399	-0.049204
 788	3.9350e-01	8.5586	63.003050	0.001050	10.503976	3.558843	-0.083888
 789	3.9400e-01	8.5169	63.023215	-0.000050	-0.504999	-0.171098	0.004033
 790	3.9450e-01	8.4816	62.478747	0.001363	13.634969	4.619653	-0.108894
 791	3.9500e-01	8.4286	62.458582	0.000050	0.504999	0.171098	-0.004033
 792	3.9550e-01	8.3966	62.095603	0.000909	9.089979	3.079768	-0.072596
 793	3.9600e-01	8.3709	61.720524	0.000939	9.392979	3.182427	-0.075016
 794	3.9650e-01	8.3212	61.167990	0.001384	13.836968	4.688092	-0.110507
 795	3.9700e-01	8.2843	60.841309	0.000818	8.180981	2.771792	-0.065336
 796	3.9750e-01	8.2361	60.752581	0.000222	2.221995	0.752832	-0.017746
 797	3.9800e-01	8.2057	60.639654	0.000283	2.827994	0.958150	-0.022585
 798	3.9850e-01	8.1623	60.224245	0.001040	10.402976	3.524624	-0.083082
 799	3.9900e-01	8.1206	60.022590	0.000505	5.049988	1.710982	-0.040331
 800	3.9950e-01	8.0837	59.639446	0.000959	9.594978	3.250867	-0.076629
 801	4.0000e-01	8.0404	59.340996	0.000747	7.473983	2.532254	-0.059690
 802	4.0050e-01	7.9955	58.913488	0.001071	10.705976	3.627283	-0.085502
 803	4.0100e-01	7.9538	58.667469	0.000616	6.160986	2.087399	-0.049204
 804	4.0150e-01	7.9265	58.296424	0.000929	9.291979	3.148208	-0.074209
 805	4.0200e-01	7.8736	58.264159	0.000081	0.807998	0.273757	-0.006453
 806	4.0250e-01	7.8399	58.018140	0.000616	6.160986	2.087399	-0.049204
 807	4.0300e-01	7.7934	57.602731	0.001040	10.402976	3.524624	-0.083082
 808	4.0350e-01	7.7677	57.114726	0.001222	12.220972	4.140577	-0.097601
 809	4.0400e-01	7.7212	56.909038	0.000515	5.150988	1.745202	-0.041138
 810	4.0450e-01	7.6698	56.654953	0.000636	6.362985	2.155838	-0.050817
 811	4.0500e-01	7.6361	56.195179	0.001151	11.513974	3.901040	-0.091955
 812	4.0550e-01	7.6025	55.993524	0.000505	5.049988	1.710982	-0.040331
 813	4.0600e-01	7.5575	55.638612	0.000889	8.887980	3.011329	-0.070983
 814	4.0650e-01	7.5222	55.445023	0.000485	4.847989	1.642543	-0.038718
 815	4.0700e-01	7.4805	55.110276	0.000838	8.382981	2.840231	-0.066949
 816	4.0750e-01	7.4356	54.892489	0.000545	5.453988	1.847861	-0.043557
 817	4.0800e-01	7.3971	54.727131	0.000414	4.140991	1.403006	-0.033071
 818	4.0850e-01	7.3570	54.251226	0.001192	11.917973	4.037918	-0.095181
 819	4.0900e-01	7.3169	54.061670	0.000475	4.746989	1.608323	-0.037911
 820	4.0950e-01	7.2784	53.501070	0.001404	14.038968	4.756531	-0.112120
 821	4.1000e-01	7.2399	53.206653	0.000737	7.372983	2.498034	-0.058883
 822	4.1050e-01	7.1934	52.815443	0.000980	9.796978	3.319306	-0.078242
 823	4.1100e-01	7.1581	52.783178	0.000081	0.807998	0.273757	-0.006453
 824	4.1150e-01	7.1228	52.456497	0.000818	8.180981	2.771792	-0.065336
 825	4.1200e-01	7.0699	51.956393	0.001252	12.523971	4.243236	-0.100021
 826	4.1250e-01	7.0410	51.645844	0.000778	7.776982	2.634913	-0.062110
 827	4.1300e-01	6.9929	51.496620	0.000374	3.736991	1.266127	-0.029845
 828	4.1350e-01	6.9624	51.311097	0.000465	4.645989	1.574104	-0.037105
 829	4.1400e-01	6.9255	50.645636	0.001666	16.664962	5.646242	-0.133092
 830	4.1450e-01	6.8838	50.476246	0.000424	4.241990	1.437225	-0.033878
 831	4.1500e-01	6.8372	50.286690	0.000475	4.746989	1.608323	-0.037911
 832	4.1550e-01	6.8003	50.000340	0.000717	7.170984	2.429595	-0.057270
 833	4.1600e-01	6.7554	49.601063	0.001000	9.998977	3.387745	-0.079855
 834	4.1650e-01	6.7169	49.423607	0.000444	4.443990	1.505665	-0.035491
 835	4.1700e-01	6.6816	49.084827	0.000848	8.483981	2.874450	-0.067756
 836	4.1750e-01	6.6367	48.895271	0.000475	4.746989	1.608323	-0.037911
 837	4.1800e-01	6.5998	48.491961	0.001010	10.099977	3.421965	-0.080662
 838	4.1850e-01	6.5597	47.987824	0.001262	12.624971	4.277456	-0.100827
 839	4.1900e-01	6.5180	48.076552	-0.000222	-2.221995	-0.752832	0.017746
 840	4.1950e-01	6.4795	47.415124	0.001656	16.563962	5.612022	-0.132286
 841	4.2000e-01	6.4282	47.023913	0.000980	9.796978	3.319306	-0.078242
 842	4.2050e-01	6.4073	46.729497	0.000737	7.372983	2.498034	-0.058883
 843	4.2100e-01	6.3576	46.374584	0.000889	8.887980	3.011329	-0.070983
 844	4.2150e-01	6.3223	46.064036	0.000778	7.776982	2.634913	-0.062110
 845	4.2200e-01	6.2790	45.918844	0.000364	3.635992	1.231907	-0.029038
 846	4.2250e-01	6.2421	45.721222	0.000495	4.948989	1.676763	-0.039524
 847	4.2300e-01	6.1955	45.382442	0.000848	8.483981	2.874450	-0.067756
 848	4.2350e-01	6.1603	45.132390	0.000626	6.261986	2.121618	-0.050010
 849	4.2400e-01	6.1137	44.967033	0.000414	4.140991	1.403006	-0.033071
 850	4.2450e-01	6.0784	44.527425	0.001101	11.008975	3.729942	-0.087922
 851	4.2500e-01	6.0415	44.216877	0.000778	7.776982	2.634913	-0.062110
 852	4.2550e-01	5.9966	43.890196	0.000818	8.180981	2.771792	-0.065336
 853	4.2600e-01	5.9629	43.640143	0.000626	6.261986	2.121618	-0.050010
 854	4.2650e-01	5.9212	43.321529	0.000798	7.978982	2.703352	-0.063723
 855	4.2700e-01	5.8795	42.970649	0.000879	8.786980	2.977109	-0.070176
 856	4.2750e-01	5.8330	42.539108	0.001081	10.806975	3.661502	-0.086308
 857	4.2800e-01	5.8009	42.349552	0.000475	4.746989	1.608323	-0.037911
 858	4.2850e-01	5.7560	42.111599	0.000596	5.958986	2.018959	-0.047591
 859	4.2900e-01	5.7175	41.780885	0.000828	8.281981	2.806011	-0.066143
 860	4.2950e-01	5.6790	41.550998	0.000576	5.756987	1.950520	-0.045977
 861	4.3000e-01	5.6341	41.313046	0.000596	5.958986	2.018959	-0.047591
 862	4.3050e-01	5.6036	40.865372	0.001121	11.210974	3.798381	-0.089535
 863	4.3100e-01	5.5603	40.623386	0.000606	6.059986	2.053179	-0.048397
 864	4.3150e-01	5.5266	40.135381	0.001222	12.220972	4.140577	-0.097601
 865	4.3200e-01	5.4769	39.921627	0.000535	5.352988	1.813641	-0.042751
 866	4.3250e-01	5.4400	39.748203	0.000434	4.342990	1.471445	-0.034685
 867	4.3300e-01	5.4031	39.453787	0.000737	7.372983	2.498034	-0.058883
 868	4.3350e-01	5.3646	38.937550	0.001293	12.927971	4.380115	-0.103247
 869	4.3400e-01	5.3148	38.578605	0.000899	8.988979	3.045549	-0.071789
 870	4.3450e-01	5.2795	38.264023	0.000788	7.877982	2.669133	-0.062916
 871	4.3500e-01	5.2346	37.901044	0.000909	9.089979	3.079768	-0.072596
 872	4.3550e-01	5.2009	37.570330	0.000828	8.281981	2.806011	-0.066143
 873	4.3600e-01	5.1704	37.195252	0.000939	9.392979	3.182427	-0.075016
 874	4.3650e-01	5.1143	36.961332	0.000586	5.857987	1.984740	-0.046784
 875	4.3700e-01	5.0790	36.715313	0.000616	6.160986	2.087399	-0.049204
 876	4.3750e-01	5.0325	36.533824	0.000454	4.544990	1.539884	-0.036298
 877	4.3800e-01	4.9988	36.227308	0.000768	7.675982	2.600693	-0.061303
 878	4.3850e-01	4.9523	35.864329	0.000909	9.089979	3.079768	-0.072596
 879	4.3900e-01	4.9154	35.569913	0.000737	7.372983	2.498034	-0.058883
 880	4.3950e-01	4.8769	35.005279	0.001414	14.139968	4.790751	-0.112927
 881	4.4000e-01	4.8400	34.908485	0.000242	2.423994	0.821272	-0.019359
 882	4.4050e-01	4.8063	34.654400	0.000636	6.362985	2.155838	-0.050817
 883	4.4100e-01	4.7598	34.263189	0.000980	9.796978	3.319306	-0.078242
 884	4.4150e-01	4.7180	33.924409	0.000848	8.483981	2.874450	-0.067756
 885	4.4200e-01	4.6763	33.686456	0.000596	5.958986	2.018959	-0.047591
 886	4.4250e-01	4.6362	33.404139	0.000707	7.069984	2.395375	-0.056463
 887	4.4300e-01	4.6009	33.008896	0.000990	9.897977	3.353526	-0.079049
 888	4.4350e-01	4.5656	32.512824	0.001242	12.422972	4.209017	-0.099214
 889	4.4400e-01	4.5191	32.258739	0.000636	6.362985	2.155838	-0.050817
 890	4.4450e-01	4.4822	32.222441	0.000091	0.908998	0.307977	-0.007260
 891	4.4500e-01	4.4357	31.738469	0.001212	12.119972	4.106358	-0.096794
 892	4.4550e-01	4.4020	31.194001	0.001363	13.634969	4.619653	-0.108894
 893	4.4600e-01	4.3635	31.032677	0.000404	4.039991	1.368786	-0.032265
 894	4.4650e-01	4.3202	30.871353	0.000404	4.039991	1.368786	-0.032265
 895	4.4700e-01	4.2785	30.710029	0.000404	4.039991	1.368786	-0.032265
 896	4.4750e-01	4.2448	30.161528	0.001374	13.735969	4.653872	-0.109700
 897	4.4800e-01	4.1887	29.855012	0.000768	7.675982	2.600693	-0.061303
 898	4.4850e-01	4.1598	29.629159	0.000566	5.655987	1.916300	-0.045171
 899	4.4900e-01	4.1197	29.072591	0.001394	13.937968	4.722311	-0.111314
 900	4.4950e-01	4.0764	28.834638	0.000596	5.958986	2.018959	-0.047591
 901	4.5000e-01	4.0395	28.516024	0.000798	7.978982	2.703352	-0.063723
 902	4.5050e-01	4.0026	28.245806	0.000677	6.766985	2.292716	-0.054044
 903	4.5100e-01	3.9576	27.850562	0.000990	9.897977	3.353526	-0.079049
 904	4.5150e-01	3.9127	27.689238	0.000404	4.039991	1.368786	-0.032265
 905	4.5200e-01	3.8855	27.406922	0.000707	7.069984	2.395375	-0.056463
 906	4.5250e-01	3.8293	26.830188	0.001444	14.442967	4.893410	-0.115347
 907	4.5300e-01	3.7988	26.459143	0.000929	9.291979	3.148208	-0.074209
 908	4.5350e-01	3.7667	26.184893	0.000687	6.867984	2.326936	-0.054850
 909	4.5400e-01	3.7282	25.797715	0.000970	9.695978	3.285086	-0.077435
 910	4.5450e-01	3.6737	25.592027	0.000515	5.150988	1.745202	-0.041138
 911	4.5500e-01	3.6464	25.329876	0.000656	6.564985	2.224277	-0.052430
 912	4.5550e-01	3.5983	25.055625	0.000687	6.867984	2.326936	-0.054850
 913	4.5600e-01	3.5566	24.749110	0.000768	7.675982	2.600693	-0.061303
 914	4.5650e-01	3.5309	24.430495	0.000798	7.978982	2.703352	-0.063723
 915	4.5700e-01	3.4796	24.091715	0.000848	8.483981	2.874450	-0.067756
 916	4.5750e-01	3.4475	23.607743	0.001212	12.119972	4.106358	-0.096794
 917	4.5800e-01	3.3930	23.248797	0.000899	8.988979	3.045549	-0.071789
 918	4.5850e-01	3.3545	23.071341	0.000444	4.443990	1.505665	-0.035491
 919	4.5900e-01	3.3176	22.643832	0.001071	10.705976	3.627283	-0.085502
 920	4.5950e-01	3.2694	22.393780	0.000626	6.261986	2.121618	-0.050010
 921	4.6000e-01	3.2389	22.131629	0.000656	6.564985	2.224277	-0.052430
 922	4.6050e-01	3.2004	21.825113	0.000768	7.675982	2.600693	-0.061303
 923	4.6100e-01	3.1603	21.502465	0.000808	8.079982	2.737572	-0.064530
 924	4.6150e-01	3.1154	21.191917	0.000778	7.776982	2.634913	-0.062110
 925	4.6200e-01	3.0753	20.937831	0.000636	6.362985	2.155838	-0.050817
 926	4.6250e-01	3.0400	20.586952	0.000879	8.786980	2.977109	-0.070176
 927	4.6300e-01	3.0015	20.159443	0.001071	10.705976	3.627283	-0.085502
 928	4.6350e-01	2.9678	19.840829	0.000798	7.978982	2.703352	-0.063723
 929	4.6400e-01	2.9229	19.606909	0.000586	5.857987	1.984740	-0.046784
 930	4.6450e-01	2.8812	19.348791	0.000646	6.463985	2.190057	-0.051624
 931	4.6500e-01	2.8347	18.824488	0.001313	13.129970	4.448554	-0.104861
 932	4.6550e-01	2.7978	18.429244	0.000990	9.897977	3.353526	-0.079049
 933	4.6600e-01	2.7609	18.405045	0.000061	0.605999	0.205318	-0.004840
 934	4.6650e-01	2.7288	17.884776	0.001303	13.028970	4.414335	-0.104054
 935	4.6700e-01	2.6694	17.626657	0.000646	6.463985	2.190057	-0.051624
 936	4.6750e-01	2.6374	17.360473	0.000667	6.665985	2.258497	-0.053237
 937	4.6800e-01	2.6005	16.856336	0.001262	12.624971	4.277456	-0.100827
 938	4.6850e-01	2.5668	16.396562	0.001151	11.513974	3.901040	-0.091955
 939	4.6900e-01	2.5170	16.319933	0.000192	1.918996	0.650173	-0.015326
 940	4.6950e-01	2.4817	15.896458	0.001060	10.604976	3.593063	-0.084695
 941	4.7000e-01	2.4368	15.537512	0.000899	8.988979	3.045549	-0.071789
 942	4.7050e-01	2.3919	15.283427	0.000636	6.362985	2.155838	-0.050817
 943	4.7100e-01	2.3534	15.126136	0.000394	3.938991	1.334566	-0.031458
 944	4.7150e-01	2.3181	14.694595	0.001081	10.806975	3.661502	-0.086308
 945	4.7200e-01	2.2716	14.428410	0.000667	6.665985	2.258497	-0.053237
 946	4.7250e-01	2.2347	14.097696	0.000828	8.281981	2.806011	-0.066143
 947	4.7300e-01	2.1962	13.541129	0.001394	13.937968	4.722311	-0.111314
 948	4.7350e-01	2.1577	13.488698	0.000131	1.312997	0.444855	-0.010486
 949	4.7400e-01	2.1112	13.121686	0.000919	9.190979	3.113988	-0.073402
 950	4.7450e-01	2.0791	12.770807	0.000879	8.786980	2.977109	-0.070176
 951	4.7500e-01	2.0294	12.403795	0.000919	9.190979	3.113988	-0.073402
 952	4.7550e-01	1.9925	12.145676	0.000646	6.463985	2.190057	-0.051624
 953	4.7600e-01	1.9491	11.944022	0.000505	5.049988	1.710982	-0.040331
 954	4.7650e-01	1.9171	11.633473	0.000778	7.776982	2.634913	-0.062110
 955	4.7700e-01	1.8705	11.161600	0.001182	11.816973	4.003699	-0.094375
 956	4.7750e-01	1.8433	10.697794	0.001161	11.614973	3.935260	-0.092761
 957	4.7800e-01	1.7887	10.605033	0.000232	2.322995	0.787052	-0.018552
 958	4.7850e-01	1.7534	10.250120	0.000889	8.887980	3.011329	-0.070983
 959	4.7900e-01	1.7117	9.822612	0.001071	10.705976	3.627283	-0.085502
 960	4.7950e-01	1.6957	9.221680	0.001505	15.048966	5.098728	-0.120186
 961	4.8000e-01	1.6475	9.092621	0.000323	3.231993	1.095029	-0.025812
 962	4.8050e-01	1.5978	8.778039	0.000788	7.877982	2.669133	-0.062916
 963	4.8100e-01	1.5561	8.741741	0.000091	0.908998	0.307977	-0.007260
 964	4.8150e-01	1.5144	8.338431	0.001010	10.099977	3.421965	-0.080662
 965	4.8200e-01	1.4727	8.104512	0.000586	5.857987	1.984740	-0.046784
 966	4.8250e-01	1.4534	7.705235	0.001000	9.998977	3.387745	-0.079855
 967	4.8300e-01	1.3909	7.152700	0.001384	13.836968	4.688092	-0.110507
 968	4.8350e-01	1.3636	6.781655	0.000929	9.291979	3.148208	-0.074209
 969	4.8400e-01	1.3187	6.604199	0.000444	4.443990	1.505665	-0.035491
 970	4.8450e-01	1.2786	6.503371	0.000252	2.524994	0.855491	-0.020165
 971	4.8500e-01	1.2353	6.208955	0.000737	7.372983	2.498034	-0.058883
 972	4.8550e-01	1.1984	5.729017	0.001202	12.018973	4.072138	-0.095988
 973	4.8600e-01	1.1550	5.236979	0.001232	12.321972	4.174797	-0.098408
 974	4.8650e-01	1.1262	4.926430	0.000778	7.776982	2.634913	-0.062110
 975	4.8700e-01	1.0764	4.644113	0.000707	7.069984	2.395375	-0.056463
 976	4.8750e-01	1.0379	4.462624	0.000454	4.544990	1.539884	-0.036298
 977	4.8800e-01	0.9914	4.144009	0.000798	7.978982	2.703352	-0.063723
 978	4.8850e-01	0.9609	3.603574	0.001353	13.533969	4.585433	-0.108087
 979	4.8900e-01	0.9224	3.236562	0.000919	9.190979	3.113988	-0.073402
 980	4.8950e-01	0.8823	3.055072	0.000454	4.544990	1.539884	-0.036298
 981	4.9000e-01	0.8454	2.474306	0.001454	14.543967	4.927629	-0.116153
 982	4.9050e-01	0.7909	2.244419	0.000576	5.756987	1.950520	-0.045977
 983	4.9100e-01	0.7540	2.179890	0.000162	1.615996	0.547514	-0.012906
 984	4.9150e-01	0.7235	1.699951	0.001202	12.018973	4.072138	-0.095988
 985	4.9200e-01	0.6754	1.466031	0.000586	5.857987	1.984740	-0.046784
 986	4.9250e-01	0.6401	1.365204	0.000252	2.524994	0.855491	-0.020165
 987	4.9300e-01	0.5984	0.941729	0.001060	10.604976	3.593063	-0.084695
 988	4.9350e-01	0.5567	0.538419	0.001010	10.099977	3.421965	-0.080662
 989	4.9400e-01	0.5182	0.268201	0.000677	6.766985	2.292716	-0.054044
 990	4.9450e-01	0.4765	-0.199638	0.001172	11.715973	3.969479	-0.093568
 991	4.9500e-01	0.4380	-0.328698	0.000323	3.231993	1.095029	-0.025812
 992	4.9550e-01	0.3946	-0.800570	0.001182	11.816973	4.003699	-0.094375
 993	4.9600e-01	0.3513	-1.244211	0.001111	11.109975	3.764161	-0.088728
 994	4.9650e-01	0.3144	-1.619289	0.000939	9.392979	3.182427	-0.075016
 995	4.9700e-01	0.2775	-1.945970	0.000818	8.180981	2.771792	-0.065336
 996	4.9750e-01	0.2342	-2.204088	0.000646	6.463985	2.190057	-0.051624
 997	4.9800e-01	0.1973	-2.462207	0.000646	6.463985	2.190057	-0.051624
 998	4.9850e-01	0.1636	-2.792921	0.000828	8.281981	2.806011	-0.066143
 999	4.9900e-01	0.1171	-3.172032	0.000949	9.493978	3.216647	-0.075822
1000	4.9950e-01	0.0738	-3.280926	0.000273	2.726994	0.923931	-0.021779
1001	5.0000e-01	0.0385	-4.039148	0.001899	18.987957	6.433294	-0.151645
1002	5.0050e-01	0.0064	-4.071413	0.000081	0.807998	0.273757	-0.006453
1003	5.0100e-01	-0.0337	-4.394061	0.000808	8.079982	2.737572	-0.064530
1004	5.0150e-01	-0.0706	-4.632014	0.000596	5.958986	2.018959	-0.047591
1005	5.0200e-01	-0.1123	-5.043390	0.001030	10.301976	3.490404	-0.082275
1006	5.0250e-01	-0.1492	-5.402336	0.000899	8.988979	3.045549	-0.071789
1007	5.0300e-01	-0.1909	-5.809679	0.001020	10.200977	3.456184	-0.081469
1008	5.0350e-01	-0.2374	-6.104095	0.000737	7.372983	2.498034	-0.058883
1009	5.0400e-01	-0.2727	-6.366246	0.000656	6.564985	2.224277	-0.052430
1010	5.0450e-01	-0.3144	-6.604199	0.000596	5.958986	2.018959	-0.047591
1011	5.0500e-01	-0.3577	-6.975244	0.000929	9.291979	3.148208	-0.074209
1012	5.0550e-01	-0.3978	-7.314024	0.000848	8.483981	2.874450	-0.067756
1013	5.0600e-01	-0.4347	-7.789930	0.001192	11.917973	4.037918	-0.095181
1014	5.0650e-01	-0.4684	-7.963353	0.000434	4.342990	1.471445	-0.034685
1015	5.0700e-01	-0.5150	-8.197273	0.000586	5.857987	1.984740	-0.046784
1016	5.0750e-01	-0.5438	-8.390862	0.000485	4.847989	1.642543	-0.038718
1017	5.0800e-01	-0.5936	-8.939363	0.001374	13.735969	4.653872	-0.109700
1018	5.0850e-01	-0.6353	-9.237812	0.000747	7.473983	2.532254	-0.059690
1019	5.0900e-01	-0.6722	-9.637089	0.001000	9.998977	3.387745	-0.079855
1020	5.0950e-01	-0.7075	-9.927472	0.000727	7.271983	2.463815	-0.058077
1021	5.1000e-01	-0.7428	-10.250120	0.000808	8.079982	2.737572	-0.064530
1022	5.1050e-01	-0.7973	-10.528404	0.000697	6.968984	2.361156	-0.055657
1023	5.1100e-01	-0.8246	-10.980111	0.001131	11.311974	3.832601	-0.090341
1024	5.1150e-01	-0.8775	-11.282593	0.000757	7.574983	2.566474	-0.060496
1025	5.1200e-01	-0.9144	-11.653638	0.000929	9.291979	3.148208	-0.074209
1026	5.1250e-01	-0.9593	-11.774631	0.000303	3.029993	1.026589	-0.024199
1027	5.1300e-01	-1.0042	-12.101312	0.000818	8.180981	2.771792	-0.065336
1028	5.1350e-01	-1.0444	-12.553019	0.001131	11.311974	3.832601	-0.090341
1029	5.1400e-01	-1.0684	-12.803072	0.000626	6.261986	2.121618	-0.050010
1030	5.1450e-01	-1.1182	-13.109587	0.000768	7.675982	2.600693	-0.061303
1031	5.1500e-01	-1.1583	-13.496764	0.000970	9.695978	3.285086	-0.077435
1032	5.1550e-01	-1.1968	-13.847644	0.000879	8.786980	2.977109	-0.070176
1033	5.1600e-01	-1.2321	-13.976703	0.000323	3.231993	1.095029	-0.025812
1034	5.1650e-01	-1.2657	-14.307417	0.000828	8.281981	2.806011	-0.066143
1035	5.1700e-01	-1.3155	-14.609900	0.000757	7.574983	2.566474	-0.060496
1036	5.1750e-01	-1.3572	-15.053541	0.001111	11.109975	3.764161	-0.088728
1037	5.1800e-01	-1.3941	-15.452817	0.001000	9.998977	3.387745	-0.079855
1038	5.1850e-01	-1.4438	-15.686737	0.000586	5.857987	1.984740	-0.046784
1039	5.1900e-01	-1.4727	-16.061815	0.000939	9.392979	3.182427	-0.075016
1040	5.1950e-01	-1.5192	-16.323967	0.000656	6.564985	2.224277	-0.052430
1041	5.2000e-01	-1.5529	-16.739376	0.001040	10.402976	3.524624	-0.083082
1042	5.2050e-01	-1.5930	-17.001527	0.000656	6.564985	2.224277	-0.052430
1043	5.2100e-01	-1.6443	-17.295943	0.000737	7.372983	2.498034	-0.058883
1044	5.2150e-01	-1.6764	-17.457267	0.000404	4.039991	1.368786	-0.032265
1045	5.2200e-01	-1.7117	-17.904941	0.001121	11.210974	3.798381	-0.089535
1046	5.2250e-01	-1.7502	-18.292119	0.000970	9.695978	3.285086	-0.077435
1047	5.2300e-01	-1.7999	-18.481674	0.000475	4.746989	1.608323	-0.037911
1048	5.2350e-01	-1.8385	-18.679296	0.000495	4.948989	1.676763	-0.039524
1049	5.2400e-01	-1.8705	-19.272162	0.001485	14.846966	5.030288	-0.118573
1050	5.2450e-01	-1.9155	-19.796464	0.001313	13.129970	4.448554	-0.104861
1051	5.2500e-01	-1.9588	-19.921491	0.000313	3.130993	1.060809	-0.025005
1052	5.2550e-01	-1.9925	-20.344966	0.001060	10.604976	3.593063	-0.084695
1053	5.2600e-01	-2.0374	-20.538555	0.000485	4.847989	1.642543	-0.038718
1054	5.2650e-01	-2.0775	-20.695845	0.000394	3.938991	1.334566	-0.031458
1055	5.2700e-01	-2.1176	-20.881368	0.000465	4.645989	1.574104	-0.037105
1056	5.2750e-01	-2.1545	-21.478267	0.001495	14.947966	5.064508	-0.119380
1057	5.2800e-01	-2.1962	-21.893676	0.001040	10.402976	3.524624	-0.083082
1058	5.2850e-01	-2.2363	-22.103397	0.000525	5.251988	1.779422	-0.041944
1059	5.2900e-01	-2.2764	-22.543005	0.001101	11.008975	3.729942	-0.087922
1060	5.2950e-01	-2.3181	-22.659964	0.000293	2.928993	0.992370	-0.023392
1061	5.3000e-01	-2.3470	-23.087473	0.001071	10.705976	3.627283	-0.085502
1062	5.3050e-01	-2.3919	-23.450452	0.000909	9.089979	3.079768	-0.072596
1063	5.3100e-01	-2.4320	-23.623875	0.000434	4.342990	1.471445	-0.034685
1064	5.3150e-01	-2.4721	-24.039284	0.001040	10.402976	3.524624	-0.083082
1065	5.3200e-01	-2.5058	-24.462760	0.001060	10.604976	3.593063	-0.084695
1066	5.3250e-01	-2.5620	-24.458726	-0.000010	-0.101000	-0.034220	0.000807
1067	5.3300e-01	-2.5956	-24.833805	0.000939	9.392979	3.182427	-0.075016
1068	5.3350e-01	-2.6358	-25.168552	0.000838	8.382981	2.840231	-0.066949
1069	5.3400e-01	-2.6694	-25.612193	0.001111	11.109975	3.764161	-0.088728
1070	5.3450e-01	-2.7208	-25.950973	0.000848	8.483981	2.874450	-0.067756
1071	5.3500e-01	-2.7609	-26.116330	0.000414	4.140991	1.403006	-0.033071
1072	5.3550e-01	-2.7946	-26.527706	0.001030	10.301976	3.490404	-0.082275
1073	5.3600e-01	-2.8379	-26.713229	0.000465	4.645989	1.574104	-0.037105
1074	5.3650e-01	-2.8764	-27.128638	0.001040	10.402976	3.524624	-0.083082
1075	5.3700e-01	-2.9229	-27.281895	0.000384	3.837991	1.300347	-0.030652
1076	5.3750e-01	-2.9550	-27.729569	0.001121	11.210974	3.798381	-0.089535
1077	5.3800e-01	-2.9887	-28.023986	0.000737	7.372983	2.498034	-0.058883
1078	5.3850e-01	-3.0320	-28.205475	0.000454	4.544990	1.539884	-0.036298
1079	5.3900e-01	-3.0817	-28.814473	0.001525	15.250965	5.167167	-0.121800
1080	5.3950e-01	-3.1090	-29.020161	0.000515	5.150988	1.745202	-0.041138
1081	5.4000e-01	-3.1539	-29.346842	0.000818	8.180981	2.771792	-0.065336
1082	5.4050e-01	-3.2004	-29.665457	0.000798	7.978982	2.703352	-0.063723
1083	5.4100e-01	-3.2341	-29.935674	0.000677	6.766985	2.292716	-0.054044
1084	5.4150e-01	-3.2726	-30.282521	0.000869	8.685980	2.942890	-0.069369
1085	5.4200e-01	-3.3111	-30.496275	0.000535	5.352988	1.813641	-0.042751
1086	5.4250e-01	-3.3577	-30.964115	0.001172	11.715973	3.969479	-0.093568
1087	5.4300e-01	-3.4010	-31.153670	0.000475	4.746989	1.608323	-0.037911
1088	5.4350e-01	-3.4379	-31.435987	0.000707	7.069984	2.395375	-0.056463
1089	5.4400e-01	-3.4764	-31.742503	0.000768	7.675982	2.600693	-0.061303
1090	5.4450e-01	-3.5149	-32.137746	0.000990	9.897977	3.353526	-0.079049
1091	5.4500e-01	-3.5566	-32.532990	0.000990	9.897977	3.353526	-0.079049
1092	5.4550e-01	-3.5935	-32.908068	0.000939	9.392979	3.182427	-0.075016
1093	5.4600e-01	-3.6400	-33.109723	0.000505	5.049988	1.710982	-0.040331
1094	5.4650e-01	-3.6737	-33.267014	0.000394	3.938991	1.334566	-0.031458
1095	5.4700e-01	-3.7170	-33.529165	0.000656	6.564985	2.224277	-0.052430
1096	5.4750e-01	-3.7507	-33.863912	0.000838	8.382981	2.840231	-0.066949
1097	5.4800e-01	-3.7908	-34.247057	0.000959	9.594978	3.250867	-0.076629
1098	5.4850e-01	-3.8325	-34.561638	0.000788	7.877982	2.669133	-0.062916
1099	5.4900e-01	-3.8678	-34.751194	0.000475	4.746989	1.608323	-0.037911
1100	5.4950e-01	-3.9143	-35.154504	0.001010	10.099977	3.421965	-0.080662
1101	5.5000e-01	-3.9576	-35.513450	0.000899	8.988979	3.045549	-0.071789
1102	5.5050e-01	-3.9849	-35.872396	0.000899	8.988979	3.045549	-0.071789
1103	5.5100e-01	-4.0298	-36.134547	0.000656	6.564985	2.224277	-0.052430
1104	5.5150e-01	-4.0764	-36.545923	0.001030	10.301976	3.490404	-0.082275
1105	5.5200e-01	-4.1149	-36.679015	0.000333	3.332992	1.129248	-0.026618
1106	5.5250e-01	-4.1598	-37.001663	0.000808	8.079982	2.737572	-0.064530
1107	5.5300e-01	-4.1951	-37.409006	0.001020	10.200977	3.456184	-0.081469
1108	5.5350e-01	-4.2320	-37.719555	0.000778	7.776982	2.634913	-0.062110
1109	5.5400e-01	-4.2769	-37.828448	0.000273	2.726994	0.923931	-0.021779
1110	5.5450e-01	-4.3138	-38.312420	0.001212	12.119972	4.106358	-0.096794
1111	5.5500e-01	-4.3619	-38.510042	0.000495	4.948989	1.676763	-0.039524
1112	5.5550e-01	-4.3956	-38.844789	0.000838	8.382981	2.840231	-0.066949
1113	5.5600e-01	-4.4469	-39.163404	0.000798	7.978982	2.703352	-0.063723
1114	5.5650e-01	-4.4678	-39.465886	0.000757	7.574983	2.566474	-0.060496
1115	5.5700e-01	-4.5175	-39.728038	0.000656	6.564985	2.224277	-0.052430
1116	5.5750e-01	-4.5624	-40.006322	0.000697	6.968984	2.361156	-0.055657
1117	5.5800e-01	-4.5977	-40.401565	0.000990	9.897977	3.353526	-0.079049
1118	5.5850e-01	-4.6362	-40.724213	0.000808	8.079982	2.737572	-0.064530
1119	5.5900e-01	-4.6763	-40.933934	0.000525	5.251988	1.779422	-0.041944
1120	5.5950e-01	-4.7148	-41.099291	0.000414	4.140991	1.403006	-0.033071
1121	5.6000e-01	-4.7582	-41.430005	0.000828	8.281981	2.806011	-0.066143
1122	5.6050e-01	-4.8015	-41.704256	0.000687	6.867984	2.326936	-0.054850
1123	5.6100e-01	-4.8368	-42.204360	0.001252	12.523971	4.243236	-0.100021
1124	5.6150e-01	-4.8656	-42.309221	0.000263	2.625994	0.889711	-0.020972
1125	5.6200e-01	-4.9154	-42.684299	0.000939	9.392979	3.182427	-0.075016
1126	5.6250e-01	-4.9587	-43.099708	0.001040	10.402976	3.524624	-0.083082
1127	5.6300e-01	-4.9908	-43.309429	0.000525	5.251988	1.779422	-0.041944
1128	5.6350e-01	-5.0405	-43.660309	0.000879	8.786980	2.977109	-0.070176
1129	5.6400e-01	-5.0662	-43.865997	0.000515	5.150988	1.745202	-0.041138
1130	5.6450e-01	-5.1159	-44.075718	0.000525	5.251988	1.779422	-0.041944
1131	5.6500e-01	-5.1496	-44.628253	0.001384	13.836968	4.688092	-0.110507
1132	5.6550e-01	-5.1849	-44.906536	0.000697	6.968984	2.361156	-0.055657
1133	5.6600e-01	-5.2314	-45.172721	0.000667	6.665985	2.258497	-0.053237
1134	5.6650e-01	-5.2699	-45.503435	0.000828	8.281981	2.806011	-0.066143
1135	5.6700e-01	-5.3068	-45.850281	0.000869	8.685980	2.942890	-0.069369
1136	5.6750e-01	-5.3597	-45.939010	0.000222	2.221995	0.752832	-0.017746
1137	5.6800e-01	-5.3918	-46.144698	0.000515	5.150988	1.745202	-0.041138
1138	5.6850e-01	-5.4335	-46.463312	0.000798	7.978982	2.703352	-0.063723
1139	5.6900e-01	-5.4720	-46.886788	0.001060	10.604976	3.593063	-0.084695
1140	5.6950e-01	-5.5170	-47.116674	0.000576	5.756987	1.950520	-0.045977
1141	5.7000e-01	-5.5522	-47.423190	0.000768	7.675982	2.600693	-0.061303
1142	5.7050e-01	-5.6004	-47.753904	0.000828	8.281981	2.806011	-0.066143
1143	5.7100e-01	-5.6405	-47.895062	0.000353	3.534992	1.197688	-0.028232
1144	5.7150e-01	-5.6822	-48.274174	0.000949	9.493978	3.216647	-0.075822
1145	5.7200e-01	-5.7191	-48.742013	0.001172	11.715973	3.969479	-0.093568
1146	5.7250e-01	-5.7592	-49.024330	0.000707	7.069984	2.395375	-0.056463
1147	5.7300e-01	-5.7929	-49.318746	0.000737	7.372983	2.498034	-0.058883
1148	5.7350e-01	-5.8442	-49.399408	0.000202	2.019995	0.684393	-0.016132
1149	5.7400e-01	-5.8795	-49.669626	0.000677	6.766985	2.292716	-0.054044
1150	5.7450e-01	-5.9180	-50.197962	0.001323	13.230970	4.482774	-0.105667
1151	5.7500e-01	-5.9597	-50.399617	0.000505	5.049988	1.710982	-0.040331
1152	5.7550e-01	-5.9934	-50.653702	0.000636	6.362985	2.155838	-0.050817
1153	5.7600e-01	-6.0399	-50.907787	0.000636	6.362985	2.155838	-0.050817
1154	5.7650e-01	-6.0833	-51.101376	0.000485	4.847989	1.642543	-0.038718
1155	5.7700e-01	-6.1185	-51.415958	0.000788	7.877982	2.669133	-0.062916
1156	5.7750e-01	-6.1586	-51.754738	0.000848	8.483981	2.874450	-0.067756
1157	5.7800e-01	-6.1955	-51.936227	0.000454	4.544990	1.539884	-0.036298
1158	5.7850e-01	-6.2389	-52.585556	0.001626	16.260963	5.509363	-0.129866
1159	5.7900e-01	-6.2742	-52.682350	0.000242	2.423994	0.821272	-0.019359
1160	5.7950e-01	-6.3127	-52.875939	0.000485	4.847989	1.642543	-0.038718
1161	5.8000e-01	-6.3512	-53.355878	0.001202	12.018973	4.072138	-0.095988
1162	5.8050e-01	-6.3993	-53.613996	0.000646	6.463985	2.190057	-0.051624
1163	5.8100e-01	-6.4346	-54.065703	0.001131	11.311974	3.832601	-0.090341
1164	5.8150e-01	-6.4795	-54.182663	0.000293	2.928993	0.992370	-0.023392
1165	5.8200e-01	-6.5148	-54.388351	0.000515	5.150988	1.745202	-0.041138
1166	5.8250e-01	-6.5501	-54.602105	0.000535	5.352988	1.813641	-0.042751
1167	5.8300e-01	-6.5950	-54.940886	0.000848	8.483981	2.874450	-0.067756
1168	5.8350e-01	-6.6223	-55.356295	0.001040	10.402976	3.524624	-0.083082
1169	5.8400e-01	-6.6688	-55.513586	0.000394	3.938991	1.334566	-0.031458
1170	5.8450e-01	-6.7169	-55.868498	0.000889	8.887980	3.011329	-0.070983
1171	5.8500e-01	-6.7442	-56.110484	0.000606	6.059986	2.053179	-0.048397
1172	5.8550e-01	-6.7971	-56.533960	0.001060	10.604976	3.593063	-0.084695
1173	5.8600e-01	-6.8308	-56.804177	0.000677	6.766985	2.292716	-0.054044
1174	5.8650e-01	-6.8741	-57.195388	0.000980	9.796978	3.319306	-0.078242
1175	5.8700e-01	-6.9126	-57.219586	0.000061	0.605999	0.205318	-0.004840
1176	5.8750e-01	-6.9479	-57.457539	0.000596	5.958986	2.018959	-0.047591
1177	5.8800e-01	-6.9880	-57.755989	0.000747	7.473983	2.532254	-0.059690
1178	5.8850e-01	-7.0378	-58.078636	0.000808	8.079982	2.737572	-0.064530
1179	5.8900e-01	-7.0715	-58.336755	0.000646	6.463985	2.190057	-0.051624
1180	5.8950e-01	-7.1212	-58.663436	0.000818	8.180981	2.771792	-0.065336
1181	5.9000e-01	-7.1517	-58.925587	0.000656	6.564985	2.224277	-0.052430
1182	5.9050e-01	-7.1854	-59.304698	0.000949	9.493978	3.216647	-0.075822
1183	5.9100e-01	-7.2319	-59.409559	0.000263	2.625994	0.889711	-0.020972
1184	5.9150e-01	-7.2672	-59.780604	0.000929	9.291979	3.148208	-0.074209
1185	5.9200e-01	-7.3041	-60.018557	0.000596	5.958986	2.018959	-0.047591
1186	5.9250e-01	-7.3506	-60.284741	0.000667	6.665985	2.258497	-0.053237
1187	5.9300e-01	-7.3843	-60.720316	0.001091	10.907975	3.695722	-0.087115
1188	5.9350e-01	-7.4340	-60.901805	0.000454	4.544990	1.539884	-0.036298
1189	5.9400e-01	-7.4741	-61.119593	0.000545	5.453988	1.847861	-0.043557
1190	5.9450e-01	-7.5142	-61.430141	0.000778	7.776982	2.634913	-0.062110
1191	5.9500e-01	-7.5495	-61.873782	0.001111	11.109975	3.764161	-0.088728
1192	5.9550e-01	-7.5960	-61.869749	-0.000010	-0.101000	-0.034220	0.000807
1193	5.9600e-01	-7.6313	-62.309357	0.001101	11.008975	3.729942	-0.087922
1194	5.9650e-01	-7.6779	-62.603773	0.000737	7.372983	2.498034	-0.058883
1195	5.9700e-01	-7.7180	-62.849792	0.000616	6.160986	2.087399	-0.049204
1196	5.9750e-01	-7.7533	-63.059513	0.000525	5.251988	1.779422	-0.041944
1197	5.9800e-01	-7.7982	-63.394260	0.000838	8.382981	2.840231	-0.066949
1198	5.9850e-01	-7.8367	-63.696743	0.000757	7.574983	2.566474	-0.060496
1199	5.9900e-01	-7.8704	-63.983093	0.000717	7.170984	2.429595	-0.057270
1200	5.9950e-01	-7.9073	-64.273476	0.000727	7.271983	2.463815	-0.058077
1201	6.0000e-01	-7.9458	-64.446899	0.000434	4.342990	1.471445	-0.034685
1202	6.0050e-01	-8.0035	-64.680819	0.000586	5.857987	1.984740	-0.046784
1203	6.0100e-01	-8.0404	-64.995401	0.000788	7.877982	2.669133	-0.062916
1204	6.0150e-01	-8.0709	-65.289817	0.000737	7.372983	2.498034	-0.058883
1205	6.0200e-01	-8.1158	-65.475339	0.000465	4.645989	1.574104	-0.037105
1206	6.0250e-01	-8.1591	-65.818153	0.000858	8.584980	2.908670	-0.068563
1207	6.0300e-01	-8.2024	-66.120635	0.000757	7.574983	2.566474	-0.060496
1208	6.0350e-01	-8.2442	-66.447316	0.000818	8.180981	2.771792	-0.065336
1209	6.0400e-01	-8.2827	-66.616706	0.000424	4.241990	1.437225	-0.033878
1210	6.0450e-01	-8.3115	-66.886924	0.000677	6.766985	2.292716	-0.054044
1211	6.0500e-01	-8.3581	-67.282167	0.000990	9.897977	3.353526	-0.079049
1212	6.0550e-01	-8.3805	-67.467690	0.000465	4.645989	1.574104	-0.037105
1213	6.0600e-01	-8.4286	-67.673378	0.000515	5.150988	1.745202	-0.041138
1214	6.0650e-01	-8.4768	-68.032324	0.000899	8.988979	3.045549	-0.071789
1215	6.0700e-01	-8.5072	-68.455799	0.001060	10.604976	3.593063	-0.084695
1216	6.0750e-01	-8.5618	-68.516296	0.000151	1.514997	0.513295	-0.012099
1217	6.0800e-01	-8.5923	-68.790546	0.000687	6.867984	2.326936	-0.054850
1218	6.0850e-01	-8.6324	-68.972036	0.000454	4.544990	1.539884	-0.036298
1219	6.0900e-01	-8.6725	-69.528603	0.001394	13.937968	4.722311	-0.111314
1220	6.0950e-01	-8.7158	-69.827053	0.000747	7.473983	2.532254	-0.059690
1221	6.1000e-01	-8.7527	-69.919814	0.000232	2.322995	0.787052	-0.018552
1222	6.1050e-01	-8.7928	-70.069039	0.000374	3.736991	1.266127	-0.029845
1223	6.1100e-01	-8.8393	-70.391686	0.000808	8.079982	2.737572	-0.064530
1224	6.1150e-01	-8.8794	-70.532845	0.000353	3.534992	1.197688	-0.028232
1225	6.1200e-01	-8.9067	-70.819195	0.000717	7.170984	2.429595	-0.057270
1226	6.1250e-01	-8.9580	-71.242670	0.001060	10.604976	3.593063	-0.084695
1227	6.1300e-01	-8.9901	-71.456424	0.000535	5.352988	1.813641	-0.042751
1228	6.1350e-01	-9.0399	-71.811337	0.000889	8.887980	3.011329	-0.070983
1229	6.1400e-01	-9.0751	-72.142051	0.000828	8.281981	2.806011	-0.066143
1230	6.1450e-01	-9.1120	-72.307408	0.000414	4.140991	1.403006	-0.033071
1231	6.1500e-01	-9.1521	-72.710718	0.001010	10.099977	3.421965	-0.080662
1232	6.1550e-01	-9.1810	-72.912373	0.000505	5.049988	1.710982	-0.040331
1233	6.1600e-01	-9.2356	-73.190657	0.000697	6.968984	2.361156	-0.055657
1234	6.1650e-01	-9.2757	-73.283418	0.000232	2.322995	0.787052	-0.018552
1235	6.1700e-01	-9.3046	-73.662529	0.000949	9.493978	3.216647	-0.075822
1236	6.1750e-01	-9.3511	-73.807721	0.000364	3.635992	1.231907	-0.029038
1237	6.1800e-01	-9.3992	-74.073905	0.000667	6.665985	2.258497	-0.053237
1238	6.1850e-01	-9.4425	-74.206998	0.000333	3.332992	1.129248	-0.026618
1239	6.1900e-01	-9.4698	-74.602241	0.000990	9.897977	3.353526	-0.079049
1240	6.1950e-01	-9.5195	-74.795830	0.000485	4.847989	1.642543	-0.038718
1241	6.2000e-01	-9.5532	-75.356431	0.001404	14.038968	4.756531	-0.112120
1242	6.2050e-01	-9.5901	-75.368530	0.000030	0.302999	0.102659	-0.002420
1243	6.2100e-01	-9.6302	-75.699244	0.000828	8.281981	2.806011	-0.066143
1244	6.2150e-01	-9.6783	-75.844436	0.000364	3.635992	1.231907	-0.029038
1245	6.2200e-01	-9.7040	-76.300176	0.001141	11.412974	3.866820	-0.091148
1246	6.2250e-01	-9.7650	-76.586526	0.000717	7.170984	2.429595	-0.057270
1247	6.2300e-01	-9.7890	-76.884975	0.000747	7.473983	2.532254	-0.059690
1248	6.2350e-01	-9.8227	-77.199557	0.000788	7.877982	2.669133	-0.062916
1249	6.2400e-01	-9.8724	-77.336682	0.000343	3.433992	1.163468	-0.027425
1250	6.2450e-01	-9.9110	-77.590767	0.000636	6.362985	2.155838	-0.050817
1251	6.2500e-01	-9.9575	-77.929548	0.000848	8.483981	2.874450	-0.067756
1252	6.2550e-01	-9.9992	-78.010210	0.000202	2.019995	0.684393	-0.016132
1253	6.2600e-01	-10.0409	-78.203798	0.000485	4.847989	1.642543	-0.038718
1254	6.2650e-01	-10.0714	-78.707936	0.001262	12.624971	4.277456	-0.100827
1255	6.2700e-01	-10.1179	-78.933789	0.000566	5.655987	1.916300	-0.045171
1256	6.2750e-01	-10.1628	-79.107213	0.000434	4.342990	1.471445	-0.034685
1257	6.2800e-01	-10.1901	-79.345165	0.000596	5.958986	2.018959	-0.047591
1258	6.2850e-01	-10.2302	-79.579085	0.000586	5.857987	1.984740	-0.046784
1259	6.2900e-01	-10.2719	-79.736376	0.000394	3.938991	1.334566	-0.031458
1260	6.2950e-01	-10.3152	-80.192116	0.001141	11.412974	3.866820	-0.091148
1261	6.3000e-01	-10.3569	-80.430069	0.000596	5.958986	2.018959	-0.047591
1262	6.3050e-01	-10.3938	-80.579294	0.000374	3.736991	1.266127	-0.029845
1263	6.3100e-01	-10.4339	-80.881776	0.000757	7.574983	2.566474	-0.060496
1264	6.3150e-01	-10.4740	-81.188291	0.000768	7.675982	2.600693	-0.061303
1265	6.3200e-01	-10.5141	-81.349615	0.000404	4.039991	1.368786	-0.032265
1266	6.3250e-01	-10.5575	-81.579502	0.000576	5.756987	1.950520	-0.045977
1267	6.3300e-01	-10.5831	-82.285294	0.001767	17.674960	5.988438	-0.141158
1268	6.3350e-01	-10.6377	-82.378056	0.000232	2.322995	0.787052	-0.018552
1269	6.3400e-01	-10.6778	-82.700703	0.000808	8.079982	2.737572	-0.064530
1270	6.3450e-01	-10.7050	-82.894292	0.000485	4.847989	1.642543	-0.038718
1271	6.3500e-01	-10.7484	-82.999153	0.000263	2.625994	0.889711	-0.020972
1272	6.3550e-01	-10.7981	-83.180642	0.000454	4.544990	1.539884	-0.036298
1273	6.3600e-01	-10.8398	-83.575886	0.000990	9.897977	3.353526	-0.079049
1274	6.3650e-01	-10.8783	-83.729144	0.000384	3.837991	1.300347	-0.030652
1275	6.3700e-01	-10.9152	-83.817872	0.000222	2.221995	0.752832	-0.017746
1276	6.3750e-01	-10.9569	-84.237314	0.001050	10.503976	3.558843	-0.083888
1277	6.3800e-01	-10.9874	-84.551896	0.000788	7.877982	2.669133	-0.062916
1278	6.3850e-01	-11.0339	-84.737418	0.000465	4.645989	1.574104	-0.037105
1279	6.3900e-01	-11.0708	-84.935040	0.000495	4.948989	1.676763	-0.039524
1280	6.3950e-01	-11.1221	-84.983437	0.000121	1.211997	0.410636	-0.009679
1281	6.4000e-01	-11.1574	-85.435144	0.001131	11.311974	3.832601	-0.090341
1282	6.4050e-01	-11.1975	-85.576303	0.000353	3.534992	1.197688	-0.028232
1283	6.4100e-01	-11.2344	-86.028010	0.001131	11.311974	3.832601	-0.090341
1284	6.4150e-01	-11.2794	-86.322426	0.000737	7.372983	2.498034	-0.058883
1285	6.4200e-01	-11.3147	-86.552313	0.000576	5.756987	1.950520	-0.045977
1286	6.4250e-01	-11.3499	-86.838663	0.000717	7.170984	2.429595	-0.057270
1287	6.4300e-01	-11.3901	-87.028218	0.000475	4.746989	1.608323	-0.037911
1288	6.4350e-01	-11.4350	-87.278270	0.000626	6.261986	2.121618	-0.050010
1289	6.4400e-01	-11.4751	-87.713845	0.001091	10.907975	3.695722	-0.087115
1290	6.4450e-01	-11.5168	-87.830805	0.000293	2.928993	0.992370	-0.023392
1291	6.4500e-01	-11.5585	-87.971963	0.000353	3.534992	1.197688	-0.028232
1292	6.4550e-01	-11.5938	-88.250247	0.000697	6.968984	2.361156	-0.055657
1293	6.4600e-01	-11.6339	-88.298644	0.000121	1.211997	0.410636	-0.009679
1294	6.4650e-01	-11.6772	-88.661623	0.000909	9.089979	3.079768	-0.072596
1295	6.4700e-01	-11.7109	-89.077032	0.001040	10.402976	3.524624	-0.083082
1296	6.4750e-01	-11.7526	-89.375482	0.000747	7.473983	2.532254	-0.059690
1297	6.4800e-01	-11.8055	-89.371448	-0.000010	-0.101000	-0.034220	0.000807
1298	6.4850e-01	-11.8248	-89.605368	0.000586	5.857987	1.984740	-0.046784
1299	6.4900e-01	-11.8729	-89.766692	0.000404	4.039991	1.368786	-0.032265
1300	6.4950e-01	-11.9178	-90.057075	0.000727	7.271983	2.463815	-0.058077
1301	6.5000e-01	-11.9563	-90.432153	0.000939	9.392979	3.182427	-0.075016
1302	6.5050e-01	-11.9932	-90.690272	0.000646	6.463985	2.190057	-0.051624
1303	6.5100e-01	-12.0350	-90.920158	0.000576	5.756987	1.950520	-0.045977
1304	6.5150e-01	-12.0622	-91.170210	0.000626	6.261986	2.121618	-0.050010
1305	6.5200e-01	-12.1055	-91.452527	0.000707	7.069984	2.395375	-0.056463
1306	6.5250e-01	-12.1456	-91.932466	0.001202	12.018973	4.072138	-0.095988
1307	6.5300e-01	-12.1970	-92.061525	0.000323	3.231993	1.095029	-0.025812
1308	6.5350e-01	-12.2307	-92.468868	0.001020	10.200977	3.456184	-0.081469
1309	6.5400e-01	-12.2788	-92.480967	0.000030	0.302999	0.102659	-0.002420
1310	6.5450e-01	-12.3205	-92.505166	0.000061	0.605999	0.205318	-0.004840
1311	6.5500e-01	-12.3606	-92.674556	0.000424	4.241990	1.437225	-0.033878
1312	6.5550e-01	-12.3879	-92.920575	0.000616	6.160986	2.087399	-0.049204
1313	6.5600e-01	-12.4328	-93.360183	0.001101	11.008975	3.729942	-0.087922
1314	6.5650e-01	-12.4713	-93.634434	0.000687	6.867984	2.326936	-0.054850
1315	6.5700e-01	-12.5291	-93.916751	0.000707	7.069984	2.395375	-0.056463
1316	6.5750e-01	-12.5499	-94.231332	0.000788	7.877982	2.669133	-0.062916
1317	6.5800e-01	-12.5948	-94.509616	0.000697	6.968984	2.361156	-0.055657
1318	6.5850e-01	-12.6285	-94.630609	0.000303	3.029993	1.026589	-0.024199
1319	6.5900e-01	-12.6799	-94.763701	0.000333	3.332992	1.129248	-0.026618
1320	6.5950e-01	-12.7087	-95.134746	0.000929	9.291979	3.148208	-0.074209
1321	6.6000e-01	-12.7537	-95.292037	0.000394	3.938991	1.334566	-0.031458
1322	6.6050e-01	-12.7938	-95.707446	0.001040	10.402976	3.524624	-0.083082
1323	6.6100e-01	-12.8323	-95.977664	0.000677	6.766985	2.292716	-0.054044
1324	6.6150e-01	-12.8756	-96.461636	0.001212	12.119972	4.106358	-0.096794
1325	6.6200e-01	-12.9109	-96.501967	0.000101	1.009998	0.342196	-0.008066
1326	6.6250e-01	-12.9574	-96.510033	0.000020	0.202000	0.068439	-0.001613
1327	6.6300e-01	-12.9959	-96.832681	0.000808	8.079982	2.737572	-0.064530
1328	6.6350e-01	-13.0424	-96.828648	-0.000010	-0.101000	-0.034220	0.000807
1329	6.6400e-01	-13.0713	-97.187594	0.000899	8.988979	3.045549	-0.071789
1330	6.6450e-01	-13.1130	-97.566705	0.000949	9.493978	3.216647	-0.075822
1331	6.6500e-01	-13.1595	-97.611069	0.000111	1.110997	0.376416	-0.008873
1332	6.6550e-01	-13.2012	-98.074875	0.001161	11.614973	3.935260	-0.092761
1333	6.6600e-01	-13.2269	-98.244265	0.000424	4.241990	1.437225	-0.033878
1334	6.6650e-01	-13.2654	-98.478185	0.000586	5.857987	1.984740	-0.046784
1335	6.6700e-01	-13.3183	-98.449953	-0.000071	-0.706998	-0.239538	0.005646
1336	6.6750e-01	-13.3424	-98.849230	0.001000	9.998977	3.387745	-0.079855
1337	6.6800e-01	-13.3889	-99.163812	0.000788	7.877982	2.669133	-0.062916
1338	6.6850e-01	-13.4354	-99.373533	0.000525	5.251988	1.779422	-0.041944
1339	6.6900e-01	-13.4707	-99.801041	0.001071	10.705976	3.627283	-0.085502
1340	6.6950e-01	-13.5076	-100.034961	0.000586	5.857987	1.984740	-0.046784
1341	6.7000e-01	-13.5542	-99.970432	-0.000162	-1.615996	-0.547514	0.012906
1342	6.7050e-01	-13.5895	-100.248715	0.000697	6.968984	2.361156	-0.055657
1343	6.7100e-01	-13.6312	-100.603628	0.000889	8.887980	3.011329	-0.070983
1344	6.7150e-01	-13.6745	-100.813349	0.000525	5.251988	1.779422	-0.041944
1345	6.7200e-01	-13.7098	-101.148096	0.000838	8.382981	2.840231	-0.066949
1346	6.7250e-01	-13.7515	-101.240858	0.000232	2.322995	0.787052	-0.018552
1347	6.7300e-01	-13.7948	-101.365884	0.000313	3.130993	1.060809	-0.025005
1348	6.7350e-01	-13.8429	-101.591737	0.000566	5.655987	1.916300	-0.045171
1349	6.7400e-01	-13.8798	-101.999080	0.001020	10.200977	3.456184	-0.081469
1350	6.7450e-01	-13.9087	-102.402390	0.001010	10.099977	3.421965	-0.080662
1351	6.7500e-01	-13.9520	-102.595979	0.000485	4.847989	1.642543	-0.038718
1352	6.7550e-01	-13.9953	-102.656475	0.000151	1.514997	0.513295	-0.012099
1353	6.7600e-01	-14.0274	-102.926693	0.000677	6.766985	2.292716	-0.054044
1354	6.7650e-01	-14.0659	-103.132381	0.000515	5.150988	1.745202	-0.041138
1355	6.7700e-01	-14.1092	-103.354201	0.000555	5.554987	1.882081	-0.044364
1356	6.7750e-01	-14.1606	-103.628452	0.000687	6.867984	2.326936	-0.054850
1357	6.7800e-01	-14.1926	-103.862372	0.000586	5.857987	1.984740	-0.046784
1358	6.7850e-01	-14.2424	-103.975299	0.000283	2.827994	0.958150	-0.022585
1359	6.7900e-01	-14.2761	-104.185020	0.000525	5.251988	1.779422	-0.041944
1360	6.7950e-01	-14.3194	-104.487502	0.000757	7.574983	2.566474	-0.060496
1361	6.8000e-01	-14.3434	-104.846448	0.000899	8.988979	3.045549	-0.071789
1362	6.8050e-01	-14.3932	-105.060202	0.000535	5.352988	1.813641	-0.042751
1363	6.8100e-01	-14.4349	-105.354618	0.000737	7.372983	2.498034	-0.058883
1364	6.8150e-01	-14.4782	-105.475611	0.000303	3.029993	1.026589	-0.024199
1365	6.8200e-01	-14.5103	-105.895053	0.001050	10.503976	3.558843	-0.083888
1366	6.8250e-01	-14.5536	-105.979749	0.000212	2.120995	0.718613	-0.016939
1367	6.8300e-01	-14.5937	-106.354827	0.000939	9.392979	3.182427	-0.075016
1368	6.8350e-01	-14.6354	-106.350794	-0.000010	-0.101000	-0.034220	0.000807
1369	6.8400e-01	-14.6707	-106.693607	0.000858	8.584980	2.908670	-0.068563
1370	6.8450e-01	-14.7124	-106.528250	-0.000414	-4.140991	-1.403006	0.033071
1371	6.8500e-01	-14.7493	-106.967858	0.001101	11.008975	3.729942	-0.087922
1372	6.8550e-01	-14.7942	-107.431664	0.001161	11.614973	3.935260	-0.092761
1373	6.8600e-01	-14.8279	-107.673650	0.000606	6.059986	2.053179	-0.048397
1374	6.8650e-01	-14.8648	-107.754312	0.000202	2.019995	0.684393	-0.016132
1375	6.8700e-01	-14.9129	-107.935801	0.000454	4.544990	1.539884	-0.036298
1376	6.8750e-01	-14.9498	-108.335078	0.001000	9.998977	3.387745	-0.079855
1377	6.8800e-01	-14.9916	-108.581097	0.000616	6.160986	2.087399	-0.049204
1378	6.8850e-01	-15.0268	-108.694024	0.000283	2.827994	0.958150	-0.022585
1379	6.8900e-01	-15.0702	-108.823083	0.000323	3.231993	1.095029	-0.025812
1380	6.8950e-01	-15.1103	-109.141698	0.000798	7.978982	2.703352	-0.063723
1381	6.9000e-01	-15.1536	-109.391750	0.000626	6.261986	2.121618	-0.050010
1382	6.9050e-01	-15.1985	-109.726497	0.000838	8.382981	2.840231	-0.066949
1383	6.9100e-01	-15.2306	-109.887821	0.000404	4.039991	1.368786	-0.032265
1384	6.9150e-01	-15.2723	-110.133840	0.000616	6.160986	2.087399	-0.049204
1385	6.9200e-01	-15.3108	-110.412124	0.000697	6.968984	2.361156	-0.055657
1386	6.9250e-01	-15.3397	-110.738805	0.000818	8.180981	2.771792	-0.065336
1387	6.9300e-01	-15.3942	-110.900129	0.000404	4.039991	1.368786	-0.032265
1388	6.9350e-01	-15.4343	-111.251008	0.000879	8.786980	2.977109	-0.070176
1389	6.9400e-01	-15.4776	-111.037254	-0.000535	-5.352988	-1.813641	0.042751
1390	6.9450e-01	-15.5097	-111.311505	0.000687	6.867984	2.326936	-0.054850
1391	6.9500e-01	-15.5514	-111.557524	0.000616	6.160986	2.087399	-0.049204
1392	6.9550e-01	-15.6012	-111.884205	0.000818	8.180981	2.771792	-0.065336
1393	6.9600e-01	-15.6332	-112.114091	0.000576	5.756987	1.950520	-0.045977
1394	6.9650e-01	-15.6685	-112.525468	0.001030	10.301976	3.490404	-0.082275
1395	6.9700e-01	-15.7167	-112.602096	0.000192	1.918996	0.650173	-0.015326
1396	6.9750e-01	-15.7536	-112.920711	0.000798	7.978982	2.703352	-0.063723
1397	6.9800e-01	-15.7969	-113.142532	0.000555	5.554987	1.882081	-0.044364
1398	6.9850e-01	-15.8370	-113.223194	0.000202	2.019995	0.684393	-0.016132
1399	6.9900e-01	-15.8739	-113.602305	0.000949	9.493978	3.216647	-0.075822
1400	6.9950e-01	-15.9076	-113.795894	0.000485	4.847989	1.642543	-0.038718
1401	7.0000e-01	-15.9573	-114.005615	0.000525	5.251988	1.779422	-0.041944
1402	7.0050e-01	-15.9958	-114.058045	0.000131	1.312997	0.444855	-0.010486
1403	7.0100e-01	-16.0359	-114.392792	0.000838	8.382981	2.840231	-0.066949
1404	7.0150e-01	-16.0712	-114.767870	0.000939	9.392979	3.182427	-0.075016
1405	7.0200e-01	-16.1097	-114.808201	0.000101	1.009998	0.342196	-0.008066
1406	7.0250e-01	-16.1482	-115.058253	0.000626	6.261986	2.121618	-0.050010
1407	7.0300e-01	-16.1835	-115.332504	0.000687	6.867984	2.326936	-0.054850
1408	7.0350e-01	-16.2268	-115.602722	0.000677	6.766985	2.292716	-0.054044
1409	7.0400e-01	-16.2782	-116.001999	0.001000	9.998977	3.387745	-0.079855
1410	7.0450e-01	-16.3134	-116.223819	0.000555	5.554987	1.882081	-0.044364
1411	7.0500e-01	-16.3487	-116.352878	0.000323	3.231993	1.095029	-0.025812
1412	7.0550e-01	-16.3904	-116.570665	0.000545	5.453988	1.847861	-0.043557
1413	7.0600e-01	-16.4289	-116.752155	0.000454	4.544990	1.539884	-0.036298
1414	7.0650e-01	-16.4674	-117.131266	0.000949	9.493978	3.216647	-0.075822
1415	7.0700e-01	-16.5140	-117.167564	0.000091	0.908998	0.307977	-0.007260
1416	7.0750e-01	-16.5557	-117.292590	0.000313	3.130993	1.060809	-0.025005
1417	7.0800e-01	-16.6022	-117.502311	0.000525	5.251988	1.779422	-0.041944
1418	7.0850e-01	-16.6279	-117.736231	0.000586	5.857987	1.984740	-0.046784
1419	7.0900e-01	-16.6696	-118.220203	0.001212	12.119972	4.106358	-0.096794
1420	7.0950e-01	-16.7129	-118.333130	0.000283	2.827994	0.958150	-0.022585
1421	7.1000e-01	-16.7546	-118.522685	0.000475	4.746989	1.608323	-0.037911
1422	7.1050e-01	-16.7851	-118.550917	0.000071	0.706998	0.239538	-0.005646
1423	7.1100e-01	-16.8364	-118.881631	0.000828	8.281981	2.806011	-0.066143
1424	7.1150e-01	-16.8765	-119.155882	0.000687	6.867984	2.326936	-0.054850
1425	7.1200e-01	-16.9198	-119.373669	0.000545	5.453988	1.847861	-0.043557
1426	7.1250e-01	-16.9471	-119.627754	0.000636	6.362985	2.155838	-0.050817
1427	7.1300e-01	-16.9904	-119.623721	-0.000010	-0.101000	-0.034220	0.000807
1428	7.1350e-01	-17.0241	-119.934270	0.000778	7.776982	2.634913	-0.062110
1429	7.1400e-01	-17.0787	-120.139958	0.000515	5.150988	1.745202	-0.041138
1430	7.1450e-01	-17.1043	-120.438407	0.000747	7.473983	2.532254	-0.059690
1431	7.1500e-01	-17.1525	-120.825584	0.000970	9.695978	3.285086	-0.077435
1432	7.1550e-01	-17.1942	-121.095802	0.000677	6.766985	2.292716	-0.054044
1433	7.1600e-01	-17.2343	-121.341821	0.000616	6.160986	2.087399	-0.049204
1434	7.1650e-01	-17.2744	-121.422483	0.000202	2.019995	0.684393	-0.016132
1435	7.1700e-01	-17.3081	-121.559608	0.000343	3.433992	1.163468	-0.027425
1436	7.1750e-01	-17.3546	-121.938720	0.000949	9.493978	3.216647	-0.075822
1437	7.1800e-01	-17.3883	-122.007282	0.000172	1.716996	0.581734	-0.013713
1438	7.1850e-01	-17.4236	-122.394460	0.000970	9.695978	3.285086	-0.077435
1439	7.1900e-01	-17.4797	-122.547718	0.000384	3.837991	1.300347	-0.030652
1440	7.1950e-01	-17.5134	-122.676777	0.000323	3.231993	1.095029	-0.025812
1441	7.2000e-01	-17.5487	-122.938928	0.000656	6.564985	2.224277	-0.052430
1442	7.2050e-01	-17.5952	-123.205113	0.000667	6.665985	2.258497	-0.053237
1443	7.2100e-01	-17.6289	-123.314006	0.000273	2.726994	0.923931	-0.021779
1444	7.2150e-01	-17.6770	-123.511628	0.000495	4.948989	1.676763	-0.039524
1445	7.2200e-01	-17.7107	-123.713283	0.000505	5.049988	1.710982	-0.040331
1446	7.2250e-01	-17.7412	-124.225487	0.001283	12.826971	4.345895	-0.102441
1447	7.2300e-01	-17.7893	-124.390844	0.000414	4.140991	1.403006	-0.033071
1448	7.2350e-01	-17.8375	-124.568300	0.000444	4.443990	1.505665	-0.035491
1449	7.2400e-01	-17.8808	-124.802220	0.000586	5.857987	1.984740	-0.046784
1450	7.2450e-01	-17.9032	-125.011941	0.000525	5.251988	1.779422	-0.041944
1451	7.2500e-01	-17.9498	-125.141000	0.000323	3.231993	1.095029	-0.025812
1452	7.2550e-01	-17.9899	-125.399118	0.000646	6.463985	2.190057	-0.051624
1453	7.2600e-01	-18.0412	-125.677402	0.000697	6.968984	2.361156	-0.055657
1454	7.2650e-01	-18.0685	-125.963752	0.000717	7.170984	2.429595	-0.057270
1455	7.2700e-01	-18.1182	-126.060546	0.000242	2.423994	0.821272	-0.019359
1456	7.2750e-01	-18.1439	-126.161374	0.000252	2.524994	0.855491	-0.020165
1457	7.2800e-01	-18.1936	-126.588882	0.001071	10.705976	3.627283	-0.085502
1458	7.2850e-01	-18.2273	-126.875232	0.000717	7.170984	2.429595	-0.057270
1459	7.2900e-01	-18.2738	-126.996225	0.000303	3.029993	1.026589	-0.024199
1460	7.2950e-01	-18.3171	-127.347105	0.000879	8.786980	2.977109	-0.070176
1461	7.3000e-01	-18.3508	-127.528594	0.000454	4.544990	1.539884	-0.036298
1462	7.3050e-01	-18.3941	-127.681852	0.000384	3.837991	1.300347	-0.030652
1463	7.3100e-01	-18.4342	-127.996434	0.000788	7.877982	2.669133	-0.062916
1464	7.3150e-01	-18.4679	-128.073063	0.000192	1.918996	0.650173	-0.015326
1465	7.3200e-01	-18.5145	-128.262618	0.000475	4.746989	1.608323	-0.037911
1466	7.3250e-01	-18.5497	-128.581233	0.000798	7.978982	2.703352	-0.063723
1467	7.3300e-01	-18.5979	-128.738524	0.000394	3.938991	1.334566	-0.031458
1468	7.3350e-01	-18.6364	-129.085370	0.000869	8.685980	2.942890	-0.069369
1469	7.3400e-01	-18.6749	-129.121668	0.000091	0.908998	0.307977	-0.007260
1470	7.3450e-01	-18.7086	-129.315257	0.000485	4.847989	1.642543	-0.038718
1471	7.3500e-01	-18.7519	-129.524978	0.000525	5.251988	1.779422	-0.041944
1472	7.3550e-01	-18.8048	-129.698401	0.000434	4.342990	1.471445	-0.034685
1473	7.3600e-01	-18.8337	-129.984751	0.000717	7.170984	2.429595	-0.057270
1474	7.3650e-01	-18.8738	-130.359830	0.000939	9.392979	3.182427	-0.075016
1475	7.3700e-01	-18.9171	-130.605849	0.000616	6.160986	2.087399	-0.049204
1476	7.3750e-01	-18.9556	-130.763139	0.000394	3.938991	1.334566	-0.031458
1477	7.3800e-01	-19.0021	-131.081754	0.000798	7.978982	2.703352	-0.063723
1478	7.3850e-01	-19.0390	-131.166449	0.000212	2.120995	0.718613	-0.016939
1479	7.3900e-01	-19.0791	-131.460865	0.000737	7.372983	2.498034	-0.058883
1480	7.3950e-01	-19.1176	-131.565726	0.000263	2.625994	0.889711	-0.020972
1481	7.4000e-01	-19.1545	-132.029532	0.001161	11.614973	3.935260	-0.092761
1482	7.4050e-01	-19.1882	-132.174724	0.000364	3.635992	1.231907	-0.029038
1483	7.4100e-01	-19.2396	-132.553835	0.000949	9.493978	3.216647	-0.075822
1484	7.4150e-01	-19.2700	-132.779689	0.000566	5.655987	1.916300	-0.045171
1485	7.4200e-01	-19.3053	-132.884549	0.000263	2.625994	0.889711	-0.020972
1486	7.4250e-01	-19.3503	-133.187032	0.000757	7.574983	2.566474	-0.060496
1487	7.4300e-01	-19.3952	-133.154767	-0.000081	-0.807998	-0.273757	0.006453
1488	7.4350e-01	-19.4321	-133.457249	0.000757	7.574983	2.566474	-0.060496
1489	7.4400e-01	-19.4738	-133.751665	0.000737	7.372983	2.498034	-0.058883
1490	7.4450e-01	-19.5059	-134.013817	0.000656	6.564985	2.224277	-0.052430
1491	7.4500e-01	-19.5540	-134.352597	0.000848	8.483981	2.874450	-0.067756
1492	7.4550e-01	-19.5957	-134.530054	0.000444	4.443990	1.505665	-0.035491
1493	7.4600e-01	-19.6342	-134.683311	0.000384	3.837991	1.300347	-0.030652
1494	7.4650e-01	-19.6615	-134.985794	0.000757	7.574983	2.566474	-0.060496
1495	7.4700e-01	-19.7064	-134.957562	-0.000071	-0.706998	-0.239538	0.005646
1496	7.4750e-01	-19.7465	-135.227780	0.000677	6.766985	2.292716	-0.054044
1497	7.4800e-01	-19.7866	-135.405236	0.000444	4.443990	1.505665	-0.035491
1498	7.4850e-01	-19.8283	-135.663354	0.000646	6.463985	2.190057	-0.051624
1499	7.4900e-01	-19.8748	-135.941638	0.000697	6.968984	2.361156	-0.055657
1500	7.4950e-01	-19.9037	-136.098929	0.000394	3.938991	1.334566	-0.031458
1501	7.5000e-01	-19.9454	-136.328816	0.000576	5.756987	1.950520	-0.045977
1502	7.5050e-01	-19.9567	-136.433676	0.000263	2.625994	0.889711	-0.020972
1503	7.5100e-01	-19.9374	-136.570801	-0.000343	-3.433992	-1.163468	-0.027425
1504	7.5150e-01	-19.8941	-136.542570	0.000071	0.706998	0.239538	0.005646
1505	7.5200e-01	-19.8668	-136.441742	0.000252	2.524994	0.855491	0.020165
1506	7.5250e-01	-19.8251	-136.111028	0.000828	8.281981	2.806011	0.066143
1507	7.5300e-01	-19.7818	-136.038432	0.000182	1.817996	0.615954	0.014519
1508	7.5350e-01	-19.7465	-135.687553	0.000879	8.786980	2.977109	0.070176
1509	7.5400e-01	-19.6936	-135.756116	-0.000172	-1.716996	-0.581734	-0.013713
1510	7.5450e-01	-19.6631	-135.437501	0.000798	7.978982	2.703352	0.063723
1511	7.5500e-01	-19.6246	-135.235846	0.000505	5.049988	1.710982	0.040331
1512	7.5550e-01	-19.5700	-135.191482	0.000111	1.110997	0.376416	0.008873
1513	7.5600e-01	-19.5396	-134.921264	0.000677	6.766985	2.292716	0.054044
1514	7.5650e-01	-19.4962	-135.001926	-0.000202	-2.019995	-0.684393	-0.016132
1515	7.5700e-01	-19.4577	-134.828503	0.000434	4.342990	1.471445	0.034685
1516	7.5750e-01	-19.4241	-134.566351	0.000656	6.564985	2.224277	0.052430
1517	7.5800e-01	-19.3807	-134.433259	0.000333	3.332992	1.129248	0.026618
1518	7.5850e-01	-19.3358	-134.106578	0.000818	8.180981	2.771792	0.065336
1519	7.5900e-01	-19.3053	-134.207406	-0.000252	-2.524994	-0.855491	-0.020165
1520	7.5950e-01	-19.2492	-134.207406	0.000000	0.000000	0.000000	0.000000
1521	7.6000e-01	-19.2267	-134.001718	0.000515	5.150988	1.745202	0.041138
1522	7.6050e-01	-19.1818	-133.683103	0.000798	7.978982	2.703352	0.063723
1523	7.6100e-01	-19.1433	-133.574209	0.000273	2.726994	0.923931	0.021779
1524	7.6150e-01	-19.0952	-133.590342	-0.000040	-0.403999	-0.136879	-0.003226
1525	7.6200e-01	-19.0727	-133.239462	0.000879	8.786980	2.977109	0.070176
1526	7.6250e-01	-19.0198	-133.045873	0.000485	4.847989	1.642543	0.038718
1527	7.6300e-01	-18.9717	-132.892615	0.000384	3.837991	1.300347	0.030652
1528	7.6350e-01	-18.9460	-132.844218	0.000121	1.211997	0.410636	0.009679
1529	7.6400e-01	-18.8947	-132.670795	0.000434	4.342990	1.471445	0.034685
1530	7.6450e-01	-18.8594	-132.670795	0.000000	0.000000	0.000000	0.000000
1531	7.6500e-01	-18.8225	-132.271518	0.001000	9.998977	3.387745	0.079855
1532	7.6550e-01	-18.7824	-132.239254	0.000081	0.807998	0.273757	0.006453
1533	7.6600e-01	-18.7455	-131.936771	0.000757	7.574983	2.566474	0.060496
1534	7.6650e-01	-18.7054	-131.686719	0.000626	6.261986	2.121618	0.050010
1535	7.6700e-01	-18.6620	-131.460865	0.000566	5.655987	1.916300	0.045171
1536	7.6750e-01	-18.6284	-131.440700	0.000050	0.504999	0.171098	0.004033
1537	7.6800e-01	-18.5818	-131.323740	0.000293	2.928993	0.992370	0.023392
1538	7.6850e-01	-18.5401	-131.347939	-0.000061	-0.605999	-0.205318	-0.004840
1539	7.6900e-01	-18.5064	-131.130151	0.000545	5.453988	1.847861	0.043557
1540	7.6950e-01	-18.4551	-130.872033	0.000646	6.463985	2.190057	0.051624
1541	7.7000e-01	-18.4246	-130.553418	0.000798	7.978982	2.703352	0.063723
1542	7.7050e-01	-18.3829	-130.650213	-0.000242	-2.423994	-0.821272	-0.019359
1543	7.7100e-01	-18.3332	-130.476789	0.000434	4.342990	1.471445	0.034685
1544	7.7150e-01	-18.2979	-130.271101	0.000515	5.150988	1.745202	0.041138
1545	7.7200e-01	-18.2674	-129.896023	0.000939	9.392979	3.182427	0.075016
1546	7.7250e-01	-18.2289	-129.791163	0.000263	2.625994	0.889711	0.020972
1547	7.7300e-01	-18.1856	-129.456415	0.000838	8.382981	2.840231	0.066949
1548	7.7350e-01	-18.1407	-129.633872	-0.000444	-4.443990	-1.505665	-0.035491
1549	7.7400e-01	-18.0909	-129.254761	0.000949	9.493978	3.216647	0.075822
1550	7.7450e-01	-18.0653	-128.952278	0.000757	7.574983	2.566474	0.060496
1551	7.7500e-01	-18.0268	-128.891782	0.000151	1.514997	0.513295	0.012099
1552	7.7550e-01	-17.9786	-128.786921	0.000263	2.625994	0.889711	0.020972
1553	7.7600e-01	-17.9466	-128.448141	0.000848	8.483981	2.874450	0.067756
1554	7.7650e-01	-17.9048	-128.339247	0.000273	2.726994	0.923931	0.021779
1555	7.7700e-01	-17.8599	-128.141625	0.000495	4.948989	1.676763	0.039524
1556	7.7750e-01	-17.8343	-127.871408	0.000677	6.766985	2.292716	0.054044
1557	7.7800e-01	-17.7845	-127.895606	-0.000061	-0.605999	-0.205318	-0.004840
1558	7.7850e-01	-17.7412	-127.431800	0.001161	11.614973	3.935260	0.092761
1559	7.7900e-01	-17.7139	-127.306774	0.000313	3.130993	1.060809	0.025005
1560	7.7950e-01	-17.6610	-127.282575	0.000061	0.605999	0.205318	0.004840
1561	7.8000e-01	-17.6193	-127.072854	0.000525	5.251988	1.779422	0.041944
1562	7.8050e-01	-17.5872	-127.004292	0.000172	1.716996	0.581734	0.013713
1563	7.8100e-01	-17.5407	-126.955894	0.000121	1.211997	0.410636	0.009679
1564	7.8150e-01	-17.5070	-126.665511	0.000727	7.271983	2.463815	0.058077
1565	7.8200e-01	-17.4621	-126.479989	0.000465	4.645989	1.574104	0.037105
1566	7.8250e-01	-17.4300	-126.185573	0.000737	7.372983	2.498034	0.058883
1567	7.8300e-01	-17.3754	-126.088778	0.000242	2.423994	0.821272	0.019359
1568	7.8350e-01	-17.3402	-125.770163	0.000798	7.978982	2.703352	0.063723
1569	7.8400e-01	-17.3097	-125.572542	0.000495	4.948989	1.676763	0.039524
1570	7.8450e-01	-17.2664	-125.483813	0.000222	2.221995	0.752832	0.017746
1571	7.8500e-01	-17.2230	-125.286192	0.000495	4.948989	1.676763	0.039524
1572	7.8550e-01	-17.1878	-125.233761	0.000131	1.312997	0.444855	0.010486
1573	7.8600e-01	-17.1412	-124.798187	0.001091	10.907975	3.695722	0.087115
1574	7.8650e-01	-17.0963	-124.749789	0.000121	1.211997	0.410636	0.009679
1575	7.8700e-01	-17.0562	-124.620730	0.000323	3.231993	1.095029	0.025812
1576	7.8750e-01	-17.0177	-124.584432	0.000091	0.908998	0.307977	0.007260
1577	7.8800e-01	-16.9920	-124.148858	0.001091	10.907975	3.695722	0.087115
1578	7.8850e-01	-16.9439	-124.068196	0.000202	2.019995	0.684393	0.016132
1579	7.8900e-01	-16.8958	-124.128692	-0.000151	-1.514997	-0.513295	-0.012099
1580	7.8950e-01	-16.8525	-123.814111	0.000788	7.877982	2.669133	0.062916
1581	7.9000e-01	-16.8188	-123.503562	0.000778	7.776982	2.634913	0.062110
1582	7.9050e-01	-16.7819	-123.495496	0.000020	0.202000	0.068439	0.001613
1583	7.9100e-01	-16.7418	-123.136550	0.000899	8.988979	3.045549	0.071789
1584	7.9150e-01	-16.7033	-122.785670	0.000879	8.786980	2.977109	0.070176
1585	7.9200e-01	-16.6776	-122.680810	0.000263	2.625994	0.889711	0.020972
1586	7.9250e-01	-16.6247	-122.547718	0.000333	3.332992	1.129248	0.026618
1587	7.9300e-01	-16.5814	-122.515453	0.000081	0.807998	0.273757	0.006453
1588	7.9350e-01	-16.5428	-122.188772	0.000818	8.180981	2.771792	0.065336
1589	7.9400e-01	-16.4995	-122.079878	0.000273	2.726994	0.923931	0.021779
1590	7.9450e-01	-16.4594	-121.934687	0.000364	3.635992	1.231907	0.029038
1591	7.9500e-01	-16.4177	-121.656403	0.000697	6.968984	2.361156	0.055657
1592	7.9550e-01	-16.3904	-121.321656	0.000838	8.382981	2.840231	0.066949
1593	7.9600e-01	-16.3391	-121.257126	0.000162	1.615996	0.547514	0.012906
1594	7.9650e-01	-16.3022	-121.172431	0.000212	2.120995	0.718613	0.016939
1595	7.9700e-01	-16.2653	-121.019173	0.000384	3.837991	1.300347	0.030652
1596	7.9750e-01	-16.2140	-120.757022	0.000656	6.564985	2.224277	0.052430
1597	7.9800e-01	-16.1739	-120.627963	0.000323	3.231993	1.095029	0.025812
1598	7.9850e-01	-16.1482	-120.381944	0.000616	6.160986	2.087399	0.049204
1599	7.9900e-01	-16.1065	-120.156090	0.000566	5.655987	1.916300	0.045171
1600	7.9950e-01	-16.0552	-119.994766	0.000404	4.039991	1.368786	0.032265
1601	8.0000e-01	-16.0183	-119.708416	0.000717	7.170984	2.429595	0.057270
1602	8.0050e-01	-15.9782	-119.619688	0.000222	2.221995	0.752832	0.017746
1603	8.0100e-01	-15.9477	-119.293007	0.000818	8.180981	2.771792	0.065336
1604	8.0150e-01	-15.8996	-119.345437	-0.000131	-1.312997	-0.444855	-0.010486
1605	8.0200e-01	-15.8594	-119.051021	0.000737	7.372983	2.498034	0.058883
1606	8.0250e-01	-15.8242	-118.800969	0.000626	6.261986	2.121618	0.050010
1607	8.0300e-01	-15.7776	-118.889697	-0.000222	-2.221995	-0.752832	-0.017746
1608	8.0350e-01	-15.7407	-118.417825	0.001182	11.816973	4.003699	0.094375
1609	8.0400e-01	-15.6990	-118.212137	0.000515	5.150988	1.745202	0.041138
1610	8.0450e-01	-15.6589	-118.147607	0.000162	1.615996	0.547514	0.012906
1611	8.0500e-01	-15.6252	-117.921753	0.000566	5.655987	1.916300	0.045171
1612	8.0550e-01	-15.5851	-117.582973	0.000848	8.483981	2.874450	0.067756
1613	8.0600e-01	-15.5370	-117.324855	0.000646	6.463985	2.190057	0.051624
1614	8.0650e-01	-15.5001	-117.453914	-0.000323	-3.231993	-1.095029	-0.025812
1615	8.0700e-01	-15.4600	-117.090935	0.000909	9.089979	3.079768	0.072596
1616	8.0750e-01	-15.4247	-116.885247	0.000515	5.150988	1.745202	0.041138
1617	8.0800e-01	-15.3798	-116.760221	0.000313	3.130993	1.060809	0.025005
1618	8.0850e-01	-15.3365	-116.469838	0.000727	7.271983	2.463815	0.058077
1619	8.0900e-01	-15.3044	-116.243984	0.000566	5.655987	1.916300	0.045171
1620	8.0950e-01	-15.2579	-115.993932	0.000626	6.261986	2.121618	0.050010
1621	8.1000e-01	-15.2194	-115.844708	0.000374	3.736991	1.266127	0.029845
1622	8.1050e-01	-15.1728	-115.655152	0.000475	4.746989	1.608323	0.037911
1623	8.1100e-01	-15.1440	-115.421232	0.000586	5.857987	1.984740	0.046784
1624	8.1150e-01	-15.0990	-115.263942	0.000394	3.938991	1.334566	0.031458
1625	8.1200e-01	-15.0654	-115.050187	0.000535	5.352988	1.813641	0.042751
1626	8.1250e-01	-15.0301	-115.070353	-0.000050	-0.504999	-0.171098	-0.004033
1627	8.1300e-01	-14.9900	-114.675109	0.000990	9.897977	3.353526	0.079049
1628	8.1350e-01	-14.9450	-114.360527	0.000788	7.877982	2.669133	0.062916
1629	8.1400e-01	-14.9033	-114.215336	0.000364	3.635992	1.231907	0.029038
1630	8.1450e-01	-14.8520	-114.187104	0.000071	0.706998	0.239538	0.005646
1631	8.1500e-01	-14.8247	-113.981416	0.000515	5.150988	1.745202	0.041138
1632	8.1550e-01	-14.7830	-113.561974	0.001050	10.503976	3.558843	0.083888
1633	8.1600e-01	-14.7397	-113.384518	0.000444	4.443990	1.505665	0.035491
1634	8.1650e-01	-14.7012	-113.146565	0.000596	5.958986	2.018959	0.047591
1635	8.1700e-01	-14.6466	-113.203028	-0.000141	-1.413997	-0.479075	-0.011293
1636	8.1750e-01	-14.6290	-112.912645	0.000727	7.271983	2.463815	0.058077
1637	8.1800e-01	-14.5777	-112.630328	0.000707	7.069984	2.395375	0.056463
1638	8.1850e-01	-14.5424	-112.198787	0.001081	10.806975	3.661502	0.086308
1639	8.1900e-01	-14.4975	-112.110058	0.000222	2.221995	0.752832	0.017746
1640	8.1950e-01	-14.4638	-112.041496	0.000172	1.716996	0.581734	0.013713
1641	8.2000e-01	-14.4253	-111.759179	0.000707	7.069984	2.395375	0.056463
1642	8.2050e-01	-14.3803	-111.533325	0.000566	5.655987	1.916300	0.045171
1643	8.2100e-01	-14.3370	-111.275207	0.000646	6.463985	2.190057	0.051624
1644	8.2150e-01	-14.2969	-111.138082	0.000343	3.433992	1.163468	0.027425
1645	8.2200e-01	-14.2600	-111.125982	0.000030	0.302999	0.102659	0.002420
1646	8.2250e-01	-14.2231	-111.101784	0.000061	0.605999	0.205318	0.004840
1647	8.2300e-01	-14.1798	-110.553282	0.001374	13.735969	4.653872	0.109700
1648	8.2350e-01	-14.1381	-110.456488	0.000242	2.423994	0.821272	0.019359
1649	8.2400e-01	-14.1044	-110.242734	0.000535	5.352988	1.813641	0.042751
1650	8.2450e-01	-14.0579	-110.182237	0.000151	1.514997	0.513295	0.012099
1651	8.2500e-01	-14.0290	-109.734563	0.001121	11.210974	3.798381	0.089535
1652	8.2550e-01	-13.9841	-109.597438	0.000343	3.433992	1.163468	0.027425
1653	8.2600e-01	-13.9440	-109.323187	0.000687	6.867984	2.326936	0.054850
1654	8.2650e-01	-13.8959	-109.411915	-0.000222	-2.221995	-0.752832	-0.017746
1655	8.2700e-01	-13.8622	-108.883580	0.001323	13.230970	4.482774	0.105667
1656	8.2750e-01	-13.8301	-108.484303	0.001000	9.998977	3.387745	0.079855
1657	8.2800e-01	-13.7804	-108.564965	-0.000202	-2.019995	-0.684393	-0.016132
1658	8.2850e-01	-13.7467	-108.314913	0.000626	6.261986	2.121618	0.050010
1659	8.2900e-01	-13.6969	-108.097125	0.000545	5.453988	1.847861	0.043557
1660	8.2950e-01	-13.6552	-107.863206	0.000586	5.857987	1.984740	0.046784
1661	8.3000e-01	-13.6215	-107.528458	0.000838	8.382981	2.840231	0.066949
1662	8.3050e-01	-13.5766	-107.383267	0.000364	3.635992	1.231907	0.029038
1663	8.3100e-01	-13.5365	-107.173546	0.000525	5.251988	1.779422	0.041944
1664	8.3150e-01	-13.4932	-107.100950	0.000182	1.817996	0.615954	0.014519
1665	8.3200e-01	-13.4611	-106.834765	0.000667	6.665985	2.258497	0.053237
1666	8.3250e-01	-13.4178	-106.697640	0.000343	3.433992	1.163468	0.027425
1667	8.3300e-01	-13.3697	-106.508084	0.000475	4.746989	1.608323	0.037911
1668	8.3350e-01	-13.3328	-106.350794	0.000394	3.938991	1.334566	0.031458
1669	8.3400e-01	-13.2991	-106.205602	0.000364	3.635992	1.231907	0.029038
1670	8.3450e-01	-13.2590	-105.782127	0.001060	10.604976	3.593063	0.084695
1671	8.3500e-01	-13.2173	-105.471578	0.000778	7.776982	2.634913	0.062110
1672	8.3550e-01	-13.1868	-105.076334	0.000990	9.897977	3.353526	0.079049
1673	8.3600e-01	-13.1419	-104.943242	0.000333	3.332992	1.129248	0.026618
1674	8.3650e-01	-13.1034	-104.846448	0.000242	2.423994	0.821272	0.019359
1675	8.3700e-01	-13.0601	-104.636727	0.000525	5.251988	1.779422	0.041944
1676	8.3750e-01	-13.0216	-104.564131	0.000182	1.817996	0.615954	0.014519
1677	8.3800e-01	-12.9815	-104.386675	0.000444	4.443990	1.505665	0.035491
1678	8.3850e-01	-12.9397	-103.910769	0.001192	11.917973	4.037918	0.095181
1679	8.3900e-01	-12.8964	-103.434863	0.001192	11.917973	4.037918	0.095181
1680	8.3950e-01	-12.8611	-103.418731	0.000040	0.403999	0.136879	0.003226
1681	8.4000e-01	-12.8162	-103.390499	0.000071	0.706998	0.239538	0.005646
1682	8.4050e-01	-12.7809	-103.136414	0.000636	6.362985	2.155838	0.050817
1683	8.4100e-01	-12.7488	-102.890395	0.000616	6.160986	2.087399	0.049204
1684	8.4150e-01	-12.6943	-102.721005	0.000424	4.241990	1.437225	0.033878
1685	8.4200e-01	-12.6702	-102.523383	0.000495	4.948989	1.676763	0.039524
1686	8.4250e-01	-12.6333	-102.257199	0.000667	6.665985	2.258497	0.053237
1687	8.4300e-01	-12.5884	-101.995047	0.000656	6.564985	2.224277	0.052430
1688	8.4350e-01	-12.5451	-101.789359	0.000515	5.150988	1.745202	0.041138
1689	8.4400e-01	-12.5050	-101.700631	0.000222	2.221995	0.752832	0.017746
1690	8.4450e-01	-12.4697	-101.402182	0.000747	7.473983	2.532254	0.059690
1691	8.4500e-01	-12.4232	-101.289255	0.000283	2.827994	0.958150	0.022585
1692	8.4550e-01	-12.3847	-101.107765	0.000454	4.544990	1.539884	0.036298
1693	8.4600e-01	-12.3510	-100.809316	0.000747	7.473983	2.532254	0.059690
1694	8.4650e-01	-12.3093	-100.728654	0.000202	2.019995	0.684393	0.016132
1695	8.4700e-01	-12.2595	-100.406006	0.000808	8.079982	2.737572	0.064530
1696	8.4750e-01	-12.2194	-100.188219	0.000545	5.453988	1.847861	0.043557
1697	8.4800e-01	-12.1858	-99.938167	0.000626	6.261986	2.121618	0.050010
1698	8.4850e-01	-12.1505	-99.764744	0.000434	4.342990	1.471445	0.034685
1699	8.4900e-01	-12.1007	-99.490493	0.000687	6.867984	2.326936	0.054850
1700	8.4950e-01	-12.0574	-99.095249	0.000990	9.897977	3.353526	0.079049
1701	8.5000e-01	-12.0093	-99.058951	0.000091	0.908998	0.307977	0.007260
1702	8.5050e-01	-11.9788	-98.861329	0.000495	4.948989	1.676763	0.039524
1703	8.5100e-01	-11.9483	-98.437854	0.001060	10.604976	3.593063	0.084695
1704	8.5150e-01	-11.9002	-98.369291	0.000172	1.716996	0.581734	0.013713
1705	8.5200e-01	-11.8633	-98.179736	0.000475	4.746989	1.608323	0.037911
1706	8.5250e-01	-11.8216	-98.066809	0.000283	2.827994	0.958150	0.022585
1707	8.5300e-01	-11.7831	-97.764327	0.000757	7.574983	2.566474	0.060496
1708	8.5350e-01	-11.7414	-97.377149	0.000970	9.695978	3.285086	0.077435
1709	8.5400e-01	-11.7029	-97.356984	0.000050	0.504999	0.171098	0.004033
1710	8.5450e-01	-11.6692	-96.941575	0.001040	10.402976	3.524624	0.083082
1711	8.5500e-01	-11.6243	-96.707655	0.000586	5.857987	1.984740	0.046784
1712	8.5550e-01	-11.5874	-96.614894	0.000232	2.322995	0.787052	0.018552
1713	8.5600e-01	-11.5521	-96.171253	0.001111	11.109975	3.764161	0.088728
1714	8.5650e-01	-11.5023	-96.223683	-0.000131	-1.312997	-0.444855	-0.010486
1715	8.5700e-01	-11.4606	-96.138988	0.000212	2.120995	0.718613	0.016939
1716	8.5750e-01	-11.4141	-95.711479	0.001071	10.705976	3.627283	0.085502
1717	8.5800e-01	-11.3788	-95.433196	0.000697	6.968984	2.361156	0.055657
1718	8.5850e-01	-11.3435	-95.150879	0.000707	7.069984	2.395375	0.056463
1719	8.5900e-01	-11.3018	-94.965356	0.000465	4.645989	1.574104	0.037105
1720	8.5950e-01	-11.2617	-94.824198	0.000353	3.534992	1.197688	0.028232
1721	8.6000e-01	-11.2280	-94.610444	0.000535	5.352988	1.813641	0.042751
1722	8.6050e-01	-11.1687	-94.352325	0.000646	6.463985	2.190057	0.051624
1723	8.6100e-01	-11.1430	-94.231332	0.000303	3.029993	1.026589	0.024199
1724	8.6150e-01	-11.1061	-93.517474	0.001788	17.876959	6.056878	0.142772
1725	8.6200e-01	-11.0580	-93.642500	-0.000313	-3.130993	-1.060809	-0.025005
1726	8.6250e-01	-11.0227	-93.412613	0.000576	5.756987	1.950520	0.045977
1727	8.6300e-01	-10.9810	-93.150462	0.000656	6.564985	2.224277	0.052430
1728	8.6350e-01	-10.9377	-93.025436	0.000313	3.130993	1.060809	0.025005
1729	8.6400e-01	-10.8992	-92.751185	0.000687	6.867984	2.326936	0.054850
1730	8.6450e-01	-10.8542	-92.464835	0.000717	7.170984	2.429595	0.057270
1731	8.6500e-01	-10.8222	-92.178485	0.000717	7.170984	2.429595	0.057270
1732	8.6550e-01	-10.7804	-91.980863	0.000495	4.948989	1.676763	0.039524
1733	8.6600e-01	-10.7484	-91.706613	0.000687	6.867984	2.326936	0.054850
1734	8.6650e-01	-10.6986	-91.654182	0.000131	1.312997	0.444855	0.010486
1735	8.6700e-01	-10.6601	-91.319435	0.000838	8.382981	2.840231	0.066949
1736	8.6750e-01	-10.6200	-90.779000	0.001353	13.533969	4.585433	0.108087
1737	8.6800e-01	-10.5944	-90.851596	-0.000182	-1.817996	-0.615954	-0.014519
1738	8.6850e-01	-10.5366	-90.553146	0.000747	7.473983	2.532254	0.059690
1739	8.6900e-01	-10.4981	-90.375690	0.000444	4.443990	1.505665	0.035491
1740	8.6950e-01	-10.4628	-90.089340	0.000717	7.170984	2.429595	0.057270
1741	8.7000e-01	-10.4195	-89.819122	0.000677	6.766985	2.292716	0.054044
1742	8.7050e-01	-10.3890	-89.734427	0.000212	2.120995	0.718613	0.016939
1743	8.7100e-01	-10.3393	-89.657798	0.000192	1.918996	0.650173	0.015326
1744	8.7150e-01	-10.3056	-89.355316	0.000757	7.574983	2.566474	0.060496
1745	8.7200e-01	-10.2623	-89.052834	0.000757	7.574983	2.566474	0.060496
1746	8.7250e-01	-10.2206	-88.968139	0.000212	2.120995	0.718613	0.016939
1747	8.7300e-01	-10.1853	-88.613226	0.000889	8.887980	3.011329	0.070983
1748	8.7350e-01	-10.1420	-88.367207	0.000616	6.160986	2.087399	0.049204
1749	8.7400e-01	-10.1035	-88.145387	0.000555	5.554987	1.882081	0.044364
1750	8.7450e-01	-10.0505	-87.810639	0.000838	8.382981	2.840231	0.066949
1751	8.7500e-01	-10.0200	-87.496058	0.000788	7.877982	2.669133	0.062916
1752	8.7550e-01	-9.9767	-87.286337	0.000525	5.251988	1.779422	0.041944
1753	8.7600e-01	-9.9350	-87.036284	0.000626	6.261986	2.121618	0.050010
1754	8.7650e-01	-9.9045	-86.741868	0.000737	7.372983	2.498034	0.058883
1755	8.7700e-01	-9.8612	-86.503915	0.000596	5.958986	2.018959	0.047591
1756	8.7750e-01	-9.8211	-86.306294	0.000495	4.948989	1.676763	0.039524
1757	8.7800e-01	-9.7794	-86.100606	0.000515	5.150988	1.745202	0.041138
1758	8.7850e-01	-9.7377	-85.608567	0.001232	12.321972	4.174797	0.098408
1759	8.7900e-01	-9.7008	-85.334317	0.000687	6.867984	2.326936	0.054850
1760	8.7950e-01	-9.6559	-85.205258	0.000323	3.231993	1.095029	0.025812
1761	8.8000e-01	-9.6238	-85.193158	0.000030	0.302999	0.102659	0.002420
1762	8.8050e-01	-9.5773	-85.056033	0.000343	3.433992	1.163468	0.027425
1763	8.8100e-01	-9.5420	-84.584160	0.001182	11.816973	4.003699	0.094375
1764	8.8150e-01	-9.4955	-84.398638	0.000465	4.645989	1.574104	0.037105
1765	8.8200e-01	-9.4634	-84.184884	0.000535	5.352988	1.813641	0.042751
1766	8.8250e-01	-9.4152	-83.886434	0.000747	7.473983	2.532254	0.059690
1767	8.8300e-01	-9.3832	-83.632349	0.000636	6.362985	2.155838	0.050817
1768	8.8350e-01	-9.3447	-83.442794	0.000475	4.746989	1.608323	0.037911
1769	8.8400e-01	-9.2965	-83.241139	0.000505	5.049988	1.710982	0.040331
1770	8.8450e-01	-9.2612	-83.043517	0.000495	4.948989	1.676763	0.039524
1771	8.8500e-01	-9.2195	-82.696670	0.000869	8.685980	2.942890	0.069369
1772	8.8550e-01	-9.1794	-82.361923	0.000838	8.382981	2.840231	0.066949
1773	8.8600e-01	-9.1441	-82.055408	0.000768	7.675982	2.600693	0.061303
1774	8.8650e-01	-9.1024	-81.708561	0.000869	8.685980	2.942890	0.069369
1775	8.8700e-01	-9.0591	-81.535138	0.000434	4.342990	1.471445	0.034685
1776	8.8750e-01	-9.0206	-81.406079	0.000323	3.231993	1.095029	0.025812
1777	8.8800e-01	-8.9757	-81.196358	0.000525	5.251988	1.779422	0.041944
1778	8.8850e-01	-8.9468	-81.026967	0.000424	4.241990	1.437225	0.033878
1779	8.8900e-01	-8.9019	-80.889842	0.000343	3.433992	1.163468	0.027425
1780	8.8950e-01	-8.8650	-80.438135	0.001131	11.311974	3.832601	0.090341
1781	8.9000e-01	-8.8233	-80.305043	0.000333	3.332992	1.129248	0.026618
1782	8.9050e-01	-8.7816	-80.135653	0.000424	4.241990	1.437225	0.033878
1783	8.9100e-01	-8.7511	-79.663780	0.001182	11.816973	4.003699	0.094375
1784	8.9150e-01	-8.6933	-79.369364	0.000737	7.372983	2.498034	0.058883
1785	8.9200e-01	-8.6580	-79.276603	0.000232	2.322995	0.787052	0.018552
1786	8.9250e-01	-8.6163	-79.103179	0.000434	4.342990	1.471445	0.034685
1787	8.9300e-01	-8.5810	-78.679704	0.001060	10.604976	3.593063	0.084695
1788	8.9350e-01	-8.5313	-78.554678	0.000313	3.130993	1.060809	0.025005
1789	8.9400e-01	-8.5008	-78.308659	0.000616	6.160986	2.087399	0.049204
1790	8.9450e-01	-8.4559	-77.994077	0.000788	7.877982	2.669133	0.062916
1791	8.9500e-01	-8.4335	-77.526238	0.001172	11.715973	3.969479	0.093568
1792	8.9550e-01	-8.3853	-77.320550	0.000515	5.150988	1.745202	0.041138
1793	8.9600e-01	-8.3452	-77.312484	0.000020	0.202000	0.068439	0.001613
1794	8.9650e-01	-8.3003	-77.191491	0.000303	3.029993	1.026589	0.024199
1795	8.9700e-01	-8.2602	-76.687353	0.001262	12.624971	4.277456	0.100827
1796	8.9750e-01	-8.2137	-76.590559	0.000242	2.423994	0.821272	0.019359
1797	8.9800e-01	-8.1800	-76.227580	0.000909	9.089979	3.079768	0.072596
1798	8.9850e-01	-8.1367	-75.929131	0.000747	7.473983	2.532254	0.059690
1799	8.9900e-01	-8.1046	-75.800072	0.000323	3.231993	1.095029	0.025812
1800	8.9950e-01	-8.0597	-75.433060	0.000919	9.190979	3.113988	0.073402
1801	9.0000e-01	-8.0099	-75.380629	0.000131	1.312997	0.444855	0.010486
1802	9.0050e-01	-7.9714	-75.138644	0.000606	6.059986	2.053179	0.048397
1803	9.0100e-01	-7.9442	-74.735334	0.001010	10.099977	3.421965	0.080662
1804	9.0150e-01	-7.9008	-74.521579	0.000535	5.352988	1.813641	0.042751
1805	9.0200e-01	-7.8607	-74.392520	0.000323	3.231993	1.095029	0.025812
1806	9.0250e-01	-7.8222	-74.110203	0.000707	7.069984	2.395375	0.056463
1807	9.0300e-01	-7.7757	-73.835953	0.000687	6.867984	2.326936	0.054850
1808	9.0350e-01	-7.7517	-73.529437	0.000768	7.675982	2.600693	0.061303
1809	9.0400e-01	-7.7019	-73.259220	0.000677	6.766985	2.292716	0.054044
1810	9.0450e-01	-7.6586	-73.085796	0.000434	4.342990	1.471445	0.034685
1811	9.0500e-01	-7.6153	-72.924472	0.000404	4.039991	1.368786	0.032265
1812	9.0550e-01	-7.5800	-72.472765	0.001131	11.311974	3.832601	0.090341
1813	9.0600e-01	-7.5415	-72.396136	0.000192	1.918996	0.650173	0.015326
1814	9.0650e-01	-7.4966	-71.734708	0.001656	16.563962	5.612022	0.132286
1815	9.0700e-01	-7.4581	-71.549186	0.000465	4.645989	1.574104	0.037105
1816	9.0750e-01	-7.4212	-71.533053	0.000040	0.403999	0.136879	0.003226
1817	9.0800e-01	-7.3795	-71.166041	0.000919	9.190979	3.113988	0.073402
1818	9.0850e-01	-7.3378	-70.649805	0.001293	12.927971	4.380115	0.103247
1819	9.0900e-01	-7.3025	-70.540911	0.000273	2.726994	0.923931	0.021779
1820	9.0950e-01	-7.2575	-70.339256	0.000505	5.049988	1.710982	0.040331
1821	9.1000e-01	-7.2207	-70.073072	0.000667	6.665985	2.258497	0.053237
1822	9.1050e-01	-7.1757	-69.726225	0.000869	8.685980	2.942890	0.069369
1823	9.1100e-01	-7.1420	-69.508438	0.000545	5.453988	1.847861	0.043557
1824	9.1150e-01	-7.1100	-69.363246	0.000364	3.635992	1.231907	0.029038
1825	9.1200e-01	-7.0490	-69.032532	0.000828	8.281981	2.806011	0.066143
1826	9.1250e-01	-7.0185	-68.746182	0.000717	7.170984	2.429595	0.057270
1827	9.1300e-01	-6.9688	-68.471932	0.000687	6.867984	2.326936	0.054850
1828	9.1350e-01	-6.9351	-68.419501	0.000131	1.312997	0.444855	0.010486
1829	9.1400e-01	-6.9046	-68.104920	0.000788	7.877982	2.669133	0.062916
1830	9.1450e-01	-6.8485	-67.661279	0.001111	11.109975	3.764161	0.088728
1831	9.1500e-01	-6.8164	-67.334598	0.000818	8.180981	2.771792	0.065336
1832	9.1550e-01	-6.7763	-67.169241	0.000414	4.140991	1.403006	0.033071
1833	9.1600e-01	-6.7378	-66.931288	0.000596	5.958986	2.018959	0.047591
1834	9.1650e-01	-6.6993	-66.515879	0.001040	10.402976	3.524624	0.083082
1835	9.1700e-01	-6.6576	-66.298091	0.000545	5.453988	1.847861	0.043557
1836	9.1750e-01	-6.6175	-66.148867	0.000374	3.736991	1.266127	0.029845
1837	9.1800e-01	-6.5790	-65.906881	0.000606	6.059986	2.053179	0.048397
1838	9.1850e-01	-6.5405	-65.664895	0.000606	6.059986	2.053179	0.048397
1839	9.1900e-01	-6.5036	-65.245453	0.001050	10.503976	3.558843	0.083888
1840	9.1950e-01	-6.4554	-64.696951	0.001374	13.735969	4.653872	0.109700
1841	9.2000e-01	-6.4233	-64.709051	-0.000030	-0.302999	-0.102659	-0.002420
1842	9.2050e-01	-6.3784	-64.575958	0.000333	3.332992	1.129248	0.026618
1843	9.2100e-01	-6.3415	-64.281542	0.000737	7.372983	2.498034	0.058883
1844	9.2150e-01	-6.3030	-63.866133	0.001040	10.402976	3.524624	0.083082
1845	9.2200e-01	-6.2549	-63.841934	0.000061	0.605999	0.205318	0.004840
1846	9.2250e-01	-6.2260	-63.458790	0.000959	9.594978	3.250867	0.076629
1847	9.2300e-01	-6.1811	-63.313598	0.000364	3.635992	1.231907	0.029038
1848	9.2350e-01	-6.1426	-62.793329	0.001303	13.028970	4.414335	0.104054
1849	9.2400e-01	-6.1041	-62.595707	0.000495	4.948989	1.676763	0.039524
1850	9.2450e-01	-6.0656	-62.228695	0.000919	9.190979	3.113988	0.073402
1851	9.2500e-01	-6.0159	-62.184331	0.000111	1.110997	0.376416	0.008873
1852	9.2550e-01	-5.9822	-61.789087	0.000990	9.897977	3.353526	0.079049
1853	9.2600e-01	-5.9421	-61.623730	0.000414	4.140991	1.403006	0.033071
1854	9.2650e-01	-5.9004	-61.430141	0.000485	4.847989	1.642543	0.038718
1855	9.2700e-01	-5.8667	-61.059096	0.000929	9.291979	3.148208	0.074209
1856	9.2750e-01	-5.8266	-60.619489	0.001101	11.008975	3.729942	0.087922
1857	9.2800e-01	-5.7913	-60.446065	0.000434	4.342990	1.471445	0.034685
1858	9.2850e-01	-5.7512	-60.038722	0.001020	10.200977	3.456184	0.081469
1859	9.2900e-01	-5.6982	-59.941928	0.000242	2.423994	0.821272	0.019359
1860	9.2950e-01	-5.6629	-59.667677	0.000687	6.867984	2.326936	0.054850
1861	9.3000e-01	-5.6212	-59.353096	0.000788	7.877982	2.669133	0.062916
1862	9.3050e-01	-5.5795	-58.994150	0.000899	8.988979	3.045549	0.071789
1863	9.3100e-01	-5.5394	-58.869124	0.000313	3.130993	1.060809	0.025005
1864	9.3150e-01	-5.5025	-58.485979	0.000959	9.594978	3.250867	0.076629
1865	9.3200e-01	-5.4544	-58.243993	0.000606	6.059986	2.053179	0.048397
1866	9.3250e-01	-5.4175	-58.147199	0.000242	2.423994	0.821272	0.019359
1867	9.3300e-01	-5.3886	-57.618863	0.001323	13.230970	4.482774	0.105667
1868	9.3350e-01	-5.3389	-57.360745	0.000646	6.463985	2.190057	0.051624
1869	9.3400e-01	-5.3052	-57.219586	0.000353	3.534992	1.197688	0.028232
1870	9.3450e-01	-5.2587	-57.066329	0.000384	3.837991	1.300347	0.030652
1871	9.3500e-01	-5.2186	-56.646886	0.001050	10.503976	3.558843	0.083888
1872	9.3550e-01	-5.1849	-56.352470	0.000737	7.372983	2.498034	0.058883
1873	9.3600e-01	-5.1416	-55.908829	0.001111	11.109975	3.764161	0.088728
1874	9.3650e-01	-5.0950	-55.916896	-0.000020	-0.202000	-0.068439	-0.001613
1875	9.3700e-01	-5.0646	-55.727340	0.000475	4.746989	1.608323	0.037911
1876	9.3750e-01	-5.0164	-55.392593	0.000838	8.382981	2.840231	0.066949
1877	9.3800e-01	-4.9779	-54.981217	0.001030	10.301976	3.490404	0.082275
1878	9.3850e-01	-4.9426	-54.634370	0.000869	8.685980	2.942890	0.069369
1879	9.3900e-01	-4.9106	-54.114100	0.001303	13.028970	4.414335	0.104054
1880	9.3950e-01	-4.8608	-53.799519	0.000788	7.877982	2.669133	0.062916
1881	9.4000e-01	-4.8223	-53.545434	0.000636	6.362985	2.155838	0.050817
1882	9.4050e-01	-4.7758	-53.323613	0.000555	5.554987	1.882081	0.044364
1883	9.4100e-01	-4.7437	-53.150190	0.000434	4.342990	1.471445	0.034685
1884	9.4150e-01	-4.6940	-52.964667	0.000465	4.645989	1.574104	0.037105
1885	9.4200e-01	-4.6683	-52.666218	0.000747	7.473983	2.532254	0.059690
1886	9.4250e-01	-4.6122	-52.319372	0.000869	8.685980	2.942890	0.069369
1887	9.4300e-01	-4.5881	-51.932194	0.000970	9.695978	3.285086	0.077435
1888	9.4350e-01	-4.5448	-51.895896	0.000091	0.908998	0.307977	0.007260
1889	9.4400e-01	-4.5015	-51.670043	0.000566	5.655987	1.916300	0.045171
1890	9.4450e-01	-4.4598	-51.419991	0.000626	6.261986	2.121618	0.050010
1891	9.4500e-01	-4.4132	-50.992482	0.001071	10.705976	3.627283	0.085502
1892	9.4550e-01	-4.3844	-50.480279	0.001283	12.826971	4.345895	0.102441
1893	9.4600e-01	-4.3394	-50.262491	0.000545	5.453988	1.847861	0.043557
1894	9.4650e-01	-4.2945	-50.097134	0.000414	4.140991	1.403006	0.033071
1895	9.4700e-01	-4.2624	-49.875314	0.000555	5.554987	1.882081	0.044364
1896	9.4750e-01	-4.2272	-49.528467	0.000869	8.685980	2.942890	0.069369
1897	9.4800e-01	-4.1774	-48.988032	0.001353	13.533969	4.585433	0.108087
1898	9.4850e-01	-4.1485	-48.967867	0.000050	0.504999	0.171098	0.004033
1899	9.4900e-01	-4.1084	-48.633119	0.000838	8.382981	2.840231	0.066949
1900	9.4950e-01	-4.0667	-48.088651	0.001363	13.634969	4.619653	0.108894
1901	9.5000e-01	-4.0250	-47.903129	0.000465	4.645989	1.574104	0.037105
1902	9.5050e-01	-3.9849	-47.439322	0.001161	11.614973	3.935260	0.092761
1903	9.5100e-01	-3.9432	-47.431256	0.000020	0.202000	0.068439	0.001613
1904	9.5150e-01	-3.9063	-47.213469	0.000545	5.453988	1.847861	0.043557
1905	9.5200e-01	-3.8598	-46.846457	0.000919	9.190979	3.113988	0.073402
1906	9.5250e-01	-3.8245	-46.552041	0.000737	7.372983	2.498034	0.058883
1907	9.5300e-01	-3.7812	-46.148731	0.001010	10.099977	3.421965	0.080662
1908	9.5350e-01	-3.7395	-45.939010	0.000525	5.251988	1.779422	0.041944
1909	9.5400e-01	-3.6962	-45.741388	0.000495	4.948989	1.676763	0.039524
1910	9.5450e-01	-3.6560	-45.555865	0.000465	4.645989	1.574104	0.037105
1911	9.5500e-01	-3.6191	-45.209019	0.000869	8.685980	2.942890	0.069369
1912	9.5550e-01	-3.5839	-44.833941	0.000939	9.392979	3.182427	0.075016
1913	9.5600e-01	-3.5438	-44.616153	0.000545	5.453988	1.847861	0.043557
1914	9.5650e-01	-3.5036	-44.107983	0.001273	12.725971	4.311676	0.101634
1915	9.5700e-01	-3.4587	-44.031354	0.000192	1.918996	0.650173	0.015326
1916	9.5750e-01	-3.4170	-43.636110	0.000990	9.897977	3.353526	0.079049
1917	9.5800e-01	-3.3801	-43.418323	0.000545	5.453988	1.847861	0.043557
1918	9.5850e-01	-3.3400	-42.998881	0.001050	10.503976	3.558843	0.083888
1919	9.5900e-01	-3.3015	-42.724630	0.000687	6.867984	2.326936	0.054850
1920	9.5950e-01	-3.2566	-42.426181	0.000747	7.473983	2.532254	0.059690
1921	9.6000e-01	-3.2229	-41.893812	0.001333	13.331970	4.516994	0.106474
1922	9.6050e-01	-3.1780	-41.805084	0.000222	2.221995	0.752832	0.017746
1923	9.6100e-01	-3.1443	-41.450171	0.000889	8.887980	3.011329	0.070983
1924	9.6150e-01	-3.1074	-41.256582	0.000485	4.847989	1.642543	0.038718
1925	9.6200e-01	-3.0689	-40.974265	0.000707	7.069984	2.395375	0.056463
1926	9.6250e-01	-3.0240	-40.530624	0.001111	11.109975	3.764161	0.088728
1927	9.6300e-01	-2.9823	-40.260407	0.000677	6.766985	2.292716	0.054044
1928	9.6350e-01	-2.9470	-40.010355	0.000626	6.261986	2.121618	0.050010
1929	9.6400e-01	-2.9037	-39.715938	0.000737	7.372983	2.498034	0.058883
1930	9.6450e-01	-2.8668	-39.594946	0.000303	3.029993	1.026589	0.024199
1931	9.6500e-01	-2.8251	-39.211801	0.000959	9.594978	3.250867	0.076629
1932	9.6550e-01	-2.7866	-38.868988	0.000858	8.584980	2.908670	0.068563
1933	9.6600e-01	-2.7481	-38.473744	0.000990	9.897977	3.353526	0.079049
1934	9.6650e-01	-2.7063	-38.215626	0.000646	6.463985	2.190057	0.051624
1935	9.6700e-01	-2.6566	-37.909110	0.000768	7.675982	2.600693	0.061303
1936	9.6750e-01	-2.6181	-37.638893	0.000677	6.766985	2.292716	0.054044
1937	9.6800e-01	-2.5908	-37.191219	0.001121	11.210974	3.798381	0.089535
1938	9.6850e-01	-2.5363	-37.001663	0.000475	4.746989	1.608323	0.037911
1939	9.6900e-01	-2.5042	-36.602386	0.001000	9.998977	3.387745	0.079855
1940	9.6950e-01	-2.4545	-36.420897	0.000454	4.544990	1.539884	0.036298
1941	9.7000e-01	-2.4160	-36.328136	0.000232	2.322995	0.787052	0.018552
1942	9.7050e-01	-2.3807	-35.932892	0.000990	9.897977	3.353526	0.079049
1943	9.7100e-01	-2.3406	-35.590079	0.000858	8.584980	2.908670	0.068563
1944	9.7150e-01	-2.2989	-35.283563	0.000768	7.675982	2.600693	0.061303
1945	9.7200e-01	-2.2620	-34.948816	0.000838	8.382981	2.840231	0.066949
1946	9.7250e-01	-2.2203	-34.601969	0.000869	8.685980	2.942890	0.069369
1947	9.7300e-01	-2.1898	-34.210759	0.000980	9.796978	3.319306	0.078242
1948	9.7350e-01	-2.1449	-33.936508	0.000687	6.867984	2.326936	0.054850
1949	9.7400e-01	-2.1031	-33.730820	0.000515	5.150988	1.745202	0.041138
1950	9.7450e-01	-2.0598	-33.553364	0.000444	4.443990	1.505665	0.035491
1951	9.7500e-01	-2.0165	-33.283146	0.000677	6.766985	2.292716	0.054044
1952	9.7550e-01	-1.9796	-32.791108	0.001232	12.321972	4.174797	0.098408
1953	9.7600e-01	-1.9427	-32.520891	0.000677	6.766985	2.292716	0.054044
1954	9.7650e-01	-1.9074	-32.270838	0.000626	6.261986	2.121618	0.050010
1955	9.7700e-01	-1.8689	-31.867529	0.001010	10.099977	3.421965	0.080662
1956	9.7750e-01	-1.8304	-31.540848	0.000818	8.180981	2.771792	0.065336
1957	9.7800e-01	-1.7823	-31.270630	0.000677	6.766985	2.292716	0.054044
1958	9.7850e-01	-1.7614	-30.939916	0.000828	8.281981	2.806011	0.066143
1959	9.7900e-01	-1.6957	-30.625334	0.000788	7.877982	2.669133	0.062916
1960	9.7950e-01	-1.6732	-30.234124	0.000980	9.796978	3.319306	0.078242
1961	9.8000e-01	-1.6267	-29.951807	0.000707	7.069984	2.395375	0.056463
1962	9.8050e-01	-1.5705	-29.782417	0.000424	4.241990	1.437225	0.033878
1963	9.8100e-01	-1.5449	-29.399272	0.000959	9.594978	3.250867	0.076629
1964	9.8150e-01	-1.5000	-28.971764	0.001071	10.705976	3.627283	0.085502
1965	9.8200e-01	-1.4599	-28.693480	0.000697	6.968984	2.361156	0.055657
1966	9.8250e-01	-1.4262	-28.495858	0.000495	4.948989	1.676763	0.039524
1967	9.8300e-01	-1.3796	-28.282104	0.000535	5.352988	1.813641	0.042751
1968	9.8350e-01	-1.3443	-27.935257	0.000869	8.685980	2.942890	0.069369
1969	9.8400e-01	-1.3042	-27.669073	0.000667	6.665985	2.258497	0.053237
1970	9.8450e-01	-1.2593	-27.358524	0.000778	7.776982	2.634913	0.062110
1971	9.8500e-01	-1.2192	-27.019744	0.000848	8.483981	2.874450	0.067756
1972	9.8550e-01	-1.1775	-26.789857	0.000576	5.756987	1.950520	0.045977
1973	9.8600e-01	-1.1438	-26.422845	0.000919	9.190979	3.113988	0.073402
1974	9.8650e-01	-1.1101	-26.039701	0.000959	9.594978	3.250867	0.076629
1975	9.8700e-01	-1.0588	-25.567829	0.001182	11.816973	4.003699	0.094375
1976	9.8750e-01	-1.0139	-25.535564	0.000081	0.807998	0.273757	0.006453
1977	9.8800e-01	-0.9786	-25.136287	0.001000	9.998977	3.387745	0.079855
1978	9.8850e-01	-0.9401	-24.539388	0.001495	14.947966	5.064508	0.119380
1979	9.8900e-01	-0.9048	-24.414362	0.000313	3.130993	1.060809	0.025005
1980	9.8950e-01	-0.8647	-24.063483	0.000879	8.786980	2.977109	0.070176
1981	9.9000e-01	-0.8101	-23.849729	0.000535	5.352988	1.813641	0.042751
1982	9.9050e-01	-0.7764	-23.708570	0.000353	3.534992	1.197688	0.028232
1983	9.9100e-01	-0.7363	-23.103605	0.001515	15.149965	5.132947	0.120993
1984	9.9150e-01	-0.6850	-22.712395	0.000980	9.796978	3.319306	0.078242
1985	9.9200e-01	-0.6642	-22.603501	0.000273	2.726994	0.923931	0.021779
1986	9.9250e-01	-0.6369	-22.139695	0.001161	11.614973	3.935260	0.092761
1987	9.9300e-01	-0.5807	-21.925941	0.000535	5.352988	1.813641	0.042751
1988	9.9350e-01	-0.5406	-21.740418	0.000465	4.645989	1.574104	0.037105
1989	9.9400e-01	-0.5021	-21.296777	0.001111	11.109975	3.764161	0.088728
1990	9.9450e-01	-0.4684	-21.119321	0.000444	4.443990	1.505665	0.035491
1991	9.9500e-01	-0.4251	-20.893467	0.000566	5.655987	1.916300	0.045171
1992	9.9550e-01	-0.3802	-20.361098	0.001333	13.331970	4.516994	0.106474
1993	9.9600e-01	-0.3433	-20.026351	0.000838	8.382981	2.840231	0.066949
1994	9.9650e-01	-0.3032	-19.772266	0.000636	6.362985	2.155838	0.050817
1995	9.9700e-01	-0.2583	-19.397188	0.000939	9.392979	3.182427	0.075016
1996	9.9750e-01	-0.2166	-19.183434	0.000535	5.352988	1.813641	0.042751
1997	9.9800e-01	-0.1829	-18.735760	0.001121	11.210974	3.798381	0.089535
1998	9.9850e-01	-0.1428	-18.437310	0.000747	7.473983	2.532254	0.059690
1999	9.9900e-01	-0.1011	-18.183225	0.000636	6.362985	2.155838	0.050817
2000	9.9950e-01	-0.0658	-17.872676	0.000778	7.776982	2.634913	0.062110
2001	1.0000e+00	-0.0160	-17.529863	0.000778	7.776982	2.634913	0.068563

PMax (uC/cm2):	1.50e+02
Pr (uC/cm2):	9.74e+00
-Pr (uC/cm2):	-3.66e+00
PLoss (uC/cm2):	-3.77e+00
-Vc:	-1.20e+00
C (Max-Eff) (nF):	7.52e-01
K (Eff):	2.55e+03
Vert. (+/-Pr) Shift (uC/cm2):	3.04e+00
Offset (uC/cm2):	1.39e+01

A (Loop Area - uC/cm2·Volts):	-5.47e-02



Hysteresis Version: 5.48.1 - Radiant Technologies, Inc., 1999 - 9/12/24

