»»»»»»»»»»»»»»»»»»»»»»»»»»»»»»»»»»»» Hysteresis ««««««««««««««««««««««««««««««««««««
»»»  Executed Version:	5.48.1
»»»  Vision Version:	5.48.4 (R)
»»»  Vision Compiled:	9/18/24
»»»  Driver Version:	5.47.0
»»»  Windows Version:	Windows 8 or 8.1
»»»  Processor Information:	x86 (AMD or Intel) - 32 Processors
»»»  Tester Name:	PMF21124-494 (100V)
»»»  Tester S/N:	PMF21124-494
»»»  Internal Amp Type:	100V RevK 270k
»»»  Internal Amp S/N:	iAB2-596/K     
»»»  Execution Count:	1
»»»»»»»»»»»»»»»»»»»»»»»»»»»»»»»»»»»»»»»»»»««««««««««««««««««««««««««««««««««««««««««

Stored:	6/18/2025 - 14:47:23
Configured:	06/18/25 09:47:30 AM
Executed:	06/18/25 02:46:52 PM

»»»»»»»»»»»»»»»»»»»»»»»»»»»»»»»»»»» Sample Info ««««««««««««««««««««««««««««««««««««
Sample Name:	
Lot Name:	
Wafer Name:	
Die Row/Column:	0/0
Capacitor Number:	0
Sample Area (cm2):	1.00e-04
Sample Thickness (microns):	3.00e-01

Amplifier:	Internal

»»»»»»»»»»»»»»»»»»»»»»»»»»»»»»»»»»» Tester Info «««««««««««««««««««««««««««««««««««
Tester Name:	PMF21124-494 (100V)
Tester Serial Number:	PMF21124-494
Return Signal Amp. Level:	0.19 [Index: 3]

»»»»»»»»»»»»»»»»»»»»»»»»»»»»»»»» Hysteresis Info ««««««««««««««««««««««««««««««««««
Task Name:	Hyst-554
Volts:	20.00
Field:	666.67 (kV/cm)
DCBias:	0.00
DCField:	0.00 (kV/cm)
Hysteresis Period (ms):	2.00e+02
Preset:	Enabled
Preset Delay (ms):	1.00e+03
Profile:	Standard Bipolar

»»»»»»»»»»»»»»»»»»»»»»»»»»»»»»»»»»»»»» Data «««««««««««««««««««««««««««««««««««««««
Points:	2009

Valid Data

Point	Time (ms)	Drive Voltage	Measured Polarization (uC/cm2)	Capacitance (uF)	Normalized Capacitance (uF/cm2)	Dielectric Constant	Instantaneous Current (mA)
   1	0.0000e+00	0.0080	-23.187289	0.000436	4.359910	1.477177	0.000174
   2	9.9500e-02	0.0385	-23.013692	0.000436	4.359910	1.477177	0.000174
   3	1.9900e-01	0.0770	-22.739167	0.000689	6.894741	2.336002	0.000276
   4	2.9850e-01	0.1155	-22.436382	0.000760	7.604494	2.576472	0.000304
   5	3.9800e-01	0.1572	-22.141671	0.000740	7.401708	2.507766	0.000296
   6	4.9750e-01	0.1813	-21.859071	0.000710	7.097528	2.404708	0.000284
   7	5.9700e-01	0.2358	-21.608769	0.000629	6.286382	2.129884	0.000252
   8	6.9650e-01	0.2727	-21.350392	0.000649	6.489168	2.198590	0.000260
   9	7.9600e-01	0.3160	-21.031459	0.000801	8.010067	2.713884	0.000321
  10	8.9550e-01	0.3513	-20.793268	0.000598	5.982202	2.026825	0.000239
  11	9.9500e-01	0.3930	-20.458185	0.000842	8.415640	2.851296	0.000337
  12	1.0945e+00	0.4396	-20.203846	0.000639	6.387775	2.164237	0.000256
  13	1.1940e+00	0.4700	-19.969692	0.000588	5.880809	1.992472	0.000235
  14	1.2935e+00	0.5166	-19.614424	0.000892	8.922606	3.023061	0.000357
  15	1.3930e+00	0.5438	-19.356047	0.000649	6.489168	2.198590	0.000260
  16	1.4925e+00	0.5952	-19.057299	0.000750	7.503101	2.542119	0.000300
  17	1.5920e+00	0.6337	-18.766625	0.000730	7.300314	2.473413	0.000292
  18	1.6915e+00	0.6802	-18.516323	0.000629	6.286382	2.129884	0.000252
  19	1.7910e+00	0.7075	-18.229686	0.000720	7.198921	2.439061	0.000288
  20	1.8905e+00	0.7556	-17.910753	0.000801	8.010067	2.713884	0.000321
  21	1.9900e+00	0.7925	-17.660450	0.000629	6.286382	2.129884	0.000252
  22	2.0895e+00	0.8358	-17.353628	0.000771	7.705887	2.610825	0.000308
  23	2.1890e+00	0.8695	-17.071028	0.000710	7.097528	2.404708	0.000284
  24	2.2885e+00	0.9128	-16.792466	0.000700	6.996135	2.370355	0.000280
  25	2.3880e+00	0.9497	-16.501792	0.000730	7.300314	2.473413	0.000292
  26	2.4875e+00	0.9946	-16.215156	0.000720	7.198921	2.439061	0.000288
  27	2.5870e+00	1.0283	-15.956779	0.000649	6.489168	2.198590	0.000260
  28	2.6865e+00	1.0748	-15.649957	0.000771	7.705887	2.610825	0.000308
  29	2.7860e+00	1.1133	-15.411766	0.000598	5.982202	2.026825	0.000239
  30	2.8855e+00	1.1534	-15.084758	0.000821	8.212854	2.782590	0.000329
  31	2.9850e+00	1.1887	-14.810232	0.000689	6.894741	2.336002	0.000276
  32	3.0845e+00	1.2288	-14.515522	0.000740	7.401708	2.507766	0.000296
  33	3.1840e+00	1.2689	-14.196588	0.000801	8.010067	2.713884	0.000321
  34	3.2835e+00	1.3123	-13.918025	0.000700	6.996135	2.370355	0.000280
  35	3.3830e+00	1.3460	-13.635426	0.000710	7.097528	2.404708	0.000284
  36	3.4825e+00	1.3828	-13.304381	0.000831	8.314247	2.816943	0.000333
  37	3.5820e+00	1.4390	-13.070227	0.000588	5.880809	1.992472	0.000235
  38	3.6815e+00	1.4759	-12.775516	0.000740	7.401708	2.507766	0.000296
  39	3.7810e+00	1.5128	-12.476768	0.000750	7.503101	2.542119	0.000300
  40	3.8805e+00	1.5577	-12.137649	0.000852	8.517033	2.885649	0.000341
  41	3.9800e+00	1.5914	-11.879272	0.000649	6.489168	2.198590	0.000260
  42	4.0795e+00	1.6283	-11.600710	0.000700	6.996135	2.370355	0.000280
  43	4.1790e+00	1.6668	-11.322147	0.000700	6.996135	2.370355	0.000280
  44	4.2785e+00	1.7101	-11.003213	0.000801	8.010067	2.713884	0.000321
  45	4.3780e+00	1.7550	-10.676205	0.000821	8.212854	2.782590	0.000329
  46	4.4775e+00	1.7855	-10.409755	0.000669	6.691955	2.267296	0.000268
  47	4.5770e+00	1.8304	-10.123118	0.000720	7.198921	2.439061	0.000288
  48	4.6765e+00	1.8689	-9.812258	0.000781	7.807281	2.645178	0.000312
  49	4.7760e+00	1.9074	-9.525622	0.000720	7.198921	2.439061	0.000288
  50	4.8755e+00	1.9507	-9.234948	0.000730	7.300314	2.473413	0.000292
  51	4.9750e+00	1.9941	-8.916014	0.000801	8.010067	2.713884	0.000321
  52	5.0745e+00	2.0213	-8.665712	0.000629	6.286382	2.129884	0.000252
  53	5.1740e+00	2.0679	-8.306407	0.000902	9.024000	3.057414	0.000361
  54	5.2735e+00	2.1064	-8.100513	0.000517	5.171056	1.752001	0.000207
  55	5.3730e+00	2.1449	-7.773505	0.000821	8.212854	2.782590	0.000329
  56	5.4725e+00	2.1802	-7.470720	0.000760	7.604494	2.576472	0.000304
  57	5.5720e+00	2.2283	-7.184083	0.000720	7.198921	2.439061	0.000288
  58	5.6715e+00	2.2780	-6.869186	0.000791	7.908674	2.679531	0.000316
  59	5.7710e+00	2.3101	-6.610810	0.000649	6.489168	2.198590	0.000260
  60	5.8705e+00	2.3470	-6.287839	0.000811	8.111460	2.748237	0.000325
  61	5.9700e+00	2.3791	-5.972942	0.000791	7.908674	2.679531	0.000316
  62	6.0695e+00	2.4304	-5.694380	0.000700	6.996135	2.370355	0.000280
  63	6.1690e+00	2.4625	-5.411780	0.000710	7.097528	2.404708	0.000284
  64	6.2685e+00	2.5074	-5.056513	0.000892	8.922606	3.023061	0.000357
  65	6.3680e+00	2.5491	-4.810247	0.000618	6.184989	2.095531	0.000248
  66	6.4675e+00	2.5940	-4.559945	0.000629	6.286382	2.129884	0.000252
  67	6.5670e+00	2.6181	-4.216788	0.000862	8.618427	2.920002	0.000345
  68	6.6665e+00	2.6646	-3.926115	0.000730	7.300314	2.473413	0.000292
  69	6.7660e+00	2.7031	-3.631404	0.000740	7.401708	2.507766	0.000296
  70	6.8655e+00	2.7448	-3.308433	0.000811	8.111460	2.748237	0.000325
  71	6.9650e+00	2.7849	-3.046019	0.000659	6.590562	2.232943	0.000264
  72	7.0645e+00	2.8283	-2.743234	0.000760	7.604494	2.576472	0.000304
  73	7.1640e+00	2.8636	-2.416226	0.000821	8.212854	2.782590	0.000329
  74	7.2635e+00	2.9069	-2.137663	0.000700	6.996135	2.370355	0.000280
  75	7.3630e+00	2.9486	-1.822767	0.000791	7.908674	2.679531	0.000316
  76	7.4625e+00	2.9839	-1.532093	0.000730	7.300314	2.473413	0.000292
  77	7.5620e+00	3.0256	-1.237382	0.000740	7.401708	2.507766	0.000296
  78	7.6615e+00	3.0737	-0.950745	0.000720	7.198921	2.439061	0.000288
  79	7.7610e+00	3.1106	-0.607589	0.000862	8.618427	2.920002	0.000345
  80	7.8605e+00	3.1523	-0.333064	0.000689	6.894741	2.336002	0.000276
  81	7.9600e+00	3.1844	-0.014130	0.000801	8.010067	2.713884	0.000321
  82	8.0595e+00	3.2117	0.240210	0.000639	6.387775	2.164237	0.000256
  83	8.1590e+00	3.2726	0.599515	0.000902	9.024000	3.057414	0.000361
  84	8.2585e+00	3.3063	0.845780	0.000618	6.184989	2.095531	0.000248
  85	8.3580e+00	3.3512	1.188936	0.000862	8.618427	2.920002	0.000345
  86	8.4575e+00	3.3849	1.455387	0.000669	6.691955	2.267296	0.000268
  87	8.5570e+00	3.4266	1.774321	0.000801	8.010067	2.713884	0.000321
  88	8.6565e+00	3.4603	2.060958	0.000720	7.198921	2.439061	0.000288
  89	8.7560e+00	3.5069	2.335483	0.000689	6.894741	2.336002	0.000276
  90	8.8555e+00	3.5470	2.634231	0.000750	7.503101	2.542119	0.000300
  91	8.9550e+00	3.5758	2.953165	0.000801	8.010067	2.713884	0.000321
  92	9.0545e+00	3.6208	3.255950	0.000760	7.604494	2.576472	0.000304
  93	9.1540e+00	3.6544	3.578921	0.000811	8.111460	2.748237	0.000325
  94	9.2535e+00	3.6994	3.861520	0.000710	7.097528	2.404708	0.000284
  95	9.3530e+00	3.7411	4.148157	0.000720	7.198921	2.439061	0.000288
  96	9.4525e+00	3.7796	4.471128	0.000811	8.111460	2.748237	0.000325
  97	9.5520e+00	3.8277	4.786024	0.000791	7.908674	2.679531	0.000316
  98	9.6515e+00	3.8614	5.036327	0.000629	6.286382	2.129884	0.000252
  99	9.7510e+00	3.8983	5.371409	0.000842	8.415640	2.851296	0.000337
 100	9.8505e+00	3.9400	5.645934	0.000689	6.894741	2.336002	0.000276
 101	9.9500e+00	3.9833	5.940645	0.000740	7.401708	2.507766	0.000296
 102	1.0050e+01	4.0234	6.295913	0.000892	8.922606	3.023061	0.000357
 103	1.0149e+01	4.0635	6.554290	0.000649	6.489168	2.198590	0.000260
 104	1.0248e+01	4.1004	6.901484	0.000872	8.719820	2.954355	0.000349
 105	1.0348e+01	4.1261	7.159860	0.000649	6.489168	2.198590	0.000260
 106	1.0447e+01	4.1870	7.486868	0.000821	8.212854	2.782590	0.000329
 107	1.0547e+01	4.2143	7.785616	0.000750	7.503101	2.542119	0.000300
 108	1.0646e+01	4.2657	8.080327	0.000740	7.401708	2.507766	0.000296
 109	1.0746e+01	4.2993	8.383112	0.000760	7.604494	2.576472	0.000304
 110	1.0845e+01	4.3346	8.718195	0.000842	8.415640	2.851296	0.000337
 111	1.0945e+01	4.3828	8.992720	0.000689	6.894741	2.336002	0.000276
 112	1.1044e+01	4.4261	9.315691	0.000811	8.111460	2.748237	0.000325
 113	1.1144e+01	4.4598	9.618476	0.000760	7.604494	2.576472	0.000304
 114	1.1243e+01	4.5015	9.897038	0.000700	6.996135	2.370355	0.000280
 115	1.1343e+01	4.5416	10.211935	0.000791	7.908674	2.679531	0.000316
 116	1.1443e+01	4.5737	10.522794	0.000781	7.807281	2.645178	0.000312
 117	1.1542e+01	4.6186	10.785208	0.000659	6.590562	2.232943	0.000264
 118	1.1642e+01	4.6635	11.128365	0.000862	8.618427	2.920002	0.000345
 119	1.1741e+01	4.7068	11.410964	0.000710	7.097528	2.404708	0.000284
 120	1.1841e+01	4.7293	11.754121	0.000862	8.618427	2.920002	0.000345
 121	1.1940e+01	4.7790	12.052869	0.000750	7.503101	2.542119	0.000300
 122	1.2040e+01	4.8191	12.327394	0.000689	6.894741	2.336002	0.000276
 123	1.2139e+01	4.8576	12.589808	0.000659	6.590562	2.232943	0.000264
 124	1.2239e+01	4.9009	12.941039	0.000882	8.821213	2.988708	0.000353
 125	1.2338e+01	4.9346	13.280158	0.000852	8.517033	2.885649	0.000341
 126	1.2438e+01	4.9747	13.510275	0.000578	5.779416	1.958119	0.000231
 127	1.2537e+01	5.0229	13.825171	0.000791	7.908674	2.679531	0.000316
 128	1.2636e+01	5.0533	14.152179	0.000821	8.212854	2.782590	0.000329
 129	1.2736e+01	5.0934	14.418630	0.000669	6.691955	2.267296	0.000268
 130	1.2835e+01	5.1223	14.741601	0.000811	8.111460	2.748237	0.000325
 131	1.2935e+01	5.1801	15.024201	0.000710	7.097528	2.404708	0.000284
 132	1.3034e+01	5.2202	15.339097	0.000791	7.908674	2.679531	0.000316
 133	1.3134e+01	5.2587	15.658031	0.000801	8.010067	2.713884	0.000321
 134	1.3233e+01	5.3084	15.920445	0.000659	6.590562	2.232943	0.000264
 135	1.3333e+01	5.3373	16.243416	0.000811	8.111460	2.748237	0.000325
 136	1.3432e+01	5.3758	16.530052	0.000720	7.198921	2.439061	0.000288
 137	1.3532e+01	5.4127	16.848986	0.000801	8.010067	2.713884	0.000321
 138	1.3632e+01	5.4576	17.139660	0.000730	7.300314	2.473413	0.000292
 139	1.3731e+01	5.4961	17.462631	0.000811	8.111460	2.748237	0.000325
 140	1.3831e+01	5.5298	17.793676	0.000831	8.314247	2.816943	0.000333
 141	1.3930e+01	5.5683	18.092424	0.000750	7.503101	2.542119	0.000300
 142	1.4030e+01	5.6052	18.326578	0.000588	5.880809	1.992472	0.000235
 143	1.4129e+01	5.6549	18.681846	0.000892	8.922606	3.023061	0.000357
 144	1.4229e+01	5.7063	18.968482	0.000720	7.198921	2.439061	0.000288
 145	1.4328e+01	5.7335	19.275305	0.000771	7.705887	2.610825	0.000308
 146	1.4428e+01	5.7801	19.574053	0.000750	7.503101	2.542119	0.000300
 147	1.4527e+01	5.8105	19.905098	0.000831	8.314247	2.816943	0.000333
 148	1.4627e+01	5.8554	20.191734	0.000720	7.198921	2.439061	0.000288
 149	1.4726e+01	5.8907	20.490482	0.000750	7.503101	2.542119	0.000300
 150	1.4825e+01	5.9421	20.833639	0.000862	8.618427	2.920002	0.000345
 151	1.4925e+01	5.9806	21.128350	0.000740	7.401708	2.507766	0.000296
 152	1.5024e+01	6.0079	21.378652	0.000629	6.286382	2.129884	0.000252
 153	1.5124e+01	6.0528	21.737957	0.000902	9.024000	3.057414	0.000361
 154	1.5223e+01	6.1009	22.020557	0.000710	7.097528	2.404708	0.000284
 155	1.5323e+01	6.1346	22.335453	0.000791	7.908674	2.679531	0.000316
 156	1.5422e+01	6.1763	22.593830	0.000649	6.489168	2.198590	0.000260
 157	1.5522e+01	6.2116	22.916801	0.000811	8.111460	2.748237	0.000325
 158	1.5621e+01	6.2501	23.231698	0.000791	7.908674	2.679531	0.000316
 159	1.5721e+01	6.2966	23.550631	0.000801	8.010067	2.713884	0.000321
 160	1.5820e+01	6.3319	23.829194	0.000700	6.996135	2.370355	0.000280
 161	1.5920e+01	6.3736	24.119867	0.000730	7.300314	2.473413	0.000292
 162	1.6020e+01	6.4105	24.458987	0.000852	8.517033	2.885649	0.000341
 163	1.6119e+01	6.4490	24.721401	0.000659	6.590562	2.232943	0.000264
 164	1.6218e+01	6.4907	25.032260	0.000781	7.807281	2.645178	0.000312
 165	1.6318e+01	6.5308	25.355231	0.000811	8.111460	2.748237	0.000325
 166	1.6418e+01	6.5677	25.653979	0.000750	7.503101	2.542119	0.000300
 167	1.6517e+01	6.6159	25.952727	0.000750	7.503101	2.542119	0.000300
 168	1.6616e+01	6.6511	26.239364	0.000720	7.198921	2.439061	0.000288
 169	1.6716e+01	6.6816	26.534075	0.000740	7.401708	2.507766	0.000296
 170	1.6816e+01	6.7233	26.812637	0.000700	6.996135	2.370355	0.000280
 171	1.6915e+01	6.7731	27.155794	0.000862	8.618427	2.920002	0.000345
 172	1.7015e+01	6.8003	27.442430	0.000720	7.198921	2.439061	0.000288
 173	1.7114e+01	6.8485	27.765401	0.000811	8.111460	2.748237	0.000325
 174	1.7213e+01	6.8918	28.068186	0.000760	7.604494	2.576472	0.000304
 175	1.7313e+01	6.9207	28.342711	0.000689	6.894741	2.336002	0.000276
 176	1.7413e+01	6.9656	28.673757	0.000831	8.314247	2.816943	0.000333
 177	1.7512e+01	7.0121	28.940208	0.000669	6.691955	2.267296	0.000268
 178	1.7611e+01	7.0394	29.263178	0.000811	8.111460	2.748237	0.000325
 179	1.7711e+01	7.0891	29.545778	0.000710	7.097528	2.404708	0.000284
 180	1.7811e+01	7.1324	29.856637	0.000781	7.807281	2.645178	0.000312
 181	1.7910e+01	7.1629	30.135200	0.000700	6.996135	2.370355	0.000280
 182	1.8009e+01	7.2094	30.454133	0.000801	8.010067	2.713884	0.000321
 183	1.8109e+01	7.2511	30.752881	0.000750	7.503101	2.542119	0.000300
 184	1.8209e+01	7.2848	31.071815	0.000801	8.010067	2.713884	0.000321
 185	1.8308e+01	7.3281	31.406897	0.000842	8.415640	2.851296	0.000337
 186	1.8407e+01	7.3634	31.661237	0.000639	6.387775	2.164237	0.000256
 187	1.8507e+01	7.4100	31.964022	0.000760	7.604494	2.576472	0.000304
 188	1.8607e+01	7.4517	32.242585	0.000700	6.996135	2.370355	0.000280
 189	1.8706e+01	7.4870	32.577667	0.000842	8.415640	2.851296	0.000337
 190	1.8805e+01	7.5303	32.840081	0.000659	6.590562	2.232943	0.000264
 191	1.8905e+01	7.5784	33.154977	0.000791	7.908674	2.679531	0.000316
 192	1.9005e+01	7.6121	33.425465	0.000679	6.793348	2.301649	0.000272
 193	1.9104e+01	7.6458	33.736325	0.000781	7.807281	2.645178	0.000312
 194	1.9203e+01	7.6891	34.051221	0.000791	7.908674	2.679531	0.000316
 195	1.9303e+01	7.7244	34.354007	0.000760	7.604494	2.576472	0.000304
 196	1.9402e+01	7.7725	34.620458	0.000669	6.691955	2.267296	0.000268
 197	1.9502e+01	7.8046	34.927280	0.000771	7.705887	2.610825	0.000308
 198	1.9602e+01	7.8447	35.201805	0.000689	6.894741	2.336002	0.000276
 199	1.9701e+01	7.8864	35.540924	0.000852	8.517033	2.885649	0.000341
 200	1.9800e+01	7.9217	35.823524	0.000710	7.097528	2.404708	0.000284
 201	1.9900e+01	7.9682	36.134383	0.000781	7.807281	2.645178	0.000312
 202	2.0000e+01	8.0035	36.408909	0.000689	6.894741	2.336002	0.000276
 203	2.0099e+01	8.0372	36.719768	0.000781	7.807281	2.645178	0.000312
 204	2.0198e+01	8.0869	36.990256	0.000679	6.793348	2.301649	0.000272
 205	2.0298e+01	8.1190	37.341487	0.000882	8.821213	2.988708	0.000353
 206	2.0398e+01	8.1575	37.628124	0.000720	7.198921	2.439061	0.000288
 207	2.0497e+01	8.2040	37.894575	0.000669	6.691955	2.267296	0.000268
 208	2.0596e+01	8.2425	38.185248	0.000730	7.300314	2.473413	0.000292
 209	2.0696e+01	8.2827	38.536479	0.000882	8.821213	2.988708	0.000353
 210	2.0796e+01	8.3212	38.839264	0.000760	7.604494	2.576472	0.000304
 211	2.0895e+01	8.3613	39.150124	0.000781	7.807281	2.645178	0.000312
 212	2.0994e+01	8.4062	39.384278	0.000588	5.880809	1.992472	0.000235
 213	2.1094e+01	8.4415	39.678989	0.000740	7.401708	2.507766	0.000296
 214	2.1194e+01	8.4896	40.014071	0.000842	8.415640	2.851296	0.000337
 215	2.1293e+01	8.5217	40.280522	0.000669	6.691955	2.267296	0.000268
 216	2.1392e+01	8.5682	40.591381	0.000781	7.807281	2.645178	0.000312
 217	2.1492e+01	8.5971	40.861869	0.000679	6.793348	2.301649	0.000272
 218	2.1591e+01	8.6420	41.176766	0.000791	7.908674	2.679531	0.000316
 219	2.1691e+01	8.6773	41.471477	0.000740	7.401708	2.507766	0.000296
 220	2.1791e+01	8.7206	41.762151	0.000730	7.300314	2.473413	0.000292
 221	2.1890e+01	8.7655	42.093196	0.000831	8.314247	2.816943	0.000333
 222	2.1989e+01	8.8008	42.383870	0.000730	7.300314	2.473413	0.000292
 223	2.2089e+01	8.8393	42.650321	0.000669	6.691955	2.267296	0.000268
 224	2.2189e+01	8.8794	42.912734	0.000659	6.590562	2.232943	0.000264
 225	2.2288e+01	8.9131	43.219557	0.000771	7.705887	2.610825	0.000308
 226	2.2387e+01	8.9580	43.522342	0.000760	7.604494	2.576472	0.000304
 227	2.2487e+01	8.9997	43.825127	0.000760	7.604494	2.576472	0.000304
 228	2.2587e+01	9.0431	44.140024	0.000791	7.908674	2.679531	0.000316
 229	2.2686e+01	9.0735	44.414549	0.000689	6.894741	2.336002	0.000276
 230	2.2785e+01	9.1201	44.721371	0.000771	7.705887	2.610825	0.000308
 231	2.2885e+01	9.1586	44.959562	0.000598	5.982202	2.026825	0.000239
 232	2.2985e+01	9.2003	45.250236	0.000730	7.300314	2.473413	0.000292
 233	2.3084e+01	9.2356	45.532835	0.000710	7.097528	2.404708	0.000284
 234	2.3183e+01	9.2869	45.847732	0.000791	7.908674	2.679531	0.000316
 235	2.3283e+01	9.3206	46.182814	0.000842	8.415640	2.851296	0.000337
 236	2.3383e+01	9.3575	46.425042	0.000608	6.083595	2.061178	0.000243
 237	2.3482e+01	9.3992	46.743976	0.000801	8.010067	2.713884	0.000321
 238	2.3581e+01	9.4473	46.994279	0.000629	6.286382	2.129884	0.000252
 239	2.3681e+01	9.4698	47.313212	0.000801	8.010067	2.713884	0.000321
 240	2.3780e+01	9.5163	47.607923	0.000740	7.401708	2.507766	0.000296
 241	2.3880e+01	9.5612	47.918783	0.000781	7.807281	2.645178	0.000312
 242	2.3980e+01	9.5949	48.140825	0.000558	5.576629	1.889413	0.000223
 243	2.4079e+01	9.6382	48.479945	0.000852	8.517033	2.885649	0.000341
 244	2.4178e+01	9.6735	48.746395	0.000669	6.691955	2.267296	0.000268
 245	2.4278e+01	9.7136	49.004772	0.000649	6.489168	2.198590	0.000260
 246	2.4378e+01	9.7585	49.343892	0.000852	8.517033	2.885649	0.000341
 247	2.4477e+01	9.7954	49.618417	0.000689	6.894741	2.336002	0.000276
 248	2.4576e+01	9.8211	49.880831	0.000659	6.590562	2.232943	0.000264
 249	2.4676e+01	9.8773	50.195727	0.000791	7.908674	2.679531	0.000316
 250	2.4776e+01	9.9142	50.486401	0.000730	7.300314	2.473413	0.000292
 251	2.4875e+01	9.9543	50.764963	0.000700	6.996135	2.370355	0.000280
 252	2.4974e+01	9.9992	51.075823	0.000781	7.807281	2.645178	0.000312
 253	2.5074e+01	10.0377	51.358422	0.000710	7.097528	2.404708	0.000284
 254	2.5174e+01	10.0746	51.641022	0.000710	7.097528	2.404708	0.000284
 255	2.5273e+01	10.1147	51.968030	0.000821	8.212854	2.782590	0.000329
 256	2.5372e+01	10.1532	52.234481	0.000669	6.691955	2.267296	0.000268
 257	2.5472e+01	10.1885	52.525155	0.000730	7.300314	2.473413	0.000292
 258	2.5572e+01	10.2462	52.795643	0.000679	6.793348	2.301649	0.000272
 259	2.5671e+01	10.2783	53.070168	0.000689	6.894741	2.336002	0.000276
 260	2.5770e+01	10.3152	53.376990	0.000771	7.705887	2.610825	0.000308
 261	2.5870e+01	10.3489	53.667664	0.000730	7.300314	2.473413	0.000292
 262	2.5970e+01	10.4018	53.974486	0.000771	7.705887	2.610825	0.000308
 263	2.6069e+01	10.4436	54.305531	0.000831	8.314247	2.816943	0.000333
 264	2.6169e+01	10.4708	54.539685	0.000588	5.880809	1.992472	0.000235
 265	2.6268e+01	10.5286	54.862656	0.000811	8.111460	2.748237	0.000325
 266	2.6367e+01	10.5526	55.149293	0.000720	7.198921	2.439061	0.000288
 267	2.6467e+01	10.5847	55.391521	0.000608	6.083595	2.061178	0.000243
 268	2.6567e+01	10.6329	55.702380	0.000781	7.807281	2.645178	0.000312
 269	2.6666e+01	10.6746	55.968831	0.000669	6.691955	2.267296	0.000268
 270	2.6765e+01	10.7227	56.283728	0.000791	7.908674	2.679531	0.000316
 271	2.6865e+01	10.7596	56.546142	0.000659	6.590562	2.232943	0.000264
 272	2.6965e+01	10.7933	56.857001	0.000781	7.807281	2.645178	0.000312
 273	2.7064e+01	10.8334	57.151712	0.000740	7.401708	2.507766	0.000296
 274	2.7163e+01	10.8591	57.410089	0.000649	6.489168	2.198590	0.000260
 275	2.7263e+01	10.9120	57.696725	0.000720	7.198921	2.439061	0.000288
 276	2.7363e+01	10.9553	57.983362	0.000720	7.198921	2.439061	0.000288
 277	2.7462e+01	11.0018	58.282110	0.000750	7.503101	2.542119	0.000300
 278	2.7561e+01	11.0339	58.584895	0.000760	7.604494	2.576472	0.000304
 279	2.7661e+01	11.0708	58.867495	0.000710	7.097528	2.404708	0.000284
 280	2.7761e+01	11.1173	59.154131	0.000720	7.198921	2.439061	0.000288
 281	2.7860e+01	11.1446	59.448842	0.000740	7.401708	2.507766	0.000296
 282	2.7959e+01	11.1975	59.755665	0.000771	7.705887	2.610825	0.000308
 283	2.8059e+01	11.2328	60.001930	0.000618	6.184989	2.095531	0.000248
 284	2.8159e+01	11.2762	60.280492	0.000700	6.996135	2.370355	0.000280
 285	2.8258e+01	11.3098	60.571166	0.000730	7.300314	2.473413	0.000292
 286	2.8358e+01	11.3596	60.877988	0.000771	7.705887	2.610825	0.000308
 287	2.8457e+01	11.3901	61.168662	0.000730	7.300314	2.473413	0.000292
 288	2.8556e+01	11.4350	61.447225	0.000700	6.996135	2.370355	0.000280
 289	2.8656e+01	11.4735	61.741935	0.000740	7.401708	2.507766	0.000296
 290	2.8756e+01	11.5184	62.012424	0.000679	6.793348	2.301649	0.000272
 291	2.8855e+01	11.5489	62.286949	0.000689	6.894741	2.336002	0.000276
 292	2.8954e+01	11.5874	62.585697	0.000750	7.503101	2.542119	0.000300
 293	2.9054e+01	11.6323	62.892519	0.000771	7.705887	2.610825	0.000308
 294	2.9154e+01	11.6788	63.154933	0.000659	6.590562	2.232943	0.000264
 295	2.9253e+01	11.7045	63.417347	0.000659	6.590562	2.232943	0.000264
 296	2.9352e+01	11.7542	63.732243	0.000791	7.908674	2.679531	0.000316
 297	2.9452e+01	11.7863	64.014843	0.000710	7.097528	2.404708	0.000284
 298	2.9552e+01	11.8312	64.297442	0.000710	7.097528	2.404708	0.000284
 299	2.9651e+01	11.8649	64.576005	0.000700	6.996135	2.370355	0.000280
 300	2.9750e+01	11.9211	64.870716	0.000740	7.401708	2.507766	0.000296
 301	2.9850e+01	11.9483	65.181575	0.000781	7.807281	2.645178	0.000312
 302	2.9950e+01	11.9932	65.443989	0.000659	6.590562	2.232943	0.000264
 303	3.0049e+01	12.0317	65.718514	0.000689	6.894741	2.336002	0.000276
 304	3.0148e+01	12.0686	66.037448	0.000801	8.010067	2.713884	0.000321
 305	3.0248e+01	12.1136	66.303899	0.000669	6.691955	2.267296	0.000268
 306	3.0348e+01	12.1424	66.582461	0.000700	6.996135	2.370355	0.000280
 307	3.0447e+01	12.1922	66.869098	0.000720	7.198921	2.439061	0.000288
 308	3.0547e+01	12.2339	67.179957	0.000781	7.807281	2.645178	0.000312
 309	3.0646e+01	12.2644	67.490817	0.000781	7.807281	2.645178	0.000312
 310	3.0745e+01	12.3061	67.757268	0.000669	6.691955	2.267296	0.000268
 311	3.0845e+01	12.3478	68.035830	0.000700	6.996135	2.370355	0.000280
 312	3.0945e+01	12.3831	68.326504	0.000730	7.300314	2.473413	0.000292
 313	3.1044e+01	12.4392	68.609103	0.000710	7.097528	2.404708	0.000284
 314	3.1143e+01	12.4729	68.887666	0.000700	6.996135	2.370355	0.000280
 315	3.1243e+01	12.5066	69.206599	0.000801	8.010067	2.713884	0.000321
 316	3.1343e+01	12.5483	69.497273	0.000730	7.300314	2.473413	0.000292
 317	3.1442e+01	12.5884	69.787947	0.000730	7.300314	2.473413	0.000292
 318	3.1541e+01	12.6157	70.066509	0.000700	6.996135	2.370355	0.000280
 319	3.1641e+01	12.6670	70.336997	0.000679	6.793348	2.301649	0.000272
 320	3.1741e+01	12.7184	70.615560	0.000700	6.996135	2.370355	0.000280
 321	3.1840e+01	12.7392	70.894122	0.000700	6.996135	2.370355	0.000280
 322	3.1939e+01	12.7938	71.257464	0.000913	9.125393	3.091767	0.000365
 323	3.2039e+01	12.8210	71.487581	0.000578	5.779416	1.958119	0.000231
 324	3.2139e+01	12.8643	71.826700	0.000852	8.517033	2.885649	0.000341
 325	3.2238e+01	12.9044	72.077003	0.000629	6.286382	2.129884	0.000252
 326	3.2337e+01	12.9413	72.355565	0.000700	6.996135	2.370355	0.000280
 327	3.2437e+01	12.9766	72.577608	0.000558	5.576629	1.889413	0.000223
 328	3.2536e+01	13.0264	72.900579	0.000811	8.111460	2.748237	0.000325
 329	3.2636e+01	13.0552	73.239698	0.000852	8.517033	2.885649	0.000341
 330	3.2736e+01	13.1018	73.510186	0.000679	6.793348	2.301649	0.000272
 331	3.2835e+01	13.1435	73.792786	0.000710	7.097528	2.404708	0.000284
 332	3.2934e+01	13.1804	74.043088	0.000629	6.286382	2.129884	0.000252
 333	3.3034e+01	13.2157	74.357985	0.000791	7.908674	2.679531	0.000316
 334	3.3133e+01	13.2558	74.672881	0.000791	7.908674	2.679531	0.000316
 335	3.3233e+01	13.2943	74.919146	0.000618	6.184989	2.095531	0.000248
 336	3.3333e+01	13.3440	75.230006	0.000781	7.807281	2.645178	0.000312
 337	3.3432e+01	13.3841	75.508568	0.000700	6.996135	2.370355	0.000280
 338	3.3532e+01	13.4226	75.819428	0.000781	7.807281	2.645178	0.000312
 339	3.3631e+01	13.4627	76.025322	0.000517	5.171056	1.752001	0.000207
 340	3.3730e+01	13.4980	76.376552	0.000882	8.821213	2.988708	0.000353
 341	3.3830e+01	13.5381	76.638966	0.000659	6.590562	2.232943	0.000264
 342	3.3929e+01	13.5798	76.965974	0.000821	8.212854	2.782590	0.000329
 343	3.4029e+01	13.6167	77.212240	0.000618	6.184989	2.095531	0.000248
 344	3.4129e+01	13.6552	77.527136	0.000791	7.908674	2.679531	0.000316
 345	3.4228e+01	13.6937	77.797624	0.000679	6.793348	2.301649	0.000272
 346	3.4328e+01	13.7499	78.108484	0.000781	7.807281	2.645178	0.000312
 347	3.4427e+01	13.7820	78.378972	0.000679	6.793348	2.301649	0.000272
 348	3.4526e+01	13.8173	78.677720	0.000750	7.503101	2.542119	0.000300
 349	3.4626e+01	13.8654	78.948208	0.000679	6.793348	2.301649	0.000272
 350	3.4725e+01	13.8927	79.222733	0.000689	6.894741	2.336002	0.000276
 351	3.4825e+01	13.9360	79.517444	0.000740	7.401708	2.507766	0.000296
 352	3.4925e+01	13.9841	79.832341	0.000791	7.908674	2.679531	0.000316
 353	3.5024e+01	14.0210	80.127052	0.000740	7.401708	2.507766	0.000296
 354	3.5123e+01	14.0499	80.357168	0.000578	5.779416	1.958119	0.000231
 355	3.5223e+01	14.0932	80.631694	0.000689	6.894741	2.336002	0.000276
 356	3.5322e+01	14.1397	80.946590	0.000791	7.908674	2.679531	0.000316
 357	3.5422e+01	14.1798	81.237264	0.000730	7.300314	2.473413	0.000292
 358	3.5522e+01	14.2167	81.495641	0.000649	6.489168	2.198590	0.000260
 359	3.5621e+01	14.2552	81.818611	0.000811	8.111460	2.748237	0.000325
 360	3.5721e+01	14.2921	82.076988	0.000649	6.489168	2.198590	0.000260
 361	3.5820e+01	14.3418	82.371699	0.000740	7.401708	2.507766	0.000296
 362	3.5919e+01	14.3723	82.650261	0.000700	6.996135	2.370355	0.000280
 363	3.6019e+01	14.4221	82.969195	0.000801	8.010067	2.713884	0.000321
 364	3.6118e+01	14.4573	83.215460	0.000618	6.184989	2.095531	0.000248
 365	3.6218e+01	14.4910	83.518246	0.000760	7.604494	2.576472	0.000304
 366	3.6318e+01	14.5424	83.821031	0.000760	7.604494	2.576472	0.000304
 367	3.6417e+01	14.5857	84.067296	0.000618	6.184989	2.095531	0.000248
 368	3.6517e+01	14.6146	84.370081	0.000760	7.604494	2.576472	0.000304
 369	3.6616e+01	14.6563	84.640569	0.000679	6.793348	2.301649	0.000272
 370	3.6715e+01	14.6932	84.959503	0.000801	8.010067	2.713884	0.000321
 371	3.6815e+01	14.7269	85.201731	0.000608	6.083595	2.061178	0.000243
 372	3.6914e+01	14.7750	85.528739	0.000821	8.212854	2.782590	0.000329
 373	3.7014e+01	14.8135	85.799227	0.000679	6.793348	2.301649	0.000272
 374	3.7114e+01	14.8552	86.053567	0.000639	6.387775	2.164237	0.000256
 375	3.7213e+01	14.8921	86.352315	0.000750	7.503101	2.542119	0.000300
 376	3.7313e+01	14.9402	86.630877	0.000700	6.996135	2.370355	0.000280
 377	3.7412e+01	14.9707	86.933662	0.000760	7.604494	2.576472	0.000304
 378	3.7511e+01	15.0140	87.216262	0.000710	7.097528	2.404708	0.000284
 379	3.7611e+01	15.0573	87.523084	0.000771	7.705887	2.610825	0.000308
 380	3.7711e+01	15.1006	87.777424	0.000639	6.387775	2.164237	0.000256
 381	3.7810e+01	15.1343	88.072135	0.000740	7.401708	2.507766	0.000296
 382	3.7910e+01	15.1728	88.382994	0.000781	7.807281	2.645178	0.000312
 383	3.8009e+01	15.2145	88.653482	0.000679	6.793348	2.301649	0.000272
 384	3.8108e+01	15.2530	88.928007	0.000689	6.894741	2.336002	0.000276
 385	3.8208e+01	15.2948	89.246941	0.000801	8.010067	2.713884	0.000321
 386	3.8307e+01	15.3236	89.525504	0.000700	6.996135	2.370355	0.000280
 387	3.8407e+01	15.3718	89.832326	0.000771	7.705887	2.610825	0.000308
 388	3.8507e+01	15.4199	90.090703	0.000649	6.489168	2.198590	0.000260
 389	3.8606e+01	15.4504	90.397525	0.000771	7.705887	2.610825	0.000308
 390	3.8706e+01	15.4985	90.639753	0.000608	6.083595	2.061178	0.000243
 391	3.8805e+01	15.5370	90.890055	0.000629	6.286382	2.129884	0.000252
 392	3.8904e+01	15.5835	91.237249	0.000872	8.719820	2.954355	0.000349
 393	3.9004e+01	15.6108	91.495626	0.000649	6.489168	2.198590	0.000260
 394	3.9103e+01	15.6493	91.786300	0.000730	7.300314	2.473413	0.000292
 395	3.9203e+01	15.6942	92.072936	0.000720	7.198921	2.439061	0.000288
 396	3.9303e+01	15.7391	92.327276	0.000639	6.387775	2.164237	0.000256
 397	3.9402e+01	15.7776	92.670432	0.000862	8.618427	2.920002	0.000345
 398	3.9502e+01	15.8145	92.908623	0.000598	5.982202	2.026825	0.000239
 399	3.9601e+01	15.8562	93.219483	0.000781	7.807281	2.645178	0.000312
 400	3.9700e+01	15.8883	93.489971	0.000679	6.793348	2.301649	0.000272
 401	3.9800e+01	15.9268	93.752385	0.000659	6.590562	2.232943	0.000264
 402	3.9900e+01	15.9717	94.010761	0.000649	6.489168	2.198590	0.000260
 403	3.9999e+01	16.0070	94.297398	0.000720	7.198921	2.439061	0.000288
 404	4.0099e+01	16.0487	94.604220	0.000771	7.705887	2.610825	0.000308
 405	4.0198e+01	16.0856	94.898931	0.000740	7.401708	2.507766	0.000296
 406	4.0297e+01	16.1290	95.165382	0.000669	6.691955	2.267296	0.000268
 407	4.0397e+01	16.1626	95.443945	0.000700	6.996135	2.370355	0.000280
 408	4.0496e+01	16.2076	95.742693	0.000750	7.503101	2.542119	0.000300
 409	4.0596e+01	16.2477	96.033366	0.000730	7.300314	2.473413	0.000292
 410	4.0696e+01	16.2862	96.307892	0.000689	6.894741	2.336002	0.000276
 411	4.0795e+01	16.3263	96.590491	0.000710	7.097528	2.404708	0.000284
 412	4.0895e+01	16.3728	96.873091	0.000710	7.097528	2.404708	0.000284
 413	4.0994e+01	16.4129	97.204136	0.000831	8.314247	2.816943	0.000333
 414	4.1093e+01	16.4562	97.454438	0.000629	6.286382	2.129884	0.000252
 415	4.1193e+01	16.4899	97.745112	0.000730	7.300314	2.473413	0.000292
 416	4.1292e+01	16.5300	97.999451	0.000639	6.387775	2.164237	0.000256
 417	4.1392e+01	16.5637	98.302237	0.000760	7.604494	2.576472	0.000304
 418	4.1492e+01	16.6150	98.568688	0.000669	6.691955	2.267296	0.000268
 419	4.1591e+01	16.6455	98.847250	0.000700	6.996135	2.370355	0.000280
 420	4.1691e+01	16.6920	99.182332	0.000842	8.415640	2.851296	0.000337
 421	4.1790e+01	16.7289	99.468969	0.000720	7.198921	2.439061	0.000288
 422	4.1889e+01	16.7674	99.747531	0.000700	6.996135	2.370355	0.000280
 423	4.1989e+01	16.8059	100.018019	0.000679	6.793348	2.301649	0.000272
 424	4.2089e+01	16.8493	100.268322	0.000629	6.286382	2.129884	0.000252
 425	4.2188e+01	16.8910	100.623590	0.000892	8.922606	3.023061	0.000357
 426	4.2288e+01	16.9198	100.877929	0.000639	6.387775	2.164237	0.000256
 427	4.2387e+01	16.9728	101.156492	0.000700	6.996135	2.370355	0.000280
 428	4.2486e+01	16.9968	101.455240	0.000750	7.503101	2.542119	0.000300
 429	4.2586e+01	17.0498	101.709579	0.000639	6.387775	2.164237	0.000256
 430	4.2685e+01	17.0819	102.016402	0.000771	7.705887	2.610825	0.000308
 431	4.2785e+01	17.1284	102.299001	0.000710	7.097528	2.404708	0.000284
 432	4.2885e+01	17.1669	102.621972	0.000811	8.111460	2.748237	0.000325
 433	4.2984e+01	17.2038	102.892460	0.000679	6.793348	2.301649	0.000272
 434	4.3084e+01	17.2487	103.130651	0.000598	5.982202	2.026825	0.000239
 435	4.3183e+01	17.2856	103.461696	0.000831	8.314247	2.816943	0.000333
 436	4.3282e+01	17.3209	103.756407	0.000740	7.401708	2.507766	0.000296
 437	4.3382e+01	17.3674	104.067266	0.000781	7.807281	2.645178	0.000312
 438	4.3481e+01	17.3915	104.345829	0.000700	6.996135	2.370355	0.000280
 439	4.3581e+01	17.4380	104.592094	0.000618	6.184989	2.095531	0.000248
 440	4.3681e+01	17.4893	104.890842	0.000750	7.503101	2.542119	0.000300
 441	4.3780e+01	17.5311	105.238036	0.000872	8.719820	2.954355	0.000349
 442	4.3880e+01	17.5680	105.480264	0.000608	6.083595	2.061178	0.000243
 443	4.3979e+01	17.6016	105.762863	0.000710	7.097528	2.404708	0.000284
 444	4.4078e+01	17.6450	106.089871	0.000821	8.212854	2.782590	0.000329
 445	4.4178e+01	17.6899	106.352285	0.000659	6.590562	2.232943	0.000264
 446	4.4278e+01	17.7155	106.634885	0.000710	7.097528	2.404708	0.000284
 447	4.4377e+01	17.7669	106.917484	0.000710	7.097528	2.404708	0.000284
 448	4.4477e+01	17.8022	107.264678	0.000872	8.719820	2.954355	0.000349
 449	4.4576e+01	17.8455	107.523055	0.000649	6.489168	2.198590	0.000260
 450	4.4675e+01	17.8872	107.817766	0.000740	7.401708	2.507766	0.000296
 451	4.4775e+01	17.9225	108.096328	0.000700	6.996135	2.370355	0.000280
 452	4.4874e+01	17.9706	108.411225	0.000791	7.908674	2.679531	0.000316
 453	4.4974e+01	18.0091	108.709973	0.000750	7.503101	2.542119	0.000300
 454	4.5074e+01	18.0428	108.988535	0.000700	6.996135	2.370355	0.000280
 455	4.5173e+01	18.0877	109.279209	0.000730	7.300314	2.473413	0.000292
 456	4.5273e+01	18.1262	109.577957	0.000750	7.503101	2.542119	0.000300
 457	4.5372e+01	18.1599	109.884779	0.000771	7.705887	2.610825	0.000308
 458	4.5471e+01	18.2080	110.179490	0.000740	7.401708	2.507766	0.000296
 459	4.5571e+01	18.2433	110.474201	0.000740	7.401708	2.507766	0.000296
 460	4.5670e+01	18.2850	110.789097	0.000791	7.908674	2.679531	0.000316
 461	4.5770e+01	18.3284	111.047474	0.000649	6.489168	2.198590	0.000260
 462	4.5870e+01	18.3653	111.354296	0.000771	7.705887	2.610825	0.000308
 463	4.5969e+01	18.4022	111.673230	0.000801	8.010067	2.713884	0.000321
 464	4.6069e+01	18.4407	111.927570	0.000639	6.387775	2.164237	0.000256
 465	4.6168e+01	18.4759	112.290912	0.000913	9.125393	3.091767	0.000365
 466	4.6267e+01	18.5145	112.541214	0.000629	6.286382	2.129884	0.000252
 467	4.6367e+01	18.5690	112.872260	0.000831	8.314247	2.816943	0.000333
 468	4.6467e+01	18.6059	113.134673	0.000659	6.590562	2.232943	0.000264
 469	4.6566e+01	18.6428	113.453607	0.000801	8.010067	2.713884	0.000321
 470	4.6666e+01	18.6877	113.756392	0.000760	7.604494	2.576472	0.000304
 471	4.6765e+01	18.7150	114.047066	0.000730	7.300314	2.473413	0.000292
 472	4.6864e+01	18.7647	114.378111	0.000831	8.314247	2.816943	0.000333
 473	4.6964e+01	18.8048	114.684933	0.000771	7.705887	2.610825	0.000308
 474	4.7063e+01	18.8449	114.979644	0.000740	7.401708	2.507766	0.000296
 475	4.7163e+01	18.8834	115.306652	0.000821	8.212854	2.782590	0.000329
 476	4.7263e+01	18.9235	115.581178	0.000689	6.894741	2.336002	0.000276
 477	4.7362e+01	18.9620	115.888000	0.000771	7.705887	2.610825	0.000308
 478	4.7462e+01	19.0005	116.210971	0.000811	8.111460	2.748237	0.000325
 479	4.7561e+01	19.0455	116.529905	0.000801	8.010067	2.713884	0.000321
 480	4.7660e+01	19.0807	116.840764	0.000781	7.807281	2.645178	0.000312
 481	4.7760e+01	19.1128	117.163735	0.000811	8.111460	2.748237	0.000325
 482	4.7859e+01	19.1610	117.478631	0.000791	7.908674	2.679531	0.000316
 483	4.7959e+01	19.1979	117.797565	0.000801	8.010067	2.713884	0.000321
 484	4.8059e+01	19.2444	118.047868	0.000629	6.286382	2.129884	0.000252
 485	4.8158e+01	19.2829	118.419284	0.000933	9.328179	3.160473	0.000373
 486	4.8258e+01	19.3198	118.742255	0.000811	8.111460	2.748237	0.000325
 487	4.8357e+01	19.3599	119.053114	0.000781	7.807281	2.645178	0.000312
 488	4.8456e+01	19.3952	119.343788	0.000730	7.300314	2.473413	0.000292
 489	4.8556e+01	19.4353	119.690982	0.000872	8.719820	2.954355	0.000349
 490	4.8656e+01	19.4818	119.985693	0.000740	7.401708	2.507766	0.000296
 491	4.8755e+01	19.5251	120.308664	0.000811	8.111460	2.748237	0.000325
 492	4.8855e+01	19.5620	120.571077	0.000659	6.590562	2.232943	0.000264
 493	4.8954e+01	19.6005	120.906160	0.000842	8.415640	2.851296	0.000337
 494	4.9053e+01	19.6342	121.221056	0.000791	7.908674	2.679531	0.000316
 495	4.9153e+01	19.6823	121.560176	0.000852	8.517033	2.885649	0.000341
 496	4.9252e+01	19.7096	121.866998	0.000771	7.705887	2.610825	0.000308
 497	4.9352e+01	19.7577	122.189969	0.000811	8.111460	2.748237	0.000325
 498	4.9452e+01	19.8026	122.504865	0.000791	7.908674	2.679531	0.000316
 499	4.9551e+01	19.8412	122.872245	0.000923	9.226786	3.126120	0.000369
 500	4.9651e+01	19.8780	123.154844	0.000710	7.097528	2.404708	0.000284
 501	4.9750e+01	19.9149	123.465704	0.000781	7.807281	2.645178	0.000312
 502	4.9849e+01	19.9486	123.784637	0.000801	8.010067	2.713884	0.000321
 503	4.9949e+01	19.9919	124.123757	0.000852	8.517033	2.885649	0.000341
 504	5.0048e+01	19.9583	124.030903	0.000233	2.332045	0.790118	-0.000093
 505	5.0148e+01	19.9198	123.917863	0.000284	2.839011	0.961883	-0.000114
 506	5.0248e+01	19.8732	123.845194	0.000183	1.825079	0.618353	-0.000073
 507	5.0347e+01	19.8299	123.691783	0.000385	3.852944	1.305413	-0.000154
 508	5.0447e+01	19.8059	123.611041	0.000203	2.027865	0.687059	-0.000081
 509	5.0546e+01	19.7609	123.473778	0.000345	3.447371	1.168001	-0.000138
 510	5.0645e+01	19.7192	123.352664	0.000304	3.041798	1.030589	-0.000122
 511	5.0745e+01	19.6695	123.251736	0.000253	2.534831	0.858824	-0.000101
 512	5.0844e+01	19.6358	123.110436	0.000355	3.548764	1.202354	-0.000142
 513	5.0944e+01	19.5941	122.989322	0.000304	3.041798	1.030589	-0.000122
 514	5.1044e+01	19.5620	122.843985	0.000365	3.650157	1.236707	-0.000146
 515	5.1143e+01	19.5187	122.771316	0.000183	1.825079	0.618353	-0.000073
 516	5.1242e+01	19.4786	122.601757	0.000426	4.258517	1.442825	-0.000170
 517	5.1342e+01	19.4401	122.476605	0.000314	3.143191	1.064942	-0.000126
 518	5.1441e+01	19.3920	122.347417	0.000324	3.244584	1.099295	-0.000130
 519	5.1541e+01	19.3535	122.246489	0.000253	2.534831	0.858824	-0.000101
 520	5.1641e+01	19.3182	122.125375	0.000304	3.041798	1.030589	-0.000122
 521	5.1740e+01	19.2781	121.988112	0.000345	3.447371	1.168001	-0.000138
 522	5.1840e+01	19.2380	121.875072	0.000284	2.839011	0.961883	-0.000114
 523	5.1939e+01	19.1946	121.725698	0.000375	3.751550	1.271060	-0.000150
 524	5.2038e+01	19.1545	121.596510	0.000324	3.244584	1.099295	-0.000130
 525	5.2138e+01	19.1209	121.471359	0.000314	3.143191	1.064942	-0.000126
 526	5.2237e+01	19.0775	121.350245	0.000304	3.041798	1.030589	-0.000122
 527	5.2337e+01	19.0374	121.229131	0.000304	3.041798	1.030589	-0.000122
 528	5.2437e+01	19.0005	121.059571	0.000426	4.258517	1.442825	-0.000170
 529	5.2536e+01	18.9588	120.934420	0.000314	3.143191	1.064942	-0.000126
 530	5.2636e+01	18.9187	120.817343	0.000294	2.940404	0.996236	-0.000118
 531	5.2735e+01	18.8834	120.676043	0.000355	3.548764	1.202354	-0.000142
 532	5.2834e+01	18.8401	120.542817	0.000335	3.345977	1.133648	-0.000134
 533	5.2934e+01	18.7984	120.421703	0.000304	3.041798	1.030589	-0.000122
 534	5.3033e+01	18.7679	120.296552	0.000314	3.143191	1.064942	-0.000126
 535	5.3133e+01	18.7262	120.131030	0.000416	4.157123	1.408472	-0.000166
 536	5.3233e+01	18.6797	119.989730	0.000355	3.548764	1.202354	-0.000142
 537	5.3332e+01	18.6348	119.860541	0.000324	3.244584	1.099295	-0.000130
 538	5.3431e+01	18.6027	119.719242	0.000355	3.548764	1.202354	-0.000142
 539	5.3531e+01	18.5738	119.586016	0.000335	3.345977	1.133648	-0.000134
 540	5.3630e+01	18.5209	119.460865	0.000314	3.143191	1.064942	-0.000126
 541	5.3730e+01	18.4792	119.331677	0.000324	3.244584	1.099295	-0.000130
 542	5.3830e+01	18.4503	119.190377	0.000355	3.548764	1.202354	-0.000142
 543	5.3929e+01	18.4006	119.036966	0.000385	3.852944	1.305413	-0.000154
 544	5.4029e+01	18.3604	118.899703	0.000345	3.447371	1.168001	-0.000138
 545	5.4128e+01	18.3203	118.770515	0.000324	3.244584	1.099295	-0.000130
 546	5.4227e+01	18.2883	118.645364	0.000314	3.143191	1.064942	-0.000126
 547	5.4327e+01	18.2465	118.487915	0.000395	3.954337	1.339766	-0.000158
 548	5.4426e+01	18.2016	118.330467	0.000395	3.954337	1.339766	-0.000158
 549	5.4526e+01	18.1599	118.217427	0.000284	2.839011	0.961883	-0.000114
 550	5.4626e+01	18.1278	118.059979	0.000395	3.954337	1.339766	-0.000158
 551	5.4725e+01	18.0877	117.910605	0.000375	3.751550	1.271060	-0.000150
 552	5.4825e+01	18.0476	117.773342	0.000345	3.447371	1.168001	-0.000138
 553	5.4924e+01	17.9979	117.603783	0.000426	4.258517	1.442825	-0.000170
 554	5.5023e+01	17.9626	117.482669	0.000304	3.041798	1.030589	-0.000122
 555	5.5123e+01	17.9161	117.345406	0.000345	3.447371	1.168001	-0.000138
 556	5.5222e+01	17.8888	117.204106	0.000355	3.548764	1.202354	-0.000142
 557	5.5322e+01	17.8439	117.062806	0.000355	3.548764	1.202354	-0.000142
 558	5.5422e+01	17.8102	116.864987	0.000497	4.968270	1.683295	-0.000199
 559	5.5521e+01	17.7733	116.731761	0.000335	3.345977	1.133648	-0.000134
 560	5.5620e+01	17.7364	116.578350	0.000385	3.852944	1.305413	-0.000154
 561	5.5720e+01	17.6899	116.412828	0.000416	4.157123	1.408472	-0.000166
 562	5.5819e+01	17.6417	116.255379	0.000395	3.954337	1.339766	-0.000158
 563	5.5919e+01	17.6032	116.150414	0.000264	2.636225	0.893177	-0.000105
 564	5.6019e+01	17.5583	115.980854	0.000426	4.258517	1.442825	-0.000170
 565	5.6118e+01	17.5262	115.831480	0.000375	3.751550	1.271060	-0.000150
 566	5.6218e+01	17.4877	115.665957	0.000416	4.157123	1.408472	-0.000166
 567	5.6317e+01	17.4541	115.524658	0.000355	3.548764	1.202354	-0.000142
 568	5.6416e+01	17.3995	115.351061	0.000436	4.359910	1.477177	-0.000174
 569	5.6516e+01	17.3658	115.189575	0.000406	4.055730	1.374119	-0.000162
 570	5.6615e+01	17.3241	115.048276	0.000355	3.548764	1.202354	-0.000142
 571	5.6715e+01	17.2968	114.874679	0.000436	4.359910	1.477177	-0.000174
 572	5.6815e+01	17.2567	114.737416	0.000345	3.447371	1.168001	-0.000138
 573	5.6914e+01	17.2086	114.559782	0.000446	4.461303	1.511530	-0.000179
 574	5.7014e+01	17.1669	114.402334	0.000395	3.954337	1.339766	-0.000158
 575	5.7113e+01	17.1332	114.289294	0.000284	2.839011	0.961883	-0.000114
 576	5.7212e+01	17.0867	114.115697	0.000436	4.359910	1.477177	-0.000174
 577	5.7312e+01	17.0498	113.950175	0.000416	4.157123	1.408472	-0.000166
 578	5.7411e+01	17.0177	113.784652	0.000416	4.157123	1.408472	-0.000166
 579	5.7511e+01	16.9599	113.639315	0.000365	3.650157	1.236707	-0.000146
 580	5.7611e+01	16.9279	113.417273	0.000558	5.576629	1.889413	-0.000223
 581	5.7710e+01	16.8862	113.292122	0.000314	3.143191	1.064942	-0.000126
 582	5.7809e+01	16.8541	113.146785	0.000365	3.650157	1.236707	-0.000146
 583	5.7909e+01	16.7915	112.993374	0.000385	3.852944	1.305413	-0.000154
 584	5.8008e+01	16.7739	112.839962	0.000385	3.852944	1.305413	-0.000154
 585	5.8108e+01	16.7177	112.658291	0.000456	4.562696	1.545883	-0.000183
 586	5.8208e+01	16.6808	112.488732	0.000426	4.258517	1.442825	-0.000170
 587	5.8307e+01	16.6439	112.327246	0.000406	4.055730	1.374119	-0.000162
 588	5.8407e+01	16.6182	112.161724	0.000416	4.157123	1.408472	-0.000166
 589	5.8506e+01	16.5653	112.004275	0.000395	3.954337	1.339766	-0.000158
 590	5.8605e+01	16.5236	111.838753	0.000416	4.157123	1.408472	-0.000166
 591	5.8705e+01	16.4883	111.665156	0.000436	4.359910	1.477177	-0.000174
 592	5.8804e+01	16.4450	111.487522	0.000446	4.461303	1.511530	-0.000179
 593	5.8904e+01	16.4113	111.317962	0.000426	4.258517	1.442825	-0.000170
 594	5.9004e+01	16.3696	111.160514	0.000395	3.954337	1.339766	-0.000158
 595	5.9103e+01	16.3359	110.999029	0.000406	4.055730	1.374119	-0.000162
 596	5.9203e+01	16.2846	110.813320	0.000466	4.664090	1.580236	-0.000187
 597	5.9302e+01	16.2413	110.643761	0.000426	4.258517	1.442825	-0.000170
 598	5.9401e+01	16.2092	110.470164	0.000436	4.359910	1.477177	-0.000174
 599	5.9501e+01	16.1626	110.324827	0.000365	3.650157	1.236707	-0.000146
 600	5.9600e+01	16.1306	110.159304	0.000416	4.157123	1.408472	-0.000166
 601	5.9700e+01	16.0889	109.985707	0.000436	4.359910	1.477177	-0.000174
 602	5.9800e+01	16.0520	109.767702	0.000548	5.475236	1.855060	-0.000219
 603	5.9899e+01	16.0070	109.646588	0.000304	3.041798	1.030589	-0.000122
 604	5.9998e+01	15.9798	109.448768	0.000497	4.968270	1.683295	-0.000199
 605	6.0098e+01	15.9220	109.279209	0.000426	4.258517	1.442825	-0.000170
 606	6.0197e+01	15.8915	109.097538	0.000456	4.562696	1.545883	-0.000183
 607	6.0297e+01	15.8498	108.976424	0.000304	3.041798	1.030589	-0.000122
 608	6.0397e+01	15.8129	108.685750	0.000730	7.300314	2.473413	-0.000292
 609	6.0496e+01	15.7712	108.605007	0.000203	2.027865	0.687059	-0.000081
 610	6.0596e+01	15.7343	108.391039	0.000537	5.373843	1.820707	-0.000215
 611	6.0695e+01	15.6894	108.273962	0.000294	2.940404	0.996236	-0.000118
 612	6.0794e+01	15.6541	108.084217	0.000477	4.765483	1.614589	-0.000191
 613	6.0894e+01	15.6108	107.878323	0.000517	5.171056	1.752001	-0.000207
 614	6.0993e+01	15.5739	107.688577	0.000477	4.765483	1.614589	-0.000191
 615	6.1093e+01	15.5274	107.535166	0.000385	3.852944	1.305413	-0.000154
 616	6.1193e+01	15.4985	107.333309	0.000507	5.069663	1.717648	-0.000203
 617	6.1292e+01	15.4504	107.175861	0.000395	3.954337	1.339766	-0.000158
 618	6.1392e+01	15.4183	107.022450	0.000385	3.852944	1.305413	-0.000154
 619	6.1491e+01	15.3782	106.828667	0.000487	4.866876	1.648942	-0.000195
 620	6.1590e+01	15.3349	106.651033	0.000446	4.461303	1.511530	-0.000179
 621	6.1690e+01	15.2932	106.453214	0.000497	4.968270	1.683295	-0.000199
 622	6.1789e+01	15.2546	106.247320	0.000517	5.171056	1.752001	-0.000207
 623	6.1889e+01	15.2145	106.106020	0.000355	3.548764	1.202354	-0.000142
 624	6.1989e+01	15.1793	105.928386	0.000446	4.461303	1.511530	-0.000179
 625	6.2088e+01	15.1391	105.698269	0.000578	5.779416	1.958119	-0.000231
 626	6.2188e+01	15.1006	105.528710	0.000426	4.258517	1.442825	-0.000170
 627	6.2287e+01	15.0589	105.343001	0.000466	4.664090	1.580236	-0.000187
 628	6.2386e+01	15.0108	105.185553	0.000395	3.954337	1.339766	-0.000158
 629	6.2486e+01	14.9755	104.959473	0.000568	5.678022	1.923766	-0.000227
 630	6.2586e+01	14.9354	104.765691	0.000487	4.866876	1.648942	-0.000195
 631	6.2685e+01	14.8921	104.588057	0.000446	4.461303	1.511530	-0.000179
 632	6.2785e+01	14.8520	104.414460	0.000436	4.359910	1.477177	-0.000174
 633	6.2884e+01	14.8183	104.192418	0.000558	5.576629	1.889413	-0.000223
 634	6.2983e+01	14.7766	104.022858	0.000426	4.258517	1.442825	-0.000170
 635	6.3083e+01	14.7413	103.829075	0.000487	4.866876	1.648942	-0.000195
 636	6.3182e+01	14.6932	103.647404	0.000456	4.562696	1.545883	-0.000183
 637	6.3282e+01	14.6643	103.437473	0.000527	5.272449	1.786354	-0.000211
 638	6.3382e+01	14.6130	103.251765	0.000466	4.664090	1.580236	-0.000187
 639	6.3481e+01	14.5825	103.057983	0.000487	4.866876	1.648942	-0.000195
 640	6.3581e+01	14.5343	102.864200	0.000487	4.866876	1.648942	-0.000195
 641	6.3680e+01	14.4926	102.698677	0.000416	4.157123	1.408472	-0.000166
 642	6.3779e+01	14.4606	102.529118	0.000426	4.258517	1.442825	-0.000170
 643	6.3879e+01	14.4108	102.319187	0.000527	5.272449	1.786354	-0.000211
 644	6.3978e+01	14.3900	102.113293	0.000517	5.171056	1.752001	-0.000207
 645	6.4078e+01	14.3402	101.947770	0.000416	4.157123	1.408472	-0.000166
 646	6.4177e+01	14.3065	101.725728	0.000558	5.576629	1.889413	-0.000223
 647	6.4277e+01	14.2568	101.544057	0.000456	4.562696	1.545883	-0.000183
 648	6.4376e+01	14.2167	101.330088	0.000537	5.373843	1.820707	-0.000215
 649	6.4476e+01	14.1814	101.124195	0.000517	5.171056	1.752001	-0.000207
 650	6.4576e+01	14.1317	100.974821	0.000375	3.751550	1.271060	-0.000150
 651	6.4675e+01	14.0980	100.752778	0.000558	5.576629	1.889413	-0.000223
 652	6.4775e+01	14.0563	100.563033	0.000477	4.765483	1.614589	-0.000191
 653	6.4874e+01	14.0226	100.361176	0.000507	5.069663	1.717648	-0.000203
 654	6.4974e+01	13.9793	100.147208	0.000537	5.373843	1.820707	-0.000215
 655	6.5073e+01	13.9328	99.961499	0.000466	4.664090	1.580236	-0.000187
 656	6.5172e+01	13.9103	99.751568	0.000527	5.272449	1.786354	-0.000211
 657	6.5272e+01	13.8670	99.569897	0.000456	4.562696	1.545883	-0.000183
 658	6.5371e+01	13.8253	99.351892	0.000548	5.475236	1.855060	-0.000219
 659	6.5471e+01	13.7900	99.158109	0.000487	4.866876	1.648942	-0.000195
 660	6.5570e+01	13.7403	98.972401	0.000466	4.664090	1.580236	-0.000187
 661	6.5670e+01	13.7050	98.758433	0.000537	5.373843	1.820707	-0.000215
 662	6.5769e+01	13.6568	98.580799	0.000446	4.461303	1.511530	-0.000179
 663	6.5869e+01	13.6264	98.382979	0.000497	4.968270	1.683295	-0.000199
 664	6.5969e+01	13.5782	98.152863	0.000578	5.779416	1.958119	-0.000231
 665	6.6068e+01	13.5413	97.946969	0.000517	5.171056	1.752001	-0.000207
 666	6.6168e+01	13.4980	97.720889	0.000568	5.678022	1.923766	-0.000227
 667	6.6267e+01	13.4675	97.575552	0.000365	3.650157	1.236707	-0.000146
 668	6.6367e+01	13.4178	97.345435	0.000578	5.779416	1.958119	-0.000231
 669	6.6466e+01	13.3889	97.115319	0.000578	5.779416	1.958119	-0.000231
 670	6.6566e+01	13.3392	96.881165	0.000588	5.880809	1.992472	-0.000235
 671	6.6665e+01	13.3055	96.723717	0.000395	3.954337	1.339766	-0.000158
 672	6.6764e+01	13.2638	96.489563	0.000588	5.880809	1.992472	-0.000235
 673	6.6864e+01	13.2141	96.279632	0.000527	5.272449	1.786354	-0.000211
 674	6.6963e+01	13.1852	96.081812	0.000497	4.968270	1.683295	-0.000199
 675	6.7063e+01	13.1419	95.859770	0.000558	5.576629	1.889413	-0.000223
 676	6.7162e+01	13.1066	95.649838	0.000527	5.272449	1.786354	-0.000211
 677	6.7262e+01	13.0649	95.427796	0.000558	5.576629	1.889413	-0.000223
 678	6.7362e+01	13.0264	95.262273	0.000416	4.157123	1.408472	-0.000166
 679	6.7461e+01	12.9847	95.036194	0.000568	5.678022	1.923766	-0.000227
 680	6.7561e+01	12.9478	94.830300	0.000517	5.171056	1.752001	-0.000207
 681	6.7660e+01	12.9077	94.596146	0.000588	5.880809	1.992472	-0.000235
 682	6.7760e+01	12.8643	94.414475	0.000456	4.562696	1.545883	-0.000183
 683	6.7859e+01	12.8258	94.180321	0.000588	5.880809	1.992472	-0.000235
 684	6.7959e+01	12.7809	94.018836	0.000406	4.055730	1.374119	-0.000162
 685	6.8058e+01	12.7520	93.808905	0.000527	5.272449	1.786354	-0.000211
 686	6.8157e+01	12.7103	93.590899	0.000548	5.475236	1.855060	-0.000219
 687	6.8257e+01	12.6654	93.316374	0.000689	6.894741	2.336002	-0.000276
 688	6.8356e+01	12.6285	93.134703	0.000456	4.562696	1.545883	-0.000183
 689	6.8456e+01	12.5868	92.904586	0.000578	5.779416	1.958119	-0.000231
 690	6.8555e+01	12.5451	92.698692	0.000517	5.171056	1.752001	-0.000207
 691	6.8655e+01	12.5210	92.464538	0.000588	5.880809	1.992472	-0.000235
 692	6.8754e+01	12.4729	92.258644	0.000517	5.171056	1.752001	-0.000207
 693	6.8854e+01	12.4312	92.020453	0.000598	5.982202	2.026825	-0.000239
 694	6.8954e+01	12.3927	91.830708	0.000477	4.765483	1.614589	-0.000191
 695	6.9053e+01	12.3446	91.596554	0.000588	5.880809	1.992472	-0.000235
 696	6.9153e+01	12.3061	91.374512	0.000558	5.576629	1.889413	-0.000223
 697	6.9252e+01	12.2708	91.172655	0.000507	5.069663	1.717648	-0.000203
 698	6.9352e+01	12.2259	90.922353	0.000629	6.286382	2.129884	-0.000252
 699	6.9451e+01	12.1970	90.740681	0.000456	4.562696	1.545883	-0.000183
 700	6.9550e+01	12.1537	90.482305	0.000649	6.489168	2.198590	-0.000260
 701	6.9650e+01	12.0991	90.264299	0.000548	5.475236	1.855060	-0.000219
 702	6.9749e+01	12.0735	90.046294	0.000548	5.475236	1.855060	-0.000219
 703	6.9849e+01	12.0317	89.808103	0.000598	5.982202	2.026825	-0.000239
 704	6.9948e+01	11.9932	89.614321	0.000487	4.866876	1.648942	-0.000195
 705	7.0048e+01	11.9547	89.359981	0.000639	6.387775	2.164237	-0.000256
 706	7.0147e+01	11.9098	89.141976	0.000548	5.475236	1.855060	-0.000219
 707	7.0247e+01	11.8665	88.907822	0.000588	5.880809	1.992472	-0.000235
 708	7.0347e+01	11.8296	88.701928	0.000517	5.171056	1.752001	-0.000207
 709	7.0446e+01	11.7927	88.479885	0.000558	5.576629	1.889413	-0.000223
 710	7.0546e+01	11.7462	88.221509	0.000649	6.489168	2.198590	-0.000260
 711	7.0645e+01	11.7093	88.035800	0.000466	4.664090	1.580236	-0.000187
 712	7.0745e+01	11.6676	87.785498	0.000629	6.286382	2.129884	-0.000252
 713	7.0844e+01	11.6227	87.583641	0.000507	5.069663	1.717648	-0.000203
 714	7.0944e+01	11.5938	87.349487	0.000588	5.880809	1.992472	-0.000235
 715	7.1043e+01	11.5553	87.119371	0.000578	5.779416	1.958119	-0.000231
 716	7.1142e+01	11.5184	86.913477	0.000517	5.171056	1.752001	-0.000207
 717	7.1242e+01	11.4671	86.647026	0.000669	6.691955	2.267296	-0.000268
 718	7.1341e+01	11.4302	86.408835	0.000598	5.982202	2.026825	-0.000239
 719	7.1441e+01	11.3981	86.223127	0.000466	4.664090	1.580236	-0.000187
 720	7.1540e+01	11.3580	85.960713	0.000659	6.590562	2.232943	-0.000264
 721	7.1640e+01	11.3082	85.706373	0.000639	6.387775	2.164237	-0.000256
 722	7.1740e+01	11.2681	85.480294	0.000568	5.678022	1.923766	-0.000227
 723	7.1839e+01	11.2377	85.242103	0.000598	5.982202	2.026825	-0.000239
 724	7.1939e+01	11.1959	85.016023	0.000568	5.678022	1.923766	-0.000227
 725	7.2038e+01	11.1462	84.785906	0.000578	5.779416	1.958119	-0.000231
 726	7.2138e+01	11.1205	84.551752	0.000588	5.880809	1.992472	-0.000235
 727	7.2237e+01	11.0644	84.297413	0.000639	6.387775	2.164237	-0.000256
 728	7.2337e+01	11.0291	84.075370	0.000558	5.576629	1.889413	-0.000223
 729	7.2436e+01	10.9922	83.833142	0.000608	6.083595	2.061178	-0.000243
 730	7.2535e+01	10.9569	83.607063	0.000568	5.678022	1.923766	-0.000227
 731	7.2635e+01	10.9184	83.336574	0.000679	6.793348	2.301649	-0.000272
 732	7.2734e+01	10.8719	83.114532	0.000558	5.576629	1.889413	-0.000223
 733	7.2834e+01	10.8334	82.900564	0.000537	5.373843	1.820707	-0.000215
 734	7.2933e+01	10.7917	82.642187	0.000649	6.489168	2.198590	-0.000260
 735	7.3033e+01	10.7500	82.391885	0.000629	6.286382	2.129884	-0.000252
 736	7.3132e+01	10.7163	82.137545	0.000639	6.387775	2.164237	-0.000256
 737	7.3232e+01	10.6762	81.919540	0.000548	5.475236	1.855060	-0.000219
 738	7.3332e+01	10.6377	81.645015	0.000689	6.894741	2.336002	-0.000276
 739	7.3431e+01	10.5879	81.406824	0.000598	5.982202	2.026825	-0.000239
 740	7.3531e+01	10.5591	81.188818	0.000548	5.475236	1.855060	-0.000219
 741	7.3630e+01	10.5190	80.934479	0.000639	6.387775	2.164237	-0.000256
 742	7.3730e+01	10.4724	80.680139	0.000639	6.387775	2.164237	-0.000256
 743	7.3829e+01	10.4307	80.445985	0.000588	5.880809	1.992472	-0.000235
 744	7.3928e+01	10.3938	80.223943	0.000558	5.576629	1.889413	-0.000223
 745	7.4028e+01	10.3553	79.905009	0.000801	8.010067	2.713884	-0.000321
 746	7.4127e+01	10.3232	79.739487	0.000416	4.157123	1.408472	-0.000166
 747	7.4227e+01	10.2703	79.468998	0.000679	6.793348	2.301649	-0.000272
 748	7.4326e+01	10.2318	79.206585	0.000659	6.590562	2.232943	-0.000264
 749	7.4426e+01	10.1933	78.948208	0.000649	6.489168	2.198590	-0.000260
 750	7.4525e+01	10.1564	78.714054	0.000588	5.880809	1.992472	-0.000235
 751	7.4625e+01	10.1131	78.487974	0.000568	5.678022	1.923766	-0.000227
 752	7.4725e+01	10.0682	78.193264	0.000740	7.401708	2.507766	-0.000296
 753	7.4824e+01	10.0409	77.995444	0.000497	4.968270	1.683295	-0.000199
 754	7.4924e+01	9.9976	77.712844	0.000710	7.097528	2.404708	-0.000284
 755	7.5023e+01	9.9559	77.498876	0.000537	5.373843	1.820707	-0.000215
 756	7.5123e+01	9.9190	77.244537	0.000639	6.387775	2.164237	-0.000256
 757	7.5222e+01	9.8789	76.994234	0.000629	6.286382	2.129884	-0.000252
 758	7.5322e+01	9.8307	76.747969	0.000618	6.184989	2.095531	-0.000248
 759	7.5421e+01	9.7938	76.485555	0.000659	6.590562	2.232943	-0.000264
 760	7.5520e+01	9.7585	76.247364	0.000598	5.982202	2.026825	-0.000239
 761	7.5620e+01	9.7120	76.005136	0.000608	6.083595	2.061178	-0.000243
 762	7.5719e+01	9.6751	75.730611	0.000689	6.894741	2.336002	-0.000276
 763	7.5819e+01	9.6414	75.480308	0.000629	6.286382	2.129884	-0.000252
 764	7.5918e+01	9.5997	75.221932	0.000649	6.489168	2.198590	-0.000260
 765	7.6018e+01	9.5564	74.975666	0.000618	6.184989	2.095531	-0.000248
 766	7.6118e+01	9.5275	74.765735	0.000527	5.272449	1.786354	-0.000211
 767	7.6217e+01	9.4842	74.479099	0.000720	7.198921	2.439061	-0.000288
 768	7.6317e+01	9.4457	74.232833	0.000618	6.184989	2.095531	-0.000248
 769	7.6416e+01	9.3976	73.942160	0.000730	7.300314	2.473413	-0.000292
 770	7.6516e+01	9.3671	73.716080	0.000568	5.678022	1.923766	-0.000227
 771	7.6615e+01	9.3174	73.473852	0.000608	6.083595	2.061178	-0.000243
 772	7.6715e+01	9.2853	73.223549	0.000629	6.286382	2.129884	-0.000252
 773	7.6814e+01	9.2356	72.949024	0.000689	6.894741	2.336002	-0.000276
 774	7.6913e+01	9.2019	72.718907	0.000578	5.779416	1.958119	-0.000231
 775	7.7013e+01	9.1602	72.452457	0.000669	6.691955	2.267296	-0.000268
 776	7.7112e+01	9.1217	72.202154	0.000629	6.286382	2.129884	-0.000252
 777	7.7212e+01	9.0784	71.891295	0.000781	7.807281	2.645178	-0.000312
 778	7.7311e+01	9.0366	71.685401	0.000517	5.171056	1.752001	-0.000207
 779	7.7411e+01	8.9965	71.451247	0.000588	5.880809	1.992472	-0.000235
 780	7.7510e+01	8.9564	71.184796	0.000669	6.691955	2.267296	-0.000268
 781	7.7610e+01	8.9260	70.954679	0.000578	5.779416	1.958119	-0.000231
 782	7.7710e+01	8.8891	70.672080	0.000710	7.097528	2.404708	-0.000284
 783	7.7809e+01	8.8473	70.401592	0.000679	6.793348	2.301649	-0.000272
 784	7.7909e+01	8.7944	70.143215	0.000649	6.489168	2.198590	-0.000260
 785	7.8008e+01	8.7671	69.872727	0.000679	6.793348	2.301649	-0.000272
 786	7.8108e+01	8.7222	69.618387	0.000639	6.387775	2.164237	-0.000256
 787	7.8207e+01	8.6837	69.360011	0.000649	6.489168	2.198590	-0.000260
 788	7.8306e+01	8.6372	69.097597	0.000659	6.590562	2.232943	-0.000264
 789	7.8406e+01	8.6019	68.863443	0.000588	5.880809	1.992472	-0.000235
 790	7.8505e+01	8.5730	68.556621	0.000771	7.705887	2.610825	-0.000308
 791	7.8605e+01	8.5233	68.310355	0.000618	6.184989	2.095531	-0.000248
 792	7.8704e+01	8.4896	68.060053	0.000629	6.286382	2.129884	-0.000252
 793	7.8804e+01	8.4351	67.801676	0.000649	6.489168	2.198590	-0.000260
 794	7.8903e+01	8.4062	67.555411	0.000618	6.184989	2.095531	-0.000248
 795	7.9003e+01	8.3677	67.264737	0.000730	7.300314	2.473413	-0.000292
 796	7.9103e+01	8.3260	66.998286	0.000669	6.691955	2.267296	-0.000268
 797	7.9202e+01	8.2698	66.772207	0.000568	5.678022	1.923766	-0.000227
 798	7.9302e+01	8.2377	66.465384	0.000771	7.705887	2.610825	-0.000308
 799	7.9401e+01	8.2057	66.186822	0.000700	6.996135	2.370355	-0.000280
 800	7.9501e+01	8.1639	65.932482	0.000639	6.387775	2.164237	-0.000256
 801	7.9600e+01	8.1286	65.666031	0.000669	6.691955	2.267296	-0.000268
 802	7.9700e+01	8.0885	65.363246	0.000760	7.604494	2.576472	-0.000304
 803	7.9799e+01	8.0420	65.145241	0.000548	5.475236	1.855060	-0.000219
 804	7.9898e+01	7.9987	64.862641	0.000710	7.097528	2.404708	-0.000284
 805	7.9998e+01	7.9650	64.624450	0.000598	5.982202	2.026825	-0.000239
 806	8.0097e+01	7.9169	64.321665	0.000760	7.604494	2.576472	-0.000304
 807	8.0197e+01	7.8832	64.099623	0.000558	5.576629	1.889413	-0.000223
 808	8.0296e+01	7.8495	63.808949	0.000730	7.300314	2.473413	-0.000292
 809	8.0396e+01	7.8158	63.522312	0.000720	7.198921	2.439061	-0.000288
 810	8.0496e+01	7.7613	63.280084	0.000608	6.083595	2.061178	-0.000243
 811	8.0595e+01	7.7244	63.005559	0.000689	6.894741	2.336002	-0.000276
 812	8.0695e+01	7.6859	62.763331	0.000608	6.083595	2.061178	-0.000243
 813	8.0794e+01	7.6474	62.500917	0.000659	6.590562	2.232943	-0.000264
 814	8.0894e+01	7.6025	62.194095	0.000771	7.705887	2.610825	-0.000308
 815	8.0993e+01	7.5672	61.988201	0.000517	5.171056	1.752001	-0.000207
 816	8.1093e+01	7.5303	61.689453	0.000750	7.503101	2.542119	-0.000300
 817	8.1192e+01	7.4902	61.427039	0.000659	6.590562	2.232943	-0.000264
 818	8.1291e+01	7.4452	61.180774	0.000618	6.184989	2.095531	-0.000248
 819	8.1391e+01	7.4100	60.869914	0.000781	7.807281	2.645178	-0.000312
 820	8.1490e+01	7.3650	60.595389	0.000689	6.894741	2.336002	-0.000276
 821	8.1590e+01	7.3297	60.324901	0.000679	6.793348	2.301649	-0.000272
 822	8.1689e+01	7.2848	60.090747	0.000588	5.880809	1.992472	-0.000235
 823	8.1789e+01	7.2511	59.804110	0.000720	7.198921	2.439061	-0.000288
 824	8.1888e+01	7.2030	59.561882	0.000608	6.083595	2.061178	-0.000243
 825	8.1988e+01	7.1645	59.251023	0.000781	7.807281	2.645178	-0.000312
 826	8.2088e+01	7.1212	58.988609	0.000659	6.590562	2.232943	-0.000264
 827	8.2187e+01	7.0891	58.766566	0.000558	5.576629	1.889413	-0.000223
 828	8.2287e+01	7.0378	58.423410	0.000862	8.618427	2.920002	-0.000345
 829	8.2386e+01	7.0089	58.181182	0.000608	6.083595	2.061178	-0.000243
 830	8.2486e+01	6.9720	57.918768	0.000659	6.590562	2.232943	-0.000264
 831	8.2585e+01	6.9303	57.640205	0.000700	6.996135	2.370355	-0.000280
 832	8.2684e+01	6.8790	57.357606	0.000710	7.097528	2.404708	-0.000284
 833	8.2784e+01	6.8469	57.091155	0.000669	6.691955	2.267296	-0.000268
 834	8.2883e+01	6.8068	56.816630	0.000689	6.894741	2.336002	-0.000276
 835	8.2983e+01	6.7715	56.538067	0.000700	6.996135	2.370355	-0.000280
 836	8.3082e+01	6.7330	56.279691	0.000649	6.489168	2.198590	-0.000260
 837	8.3182e+01	6.6880	55.976906	0.000760	7.604494	2.576472	-0.000304
 838	8.3281e+01	6.6431	55.718529	0.000649	6.489168	2.198590	-0.000260
 839	8.3381e+01	6.6078	55.435929	0.000710	7.097528	2.404708	-0.000284
 840	8.3481e+01	6.5629	55.169478	0.000669	6.691955	2.267296	-0.000268
 841	8.3580e+01	6.5324	54.878805	0.000730	7.300314	2.473413	-0.000292
 842	8.3680e+01	6.4875	54.612354	0.000669	6.691955	2.267296	-0.000268
 843	8.3779e+01	6.4490	54.345903	0.000669	6.691955	2.267296	-0.000268
 844	8.3879e+01	6.4169	54.071378	0.000689	6.894741	2.336002	-0.000276
 845	8.3978e+01	6.3704	53.788778	0.000710	7.097528	2.404708	-0.000284
 846	8.4078e+01	6.3367	53.546550	0.000608	6.083595	2.061178	-0.000243
 847	8.4177e+01	6.3030	53.255876	0.000730	7.300314	2.473413	-0.000292
 848	8.4276e+01	6.2533	52.936942	0.000801	8.010067	2.713884	-0.000321
 849	8.4376e+01	6.2196	52.674529	0.000659	6.590562	2.232943	-0.000264
 850	8.4475e+01	6.1699	52.408078	0.000669	6.691955	2.267296	-0.000268
 851	8.4575e+01	6.1298	52.113367	0.000740	7.401708	2.507766	-0.000296
 852	8.4674e+01	6.1057	51.794433	0.000801	8.010067	2.713884	-0.000321
 853	8.4774e+01	6.0480	51.552205	0.000608	6.083595	2.061178	-0.000243
 854	8.4874e+01	6.0127	51.301902	0.000629	6.286382	2.129884	-0.000252
 855	8.4973e+01	5.9726	51.027377	0.000689	6.894741	2.336002	-0.000276
 856	8.5073e+01	5.9405	50.748815	0.000700	6.996135	2.370355	-0.000280
 857	8.5172e+01	5.8875	50.454104	0.000740	7.401708	2.507766	-0.000296
 858	8.5272e+01	5.8538	50.135170	0.000801	8.010067	2.713884	-0.000321
 859	8.5371e+01	5.8121	49.856608	0.000700	6.996135	2.370355	-0.000280
 860	8.5471e+01	5.7736	49.582083	0.000689	6.894741	2.336002	-0.000276
 861	8.5570e+01	5.7367	49.339854	0.000608	6.083595	2.061178	-0.000243
 862	8.5669e+01	5.6870	49.045144	0.000740	7.401708	2.507766	-0.000296
 863	8.5769e+01	5.6662	48.786767	0.000649	6.489168	2.198590	-0.000260
 864	8.5868e+01	5.6228	48.455722	0.000831	8.314247	2.816943	-0.000333
 865	8.5968e+01	5.5763	48.217531	0.000598	5.982202	2.026825	-0.000239
 866	8.6067e+01	5.5394	47.910708	0.000771	7.705887	2.610825	-0.000308
 867	8.6167e+01	5.4945	47.640220	0.000679	6.793348	2.301649	-0.000272
 868	8.6266e+01	5.4496	47.377806	0.000659	6.590562	2.232943	-0.000264
 869	8.6366e+01	5.4207	47.042724	0.000842	8.415640	2.851296	-0.000337
 870	8.6466e+01	5.3774	46.800496	0.000608	6.083595	2.061178	-0.000243
 871	8.6565e+01	5.3309	46.505785	0.000740	7.401708	2.507766	-0.000296
 872	8.6665e+01	5.2988	46.243371	0.000659	6.590562	2.232943	-0.000264
 873	8.6764e+01	5.2555	45.928475	0.000791	7.908674	2.679531	-0.000316
 874	8.6864e+01	5.2250	45.657987	0.000679	6.793348	2.301649	-0.000272
 875	8.6963e+01	5.1769	45.359239	0.000750	7.503101	2.542119	-0.000300
 876	8.7063e+01	5.1384	45.076639	0.000710	7.097528	2.404708	-0.000284
 877	8.7162e+01	5.0983	44.757705	0.000801	8.010067	2.713884	-0.000321
 878	8.7261e+01	5.0581	44.543737	0.000537	5.373843	1.820707	-0.000215
 879	8.7361e+01	5.0180	44.236915	0.000771	7.705887	2.610825	-0.000308
 880	8.7460e+01	4.9795	43.962390	0.000689	6.894741	2.336002	-0.000276
 881	8.7560e+01	4.9394	43.667679	0.000740	7.401708	2.507766	-0.000296
 882	8.7659e+01	4.8945	43.356819	0.000781	7.807281	2.645178	-0.000312
 883	8.7759e+01	4.8624	43.082294	0.000689	6.894741	2.336002	-0.000276
 884	8.7859e+01	4.8223	42.823917	0.000649	6.489168	2.198590	-0.000260
 885	8.7958e+01	4.7742	42.504984	0.000801	8.010067	2.713884	-0.000321
 886	8.8058e+01	4.7517	42.250644	0.000639	6.387775	2.164237	-0.000256
 887	8.8157e+01	4.6972	41.943822	0.000771	7.705887	2.610825	-0.000308
 888	8.8257e+01	4.6635	41.653148	0.000730	7.300314	2.473413	-0.000292
 889	8.8356e+01	4.6154	41.386697	0.000669	6.691955	2.267296	-0.000268
 890	8.8456e+01	4.5769	41.079875	0.000771	7.705887	2.610825	-0.000308
 891	8.8555e+01	4.5384	40.801312	0.000700	6.996135	2.370355	-0.000280
 892	8.8654e+01	4.5015	40.498527	0.000760	7.604494	2.576472	-0.000304
 893	8.8754e+01	4.4598	40.207853	0.000730	7.300314	2.473413	-0.000292
 894	8.8853e+01	4.4229	39.945440	0.000659	6.590562	2.232943	-0.000264
 895	8.8953e+01	4.3828	39.662840	0.000710	7.097528	2.404708	-0.000284
 896	8.9052e+01	4.3411	39.319684	0.000862	8.618427	2.920002	-0.000345
 897	8.9152e+01	4.3042	39.061307	0.000649	6.489168	2.198590	-0.000260
 898	8.9251e+01	4.2592	38.782744	0.000700	6.996135	2.370355	-0.000280
 899	8.9351e+01	4.2288	38.492071	0.000730	7.300314	2.473413	-0.000292
 900	8.9451e+01	4.1838	38.185248	0.000771	7.705887	2.610825	-0.000308
 901	8.9550e+01	4.1293	37.874389	0.000781	7.807281	2.645178	-0.000312
 902	8.9650e+01	4.1052	37.599864	0.000689	6.894741	2.336002	-0.000276
 903	8.9749e+01	4.0635	37.305153	0.000740	7.401708	2.507766	-0.000296
 904	8.9849e+01	4.0234	37.022553	0.000710	7.097528	2.404708	-0.000284
 905	8.9948e+01	3.9849	36.739954	0.000710	7.097528	2.404708	-0.000284
 906	9.0047e+01	3.9400	36.392760	0.000872	8.719820	2.954355	-0.000349
 907	9.0147e+01	3.8983	36.130346	0.000659	6.590562	2.232943	-0.000264
 908	9.0246e+01	3.8630	35.843710	0.000720	7.198921	2.439061	-0.000288
 909	9.0346e+01	3.8261	35.561110	0.000710	7.097528	2.404708	-0.000284
 910	9.0445e+01	3.7812	35.258325	0.000760	7.604494	2.576472	-0.000304
 911	9.0545e+01	3.7379	34.947466	0.000781	7.807281	2.645178	-0.000312
 912	9.0644e+01	3.7026	34.681015	0.000669	6.691955	2.267296	-0.000268
 913	9.0744e+01	3.6625	34.402452	0.000700	6.996135	2.370355	-0.000280
 914	9.0844e+01	3.6159	34.087556	0.000791	7.908674	2.679531	-0.000316
 915	9.0943e+01	3.5790	33.768622	0.000801	8.010067	2.713884	-0.000321
 916	9.1043e+01	3.5405	33.469874	0.000750	7.503101	2.542119	-0.000300
 917	9.1142e+01	3.5085	33.263980	0.000517	5.171056	1.752001	-0.000207
 918	9.1242e+01	3.4587	32.949083	0.000791	7.908674	2.679531	-0.000316
 919	9.1341e+01	3.4234	32.642261	0.000771	7.705887	2.610825	-0.000308
 920	9.1441e+01	3.3833	32.339476	0.000760	7.604494	2.576472	-0.000304
 921	9.1540e+01	3.3416	32.044765	0.000740	7.401708	2.507766	-0.000296
 922	9.1639e+01	3.3047	31.733905	0.000781	7.807281	2.645178	-0.000312
 923	9.1739e+01	3.2662	31.455343	0.000700	6.996135	2.370355	-0.000280
 924	9.1838e+01	3.2245	31.188892	0.000669	6.691955	2.267296	-0.000268
 925	9.1938e+01	3.1892	30.873996	0.000791	7.908674	2.679531	-0.000316
 926	9.2037e+01	3.1427	30.542950	0.000831	8.314247	2.816943	-0.000333
 927	9.2137e+01	3.1090	30.240165	0.000760	7.604494	2.576472	-0.000304
 928	9.2237e+01	3.0689	29.985826	0.000639	6.387775	2.164237	-0.000256
 929	9.2336e+01	3.0224	29.662855	0.000811	8.111460	2.748237	-0.000325
 930	9.2436e+01	2.9823	29.360070	0.000760	7.604494	2.576472	-0.000304
 931	9.2535e+01	2.9357	29.077470	0.000710	7.097528	2.404708	-0.000284
 932	9.2635e+01	2.9101	28.815056	0.000659	6.590562	2.232943	-0.000264
 933	9.2734e+01	2.8668	28.520345	0.000740	7.401708	2.507766	-0.000296
 934	9.2834e+01	2.8251	28.241783	0.000700	6.996135	2.370355	-0.000280
 935	9.2933e+01	2.7817	27.914775	0.000821	8.212854	2.782590	-0.000329
 936	9.3032e+01	2.7336	27.611990	0.000760	7.604494	2.576472	-0.000304
 937	9.3132e+01	2.7031	27.297093	0.000791	7.908674	2.679531	-0.000316
 938	9.3231e+01	2.6662	27.006420	0.000730	7.300314	2.473413	-0.000292
 939	9.3331e+01	2.6277	26.735931	0.000679	6.793348	2.301649	-0.000272
 940	9.3430e+01	2.5748	26.437183	0.000750	7.503101	2.542119	-0.000300
 941	9.3530e+01	2.5507	26.150547	0.000720	7.198921	2.439061	-0.000288
 942	9.3629e+01	2.5090	25.799316	0.000882	8.821213	2.988708	-0.000353
 943	9.3729e+01	2.4609	25.532865	0.000669	6.691955	2.267296	-0.000268
 944	9.3829e+01	2.4288	25.242191	0.000730	7.300314	2.473413	-0.000292
 945	9.3928e+01	2.3855	24.959592	0.000710	7.097528	2.404708	-0.000284
 946	9.4028e+01	2.3454	24.612398	0.000872	8.719820	2.954355	-0.000349
 947	9.4127e+01	2.3053	24.358058	0.000639	6.387775	2.164237	-0.000256
 948	9.4227e+01	2.2700	24.051236	0.000771	7.705887	2.610825	-0.000308
 949	9.4326e+01	2.2299	23.780748	0.000679	6.793348	2.301649	-0.000272
 950	9.4425e+01	2.1914	23.482000	0.000750	7.503101	2.542119	-0.000300
 951	9.4525e+01	2.1400	23.163066	0.000801	8.010067	2.713884	-0.000321
 952	9.4624e+01	2.1080	22.864318	0.000750	7.503101	2.542119	-0.000300
 953	9.4724e+01	2.0663	22.553459	0.000781	7.807281	2.645178	-0.000312
 954	9.4823e+01	2.0342	22.250674	0.000760	7.604494	2.576472	-0.000304
 955	9.4923e+01	1.9909	21.988260	0.000659	6.590562	2.232943	-0.000264
 956	9.5022e+01	1.9459	21.661252	0.000821	8.212854	2.782590	-0.000329
 957	9.5122e+01	1.9203	21.338281	0.000811	8.111460	2.748237	-0.000325
 958	9.5222e+01	1.8689	21.104127	0.000588	5.880809	1.992472	-0.000235
 959	9.5321e+01	1.8240	20.773082	0.000831	8.314247	2.816943	-0.000333
 960	9.5421e+01	1.7887	20.474334	0.000750	7.503101	2.542119	-0.000300
 961	9.5520e+01	1.7614	20.179623	0.000740	7.401708	2.507766	-0.000296
 962	9.5620e+01	1.7149	19.897023	0.000710	7.097528	2.404708	-0.000284
 963	9.5719e+01	1.6700	19.578090	0.000801	8.010067	2.713884	-0.000321
 964	9.5819e+01	1.6299	19.263193	0.000791	7.908674	2.679531	-0.000316
 965	9.5918e+01	1.5914	18.964445	0.000750	7.503101	2.542119	-0.000300
 966	9.6017e+01	1.5497	18.673771	0.000730	7.300314	2.473413	-0.000292
 967	9.6117e+01	1.5160	18.399246	0.000689	6.894741	2.336002	-0.000276
 968	9.6216e+01	1.4711	18.092424	0.000771	7.705887	2.610825	-0.000308
 969	9.6316e+01	1.4342	17.785601	0.000771	7.705887	2.610825	-0.000308
 970	9.6415e+01	1.3893	17.474742	0.000781	7.807281	2.645178	-0.000312
 971	9.6515e+01	1.3460	17.155808	0.000801	8.010067	2.713884	-0.000321
 972	9.6615e+01	1.3139	16.885320	0.000679	6.793348	2.301649	-0.000272
 973	9.6714e+01	1.2706	16.562349	0.000811	8.111460	2.748237	-0.000325
 974	9.6814e+01	1.2208	16.275713	0.000720	7.198921	2.439061	-0.000288
 975	9.6913e+01	1.1871	15.952742	0.000811	8.111460	2.748237	-0.000325
 976	9.7013e+01	1.1567	15.678217	0.000689	6.894741	2.336002	-0.000276
 977	9.7112e+01	1.1021	15.375431	0.000760	7.604494	2.576472	-0.000304
 978	9.7212e+01	1.0716	15.052461	0.000811	8.111460	2.748237	-0.000325
 979	9.7311e+01	1.0363	14.777935	0.000689	6.894741	2.336002	-0.000276
 980	9.7410e+01	0.9962	14.475150	0.000760	7.604494	2.576472	-0.000304
 981	9.7510e+01	0.9481	14.180439	0.000740	7.401708	2.507766	-0.000296
 982	9.7609e+01	0.9128	13.930137	0.000629	6.286382	2.129884	-0.000252
 983	9.7709e+01	0.8711	13.595055	0.000842	8.415640	2.851296	-0.000337
 984	9.7808e+01	0.8374	13.312455	0.000710	7.097528	2.404708	-0.000284
 985	9.7908e+01	0.7925	12.977373	0.000842	8.415640	2.851296	-0.000337
 986	9.8007e+01	0.7652	12.710922	0.000669	6.691955	2.267296	-0.000268
 987	9.8107e+01	0.7155	12.420248	0.000730	7.300314	2.473413	-0.000292
 988	9.8207e+01	0.6658	12.109389	0.000781	7.807281	2.645178	-0.000312
 989	9.8306e+01	0.6353	11.794492	0.000791	7.908674	2.679531	-0.000316
 990	9.8406e+01	0.5968	11.524004	0.000679	6.793348	2.301649	-0.000272
 991	9.8505e+01	0.5503	11.196996	0.000821	8.212854	2.782590	-0.000329
 992	9.8605e+01	0.5214	10.914396	0.000710	7.097528	2.404708	-0.000284
 993	9.8704e+01	0.4684	10.603537	0.000781	7.807281	2.645178	-0.000312
 994	9.8803e+01	0.4380	10.304789	0.000750	7.503101	2.542119	-0.000300
 995	9.8903e+01	0.3930	9.969707	0.000842	8.415640	2.851296	-0.000337
 996	9.9002e+01	0.3577	9.687107	0.000710	7.097528	2.404708	-0.000284
 997	9.9102e+01	0.3128	9.396433	0.000730	7.300314	2.473413	-0.000292
 998	9.9201e+01	0.2743	9.097685	0.000750	7.503101	2.542119	-0.000300
 999	9.9301e+01	0.2326	8.770677	0.000821	8.212854	2.782590	-0.000329
1000	9.9400e+01	0.2021	8.471929	0.000750	7.503101	2.542119	-0.000300
1001	9.9500e+01	0.1492	8.221627	0.000629	6.286382	2.129884	-0.000252
1002	9.9600e+01	0.1171	7.874433	0.000872	8.719820	2.954355	-0.000349
1003	9.9699e+01	0.0722	7.583759	0.000730	7.300314	2.473413	-0.000292
1004	9.9799e+01	0.0337	7.289049	0.000740	7.401708	2.507766	-0.000296
1005	9.9898e+01	0.0000	7.034709	0.000639	6.387775	2.164237	-0.000256
1006	9.9998e+01	-0.0337	6.764221	0.000679	6.793348	2.301649	-0.000272
1007	1.0010e+02	-0.0754	6.453361	0.000781	7.807281	2.645178	-0.000312
1008	1.0020e+02	-0.1171	6.110205	0.000862	8.618427	2.920002	-0.000345
1009	1.0030e+02	-0.1540	5.819531	0.000730	7.300314	2.473413	-0.000292
1010	1.0040e+02	-0.1925	5.553080	0.000669	6.691955	2.267296	-0.000268
1011	1.0050e+02	-0.2374	5.258369	0.000740	7.401708	2.507766	-0.000296
1012	1.0059e+02	-0.2727	4.947510	0.000781	7.807281	2.645178	-0.000312
1013	1.0069e+02	-0.3176	4.660873	0.000720	7.198921	2.439061	-0.000288
1014	1.0079e+02	-0.3513	4.309642	0.000882	8.821213	2.988708	-0.000353
1015	1.0089e+02	-0.4027	4.063377	0.000618	6.184989	2.095531	-0.000248
1016	1.0099e+02	-0.4412	3.752518	0.000781	7.807281	2.645178	-0.000312
1017	1.0109e+02	-0.4829	3.473955	0.000700	6.996135	2.370355	-0.000280
1018	1.0119e+02	-0.5246	3.150984	0.000811	8.111460	2.748237	-0.000325
1019	1.0129e+02	-0.5503	2.844162	0.000771	7.705887	2.610825	-0.000308
1020	1.0139e+02	-0.5888	2.533303	0.000781	7.807281	2.645178	-0.000312
1021	1.0149e+02	-0.6337	2.206295	0.000821	8.212854	2.782590	-0.000329
1022	1.0159e+02	-0.6722	1.899472	0.000771	7.705887	2.610825	-0.000308
1023	1.0169e+02	-0.7043	1.637059	0.000659	6.590562	2.232943	-0.000264
1024	1.0179e+02	-0.7652	1.330236	0.000771	7.705887	2.610825	-0.000308
1025	1.0189e+02	-0.7989	1.019377	0.000781	7.807281	2.645178	-0.000312
1026	1.0199e+02	-0.8390	0.732740	0.000720	7.198921	2.439061	-0.000288
1027	1.0209e+02	-0.8727	0.433992	0.000750	7.503101	2.542119	-0.000300
1028	1.0219e+02	-0.9160	0.131207	0.000760	7.604494	2.576472	-0.000304
1029	1.0229e+02	-0.9561	-0.175615	0.000771	7.705887	2.610825	-0.000308
1030	1.0239e+02	-0.9946	-0.450141	0.000689	6.894741	2.336002	-0.000276
1031	1.0248e+02	-1.0347	-0.777149	0.000821	8.212854	2.782590	-0.000329
1032	1.0258e+02	-1.0732	-1.071860	0.000740	7.401708	2.507766	-0.000296
1033	1.0268e+02	-1.1165	-1.338310	0.000669	6.691955	2.267296	-0.000268
1034	1.0278e+02	-1.1502	-1.665318	0.000821	8.212854	2.782590	-0.000329
1035	1.0288e+02	-1.1984	-1.980215	0.000791	7.908674	2.679531	-0.000316
1036	1.0298e+02	-1.2369	-2.274926	0.000740	7.401708	2.507766	-0.000296
1037	1.0308e+02	-1.2786	-2.577711	0.000760	7.604494	2.576472	-0.000304
1038	1.0318e+02	-1.3091	-2.908756	0.000831	8.314247	2.816943	-0.000333
1039	1.0328e+02	-1.3556	-3.195393	0.000720	7.198921	2.439061	-0.000288
1040	1.0338e+02	-1.3941	-3.506252	0.000781	7.807281	2.645178	-0.000312
1041	1.0348e+02	-1.4358	-3.744443	0.000598	5.982202	2.026825	-0.000239
1042	1.0358e+02	-1.4695	-4.091637	0.000872	8.719820	2.954355	-0.000349
1043	1.0368e+02	-1.5160	-4.382311	0.000730	7.300314	2.473413	-0.000292
1044	1.0378e+02	-1.5481	-4.689133	0.000771	7.705887	2.610825	-0.000308
1045	1.0388e+02	-1.5850	-4.991918	0.000760	7.604494	2.576472	-0.000304
1046	1.0398e+02	-1.6299	-5.298741	0.000771	7.705887	2.610825	-0.000308
1047	1.0408e+02	-1.6636	-5.581340	0.000710	7.097528	2.404708	-0.000284
1048	1.0418e+02	-1.7069	-5.876051	0.000740	7.401708	2.507766	-0.000296
1049	1.0428e+02	-1.7422	-6.158651	0.000710	7.097528	2.404708	-0.000284
1050	1.0438e+02	-1.7871	-6.469510	0.000781	7.807281	2.645178	-0.000312
1051	1.0447e+02	-1.8224	-6.796518	0.000821	8.212854	2.782590	-0.000329
1052	1.0457e+02	-1.8737	-7.087192	0.000730	7.300314	2.473413	-0.000292
1053	1.0467e+02	-1.9122	-7.406126	0.000801	8.010067	2.713884	-0.000321
1054	1.0477e+02	-1.9459	-7.680651	0.000689	6.894741	2.336002	-0.000276
1055	1.0487e+02	-1.9876	-7.999584	0.000801	8.010067	2.713884	-0.000321
1056	1.0497e+02	-2.0326	-8.266035	0.000669	6.691955	2.267296	-0.000268
1057	1.0507e+02	-2.0646	-8.564783	0.000750	7.503101	2.542119	-0.000300
1058	1.0517e+02	-2.1160	-8.907940	0.000862	8.618427	2.920002	-0.000345
1059	1.0527e+02	-2.1465	-9.174391	0.000669	6.691955	2.267296	-0.000268
1060	1.0537e+02	-2.1882	-9.469102	0.000740	7.401708	2.507766	-0.000296
1061	1.0547e+02	-2.2363	-9.804184	0.000842	8.415640	2.851296	-0.000337
1062	1.0557e+02	-2.2700	-10.070635	0.000669	6.691955	2.267296	-0.000268
1063	1.0567e+02	-2.3037	-10.401680	0.000831	8.314247	2.816943	-0.000333
1064	1.0577e+02	-2.3454	-10.676205	0.000689	6.894741	2.336002	-0.000276
1065	1.0587e+02	-2.3855	-10.938619	0.000659	6.590562	2.232943	-0.000264
1066	1.0597e+02	-2.4320	-11.301961	0.000913	9.125393	3.091767	-0.000365
1067	1.0607e+02	-2.4721	-11.552264	0.000629	6.286382	2.129884	-0.000252
1068	1.0617e+02	-2.5106	-11.887346	0.000842	8.415640	2.851296	-0.000337
1069	1.0627e+02	-2.5507	-12.206280	0.000801	8.010067	2.713884	-0.000321
1070	1.0637e+02	-2.5924	-12.488879	0.000710	7.097528	2.404708	-0.000284
1071	1.0647e+02	-2.6245	-12.767442	0.000700	6.996135	2.370355	-0.000280
1072	1.0656e+02	-2.6678	-13.078301	0.000781	7.807281	2.645178	-0.000312
1073	1.0666e+02	-2.7063	-13.373012	0.000740	7.401708	2.507766	-0.000296
1074	1.0676e+02	-2.7432	-13.683872	0.000781	7.807281	2.645178	-0.000312
1075	1.0686e+02	-2.7898	-13.990694	0.000771	7.705887	2.610825	-0.000308
1076	1.0696e+02	-2.8186	-14.277331	0.000720	7.198921	2.439061	-0.000288
1077	1.0706e+02	-2.8700	-14.568004	0.000730	7.300314	2.473413	-0.000292
1078	1.0716e+02	-2.9181	-14.895012	0.000821	8.212854	2.782590	-0.000329
1079	1.0726e+02	-2.9454	-15.153389	0.000649	6.489168	2.198590	-0.000260
1080	1.0736e+02	-2.9887	-15.464248	0.000781	7.807281	2.645178	-0.000312
1081	1.0746e+02	-3.0224	-15.762996	0.000750	7.503101	2.542119	-0.000300
1082	1.0756e+02	-3.0657	-16.094042	0.000831	8.314247	2.816943	-0.000333
1083	1.0766e+02	-3.1090	-16.364530	0.000679	6.793348	2.301649	-0.000272
1084	1.0776e+02	-3.1491	-16.687501	0.000811	8.111460	2.748237	-0.000325
1085	1.0786e+02	-3.1876	-16.990286	0.000760	7.604494	2.576472	-0.000304
1086	1.0796e+02	-3.2213	-17.244625	0.000639	6.387775	2.164237	-0.000256
1087	1.0806e+02	-3.2582	-17.591819	0.000872	8.719820	2.954355	-0.000349
1088	1.0816e+02	-3.2951	-17.850196	0.000649	6.489168	2.198590	-0.000260
1089	1.0826e+02	-3.3368	-18.136832	0.000720	7.198921	2.439061	-0.000288
1090	1.0836e+02	-3.3849	-18.455766	0.000801	8.010067	2.713884	-0.000321
1091	1.0845e+02	-3.4363	-18.750477	0.000740	7.401708	2.507766	-0.000296
1092	1.0855e+02	-3.4603	-19.020965	0.000679	6.793348	2.301649	-0.000272
1093	1.0865e+02	-3.4988	-19.307602	0.000720	7.198921	2.439061	-0.000288
1094	1.0875e+02	-3.5470	-19.614424	0.000771	7.705887	2.610825	-0.000308
1095	1.0885e+02	-3.5839	-19.909135	0.000740	7.401708	2.507766	-0.000296
1096	1.0895e+02	-3.6256	-20.219994	0.000781	7.807281	2.645178	-0.000312
1097	1.0905e+02	-3.6609	-20.494520	0.000689	6.894741	2.336002	-0.000276
1098	1.0915e+02	-3.6978	-20.845750	0.000882	8.821213	2.988708	-0.000353
1099	1.0925e+02	-3.7491	-21.112201	0.000669	6.691955	2.267296	-0.000268
1100	1.0935e+02	-3.7699	-21.402875	0.000730	7.300314	2.473413	-0.000292
1101	1.0945e+02	-3.8197	-21.657215	0.000639	6.387775	2.164237	-0.000256
1102	1.0955e+02	-3.8614	-22.024594	0.000923	9.226786	3.126120	-0.000369
1103	1.0965e+02	-3.9031	-22.246636	0.000558	5.576629	1.889413	-0.000223
1104	1.0975e+02	-3.9400	-22.597867	0.000882	8.821213	2.988708	-0.000353
1105	1.0985e+02	-3.9865	-22.868355	0.000679	6.793348	2.301649	-0.000272
1106	1.0995e+02	-4.0266	-23.179215	0.000781	7.807281	2.645178	-0.000312
1107	1.1005e+02	-4.0683	-23.469889	0.000730	7.300314	2.473413	-0.000292
1108	1.1015e+02	-4.1068	-23.740377	0.000679	6.793348	2.301649	-0.000272
1109	1.1025e+02	-4.1502	-24.055273	0.000791	7.908674	2.679531	-0.000316
1110	1.1035e+02	-4.1838	-24.341910	0.000720	7.198921	2.439061	-0.000288
1111	1.1044e+02	-4.2239	-24.676992	0.000842	8.415640	2.851296	-0.000337
1112	1.1054e+02	-4.2592	-24.911146	0.000588	5.880809	1.992472	-0.000235
1113	1.1064e+02	-4.3074	-25.193746	0.000710	7.097528	2.404708	-0.000284
1114	1.1074e+02	-4.3378	-25.508642	0.000791	7.908674	2.679531	-0.000316
1115	1.1084e+02	-4.3747	-25.771056	0.000659	6.590562	2.232943	-0.000264
1116	1.1094e+02	-4.4165	-26.081915	0.000781	7.807281	2.645178	-0.000312
1117	1.1104e+02	-4.4614	-26.352404	0.000679	6.793348	2.301649	-0.000272
1118	1.1114e+02	-4.4951	-26.675374	0.000811	8.111460	2.748237	-0.000325
1119	1.1124e+02	-4.5384	-26.962011	0.000720	7.198921	2.439061	-0.000288
1120	1.1134e+02	-4.5753	-27.260759	0.000750	7.503101	2.542119	-0.000300
1121	1.1144e+02	-4.6122	-27.511061	0.000629	6.286382	2.129884	-0.000252
1122	1.1154e+02	-4.6635	-27.805772	0.000740	7.401708	2.507766	-0.000296
1123	1.1164e+02	-4.7084	-28.152966	0.000872	8.719820	2.954355	-0.000349
1124	1.1174e+02	-4.7373	-28.443640	0.000730	7.300314	2.473413	-0.000292
1125	1.1184e+02	-4.7710	-28.665682	0.000558	5.576629	1.889413	-0.000223
1126	1.1194e+02	-4.8127	-28.988653	0.000811	8.111460	2.748237	-0.000325
1127	1.1204e+02	-4.8464	-29.295475	0.000771	7.705887	2.610825	-0.000308
1128	1.1214e+02	-4.8977	-29.578075	0.000710	7.097528	2.404708	-0.000284
1129	1.1224e+02	-4.9426	-29.860674	0.000710	7.097528	2.404708	-0.000284
1130	1.1234e+02	-4.9715	-30.155385	0.000740	7.401708	2.507766	-0.000296
1131	1.1244e+02	-5.0245	-30.433948	0.000700	6.996135	2.370355	-0.000280
1132	1.1253e+02	-5.0581	-30.756919	0.000811	8.111460	2.748237	-0.000325
1133	1.1263e+02	-5.0966	-30.999147	0.000608	6.083595	2.061178	-0.000243
1134	1.1273e+02	-5.1303	-31.314043	0.000791	7.908674	2.679531	-0.000316
1135	1.1283e+02	-5.1737	-31.572420	0.000649	6.489168	2.198590	-0.000260
1136	1.1293e+02	-5.2138	-31.927688	0.000892	8.922606	3.023061	-0.000357
1137	1.1303e+02	-5.2587	-32.190102	0.000659	6.590562	2.232943	-0.000264
1138	1.1313e+02	-5.2940	-32.452516	0.000659	6.590562	2.232943	-0.000264
1139	1.1323e+02	-5.3373	-32.755301	0.000760	7.604494	2.576472	-0.000304
1140	1.1333e+02	-5.3854	-33.054049	0.000750	7.503101	2.542119	-0.000300
1141	1.1343e+02	-5.4143	-33.324537	0.000679	6.793348	2.301649	-0.000272
1142	1.1353e+02	-5.4544	-33.615211	0.000730	7.300314	2.473413	-0.000292
1143	1.1363e+02	-5.4977	-33.869550	0.000639	6.387775	2.164237	-0.000256
1144	1.1373e+02	-5.5330	-34.168298	0.000750	7.503101	2.542119	-0.000300
1145	1.1383e+02	-5.5827	-34.458972	0.000730	7.300314	2.473413	-0.000292
1146	1.1393e+02	-5.6148	-34.693126	0.000588	5.880809	1.992472	-0.000235
1147	1.1403e+02	-5.6581	-34.999948	0.000771	7.705887	2.610825	-0.000308
1148	1.1413e+02	-5.6934	-35.282548	0.000710	7.097528	2.404708	-0.000284
1149	1.1423e+02	-5.7367	-35.548999	0.000669	6.691955	2.267296	-0.000268
1150	1.1433e+02	-5.7736	-35.863895	0.000791	7.908674	2.679531	-0.000316
1151	1.1442e+02	-5.8137	-36.126309	0.000659	6.590562	2.232943	-0.000264
1152	1.1452e+02	-5.8490	-36.396797	0.000679	6.793348	2.301649	-0.000272
1153	1.1462e+02	-5.8875	-36.715731	0.000801	8.010067	2.713884	-0.000321
1154	1.1472e+02	-5.9341	-36.957959	0.000608	6.083595	2.061178	-0.000243
1155	1.1482e+02	-5.9742	-37.276893	0.000801	8.010067	2.713884	-0.000321
1156	1.1492e+02	-6.0207	-37.563529	0.000720	7.198921	2.439061	-0.000288
1157	1.1502e+02	-6.0431	-37.825943	0.000659	6.590562	2.232943	-0.000264
1158	1.1512e+02	-6.0993	-38.165063	0.000852	8.517033	2.885649	-0.000341
1159	1.1522e+02	-6.1314	-38.391142	0.000568	5.678022	1.923766	-0.000227
1160	1.1532e+02	-6.1779	-38.706039	0.000791	7.908674	2.679531	-0.000316
1161	1.1542e+02	-6.2116	-38.924044	0.000548	5.475236	1.855060	-0.000219
1162	1.1552e+02	-6.2581	-39.251052	0.000821	8.212854	2.782590	-0.000329
1163	1.1562e+02	-6.2902	-39.537689	0.000720	7.198921	2.439061	-0.000288
1164	1.1572e+02	-6.3271	-39.800103	0.000659	6.590562	2.232943	-0.000264
1165	1.1582e+02	-6.3672	-40.034257	0.000588	5.880809	1.992472	-0.000235
1166	1.1592e+02	-6.4121	-40.324930	0.000730	7.300314	2.473413	-0.000292
1167	1.1602e+02	-6.4474	-40.607530	0.000710	7.097528	2.404708	-0.000284
1168	1.1612e+02	-6.4875	-40.894166	0.000720	7.198921	2.439061	-0.000288
1169	1.1622e+02	-6.5276	-41.172729	0.000700	6.996135	2.370355	-0.000280
1170	1.1632e+02	-6.5677	-41.439180	0.000669	6.691955	2.267296	-0.000268
1171	1.1642e+02	-6.6030	-41.729854	0.000730	7.300314	2.473413	-0.000292
1172	1.1651e+02	-6.6383	-41.972082	0.000608	6.083595	2.061178	-0.000243
1173	1.1661e+02	-6.6832	-42.270830	0.000750	7.503101	2.542119	-0.000300
1174	1.1671e+02	-6.7201	-42.521132	0.000629	6.286382	2.129884	-0.000252
1175	1.1681e+02	-6.7650	-42.827954	0.000771	7.705887	2.610825	-0.000308
1176	1.1691e+02	-6.8036	-43.118628	0.000730	7.300314	2.473413	-0.000292
1177	1.1701e+02	-6.8549	-43.368931	0.000629	6.286382	2.129884	-0.000252
1178	1.1711e+02	-6.8790	-43.647493	0.000700	6.996135	2.370355	-0.000280
1179	1.1721e+02	-6.9255	-43.901833	0.000639	6.387775	2.164237	-0.000256
1180	1.1731e+02	-6.9592	-44.200581	0.000750	7.503101	2.542119	-0.000300
1181	1.1741e+02	-7.0137	-44.487217	0.000720	7.198921	2.439061	-0.000288
1182	1.1751e+02	-7.0538	-44.769817	0.000710	7.097528	2.404708	-0.000284
1183	1.1761e+02	-7.0843	-45.036268	0.000669	6.691955	2.267296	-0.000268
1184	1.1771e+02	-7.1324	-45.278496	0.000608	6.083595	2.061178	-0.000243
1185	1.1781e+02	-7.1677	-45.625690	0.000872	8.719820	2.954355	-0.000349
1186	1.1791e+02	-7.2062	-45.835621	0.000527	5.272449	1.786354	-0.000211
1187	1.1801e+02	-7.2415	-46.106109	0.000679	6.793348	2.301649	-0.000272
1188	1.1811e+02	-7.2784	-46.392745	0.000720	7.198921	2.439061	-0.000288
1189	1.1821e+02	-7.3313	-46.651122	0.000649	6.489168	2.198590	-0.000260
1190	1.1831e+02	-7.3618	-46.966019	0.000791	7.908674	2.679531	-0.000316
1191	1.1841e+02	-7.4051	-47.224395	0.000649	6.489168	2.198590	-0.000260
1192	1.1850e+02	-7.4420	-47.486809	0.000659	6.590562	2.232943	-0.000264
1193	1.1860e+02	-7.4854	-47.745186	0.000649	6.489168	2.198590	-0.000260
1194	1.1870e+02	-7.5239	-48.035860	0.000730	7.300314	2.473413	-0.000292
1195	1.1880e+02	-7.5591	-48.314422	0.000700	6.996135	2.370355	-0.000280
1196	1.1890e+02	-7.6089	-48.552613	0.000598	5.982202	2.026825	-0.000239
1197	1.1900e+02	-7.6474	-48.851361	0.000750	7.503101	2.542119	-0.000300
1198	1.1910e+02	-7.6859	-49.105701	0.000639	6.387775	2.164237	-0.000256
1199	1.1920e+02	-7.7260	-49.384263	0.000700	6.996135	2.370355	-0.000280
1200	1.1930e+02	-7.7629	-49.678974	0.000740	7.401708	2.507766	-0.000296
1201	1.1940e+02	-7.7982	-49.949462	0.000679	6.793348	2.301649	-0.000272
1202	1.1950e+02	-7.8463	-50.187653	0.000598	5.982202	2.026825	-0.000239
1203	1.1960e+02	-7.8848	-50.494475	0.000771	7.705887	2.610825	-0.000308
1204	1.1970e+02	-7.9249	-50.740741	0.000618	6.184989	2.095531	-0.000248
1205	1.1980e+02	-7.9522	-51.015266	0.000689	6.894741	2.336002	-0.000276
1206	1.1990e+02	-8.0051	-51.261531	0.000618	6.184989	2.095531	-0.000248
1207	1.2000e+02	-8.0452	-51.519908	0.000649	6.489168	2.198590	-0.000260
1208	1.2010e+02	-8.0853	-51.814619	0.000740	7.401708	2.507766	-0.000296
1209	1.2020e+02	-8.1174	-52.085107	0.000679	6.793348	2.301649	-0.000272
1210	1.2030e+02	-8.1591	-52.371743	0.000720	7.198921	2.439061	-0.000288
1211	1.2039e+02	-8.2057	-52.622046	0.000629	6.286382	2.129884	-0.000252
1212	1.2049e+02	-8.2442	-52.892534	0.000679	6.793348	2.301649	-0.000272
1213	1.2059e+02	-8.2730	-53.171096	0.000700	6.996135	2.370355	-0.000280
1214	1.2069e+02	-8.3212	-53.409287	0.000598	5.982202	2.026825	-0.000239
1215	1.2079e+02	-8.3645	-53.687850	0.000700	6.996135	2.370355	-0.000280
1216	1.2089e+02	-8.3982	-53.966412	0.000700	6.996135	2.370355	-0.000280
1217	1.2099e+02	-8.4399	-54.184417	0.000548	5.475236	1.855060	-0.000219
1218	1.2109e+02	-8.4800	-54.487202	0.000760	7.604494	2.576472	-0.000304
1219	1.2119e+02	-8.5185	-54.741542	0.000639	6.387775	2.164237	-0.000256
1220	1.2129e+02	-8.5602	-55.036253	0.000740	7.401708	2.507766	-0.000296
1221	1.2139e+02	-8.6051	-55.286555	0.000629	6.286382	2.129884	-0.000252
1222	1.2149e+02	-8.6324	-55.520709	0.000588	5.880809	1.992472	-0.000235
1223	1.2159e+02	-8.6805	-55.779086	0.000649	6.489168	2.198590	-0.000260
1224	1.2169e+02	-8.7238	-56.041500	0.000659	6.590562	2.232943	-0.000264
1225	1.2179e+02	-8.7559	-56.328136	0.000720	7.198921	2.439061	-0.000288
1226	1.2189e+02	-8.8024	-56.590550	0.000659	6.590562	2.232943	-0.000264
1227	1.2199e+02	-8.8377	-56.897373	0.000771	7.705887	2.610825	-0.000308
1228	1.2209e+02	-8.8810	-57.127489	0.000578	5.779416	1.958119	-0.000231
1229	1.2219e+02	-8.9131	-57.406052	0.000700	6.996135	2.370355	-0.000280
1230	1.2229e+02	-8.9548	-57.676540	0.000679	6.793348	2.301649	-0.000272
1231	1.2239e+02	-9.0062	-57.874359	0.000497	4.968270	1.683295	-0.000199
1232	1.2248e+02	-9.0415	-58.148885	0.000689	6.894741	2.336002	-0.000276
1233	1.2258e+02	-9.0880	-58.459744	0.000781	7.807281	2.645178	-0.000312
1234	1.2268e+02	-9.1169	-58.673712	0.000537	5.373843	1.820707	-0.000215
1235	1.2278e+02	-9.1650	-58.972460	0.000750	7.503101	2.542119	-0.000300
1236	1.2288e+02	-9.1971	-59.230837	0.000649	6.489168	2.198590	-0.000260
1237	1.2298e+02	-9.2388	-59.513436	0.000710	7.097528	2.404708	-0.000284
1238	1.2308e+02	-9.2725	-59.739516	0.000568	5.678022	1.923766	-0.000227
1239	1.2318e+02	-9.3254	-60.022116	0.000710	7.097528	2.404708	-0.000284
1240	1.2328e+02	-9.3527	-60.296641	0.000689	6.894741	2.336002	-0.000276
1241	1.2338e+02	-9.3880	-60.538869	0.000608	6.083595	2.061178	-0.000243
1242	1.2348e+02	-9.4457	-60.809357	0.000679	6.793348	2.301649	-0.000272
1243	1.2358e+02	-9.4794	-61.059659	0.000629	6.286382	2.129884	-0.000252
1244	1.2368e+02	-9.5179	-61.305925	0.000618	6.184989	2.095531	-0.000248
1245	1.2378e+02	-9.5612	-61.584487	0.000700	6.996135	2.370355	-0.000280
1246	1.2388e+02	-9.5917	-61.891309	0.000771	7.705887	2.610825	-0.000308
1247	1.2398e+02	-9.6334	-62.093166	0.000507	5.069663	1.717648	-0.000203
1248	1.2408e+02	-9.6799	-62.327320	0.000588	5.880809	1.992472	-0.000235
1249	1.2418e+02	-9.7120	-62.613957	0.000720	7.198921	2.439061	-0.000288
1250	1.2428e+02	-9.7569	-62.880408	0.000669	6.691955	2.267296	-0.000268
1251	1.2438e+02	-9.7987	-63.179156	0.000750	7.503101	2.542119	-0.000300
1252	1.2447e+02	-9.8307	-63.401198	0.000558	5.576629	1.889413	-0.000223
1253	1.2457e+02	-9.8724	-63.627278	0.000568	5.678022	1.923766	-0.000227
1254	1.2467e+02	-9.9174	-63.889692	0.000659	6.590562	2.232943	-0.000264
1255	1.2477e+02	-9.9559	-64.164217	0.000689	6.894741	2.336002	-0.000276
1256	1.2487e+02	-9.9928	-64.426631	0.000659	6.590562	2.232943	-0.000264
1257	1.2497e+02	-10.0345	-64.709230	0.000710	7.097528	2.404708	-0.000284
1258	1.2507e+02	-10.0810	-64.943384	0.000588	5.880809	1.992472	-0.000235
1259	1.2517e+02	-10.1083	-65.181575	0.000598	5.982202	2.026825	-0.000239
1260	1.2527e+02	-10.1548	-65.443989	0.000659	6.590562	2.232943	-0.000264
1261	1.2537e+02	-10.1869	-65.694291	0.000629	6.286382	2.129884	-0.000252
1262	1.2547e+02	-10.2286	-66.021299	0.000821	8.212854	2.782590	-0.000329
1263	1.2557e+02	-10.2735	-66.202970	0.000456	4.562696	1.545883	-0.000183
1264	1.2567e+02	-10.3200	-66.469421	0.000669	6.691955	2.267296	-0.000268
1265	1.2577e+02	-10.3585	-66.752021	0.000710	7.097528	2.404708	-0.000284
1266	1.2587e+02	-10.4002	-67.010398	0.000649	6.489168	2.198590	-0.000260
1267	1.2597e+02	-10.4307	-67.236477	0.000568	5.678022	1.923766	-0.000227
1268	1.2607e+02	-10.4724	-67.494854	0.000649	6.489168	2.198590	-0.000260
1269	1.2617e+02	-10.5174	-67.745156	0.000629	6.286382	2.129884	-0.000252
1270	1.2627e+02	-10.5559	-68.051979	0.000771	7.705887	2.610825	-0.000308
1271	1.2636e+02	-10.5879	-68.282095	0.000578	5.779416	1.958119	-0.000231
1272	1.2646e+02	-10.6377	-68.492026	0.000527	5.272449	1.786354	-0.000211
1273	1.2656e+02	-10.6762	-68.766552	0.000689	6.894741	2.336002	-0.000276
1274	1.2666e+02	-10.7179	-69.033003	0.000669	6.691955	2.267296	-0.000268
1275	1.2676e+02	-10.7452	-69.238896	0.000517	5.171056	1.752001	-0.000207
1276	1.2686e+02	-10.7981	-69.561867	0.000811	8.111460	2.748237	-0.000325
1277	1.2696e+02	-10.8350	-69.743538	0.000456	4.562696	1.545883	-0.000183
1278	1.2706e+02	-10.8703	-70.030175	0.000720	7.198921	2.439061	-0.000288
1279	1.2716e+02	-10.9184	-70.232032	0.000507	5.069663	1.717648	-0.000203
1280	1.2726e+02	-10.9505	-70.538854	0.000771	7.705887	2.610825	-0.000308
1281	1.2736e+02	-10.9938	-70.789157	0.000629	6.286382	2.129884	-0.000252
1282	1.2746e+02	-11.0227	-71.023310	0.000588	5.880809	1.992472	-0.000235
1283	1.2756e+02	-11.0836	-71.281687	0.000649	6.489168	2.198590	-0.000260
1284	1.2766e+02	-11.1045	-71.491618	0.000527	5.272449	1.786354	-0.000211
1285	1.2776e+02	-11.1510	-71.814589	0.000811	8.111460	2.748237	-0.000325
1286	1.2786e+02	-11.2024	-72.000297	0.000466	4.664090	1.580236	-0.000187
1287	1.2796e+02	-11.2264	-72.266748	0.000669	6.691955	2.267296	-0.000268
1288	1.2806e+02	-11.2617	-72.549348	0.000710	7.097528	2.404708	-0.000284
1289	1.2816e+02	-11.3147	-72.819836	0.000679	6.793348	2.301649	-0.000272
1290	1.2826e+02	-11.3532	-72.993433	0.000436	4.359910	1.477177	-0.000174
1291	1.2835e+02	-11.3981	-73.239698	0.000618	6.184989	2.095531	-0.000248
1292	1.2845e+02	-11.4334	-73.506149	0.000669	6.691955	2.267296	-0.000268
1293	1.2855e+02	-11.4735	-73.744340	0.000598	5.982202	2.026825	-0.000239
1294	1.2865e+02	-11.5088	-74.018865	0.000689	6.894741	2.336002	-0.000276
1295	1.2875e+02	-11.5537	-74.220722	0.000507	5.069663	1.717648	-0.000203
1296	1.2885e+02	-11.5842	-74.507359	0.000720	7.198921	2.439061	-0.000288
1297	1.2895e+02	-11.6275	-74.777847	0.000679	6.793348	2.301649	-0.000272
1298	1.2905e+02	-11.6644	-75.028149	0.000629	6.286382	2.129884	-0.000252
1299	1.2915e+02	-11.7125	-75.254229	0.000568	5.678022	1.923766	-0.000227
1300	1.2925e+02	-11.7542	-75.504531	0.000629	6.286382	2.129884	-0.000252
1301	1.2935e+02	-11.7927	-75.742722	0.000598	5.982202	2.026825	-0.000239
1302	1.2945e+02	-11.8312	-76.001099	0.000649	6.489168	2.198590	-0.000260
1303	1.2955e+02	-11.8649	-76.223141	0.000558	5.576629	1.889413	-0.000223
1304	1.2965e+02	-11.9114	-76.477481	0.000639	6.387775	2.164237	-0.000256
1305	1.2975e+02	-11.9515	-76.756043	0.000700	6.996135	2.370355	-0.000280
1306	1.2985e+02	-11.9836	-76.957900	0.000507	5.069663	1.717648	-0.000203
1307	1.2995e+02	-12.0269	-77.244537	0.000720	7.198921	2.439061	-0.000288
1308	1.3005e+02	-12.0686	-77.458505	0.000537	5.373843	1.820707	-0.000215
1309	1.3015e+02	-12.1055	-77.688622	0.000578	5.779416	1.958119	-0.000231
1310	1.3025e+02	-12.1473	-77.942961	0.000639	6.387775	2.164237	-0.000256
1311	1.3034e+02	-12.1906	-78.193264	0.000629	6.286382	2.129884	-0.000252
1312	1.3044e+02	-12.2307	-78.443566	0.000629	6.286382	2.129884	-0.000252
1313	1.3054e+02	-12.2708	-78.669646	0.000568	5.678022	1.923766	-0.000227
1314	1.3064e+02	-12.3013	-78.911874	0.000608	6.083595	2.061178	-0.000243
1315	1.3074e+02	-12.3446	-79.129879	0.000548	5.475236	1.855060	-0.000219
1316	1.3084e+02	-12.3895	-79.359996	0.000578	5.779416	1.958119	-0.000231
1317	1.3094e+02	-12.4312	-79.622410	0.000659	6.590562	2.232943	-0.000264
1318	1.3104e+02	-12.4649	-79.880786	0.000649	6.489168	2.198590	-0.000260
1319	1.3114e+02	-12.5050	-80.098792	0.000548	5.475236	1.855060	-0.000219
1320	1.3124e+02	-12.5483	-80.345057	0.000618	6.184989	2.095531	-0.000248
1321	1.3134e+02	-12.5932	-80.599396	0.000639	6.387775	2.164237	-0.000256
1322	1.3144e+02	-12.6237	-80.829513	0.000578	5.779416	1.958119	-0.000231
1323	1.3154e+02	-12.6654	-81.083853	0.000639	6.387775	2.164237	-0.000256
1324	1.3164e+02	-12.7071	-81.285710	0.000507	5.069663	1.717648	-0.000203
1325	1.3174e+02	-12.7504	-81.548123	0.000659	6.590562	2.232943	-0.000264
1326	1.3184e+02	-12.7825	-81.774203	0.000568	5.678022	1.923766	-0.000227
1327	1.3194e+02	-12.8242	-82.004320	0.000578	5.779416	1.958119	-0.000231
1328	1.3204e+02	-12.8659	-82.262696	0.000649	6.489168	2.198590	-0.000260
1329	1.3214e+02	-12.9044	-82.488776	0.000568	5.678022	1.923766	-0.000227
1330	1.3224e+02	-12.9510	-82.714856	0.000568	5.678022	1.923766	-0.000227
1331	1.3234e+02	-12.9815	-82.997455	0.000710	7.097528	2.404708	-0.000284
1332	1.3243e+02	-13.0200	-83.195275	0.000497	4.968270	1.683295	-0.000199
1333	1.3253e+02	-13.0729	-83.429429	0.000588	5.880809	1.992472	-0.000235
1334	1.3263e+02	-13.1050	-83.683768	0.000639	6.387775	2.164237	-0.000256
1335	1.3273e+02	-13.1419	-83.909848	0.000568	5.678022	1.923766	-0.000227
1336	1.3283e+02	-13.1756	-84.160150	0.000629	6.286382	2.129884	-0.000252
1337	1.3293e+02	-13.2173	-84.362007	0.000507	5.069663	1.717648	-0.000203
1338	1.3303e+02	-13.2638	-84.592124	0.000578	5.779416	1.958119	-0.000231
1339	1.3313e+02	-13.3055	-84.838389	0.000618	6.184989	2.095531	-0.000248
1340	1.3323e+02	-13.3360	-85.080617	0.000608	6.083595	2.061178	-0.000243
1341	1.3333e+02	-13.3793	-85.343031	0.000659	6.590562	2.232943	-0.000264
1342	1.3343e+02	-13.4210	-85.565073	0.000558	5.576629	1.889413	-0.000223
1343	1.3353e+02	-13.4611	-85.783079	0.000548	5.475236	1.855060	-0.000219
1344	1.3363e+02	-13.5060	-86.037418	0.000639	6.387775	2.164237	-0.000256
1345	1.3373e+02	-13.5526	-86.275609	0.000598	5.982202	2.026825	-0.000239
1346	1.3383e+02	-13.5830	-86.517837	0.000608	6.083595	2.061178	-0.000243
1347	1.3393e+02	-13.6183	-86.739880	0.000558	5.576629	1.889413	-0.000223
1348	1.3403e+02	-13.6616	-86.974034	0.000588	5.880809	1.992472	-0.000235
1349	1.3413e+02	-13.6985	-87.179928	0.000517	5.171056	1.752001	-0.000207
1350	1.3423e+02	-13.7451	-87.494824	0.000791	7.908674	2.679531	-0.000316
1351	1.3432e+02	-13.7900	-87.644198	0.000375	3.751550	1.271060	-0.000150
1352	1.3442e+02	-13.8124	-87.926798	0.000710	7.097528	2.404708	-0.000284
1353	1.3452e+02	-13.8622	-88.169026	0.000608	6.083595	2.061178	-0.000243
1354	1.3462e+02	-13.9007	-88.387031	0.000548	5.475236	1.855060	-0.000219
1355	1.3472e+02	-13.9392	-88.613111	0.000568	5.678022	1.923766	-0.000227
1356	1.3482e+02	-13.9841	-88.871488	0.000649	6.489168	2.198590	-0.000260
1357	1.3492e+02	-14.0194	-89.065270	0.000487	4.866876	1.648942	-0.000195
1358	1.3502e+02	-14.0675	-89.287313	0.000558	5.576629	1.889413	-0.000223
1359	1.3512e+02	-14.1044	-89.577986	0.000730	7.300314	2.473413	-0.000292
1360	1.3522e+02	-14.1317	-89.791955	0.000537	5.373843	1.820707	-0.000215
1361	1.3532e+02	-14.1782	-90.001886	0.000527	5.272449	1.786354	-0.000211
1362	1.3542e+02	-14.2087	-90.240077	0.000598	5.982202	2.026825	-0.000239
1363	1.3552e+02	-14.2568	-90.458082	0.000548	5.475236	1.855060	-0.000219
1364	1.3562e+02	-14.3033	-90.700310	0.000608	6.083595	2.061178	-0.000243
1365	1.3572e+02	-14.3386	-90.954650	0.000639	6.387775	2.164237	-0.000256
1366	1.3582e+02	-14.3723	-91.208989	0.000639	6.387775	2.164237	-0.000256
1367	1.3592e+02	-14.4140	-91.394697	0.000466	4.664090	1.580236	-0.000187
1368	1.3602e+02	-14.4509	-91.608666	0.000537	5.373843	1.820707	-0.000215
1369	1.3612e+02	-14.4926	-91.854931	0.000618	6.184989	2.095531	-0.000248
1370	1.3622e+02	-14.5408	-92.113308	0.000649	6.489168	2.198590	-0.000260
1371	1.3631e+02	-14.5873	-92.343424	0.000578	5.779416	1.958119	-0.000231
1372	1.3641e+02	-14.6274	-92.521058	0.000446	4.461303	1.511530	-0.000179
1373	1.3651e+02	-14.6595	-92.807695	0.000720	7.198921	2.439061	-0.000288
1374	1.3661e+02	-14.6948	-93.033775	0.000568	5.678022	1.923766	-0.000227
1375	1.3671e+02	-14.7349	-93.251780	0.000548	5.475236	1.855060	-0.000219
1376	1.3681e+02	-14.7798	-93.485934	0.000588	5.880809	1.992472	-0.000235
1377	1.3691e+02	-14.8199	-93.716050	0.000578	5.779416	1.958119	-0.000231
1378	1.3701e+02	-14.8536	-93.946167	0.000578	5.779416	1.958119	-0.000231
1379	1.3711e+02	-14.8889	-94.131875	0.000466	4.664090	1.580236	-0.000187
1380	1.3721e+02	-14.9402	-94.394289	0.000659	6.590562	2.232943	-0.000264
1381	1.3731e+02	-14.9787	-94.652666	0.000649	6.489168	2.198590	-0.000260
1382	1.3741e+02	-15.0140	-94.822226	0.000426	4.258517	1.442825	-0.000170
1383	1.3751e+02	-15.0525	-95.032157	0.000527	5.272449	1.786354	-0.000211
1384	1.3761e+02	-15.0958	-95.343016	0.000781	7.807281	2.645178	-0.000312
1385	1.3771e+02	-15.1456	-95.548910	0.000517	5.171056	1.752001	-0.000207
1386	1.3781e+02	-15.1744	-95.742693	0.000487	4.866876	1.648942	-0.000195
1387	1.3791e+02	-15.2097	-95.980884	0.000598	5.982202	2.026825	-0.000239
1388	1.3801e+02	-15.2402	-96.223112	0.000608	6.083595	2.061178	-0.000243
1389	1.3811e+02	-15.2932	-96.469377	0.000618	6.184989	2.095531	-0.000248
1390	1.3821e+02	-15.3349	-96.695457	0.000568	5.678022	1.923766	-0.000227
1391	1.3831e+02	-15.3782	-96.901351	0.000517	5.171056	1.752001	-0.000207
1392	1.3840e+02	-15.4135	-97.091096	0.000477	4.765483	1.614589	-0.000191
1393	1.3850e+02	-15.4536	-97.381770	0.000730	7.300314	2.473413	-0.000292
1394	1.3860e+02	-15.4825	-97.615924	0.000588	5.880809	1.992472	-0.000235
1395	1.3870e+02	-15.5354	-97.817780	0.000507	5.069663	1.717648	-0.000203
1396	1.3880e+02	-15.5707	-98.064046	0.000618	6.184989	2.095531	-0.000248
1397	1.3890e+02	-15.6188	-98.294162	0.000578	5.779416	1.958119	-0.000231
1398	1.3900e+02	-15.6589	-98.496019	0.000507	5.069663	1.717648	-0.000203
1399	1.3910e+02	-15.6894	-98.705950	0.000527	5.272449	1.786354	-0.000211
1400	1.3920e+02	-15.7311	-98.980475	0.000689	6.894741	2.336002	-0.000276
1401	1.3930e+02	-15.7792	-99.182332	0.000507	5.069663	1.717648	-0.000203
1402	1.3940e+02	-15.8161	-99.408412	0.000568	5.678022	1.923766	-0.000227
1403	1.3950e+02	-15.8643	-99.650640	0.000608	6.083595	2.061178	-0.000243
1404	1.3960e+02	-15.8851	-99.880757	0.000578	5.779416	1.958119	-0.000231
1405	1.3970e+02	-15.9332	-100.082614	0.000507	5.069663	1.717648	-0.000203
1406	1.3980e+02	-15.9733	-100.316767	0.000588	5.880809	1.992472	-0.000235
1407	1.3990e+02	-16.0086	-100.579181	0.000659	6.590562	2.232943	-0.000264
1408	1.4000e+02	-16.0503	-100.825446	0.000618	6.184989	2.095531	-0.000248
1409	1.4010e+02	-16.0937	-101.027303	0.000507	5.069663	1.717648	-0.000203
1410	1.4020e+02	-16.1370	-101.249346	0.000558	5.576629	1.889413	-0.000223
1411	1.4029e+02	-16.1675	-101.410831	0.000406	4.055730	1.374119	-0.000162
1412	1.4039e+02	-16.2140	-101.689394	0.000700	6.996135	2.370355	-0.000280
1413	1.4049e+02	-16.2477	-101.895287	0.000517	5.171056	1.752001	-0.000207
1414	1.4059e+02	-16.2878	-102.165776	0.000679	6.793348	2.301649	-0.000272
1415	1.4069e+02	-16.3279	-102.375707	0.000527	5.272449	1.786354	-0.000211
1416	1.4079e+02	-16.3632	-102.589675	0.000537	5.373843	1.820707	-0.000215
1417	1.4089e+02	-16.4097	-102.844014	0.000639	6.387775	2.164237	-0.000256
1418	1.4099e+02	-16.4466	-103.086243	0.000608	6.083595	2.061178	-0.000243
1419	1.4109e+02	-16.4787	-103.247728	0.000406	4.055730	1.374119	-0.000162
1420	1.4119e+02	-16.5300	-103.493993	0.000618	6.184989	2.095531	-0.000248
1421	1.4129e+02	-16.5733	-103.752370	0.000649	6.489168	2.198590	-0.000260
1422	1.4139e+02	-16.6134	-103.982487	0.000578	5.779416	1.958119	-0.000231
1423	1.4149e+02	-16.6471	-104.244900	0.000659	6.590562	2.232943	-0.000264
1424	1.4159e+02	-16.6888	-104.430609	0.000466	4.664090	1.580236	-0.000187
1425	1.4169e+02	-16.7225	-104.668800	0.000598	5.982202	2.026825	-0.000239
1426	1.4179e+02	-16.7706	-104.878731	0.000527	5.272449	1.786354	-0.000211
1427	1.4189e+02	-16.8059	-105.108848	0.000578	5.779416	1.958119	-0.000231
1428	1.4199e+02	-16.8428	-105.322816	0.000537	5.373843	1.820707	-0.000215
1429	1.4209e+02	-16.8829	-105.552932	0.000578	5.779416	1.958119	-0.000231
1430	1.4219e+02	-16.9359	-105.787086	0.000588	5.880809	1.992472	-0.000235
1431	1.4228e+02	-16.9712	-106.009129	0.000558	5.576629	1.889413	-0.000223
1432	1.4238e+02	-17.0065	-106.206948	0.000497	4.968270	1.683295	-0.000199
1433	1.4248e+02	-17.0482	-106.449177	0.000608	6.083595	2.061178	-0.000243
1434	1.4258e+02	-17.0835	-106.731776	0.000710	7.097528	2.404708	-0.000284
1435	1.4268e+02	-17.1284	-106.905373	0.000436	4.359910	1.477177	-0.000174
1436	1.4278e+02	-17.1669	-107.151638	0.000618	6.184989	2.095531	-0.000248
1437	1.4288e+02	-17.2102	-107.377718	0.000568	5.678022	1.923766	-0.000227
1438	1.4298e+02	-17.2439	-107.623983	0.000618	6.184989	2.095531	-0.000248
1439	1.4308e+02	-17.2888	-107.850063	0.000568	5.678022	1.923766	-0.000227
1440	1.4318e+02	-17.3257	-108.055957	0.000517	5.171056	1.752001	-0.000207
1441	1.4328e+02	-17.3658	-108.282036	0.000568	5.678022	1.923766	-0.000227
1442	1.4338e+02	-17.4075	-108.463707	0.000456	4.562696	1.545883	-0.000183
1443	1.4348e+02	-17.4444	-108.750344	0.000720	7.198921	2.439061	-0.000288
1444	1.4358e+02	-17.4861	-108.984498	0.000588	5.880809	1.992472	-0.000235
1445	1.4368e+02	-17.5182	-109.206540	0.000558	5.576629	1.889413	-0.000223
1446	1.4378e+02	-17.5712	-109.432620	0.000568	5.678022	1.923766	-0.000227
1447	1.4388e+02	-17.6049	-109.670811	0.000598	5.982202	2.026825	-0.000239
1448	1.4398e+02	-17.6498	-109.864593	0.000487	4.866876	1.648942	-0.000195
1449	1.4408e+02	-17.6851	-110.131044	0.000669	6.691955	2.267296	-0.000268
1450	1.4418e+02	-17.7268	-110.320790	0.000477	4.765483	1.614589	-0.000191
1451	1.4428e+02	-17.7669	-110.563018	0.000608	6.083595	2.061178	-0.000243
1452	1.4437e+02	-17.7958	-110.760838	0.000497	4.968270	1.683295	-0.000199
1453	1.4447e+02	-17.8455	-111.019214	0.000649	6.489168	2.198590	-0.000260
1454	1.4457e+02	-17.8888	-111.257405	0.000598	5.982202	2.026825	-0.000239
1455	1.4467e+02	-17.9177	-111.463299	0.000517	5.171056	1.752001	-0.000207
1456	1.4477e+02	-17.9642	-111.697453	0.000588	5.880809	1.992472	-0.000235
1457	1.4487e+02	-18.0027	-111.963904	0.000669	6.691955	2.267296	-0.000268
1458	1.4497e+02	-18.0460	-112.149612	0.000466	4.664090	1.580236	-0.000187
1459	1.4507e+02	-18.0861	-112.416063	0.000669	6.691955	2.267296	-0.000268
1460	1.4517e+02	-18.1214	-112.605809	0.000477	4.765483	1.614589	-0.000191
1461	1.4527e+02	-18.1647	-112.904557	0.000750	7.503101	2.542119	-0.000300
1462	1.4537e+02	-18.2032	-113.090265	0.000466	4.664090	1.580236	-0.000187
1463	1.4547e+02	-18.2481	-113.364790	0.000689	6.894741	2.336002	-0.000276
1464	1.4557e+02	-18.2915	-113.607018	0.000608	6.083595	2.061178	-0.000243
1465	1.4567e+02	-18.3284	-113.825024	0.000548	5.475236	1.855060	-0.000219
1466	1.4577e+02	-18.3572	-114.063215	0.000598	5.982202	2.026825	-0.000239
1467	1.4587e+02	-18.4054	-114.309480	0.000618	6.184989	2.095531	-0.000248
1468	1.4597e+02	-18.4455	-114.547671	0.000598	5.982202	2.026825	-0.000239
1469	1.4607e+02	-18.4776	-114.765676	0.000548	5.475236	1.855060	-0.000219
1470	1.4617e+02	-18.5225	-115.024053	0.000649	6.489168	2.198590	-0.000260
1471	1.4626e+02	-18.5642	-115.250132	0.000568	5.678022	1.923766	-0.000227
1472	1.4636e+02	-18.6027	-115.476212	0.000568	5.678022	1.923766	-0.000227
1473	1.4646e+02	-18.6428	-115.718440	0.000608	6.083595	2.061178	-0.000243
1474	1.4656e+02	-18.6749	-115.972780	0.000639	6.387775	2.164237	-0.000256
1475	1.4666e+02	-18.7230	-116.227119	0.000639	6.387775	2.164237	-0.000256
1476	1.4676e+02	-18.7567	-116.449162	0.000558	5.576629	1.889413	-0.000223
1477	1.4686e+02	-18.8000	-116.663130	0.000537	5.373843	1.820707	-0.000215
1478	1.4696e+02	-18.8369	-116.905358	0.000608	6.083595	2.061178	-0.000243
1479	1.4706e+02	-18.8818	-117.143549	0.000598	5.982202	2.026825	-0.000239
1480	1.4716e+02	-18.9219	-117.405963	0.000659	6.590562	2.232943	-0.000264
1481	1.4726e+02	-18.9620	-117.652228	0.000618	6.184989	2.095531	-0.000248
1482	1.4736e+02	-19.0037	-117.902531	0.000629	6.286382	2.129884	-0.000252
1483	1.4746e+02	-19.0358	-118.080165	0.000446	4.461303	1.511530	-0.000179
1484	1.4756e+02	-19.0856	-118.358727	0.000700	6.996135	2.370355	-0.000280
1485	1.4766e+02	-19.1160	-118.604992	0.000618	6.184989	2.095531	-0.000248
1486	1.4776e+02	-19.1561	-118.859332	0.000639	6.387775	2.164237	-0.000256
1487	1.4786e+02	-19.1962	-119.069263	0.000527	5.272449	1.786354	-0.000211
1488	1.4796e+02	-19.2476	-119.327640	0.000649	6.489168	2.198590	-0.000260
1489	1.4806e+02	-19.2909	-119.602165	0.000689	6.894741	2.336002	-0.000276
1490	1.4816e+02	-19.3166	-119.808059	0.000517	5.171056	1.752001	-0.000207
1491	1.4825e+02	-19.3615	-120.017990	0.000527	5.272449	1.786354	-0.000211
1492	1.4835e+02	-19.3968	-120.284441	0.000669	6.691955	2.267296	-0.000268
1493	1.4845e+02	-19.4513	-120.506483	0.000558	5.576629	1.889413	-0.000223
1494	1.4855e+02	-19.4786	-120.781008	0.000689	6.894741	2.336002	-0.000276
1495	1.4865e+02	-19.5171	-121.063608	0.000710	7.097528	2.404708	-0.000284
1496	1.4875e+02	-19.5652	-121.277576	0.000537	5.373843	1.820707	-0.000215
1497	1.4885e+02	-19.6037	-121.539990	0.000659	6.590562	2.232943	-0.000264
1498	1.4895e+02	-19.6390	-121.810478	0.000679	6.793348	2.301649	-0.000272
1499	1.4905e+02	-19.6695	-122.089040	0.000700	6.996135	2.370355	-0.000280
1500	1.4915e+02	-19.7144	-122.270712	0.000456	4.562696	1.545883	-0.000183
1501	1.4925e+02	-19.7641	-122.537162	0.000669	6.691955	2.267296	-0.000268
1502	1.4935e+02	-19.7994	-122.868208	0.000831	8.314247	2.816943	-0.000333
1503	1.4945e+02	-19.8347	-123.082176	0.000537	5.373843	1.820707	-0.000215
1504	1.4955e+02	-19.8780	-123.344590	0.000659	6.590562	2.232943	-0.000264
1505	1.4965e+02	-19.9182	-123.598929	0.000639	6.387775	2.164237	-0.000256
1506	1.4975e+02	-19.9518	-123.837120	0.000598	5.982202	2.026825	-0.000239
1507	1.4985e+02	-19.9871	-124.123757	0.000720	7.198921	2.439061	-0.000288
1508	1.4995e+02	-19.9679	-124.030903	0.000233	2.332045	0.790118	0.000093
1509	1.5005e+02	-19.9182	-123.954197	0.000193	1.926472	0.652706	0.000077
1510	1.5015e+02	-19.8797	-123.869417	0.000213	2.129258	0.721412	0.000085
1511	1.5025e+02	-19.8315	-123.816935	0.000132	1.318112	0.446589	0.000053
1512	1.5034e+02	-19.7994	-123.671598	0.000365	3.650157	1.236707	0.000146
1513	1.5044e+02	-19.7545	-123.566632	0.000264	2.636225	0.893177	0.000105
1514	1.5054e+02	-19.7160	-123.489927	0.000193	1.926472	0.652706	0.000077
1515	1.5064e+02	-19.6727	-123.352664	0.000345	3.447371	1.168001	0.000138
1516	1.5074e+02	-19.6390	-123.316330	0.000091	0.912539	0.309177	0.000037
1517	1.5084e+02	-19.5973	-123.175030	0.000355	3.548764	1.202354	0.000142
1518	1.5094e+02	-19.5604	-123.049879	0.000314	3.143191	1.064942	0.000126
1519	1.5104e+02	-19.5123	-122.932802	0.000294	2.940404	0.996236	0.000118
1520	1.5114e+02	-19.4754	-122.811688	0.000304	3.041798	1.030589	0.000122
1521	1.5124e+02	-19.4369	-122.662314	0.000375	3.751550	1.271060	0.000150
1522	1.5134e+02	-19.3936	-122.549274	0.000284	2.839011	0.961883	0.000114
1523	1.5144e+02	-19.3551	-122.424123	0.000314	3.143191	1.064942	0.000126
1524	1.5154e+02	-19.3198	-122.319157	0.000264	2.636225	0.893177	0.000105
1525	1.5164e+02	-19.2797	-122.198043	0.000304	3.041798	1.030589	0.000122
1526	1.5174e+02	-19.2412	-122.080966	0.000294	2.940404	0.996236	0.000118
1527	1.5184e+02	-19.1946	-121.951778	0.000324	3.244584	1.099295	0.000130
1528	1.5194e+02	-19.1594	-121.814515	0.000345	3.447371	1.168001	0.000138
1529	1.5204e+02	-19.1176	-121.653030	0.000406	4.055730	1.374119	0.000162
1530	1.5214e+02	-19.0727	-121.535953	0.000294	2.940404	0.996236	0.000118
1531	1.5224e+02	-19.0422	-121.374467	0.000406	4.055730	1.374119	0.000162
1532	1.5233e+02	-19.0086	-121.253353	0.000304	3.041798	1.030589	0.000122
1533	1.5243e+02	-18.9556	-121.136276	0.000294	2.940404	0.996236	0.000118
1534	1.5253e+02	-18.9123	-120.999014	0.000345	3.447371	1.168001	0.000138
1535	1.5263e+02	-18.8738	-120.857714	0.000355	3.548764	1.202354	0.000142
1536	1.5273e+02	-18.8353	-120.672006	0.000466	4.664090	1.580236	0.000187
1537	1.5283e+02	-18.8016	-120.522632	0.000375	3.751550	1.271060	0.000150
1538	1.5293e+02	-18.7599	-120.381332	0.000355	3.548764	1.202354	0.000142
1539	1.5303e+02	-18.7166	-120.308664	0.000183	1.825079	0.618353	0.000073
1540	1.5313e+02	-18.6765	-120.102770	0.000517	5.171056	1.752001	0.000207
1541	1.5323e+02	-18.6412	-119.937247	0.000416	4.157123	1.408472	0.000166
1542	1.5333e+02	-18.5979	-119.832282	0.000264	2.636225	0.893177	0.000105
1543	1.5343e+02	-18.5658	-119.662722	0.000426	4.258517	1.442825	0.000170
1544	1.5353e+02	-18.5273	-119.481051	0.000456	4.562696	1.545883	0.000183
1545	1.5363e+02	-18.4888	-119.392234	0.000223	2.230652	0.755765	0.000089
1546	1.5373e+02	-18.4471	-119.170191	0.000558	5.576629	1.889413	0.000223
1547	1.5383e+02	-18.3973	-119.085411	0.000213	2.129258	0.721412	0.000085
1548	1.5393e+02	-18.3604	-118.911815	0.000436	4.359910	1.477177	0.000174
1549	1.5403e+02	-18.3235	-118.738218	0.000436	4.359910	1.477177	0.000174
1550	1.5413e+02	-18.2818	-118.556547	0.000456	4.562696	1.545883	0.000183
1551	1.5422e+02	-18.2401	-118.362764	0.000487	4.866876	1.648942	0.000195
1552	1.5432e+02	-18.2016	-118.273947	0.000223	2.230652	0.755765	0.000089
1553	1.5442e+02	-18.1647	-118.128610	0.000365	3.650157	1.236707	0.000146
1554	1.5452e+02	-18.1246	-117.926753	0.000507	5.069663	1.717648	0.000203
1555	1.5462e+02	-18.0829	-117.753157	0.000436	4.359910	1.477177	0.000174
1556	1.5472e+02	-18.0524	-117.611857	0.000355	3.548764	1.202354	0.000142
1557	1.5482e+02	-18.0139	-117.418074	0.000487	4.866876	1.648942	0.000195
1558	1.5492e+02	-17.9626	-117.268700	0.000375	3.751550	1.271060	0.000150
1559	1.5502e+02	-17.9241	-117.135475	0.000335	3.345977	1.133648	0.000134
1560	1.5512e+02	-17.8856	-116.965915	0.000426	4.258517	1.442825	0.000170
1561	1.5522e+02	-17.8503	-116.776170	0.000477	4.765483	1.614589	0.000191
1562	1.5532e+02	-17.8086	-116.638907	0.000345	3.447371	1.168001	0.000138
1563	1.5542e+02	-17.7717	-116.489533	0.000375	3.751550	1.271060	0.000150
1564	1.5552e+02	-17.7316	-116.267491	0.000558	5.576629	1.889413	0.000223
1565	1.5562e+02	-17.6899	-116.126191	0.000355	3.548764	1.202354	0.000142
1566	1.5572e+02	-17.6401	-115.988928	0.000345	3.447371	1.168001	0.000138
1567	1.5582e+02	-17.6065	-115.803220	0.000466	4.664090	1.580236	0.000187
1568	1.5592e+02	-17.5680	-115.649809	0.000385	3.852944	1.305413	0.000154
1569	1.5602e+02	-17.5214	-115.451989	0.000497	4.968270	1.683295	0.000199
1570	1.5612e+02	-17.4893	-115.286467	0.000416	4.157123	1.408472	0.000166
1571	1.5622e+02	-17.4476	-115.153241	0.000335	3.345977	1.133648	0.000134
1572	1.5631e+02	-17.3947	-114.975607	0.000446	4.461303	1.511530	0.000179
1573	1.5641e+02	-17.3658	-114.834308	0.000355	3.548764	1.202354	0.000142
1574	1.5651e+02	-17.3289	-114.636488	0.000497	4.968270	1.683295	0.000199
1575	1.5661e+02	-17.2952	-114.491151	0.000365	3.650157	1.236707	0.000146
1576	1.5671e+02	-17.2551	-114.285257	0.000517	5.171056	1.752001	0.000207
1577	1.5681e+02	-17.2038	-114.135883	0.000375	3.751550	1.271060	0.000150
1578	1.5691e+02	-17.1733	-114.006695	0.000324	3.244584	1.099295	0.000130
1579	1.5701e+02	-17.1284	-113.800801	0.000517	5.171056	1.752001	0.000207
1580	1.5711e+02	-17.0851	-113.607018	0.000487	4.866876	1.648942	0.000195
1581	1.5721e+02	-17.0530	-113.437459	0.000426	4.258517	1.442825	0.000170
1582	1.5731e+02	-17.0145	-113.271936	0.000416	4.157123	1.408472	0.000166
1583	1.5741e+02	-16.9664	-113.078153	0.000487	4.866876	1.648942	0.000195
1584	1.5751e+02	-16.9247	-112.940891	0.000345	3.447371	1.168001	0.000138
1585	1.5761e+02	-16.8894	-112.726923	0.000537	5.373843	1.820707	0.000215
1586	1.5771e+02	-16.8460	-112.589660	0.000345	3.447371	1.168001	0.000138
1587	1.5781e+02	-16.8108	-112.383766	0.000517	5.171056	1.752001	0.000207
1588	1.5791e+02	-16.7674	-112.222281	0.000406	4.055730	1.374119	0.000162
1589	1.5801e+02	-16.7402	-112.068870	0.000385	3.852944	1.305413	0.000154
1590	1.5811e+02	-16.6920	-111.883161	0.000466	4.664090	1.580236	0.000187
1591	1.5821e+02	-16.6535	-111.685342	0.000497	4.968270	1.683295	0.000199
1592	1.5830e+02	-16.5990	-111.531930	0.000385	3.852944	1.305413	0.000154
1593	1.5840e+02	-16.5733	-111.362371	0.000426	4.258517	1.442825	0.000170
1594	1.5850e+02	-16.5204	-111.164551	0.000497	4.968270	1.683295	0.000199
1595	1.5860e+02	-16.4787	-110.990954	0.000436	4.359910	1.477177	0.000174
1596	1.5870e+02	-16.4498	-110.760838	0.000578	5.779416	1.958119	0.000231
1597	1.5880e+02	-16.4129	-110.599352	0.000406	4.055730	1.374119	0.000162
1598	1.5890e+02	-16.3680	-110.458052	0.000355	3.548764	1.202354	0.000142
1599	1.5900e+02	-16.3327	-110.256196	0.000507	5.069663	1.717648	0.000203
1600	1.5910e+02	-16.2942	-110.127007	0.000324	3.244584	1.099295	0.000130
1601	1.5920e+02	-16.2509	-109.900928	0.000568	5.678022	1.923766	0.000227
1602	1.5930e+02	-16.2140	-109.727331	0.000436	4.359910	1.477177	0.000174
1603	1.5940e+02	-16.1723	-109.517400	0.000527	5.272449	1.786354	0.000211
1604	1.5950e+02	-16.1306	-109.380137	0.000345	3.447371	1.168001	0.000138
1605	1.5960e+02	-16.0969	-109.150020	0.000578	5.779416	1.958119	0.000231
1606	1.5970e+02	-16.0520	-108.968349	0.000456	4.562696	1.545883	0.000183
1607	1.5980e+02	-16.0151	-108.790715	0.000446	4.461303	1.511530	0.000179
1608	1.5990e+02	-15.9685	-108.609044	0.000456	4.562696	1.545883	0.000183
1609	1.6000e+02	-15.9332	-108.447559	0.000406	4.055730	1.374119	0.000162
1610	1.6010e+02	-15.8931	-108.253776	0.000487	4.866876	1.648942	0.000195
1611	1.6019e+02	-15.8482	-108.104402	0.000375	3.751550	1.271060	0.000150
1612	1.6029e+02	-15.8049	-107.914657	0.000477	4.765483	1.614589	0.000191
1613	1.6039e+02	-15.7744	-107.680503	0.000588	5.880809	1.992472	0.000235
1614	1.6049e+02	-15.7343	-107.510943	0.000426	4.258517	1.442825	0.000170
1615	1.6059e+02	-15.6830	-107.329272	0.000456	4.562696	1.545883	0.000183
1616	1.6069e+02	-15.6493	-107.155675	0.000436	4.359910	1.477177	0.000174
1617	1.6079e+02	-15.6108	-106.961893	0.000487	4.866876	1.648942	0.000195
1618	1.6089e+02	-15.5659	-106.764073	0.000497	4.968270	1.683295	0.000199
1619	1.6099e+02	-15.5434	-106.578365	0.000466	4.664090	1.580236	0.000187
1620	1.6109e+02	-15.4905	-106.376508	0.000507	5.069663	1.717648	0.000203
1621	1.6119e+02	-15.4584	-106.206948	0.000426	4.258517	1.442825	0.000170
1622	1.6129e+02	-15.4087	-106.021240	0.000466	4.664090	1.580236	0.000187
1623	1.6139e+02	-15.3669	-105.843606	0.000446	4.461303	1.511530	0.000179
1624	1.6149e+02	-15.3397	-105.694232	0.000375	3.751550	1.271060	0.000150
1625	1.6159e+02	-15.2899	-105.484301	0.000527	5.272449	1.786354	0.000211
1626	1.6169e+02	-15.2611	-105.246110	0.000598	5.982202	2.026825	0.000239
1627	1.6179e+02	-15.2226	-105.104810	0.000355	3.548764	1.202354	0.000142
1628	1.6189e+02	-15.1825	-104.886805	0.000548	5.475236	1.855060	0.000219
1629	1.6199e+02	-15.1311	-104.672837	0.000537	5.373843	1.820707	0.000215
1630	1.6209e+02	-15.0910	-104.503277	0.000426	4.258517	1.442825	0.000170
1631	1.6219e+02	-15.0557	-104.337755	0.000416	4.157123	1.408472	0.000166
1632	1.6228e+02	-15.0140	-104.152046	0.000466	4.664090	1.580236	0.000187
1633	1.6238e+02	-14.9771	-103.934041	0.000548	5.475236	1.855060	0.000219
1634	1.6248e+02	-14.9338	-103.744296	0.000477	4.765483	1.614589	0.000191
1635	1.6258e+02	-14.8937	-103.570699	0.000436	4.359910	1.477177	0.000174
1636	1.6268e+02	-14.8504	-103.348656	0.000558	5.576629	1.889413	0.000223
1637	1.6278e+02	-14.8119	-103.171022	0.000446	4.461303	1.511530	0.000179
1638	1.6288e+02	-14.7862	-102.985314	0.000466	4.664090	1.580236	0.000187
1639	1.6298e+02	-14.7397	-102.779420	0.000517	5.171056	1.752001	0.000207
1640	1.6308e+02	-14.6948	-102.626009	0.000385	3.852944	1.305413	0.000154
1641	1.6318e+02	-14.6611	-102.440301	0.000466	4.664090	1.580236	0.000187
1642	1.6328e+02	-14.6210	-102.194036	0.000618	6.184989	2.095531	0.000248
1643	1.6338e+02	-14.5761	-101.988142	0.000517	5.171056	1.752001	0.000207
1644	1.6348e+02	-14.5392	-101.810508	0.000446	4.461303	1.511530	0.000179
1645	1.6358e+02	-14.4958	-101.620762	0.000477	4.765483	1.614589	0.000191
1646	1.6368e+02	-14.4622	-101.426980	0.000487	4.866876	1.648942	0.000195
1647	1.6378e+02	-14.4204	-101.217049	0.000527	5.272449	1.786354	0.000211
1648	1.6388e+02	-14.3787	-101.035378	0.000456	4.562696	1.545883	0.000183
1649	1.6398e+02	-14.3434	-100.845632	0.000477	4.765483	1.614589	0.000191
1650	1.6408e+02	-14.2969	-100.631664	0.000537	5.373843	1.820707	0.000215
1651	1.6418e+02	-14.2616	-100.405584	0.000568	5.678022	1.923766	0.000227
1652	1.6427e+02	-14.2151	-100.211802	0.000487	4.866876	1.648942	0.000195
1653	1.6437e+02	-14.1734	-100.078576	0.000335	3.345977	1.133648	0.000134
1654	1.6447e+02	-14.1349	-99.868645	0.000527	5.272449	1.786354	0.000211
1655	1.6457e+02	-14.0948	-99.642566	0.000568	5.678022	1.923766	0.000227
1656	1.6467e+02	-14.0595	-99.440709	0.000507	5.069663	1.717648	0.000203
1657	1.6477e+02	-14.0162	-99.230778	0.000527	5.272449	1.786354	0.000211
1658	1.6487e+02	-13.9761	-99.012773	0.000548	5.475236	1.855060	0.000219
1659	1.6497e+02	-13.9328	-98.859361	0.000385	3.852944	1.305413	0.000154
1660	1.6507e+02	-13.9055	-98.661542	0.000497	4.968270	1.683295	0.000199
1661	1.6517e+02	-13.8574	-98.435462	0.000568	5.678022	1.923766	0.000227
1662	1.6527e+02	-13.8157	-98.233605	0.000507	5.069663	1.717648	0.000203
1663	1.6537e+02	-13.7804	-98.055971	0.000446	4.461303	1.511530	0.000179
1664	1.6547e+02	-13.7403	-97.825855	0.000578	5.779416	1.958119	0.000231
1665	1.6557e+02	-13.7001	-97.619961	0.000517	5.171056	1.752001	0.000207
1666	1.6567e+02	-13.6552	-97.410030	0.000527	5.272449	1.786354	0.000211
1667	1.6577e+02	-13.6215	-97.240470	0.000426	4.258517	1.442825	0.000170
1668	1.6587e+02	-13.5879	-97.030539	0.000527	5.272449	1.786354	0.000211
1669	1.6597e+02	-13.5397	-96.816571	0.000537	5.373843	1.820707	0.000215
1670	1.6607e+02	-13.4996	-96.638937	0.000446	4.461303	1.511530	0.000179
1671	1.6616e+02	-13.4563	-96.388634	0.000629	6.286382	2.129884	0.000252
1672	1.6626e+02	-13.4130	-96.202926	0.000466	4.664090	1.580236	0.000187
1673	1.6636e+02	-13.3841	-96.033366	0.000426	4.258517	1.442825	0.000170
1674	1.6646e+02	-13.3296	-95.787101	0.000618	6.184989	2.095531	0.000248
1675	1.6656e+02	-13.2991	-95.597356	0.000477	4.765483	1.614589	0.000191
1676	1.6666e+02	-13.2574	-95.435870	0.000406	4.055730	1.374119	0.000162
1677	1.6676e+02	-13.2189	-95.225939	0.000527	5.272449	1.786354	0.000211
1678	1.6686e+02	-13.1836	-94.955451	0.000679	6.793348	2.301649	0.000272
1679	1.6696e+02	-13.1435	-94.793966	0.000406	4.055730	1.374119	0.000162
1680	1.6706e+02	-13.1034	-94.579998	0.000537	5.373843	1.820707	0.000215
1681	1.6716e+02	-13.0649	-94.410438	0.000426	4.258517	1.442825	0.000170
1682	1.6726e+02	-13.0200	-94.160135	0.000629	6.286382	2.129884	0.000252
1683	1.6736e+02	-12.9831	-93.986539	0.000436	4.359910	1.477177	0.000174
1684	1.6746e+02	-12.9494	-93.752385	0.000588	5.880809	1.992472	0.000235
1685	1.6756e+02	-12.9077	-93.550528	0.000507	5.069663	1.717648	0.000203
1686	1.6766e+02	-12.8611	-93.344634	0.000517	5.171056	1.752001	0.000207
1687	1.6776e+02	-12.8258	-93.122592	0.000558	5.576629	1.889413	0.000223
1688	1.6786e+02	-12.7841	-92.936883	0.000466	4.664090	1.580236	0.000187
1689	1.6796e+02	-12.7488	-92.739064	0.000497	4.968270	1.683295	0.000199
1690	1.6806e+02	-12.7087	-92.533170	0.000517	5.171056	1.752001	0.000207
1691	1.6816e+02	-12.6670	-92.303053	0.000578	5.779416	1.958119	0.000231
1692	1.6825e+02	-12.6237	-92.129456	0.000436	4.359910	1.477177	0.000174
1693	1.6835e+02	-12.5868	-91.911451	0.000548	5.475236	1.855060	0.000219
1694	1.6845e+02	-12.5419	-91.685371	0.000568	5.678022	1.923766	0.000227
1695	1.6855e+02	-12.5050	-91.491589	0.000487	4.866876	1.648942	0.000195
1696	1.6865e+02	-12.4697	-91.261472	0.000578	5.779416	1.958119	0.000231
1697	1.6875e+02	-12.4184	-91.067689	0.000487	4.866876	1.648942	0.000195
1698	1.6885e+02	-12.3879	-90.857758	0.000527	5.272449	1.786354	0.000211
1699	1.6895e+02	-12.3414	-90.631679	0.000568	5.678022	1.923766	0.000227
1700	1.6905e+02	-12.3077	-90.425785	0.000517	5.171056	1.752001	0.000207
1701	1.6915e+02	-12.2628	-90.211817	0.000537	5.373843	1.820707	0.000215
1702	1.6925e+02	-12.2226	-90.038220	0.000436	4.359910	1.477177	0.000174
1703	1.6935e+02	-12.1954	-89.783880	0.000639	6.387775	2.164237	0.000256
1704	1.6945e+02	-12.1360	-89.626432	0.000395	3.954337	1.339766	0.000158
1705	1.6955e+02	-12.1039	-89.388241	0.000598	5.982202	2.026825	0.000239
1706	1.6965e+02	-12.0735	-89.186384	0.000507	5.069663	1.717648	0.000203
1707	1.6975e+02	-12.0334	-88.960305	0.000568	5.678022	1.923766	0.000227
1708	1.6985e+02	-11.9836	-88.701928	0.000649	6.489168	2.198590	0.000260
1709	1.6995e+02	-11.9515	-88.508145	0.000487	4.866876	1.648942	0.000195
1710	1.7005e+02	-11.9098	-88.298214	0.000527	5.272449	1.786354	0.000211
1711	1.7015e+02	-11.8681	-88.068098	0.000578	5.779416	1.958119	0.000231
1712	1.7024e+02	-11.8216	-87.894501	0.000436	4.359910	1.477177	0.000174
1713	1.7034e+02	-11.7911	-87.668421	0.000568	5.678022	1.923766	0.000227
1714	1.7044e+02	-11.7510	-87.410044	0.000649	6.489168	2.198590	0.000260
1715	1.7054e+02	-11.7093	-87.232410	0.000446	4.461303	1.511530	0.000179
1716	1.7064e+02	-11.6692	-87.002294	0.000578	5.779416	1.958119	0.000231
1717	1.7074e+02	-11.6339	-86.780251	0.000558	5.576629	1.889413	0.000223
1718	1.7084e+02	-11.5858	-86.550135	0.000578	5.779416	1.958119	0.000231
1719	1.7094e+02	-11.5392	-86.352315	0.000497	4.968270	1.683295	0.000199
1720	1.7104e+02	-11.5088	-86.158532	0.000487	4.866876	1.648942	0.000195
1721	1.7114e+02	-11.4671	-85.920341	0.000598	5.982202	2.026825	0.000239
1722	1.7124e+02	-11.4221	-85.686187	0.000588	5.880809	1.992472	0.000235
1723	1.7134e+02	-11.3949	-85.480294	0.000517	5.171056	1.752001	0.000207
1724	1.7144e+02	-11.3403	-85.282474	0.000497	4.968270	1.683295	0.000199
1725	1.7154e+02	-11.3211	-85.024097	0.000649	6.489168	2.198590	0.000260
1726	1.7164e+02	-11.2697	-84.806092	0.000548	5.475236	1.855060	0.000219
1727	1.7174e+02	-11.2377	-84.612309	0.000487	4.866876	1.648942	0.000195
1728	1.7184e+02	-11.1847	-84.406415	0.000517	5.171056	1.752001	0.000207
1729	1.7194e+02	-11.1574	-84.212633	0.000487	4.866876	1.648942	0.000195
1730	1.7204e+02	-11.1189	-83.966368	0.000618	6.184989	2.095531	0.000248
1731	1.7213e+02	-11.0740	-83.768548	0.000497	4.968270	1.683295	0.000199
1732	1.7223e+02	-11.0339	-83.534394	0.000588	5.880809	1.992472	0.000235
1733	1.7233e+02	-10.9938	-83.280055	0.000639	6.387775	2.164237	0.000256
1734	1.7243e+02	-10.9537	-83.114532	0.000416	4.157123	1.408472	0.000166
1735	1.7253e+02	-10.9056	-82.896527	0.000548	5.475236	1.855060	0.000219
1736	1.7263e+02	-10.8719	-82.674484	0.000558	5.576629	1.889413	0.000223
1737	1.7273e+02	-10.8286	-82.460516	0.000537	5.373843	1.820707	0.000215
1738	1.7283e+02	-10.7917	-82.214251	0.000618	6.184989	2.095531	0.000248
1739	1.7293e+02	-10.7564	-81.967985	0.000618	6.184989	2.095531	0.000248
1740	1.7303e+02	-10.7195	-81.754017	0.000537	5.373843	1.820707	0.000215
1741	1.7313e+02	-10.6730	-81.564272	0.000477	4.765483	1.614589	0.000191
1742	1.7323e+02	-10.6377	-81.334155	0.000578	5.779416	1.958119	0.000231
1743	1.7333e+02	-10.5911	-81.136335	0.000497	4.968270	1.683295	0.000199
1744	1.7343e+02	-10.5575	-80.910256	0.000568	5.678022	1.923766	0.000227
1745	1.7353e+02	-10.5157	-80.631694	0.000700	6.996135	2.370355	0.000280
1746	1.7363e+02	-10.4676	-80.433874	0.000497	4.968270	1.683295	0.000199
1747	1.7373e+02	-10.4275	-80.219906	0.000537	5.373843	1.820707	0.000215
1748	1.7383e+02	-10.4018	-79.961529	0.000649	6.489168	2.198590	0.000260
1749	1.7393e+02	-10.3505	-79.767746	0.000487	4.866876	1.648942	0.000195
1750	1.7403e+02	-10.3152	-79.586075	0.000456	4.562696	1.545883	0.000183
1751	1.7413e+02	-10.2719	-79.291364	0.000740	7.401708	2.507766	0.000296
1752	1.7422e+02	-10.2334	-79.069322	0.000558	5.576629	1.889413	0.000223
1753	1.7432e+02	-10.1933	-78.879577	0.000477	4.765483	1.614589	0.000191
1754	1.7442e+02	-10.1548	-78.653497	0.000568	5.678022	1.923766	0.000227
1755	1.7452e+02	-10.1099	-78.419343	0.000588	5.880809	1.992472	0.000235
1756	1.7462e+02	-10.0762	-78.185189	0.000588	5.880809	1.992472	0.000235
1757	1.7472e+02	-10.0329	-77.951035	0.000588	5.880809	1.992472	0.000235
1758	1.7482e+02	-9.9976	-77.700733	0.000629	6.286382	2.129884	0.000252
1759	1.7492e+02	-9.9559	-77.519062	0.000456	4.562696	1.545883	0.000183
1760	1.7502e+02	-9.9238	-77.244537	0.000689	6.894741	2.336002	0.000276
1761	1.7512e+02	-9.8773	-77.046717	0.000497	4.968270	1.683295	0.000199
1762	1.7522e+02	-9.8275	-76.869083	0.000446	4.461303	1.511530	0.000179
1763	1.7532e+02	-9.7970	-76.618781	0.000629	6.286382	2.129884	0.000252
1764	1.7542e+02	-9.7585	-76.404812	0.000537	5.373843	1.820707	0.000215
1765	1.7552e+02	-9.7152	-76.162584	0.000608	6.083595	2.061178	0.000243
1766	1.7562e+02	-9.6735	-75.900170	0.000659	6.590562	2.232943	0.000264
1767	1.7572e+02	-9.6382	-75.722536	0.000446	4.461303	1.511530	0.000179
1768	1.7582e+02	-9.5933	-75.472234	0.000629	6.286382	2.129884	0.000252
1769	1.7592e+02	-9.5580	-75.217895	0.000639	6.387775	2.164237	0.000256
1770	1.7602e+02	-9.5211	-75.012001	0.000517	5.171056	1.752001	0.000207
1771	1.7612e+02	-9.4746	-74.789958	0.000558	5.576629	1.889413	0.000223
1772	1.7621e+02	-9.4377	-74.559841	0.000578	5.779416	1.958119	0.000231
1773	1.7631e+02	-9.4040	-74.297428	0.000659	6.590562	2.232943	0.000264
1774	1.7641e+02	-9.3559	-74.075385	0.000558	5.576629	1.889413	0.000223
1775	1.7651e+02	-9.3174	-73.857380	0.000548	5.475236	1.855060	0.000219
1776	1.7661e+02	-9.2821	-73.607077	0.000629	6.286382	2.129884	0.000252
1777	1.7671e+02	-9.2436	-73.356775	0.000629	6.286382	2.129884	0.000252
1778	1.7681e+02	-9.1939	-73.171067	0.000466	4.664090	1.580236	0.000187
1779	1.7691e+02	-9.1554	-72.920764	0.000629	6.286382	2.129884	0.000252
1780	1.7701e+02	-9.1153	-72.682573	0.000598	5.982202	2.026825	0.000239
1781	1.7711e+02	-9.0767	-72.432271	0.000629	6.286382	2.129884	0.000252
1782	1.7721e+02	-9.0334	-72.173894	0.000649	6.489168	2.198590	0.000260
1783	1.7731e+02	-9.0014	-71.976075	0.000497	4.968270	1.683295	0.000199
1784	1.7741e+02	-8.9580	-71.745958	0.000578	5.779416	1.958119	0.000231
1785	1.7751e+02	-8.9147	-71.536027	0.000527	5.272449	1.786354	0.000211
1786	1.7761e+02	-8.8794	-71.289761	0.000618	6.184989	2.095531	0.000248
1787	1.7771e+02	-8.8281	-71.019273	0.000679	6.793348	2.301649	0.000272
1788	1.7781e+02	-8.7928	-70.809342	0.000527	5.272449	1.786354	0.000211
1789	1.7791e+02	-8.7575	-70.526743	0.000710	7.097528	2.404708	0.000284
1790	1.7801e+02	-8.7222	-70.320849	0.000517	5.171056	1.752001	0.000207
1791	1.7810e+02	-8.6725	-70.074584	0.000618	6.184989	2.095531	0.000248
1792	1.7820e+02	-8.6404	-69.840430	0.000588	5.880809	1.992472	0.000235
1793	1.7830e+02	-8.6019	-69.622424	0.000548	5.475236	1.855060	0.000219
1794	1.7840e+02	-8.5666	-69.388270	0.000588	5.880809	1.992472	0.000235
1795	1.7850e+02	-8.5153	-69.113745	0.000689	6.894741	2.336002	0.000276
1796	1.7860e+02	-8.4896	-68.915926	0.000497	4.968270	1.683295	0.000199
1797	1.7870e+02	-8.4447	-68.641400	0.000689	6.894741	2.336002	0.000276
1798	1.7880e+02	-8.4046	-68.423395	0.000548	5.475236	1.855060	0.000219
1799	1.7890e+02	-8.3629	-68.165018	0.000649	6.489168	2.198590	0.000260
1800	1.7900e+02	-8.3292	-67.959124	0.000517	5.171056	1.752001	0.000207
1801	1.7910e+02	-8.2810	-67.700748	0.000649	6.489168	2.198590	0.000260
1802	1.7920e+02	-8.2442	-67.478705	0.000558	5.576629	1.889413	0.000223
1803	1.7930e+02	-8.2008	-67.256663	0.000558	5.576629	1.889413	0.000223
1804	1.7940e+02	-8.1543	-66.998286	0.000649	6.489168	2.198590	0.000260
1805	1.7950e+02	-8.1238	-66.735872	0.000659	6.590562	2.232943	0.000264
1806	1.7960e+02	-8.0934	-66.542090	0.000487	4.866876	1.648942	0.000195
1807	1.7970e+02	-8.0420	-66.202970	0.000852	8.517033	2.885649	0.000341
1808	1.7980e+02	-8.0035	-66.049559	0.000385	3.852944	1.305413	0.000154
1809	1.7990e+02	-7.9650	-65.795220	0.000639	6.387775	2.164237	0.000256
1810	1.8000e+02	-7.9153	-65.548954	0.000618	6.184989	2.095531	0.000248
1811	1.8009e+02	-7.8800	-65.290578	0.000649	6.489168	2.198590	0.000260
1812	1.8019e+02	-7.8463	-65.048350	0.000608	6.083595	2.061178	0.000243
1813	1.8029e+02	-7.8014	-64.806121	0.000608	6.083595	2.061178	0.000243
1814	1.8039e+02	-7.7629	-64.563893	0.000608	6.083595	2.061178	0.000243
1815	1.8049e+02	-7.7228	-64.301479	0.000659	6.590562	2.232943	0.000264
1816	1.8059e+02	-7.6730	-64.079437	0.000558	5.576629	1.889413	0.000223
1817	1.8069e+02	-7.6442	-63.817023	0.000659	6.590562	2.232943	0.000264
1818	1.8079e+02	-7.5944	-63.586906	0.000578	5.779416	1.958119	0.000231
1819	1.8089e+02	-7.5591	-63.336604	0.000629	6.286382	2.129884	0.000252
1820	1.8099e+02	-7.5271	-63.086302	0.000629	6.286382	2.129884	0.000252
1821	1.8109e+02	-7.4854	-62.835999	0.000629	6.286382	2.129884	0.000252
1822	1.8119e+02	-7.4501	-62.626068	0.000527	5.272449	1.786354	0.000211
1823	1.8129e+02	-7.4132	-62.343469	0.000710	7.097528	2.404708	0.000284
1824	1.8139e+02	-7.3602	-62.072981	0.000679	6.793348	2.301649	0.000272
1825	1.8149e+02	-7.3185	-61.859012	0.000537	5.373843	1.820707	0.000215
1826	1.8159e+02	-7.2880	-61.576413	0.000710	7.097528	2.404708	0.000284
1827	1.8169e+02	-7.2479	-61.322073	0.000639	6.387775	2.164237	0.000256
1828	1.8179e+02	-7.2046	-61.104068	0.000548	5.475236	1.855060	0.000219
1829	1.8189e+02	-7.1709	-60.833580	0.000679	6.793348	2.301649	0.000272
1830	1.8199e+02	-7.1308	-60.567129	0.000669	6.691955	2.267296	0.000268
1831	1.8209e+02	-7.0827	-60.345086	0.000558	5.576629	1.889413	0.000223
1832	1.8218e+02	-7.0426	-60.106895	0.000598	5.982202	2.026825	0.000239
1833	1.8228e+02	-7.0073	-59.828333	0.000700	6.996135	2.370355	0.000280
1834	1.8238e+02	-6.9656	-59.553808	0.000689	6.894741	2.336002	0.000276
1835	1.8248e+02	-6.9239	-59.331765	0.000558	5.576629	1.889413	0.000223
1836	1.8258e+02	-6.8918	-59.028980	0.000760	7.604494	2.576472	0.000304
1837	1.8268e+02	-6.8437	-58.851346	0.000446	4.461303	1.511530	0.000179
1838	1.8278e+02	-6.7987	-58.609118	0.000608	6.083595	2.061178	0.000243
1839	1.8288e+02	-6.7618	-58.294221	0.000791	7.908674	2.679531	0.000316
1840	1.8298e+02	-6.7265	-58.088328	0.000517	5.171056	1.752001	0.000207
1841	1.8308e+02	-6.6913	-57.793617	0.000740	7.401708	2.507766	0.000296
1842	1.8318e+02	-6.6495	-57.575611	0.000548	5.475236	1.855060	0.000219
1843	1.8328e+02	-6.6014	-57.297049	0.000700	6.996135	2.370355	0.000280
1844	1.8338e+02	-6.5741	-57.046747	0.000629	6.286382	2.129884	0.000252
1845	1.8348e+02	-6.5276	-56.820667	0.000568	5.678022	1.923766	0.000227
1846	1.8358e+02	-6.4875	-56.534030	0.000720	7.198921	2.439061	0.000288
1847	1.8368e+02	-6.4538	-56.307951	0.000568	5.678022	1.923766	0.000227
1848	1.8378e+02	-6.4217	-56.081871	0.000568	5.678022	1.923766	0.000227
1849	1.8388e+02	-6.3784	-55.807346	0.000689	6.894741	2.336002	0.000276
1850	1.8398e+02	-6.3351	-55.548969	0.000649	6.489168	2.198590	0.000260
1851	1.8407e+02	-6.2934	-55.294630	0.000639	6.387775	2.164237	0.000256
1852	1.8417e+02	-6.2581	-55.060476	0.000588	5.880809	1.992472	0.000235
1853	1.8427e+02	-6.2036	-54.798062	0.000659	6.590562	2.232943	0.000264
1854	1.8437e+02	-6.1683	-54.515462	0.000710	7.097528	2.404708	0.000284
1855	1.8447e+02	-6.1330	-54.236900	0.000700	6.996135	2.370355	0.000280
1856	1.8457e+02	-6.0945	-54.026969	0.000527	5.272449	1.786354	0.000211
1857	1.8467e+02	-6.0496	-53.716110	0.000781	7.807281	2.645178	0.000312
1858	1.8477e+02	-6.0111	-53.473881	0.000608	6.083595	2.061178	0.000243
1859	1.8487e+02	-5.9710	-53.251839	0.000558	5.576629	1.889413	0.000223
1860	1.8497e+02	-5.9373	-52.953091	0.000750	7.503101	2.542119	0.000300
1861	1.8507e+02	-5.8940	-52.702788	0.000629	6.286382	2.129884	0.000252
1862	1.8517e+02	-5.8603	-52.448449	0.000639	6.387775	2.164237	0.000256
1863	1.8527e+02	-5.8105	-52.153738	0.000740	7.401708	2.507766	0.000296
1864	1.8537e+02	-5.7833	-51.919584	0.000588	5.880809	1.992472	0.000235
1865	1.8547e+02	-5.7399	-51.669282	0.000629	6.286382	2.129884	0.000252
1866	1.8557e+02	-5.6950	-51.439165	0.000578	5.779416	1.958119	0.000231
1867	1.8567e+02	-5.6533	-51.140417	0.000750	7.503101	2.542119	0.000300
1868	1.8577e+02	-5.6148	-50.873966	0.000669	6.691955	2.267296	0.000268
1869	1.8587e+02	-5.5795	-50.607515	0.000669	6.691955	2.267296	0.000268
1870	1.8597e+02	-5.5234	-50.332990	0.000689	6.894741	2.336002	0.000276
1871	1.8606e+02	-5.4993	-50.078650	0.000639	6.387775	2.164237	0.000256
1872	1.8616e+02	-5.4480	-49.796051	0.000710	7.097528	2.404708	0.000284
1873	1.8626e+02	-5.4207	-49.598231	0.000497	4.968270	1.683295	0.000199
1874	1.8636e+02	-5.3790	-49.315632	0.000710	7.097528	2.404708	0.000284
1875	1.8646e+02	-5.3357	-49.037069	0.000700	6.996135	2.370355	0.000280
1876	1.8656e+02	-5.2956	-48.774655	0.000659	6.590562	2.232943	0.000264
1877	1.8666e+02	-5.2555	-48.520316	0.000639	6.387775	2.164237	0.000256
1878	1.8676e+02	-5.2266	-48.229642	0.000730	7.300314	2.473413	0.000292
1879	1.8686e+02	-5.1833	-47.971265	0.000649	6.489168	2.198590	0.000260
1880	1.8696e+02	-5.1416	-47.733074	0.000598	5.982202	2.026825	0.000239
1881	1.8706e+02	-5.0950	-47.438363	0.000740	7.401708	2.507766	0.000296
1882	1.8716e+02	-5.0501	-47.167875	0.000679	6.793348	2.301649	0.000272
1883	1.8726e+02	-5.0148	-46.889313	0.000700	6.996135	2.370355	0.000280
1884	1.8736e+02	-4.9795	-46.634973	0.000639	6.387775	2.164237	0.000256
1885	1.8746e+02	-4.9442	-46.376597	0.000649	6.489168	2.198590	0.000260
1886	1.8756e+02	-4.8977	-46.089960	0.000720	7.198921	2.439061	0.000288
1887	1.8766e+02	-4.8592	-45.803324	0.000720	7.198921	2.439061	0.000288
1888	1.8776e+02	-4.8159	-45.561095	0.000608	6.083595	2.061178	0.000243
1889	1.8786e+02	-4.7774	-45.274459	0.000720	7.198921	2.439061	0.000288
1890	1.8796e+02	-4.7373	-45.008008	0.000669	6.691955	2.267296	0.000268
1891	1.8806e+02	-4.6924	-44.781928	0.000568	5.678022	1.923766	0.000227
1892	1.8815e+02	-4.6715	-44.430697	0.000882	8.821213	2.988708	0.000353
1893	1.8825e+02	-4.6170	-44.208655	0.000558	5.576629	1.889413	0.000223
1894	1.8835e+02	-4.5849	-43.897795	0.000781	7.807281	2.645178	0.000312
1895	1.8845e+02	-4.5384	-43.699976	0.000497	4.968270	1.683295	0.000199
1896	1.8855e+02	-4.4999	-43.401228	0.000750	7.503101	2.542119	0.000300
1897	1.8865e+02	-4.4534	-43.163037	0.000598	5.982202	2.026825	0.000239
1898	1.8875e+02	-4.4165	-42.864289	0.000750	7.503101	2.542119	0.000300
1899	1.8885e+02	-4.3763	-42.585726	0.000700	6.996135	2.370355	0.000280
1900	1.8895e+02	-4.3491	-42.307164	0.000700	6.996135	2.370355	0.000280
1901	1.8905e+02	-4.3058	-42.024564	0.000710	7.097528	2.404708	0.000284
1902	1.8915e+02	-4.2624	-41.774262	0.000629	6.286382	2.129884	0.000252
1903	1.8925e+02	-4.2255	-41.503774	0.000679	6.793348	2.301649	0.000272
1904	1.8935e+02	-4.1854	-41.277694	0.000568	5.678022	1.923766	0.000227
1905	1.8945e+02	-4.1373	-40.946649	0.000831	8.314247	2.816943	0.000333
1906	1.8955e+02	-4.1052	-40.672124	0.000689	6.894741	2.336002	0.000276
1907	1.8965e+02	-4.0651	-40.409710	0.000659	6.590562	2.232943	0.000264
1908	1.8975e+02	-4.0282	-40.139222	0.000679	6.793348	2.301649	0.000272
1909	1.8985e+02	-3.9769	-39.901031	0.000598	5.982202	2.026825	0.000239
1910	1.8995e+02	-3.9400	-39.638617	0.000659	6.590562	2.232943	0.000264
1911	1.9004e+02	-3.9047	-39.339869	0.000750	7.503101	2.542119	0.000300
1912	1.9014e+02	-3.8646	-39.012861	0.000821	8.212854	2.782590	0.000329
1913	1.9024e+02	-3.8197	-38.770633	0.000608	6.083595	2.061178	0.000243
1914	1.9034e+02	-3.7812	-38.483996	0.000720	7.198921	2.439061	0.000288
1915	1.9044e+02	-3.7363	-38.257917	0.000568	5.678022	1.923766	0.000227
1916	1.9054e+02	-3.6994	-37.934946	0.000811	8.111460	2.748237	0.000325
1917	1.9064e+02	-3.6609	-37.729052	0.000517	5.171056	1.752001	0.000207
1918	1.9074e+02	-3.6191	-37.410118	0.000801	8.010067	2.713884	0.000321
1919	1.9084e+02	-3.5823	-37.135593	0.000689	6.894741	2.336002	0.000276
1920	1.9094e+02	-3.5502	-36.844919	0.000730	7.300314	2.473413	0.000292
1921	1.9104e+02	-3.5004	-36.554246	0.000730	7.300314	2.473413	0.000292
1922	1.9114e+02	-3.4491	-36.243386	0.000781	7.807281	2.645178	0.000312
1923	1.9124e+02	-3.4138	-36.045566	0.000497	4.968270	1.683295	0.000199
1924	1.9134e+02	-3.3785	-35.682224	0.000913	9.125393	3.091767	0.000365
1925	1.9144e+02	-3.3368	-35.435959	0.000618	6.184989	2.095531	0.000248
1926	1.9154e+02	-3.3047	-35.177582	0.000649	6.489168	2.198590	0.000260
1927	1.9164e+02	-3.2646	-34.903057	0.000689	6.894741	2.336002	0.000276
1928	1.9174e+02	-3.2309	-34.616420	0.000720	7.198921	2.439061	0.000288
1929	1.9184e+02	-3.1908	-34.362081	0.000639	6.387775	2.164237	0.000256
1930	1.9194e+02	-3.1443	-34.079481	0.000710	7.097528	2.404708	0.000284
1931	1.9203e+02	-3.1074	-33.821105	0.000649	6.489168	2.198590	0.000260
1932	1.9213e+02	-3.0625	-33.486022	0.000842	8.415640	2.851296	0.000337
1933	1.9223e+02	-3.0240	-33.239757	0.000618	6.184989	2.095531	0.000248
1934	1.9233e+02	-2.9807	-32.916786	0.000811	8.111460	2.748237	0.000325
1935	1.9243e+02	-2.9438	-32.666484	0.000629	6.286382	2.129884	0.000252
1936	1.9253e+02	-2.9101	-32.412144	0.000639	6.387775	2.164237	0.000256
1937	1.9263e+02	-2.8587	-32.048802	0.000913	9.125393	3.091767	0.000365
1938	1.9273e+02	-2.8170	-31.830797	0.000548	5.475236	1.855060	0.000219
1939	1.9283e+02	-2.7882	-31.532049	0.000750	7.503101	2.542119	0.000300
1940	1.9293e+02	-2.7448	-31.265598	0.000669	6.691955	2.267296	0.000268
1941	1.9303e+02	-2.6999	-30.950701	0.000791	7.908674	2.679531	0.000316
1942	1.9313e+02	-2.6727	-30.668102	0.000710	7.097528	2.404708	0.000284
1943	1.9323e+02	-2.6325	-30.365316	0.000760	7.604494	2.576472	0.000304
1944	1.9333e+02	-2.5844	-30.106940	0.000649	6.489168	2.198590	0.000260
1945	1.9343e+02	-2.5491	-29.828377	0.000700	6.996135	2.370355	0.000280
1946	1.9353e+02	-2.4994	-29.509444	0.000801	8.010067	2.713884	0.000321
1947	1.9363e+02	-2.4705	-29.263178	0.000618	6.184989	2.095531	0.000248
1948	1.9373e+02	-2.4400	-28.992690	0.000679	6.793348	2.301649	0.000272
1949	1.9383e+02	-2.3807	-28.661645	0.000831	8.314247	2.816943	0.000333
1950	1.9393e+02	-2.3502	-28.358860	0.000760	7.604494	2.576472	0.000304
1951	1.9403e+02	-2.3101	-28.116632	0.000608	6.083595	2.061178	0.000243
1952	1.9412e+02	-2.2780	-27.813847	0.000760	7.604494	2.576472	0.000304
1953	1.9422e+02	-2.2267	-27.515099	0.000750	7.503101	2.542119	0.000300
1954	1.9432e+02	-2.1898	-27.228462	0.000720	7.198921	2.439061	0.000288
1955	1.9442e+02	-2.1545	-26.957974	0.000679	6.793348	2.301649	0.000272
1956	1.9452e+02	-2.1144	-26.659226	0.000750	7.503101	2.542119	0.000300
1957	1.9462e+02	-2.0582	-26.384701	0.000689	6.894741	2.336002	0.000276
1958	1.9472e+02	-2.0261	-26.114213	0.000679	6.793348	2.301649	0.000272
1959	1.9482e+02	-1.9892	-25.791242	0.000811	8.111460	2.748237	0.000325
1960	1.9492e+02	-1.9475	-25.500568	0.000730	7.300314	2.473413	0.000292
1961	1.9502e+02	-1.9090	-25.222006	0.000700	6.996135	2.370355	0.000280
1962	1.9512e+02	-1.8753	-24.927295	0.000740	7.401708	2.507766	0.000296
1963	1.9522e+02	-1.8368	-24.656807	0.000679	6.793348	2.301649	0.000272
1964	1.9532e+02	-1.7823	-24.329799	0.000821	8.212854	2.782590	0.000329
1965	1.9542e+02	-1.7470	-24.071422	0.000649	6.489168	2.198590	0.000260
1966	1.9552e+02	-1.7085	-23.792859	0.000700	6.996135	2.370355	0.000280
1967	1.9562e+02	-1.6716	-23.486037	0.000771	7.705887	2.610825	0.000308
1968	1.9572e+02	-1.6251	-23.199401	0.000720	7.198921	2.439061	0.000288
1969	1.9582e+02	-1.5882	-22.864318	0.000842	8.415640	2.851296	0.000337
1970	1.9592e+02	-1.5609	-22.622090	0.000608	6.083595	2.061178	0.000243
1971	1.9601e+02	-1.5064	-22.339491	0.000710	7.097528	2.404708	0.000284
1972	1.9611e+02	-1.4711	-22.024594	0.000791	7.908674	2.679531	0.000316
1973	1.9621e+02	-1.4262	-21.729883	0.000740	7.401708	2.507766	0.000296
1974	1.9631e+02	-1.3893	-21.467469	0.000659	6.590562	2.232943	0.000264
1975	1.9641e+02	-1.3524	-21.136424	0.000831	8.314247	2.816943	0.000333
1976	1.9651e+02	-1.3058	-20.837676	0.000750	7.503101	2.542119	0.000300
1977	1.9661e+02	-1.2738	-20.542965	0.000740	7.401708	2.507766	0.000296
1978	1.9671e+02	-1.2224	-20.292663	0.000629	6.286382	2.129884	0.000252
1979	1.9681e+02	-1.1903	-19.997952	0.000740	7.401708	2.507766	0.000296
1980	1.9691e+02	-1.1534	-19.646721	0.000882	8.821213	2.988708	0.000353
1981	1.9701e+02	-1.1085	-19.420641	0.000568	5.678022	1.923766	0.000227
1982	1.9711e+02	-1.0700	-19.125931	0.000740	7.401708	2.507766	0.000296
1983	1.9721e+02	-1.0428	-18.815071	0.000781	7.807281	2.645178	0.000312
1984	1.9731e+02	-0.9962	-18.528434	0.000720	7.198921	2.439061	0.000288
1985	1.9741e+02	-0.9609	-18.169129	0.000902	9.024000	3.057414	0.000361
1986	1.9751e+02	-0.9128	-17.890567	0.000700	6.996135	2.370355	0.000280
1987	1.9761e+02	-0.8679	-17.587782	0.000760	7.604494	2.576472	0.000304
1988	1.9771e+02	-0.8310	-17.293071	0.000740	7.401708	2.507766	0.000296
1989	1.9781e+02	-0.7893	-16.986249	0.000771	7.705887	2.610825	0.000308
1990	1.9791e+02	-0.7492	-16.703649	0.000710	7.097528	2.404708	0.000284
1991	1.9800e+02	-0.6994	-16.388753	0.000791	7.908674	2.679531	0.000316
1992	1.9810e+02	-0.6786	-16.085967	0.000760	7.604494	2.576472	0.000304
1993	1.9820e+02	-0.6417	-15.815479	0.000679	6.793348	2.301649	0.000272
1994	1.9830e+02	-0.5888	-15.496546	0.000801	8.010067	2.713884	0.000321
1995	1.9840e+02	-0.5567	-15.205872	0.000730	7.300314	2.473413	0.000292
1996	1.9850e+02	-0.5214	-14.890975	0.000791	7.908674	2.679531	0.000316
1997	1.9860e+02	-0.4700	-14.596264	0.000740	7.401708	2.507766	0.000296
1998	1.9870e+02	-0.4235	-14.317702	0.000700	6.996135	2.370355	0.000280
1999	1.9880e+02	-0.3946	-13.982620	0.000842	8.415640	2.851296	0.000337
2000	1.9890e+02	-0.3577	-13.691946	0.000730	7.300314	2.473413	0.000292
2001	1.9900e+02	-0.3225	-13.381086	0.000781	7.807281	2.645178	0.000312
2002	1.9910e+02	-0.2679	-13.142895	0.000598	5.982202	2.026825	0.000239
2003	1.9920e+02	-0.2454	-12.799739	0.000862	8.618427	2.920002	0.000345
2004	1.9930e+02	-0.2005	-12.533288	0.000669	6.691955	2.267296	0.000268
2005	1.9940e+02	-0.1636	-12.206280	0.000821	8.212854	2.782590	0.000329
2006	1.9950e+02	-0.1123	-11.907532	0.000750	7.503101	2.542119	0.000300
2007	1.9960e+02	-0.0738	-11.568412	0.000852	8.517033	2.885649	0.000341
2008	1.9970e+02	-0.0417	-11.297924	0.000679	6.793348	2.301649	0.000272
2009	1.9980e+02	0.0016	-11.027436	0.000679	6.793348	2.301649	0.000272

PMax (uC/cm2):	1.47e+02
Pr (uC/cm2):	3.02e+01
-Pr (uC/cm2):	1.22e+01
PLoss (uC/cm2):	1.22e+01
Vc:	-1.62e+00
-Vc:	-4.03e+00
C (Max-Eff) (nF):	7.37e-01
K (Eff):	2.50e+03
Vert. (+/-Pr) Shift (uC/cm2):	2.12e+01
Horiz. Shift (+/-Vc):	-2.83e+00
Offset (uC/cm2):	2.32e+01

A (Loop Area - uC/cm2·Volts):	-9.19e-01



Hysteresis Version: 5.48.1 - Radiant Technologies, Inc., 1999 - 9/12/24

