»»»»»»»»»»»»»»»»»»»»»»»»»»»»»»»»»»»» Hysteresis ««««««««««««««««««««««««««««««««««««
»»»  Executed Version:	5.48.1
»»»  Vision Version:	5.48.4 (R)
»»»  Vision Compiled:	9/18/24
»»»  Driver Version:	5.47.0
»»»  Windows Version:	Windows 8 or 8.1
»»»  Processor Information:	x86 (AMD or Intel) - 32 Processors
»»»  Tester Name:	PMF21124-494 (100V)
»»»  Tester S/N:	PMF21124-494
»»»  Internal Amp Type:	100V RevK 270k
»»»  Internal Amp S/N:	iAB2-596/K     
»»»  Execution Count:	1
»»»»»»»»»»»»»»»»»»»»»»»»»»»»»»»»»»»»»»»»»»««««««««««««««««««««««««««««««««««««««««««

Stored:	6/18/2025 - 14:53:56
Configured:	06/18/25 09:47:30 AM
Executed:	06/18/25 02:53:23 PM

»»»»»»»»»»»»»»»»»»»»»»»»»»»»»»»»»»» Sample Info ««««««««««««««««««««««««««««««««««««
Sample Name:	
Lot Name:	
Wafer Name:	
Die Row/Column:	0/0
Capacitor Number:	0
Sample Area (cm2):	1.00e-04
Sample Thickness (microns):	3.00e-01

Amplifier:	Internal

»»»»»»»»»»»»»»»»»»»»»»»»»»»»»»»»»»» Tester Info «««««««««««««««««««««««««««««««««««
Tester Name:	PMF21124-494 (100V)
Tester Serial Number:	PMF21124-494
Return Signal Amp. Level:	0.19 [Index: 3]

»»»»»»»»»»»»»»»»»»»»»»»»»»»»»»»» Hysteresis Info ««««««««««««««««««««««««««««««««««
Task Name:	Hyst-554
Volts:	20.00
Field:	666.67 (kV/cm)
DCBias:	0.00
DCField:	0.00 (kV/cm)
Hysteresis Period (ms):	2.00e+02
Preset:	Enabled
Preset Delay (ms):	1.00e+03
Profile:	Standard Bipolar

»»»»»»»»»»»»»»»»»»»»»»»»»»»»»»»»»»»»»» Data «««««««««««««««««««««««««««««««««««««««
Points:	2009

Valid Data

Point	Time (ms)	Drive Voltage	Measured Polarization (uC/cm2)	Capacitance (uF)	Normalized Capacitance (uF/cm2)	Dielectric Constant	Instantaneous Current (mA)
   1	0.0000e+00	0.0048	-4.909157	0.000254	2.535086	0.858910	0.000101
   2	9.9500e-02	0.0353	-4.808229	0.000254	2.535086	0.858910	0.000101
   3	1.9900e-01	0.0722	-4.727486	0.000203	2.028069	0.687128	0.000081
   4	2.9850e-01	0.1187	-4.553889	0.000436	4.360347	1.477326	0.000174
   5	3.9800e-01	0.1540	-4.481221	0.000183	1.825262	0.618415	0.000073
   6	4.9750e-01	0.1909	-4.335884	0.000365	3.650523	1.236831	0.000146
   7	5.9700e-01	0.2390	-4.190547	0.000365	3.650523	1.236831	0.000146
   8	6.9650e-01	0.2856	-4.057321	0.000335	3.346313	1.133762	0.000134
   9	7.9600e-01	0.3144	-3.932170	0.000314	3.143506	1.065049	0.000126
  10	8.9550e-01	0.3513	-3.811056	0.000304	3.042103	1.030692	0.000122
  11	9.9500e-01	0.3995	-3.730313	0.000203	2.028069	0.687128	0.000081
  12	1.0945e+00	0.4331	-3.589014	0.000355	3.549120	1.202474	0.000142
  13	1.1940e+00	0.4797	-3.439640	0.000375	3.751927	1.271187	0.000150
  14	1.2935e+00	0.5182	-3.314488	0.000314	3.143506	1.065049	0.000126
  15	1.3930e+00	0.5583	-3.161077	0.000385	3.853330	1.305544	0.000154
  16	1.4925e+00	0.6000	-3.035926	0.000314	3.143506	1.065049	0.000126
  17	1.5920e+00	0.6257	-2.894626	0.000355	3.549120	1.202474	0.000142
  18	1.6915e+00	0.6786	-2.773512	0.000304	3.042103	1.030692	0.000122
  19	1.7910e+00	0.7043	-2.648361	0.000314	3.143506	1.065049	0.000126
  20	1.8905e+00	0.7508	-2.511098	0.000345	3.447717	1.168118	0.000138
  21	1.9900e+00	0.7925	-2.385947	0.000314	3.143506	1.065049	0.000126
  22	2.0895e+00	0.8342	-2.256759	0.000324	3.244910	1.099405	0.000130
  23	2.1890e+00	0.8695	-2.155830	0.000254	2.535086	0.858910	0.000101
  24	2.2885e+00	0.9032	-2.014531	0.000355	3.549120	1.202474	0.000142
  25	2.3880e+00	0.9497	-1.857082	0.000395	3.954734	1.339900	0.000158
  26	2.4875e+00	0.9978	-1.748080	0.000274	2.737893	0.927623	0.000110
  27	2.5870e+00	1.0395	-1.651189	0.000243	2.433682	0.824554	0.000097
  28	2.6865e+00	1.0764	-1.505852	0.000365	3.650523	1.236831	0.000146
  29	2.7860e+00	1.1069	-1.384738	0.000304	3.042103	1.030692	0.000122
  30	2.8855e+00	1.1454	-1.194992	0.000477	4.765961	1.614751	0.000191
  31	2.9850e+00	1.2064	-1.073878	0.000304	3.042103	1.030692	0.000122
  32	3.0845e+00	1.2321	-0.944690	0.000324	3.244910	1.099405	0.000130
  33	3.1840e+00	1.2738	-0.831650	0.000284	2.839296	0.961980	0.000114
  34	3.2835e+00	1.3171	-0.702462	0.000324	3.244910	1.099405	0.000130
  35	3.3830e+00	1.3460	-0.569236	0.000335	3.346313	1.133762	0.000134
  36	3.4825e+00	1.3925	-0.407751	0.000406	4.056137	1.374256	0.000162
  37	3.5820e+00	1.4310	-0.262414	0.000365	3.650523	1.236831	0.000146
  38	3.6815e+00	1.4743	-0.161485	0.000254	2.535086	0.858910	0.000101
  39	3.7810e+00	1.5128	0.008074	0.000426	4.258944	1.442969	0.000170
  40	3.8805e+00	1.5545	0.157448	0.000375	3.751927	1.271187	0.000150
  41	3.9800e+00	1.5818	0.209931	0.000132	1.318245	0.446633	0.000053
  42	4.0795e+00	1.6347	0.383528	0.000436	4.360347	1.477326	0.000174
  43	4.1790e+00	1.6668	0.516753	0.000335	3.346313	1.133762	0.000134
  44	4.2785e+00	1.7133	0.670165	0.000385	3.853330	1.305544	0.000154
  45	4.3780e+00	1.7550	0.815501	0.000365	3.650523	1.236831	0.000146
  46	4.4775e+00	1.7903	0.908356	0.000233	2.332279	0.790197	0.000093
  47	4.5770e+00	1.8368	1.041581	0.000335	3.346313	1.133762	0.000134
  48	4.6765e+00	1.8705	1.203066	0.000406	4.056137	1.374256	0.000162
  49	4.7760e+00	1.9074	1.352440	0.000375	3.751927	1.271187	0.000150
  50	4.8755e+00	1.9556	1.453369	0.000254	2.535086	0.858910	0.000101
  51	4.9750e+00	1.9876	1.562372	0.000274	2.737893	0.927623	0.000110
  52	5.0745e+00	2.0342	1.719820	0.000395	3.954734	1.339900	0.000158
  53	5.1740e+00	2.0759	1.909565	0.000477	4.765961	1.614751	0.000191
  54	5.2735e+00	2.1048	2.010494	0.000254	2.535086	0.858910	0.000101
  55	5.3730e+00	2.1497	2.155830	0.000365	3.650523	1.236831	0.000146
  56	5.4725e+00	2.1834	2.285019	0.000324	3.244910	1.099405	0.000130
  57	5.5720e+00	2.2299	2.394021	0.000274	2.737893	0.927623	0.000110
  58	5.6715e+00	2.2604	2.551470	0.000395	3.954734	1.339900	0.000158
  59	5.7710e+00	2.3149	2.700844	0.000375	3.751927	1.271187	0.000150
  60	5.8705e+00	2.3518	2.825995	0.000314	3.143506	1.065049	0.000126
  61	5.9700e+00	2.3919	2.943072	0.000294	2.940699	0.996336	0.000118
  62	6.0695e+00	2.4272	3.076297	0.000335	3.346313	1.133762	0.000134
  63	6.1690e+00	2.4769	3.193374	0.000294	2.940699	0.996336	0.000118
  64	6.2685e+00	2.5090	3.350823	0.000395	3.954734	1.339900	0.000158
  65	6.3680e+00	2.5475	3.516345	0.000416	4.157541	1.408613	0.000166
  66	6.4675e+00	2.5844	3.653608	0.000345	3.447717	1.168118	0.000138
  67	6.5670e+00	2.6261	3.766648	0.000284	2.839296	0.961980	0.000114
  68	6.6665e+00	2.6646	3.928133	0.000406	4.056137	1.374256	0.000162
  69	6.7660e+00	2.7095	4.029061	0.000254	2.535086	0.858910	0.000101
  70	6.8655e+00	2.7513	4.206695	0.000446	4.461751	1.511682	0.000179
  71	6.9650e+00	2.7914	4.307624	0.000254	2.535086	0.858910	0.000101
  72	7.0645e+00	2.8251	4.465072	0.000395	3.954734	1.339900	0.000158
  73	7.1640e+00	2.8684	4.598298	0.000335	3.346313	1.133762	0.000134
  74	7.2635e+00	2.9037	4.699226	0.000254	2.535086	0.858910	0.000101
  75	7.3630e+00	2.9390	4.888971	0.000477	4.765961	1.614751	0.000191
  76	7.4625e+00	2.9855	5.026234	0.000345	3.447717	1.168118	0.000138
  77	7.5620e+00	3.0256	5.147348	0.000304	3.042103	1.030692	0.000122
  78	7.6615e+00	3.0609	5.288648	0.000355	3.549120	1.202474	0.000142
  79	7.7610e+00	3.0994	5.446096	0.000395	3.954734	1.339900	0.000158
  80	7.8605e+00	3.1443	5.571247	0.000314	3.143506	1.065049	0.000126
  81	7.9600e+00	3.1748	5.688324	0.000294	2.940699	0.996336	0.000118
  82	8.0595e+00	3.2245	5.829624	0.000355	3.549120	1.202474	0.000142
  83	8.1590e+00	3.2630	5.999184	0.000426	4.258944	1.442969	0.000170
  84	8.2585e+00	3.2983	6.079926	0.000203	2.028069	0.687128	0.000081
  85	8.3580e+00	3.3448	6.245449	0.000416	4.157541	1.408613	0.000166
  86	8.4575e+00	3.3849	6.358489	0.000284	2.839296	0.961980	0.000114
  87	8.5570e+00	3.4218	6.511900	0.000385	3.853330	1.305544	0.000154
  88	8.6565e+00	3.4555	6.637051	0.000314	3.143506	1.065049	0.000126
  89	8.7560e+00	3.5036	6.806611	0.000426	4.258944	1.442969	0.000170
  90	8.8555e+00	3.5421	6.887354	0.000203	2.028069	0.687128	0.000081
  91	8.9550e+00	3.5806	6.996356	0.000274	2.737893	0.927623	0.000110
  92	9.0545e+00	3.6304	7.169953	0.000436	4.360347	1.477326	0.000174
  93	9.1540e+00	3.6705	7.327401	0.000395	3.954734	1.339900	0.000158
  94	9.2535e+00	3.6978	7.440441	0.000284	2.839296	0.961980	0.000114
  95	9.3530e+00	3.7539	7.569630	0.000324	3.244910	1.099405	0.000130
  96	9.4525e+00	3.7812	7.727078	0.000395	3.954734	1.339900	0.000158
  97	9.5520e+00	3.8309	7.832043	0.000264	2.636489	0.893267	0.000105
  98	9.6515e+00	3.8614	7.981417	0.000375	3.751927	1.271187	0.000150
  99	9.7510e+00	3.8999	8.098494	0.000294	2.940699	0.996336	0.000118
 100	9.8505e+00	3.9384	8.259980	0.000406	4.056137	1.374256	0.000162
 101	9.9500e+00	3.9769	8.409354	0.000375	3.751927	1.271187	0.000150
 102	1.0050e+01	4.0186	8.538542	0.000324	3.244910	1.099405	0.000130
 103	1.0149e+01	4.0587	8.647545	0.000274	2.737893	0.927623	0.000110
 104	1.0248e+01	4.0956	8.800956	0.000385	3.853330	1.305544	0.000154
 105	1.0348e+01	4.1341	8.978590	0.000446	4.461751	1.511682	0.000179
 106	1.0447e+01	4.1838	9.083555	0.000264	2.636489	0.893267	0.000105
 107	1.0547e+01	4.2095	9.184484	0.000254	2.535086	0.858910	0.000101
 108	1.0646e+01	4.2576	9.333858	0.000375	3.751927	1.271187	0.000150
 109	1.0746e+01	4.3009	9.463046	0.000324	3.244910	1.099405	0.000130
 110	1.0845e+01	4.3346	9.640680	0.000446	4.461751	1.511682	0.000179
 111	1.0945e+01	4.3763	9.773906	0.000335	3.346313	1.133762	0.000134
 112	1.1044e+01	4.4148	9.903094	0.000324	3.244910	1.099405	0.000130
 113	1.1144e+01	4.4550	10.052468	0.000375	3.751927	1.271187	0.000150
 114	1.1243e+01	4.5047	10.177619	0.000314	3.143506	1.065049	0.000126
 115	1.1343e+01	4.5384	10.322956	0.000365	3.650523	1.236831	0.000146
 116	1.1443e+01	4.5817	10.427922	0.000264	2.636489	0.893267	0.000105
 117	1.1542e+01	4.6154	10.577296	0.000375	3.751927	1.271187	0.000150
 118	1.1642e+01	4.6603	10.686298	0.000274	2.737893	0.927623	0.000110
 119	1.1741e+01	4.6972	10.843747	0.000395	3.954734	1.339900	0.000158
 120	1.1841e+01	4.7437	10.985046	0.000355	3.549120	1.202474	0.000142
 121	1.1940e+01	4.7774	11.090012	0.000264	2.636489	0.893267	0.000105
 122	1.2040e+01	4.8159	11.223237	0.000335	3.346313	1.133762	0.000134
 123	1.2139e+01	4.8512	11.360500	0.000345	3.447717	1.168118	0.000138
 124	1.2239e+01	4.8945	11.493725	0.000335	3.346313	1.133762	0.000134
 125	1.2338e+01	4.9458	11.626951	0.000335	3.346313	1.133762	0.000134
 126	1.2438e+01	4.9747	11.792473	0.000416	4.157541	1.408613	0.000166
 127	1.2537e+01	5.0116	11.917625	0.000314	3.143506	1.065049	0.000126
 128	1.2636e+01	5.0533	12.030664	0.000284	2.839296	0.961980	0.000114
 129	1.2736e+01	5.0902	12.184076	0.000385	3.853330	1.305544	0.000154
 130	1.2835e+01	5.1448	12.313264	0.000324	3.244910	1.099405	0.000130
 131	1.2935e+01	5.1769	12.430341	0.000294	2.940699	0.996336	0.000118
 132	1.3034e+01	5.2202	12.591826	0.000406	4.056137	1.374256	0.000162
 133	1.3134e+01	5.2651	12.721015	0.000324	3.244910	1.099405	0.000130
 134	1.3233e+01	5.2940	12.862314	0.000355	3.549120	1.202474	0.000142
 135	1.3333e+01	5.3341	12.983429	0.000304	3.042103	1.030692	0.000122
 136	1.3432e+01	5.3726	13.132803	0.000375	3.751927	1.271187	0.000150
 137	1.3532e+01	5.4095	13.266028	0.000335	3.346313	1.133762	0.000134
 138	1.3632e+01	5.4592	13.387142	0.000304	3.042103	1.030692	0.000122
 139	1.3731e+01	5.4913	13.544590	0.000395	3.954734	1.339900	0.000158
 140	1.3831e+01	5.5346	13.645519	0.000254	2.535086	0.858910	0.000101
 141	1.3930e+01	5.5747	13.794893	0.000375	3.751927	1.271187	0.000150
 142	1.4030e+01	5.6068	13.968490	0.000436	4.360347	1.477326	0.000174
 143	1.4129e+01	5.6421	14.069418	0.000254	2.535086	0.858910	0.000101
 144	1.4229e+01	5.6934	14.198606	0.000324	3.244910	1.099405	0.000130
 145	1.4328e+01	5.7432	14.380277	0.000456	4.563154	1.546039	0.000183
 146	1.4428e+01	5.7833	14.469094	0.000223	2.230875	0.755841	0.000089
 147	1.4527e+01	5.8153	14.626543	0.000395	3.954734	1.339900	0.000158
 148	1.4627e+01	5.8538	14.755731	0.000324	3.244910	1.099405	0.000130
 149	1.4726e+01	5.8988	14.860697	0.000264	2.636489	0.893267	0.000105
 150	1.4825e+01	5.9341	15.038331	0.000446	4.461751	1.511682	0.000179
 151	1.4925e+01	5.9758	15.151370	0.000284	2.839296	0.961980	0.000114
 152	1.5024e+01	6.0046	15.276522	0.000314	3.143506	1.065049	0.000126
 153	1.5124e+01	6.0512	15.433970	0.000395	3.954734	1.339900	0.000158
 154	1.5223e+01	6.0945	15.579307	0.000365	3.650523	1.236831	0.000146
 155	1.5323e+01	6.1330	15.716569	0.000345	3.447717	1.168118	0.000138
 156	1.5422e+01	6.1747	15.833646	0.000294	2.940699	0.996336	0.000118
 157	1.5522e+01	6.2164	15.978983	0.000365	3.650523	1.236831	0.000146
 158	1.5621e+01	6.2533	16.140469	0.000406	4.056137	1.374256	0.000162
 159	1.5721e+01	6.2982	16.225249	0.000213	2.129472	0.721485	0.000085
 160	1.5820e+01	6.3415	16.366548	0.000355	3.549120	1.202474	0.000142
 161	1.5920e+01	6.3672	16.507848	0.000355	3.549120	1.202474	0.000142
 162	1.6020e+01	6.4089	16.673371	0.000416	4.157541	1.408613	0.000166
 163	1.6119e+01	6.4490	16.786410	0.000284	2.839296	0.961980	0.000114
 164	1.6218e+01	6.4843	16.923673	0.000345	3.447717	1.168118	0.000138
 165	1.6318e+01	6.5276	17.101307	0.000446	4.461751	1.511682	0.000179
 166	1.6418e+01	6.5693	17.149753	0.000122	1.216841	0.412277	0.000049
 167	1.6517e+01	6.6126	17.339498	0.000477	4.765961	1.614751	0.000191
 168	1.6616e+01	6.6511	17.460612	0.000304	3.042103	1.030692	0.000122
 169	1.6716e+01	6.7009	17.585763	0.000314	3.143506	1.065049	0.000126
 170	1.6816e+01	6.7346	17.775509	0.000477	4.765961	1.614751	0.000191
 171	1.6915e+01	6.7650	17.900660	0.000314	3.143506	1.065049	0.000126
 172	1.7015e+01	6.8084	18.017737	0.000294	2.940699	0.996336	0.000118
 173	1.7114e+01	6.8421	18.150962	0.000335	3.346313	1.133762	0.000134
 174	1.7213e+01	6.8902	18.288225	0.000345	3.447717	1.168118	0.000138
 175	1.7313e+01	6.9191	18.413376	0.000314	3.143506	1.065049	0.000126
 176	1.7413e+01	6.9720	18.570824	0.000395	3.954734	1.339900	0.000158
 177	1.7512e+01	7.0025	18.700013	0.000324	3.244910	1.099405	0.000130
 178	1.7611e+01	7.0490	18.821127	0.000304	3.042103	1.030692	0.000122
 179	1.7711e+01	7.0859	18.978575	0.000395	3.954734	1.339900	0.000158
 180	1.7811e+01	7.1308	19.107763	0.000324	3.244910	1.099405	0.000130
 181	1.7910e+01	7.1693	19.228878	0.000304	3.042103	1.030692	0.000122
 182	1.8009e+01	7.2062	19.394400	0.000416	4.157541	1.408613	0.000166
 183	1.8109e+01	7.2463	19.555886	0.000406	4.056137	1.374256	0.000162
 184	1.8209e+01	7.2880	19.689111	0.000335	3.346313	1.133762	0.000134
 185	1.8308e+01	7.3265	19.818299	0.000324	3.244910	1.099405	0.000130
 186	1.8407e+01	7.3731	19.947488	0.000324	3.244910	1.099405	0.000130
 187	1.8507e+01	7.4083	20.084750	0.000345	3.447717	1.168118	0.000138
 188	1.8607e+01	7.4436	20.222013	0.000345	3.447717	1.168118	0.000138
 189	1.8706e+01	7.4886	20.359276	0.000345	3.447717	1.168118	0.000138
 190	1.8805e+01	7.5255	20.488464	0.000324	3.244910	1.099405	0.000130
 191	1.8905e+01	7.5656	20.625726	0.000345	3.447717	1.168118	0.000138
 192	1.9005e+01	7.6105	20.779138	0.000385	3.853330	1.305544	0.000154
 193	1.9104e+01	7.6345	20.880066	0.000254	2.535086	0.858910	0.000101
 194	1.9203e+01	7.6843	21.033477	0.000385	3.853330	1.305544	0.000154
 195	1.9303e+01	7.7228	21.178814	0.000365	3.650523	1.236831	0.000146
 196	1.9402e+01	7.7645	21.303965	0.000314	3.143506	1.065049	0.000126
 197	1.9502e+01	7.8014	21.469488	0.000416	4.157541	1.408613	0.000166
 198	1.9602e+01	7.8479	21.578491	0.000274	2.737893	0.927623	0.000110
 199	1.9701e+01	7.8864	21.723827	0.000365	3.650523	1.236831	0.000146
 200	1.9800e+01	7.9217	21.877239	0.000385	3.853330	1.305544	0.000154
 201	1.9900e+01	7.9586	21.986241	0.000274	2.737893	0.927623	0.000110
 202	2.0000e+01	8.0083	22.163875	0.000446	4.461751	1.511682	0.000179
 203	2.0099e+01	8.0468	22.297101	0.000335	3.346313	1.133762	0.000134
 204	2.0198e+01	8.0789	22.410140	0.000284	2.839296	0.961980	0.000114
 205	2.0298e+01	8.1238	22.583737	0.000436	4.360347	1.477326	0.000174
 206	2.0398e+01	8.1591	22.708889	0.000314	3.143506	1.065049	0.000126
 207	2.0497e+01	8.2105	22.858263	0.000375	3.751927	1.271187	0.000150
 208	2.0596e+01	8.2393	22.971302	0.000284	2.839296	0.961980	0.000114
 209	2.0696e+01	8.2827	23.140862	0.000426	4.258944	1.442969	0.000170
 210	2.0796e+01	8.3340	23.237753	0.000243	2.433682	0.824554	0.000097
 211	2.0895e+01	8.3677	23.423462	0.000466	4.664558	1.580395	0.000187
 212	2.0994e+01	8.4014	23.548613	0.000314	3.143506	1.065049	0.000126
 213	2.1094e+01	8.4399	23.641467	0.000233	2.332279	0.790197	0.000093
 214	2.1194e+01	8.4832	23.839287	0.000497	4.968768	1.683464	0.000199
 215	2.1293e+01	8.5153	23.972512	0.000335	3.346313	1.133762	0.000134
 216	2.1392e+01	8.5570	24.097663	0.000314	3.143506	1.065049	0.000126
 217	2.1492e+01	8.5923	24.238963	0.000355	3.549120	1.202474	0.000142
 218	2.1591e+01	8.6468	24.368151	0.000324	3.244910	1.099405	0.000130
 219	2.1691e+01	8.6853	24.497340	0.000324	3.244910	1.099405	0.000130
 220	2.1791e+01	8.7270	24.650751	0.000385	3.853330	1.305544	0.000154
 221	2.1890e+01	8.7671	24.796088	0.000365	3.650523	1.236831	0.000146
 222	2.1989e+01	8.8024	24.888942	0.000233	2.332279	0.790197	0.000093
 223	2.2089e+01	8.8377	25.034279	0.000365	3.650523	1.236831	0.000146
 224	2.2189e+01	8.8794	25.191727	0.000395	3.954734	1.339900	0.000158
 225	2.2288e+01	8.9147	25.320915	0.000324	3.244910	1.099405	0.000130
 226	2.2387e+01	8.9548	25.433955	0.000284	2.839296	0.961980	0.000114
 227	2.2487e+01	9.0014	25.571218	0.000345	3.447717	1.168118	0.000138
 228	2.2587e+01	9.0431	25.740777	0.000426	4.258944	1.442969	0.000170
 229	2.2686e+01	9.0816	25.845743	0.000264	2.636489	0.893267	0.000105
 230	2.2785e+01	9.1104	25.995117	0.000375	3.751927	1.271187	0.000150
 231	2.2885e+01	9.1666	26.148528	0.000385	3.853330	1.305544	0.000154
 232	2.2985e+01	9.2003	26.257531	0.000274	2.737893	0.927623	0.000110
 233	2.3084e+01	9.2436	26.406905	0.000375	3.751927	1.271187	0.000150
 234	2.3183e+01	9.2837	26.580502	0.000436	4.360347	1.477326	0.000174
 235	2.3283e+01	9.3190	26.669319	0.000223	2.230875	0.755841	0.000089
 236	2.3383e+01	9.3543	26.814656	0.000365	3.650523	1.236831	0.000146
 237	2.3482e+01	9.3928	26.947881	0.000335	3.346313	1.133762	0.000134
 238	2.3581e+01	9.4377	27.093218	0.000365	3.650523	1.236831	0.000146
 239	2.3681e+01	9.4842	27.222406	0.000324	3.244910	1.099405	0.000130
 240	2.3780e+01	9.5195	27.327372	0.000264	2.636489	0.893267	0.000105
 241	2.3880e+01	9.5596	27.492894	0.000416	4.157541	1.408613	0.000166
 242	2.3980e+01	9.5965	27.614008	0.000304	3.042103	1.030692	0.000122
 243	2.4079e+01	9.6479	27.755308	0.000355	3.549120	1.202474	0.000142
 244	2.4178e+01	9.6799	27.896608	0.000355	3.549120	1.202474	0.000142
 245	2.4278e+01	9.7184	28.041945	0.000365	3.650523	1.236831	0.000146
 246	2.4378e+01	9.7650	28.171133	0.000324	3.244910	1.099405	0.000130
 247	2.4477e+01	9.8035	28.324544	0.000385	3.853330	1.305544	0.000154
 248	2.4576e+01	9.8323	28.421436	0.000243	2.433682	0.824554	0.000097
 249	2.4676e+01	9.8660	28.582921	0.000406	4.056137	1.374256	0.000162
 250	2.4776e+01	9.9158	28.667701	0.000213	2.129472	0.721485	0.000085
 251	2.4875e+01	9.9607	28.861483	0.000487	4.867365	1.649108	0.000195
 252	2.4974e+01	9.9992	28.966449	0.000264	2.636489	0.893267	0.000105
 253	2.5074e+01	10.0329	29.063340	0.000243	2.433682	0.824554	0.000097
 254	2.5174e+01	10.0746	29.249048	0.000466	4.664558	1.580395	0.000187
 255	2.5273e+01	10.1163	29.354014	0.000264	2.636489	0.893267	0.000105
 256	2.5372e+01	10.1532	29.471091	0.000294	2.940699	0.996336	0.000118
 257	2.5472e+01	10.2013	29.620465	0.000375	3.751927	1.271187	0.000150
 258	2.5572e+01	10.2350	29.761765	0.000355	3.549120	1.202474	0.000142
 259	2.5671e+01	10.2655	29.939399	0.000446	4.461751	1.511682	0.000179
 260	2.5770e+01	10.3184	30.012067	0.000183	1.825262	0.618415	0.000073
 261	2.5870e+01	10.3553	30.096847	0.000213	2.129472	0.721485	0.000085
 262	2.5970e+01	10.4002	30.310815	0.000537	5.374382	1.820890	0.000215
 263	2.6069e+01	10.4403	30.391558	0.000203	2.028069	0.687128	0.000081
 264	2.6169e+01	10.4756	30.532858	0.000355	3.549120	1.202474	0.000142
 265	2.6268e+01	10.5174	30.670120	0.000345	3.447717	1.168118	0.000138
 266	2.6367e+01	10.5591	30.811420	0.000355	3.549120	1.202474	0.000142
 267	2.6467e+01	10.5927	30.956757	0.000365	3.650523	1.236831	0.000146
 268	2.6567e+01	10.6280	31.098057	0.000355	3.549120	1.202474	0.000142
 269	2.6666e+01	10.6778	31.198985	0.000254	2.535086	0.858910	0.000101
 270	2.6765e+01	10.7179	31.299913	0.000254	2.535086	0.858910	0.000101
 271	2.6865e+01	10.7580	31.465436	0.000416	4.157541	1.408613	0.000166
 272	2.6965e+01	10.7949	31.614810	0.000375	3.751927	1.271187	0.000150
 273	2.7064e+01	10.8366	31.735924	0.000304	3.042103	1.030692	0.000122
 274	2.7163e+01	10.8687	31.861075	0.000314	3.143506	1.065049	0.000126
 275	2.7263e+01	10.9168	31.998338	0.000345	3.447717	1.168118	0.000138
 276	2.7363e+01	10.9521	32.115415	0.000294	2.940699	0.996336	0.000118
 277	2.7462e+01	10.9954	32.284974	0.000426	4.258944	1.442969	0.000170
 278	2.7561e+01	11.0371	32.385903	0.000254	2.535086	0.858910	0.000101
 279	2.7661e+01	11.0772	32.498943	0.000284	2.839296	0.961980	0.000114
 280	2.7761e+01	11.1189	32.616020	0.000294	2.940699	0.996336	0.000118
 281	2.7860e+01	11.1623	32.785579	0.000426	4.258944	1.442969	0.000170
 282	2.7959e+01	11.1959	32.862285	0.000193	1.926665	0.652772	0.000077
 283	2.8059e+01	11.2312	33.023770	0.000406	4.056137	1.374256	0.000162
 284	2.8159e+01	11.2649	33.148922	0.000314	3.143506	1.065049	0.000126
 285	2.8258e+01	11.3130	33.249850	0.000254	2.535086	0.858910	0.000101
 286	2.8358e+01	11.3499	33.403261	0.000385	3.853330	1.305544	0.000154
 287	2.8457e+01	11.3884	33.524375	0.000304	3.042103	1.030692	0.000122
 288	2.8556e+01	11.4318	33.653564	0.000324	3.244910	1.099405	0.000130
 289	2.8656e+01	11.4719	33.802938	0.000375	3.751927	1.271187	0.000150
 290	2.8756e+01	11.5136	33.920014	0.000294	2.940699	0.996336	0.000118
 291	2.8855e+01	11.5585	34.016906	0.000243	2.433682	0.824554	0.000097
 292	2.8954e+01	11.5906	34.146094	0.000324	3.244910	1.099405	0.000130
 293	2.9054e+01	11.6275	34.291431	0.000365	3.650523	1.236831	0.000146
 294	2.9154e+01	11.6724	34.424656	0.000335	3.346313	1.133762	0.000134
 295	2.9253e+01	11.7173	34.541733	0.000294	2.940699	0.996336	0.000118
 296	2.9352e+01	11.7542	34.666885	0.000314	3.143506	1.065049	0.000126
 297	2.9452e+01	11.7847	34.796073	0.000324	3.244910	1.099405	0.000130
 298	2.9552e+01	11.8328	34.981781	0.000466	4.664558	1.580395	0.000187
 299	2.9651e+01	11.8729	35.066561	0.000213	2.129472	0.721485	0.000085
 300	2.9750e+01	11.9082	35.203824	0.000345	3.447717	1.168118	0.000138
 301	2.9850e+01	11.9531	35.328975	0.000314	3.143506	1.065049	0.000126
 302	2.9950e+01	11.9884	35.442015	0.000284	2.839296	0.961980	0.000114
 303	3.0049e+01	12.0205	35.579277	0.000345	3.447717	1.168118	0.000138
 304	3.0148e+01	12.0638	35.655983	0.000193	1.926665	0.652772	0.000077
 305	3.0248e+01	12.1184	35.825543	0.000426	4.258944	1.442969	0.000170
 306	3.0348e+01	12.1553	35.966842	0.000355	3.549120	1.202474	0.000142
 307	3.0447e+01	12.1825	36.087956	0.000304	3.042103	1.030692	0.000122
 308	3.0547e+01	12.2371	36.217145	0.000324	3.244910	1.099405	0.000130
 309	3.0646e+01	12.2740	36.378630	0.000406	4.056137	1.374256	0.000162
 310	3.0745e+01	12.3045	36.471484	0.000233	2.332279	0.790197	0.000093
 311	3.0845e+01	12.3494	36.580487	0.000274	2.737893	0.927623	0.000110
 312	3.0945e+01	12.3863	36.746009	0.000416	4.157541	1.408613	0.000166
 313	3.1044e+01	12.4328	36.830789	0.000213	2.129472	0.721485	0.000085
 314	3.1143e+01	12.4681	36.996312	0.000416	4.157541	1.408613	0.000166
 315	3.1243e+01	12.5066	37.121463	0.000314	3.143506	1.065049	0.000126
 316	3.1343e+01	12.5467	37.258726	0.000345	3.447717	1.168118	0.000138
 317	3.1442e+01	12.5900	37.351580	0.000233	2.332279	0.790197	0.000093
 318	3.1541e+01	12.6237	37.500954	0.000375	3.751927	1.271187	0.000150
 319	3.1641e+01	12.6622	37.638216	0.000345	3.447717	1.168118	0.000138
 320	3.1741e+01	12.7007	37.767405	0.000324	3.244910	1.099405	0.000130
 321	3.1840e+01	12.7504	37.872370	0.000264	2.636489	0.893267	0.000105
 322	3.1939e+01	12.7873	38.017707	0.000365	3.650523	1.236831	0.000146
 323	3.2039e+01	12.8307	38.110561	0.000233	2.332279	0.790197	0.000093
 324	3.2139e+01	12.8740	38.235713	0.000314	3.143506	1.065049	0.000126
 325	3.2238e+01	12.8996	38.377012	0.000355	3.549120	1.202474	0.000142
 326	3.2337e+01	12.9430	38.522349	0.000365	3.650523	1.236831	0.000146
 327	3.2437e+01	12.9750	38.627315	0.000264	2.636489	0.893267	0.000105
 328	3.2536e+01	13.0216	38.788800	0.000406	4.056137	1.374256	0.000162
 329	3.2636e+01	13.0585	38.901840	0.000284	2.839296	0.961980	0.000114
 330	3.2736e+01	13.1018	39.031028	0.000324	3.244910	1.099405	0.000130
 331	3.2835e+01	13.1387	39.160217	0.000324	3.244910	1.099405	0.000130
 332	3.2934e+01	13.1804	39.261145	0.000254	2.535086	0.858910	0.000101
 333	3.3034e+01	13.2221	39.458965	0.000497	4.968768	1.683464	0.000199
 334	3.3133e+01	13.2606	39.539707	0.000203	2.028069	0.687128	0.000081
 335	3.3233e+01	13.3023	39.648710	0.000274	2.737893	0.927623	0.000110
 336	3.3333e+01	13.3424	39.781936	0.000335	3.346313	1.133762	0.000134
 337	3.3432e+01	13.3809	39.947458	0.000416	4.157541	1.408613	0.000166
 338	3.3532e+01	13.4194	40.028201	0.000203	2.028069	0.687128	0.000081
 339	3.3631e+01	13.4547	40.173538	0.000365	3.650523	1.236831	0.000146
 340	3.3730e+01	13.4964	40.310800	0.000345	3.447717	1.168118	0.000138
 341	3.3830e+01	13.5269	40.472286	0.000406	4.056137	1.374256	0.000162
 342	3.3929e+01	13.5734	40.589363	0.000294	2.940699	0.996336	0.000118
 343	3.4029e+01	13.6231	40.694328	0.000264	2.636489	0.893267	0.000105
 344	3.4129e+01	13.6536	40.839665	0.000365	3.650523	1.236831	0.000146
 345	3.4228e+01	13.6953	40.976928	0.000345	3.447717	1.168118	0.000138
 346	3.4328e+01	13.7386	41.098042	0.000304	3.042103	1.030692	0.000122
 347	3.4427e+01	13.7868	41.267602	0.000426	4.258944	1.442969	0.000170
 348	3.4526e+01	13.8205	41.372567	0.000264	2.636489	0.893267	0.000105
 349	3.4626e+01	13.8526	41.489644	0.000294	2.940699	0.996336	0.000118
 350	3.4725e+01	13.8975	41.618832	0.000324	3.244910	1.099405	0.000130
 351	3.4825e+01	13.9424	41.743984	0.000314	3.143506	1.065049	0.000126
 352	3.4925e+01	13.9729	41.877209	0.000335	3.346313	1.133762	0.000134
 353	3.5024e+01	14.0226	42.079066	0.000507	5.070171	1.717821	0.000203
 354	3.5123e+01	14.0547	42.139623	0.000152	1.521051	0.515346	0.000061
 355	3.5223e+01	14.1012	42.272848	0.000335	3.346313	1.133762	0.000134
 356	3.5322e+01	14.1381	42.389925	0.000294	2.940699	0.996336	0.000118
 357	3.5422e+01	14.1846	42.511039	0.000304	3.042103	1.030692	0.000122
 358	3.5522e+01	14.2119	42.652339	0.000355	3.549120	1.202474	0.000142
 359	3.5621e+01	14.2504	42.825936	0.000436	4.360347	1.477326	0.000174
 360	3.5721e+01	14.3001	42.906679	0.000203	2.028069	0.687128	0.000081
 361	3.5820e+01	14.3418	43.076238	0.000426	4.258944	1.442969	0.000170
 362	3.5919e+01	14.3803	43.185241	0.000274	2.737893	0.927623	0.000110
 363	3.6019e+01	14.4188	43.326541	0.000355	3.549120	1.202474	0.000142
 364	3.6118e+01	14.4477	43.455729	0.000324	3.244910	1.099405	0.000130
 365	3.6218e+01	14.4958	43.556657	0.000254	2.535086	0.858910	0.000101
 366	3.6318e+01	14.5408	43.738329	0.000456	4.563154	1.546039	0.000183
 367	3.6417e+01	14.5712	43.827146	0.000223	2.230875	0.755841	0.000089
 368	3.6517e+01	14.6290	43.960371	0.000335	3.346313	1.133762	0.000134
 369	3.6616e+01	14.6547	44.061299	0.000254	2.535086	0.858910	0.000101
 370	3.6715e+01	14.6964	44.255082	0.000487	4.867365	1.649108	0.000195
 371	3.6815e+01	14.7461	44.360047	0.000264	2.636489	0.893267	0.000105
 372	3.6914e+01	14.7830	44.489236	0.000324	3.244910	1.099405	0.000130
 373	3.7014e+01	14.8215	44.614387	0.000314	3.143506	1.065049	0.000126
 374	3.7114e+01	14.8664	44.703204	0.000223	2.230875	0.755841	0.000089
 375	3.7213e+01	14.8953	44.868727	0.000416	4.157541	1.408613	0.000166
 376	3.7313e+01	14.9338	45.005989	0.000345	3.447717	1.168118	0.000138
 377	3.7412e+01	14.9803	45.155363	0.000375	3.751927	1.271187	0.000150
 378	3.7511e+01	15.0156	45.272440	0.000294	2.940699	0.996336	0.000118
 379	3.7611e+01	15.0621	45.397591	0.000314	3.143506	1.065049	0.000126
 380	3.7711e+01	15.0942	45.534854	0.000345	3.447717	1.168118	0.000138
 381	3.7810e+01	15.1359	45.655968	0.000304	3.042103	1.030692	0.000122
 382	3.7910e+01	15.1632	45.793231	0.000345	3.447717	1.168118	0.000138
 383	3.8009e+01	15.2210	45.942605	0.000375	3.751927	1.271187	0.000150
 384	3.8108e+01	15.2498	46.059682	0.000294	2.940699	0.996336	0.000118
 385	3.8208e+01	15.2899	46.192907	0.000335	3.346313	1.133762	0.000134
 386	3.8307e+01	15.3333	46.309984	0.000294	2.940699	0.996336	0.000118
 387	3.8407e+01	15.3653	46.451284	0.000355	3.549120	1.202474	0.000142
 388	3.8507e+01	15.4231	46.608732	0.000395	3.954734	1.339900	0.000158
 389	3.8606e+01	15.4568	46.689475	0.000203	2.028069	0.687128	0.000081
 390	3.8706e+01	15.4889	46.818663	0.000324	3.244910	1.099405	0.000130
 391	3.8805e+01	15.5306	46.980149	0.000406	4.056137	1.374256	0.000162
 392	3.8904e+01	15.5803	47.101263	0.000304	3.042103	1.030692	0.000122
 393	3.9004e+01	15.6124	47.214302	0.000284	2.839296	0.961980	0.000114
 394	3.9103e+01	15.6589	47.355602	0.000355	3.549120	1.202474	0.000142
 395	3.9203e+01	15.6894	47.504976	0.000375	3.751927	1.271187	0.000150
 396	3.9303e+01	15.7327	47.601867	0.000243	2.433682	0.824554	0.000097
 397	3.9402e+01	15.7712	47.731056	0.000324	3.244910	1.099405	0.000130
 398	3.9502e+01	15.8209	47.864281	0.000335	3.346313	1.133762	0.000134
 399	3.9601e+01	15.8498	48.025767	0.000406	4.056137	1.374256	0.000162
 400	3.9700e+01	15.8883	48.142844	0.000294	2.940699	0.996336	0.000118
 401	3.9800e+01	15.9268	48.263958	0.000304	3.042103	1.030692	0.000122
 402	3.9900e+01	15.9701	48.340663	0.000193	1.926665	0.652772	0.000077
 403	3.9999e+01	16.0151	48.502149	0.000406	4.056137	1.374256	0.000162
 404	4.0099e+01	16.0503	48.635374	0.000335	3.346313	1.133762	0.000134
 405	4.0198e+01	16.0937	48.756488	0.000304	3.042103	1.030692	0.000122
 406	4.0297e+01	16.1290	48.897788	0.000355	3.549120	1.202474	0.000142
 407	4.0397e+01	16.1771	49.051199	0.000385	3.853330	1.305544	0.000154
 408	4.0496e+01	16.2092	49.176350	0.000314	3.143506	1.065049	0.000126
 409	4.0596e+01	16.2445	49.277279	0.000254	2.535086	0.858910	0.000101
 410	4.0696e+01	16.2862	49.374170	0.000243	2.433682	0.824554	0.000097
 411	4.0795e+01	16.3343	49.507396	0.000335	3.346313	1.133762	0.000134
 412	4.0895e+01	16.3664	49.664844	0.000395	3.954734	1.339900	0.000158
 413	4.0994e+01	16.4113	49.802106	0.000345	3.447717	1.168118	0.000138
 414	4.1093e+01	16.4578	49.850552	0.000122	1.216841	0.412277	0.000049
 415	4.1193e+01	16.4787	50.024149	0.000436	4.360347	1.477326	0.000174
 416	4.1292e+01	16.5188	50.133152	0.000274	2.737893	0.927623	0.000110
 417	4.1392e+01	16.5637	50.298674	0.000416	4.157541	1.408613	0.000166
 418	4.1492e+01	16.5990	50.435937	0.000345	3.447717	1.168118	0.000138
 419	4.1591e+01	16.6503	50.536865	0.000254	2.535086	0.858910	0.000101
 420	4.1691e+01	16.6904	50.674128	0.000345	3.447717	1.168118	0.000138
 421	4.1790e+01	16.7273	50.771019	0.000243	2.433682	0.824554	0.000097
 422	4.1889e+01	16.7690	50.948653	0.000446	4.461751	1.511682	0.000179
 423	4.1989e+01	16.7979	51.033433	0.000213	2.129472	0.721485	0.000085
 424	4.2089e+01	16.8525	51.114176	0.000203	2.028069	0.687128	0.000081
 425	4.2188e+01	16.8797	51.263550	0.000375	3.751927	1.271187	0.000150
 426	4.2288e+01	16.9295	51.388701	0.000314	3.143506	1.065049	0.000126
 427	4.2387e+01	16.9728	51.509815	0.000304	3.042103	1.030692	0.000122
 428	4.2486e+01	17.0065	51.630929	0.000304	3.042103	1.030692	0.000122
 429	4.2586e+01	17.0498	51.776266	0.000365	3.650523	1.236831	0.000146
 430	4.2685e+01	17.0851	51.865083	0.000223	2.230875	0.755841	0.000089
 431	4.2785e+01	17.1236	51.998308	0.000335	3.346313	1.133762	0.000134
 432	4.2885e+01	17.1685	52.151719	0.000385	3.853330	1.305544	0.000154
 433	4.2984e+01	17.2038	52.248611	0.000243	2.433682	0.824554	0.000097
 434	4.3084e+01	17.2519	52.389910	0.000355	3.549120	1.202474	0.000142
 435	4.3183e+01	17.2872	52.519099	0.000324	3.244910	1.099405	0.000130
 436	4.3282e+01	17.3289	52.644250	0.000314	3.143506	1.065049	0.000126
 437	4.3382e+01	17.3674	52.737104	0.000233	2.332279	0.790197	0.000093
 438	4.3481e+01	17.4075	52.870330	0.000335	3.346313	1.133762	0.000134
 439	4.3581e+01	17.4541	52.983369	0.000284	2.839296	0.961980	0.000114
 440	4.3681e+01	17.4942	53.112558	0.000324	3.244910	1.099405	0.000130
 441	4.3780e+01	17.5327	53.217523	0.000264	2.636489	0.893267	0.000105
 442	4.3880e+01	17.5567	53.342675	0.000314	3.143506	1.065049	0.000126
 443	4.3979e+01	17.6113	53.483974	0.000355	3.549120	1.202474	0.000142
 444	4.4078e+01	17.6434	53.641423	0.000395	3.954734	1.339900	0.000158
 445	4.4178e+01	17.6754	53.734277	0.000233	2.332279	0.790197	0.000093
 446	4.4278e+01	17.7171	53.827131	0.000233	2.332279	0.790197	0.000093
 447	4.4377e+01	17.7637	53.940171	0.000284	2.839296	0.961980	0.000114
 448	4.4477e+01	17.8038	54.089545	0.000375	3.751927	1.271187	0.000150
 449	4.4576e+01	17.8343	54.210659	0.000304	3.042103	1.030692	0.000122
 450	4.4675e+01	17.8888	54.307550	0.000243	2.433682	0.824554	0.000097
 451	4.4775e+01	17.9193	54.412515	0.000264	2.636489	0.893267	0.000105
 452	4.4874e+01	17.9658	54.582075	0.000426	4.258944	1.442969	0.000170
 453	4.4974e+01	18.0011	54.691078	0.000274	2.737893	0.927623	0.000110
 454	4.5074e+01	18.0444	54.800081	0.000274	2.737893	0.927623	0.000110
 455	4.5173e+01	18.0781	54.892935	0.000233	2.332279	0.790197	0.000093
 456	4.5273e+01	18.1198	55.026160	0.000335	3.346313	1.133762	0.000134
 457	4.5372e+01	18.1615	55.139200	0.000284	2.839296	0.961980	0.000114
 458	4.5471e+01	18.2096	55.264351	0.000314	3.143506	1.065049	0.000126
 459	4.5571e+01	18.2401	55.417762	0.000385	3.853330	1.305544	0.000154
 460	4.5670e+01	18.2802	55.494468	0.000193	1.926665	0.652772	0.000077
 461	4.5770e+01	18.3187	55.639805	0.000365	3.650523	1.236831	0.000146
 462	4.5870e+01	18.3717	55.773030	0.000335	3.346313	1.133762	0.000134
 463	4.5969e+01	18.4054	55.853773	0.000203	2.028069	0.687128	0.000081
 464	4.6069e+01	18.4439	56.007184	0.000385	3.853330	1.305544	0.000154
 465	4.6168e+01	18.4776	56.096001	0.000223	2.230875	0.755841	0.000089
 466	4.6267e+01	18.5161	56.196929	0.000254	2.535086	0.858910	0.000101
 467	4.6367e+01	18.5610	56.370526	0.000436	4.360347	1.477326	0.000174
 468	4.6467e+01	18.6155	56.439158	0.000172	1.723858	0.584059	0.000069
 469	4.6566e+01	18.6428	56.556235	0.000294	2.940699	0.996336	0.000118
 470	4.6666e+01	18.6781	56.693497	0.000345	3.447717	1.168118	0.000138
 471	4.6765e+01	18.7246	56.806537	0.000284	2.839296	0.961980	0.000114
 472	4.6864e+01	18.7679	56.927651	0.000304	3.042103	1.030692	0.000122
 473	4.6964e+01	18.8032	57.032617	0.000264	2.636489	0.893267	0.000105
 474	4.7063e+01	18.8401	57.194102	0.000406	4.056137	1.374256	0.000162
 475	4.7163e+01	18.8850	57.286956	0.000233	2.332279	0.790197	0.000093
 476	4.7263e+01	18.9203	57.428256	0.000355	3.549120	1.202474	0.000142
 477	4.7362e+01	18.9540	57.517073	0.000223	2.230875	0.755841	0.000089
 478	4.7462e+01	19.0005	57.646261	0.000324	3.244910	1.099405	0.000130
 479	4.7561e+01	19.0406	57.727004	0.000203	2.028069	0.687128	0.000081
 480	4.7660e+01	19.0759	57.884452	0.000395	3.954734	1.339900	0.000158
 481	4.7760e+01	19.1241	57.981343	0.000243	2.433682	0.824554	0.000097
 482	4.7859e+01	19.1577	58.110532	0.000324	3.244910	1.099405	0.000130
 483	4.7959e+01	19.1995	58.223572	0.000284	2.839296	0.961980	0.000114
 484	4.8059e+01	19.2572	58.344686	0.000304	3.042103	1.030692	0.000122
 485	4.8158e+01	19.2781	58.465800	0.000304	3.042103	1.030692	0.000122
 486	4.8258e+01	19.3278	58.590951	0.000314	3.143506	1.065049	0.000126
 487	4.8357e+01	19.3599	58.699954	0.000274	2.737893	0.927623	0.000110
 488	4.8456e+01	19.3984	58.829142	0.000324	3.244910	1.099405	0.000130
 489	4.8556e+01	19.4385	58.893736	0.000162	1.622455	0.549703	0.000065
 490	4.8656e+01	19.4866	59.039073	0.000365	3.650523	1.236831	0.000146
 491	4.8755e+01	19.5219	59.168261	0.000324	3.244910	1.099405	0.000130
 492	4.8855e+01	19.5668	59.285338	0.000294	2.940699	0.996336	0.000118
 493	4.8954e+01	19.6037	59.426638	0.000355	3.549120	1.202474	0.000142
 494	4.9053e+01	19.6422	59.503344	0.000193	1.926665	0.652772	0.000077
 495	4.9153e+01	19.6807	59.616383	0.000284	2.839296	0.961980	0.000114
 496	4.9252e+01	19.7128	59.741535	0.000314	3.143506	1.065049	0.000126
 497	4.9352e+01	19.7561	59.870723	0.000324	3.244910	1.099405	0.000130
 498	4.9452e+01	19.7882	59.955503	0.000213	2.129472	0.721485	0.000085
 499	4.9551e+01	19.8476	60.088728	0.000335	3.346313	1.133762	0.000134
 500	4.9651e+01	19.8716	60.205805	0.000294	2.940699	0.996336	0.000118
 501	4.9750e+01	19.9182	60.314808	0.000274	2.737893	0.927623	0.000110
 502	4.9849e+01	19.9518	60.452071	0.000345	3.447717	1.168118	0.000138
 503	4.9949e+01	19.9887	60.548962	0.000243	2.433682	0.824554	0.000097
 504	5.0048e+01	19.9567	60.456108	0.000233	2.332279	0.790197	-0.000093
 505	5.0148e+01	19.9214	60.395551	0.000152	1.521051	0.515346	-0.000061
 506	5.0248e+01	19.8732	60.298659	0.000243	2.433682	0.824554	-0.000097
 507	5.0347e+01	19.8315	60.238102	0.000152	1.521051	0.515346	-0.000061
 508	5.0447e+01	19.8010	60.165434	0.000183	1.825262	0.618415	-0.000073
 509	5.0546e+01	19.7577	60.072580	0.000233	2.332279	0.790197	-0.000093
 510	5.0645e+01	19.7160	59.967614	0.000264	2.636489	0.893267	-0.000105
 511	5.0745e+01	19.6775	59.874760	0.000233	2.332279	0.790197	-0.000093
 512	5.0844e+01	19.6390	59.745572	0.000324	3.244910	1.099405	-0.000130
 513	5.0944e+01	19.5941	59.689052	0.000142	1.419648	0.480990	-0.000057
 514	5.1044e+01	19.5604	59.592161	0.000243	2.433682	0.824554	-0.000097
 515	5.1143e+01	19.5187	59.483158	0.000274	2.737893	0.927623	-0.000110
 516	5.1242e+01	19.4786	59.394341	0.000223	2.230875	0.755841	-0.000089
 517	5.1342e+01	19.4449	59.277264	0.000294	2.940699	0.996336	-0.000118
 518	5.1441e+01	19.3872	59.244967	0.000081	0.811227	0.274851	-0.000032
 519	5.1541e+01	19.3663	59.164224	0.000203	2.028069	0.687128	-0.000081
 520	5.1641e+01	19.3166	59.002739	0.000406	4.056137	1.374256	-0.000162
 521	5.1740e+01	19.2765	58.905848	0.000243	2.433682	0.824554	-0.000097
 522	5.1840e+01	19.2444	58.857402	0.000122	1.216841	0.412277	-0.000049
 523	5.1939e+01	19.1962	58.724176	0.000335	3.346313	1.133762	-0.000134
 524	5.2038e+01	19.1594	58.619211	0.000264	2.636489	0.893267	-0.000105
 525	5.2138e+01	19.1209	58.542505	0.000193	1.926665	0.652772	-0.000077
 526	5.2237e+01	19.0823	58.429466	0.000284	2.839296	0.961980	-0.000114
 527	5.2337e+01	19.0487	58.336611	0.000233	2.332279	0.790197	-0.000093
 528	5.2437e+01	19.0053	58.231646	0.000264	2.636489	0.893267	-0.000105
 529	5.2536e+01	18.9620	58.146866	0.000213	2.129472	0.721485	-0.000085
 530	5.2636e+01	18.9171	58.045938	0.000254	2.535086	0.858910	-0.000101
 531	5.2735e+01	18.8770	57.904638	0.000355	3.549120	1.202474	-0.000142
 532	5.2834e+01	18.8385	57.852155	0.000132	1.318245	0.446633	-0.000053
 533	5.2934e+01	18.7968	57.763338	0.000223	2.230875	0.755841	-0.000089
 534	5.3033e+01	18.7551	57.658373	0.000264	2.636489	0.893267	-0.000105
 535	5.3133e+01	18.7246	57.553407	0.000264	2.636489	0.893267	-0.000105
 536	5.3233e+01	18.6829	57.432293	0.000304	3.042103	1.030692	-0.000122
 537	5.3332e+01	18.6476	57.343476	0.000223	2.230875	0.755841	-0.000089
 538	5.3431e+01	18.6059	57.250622	0.000233	2.332279	0.790197	-0.000093
 539	5.3531e+01	18.5642	57.177953	0.000183	1.825262	0.618415	-0.000073
 540	5.3630e+01	18.5289	57.024542	0.000385	3.853330	1.305544	-0.000154
 541	5.3730e+01	18.4792	56.935725	0.000223	2.230875	0.755841	-0.000089
 542	5.3830e+01	18.4374	56.871131	0.000162	1.622455	0.549703	-0.000065
 543	5.3929e+01	18.4086	56.754054	0.000294	2.940699	0.996336	-0.000118
 544	5.4029e+01	18.3588	56.677349	0.000193	1.926665	0.652772	-0.000077
 545	5.4128e+01	18.3300	56.552197	0.000314	3.143506	1.065049	-0.000126
 546	5.4227e+01	18.2850	56.443195	0.000274	2.737893	0.927623	-0.000110
 547	5.4327e+01	18.2401	56.390712	0.000132	1.318245	0.446633	-0.000053
 548	5.4426e+01	18.2000	56.257487	0.000335	3.346313	1.133762	-0.000134
 549	5.4526e+01	18.1615	56.160595	0.000243	2.433682	0.824554	-0.000097
 550	5.4626e+01	18.1262	56.063704	0.000243	2.433682	0.824554	-0.000097
 551	5.4725e+01	18.0893	55.970850	0.000233	2.332279	0.790197	-0.000093
 552	5.4825e+01	18.0444	55.857810	0.000284	2.839296	0.961980	-0.000114
 553	5.4924e+01	18.0059	55.748807	0.000274	2.737893	0.927623	-0.000110
 554	5.5023e+01	17.9626	55.635768	0.000284	2.839296	0.961980	-0.000114
 555	5.5123e+01	17.9273	55.510616	0.000314	3.143506	1.065049	-0.000126
 556	5.5222e+01	17.8840	55.454096	0.000142	1.419648	0.480990	-0.000057
 557	5.5322e+01	17.8455	55.345094	0.000274	2.737893	0.927623	-0.000110
 558	5.5422e+01	17.8070	55.244165	0.000254	2.535086	0.858910	-0.000101
 559	5.5521e+01	17.7653	55.094791	0.000375	3.751927	1.271187	-0.000150
 560	5.5620e+01	17.7236	55.026160	0.000172	1.723858	0.584059	-0.000069
 561	5.5720e+01	17.6899	54.925232	0.000254	2.535086	0.858910	-0.000101
 562	5.5819e+01	17.6385	54.796043	0.000324	3.244910	1.099405	-0.000130
 563	5.5919e+01	17.6081	54.731449	0.000162	1.622455	0.549703	-0.000065
 564	5.6019e+01	17.5663	54.638595	0.000233	2.332279	0.790197	-0.000093
 565	5.6118e+01	17.5343	54.521518	0.000294	2.940699	0.996336	-0.000118
 566	5.6218e+01	17.4926	54.424627	0.000243	2.433682	0.824554	-0.000097
 567	5.6317e+01	17.4605	54.295439	0.000324	3.244910	1.099405	-0.000130
 568	5.6416e+01	17.4027	54.194510	0.000254	2.535086	0.858910	-0.000101
 569	5.6516e+01	17.3594	54.125879	0.000172	1.723858	0.584059	-0.000069
 570	5.6615e+01	17.3177	53.988616	0.000345	3.447717	1.168118	-0.000138
 571	5.6715e+01	17.2776	53.871539	0.000294	2.940699	0.996336	-0.000118
 572	5.6815e+01	17.2471	53.806945	0.000162	1.622455	0.549703	-0.000065
 573	5.6914e+01	17.2070	53.681794	0.000314	3.143506	1.065049	-0.000126
 574	5.7014e+01	17.1653	53.605088	0.000193	1.926665	0.652772	-0.000077
 575	5.7113e+01	17.1252	53.475900	0.000324	3.244910	1.099405	-0.000130
 576	5.7212e+01	17.0835	53.383046	0.000233	2.332279	0.790197	-0.000093
 577	5.7312e+01	17.0498	53.265969	0.000294	2.940699	0.996336	-0.000118
 578	5.7411e+01	17.0097	53.161003	0.000264	2.636489	0.893267	-0.000105
 579	5.7511e+01	16.9760	53.035852	0.000314	3.143506	1.065049	-0.000126
 580	5.7611e+01	16.9311	52.991444	0.000112	1.115438	0.377921	-0.000045
 581	5.7710e+01	16.8926	52.858218	0.000335	3.346313	1.133762	-0.000134
 582	5.7809e+01	16.8493	52.708844	0.000375	3.751927	1.271187	-0.000150
 583	5.7909e+01	16.8108	52.644250	0.000162	1.622455	0.549703	-0.000065
 584	5.8008e+01	16.7642	52.523136	0.000304	3.042103	1.030692	-0.000122
 585	5.8108e+01	16.7241	52.418170	0.000264	2.636489	0.893267	-0.000105
 586	5.8208e+01	16.6920	52.313205	0.000264	2.636489	0.893267	-0.000105
 587	5.8307e+01	16.6391	52.167868	0.000365	3.650523	1.236831	-0.000146
 588	5.8407e+01	16.6134	52.095200	0.000183	1.825262	0.618415	-0.000073
 589	5.8506e+01	16.5717	51.949863	0.000365	3.650523	1.236831	-0.000146
 590	5.8605e+01	16.5332	51.852971	0.000243	2.433682	0.824554	-0.000097
 591	5.8705e+01	16.4835	51.739932	0.000284	2.839296	0.961980	-0.000114
 592	5.8804e+01	16.4530	51.647077	0.000233	2.332279	0.790197	-0.000093
 593	5.8904e+01	16.4097	51.534038	0.000284	2.839296	0.961980	-0.000114
 594	5.9004e+01	16.3696	51.400812	0.000335	3.346313	1.133762	-0.000134
 595	5.9103e+01	16.3295	51.328144	0.000183	1.825262	0.618415	-0.000073
 596	5.9203e+01	16.2862	51.223178	0.000264	2.636489	0.893267	-0.000105
 597	5.9302e+01	16.2541	51.085916	0.000345	3.447717	1.168118	-0.000138
 598	5.9401e+01	16.2092	50.980950	0.000264	2.636489	0.893267	-0.000105
 599	5.9501e+01	16.1787	50.880022	0.000254	2.535086	0.858910	-0.000101
 600	5.9600e+01	16.1306	50.775056	0.000264	2.636489	0.893267	-0.000105
 601	5.9700e+01	16.0937	50.674128	0.000254	2.535086	0.858910	-0.000101
 602	5.9800e+01	16.0487	50.532828	0.000355	3.549120	1.202474	-0.000142
 603	5.9899e+01	16.0070	50.444011	0.000223	2.230875	0.755841	-0.000089
 604	5.9998e+01	15.9653	50.322897	0.000304	3.042103	1.030692	-0.000122
 605	6.0098e+01	15.9316	50.209857	0.000284	2.839296	0.961980	-0.000114
 606	6.0197e+01	15.9012	50.141226	0.000172	1.723858	0.584059	-0.000069
 607	6.0297e+01	15.8530	49.995889	0.000365	3.650523	1.236831	-0.000146
 608	6.0397e+01	15.8097	49.898998	0.000243	2.433682	0.824554	-0.000097
 609	6.0496e+01	15.7776	49.769809	0.000324	3.244910	1.099405	-0.000130
 610	6.0596e+01	15.7295	49.660807	0.000274	2.737893	0.927623	-0.000110
 611	6.0695e+01	15.6926	49.547767	0.000284	2.839296	0.961980	-0.000114
 612	6.0794e+01	15.6589	49.454913	0.000233	2.332279	0.790197	-0.000093
 613	6.0894e+01	15.6076	49.313613	0.000355	3.549120	1.202474	-0.000142
 614	6.0993e+01	15.5723	49.224796	0.000223	2.230875	0.755841	-0.000089
 615	6.1093e+01	15.5306	49.144053	0.000203	2.028069	0.687128	-0.000081
 616	6.1193e+01	15.4905	48.986605	0.000395	3.954734	1.339900	-0.000158
 617	6.1292e+01	15.4423	48.885677	0.000254	2.535086	0.858910	-0.000101
 618	6.1392e+01	15.4167	48.772637	0.000284	2.839296	0.961980	-0.000114
 619	6.1491e+01	15.3766	48.679783	0.000233	2.332279	0.790197	-0.000093
 620	6.1590e+01	15.3381	48.538483	0.000355	3.549120	1.202474	-0.000142
 621	6.1690e+01	15.2883	48.393146	0.000365	3.650523	1.236831	-0.000146
 622	6.1789e+01	15.2450	48.308366	0.000213	2.129472	0.721485	-0.000085
 623	6.1889e+01	15.2129	48.191289	0.000294	2.940699	0.996336	-0.000118
 624	6.1989e+01	15.1696	48.090361	0.000254	2.535086	0.858910	-0.000101
 625	6.2088e+01	15.1424	47.965210	0.000314	3.143506	1.065049	-0.000126
 626	6.2188e+01	15.1022	47.848133	0.000294	2.940699	0.996336	-0.000118
 627	6.2287e+01	15.0573	47.714907	0.000335	3.346313	1.133762	-0.000134
 628	6.2386e+01	15.0172	47.618016	0.000243	2.433682	0.824554	-0.000097
 629	6.2486e+01	14.9787	47.513051	0.000264	2.636489	0.893267	-0.000105
 630	6.2586e+01	14.9338	47.391936	0.000304	3.042103	1.030692	-0.000122
 631	6.2685e+01	14.8953	47.266785	0.000314	3.143506	1.065049	-0.000126
 632	6.2785e+01	14.8600	47.161820	0.000264	2.636489	0.893267	-0.000105
 633	6.2884e+01	14.8199	47.036668	0.000314	3.143506	1.065049	-0.000126
 634	6.2983e+01	14.7686	46.931703	0.000264	2.636489	0.893267	-0.000105
 635	6.3083e+01	14.7381	46.834812	0.000243	2.433682	0.824554	-0.000097
 636	6.3182e+01	14.7012	46.709660	0.000314	3.143506	1.065049	-0.000126
 637	6.3282e+01	14.6563	46.620844	0.000223	2.230875	0.755841	-0.000089
 638	6.3382e+01	14.6178	46.459358	0.000406	4.056137	1.374256	-0.000162
 639	6.3481e+01	14.5680	46.366504	0.000233	2.332279	0.790197	-0.000093
 640	6.3581e+01	14.5343	46.249427	0.000294	2.940699	0.996336	-0.000118
 641	6.3680e+01	14.5007	46.124276	0.000314	3.143506	1.065049	-0.000126
 642	6.3779e+01	14.4606	46.007199	0.000294	2.940699	0.996336	-0.000118
 643	6.3879e+01	14.4204	45.926456	0.000203	2.028069	0.687128	-0.000081
 644	6.3978e+01	14.3707	45.805342	0.000304	3.042103	1.030692	-0.000122
 645	6.4078e+01	14.3306	45.676154	0.000324	3.244910	1.099405	-0.000130
 646	6.4177e+01	14.2921	45.567151	0.000274	2.737893	0.927623	-0.000110
 647	6.4277e+01	14.2664	45.450074	0.000294	2.940699	0.996336	-0.000118
 648	6.4376e+01	14.2167	45.316849	0.000335	3.346313	1.133762	-0.000134
 649	6.4476e+01	14.1782	45.203809	0.000284	2.839296	0.961980	-0.000114
 650	6.4576e+01	14.1429	45.074621	0.000324	3.244910	1.099405	-0.000130
 651	6.4675e+01	14.0964	44.965618	0.000274	2.737893	0.927623	-0.000110
 652	6.4775e+01	14.0563	44.836430	0.000324	3.244910	1.099405	-0.000130
 653	6.4874e+01	14.0082	44.711278	0.000314	3.143506	1.065049	-0.000126
 654	6.4974e+01	13.9841	44.590164	0.000304	3.042103	1.030692	-0.000122
 655	6.5073e+01	13.9424	44.485199	0.000264	2.636489	0.893267	-0.000105
 656	6.5172e+01	13.9023	44.380233	0.000264	2.636489	0.893267	-0.000105
 657	6.5272e+01	13.8558	44.259119	0.000304	3.042103	1.030692	-0.000122
 658	6.5371e+01	13.8189	44.129931	0.000324	3.244910	1.099405	-0.000130
 659	6.5471e+01	13.7788	44.049188	0.000203	2.028069	0.687128	-0.000081
 660	6.5570e+01	13.7419	43.915963	0.000335	3.346313	1.133762	-0.000134
 661	6.5670e+01	13.6905	43.786774	0.000324	3.244910	1.099405	-0.000130
 662	6.5769e+01	13.6568	43.714106	0.000183	1.825262	0.618415	-0.000073
 663	6.5869e+01	13.6215	43.592992	0.000304	3.042103	1.030692	-0.000122
 664	6.5969e+01	13.5846	43.447655	0.000365	3.650523	1.236831	-0.000146
 665	6.6068e+01	13.5397	43.302318	0.000365	3.650523	1.236831	-0.000146
 666	6.6168e+01	13.4996	43.229649	0.000183	1.825262	0.618415	-0.000073
 667	6.6267e+01	13.4643	43.104498	0.000314	3.143506	1.065049	-0.000126
 668	6.6367e+01	13.4226	42.999533	0.000264	2.636489	0.893267	-0.000105
 669	6.6466e+01	13.3841	42.874382	0.000314	3.143506	1.065049	-0.000126
 670	6.6566e+01	13.3456	42.757305	0.000294	2.940699	0.996336	-0.000118
 671	6.6665e+01	13.3039	42.680599	0.000193	1.926665	0.652772	-0.000077
 672	6.6764e+01	13.2606	42.523151	0.000395	3.954734	1.339900	-0.000158
 673	6.6864e+01	13.2173	42.450482	0.000183	1.825262	0.618415	-0.000073
 674	6.6963e+01	13.1804	42.313220	0.000345	3.447717	1.168118	-0.000138
 675	6.7063e+01	13.1483	42.188068	0.000314	3.143506	1.065049	-0.000126
 676	6.7162e+01	13.0986	42.070992	0.000294	2.940699	0.996336	-0.000118
 677	6.7262e+01	13.0552	41.949877	0.000304	3.042103	1.030692	-0.000122
 678	6.7362e+01	13.0167	41.857023	0.000233	2.332279	0.790197	-0.000093
 679	6.7461e+01	12.9766	41.715724	0.000355	3.549120	1.202474	-0.000142
 680	6.7561e+01	12.9397	41.618832	0.000243	2.433682	0.824554	-0.000097
 681	6.7660e+01	12.9077	41.546164	0.000183	1.825262	0.618415	-0.000073
 682	6.7760e+01	12.8708	41.388716	0.000395	3.954734	1.339900	-0.000158
 683	6.7859e+01	12.8146	41.271639	0.000294	2.940699	0.996336	-0.000118
 684	6.7959e+01	12.7873	41.174747	0.000243	2.433682	0.824554	-0.000097
 685	6.8058e+01	12.7504	41.025373	0.000375	3.751927	1.271187	-0.000150
 686	6.8157e+01	12.7119	40.936556	0.000223	2.230875	0.755841	-0.000089
 687	6.8257e+01	12.6702	40.799294	0.000345	3.447717	1.168118	-0.000138
 688	6.8356e+01	12.6205	40.686254	0.000284	2.839296	0.961980	-0.000114
 689	6.8456e+01	12.5884	40.557066	0.000324	3.244910	1.099405	-0.000130
 690	6.8555e+01	12.5403	40.423840	0.000335	3.346313	1.133762	-0.000134
 691	6.8655e+01	12.5114	40.359246	0.000162	1.622455	0.549703	-0.000065
 692	6.8754e+01	12.4633	40.217946	0.000355	3.549120	1.202474	-0.000142
 693	6.8854e+01	12.4216	40.129129	0.000223	2.230875	0.755841	-0.000089
 694	6.8954e+01	12.3831	40.028201	0.000254	2.535086	0.858910	-0.000101
 695	6.9053e+01	12.3462	39.882864	0.000365	3.650523	1.236831	-0.000146
 696	6.9153e+01	12.3093	39.749638	0.000335	3.346313	1.133762	-0.000134
 697	6.9252e+01	12.2724	39.620450	0.000324	3.244910	1.099405	-0.000130
 698	6.9352e+01	12.2243	39.507410	0.000284	2.839296	0.961980	-0.000114
 699	6.9451e+01	12.1938	39.422630	0.000213	2.129472	0.721485	-0.000085
 700	6.9550e+01	12.1456	39.261145	0.000406	4.056137	1.374256	-0.000162
 701	6.9650e+01	12.1007	39.196551	0.000162	1.622455	0.549703	-0.000065
 702	6.9749e+01	12.0686	39.055251	0.000355	3.549120	1.202474	-0.000142
 703	6.9849e+01	12.0350	38.930100	0.000314	3.143506	1.065049	-0.000126
 704	6.9948e+01	11.9852	38.837246	0.000233	2.332279	0.790197	-0.000093
 705	7.0048e+01	11.9580	38.699983	0.000345	3.447717	1.168118	-0.000138
 706	7.0147e+01	11.9082	38.603092	0.000243	2.433682	0.824554	-0.000097
 707	7.0247e+01	11.8617	38.469866	0.000335	3.346313	1.133762	-0.000134
 708	7.0347e+01	11.8424	38.381049	0.000223	2.230875	0.755841	-0.000089
 709	7.0446e+01	11.7943	38.251861	0.000324	3.244910	1.099405	-0.000130
 710	7.0546e+01	11.7526	38.146896	0.000264	2.636489	0.893267	-0.000105
 711	7.0645e+01	11.7061	38.013670	0.000335	3.346313	1.133762	-0.000134
 712	7.0745e+01	11.6724	37.900630	0.000284	2.839296	0.961980	-0.000114
 713	7.0844e+01	11.6275	37.799702	0.000254	2.535086	0.858910	-0.000101
 714	7.0944e+01	11.5890	37.670514	0.000324	3.244910	1.099405	-0.000130
 715	7.1043e+01	11.5617	37.557474	0.000284	2.839296	0.961980	-0.000114
 716	7.1142e+01	11.5168	37.456545	0.000254	2.535086	0.858910	-0.000101
 717	7.1242e+01	11.4783	37.295060	0.000406	4.056137	1.374256	-0.000162
 718	7.1341e+01	11.4286	37.222392	0.000183	1.825262	0.618415	-0.000073
 719	7.1441e+01	11.3949	37.081092	0.000355	3.549120	1.202474	-0.000142
 720	7.1540e+01	11.3483	36.955941	0.000314	3.143506	1.065049	-0.000126
 721	7.1640e+01	11.3082	36.859049	0.000243	2.433682	0.824554	-0.000097
 722	7.1740e+01	11.2745	36.758121	0.000254	2.535086	0.858910	-0.000101
 723	7.1839e+01	11.2360	36.604710	0.000385	3.853330	1.305544	-0.000154
 724	7.1939e+01	11.1927	36.487633	0.000294	2.940699	0.996336	-0.000118
 725	7.2038e+01	11.1510	36.390742	0.000243	2.433682	0.824554	-0.000097
 726	7.2138e+01	11.1141	36.289813	0.000254	2.535086	0.858910	-0.000101
 727	7.2237e+01	11.0708	36.132365	0.000395	3.954734	1.339900	-0.000158
 728	7.2337e+01	11.0419	36.019325	0.000284	2.839296	0.961980	-0.000114
 729	7.2436e+01	11.0002	35.882062	0.000345	3.447717	1.168118	-0.000138
 730	7.2535e+01	10.9473	35.793245	0.000223	2.230875	0.755841	-0.000089
 731	7.2635e+01	10.9088	35.651946	0.000355	3.549120	1.202474	-0.000142
 732	7.2734e+01	10.8751	35.534869	0.000294	2.940699	0.996336	-0.000118
 733	7.2834e+01	10.8254	35.409718	0.000314	3.143506	1.065049	-0.000126
 734	7.2933e+01	10.7901	35.345123	0.000162	1.622455	0.549703	-0.000065
 735	7.3033e+01	10.7435	35.183638	0.000406	4.056137	1.374256	-0.000162
 736	7.3132e+01	10.7211	35.098858	0.000213	2.129472	0.721485	-0.000085
 737	7.3232e+01	10.6746	34.953521	0.000365	3.650523	1.236831	-0.000146
 738	7.3332e+01	10.6329	34.840481	0.000284	2.839296	0.961980	-0.000114
 739	7.3431e+01	10.5911	34.735516	0.000264	2.636489	0.893267	-0.000105
 740	7.3531e+01	10.5510	34.598253	0.000345	3.447717	1.168118	-0.000138
 741	7.3630e+01	10.5157	34.505399	0.000233	2.332279	0.790197	-0.000093
 742	7.3730e+01	10.4805	34.343914	0.000406	4.056137	1.374256	-0.000162
 743	7.3829e+01	10.4371	34.190503	0.000385	3.853330	1.305544	-0.000154
 744	7.3928e+01	10.3922	34.105723	0.000213	2.129472	0.721485	-0.000085
 745	7.4028e+01	10.3601	34.012869	0.000233	2.332279	0.790197	-0.000093
 746	7.4127e+01	10.3120	33.903866	0.000274	2.737893	0.927623	-0.000110
 747	7.4227e+01	10.2767	33.750455	0.000385	3.853330	1.305544	-0.000154
 748	7.4326e+01	10.2318	33.665675	0.000213	2.129472	0.721485	-0.000085
 749	7.4426e+01	10.1933	33.467855	0.000497	4.968768	1.683464	-0.000199
 750	7.4525e+01	10.1484	33.431521	0.000091	0.912631	0.309208	-0.000037
 751	7.4625e+01	10.1131	33.302333	0.000324	3.244910	1.099405	-0.000130
 752	7.4725e+01	10.0762	33.132773	0.000426	4.258944	1.442969	-0.000170
 753	7.4824e+01	10.0393	33.027807	0.000264	2.636489	0.893267	-0.000105
 754	7.4924e+01	9.9912	32.906693	0.000304	3.042103	1.030692	-0.000122
 755	7.5023e+01	9.9511	32.825951	0.000203	2.028069	0.687128	-0.000081
 756	7.5123e+01	9.9158	32.652354	0.000436	4.360347	1.477326	-0.000174
 757	7.5222e+01	9.8757	32.535277	0.000294	2.940699	0.996336	-0.000118
 758	7.5322e+01	9.8307	32.385903	0.000375	3.751927	1.271187	-0.000150
 759	7.5421e+01	9.7890	32.276900	0.000274	2.737893	0.927623	-0.000110
 760	7.5520e+01	9.7602	32.155786	0.000304	3.042103	1.030692	-0.000122
 761	7.5620e+01	9.7281	32.034672	0.000304	3.042103	1.030692	-0.000122
 762	7.5719e+01	9.6751	31.917595	0.000294	2.940699	0.996336	-0.000118
 763	7.5819e+01	9.6479	31.800518	0.000294	2.940699	0.996336	-0.000118
 764	7.5918e+01	9.5981	31.671330	0.000324	3.244910	1.099405	-0.000130
 765	7.6018e+01	9.5676	31.538104	0.000335	3.346313	1.133762	-0.000134
 766	7.6118e+01	9.5211	31.441213	0.000243	2.433682	0.824554	-0.000097
 767	7.6217e+01	9.4874	31.283765	0.000395	3.954734	1.339900	-0.000158
 768	7.6317e+01	9.4329	31.154576	0.000324	3.244910	1.099405	-0.000130
 769	7.6416e+01	9.4024	31.021351	0.000335	3.346313	1.133762	-0.000134
 770	7.6516e+01	9.3591	30.908311	0.000284	2.839296	0.961980	-0.000114
 771	7.6615e+01	9.3222	30.815457	0.000233	2.332279	0.790197	-0.000093
 772	7.6715e+01	9.2821	30.670120	0.000365	3.650523	1.236831	-0.000146
 773	7.6814e+01	9.2324	30.532858	0.000345	3.447717	1.168118	-0.000138
 774	7.6913e+01	9.2051	30.411744	0.000304	3.042103	1.030692	-0.000122
 775	7.7013e+01	9.1602	30.230072	0.000456	4.563154	1.546039	-0.000183
 776	7.7112e+01	9.1217	30.153367	0.000193	1.926665	0.652772	-0.000077
 777	7.7212e+01	9.0816	30.076661	0.000193	1.926665	0.652772	-0.000077
 778	7.7311e+01	9.0366	29.915176	0.000406	4.056137	1.374256	-0.000162
 779	7.7411e+01	9.0014	29.781950	0.000335	3.346313	1.133762	-0.000134
 780	7.7510e+01	8.9677	29.636613	0.000365	3.650523	1.236831	-0.000146
 781	7.7610e+01	8.9147	29.539722	0.000243	2.433682	0.824554	-0.000097
 782	7.7710e+01	8.8874	29.406497	0.000335	3.346313	1.133762	-0.000134
 783	7.7809e+01	8.8377	29.281346	0.000314	3.143506	1.065049	-0.000126
 784	7.7909e+01	8.8024	29.168306	0.000284	2.839296	0.961980	-0.000114
 785	7.8008e+01	8.7623	29.027006	0.000355	3.549120	1.202474	-0.000142
 786	7.8108e+01	8.7286	28.845335	0.000456	4.563154	1.546039	-0.000183
 787	7.8207e+01	8.6885	28.740369	0.000264	2.636489	0.893267	-0.000105
 788	7.8306e+01	8.6452	28.663664	0.000193	1.926665	0.652772	-0.000077
 789	7.8406e+01	8.5971	28.490067	0.000436	4.360347	1.477326	-0.000174
 790	7.8505e+01	8.5538	28.417398	0.000183	1.825262	0.618415	-0.000073
 791	7.8605e+01	8.5217	28.247839	0.000426	4.258944	1.442969	-0.000170
 792	7.8704e+01	8.4816	28.078279	0.000426	4.258944	1.442969	-0.000170
 793	7.8804e+01	8.4367	27.993499	0.000213	2.129472	0.721485	-0.000085
 794	7.8903e+01	8.4030	27.876422	0.000294	2.940699	0.996336	-0.000118
 795	7.9003e+01	8.3645	27.763382	0.000284	2.839296	0.961980	-0.000114
 796	7.9103e+01	8.3196	27.597860	0.000416	4.157541	1.408613	-0.000166
 797	7.9202e+01	8.2794	27.509043	0.000223	2.230875	0.755841	-0.000089
 798	7.9302e+01	8.2425	27.343520	0.000416	4.157541	1.408613	-0.000166
 799	7.9401e+01	8.2073	27.206258	0.000345	3.447717	1.168118	-0.000138
 800	7.9501e+01	8.1671	27.056884	0.000375	3.751927	1.271187	-0.000150
 801	7.9600e+01	8.1206	26.947881	0.000274	2.737893	0.927623	-0.000110
 802	7.9700e+01	8.0821	26.842916	0.000264	2.636489	0.893267	-0.000105
 803	7.9799e+01	8.0404	26.701616	0.000355	3.549120	1.202474	-0.000142
 804	7.9898e+01	8.0003	26.572427	0.000324	3.244910	1.099405	-0.000130
 805	7.9998e+01	7.9634	26.443239	0.000324	3.244910	1.099405	-0.000130
 806	8.0097e+01	7.9297	26.289828	0.000385	3.853330	1.305544	-0.000154
 807	8.0197e+01	7.8880	26.188900	0.000254	2.535086	0.858910	-0.000101
 808	8.0296e+01	7.8479	26.043563	0.000365	3.650523	1.236831	-0.000146
 809	8.0396e+01	7.8078	25.942634	0.000254	2.535086	0.858910	-0.000101
 810	8.0496e+01	7.7613	25.809409	0.000335	3.346313	1.133762	-0.000134
 811	8.0595e+01	7.7260	25.660035	0.000375	3.751927	1.271187	-0.000150
 812	8.0695e+01	7.6827	25.534884	0.000314	3.143506	1.065049	-0.000126
 813	8.0794e+01	7.6442	25.405695	0.000324	3.244910	1.099405	-0.000130
 814	8.0894e+01	7.6009	25.252284	0.000385	3.853330	1.305544	-0.000154
 815	8.0993e+01	7.5720	25.143281	0.000274	2.737893	0.927623	-0.000110
 816	8.1093e+01	7.5319	25.034279	0.000274	2.737893	0.927623	-0.000110
 817	8.1192e+01	7.4918	24.905090	0.000324	3.244910	1.099405	-0.000130
 818	8.1291e+01	7.4468	24.739568	0.000416	4.157541	1.408613	-0.000166
 819	8.1391e+01	7.4051	24.610379	0.000324	3.244910	1.099405	-0.000130
 820	8.1490e+01	7.3682	24.469080	0.000355	3.549120	1.202474	-0.000142
 821	8.1590e+01	7.3233	24.396411	0.000183	1.825262	0.618415	-0.000073
 822	8.1689e+01	7.2928	24.234926	0.000406	4.056137	1.374256	-0.000162
 823	8.1789e+01	7.2447	24.109775	0.000314	3.143506	1.065049	-0.000126
 824	8.1888e+01	7.2030	23.988661	0.000304	3.042103	1.030692	-0.000122
 825	8.1988e+01	7.1709	23.851398	0.000345	3.447717	1.168118	-0.000138
 826	8.2088e+01	7.1276	23.722210	0.000324	3.244910	1.099405	-0.000130
 827	8.2187e+01	7.0923	23.564761	0.000395	3.954734	1.339900	-0.000158
 828	8.2287e+01	7.0426	23.427499	0.000345	3.447717	1.168118	-0.000138
 829	8.2386e+01	7.0105	23.330607	0.000243	2.433682	0.824554	-0.000097
 830	8.2486e+01	6.9672	23.193345	0.000345	3.447717	1.168118	-0.000138
 831	8.2585e+01	6.9303	23.052045	0.000355	3.549120	1.202474	-0.000142
 832	8.2684e+01	6.8854	22.930931	0.000304	3.042103	1.030692	-0.000122
 833	8.2784e+01	6.8372	22.801743	0.000324	3.244910	1.099405	-0.000130
 834	8.2883e+01	6.8116	22.704851	0.000243	2.433682	0.824554	-0.000097
 835	8.2983e+01	6.7634	22.527217	0.000446	4.461751	1.511682	-0.000179
 836	8.3082e+01	6.7282	22.410140	0.000294	2.940699	0.996336	-0.000118
 837	8.3182e+01	6.6880	22.305175	0.000264	2.636489	0.893267	-0.000105
 838	8.3281e+01	6.6479	22.147727	0.000395	3.954734	1.339900	-0.000158
 839	8.3381e+01	6.6094	22.034687	0.000284	2.839296	0.961980	-0.000114
 840	8.3481e+01	6.5645	21.929721	0.000264	2.636489	0.893267	-0.000105
 841	8.3580e+01	6.5276	21.748050	0.000456	4.563154	1.546039	-0.000183
 842	8.3680e+01	6.4859	21.639048	0.000274	2.737893	0.927623	-0.000110
 843	8.3779e+01	6.4474	21.534082	0.000264	2.636489	0.893267	-0.000105
 844	8.3879e+01	6.4121	21.400857	0.000335	3.346313	1.133762	-0.000134
 845	8.3978e+01	6.3720	21.247445	0.000385	3.853330	1.305544	-0.000154
 846	8.4078e+01	6.3351	21.126331	0.000304	3.042103	1.030692	-0.000122
 847	8.4177e+01	6.2998	20.985032	0.000355	3.549120	1.202474	-0.000142
 848	8.4276e+01	6.2565	20.908326	0.000193	1.926665	0.652772	-0.000077
 849	8.4376e+01	6.2164	20.730692	0.000446	4.461751	1.511682	-0.000179
 850	8.4475e+01	6.1747	20.621689	0.000274	2.737893	0.927623	-0.000110
 851	8.4575e+01	6.1362	20.468278	0.000385	3.853330	1.305544	-0.000154
 852	8.4674e+01	6.0961	20.347164	0.000304	3.042103	1.030692	-0.000122
 853	8.4774e+01	6.0528	20.238161	0.000274	2.737893	0.927623	-0.000110
 854	8.4874e+01	6.0095	20.092825	0.000365	3.650523	1.236831	-0.000146
 855	8.4973e+01	5.9742	19.955562	0.000345	3.447717	1.168118	-0.000138
 856	8.5073e+01	5.9308	19.826374	0.000324	3.244910	1.099405	-0.000130
 857	8.5172e+01	5.8875	19.717371	0.000274	2.737893	0.927623	-0.000110
 858	8.5272e+01	5.8571	19.543774	0.000436	4.360347	1.477326	-0.000174
 859	8.5371e+01	5.8153	19.475143	0.000172	1.723858	0.584059	-0.000069
 860	8.5471e+01	5.7720	19.309620	0.000416	4.157541	1.408613	-0.000166
 861	8.5570e+01	5.7399	19.192543	0.000294	2.940699	0.996336	-0.000118
 862	8.5669e+01	5.6902	19.039132	0.000385	3.853330	1.305544	-0.000154
 863	8.5769e+01	5.6469	18.926092	0.000284	2.839296	0.961980	-0.000114
 864	8.5868e+01	5.6100	18.768644	0.000395	3.954734	1.339900	-0.000158
 865	8.5968e+01	5.5763	18.651567	0.000294	2.940699	0.996336	-0.000118
 866	8.6067e+01	5.5330	18.526416	0.000314	3.143506	1.065049	-0.000126
 867	8.6167e+01	5.4929	18.405302	0.000304	3.042103	1.030692	-0.000122
 868	8.6266e+01	5.4528	18.259965	0.000365	3.650523	1.236831	-0.000146
 869	8.6366e+01	5.4223	18.102517	0.000395	3.954734	1.339900	-0.000158
 870	8.6466e+01	5.3822	17.993514	0.000274	2.737893	0.927623	-0.000110
 871	8.6565e+01	5.3421	17.900660	0.000233	2.332279	0.790197	-0.000093
 872	8.6665e+01	5.2908	17.735137	0.000416	4.157541	1.408613	-0.000166
 873	8.6764e+01	5.2555	17.614023	0.000304	3.042103	1.030692	-0.000122
 874	8.6864e+01	5.2057	17.509058	0.000264	2.636489	0.893267	-0.000105
 875	8.6963e+01	5.1672	17.339498	0.000426	4.258944	1.442969	-0.000170
 876	8.7063e+01	5.1400	17.194161	0.000365	3.650523	1.236831	-0.000146
 877	8.7162e+01	5.0950	17.089196	0.000264	2.636489	0.893267	-0.000105
 878	8.7261e+01	5.0565	16.992304	0.000243	2.433682	0.824554	-0.000097
 879	8.7361e+01	5.0100	16.859079	0.000335	3.346313	1.133762	-0.000134
 880	8.7460e+01	4.9779	16.737965	0.000304	3.042103	1.030692	-0.000122
 881	8.7560e+01	4.9330	16.540145	0.000497	4.968768	1.683464	-0.000199
 882	8.7659e+01	4.8929	16.459402	0.000203	2.028069	0.687128	-0.000081
 883	8.7759e+01	4.8624	16.354437	0.000264	2.636489	0.893267	-0.000105
 884	8.7859e+01	4.8127	16.192951	0.000406	4.056137	1.374256	-0.000162
 885	8.7958e+01	4.7790	16.067800	0.000314	3.143506	1.065049	-0.000126
 886	8.8058e+01	4.7469	15.926500	0.000355	3.549120	1.202474	-0.000142
 887	8.8157e+01	4.7004	15.849795	0.000193	1.926665	0.652772	-0.000077
 888	8.8257e+01	4.6603	15.684272	0.000416	4.157541	1.408613	-0.000166
 889	8.8356e+01	4.6106	15.522787	0.000406	4.056137	1.374256	-0.000162
 890	8.8456e+01	4.5689	15.433970	0.000223	2.230875	0.755841	-0.000089
 891	8.8555e+01	4.5432	15.288633	0.000365	3.650523	1.236831	-0.000146
 892	8.8654e+01	4.4983	15.183668	0.000264	2.636489	0.893267	-0.000105
 893	8.8754e+01	4.4469	15.001996	0.000456	4.563154	1.546039	-0.000183
 894	8.8853e+01	4.4229	14.892994	0.000274	2.737893	0.927623	-0.000110
 895	8.8953e+01	4.3780	14.792065	0.000254	2.535086	0.858910	-0.000101
 896	8.9052e+01	4.3459	14.622506	0.000426	4.258944	1.442969	-0.000170
 897	8.9152e+01	4.2977	14.477169	0.000365	3.650523	1.236831	-0.000146
 898	8.9251e+01	4.2608	14.364129	0.000284	2.839296	0.961980	-0.000114
 899	8.9351e+01	4.2255	14.214755	0.000375	3.751927	1.271187	-0.000150
 900	8.9451e+01	4.1790	14.125938	0.000223	2.230875	0.755841	-0.000089
 901	8.9550e+01	4.1421	13.968490	0.000395	3.954734	1.339900	-0.000158
 902	8.9650e+01	4.1068	13.851413	0.000294	2.940699	0.996336	-0.000118
 903	8.9749e+01	4.0539	13.693964	0.000395	3.954734	1.339900	-0.000158
 904	8.9849e+01	4.0186	13.576887	0.000294	2.940699	0.996336	-0.000118
 905	8.9948e+01	3.9994	13.443662	0.000335	3.346313	1.133762	-0.000134
 906	9.0047e+01	3.9384	13.270065	0.000436	4.360347	1.477326	-0.000174
 907	9.0147e+01	3.9015	13.169137	0.000254	2.535086	0.858910	-0.000101
 908	9.0246e+01	3.8630	13.027837	0.000355	3.549120	1.202474	-0.000142
 909	9.0346e+01	3.8165	12.898649	0.000324	3.244910	1.099405	-0.000130
 910	9.0445e+01	3.7796	12.785609	0.000284	2.839296	0.961980	-0.000114
 911	9.0545e+01	3.7427	12.648346	0.000345	3.447717	1.168118	-0.000138
 912	9.0644e+01	3.6962	12.498972	0.000375	3.751927	1.271187	-0.000150
 913	9.0744e+01	3.6657	12.389970	0.000274	2.737893	0.927623	-0.000110
 914	9.0844e+01	3.6224	12.228484	0.000406	4.056137	1.374256	-0.000162
 915	9.0943e+01	3.5758	12.119481	0.000274	2.737893	0.927623	-0.000110
 916	9.1043e+01	3.5373	11.994330	0.000314	3.143506	1.065049	-0.000126
 917	9.1142e+01	3.4972	11.840919	0.000385	3.853330	1.305544	-0.000154
 918	9.1242e+01	3.4684	11.695582	0.000365	3.650523	1.236831	-0.000146
 919	9.1341e+01	3.4250	11.558320	0.000345	3.447717	1.168118	-0.000138
 920	9.1441e+01	3.3801	11.429131	0.000324	3.244910	1.099405	-0.000130
 921	9.1540e+01	3.3496	11.291869	0.000345	3.447717	1.168118	-0.000138
 922	9.1639e+01	3.3079	11.178829	0.000284	2.839296	0.961980	-0.000114
 923	9.1739e+01	3.2662	11.025418	0.000385	3.853330	1.305544	-0.000154
 924	9.1838e+01	3.2277	10.900266	0.000314	3.143506	1.065049	-0.000126
 925	9.1938e+01	3.1780	10.746855	0.000385	3.853330	1.305544	-0.000154
 926	9.2037e+01	3.1411	10.629778	0.000294	2.940699	0.996336	-0.000118
 927	9.2137e+01	3.1010	10.504627	0.000314	3.143506	1.065049	-0.000126
 928	9.2237e+01	3.0641	10.399662	0.000264	2.636489	0.893267	-0.000105
 929	9.2336e+01	3.0288	10.238176	0.000406	4.056137	1.374256	-0.000162
 930	9.2436e+01	2.9823	10.108988	0.000324	3.244910	1.099405	-0.000130
 931	9.2535e+01	2.9454	9.939428	0.000426	4.258944	1.442969	-0.000170
 932	9.2635e+01	2.9085	9.794091	0.000365	3.650523	1.236831	-0.000146
 933	9.2734e+01	2.8587	9.668940	0.000314	3.143506	1.065049	-0.000126
 934	9.2834e+01	2.8251	9.568012	0.000254	2.535086	0.858910	-0.000101
 935	9.2933e+01	2.7882	9.386341	0.000456	4.563154	1.546039	-0.000183
 936	9.3032e+01	2.7497	9.309635	0.000193	1.926665	0.652772	-0.000077
 937	9.3132e+01	2.7128	9.111815	0.000497	4.968768	1.683464	-0.000199
 938	9.3231e+01	2.6694	9.002813	0.000274	2.737893	0.927623	-0.000110
 939	9.3331e+01	2.6261	8.841327	0.000406	4.056137	1.374256	-0.000162
 940	9.3430e+01	2.5844	8.720213	0.000304	3.042103	1.030692	-0.000122
 941	9.3530e+01	2.5507	8.574876	0.000365	3.650523	1.236831	-0.000146
 942	9.3629e+01	2.5106	8.417428	0.000395	3.954734	1.339900	-0.000158
 943	9.3729e+01	2.4737	8.300351	0.000294	2.940699	0.996336	-0.000118
 944	9.3829e+01	2.4272	8.146940	0.000385	3.853330	1.305544	-0.000154
 945	9.3928e+01	2.3967	8.046012	0.000254	2.535086	0.858910	-0.000101
 946	9.4028e+01	2.3534	7.888563	0.000395	3.954734	1.339900	-0.000158
 947	9.4127e+01	2.3165	7.743226	0.000365	3.650523	1.236831	-0.000146
 948	9.4227e+01	2.2636	7.610001	0.000335	3.346313	1.133762	-0.000134
 949	9.4326e+01	2.2267	7.460627	0.000375	3.751927	1.271187	-0.000150
 950	9.4425e+01	2.1898	7.327401	0.000335	3.346313	1.133762	-0.000134
 951	9.4525e+01	2.1465	7.218399	0.000274	2.737893	0.927623	-0.000110
 952	9.4624e+01	2.1144	7.052876	0.000416	4.157541	1.408613	-0.000166
 953	9.4724e+01	2.0727	6.887354	0.000416	4.157541	1.408613	-0.000166
 954	9.4823e+01	2.0245	6.782388	0.000264	2.636489	0.893267	-0.000105
 955	9.4923e+01	1.9941	6.649163	0.000335	3.346313	1.133762	-0.000134
 956	9.5022e+01	1.9379	6.483640	0.000416	4.157541	1.408613	-0.000166
 957	9.5122e+01	1.9090	6.366563	0.000294	2.940699	0.996336	-0.000118
 958	9.5222e+01	1.8641	6.201040	0.000416	4.157541	1.408613	-0.000166
 959	9.5321e+01	1.8240	6.108186	0.000233	2.332279	0.790197	-0.000093
 960	9.5421e+01	1.7823	5.914404	0.000487	4.867365	1.649108	-0.000195
 961	9.5520e+01	1.7518	5.801364	0.000284	2.839296	0.961980	-0.000114
 962	9.5620e+01	1.7085	5.639879	0.000406	4.056137	1.374256	-0.000162
 963	9.5719e+01	1.6668	5.542987	0.000243	2.433682	0.824554	-0.000097
 964	9.5819e+01	1.6299	5.373428	0.000426	4.258944	1.442969	-0.000170
 965	9.5918e+01	1.5946	5.244239	0.000324	3.244910	1.099405	-0.000130
 966	9.6017e+01	1.5433	5.094865	0.000375	3.751927	1.271187	-0.000150
 967	9.6117e+01	1.5160	4.937417	0.000395	3.954734	1.339900	-0.000158
 968	9.6216e+01	1.4791	4.812266	0.000314	3.143506	1.065049	-0.000126
 969	9.6316e+01	1.4358	4.666929	0.000365	3.650523	1.236831	-0.000146
 970	9.6415e+01	1.3925	4.525629	0.000355	3.549120	1.202474	-0.000142
 971	9.6515e+01	1.3443	4.412589	0.000284	2.839296	0.961980	-0.000114
 972	9.6615e+01	1.3123	4.243030	0.000426	4.258944	1.442969	-0.000170
 973	9.6714e+01	1.2738	4.117878	0.000314	3.143506	1.065049	-0.000126
 974	9.6814e+01	1.2288	3.964467	0.000385	3.853330	1.305544	-0.000154
 975	9.6913e+01	1.1935	3.847390	0.000294	2.940699	0.996336	-0.000118
 976	9.7013e+01	1.1534	3.681868	0.000416	4.157541	1.408613	-0.000166
 977	9.7112e+01	1.1005	3.564791	0.000294	2.940699	0.996336	-0.000118
 978	9.7212e+01	1.0684	3.379083	0.000466	4.664558	1.580395	-0.000187
 979	9.7311e+01	1.0331	3.241820	0.000345	3.447717	1.168118	-0.000138
 980	9.7410e+01	0.9898	3.116669	0.000314	3.143506	1.065049	-0.000126
 981	9.7510e+01	0.9545	3.027852	0.000223	2.230875	0.755841	-0.000089
 982	9.7609e+01	0.9160	2.870404	0.000395	3.954734	1.339900	-0.000158
 983	9.7709e+01	0.8631	2.700844	0.000426	4.258944	1.442969	-0.000170
 984	9.7808e+01	0.8246	2.620101	0.000203	2.028069	0.687128	-0.000081
 985	9.7908e+01	0.7877	2.398059	0.000558	5.577189	1.889603	-0.000223
 986	9.8007e+01	0.7460	2.293093	0.000264	2.636489	0.893267	-0.000105
 987	9.8107e+01	0.7075	2.143719	0.000375	3.751927	1.271187	-0.000150
 988	9.8207e+01	0.6674	2.006456	0.000345	3.447717	1.168118	-0.000138
 989	9.8306e+01	0.6321	1.873231	0.000335	3.346313	1.133762	-0.000134
 990	9.8406e+01	0.5888	1.727894	0.000365	3.650523	1.236831	-0.000146
 991	9.8505e+01	0.5551	1.562372	0.000416	4.157541	1.408613	-0.000166
 992	9.8605e+01	0.5230	1.457406	0.000264	2.636489	0.893267	-0.000105
 993	9.8704e+01	0.4732	1.336292	0.000304	3.042103	1.030692	-0.000122
 994	9.8803e+01	0.4347	1.166732	0.000426	4.258944	1.442969	-0.000170
 995	9.8903e+01	0.3898	1.045618	0.000304	3.042103	1.030692	-0.000122
 996	9.9002e+01	0.3593	0.904318	0.000355	3.549120	1.202474	-0.000142
 997	9.9102e+01	0.3144	0.767056	0.000345	3.447717	1.168118	-0.000138
 998	9.9201e+01	0.2679	0.629793	0.000345	3.447717	1.168118	-0.000138
 999	9.9301e+01	0.2358	0.480419	0.000375	3.751927	1.271187	-0.000150
1000	9.9400e+01	0.1989	0.351231	0.000324	3.244910	1.099405	-0.000130
1001	9.9500e+01	0.1556	0.181671	0.000426	4.258944	1.442969	-0.000170
1002	9.9600e+01	0.1155	0.068631	0.000284	2.839296	0.961980	-0.000114
1003	9.9699e+01	0.0786	-0.068631	0.000345	3.447717	1.168118	-0.000138
1004	9.9799e+01	0.0305	-0.205894	0.000345	3.447717	1.168118	-0.000138
1005	9.9898e+01	-0.0032	-0.314897	0.000274	2.737893	0.927623	-0.000110
1006	9.9998e+01	-0.0401	-0.460233	0.000365	3.650523	1.236831	-0.000146
1007	1.0010e+02	-0.0674	-0.589422	0.000324	3.244910	1.099405	-0.000130
1008	1.0020e+02	-0.1091	-0.714573	0.000314	3.143506	1.065049	-0.000126
1009	1.0030e+02	-0.1572	-0.900281	0.000466	4.664558	1.580395	-0.000187
1010	1.0040e+02	-0.1925	-0.989098	0.000223	2.230875	0.755841	-0.000089
1011	1.0050e+02	-0.2294	-1.178844	0.000477	4.765961	1.614751	-0.000191
1012	1.0059e+02	-0.2807	-1.259586	0.000203	2.028069	0.687128	-0.000081
1013	1.0069e+02	-0.3192	-1.404923	0.000365	3.650523	1.236831	-0.000146
1014	1.0079e+02	-0.3577	-1.574483	0.000426	4.258944	1.442969	-0.000170
1015	1.0089e+02	-0.4075	-1.675411	0.000254	2.535086	0.858910	-0.000101
1016	1.0099e+02	-0.4460	-1.832860	0.000395	3.954734	1.339900	-0.000158
1017	1.0109e+02	-0.4813	-1.978197	0.000365	3.650523	1.236831	-0.000146
1018	1.0119e+02	-0.5182	-2.095273	0.000294	2.940699	0.996336	-0.000118
1019	1.0129e+02	-0.5551	-2.212350	0.000294	2.940699	0.996336	-0.000118
1020	1.0139e+02	-0.6032	-2.398059	0.000466	4.664558	1.580395	-0.000187
1021	1.0149e+02	-0.6321	-2.523210	0.000314	3.143506	1.065049	-0.000126
1022	1.0159e+02	-0.6882	-2.680658	0.000395	3.954734	1.339900	-0.000158
1023	1.0169e+02	-0.7155	-2.805809	0.000314	3.143506	1.065049	-0.000126
1024	1.0179e+02	-0.7572	-2.943072	0.000345	3.447717	1.168118	-0.000138
1025	1.0189e+02	-0.8005	-3.064186	0.000304	3.042103	1.030692	-0.000122
1026	1.0199e+02	-0.8422	-3.209523	0.000365	3.650523	1.236831	-0.000146
1027	1.0209e+02	-0.8839	-3.379083	0.000426	4.258944	1.442969	-0.000170
1028	1.0219e+02	-0.9128	-3.484048	0.000264	2.636489	0.893267	-0.000105
1029	1.0229e+02	-0.9561	-3.645534	0.000406	4.056137	1.374256	-0.000162
1030	1.0239e+02	-0.9930	-3.774722	0.000324	3.244910	1.099405	-0.000130
1031	1.0248e+02	-1.0267	-3.911985	0.000345	3.447717	1.168118	-0.000138
1032	1.0258e+02	-1.0861	-4.020987	0.000274	2.737893	0.927623	-0.000110
1033	1.0268e+02	-1.1101	-4.125953	0.000264	2.636489	0.893267	-0.000105
1034	1.0278e+02	-1.1374	-4.279364	0.000385	3.853330	1.305544	-0.000154
1035	1.0288e+02	-1.1871	-4.440849	0.000406	4.056137	1.374256	-0.000162
1036	1.0298e+02	-1.2321	-4.586186	0.000365	3.650523	1.236831	-0.000146
1037	1.0308e+02	-1.2738	-4.687115	0.000254	2.535086	0.858910	-0.000101
1038	1.0318e+02	-1.3203	-4.832451	0.000365	3.650523	1.236831	-0.000146
1039	1.0328e+02	-1.3556	-4.981826	0.000375	3.751927	1.271187	-0.000150
1040	1.0338e+02	-1.3877	-5.151385	0.000426	4.258944	1.442969	-0.000170
1041	1.0348e+02	-1.4294	-5.207905	0.000142	1.419648	0.480990	-0.000057
1042	1.0358e+02	-1.4615	-5.361316	0.000385	3.853330	1.305544	-0.000154
1043	1.0368e+02	-1.5160	-5.510690	0.000375	3.751927	1.271187	-0.000150
1044	1.0378e+02	-1.5513	-5.680250	0.000426	4.258944	1.442969	-0.000170
1045	1.0388e+02	-1.5930	-5.760993	0.000203	2.028069	0.687128	-0.000081
1046	1.0398e+02	-1.6267	-5.962849	0.000507	5.070171	1.717821	-0.000203
1047	1.0408e+02	-1.6652	-6.063778	0.000254	2.535086	0.858910	-0.000101
1048	1.0418e+02	-1.7117	-6.180855	0.000294	2.940699	0.996336	-0.000118
1049	1.0428e+02	-1.7374	-6.346377	0.000416	4.157541	1.408613	-0.000166
1050	1.0438e+02	-1.7855	-6.467491	0.000304	3.042103	1.030692	-0.000122
1051	1.0447e+02	-1.8272	-6.592643	0.000314	3.143506	1.065049	-0.000126
1052	1.0457e+02	-1.8641	-6.713757	0.000304	3.042103	1.030692	-0.000122
1053	1.0467e+02	-1.9219	-6.867168	0.000385	3.853330	1.305544	-0.000154
1054	1.0477e+02	-1.9427	-7.012505	0.000365	3.650523	1.236831	-0.000146
1055	1.0487e+02	-1.9925	-7.149767	0.000345	3.447717	1.168118	-0.000138
1056	1.0497e+02	-2.0326	-7.238584	0.000223	2.230875	0.755841	-0.000089
1057	1.0507e+02	-2.0727	-7.400070	0.000406	4.056137	1.374256	-0.000162
1058	1.0517e+02	-2.1048	-7.517147	0.000294	2.940699	0.996336	-0.000118
1059	1.0527e+02	-2.1497	-7.654409	0.000345	3.447717	1.168118	-0.000138
1060	1.0537e+02	-2.1994	-7.848192	0.000487	4.867365	1.649108	-0.000195
1061	1.0547e+02	-2.2315	-7.924897	0.000193	1.926665	0.652772	-0.000077
1062	1.0557e+02	-2.2732	-8.058123	0.000335	3.346313	1.133762	-0.000134
1063	1.0567e+02	-2.3053	-8.231720	0.000436	4.360347	1.477326	-0.000174
1064	1.0577e+02	-2.3470	-8.328611	0.000243	2.433682	0.824554	-0.000097
1065	1.0587e+02	-2.3887	-8.473948	0.000365	3.650523	1.236831	-0.000146
1066	1.0597e+02	-2.4288	-8.619285	0.000365	3.650523	1.236831	-0.000146
1067	1.0607e+02	-2.4785	-8.780770	0.000406	4.056137	1.374256	-0.000162
1068	1.0617e+02	-2.5042	-8.893810	0.000284	2.839296	0.961980	-0.000114
1069	1.0627e+02	-2.5427	-8.994738	0.000254	2.535086	0.858910	-0.000101
1070	1.0637e+02	-2.5876	-9.144112	0.000375	3.751927	1.271187	-0.000150
1071	1.0647e+02	-2.6149	-9.277338	0.000335	3.346313	1.133762	-0.000134
1072	1.0656e+02	-2.6582	-9.402489	0.000314	3.143506	1.065049	-0.000126
1073	1.0666e+02	-2.7160	-9.563975	0.000406	4.056137	1.374256	-0.000162
1074	1.0676e+02	-2.7497	-9.705274	0.000355	3.549120	1.202474	-0.000142
1075	1.0686e+02	-2.7866	-9.822351	0.000294	2.940699	0.996336	-0.000118
1076	1.0696e+02	-2.8331	-9.895020	0.000183	1.825262	0.618415	-0.000073
1077	1.0706e+02	-2.8668	-10.104951	0.000527	5.272978	1.786533	-0.000211
1078	1.0716e+02	-2.9101	-10.213953	0.000274	2.737893	0.927623	-0.000110
1079	1.0726e+02	-2.9454	-10.379476	0.000416	4.157541	1.408613	-0.000166
1080	1.0736e+02	-2.9887	-10.512701	0.000335	3.346313	1.133762	-0.000134
1081	1.0746e+02	-3.0208	-10.633816	0.000304	3.042103	1.030692	-0.000122
1082	1.0756e+02	-3.0689	-10.779152	0.000365	3.650523	1.236831	-0.000146
1083	1.0766e+02	-3.1058	-10.884118	0.000264	2.636489	0.893267	-0.000105
1084	1.0776e+02	-3.1411	-11.053678	0.000426	4.258944	1.442969	-0.000170
1085	1.0786e+02	-3.1828	-11.190940	0.000345	3.447717	1.168118	-0.000138
1086	1.0796e+02	-3.2213	-11.303980	0.000284	2.839296	0.961980	-0.000114
1087	1.0806e+02	-3.2598	-11.445280	0.000355	3.549120	1.202474	-0.000142
1088	1.0816e+02	-3.3063	-11.566394	0.000304	3.042103	1.030692	-0.000122
1089	1.0826e+02	-3.3384	-11.695582	0.000324	3.244910	1.099405	-0.000130
1090	1.0836e+02	-3.3817	-11.832845	0.000345	3.447717	1.168118	-0.000138
1091	1.0845e+02	-3.4218	-11.982219	0.000375	3.751927	1.271187	-0.000150
1092	1.0855e+02	-3.4619	-12.123519	0.000355	3.549120	1.202474	-0.000142
1093	1.0865e+02	-3.5069	-12.252707	0.000324	3.244910	1.099405	-0.000130
1094	1.0875e+02	-3.5438	-12.381895	0.000324	3.244910	1.099405	-0.000130
1095	1.0885e+02	-3.5871	-12.555492	0.000436	4.360347	1.477326	-0.000174
1096	1.0895e+02	-3.6208	-12.612012	0.000142	1.419648	0.480990	-0.000057
1097	1.0905e+02	-3.6721	-12.801757	0.000477	4.765961	1.614751	-0.000191
1098	1.0915e+02	-3.6945	-12.991503	0.000477	4.765961	1.614751	-0.000191
1099	1.0925e+02	-3.7427	-13.092431	0.000254	2.535086	0.858910	-0.000101
1100	1.0935e+02	-3.7860	-13.209508	0.000294	2.940699	0.996336	-0.000118
1101	1.0945e+02	-3.8213	-13.366956	0.000395	3.954734	1.339900	-0.000158
1102	1.0955e+02	-3.8598	-13.467885	0.000254	2.535086	0.858910	-0.000101
1103	1.0965e+02	-3.9031	-13.584962	0.000294	2.940699	0.996336	-0.000118
1104	1.0975e+02	-3.9368	-13.746447	0.000406	4.056137	1.374256	-0.000162
1105	1.0985e+02	-3.9865	-13.879673	0.000335	3.346313	1.133762	-0.000134
1106	1.0995e+02	-4.0250	-14.008861	0.000324	3.244910	1.099405	-0.000130
1107	1.1005e+02	-4.0571	-14.134012	0.000314	3.143506	1.065049	-0.000126
1108	1.1015e+02	-4.0972	-14.263201	0.000324	3.244910	1.099405	-0.000130
1109	1.1025e+02	-4.1469	-14.424686	0.000406	4.056137	1.374256	-0.000162
1110	1.1035e+02	-4.1678	-14.553874	0.000324	3.244910	1.099405	-0.000130
1111	1.1044e+02	-4.2127	-14.703248	0.000375	3.751927	1.271187	-0.000150
1112	1.1054e+02	-4.2657	-14.820325	0.000294	2.940699	0.996336	-0.000118
1113	1.1064e+02	-4.2961	-14.977774	0.000395	3.954734	1.339900	-0.000158
1114	1.1074e+02	-4.3330	-15.106962	0.000324	3.244910	1.099405	-0.000130
1115	1.1084e+02	-4.3828	-15.220002	0.000284	2.839296	0.961980	-0.000114
1116	1.1094e+02	-4.4245	-15.361301	0.000355	3.549120	1.202474	-0.000142
1117	1.1104e+02	-4.4630	-15.526824	0.000416	4.157541	1.408613	-0.000166
1118	1.1114e+02	-4.5015	-15.611604	0.000213	2.129472	0.721485	-0.000085
1119	1.1124e+02	-4.5416	-15.781164	0.000426	4.258944	1.442969	-0.000170
1120	1.1134e+02	-4.5785	-15.914389	0.000335	3.346313	1.133762	-0.000134
1121	1.1144e+02	-4.6218	-16.043577	0.000324	3.244910	1.099405	-0.000130
1122	1.1154e+02	-4.6539	-16.176803	0.000335	3.346313	1.133762	-0.000134
1123	1.1164e+02	-4.6972	-16.318103	0.000355	3.549120	1.202474	-0.000142
1124	1.1174e+02	-4.7405	-16.459402	0.000355	3.549120	1.202474	-0.000142
1125	1.1184e+02	-4.7694	-16.608776	0.000375	3.751927	1.271187	-0.000150
1126	1.1194e+02	-4.8271	-16.733928	0.000314	3.143506	1.065049	-0.000126
1127	1.1204e+02	-4.8480	-16.871190	0.000345	3.447717	1.168118	-0.000138
1128	1.1214e+02	-4.8945	-16.984230	0.000284	2.839296	0.961980	-0.000114
1129	1.1224e+02	-4.9314	-17.121493	0.000345	3.447717	1.168118	-0.000138
1130	1.1234e+02	-4.9747	-17.266830	0.000365	3.650523	1.236831	-0.000146
1131	1.1244e+02	-5.0180	-17.400055	0.000335	3.346313	1.133762	-0.000134
1132	1.1253e+02	-5.0517	-17.513095	0.000284	2.839296	0.961980	-0.000114
1133	1.1263e+02	-5.0966	-17.634209	0.000304	3.042103	1.030692	-0.000122
1134	1.1273e+02	-5.1400	-17.803769	0.000426	4.258944	1.442969	-0.000170
1135	1.1283e+02	-5.1785	-17.953143	0.000375	3.751927	1.271187	-0.000150
1136	1.1293e+02	-5.2170	-18.090405	0.000345	3.447717	1.168118	-0.000138
1137	1.1303e+02	-5.2651	-18.215556	0.000314	3.143506	1.065049	-0.000126
1138	1.1313e+02	-5.2908	-18.328596	0.000284	2.839296	0.961980	-0.000114
1139	1.1323e+02	-5.3373	-18.477970	0.000375	3.751927	1.271187	-0.000150
1140	1.1333e+02	-5.3694	-18.619270	0.000355	3.549120	1.202474	-0.000142
1141	1.1343e+02	-5.4207	-18.776718	0.000395	3.954734	1.339900	-0.000158
1142	1.1353e+02	-5.4560	-18.905907	0.000324	3.244910	1.099405	-0.000130
1143	1.1363e+02	-5.4865	-18.978575	0.000183	1.825262	0.618415	-0.000073
1144	1.1373e+02	-5.5362	-19.095652	0.000294	2.940699	0.996336	-0.000118
1145	1.1383e+02	-5.5843	-19.257137	0.000406	4.056137	1.374256	-0.000162
1146	1.1393e+02	-5.6148	-19.382289	0.000314	3.143506	1.065049	-0.000126
1147	1.1403e+02	-5.6549	-19.519551	0.000345	3.447717	1.168118	-0.000138
1148	1.1413e+02	-5.6950	-19.652777	0.000335	3.346313	1.133762	-0.000134
1149	1.1423e+02	-5.7415	-19.753705	0.000254	2.535086	0.858910	-0.000101
1150	1.1433e+02	-5.7752	-19.919228	0.000416	4.157541	1.408613	-0.000166
1151	1.1442e+02	-5.8153	-20.068602	0.000375	3.751927	1.271187	-0.000150
1152	1.1452e+02	-5.8490	-20.189716	0.000304	3.042103	1.030692	-0.000122
1153	1.1462e+02	-5.9036	-20.298718	0.000274	2.737893	0.927623	-0.000110
1154	1.1472e+02	-5.9341	-20.456167	0.000395	3.954734	1.339900	-0.000158
1155	1.1482e+02	-5.9694	-20.597467	0.000355	3.549120	1.202474	-0.000142
1156	1.1492e+02	-6.0159	-20.714543	0.000294	2.940699	0.996336	-0.000118
1157	1.1502e+02	-6.0528	-20.859880	0.000365	3.650523	1.236831	-0.000146
1158	1.1512e+02	-6.0913	-20.964846	0.000264	2.636489	0.893267	-0.000105
1159	1.1522e+02	-6.1266	-21.089997	0.000314	3.143506	1.065049	-0.000126
1160	1.1532e+02	-6.1763	-21.255520	0.000416	4.157541	1.408613	-0.000166
1161	1.1542e+02	-6.2052	-21.384708	0.000324	3.244910	1.099405	-0.000130
1162	1.1552e+02	-6.2501	-21.517933	0.000335	3.346313	1.133762	-0.000134
1163	1.1562e+02	-6.2918	-21.651159	0.000335	3.346313	1.133762	-0.000134
1164	1.1572e+02	-6.3303	-21.796496	0.000365	3.650523	1.236831	-0.000146
1165	1.1582e+02	-6.3688	-21.913573	0.000294	2.940699	0.996336	-0.000118
1166	1.1592e+02	-6.4137	-22.034687	0.000304	3.042103	1.030692	-0.000122
1167	1.1602e+02	-6.4570	-22.163875	0.000324	3.244910	1.099405	-0.000130
1168	1.1612e+02	-6.4859	-22.297101	0.000335	3.346313	1.133762	-0.000134
1169	1.1622e+02	-6.5260	-22.353621	0.000142	1.419648	0.480990	-0.000057
1170	1.1632e+02	-6.5661	-22.482809	0.000324	3.244910	1.099405	-0.000130
1171	1.1642e+02	-6.5998	-22.680629	0.000497	4.968768	1.683464	-0.000199
1172	1.1651e+02	-6.6544	-22.797706	0.000294	2.940699	0.996336	-0.000118
1173	1.1661e+02	-6.6913	-22.922857	0.000314	3.143506	1.065049	-0.000126
1174	1.1671e+02	-6.7330	-23.043971	0.000304	3.042103	1.030692	-0.000122
1175	1.1681e+02	-6.7763	-23.152973	0.000274	2.737893	0.927623	-0.000110
1176	1.1691e+02	-6.8019	-23.306385	0.000385	3.853330	1.305544	-0.000154
1177	1.1701e+02	-6.8485	-23.427499	0.000304	3.042103	1.030692	-0.000122
1178	1.1711e+02	-6.8966	-23.576873	0.000375	3.751927	1.271187	-0.000150
1179	1.1721e+02	-6.9287	-23.665690	0.000223	2.230875	0.755841	-0.000089
1180	1.1731e+02	-6.9704	-23.782767	0.000294	2.940699	0.996336	-0.000118
1181	1.1741e+02	-7.0041	-23.895806	0.000284	2.839296	0.961980	-0.000114
1182	1.1751e+02	-7.0474	-24.069403	0.000436	4.360347	1.477326	-0.000174
1183	1.1761e+02	-7.0811	-24.186480	0.000294	2.940699	0.996336	-0.000118
1184	1.1771e+02	-7.1276	-24.335854	0.000375	3.751927	1.271187	-0.000150
1185	1.1781e+02	-7.1677	-24.436783	0.000254	2.535086	0.858910	-0.000101
1186	1.1791e+02	-7.1982	-24.578082	0.000355	3.549120	1.202474	-0.000142
1187	1.1801e+02	-7.2383	-24.699196	0.000304	3.042103	1.030692	-0.000122
1188	1.1811e+02	-7.2864	-24.860682	0.000406	4.056137	1.374256	-0.000162
1189	1.1821e+02	-7.3265	-24.913165	0.000132	1.318245	0.446633	-0.000053
1190	1.1831e+02	-7.3666	-25.102910	0.000477	4.765961	1.614751	-0.000191
1191	1.1841e+02	-7.4083	-25.175578	0.000183	1.825262	0.618415	-0.000073
1192	1.1850e+02	-7.4485	-25.308804	0.000335	3.346313	1.133762	-0.000134
1193	1.1860e+02	-7.4854	-25.417807	0.000274	2.737893	0.927623	-0.000110
1194	1.1870e+02	-7.5239	-25.599478	0.000456	4.563154	1.546039	-0.000183
1195	1.1880e+02	-7.5672	-25.744815	0.000365	3.650523	1.236831	-0.000146
1196	1.1890e+02	-7.6073	-25.785186	0.000101	1.014034	0.343564	-0.000041
1197	1.1900e+02	-7.6506	-25.966857	0.000456	4.563154	1.546039	-0.000183
1198	1.1910e+02	-7.6811	-26.047600	0.000203	2.028069	0.687128	-0.000081
1199	1.1920e+02	-7.7212	-26.192937	0.000365	3.650523	1.236831	-0.000146
1200	1.1930e+02	-7.7597	-26.326162	0.000335	3.346313	1.133762	-0.000134
1201	1.1940e+02	-7.8014	-26.455350	0.000324	3.244910	1.099405	-0.000130
1202	1.1950e+02	-7.8495	-26.536093	0.000203	2.028069	0.687128	-0.000081
1203	1.1960e+02	-7.8848	-26.697579	0.000406	4.056137	1.374256	-0.000162
1204	1.1970e+02	-7.9137	-26.782358	0.000213	2.129472	0.721485	-0.000085
1205	1.1980e+02	-7.9698	-26.976141	0.000487	4.867365	1.649108	-0.000195
1206	1.1990e+02	-8.0067	-27.044772	0.000172	1.723858	0.584059	-0.000069
1207	1.2000e+02	-8.0436	-27.165886	0.000304	3.042103	1.030692	-0.000122
1208	1.2010e+02	-8.0789	-27.299112	0.000335	3.346313	1.133762	-0.000134
1209	1.2020e+02	-8.1190	-27.359669	0.000152	1.521051	0.515346	-0.000061
1210	1.2030e+02	-8.1623	-27.549414	0.000477	4.765961	1.614751	-0.000191
1211	1.2039e+02	-8.2024	-27.634194	0.000213	2.129472	0.721485	-0.000085
1212	1.2049e+02	-8.2425	-27.779531	0.000365	3.650523	1.236831	-0.000146
1213	1.2059e+02	-8.2923	-27.836051	0.000142	1.419648	0.480990	-0.000057
1214	1.2069e+02	-8.3260	-27.993499	0.000395	3.954734	1.339900	-0.000158
1215	1.2079e+02	-8.3693	-28.159022	0.000416	4.157541	1.408613	-0.000166
1216	1.2089e+02	-8.3966	-28.247839	0.000223	2.230875	0.755841	-0.000089
1217	1.2099e+02	-8.4431	-28.368953	0.000304	3.042103	1.030692	-0.000122
1218	1.2109e+02	-8.4800	-28.477955	0.000274	2.737893	0.927623	-0.000110
1219	1.2119e+02	-8.5297	-28.615218	0.000345	3.447717	1.168118	-0.000138
1220	1.2129e+02	-8.5602	-28.704035	0.000223	2.230875	0.755841	-0.000089
1221	1.2139e+02	-8.6051	-28.829186	0.000314	3.143506	1.065049	-0.000126
1222	1.2149e+02	-8.6436	-28.946263	0.000294	2.940699	0.996336	-0.000118
1223	1.2159e+02	-8.6741	-29.075452	0.000324	3.244910	1.099405	-0.000130
1224	1.2169e+02	-8.7190	-29.240974	0.000416	4.157541	1.408613	-0.000166
1225	1.2179e+02	-8.7671	-29.341903	0.000254	2.535086	0.858910	-0.000101
1226	1.2189e+02	-8.8008	-29.475128	0.000335	3.346313	1.133762	-0.000134
1227	1.2199e+02	-8.8329	-29.588168	0.000284	2.839296	0.961980	-0.000114
1228	1.2209e+02	-8.8762	-29.701208	0.000284	2.839296	0.961980	-0.000114
1229	1.2219e+02	-8.9211	-29.798099	0.000243	2.433682	0.824554	-0.000097
1230	1.2229e+02	-8.9532	-29.963621	0.000416	4.157541	1.408613	-0.000166
1231	1.2239e+02	-8.9949	-30.072624	0.000274	2.737893	0.927623	-0.000110
1232	1.2248e+02	-9.0350	-30.185664	0.000284	2.839296	0.961980	-0.000114
1233	1.2258e+02	-9.0735	-30.351186	0.000416	4.157541	1.408613	-0.000166
1234	1.2268e+02	-9.1185	-30.423855	0.000183	1.825262	0.618415	-0.000073
1235	1.2278e+02	-9.1650	-30.569192	0.000365	3.650523	1.236831	-0.000146
1236	1.2288e+02	-9.2067	-30.658009	0.000223	2.230875	0.755841	-0.000089
1237	1.2298e+02	-9.2420	-30.742789	0.000213	2.129472	0.721485	-0.000085
1238	1.2308e+02	-9.2805	-30.867940	0.000314	3.143506	1.065049	-0.000126
1239	1.2318e+02	-9.3158	-31.001165	0.000335	3.346313	1.133762	-0.000134
1240	1.2328e+02	-9.3671	-31.122279	0.000304	3.042103	1.030692	-0.000122
1241	1.2338e+02	-9.4056	-31.275691	0.000385	3.853330	1.305544	-0.000154
1242	1.2348e+02	-9.4345	-31.364508	0.000223	2.230875	0.755841	-0.000089
1243	1.2358e+02	-9.4890	-31.505807	0.000355	3.549120	1.202474	-0.000142
1244	1.2368e+02	-9.5179	-31.590587	0.000213	2.129472	0.721485	-0.000085
1245	1.2378e+02	-9.5596	-31.703627	0.000284	2.839296	0.961980	-0.000114
1246	1.2388e+02	-9.5997	-31.848964	0.000365	3.650523	1.236831	-0.000146
1247	1.2398e+02	-9.6286	-32.002375	0.000385	3.853330	1.305544	-0.000154
1248	1.2408e+02	-9.6751	-32.091192	0.000223	2.230875	0.755841	-0.000089
1249	1.2418e+02	-9.7200	-32.200195	0.000274	2.737893	0.927623	-0.000110
1250	1.2428e+02	-9.7473	-32.297086	0.000243	2.433682	0.824554	-0.000097
1251	1.2438e+02	-9.7987	-32.454534	0.000395	3.954734	1.339900	-0.000158
1252	1.2447e+02	-9.8388	-32.511054	0.000142	1.419648	0.480990	-0.000057
1253	1.2457e+02	-9.8692	-32.676577	0.000416	4.157541	1.408613	-0.000166
1254	1.2467e+02	-9.9110	-32.793654	0.000294	2.940699	0.996336	-0.000118
1255	1.2477e+02	-9.9607	-32.894582	0.000254	2.535086	0.858910	-0.000101
1256	1.2487e+02	-9.9960	-33.052030	0.000395	3.954734	1.339900	-0.000158
1257	1.2497e+02	-10.0361	-33.165070	0.000284	2.839296	0.961980	-0.000114
1258	1.2507e+02	-10.0682	-33.233701	0.000172	1.723858	0.584059	-0.000069
1259	1.2517e+02	-10.1243	-33.387113	0.000385	3.853330	1.305544	-0.000154
1260	1.2527e+02	-10.1660	-33.512264	0.000314	3.143506	1.065049	-0.000126
1261	1.2537e+02	-10.1981	-33.617229	0.000264	2.636489	0.893267	-0.000105
1262	1.2547e+02	-10.2302	-33.730269	0.000284	2.839296	0.961980	-0.000114
1263	1.2557e+02	-10.2799	-33.859457	0.000324	3.244910	1.099405	-0.000130
1264	1.2567e+02	-10.3200	-33.984609	0.000314	3.143506	1.065049	-0.000126
1265	1.2577e+02	-10.3569	-34.085537	0.000254	2.535086	0.858910	-0.000101
1266	1.2587e+02	-10.3938	-34.206651	0.000304	3.042103	1.030692	-0.000122
1267	1.2597e+02	-10.4275	-34.351988	0.000365	3.650523	1.236831	-0.000146
1268	1.2607e+02	-10.4692	-34.465028	0.000284	2.839296	0.961980	-0.000114
1269	1.2617e+02	-10.5061	-34.557882	0.000233	2.332279	0.790197	-0.000093
1270	1.2627e+02	-10.5478	-34.678996	0.000304	3.042103	1.030692	-0.000122
1271	1.2636e+02	-10.5992	-34.812221	0.000335	3.346313	1.133762	-0.000134
1272	1.2646e+02	-10.6313	-34.909113	0.000243	2.433682	0.824554	-0.000097
1273	1.2656e+02	-10.6730	-35.078672	0.000426	4.258944	1.442969	-0.000170
1274	1.2666e+02	-10.7163	-35.155378	0.000193	1.926665	0.652772	-0.000077
1275	1.2676e+02	-10.7580	-35.248232	0.000233	2.332279	0.790197	-0.000093
1276	1.2686e+02	-10.7869	-35.413755	0.000416	4.157541	1.408613	-0.000166
1277	1.2696e+02	-10.8334	-35.542943	0.000324	3.244910	1.099405	-0.000130
1278	1.2706e+02	-10.8687	-35.611574	0.000172	1.723858	0.584059	-0.000069
1279	1.2716e+02	-10.9120	-35.736726	0.000314	3.143506	1.065049	-0.000126
1280	1.2726e+02	-10.9537	-35.878025	0.000355	3.549120	1.202474	-0.000142
1281	1.2736e+02	-10.9986	-35.987028	0.000274	2.737893	0.927623	-0.000110
1282	1.2746e+02	-11.0323	-36.108142	0.000304	3.042103	1.030692	-0.000122
1283	1.2756e+02	-11.0740	-36.257516	0.000375	3.751927	1.271187	-0.000150
1284	1.2766e+02	-11.1061	-36.346333	0.000223	2.230875	0.755841	-0.000089
1285	1.2776e+02	-11.1558	-36.463410	0.000294	2.940699	0.996336	-0.000118
1286	1.2786e+02	-11.1815	-36.568376	0.000264	2.636489	0.893267	-0.000105
1287	1.2796e+02	-11.2248	-36.701601	0.000335	3.346313	1.133762	-0.000134
1288	1.2806e+02	-11.2729	-36.786381	0.000213	2.129472	0.721485	-0.000085
1289	1.2816e+02	-11.3082	-36.923643	0.000345	3.447717	1.168118	-0.000138
1290	1.2826e+02	-11.3564	-37.032646	0.000274	2.737893	0.927623	-0.000110
1291	1.2835e+02	-11.3901	-37.182020	0.000375	3.751927	1.271187	-0.000150
1292	1.2845e+02	-11.4237	-37.254689	0.000183	1.825262	0.618415	-0.000073
1293	1.2855e+02	-11.4703	-37.408100	0.000385	3.853330	1.305544	-0.000154
1294	1.2865e+02	-11.5072	-37.513065	0.000264	2.636489	0.893267	-0.000105
1295	1.2875e+02	-11.5457	-37.658402	0.000365	3.650523	1.236831	-0.000146
1296	1.2885e+02	-11.5874	-37.739145	0.000203	2.028069	0.687128	-0.000081
1297	1.2895e+02	-11.6259	-37.840073	0.000254	2.535086	0.858910	-0.000101
1298	1.2905e+02	-11.6724	-38.005596	0.000416	4.157541	1.408613	-0.000166
1299	1.2915e+02	-11.7157	-38.098450	0.000233	2.332279	0.790197	-0.000093
1300	1.2925e+02	-11.7494	-38.247824	0.000375	3.751927	1.271187	-0.000150
1301	1.2935e+02	-11.7863	-38.308381	0.000152	1.521051	0.515346	-0.000061
1302	1.2945e+02	-11.8248	-38.457755	0.000375	3.751927	1.271187	-0.000150
1303	1.2955e+02	-11.8761	-38.566758	0.000274	2.737893	0.927623	-0.000110
1304	1.2965e+02	-11.9114	-38.683835	0.000294	2.940699	0.996336	-0.000118
1305	1.2975e+02	-11.9467	-38.800912	0.000294	2.940699	0.996336	-0.000118
1306	1.2985e+02	-11.9948	-38.942211	0.000355	3.549120	1.202474	-0.000142
1307	1.2995e+02	-12.0269	-39.059288	0.000294	2.940699	0.996336	-0.000118
1308	1.3005e+02	-12.0751	-39.127920	0.000172	1.723858	0.584059	-0.000069
1309	1.3015e+02	-12.1071	-39.297479	0.000426	4.258944	1.442969	-0.000170
1310	1.3025e+02	-12.1473	-39.394371	0.000243	2.433682	0.824554	-0.000097
1311	1.3034e+02	-12.1874	-39.503373	0.000274	2.737893	0.927623	-0.000110
1312	1.3044e+02	-12.2323	-39.628524	0.000314	3.143506	1.065049	-0.000126
1313	1.3054e+02	-12.2708	-39.713304	0.000213	2.129472	0.721485	-0.000085
1314	1.3064e+02	-12.3077	-39.858641	0.000365	3.650523	1.236831	-0.000146
1315	1.3074e+02	-12.3446	-39.991867	0.000335	3.346313	1.133762	-0.000134
1316	1.3084e+02	-12.3831	-40.044349	0.000132	1.318245	0.446633	-0.000053
1317	1.3094e+02	-12.4264	-40.197761	0.000385	3.853330	1.305544	-0.000154
1318	1.3104e+02	-12.4649	-40.298689	0.000254	2.535086	0.858910	-0.000101
1319	1.3114e+02	-12.5146	-40.427877	0.000324	3.244910	1.099405	-0.000130
1320	1.3124e+02	-12.5499	-40.504583	0.000193	1.926665	0.652772	-0.000077
1321	1.3134e+02	-12.5836	-40.645883	0.000355	3.549120	1.202474	-0.000142
1322	1.3144e+02	-12.6221	-40.746811	0.000254	2.535086	0.858910	-0.000101
1323	1.3154e+02	-12.6654	-40.875999	0.000324	3.244910	1.099405	-0.000130
1324	1.3164e+02	-12.7087	-41.025373	0.000375	3.751927	1.271187	-0.000150
1325	1.3174e+02	-12.7440	-41.089968	0.000162	1.622455	0.549703	-0.000065
1326	1.3184e+02	-12.7761	-41.211082	0.000304	3.042103	1.030692	-0.000122
1327	1.3194e+02	-12.8226	-41.332196	0.000304	3.042103	1.030692	-0.000122
1328	1.3204e+02	-12.8676	-41.465421	0.000335	3.346313	1.133762	-0.000134
1329	1.3214e+02	-12.9061	-41.574424	0.000274	2.737893	0.927623	-0.000110
1330	1.3224e+02	-12.9397	-41.691501	0.000294	2.940699	0.996336	-0.000118
1331	1.3234e+02	-12.9798	-41.784355	0.000233	2.332279	0.790197	-0.000093
1332	1.3243e+02	-13.0103	-41.929692	0.000365	3.650523	1.236831	-0.000146
1333	1.3253e+02	-13.0504	-41.982175	0.000132	1.318245	0.446633	-0.000053
1334	1.3263e+02	-13.0970	-42.131549	0.000375	3.751927	1.271187	-0.000150
1335	1.3273e+02	-13.1419	-42.216328	0.000213	2.129472	0.721485	-0.000085
1336	1.3283e+02	-13.1788	-42.365702	0.000375	3.751927	1.271187	-0.000150
1337	1.3293e+02	-13.2333	-42.450482	0.000213	2.129472	0.721485	-0.000085
1338	1.3303e+02	-13.2590	-42.543336	0.000233	2.332279	0.790197	-0.000093
1339	1.3313e+02	-13.2975	-42.700785	0.000395	3.954734	1.339900	-0.000158
1340	1.3323e+02	-13.3344	-42.805750	0.000264	2.636489	0.893267	-0.000105
1341	1.3333e+02	-13.3809	-42.930901	0.000314	3.143506	1.065049	-0.000126
1342	1.3343e+02	-13.4114	-43.007607	0.000193	1.926665	0.652772	-0.000077
1343	1.3353e+02	-13.4595	-43.140832	0.000335	3.346313	1.133762	-0.000134
1344	1.3363e+02	-13.4996	-43.213501	0.000183	1.825262	0.618415	-0.000073
1345	1.3373e+02	-13.5445	-43.350764	0.000345	3.447717	1.168118	-0.000138
1346	1.3383e+02	-13.5782	-43.483989	0.000335	3.346313	1.133762	-0.000134
1347	1.3393e+02	-13.6231	-43.584917	0.000254	2.535086	0.858910	-0.000101
1348	1.3403e+02	-13.6665	-43.669697	0.000213	2.129472	0.721485	-0.000085
1349	1.3413e+02	-13.6985	-43.762551	0.000233	2.332279	0.790197	-0.000093
1350	1.3423e+02	-13.7370	-43.895777	0.000335	3.346313	1.133762	-0.000134
1351	1.3432e+02	-13.7836	-44.004780	0.000274	2.737893	0.927623	-0.000110
1352	1.3442e+02	-13.8189	-44.117819	0.000284	2.839296	0.961980	-0.000114
1353	1.3452e+02	-13.8590	-44.194525	0.000193	1.926665	0.652772	-0.000077
1354	1.3462e+02	-13.9007	-44.380233	0.000466	4.664558	1.580395	-0.000187
1355	1.3472e+02	-13.9424	-44.452902	0.000183	1.825262	0.618415	-0.000073
1356	1.3482e+02	-13.9793	-44.541719	0.000223	2.230875	0.755841	-0.000089
1357	1.3492e+02	-14.0178	-44.602276	0.000152	1.521051	0.515346	-0.000061
1358	1.3502e+02	-14.0579	-44.743575	0.000355	3.549120	1.202474	-0.000142
1359	1.3512e+02	-14.1012	-44.901024	0.000395	3.954734	1.339900	-0.000158
1360	1.3522e+02	-14.1365	-44.973692	0.000183	1.825262	0.618415	-0.000073
1361	1.3532e+02	-14.1830	-45.058472	0.000213	2.129472	0.721485	-0.000085
1362	1.3542e+02	-14.2199	-45.183623	0.000314	3.143506	1.065049	-0.000126
1363	1.3552e+02	-14.2664	-45.320886	0.000345	3.447717	1.168118	-0.000138
1364	1.3562e+02	-14.3001	-45.417777	0.000243	2.433682	0.824554	-0.000097
1365	1.3572e+02	-14.3386	-45.490445	0.000183	1.825262	0.618415	-0.000073
1366	1.3582e+02	-14.3739	-45.635782	0.000365	3.650523	1.236831	-0.000146
1367	1.3592e+02	-14.4172	-45.720562	0.000213	2.129472	0.721485	-0.000085
1368	1.3602e+02	-14.4654	-45.809379	0.000223	2.230875	0.755841	-0.000089
1369	1.3612e+02	-14.5055	-45.974902	0.000416	4.157541	1.408613	-0.000166
1370	1.3622e+02	-14.5424	-46.059682	0.000213	2.129472	0.721485	-0.000085
1371	1.3631e+02	-14.5745	-46.140424	0.000203	2.028069	0.687128	-0.000081
1372	1.3641e+02	-14.6210	-46.241353	0.000254	2.535086	0.858910	-0.000101
1373	1.3651e+02	-14.6643	-46.338244	0.000243	2.433682	0.824554	-0.000097
1374	1.3661e+02	-14.6932	-46.479544	0.000355	3.549120	1.202474	-0.000142
1375	1.3671e+02	-14.7333	-46.568361	0.000223	2.230875	0.755841	-0.000089
1376	1.3681e+02	-14.7782	-46.661215	0.000233	2.332279	0.790197	-0.000093
1377	1.3691e+02	-14.8263	-46.778292	0.000294	2.940699	0.996336	-0.000118
1378	1.3701e+02	-14.8488	-46.867109	0.000223	2.230875	0.755841	-0.000089
1379	1.3711e+02	-14.8889	-47.036668	0.000426	4.258944	1.442969	-0.000170
1380	1.3721e+02	-14.9434	-47.093188	0.000142	1.419648	0.480990	-0.000057
1381	1.3731e+02	-14.9851	-47.177968	0.000213	2.129472	0.721485	-0.000085
1382	1.3741e+02	-15.0140	-47.303119	0.000314	3.143506	1.065049	-0.000126
1383	1.3751e+02	-15.0541	-47.387899	0.000213	2.129472	0.721485	-0.000085
1384	1.3761e+02	-15.0862	-47.500939	0.000284	2.839296	0.961980	-0.000114
1385	1.3771e+02	-15.1440	-47.622053	0.000304	3.042103	1.030692	-0.000122
1386	1.3781e+02	-15.1664	-47.718944	0.000243	2.433682	0.824554	-0.000097
1387	1.3791e+02	-15.2210	-47.823910	0.000264	2.636489	0.893267	-0.000105
1388	1.3801e+02	-15.2563	-47.920801	0.000243	2.433682	0.824554	-0.000097
1389	1.3811e+02	-15.2964	-48.021730	0.000254	2.535086	0.858910	-0.000101
1390	1.3821e+02	-15.3365	-48.134769	0.000284	2.839296	0.961980	-0.000114
1391	1.3831e+02	-15.3750	-48.292218	0.000395	3.954734	1.339900	-0.000158
1392	1.3840e+02	-15.4199	-48.372960	0.000203	2.028069	0.687128	-0.000081
1393	1.3850e+02	-15.4616	-48.421406	0.000122	1.216841	0.412277	-0.000049
1394	1.3860e+02	-15.4985	-48.590966	0.000426	4.258944	1.442969	-0.000170
1395	1.3870e+02	-15.5370	-48.659597	0.000172	1.723858	0.584059	-0.000069
1396	1.3880e+02	-15.5675	-48.768600	0.000274	2.737893	0.927623	-0.000110
1397	1.3890e+02	-15.6108	-48.877602	0.000274	2.737893	0.927623	-0.000110
1398	1.3900e+02	-15.6477	-48.958345	0.000203	2.028069	0.687128	-0.000081
1399	1.3910e+02	-15.6894	-49.135979	0.000446	4.461751	1.511682	-0.000179
1400	1.3920e+02	-15.7407	-49.196536	0.000152	1.521051	0.515346	-0.000061
1401	1.3930e+02	-15.7680	-49.301502	0.000264	2.636489	0.893267	-0.000105
1402	1.3940e+02	-15.8193	-49.390319	0.000223	2.230875	0.755841	-0.000089
1403	1.3950e+02	-15.8562	-49.471061	0.000203	2.028069	0.687128	-0.000081
1404	1.3960e+02	-15.8899	-49.588138	0.000294	2.940699	0.996336	-0.000118
1405	1.3970e+02	-15.9300	-49.693104	0.000264	2.636489	0.893267	-0.000105
1406	1.3980e+02	-15.9653	-49.789995	0.000243	2.433682	0.824554	-0.000097
1407	1.3990e+02	-16.0118	-49.919183	0.000324	3.244910	1.099405	-0.000130
1408	1.4000e+02	-16.0487	-49.979740	0.000152	1.521051	0.515346	-0.000061
1409	1.4010e+02	-16.0921	-50.108929	0.000324	3.244910	1.099405	-0.000130
1410	1.4020e+02	-16.1354	-50.209857	0.000254	2.535086	0.858910	-0.000101
1411	1.4029e+02	-16.1675	-50.326934	0.000294	2.940699	0.996336	-0.000118
1412	1.4039e+02	-16.2188	-50.387491	0.000152	1.521051	0.515346	-0.000061
1413	1.4049e+02	-16.2477	-50.512642	0.000314	3.143506	1.065049	-0.000126
1414	1.4059e+02	-16.2942	-50.613571	0.000254	2.535086	0.858910	-0.000101
1415	1.4069e+02	-16.3359	-50.722573	0.000274	2.737893	0.927623	-0.000110
1416	1.4079e+02	-16.3648	-50.835613	0.000284	2.839296	0.961980	-0.000114
1417	1.4089e+02	-16.4065	-50.984987	0.000375	3.751927	1.271187	-0.000150
1418	1.4099e+02	-16.4482	-51.017284	0.000081	0.811227	0.274851	-0.000032
1419	1.4109e+02	-16.4835	-51.126287	0.000274	2.737893	0.927623	-0.000110
1420	1.4119e+02	-16.5252	-51.271624	0.000365	3.650523	1.236831	-0.000146
1421	1.4129e+02	-16.5717	-51.352367	0.000203	2.028069	0.687128	-0.000081
1422	1.4139e+02	-16.6102	-51.445221	0.000233	2.332279	0.790197	-0.000093
1423	1.4149e+02	-16.6423	-51.558261	0.000284	2.839296	0.961980	-0.000114
1424	1.4159e+02	-16.6888	-51.667263	0.000274	2.737893	0.927623	-0.000110
1425	1.4169e+02	-16.7370	-51.796452	0.000324	3.244910	1.099405	-0.000130
1426	1.4179e+02	-16.7771	-51.905454	0.000274	2.737893	0.927623	-0.000110
1427	1.4189e+02	-16.8156	-51.961974	0.000142	1.419648	0.480990	-0.000057
1428	1.4199e+02	-16.8477	-52.054828	0.000233	2.332279	0.790197	-0.000093
1429	1.4209e+02	-16.8926	-52.179979	0.000314	3.143506	1.065049	-0.000126
1430	1.4219e+02	-16.9198	-52.297056	0.000294	2.940699	0.996336	-0.000118
1431	1.4228e+02	-16.9696	-52.397985	0.000254	2.535086	0.858910	-0.000101
1432	1.4238e+02	-17.0129	-52.494876	0.000243	2.433682	0.824554	-0.000097
1433	1.4248e+02	-17.0450	-52.591767	0.000243	2.433682	0.824554	-0.000097
1434	1.4258e+02	-17.0947	-52.684621	0.000233	2.332279	0.790197	-0.000093
1435	1.4268e+02	-17.1316	-52.793624	0.000274	2.737893	0.927623	-0.000110
1436	1.4278e+02	-17.1669	-52.942998	0.000375	3.751927	1.271187	-0.000150
1437	1.4288e+02	-17.2070	-53.056038	0.000284	2.839296	0.961980	-0.000114
1438	1.4298e+02	-17.2519	-53.120632	0.000162	1.622455	0.549703	-0.000065
1439	1.4308e+02	-17.2808	-53.233672	0.000284	2.839296	0.961980	-0.000114
1440	1.4318e+02	-17.3209	-53.350749	0.000294	2.940699	0.996336	-0.000118
1441	1.4328e+02	-17.3658	-53.459751	0.000274	2.737893	0.927623	-0.000110
1442	1.4338e+02	-17.4075	-53.536457	0.000193	1.926665	0.652772	-0.000077
1443	1.4348e+02	-17.4589	-53.653534	0.000294	2.940699	0.996336	-0.000118
1444	1.4358e+02	-17.4877	-53.758499	0.000264	2.636489	0.893267	-0.000105
1445	1.4368e+02	-17.5262	-53.899799	0.000355	3.549120	1.202474	-0.000142
1446	1.4378e+02	-17.5631	-53.944208	0.000112	1.115438	0.377921	-0.000045
1447	1.4388e+02	-17.6081	-54.081470	0.000345	3.447717	1.168118	-0.000138
1448	1.4398e+02	-17.6466	-54.166250	0.000213	2.129472	0.721485	-0.000085
1449	1.4408e+02	-17.6802	-54.283327	0.000294	2.940699	0.996336	-0.000118
1450	1.4418e+02	-17.7204	-54.400404	0.000294	2.940699	0.996336	-0.000118
1451	1.4428e+02	-17.7653	-54.513444	0.000284	2.839296	0.961980	-0.000114
1452	1.4437e+02	-17.8150	-54.602261	0.000223	2.230875	0.755841	-0.000089
1453	1.4447e+02	-17.8423	-54.723375	0.000304	3.042103	1.030692	-0.000122
1454	1.4457e+02	-17.8856	-54.828340	0.000264	2.636489	0.893267	-0.000105
1455	1.4467e+02	-17.9305	-54.933306	0.000264	2.636489	0.893267	-0.000105
1456	1.4477e+02	-17.9610	-54.997900	0.000162	1.622455	0.549703	-0.000065
1457	1.4487e+02	-18.0027	-55.167460	0.000426	4.258944	1.442969	-0.000170
1458	1.4497e+02	-18.0460	-55.236091	0.000172	1.723858	0.584059	-0.000069
1459	1.4507e+02	-18.0781	-55.369317	0.000335	3.346313	1.133762	-0.000134
1460	1.4517e+02	-18.1230	-55.466208	0.000243	2.433682	0.824554	-0.000097
1461	1.4527e+02	-18.1551	-55.555025	0.000223	2.230875	0.755841	-0.000089
1462	1.4537e+02	-18.2129	-55.700362	0.000365	3.650523	1.236831	-0.000146
1463	1.4547e+02	-18.2433	-55.768993	0.000172	1.723858	0.584059	-0.000069
1464	1.4557e+02	-18.2866	-55.886070	0.000294	2.940699	0.996336	-0.000118
1465	1.4567e+02	-18.3235	-55.995073	0.000274	2.737893	0.927623	-0.000110
1466	1.4577e+02	-18.3588	-56.108112	0.000284	2.839296	0.961980	-0.000114
1467	1.4587e+02	-18.3973	-56.221152	0.000284	2.839296	0.961980	-0.000114
1468	1.4597e+02	-18.4455	-56.338229	0.000294	2.940699	0.996336	-0.000118
1469	1.4607e+02	-18.4856	-56.443195	0.000264	2.636489	0.893267	-0.000105
1470	1.4617e+02	-18.5417	-56.499715	0.000142	1.419648	0.480990	-0.000057
1471	1.4626e+02	-18.5658	-56.661200	0.000406	4.056137	1.374256	-0.000162
1472	1.4636e+02	-18.6043	-56.737906	0.000193	1.926665	0.652772	-0.000077
1473	1.4646e+02	-18.6428	-56.871131	0.000335	3.346313	1.133762	-0.000134
1474	1.4656e+02	-18.6829	-56.955911	0.000213	2.129472	0.721485	-0.000085
1475	1.4666e+02	-18.7166	-57.093174	0.000345	3.447717	1.168118	-0.000138
1476	1.4676e+02	-18.7647	-57.181991	0.000223	2.230875	0.755841	-0.000089
1477	1.4686e+02	-18.8080	-57.303105	0.000304	3.042103	1.030692	-0.000122
1478	1.4696e+02	-18.8321	-57.404033	0.000254	2.535086	0.858910	-0.000101
1479	1.4706e+02	-18.8850	-57.508999	0.000264	2.636489	0.893267	-0.000105
1480	1.4716e+02	-18.9251	-57.622038	0.000284	2.839296	0.961980	-0.000114
1481	1.4726e+02	-18.9556	-57.702781	0.000203	2.028069	0.687128	-0.000081
1482	1.4736e+02	-18.9957	-57.811784	0.000274	2.737893	0.927623	-0.000110
1483	1.4746e+02	-19.0455	-57.908675	0.000243	2.433682	0.824554	-0.000097
1484	1.4756e+02	-19.0807	-58.037863	0.000324	3.244910	1.099405	-0.000130
1485	1.4766e+02	-19.1176	-58.179163	0.000355	3.549120	1.202474	-0.000142
1486	1.4776e+02	-19.1577	-58.272017	0.000233	2.332279	0.790197	-0.000093
1487	1.4786e+02	-19.1962	-58.352760	0.000203	2.028069	0.687128	-0.000081
1488	1.4796e+02	-19.2315	-58.506171	0.000385	3.853330	1.305544	-0.000154
1489	1.4806e+02	-19.2733	-58.558654	0.000132	1.318245	0.446633	-0.000053
1490	1.4816e+02	-19.3102	-58.720139	0.000406	4.056137	1.374256	-0.000162
1491	1.4825e+02	-19.3535	-58.804919	0.000213	2.129472	0.721485	-0.000085
1492	1.4835e+02	-19.4048	-58.909885	0.000264	2.636489	0.893267	-0.000105
1493	1.4845e+02	-19.4417	-58.982553	0.000183	1.825262	0.618415	-0.000073
1494	1.4855e+02	-19.4770	-59.135964	0.000385	3.853330	1.305544	-0.000154
1495	1.4865e+02	-19.5187	-59.269190	0.000335	3.346313	1.133762	-0.000134
1496	1.4875e+02	-19.5540	-59.333784	0.000162	1.622455	0.549703	-0.000065
1497	1.4885e+02	-19.5989	-59.454898	0.000304	3.042103	1.030692	-0.000122
1498	1.4895e+02	-19.6310	-59.547752	0.000233	2.332279	0.790197	-0.000093
1499	1.4905e+02	-19.6775	-59.676940	0.000324	3.244910	1.099405	-0.000130
1500	1.4915e+02	-19.7176	-59.785943	0.000274	2.737893	0.927623	-0.000110
1501	1.4925e+02	-19.7593	-59.915131	0.000324	3.244910	1.099405	-0.000130
1502	1.4935e+02	-19.8043	-59.979726	0.000162	1.622455	0.549703	-0.000065
1503	1.4945e+02	-19.8347	-60.116988	0.000345	3.447717	1.168118	-0.000138
1504	1.4955e+02	-19.8748	-60.205805	0.000223	2.230875	0.755841	-0.000089
1505	1.4965e+02	-19.9166	-60.334994	0.000324	3.244910	1.099405	-0.000130
1506	1.4975e+02	-19.9470	-60.431885	0.000243	2.433682	0.824554	-0.000097
1507	1.4985e+02	-19.9871	-60.548962	0.000294	2.940699	0.996336	-0.000118
1508	1.4995e+02	-19.9599	-60.516665	0.000081	0.811227	0.274851	0.000032
1509	1.5005e+02	-19.9133	-60.448033	0.000172	1.723858	0.584059	0.000069
1510	1.5015e+02	-19.8813	-60.399588	0.000122	1.216841	0.412277	0.000049
1511	1.5025e+02	-19.8251	-60.318845	0.000203	2.028069	0.687128	0.000081
1512	1.5034e+02	-19.8059	-60.258288	0.000152	1.521051	0.515346	0.000061
1513	1.5044e+02	-19.7625	-60.205805	0.000132	1.318245	0.446633	0.000053
1514	1.5054e+02	-19.7144	-60.133137	0.000183	1.825262	0.618415	0.000073
1515	1.5064e+02	-19.6743	-60.084691	0.000122	1.216841	0.412277	0.000049
1516	1.5074e+02	-19.6390	-60.016060	0.000172	1.723858	0.584059	0.000069
1517	1.5084e+02	-19.5909	-59.951466	0.000162	1.622455	0.549703	0.000065
1518	1.5094e+02	-19.5540	-59.882834	0.000172	1.723858	0.584059	0.000069
1519	1.5104e+02	-19.5219	-59.822277	0.000152	1.521051	0.515346	0.000061
1520	1.5114e+02	-19.4754	-59.757683	0.000162	1.622455	0.549703	0.000065
1521	1.5124e+02	-19.4401	-59.660792	0.000243	2.433682	0.824554	0.000097
1522	1.5134e+02	-19.3984	-59.620421	0.000101	1.014034	0.343564	0.000041
1523	1.5144e+02	-19.3535	-59.543715	0.000193	1.926665	0.652772	0.000077
1524	1.5154e+02	-19.3085	-59.483158	0.000152	1.521051	0.515346	0.000061
1525	1.5164e+02	-19.2765	-59.390304	0.000233	2.332279	0.790197	0.000093
1526	1.5174e+02	-19.2412	-59.349932	0.000101	1.014034	0.343564	0.000041
1527	1.5184e+02	-19.2059	-59.253041	0.000243	2.433682	0.824554	0.000097
1528	1.5194e+02	-19.1594	-59.188447	0.000162	1.622455	0.549703	0.000065
1529	1.5204e+02	-19.1289	-59.067333	0.000304	3.042103	1.030692	0.000122
1530	1.5214e+02	-19.0840	-58.994665	0.000183	1.825262	0.618415	0.000073
1531	1.5224e+02	-19.0487	-58.954293	0.000101	1.014034	0.343564	0.000041
1532	1.5233e+02	-19.0005	-58.861439	0.000233	2.332279	0.790197	0.000093
1533	1.5243e+02	-18.9540	-58.808956	0.000132	1.318245	0.446633	0.000053
1534	1.5253e+02	-18.9171	-58.712065	0.000243	2.433682	0.824554	0.000097
1535	1.5263e+02	-18.8802	-58.611137	0.000254	2.535086	0.858910	0.000101
1536	1.5273e+02	-18.8481	-58.590951	0.000051	0.507017	0.171782	0.000020
1537	1.5283e+02	-18.8048	-58.465800	0.000314	3.143506	1.065049	0.000126
1538	1.5293e+02	-18.7583	-58.397168	0.000172	1.723858	0.584059	0.000069
1539	1.5303e+02	-18.7214	-58.304314	0.000233	2.332279	0.790197	0.000093
1540	1.5313e+02	-18.6845	-58.263943	0.000101	1.014034	0.343564	0.000041
1541	1.5323e+02	-18.6412	-58.171089	0.000233	2.332279	0.790197	0.000093
1542	1.5333e+02	-18.5931	-58.122643	0.000122	1.216841	0.412277	0.000049
1543	1.5343e+02	-18.5674	-58.025752	0.000243	2.433682	0.824554	0.000097
1544	1.5353e+02	-18.5241	-57.940972	0.000213	2.129472	0.721485	0.000085
1545	1.5363e+02	-18.4840	-57.848118	0.000233	2.332279	0.790197	0.000093
1546	1.5373e+02	-18.4391	-57.819858	0.000071	0.709824	0.240495	0.000028
1547	1.5383e+02	-18.3989	-57.706818	0.000284	2.839296	0.961980	0.000114
1548	1.5393e+02	-18.3620	-57.630113	0.000193	1.926665	0.652772	0.000077
1549	1.5403e+02	-18.3268	-57.517073	0.000284	2.839296	0.961980	0.000114
1550	1.5413e+02	-18.2834	-57.420182	0.000243	2.433682	0.824554	0.000097
1551	1.5422e+02	-18.2353	-57.371736	0.000122	1.216841	0.412277	0.000049
1552	1.5432e+02	-18.2161	-57.266770	0.000264	2.636489	0.893267	0.000105
1553	1.5442e+02	-18.1727	-57.165842	0.000254	2.535086	0.858910	0.000101
1554	1.5452e+02	-18.1230	-57.077025	0.000223	2.230875	0.755841	0.000089
1555	1.5462e+02	-18.0845	-57.028579	0.000122	1.216841	0.412277	0.000049
1556	1.5472e+02	-18.0444	-56.919577	0.000274	2.737893	0.927623	0.000110
1557	1.5482e+02	-18.0011	-56.919577	0.000000	0.000000	0.000000	0.000000
1558	1.5492e+02	-17.9594	-56.806537	0.000284	2.839296	0.961980	0.000114
1559	1.5502e+02	-17.9321	-56.685423	0.000304	3.042103	1.030692	0.000122
1560	1.5512e+02	-17.8872	-56.636977	0.000122	1.216841	0.412277	0.000049
1561	1.5522e+02	-17.8455	-56.523937	0.000284	2.839296	0.961980	0.000114
1562	1.5532e+02	-17.7974	-56.431083	0.000233	2.332279	0.790197	0.000093
1563	1.5542e+02	-17.7669	-56.358415	0.000183	1.825262	0.618415	0.000073
1564	1.5552e+02	-17.7123	-56.301895	0.000142	1.419648	0.480990	0.000057
1565	1.5562e+02	-17.6931	-56.225189	0.000193	1.926665	0.652772	0.000077
1566	1.5572e+02	-17.6417	-56.144447	0.000203	2.028069	0.687128	0.000081
1567	1.5582e+02	-17.6097	-56.051593	0.000233	2.332279	0.790197	0.000093
1568	1.5592e+02	-17.5551	-55.954701	0.000243	2.433682	0.824554	0.000097
1569	1.5602e+02	-17.5278	-55.845699	0.000274	2.737893	0.927623	0.000110
1570	1.5612e+02	-17.4845	-55.744770	0.000254	2.535086	0.858910	0.000101
1571	1.5622e+02	-17.4476	-55.688250	0.000142	1.419648	0.480990	0.000057
1572	1.5631e+02	-17.4011	-55.599433	0.000223	2.230875	0.755841	0.000089
1573	1.5641e+02	-17.3658	-55.506579	0.000233	2.332279	0.790197	0.000093
1574	1.5651e+02	-17.3273	-55.413725	0.000233	2.332279	0.790197	0.000093
1575	1.5661e+02	-17.2888	-55.320871	0.000233	2.332279	0.790197	0.000093
1576	1.5671e+02	-17.2391	-55.203794	0.000294	2.940699	0.996336	0.000118
1577	1.5681e+02	-17.2150	-55.195720	0.000020	0.202807	0.068713	0.000008
1578	1.5691e+02	-17.1637	-55.014049	0.000456	4.563154	1.546039	0.000183
1579	1.5701e+02	-17.1332	-55.010012	0.000010	0.101403	0.034356	0.000004
1580	1.5711e+02	-17.0899	-54.949455	0.000152	1.521051	0.515346	0.000061
1581	1.5721e+02	-17.0418	-54.824303	0.000314	3.143506	1.065049	0.000126
1582	1.5731e+02	-17.0097	-54.755672	0.000172	1.723858	0.584059	0.000069
1583	1.5741e+02	-16.9696	-54.646669	0.000274	2.737893	0.927623	0.000110
1584	1.5751e+02	-16.9311	-54.557852	0.000223	2.230875	0.755841	0.000089
1585	1.5761e+02	-16.8813	-54.481147	0.000193	1.926665	0.652772	0.000077
1586	1.5771e+02	-16.8477	-54.392330	0.000223	2.230875	0.755841	0.000089
1587	1.5781e+02	-16.8124	-54.295439	0.000243	2.433682	0.824554	0.000097
1588	1.5791e+02	-16.7706	-54.222770	0.000183	1.825262	0.618415	0.000073
1589	1.5801e+02	-16.7289	-54.089545	0.000335	3.346313	1.133762	0.000134
1590	1.5811e+02	-16.6824	-54.033025	0.000142	1.419648	0.480990	0.000057
1591	1.5821e+02	-16.6567	-53.968431	0.000162	1.622455	0.549703	0.000065
1592	1.5830e+02	-16.6150	-53.879614	0.000223	2.230875	0.755841	0.000089
1593	1.5840e+02	-16.5749	-53.778685	0.000254	2.535086	0.858910	0.000101
1594	1.5850e+02	-16.5284	-53.701980	0.000193	1.926665	0.652772	0.000077
1595	1.5860e+02	-16.4819	-53.576828	0.000314	3.143506	1.065049	0.000126
1596	1.5870e+02	-16.4546	-53.471863	0.000264	2.636489	0.893267	0.000105
1597	1.5880e+02	-16.4113	-53.439566	0.000081	0.811227	0.274851	0.000032
1598	1.5890e+02	-16.3760	-53.391120	0.000122	1.216841	0.412277	0.000049
1599	1.5900e+02	-16.3279	-53.237709	0.000385	3.853330	1.305544	0.000154
1600	1.5910e+02	-16.2926	-53.152929	0.000213	2.129472	0.721485	0.000085
1601	1.5920e+02	-16.2573	-53.084298	0.000172	1.723858	0.584059	0.000069
1602	1.5930e+02	-16.2140	-52.987407	0.000243	2.433682	0.824554	0.000097
1603	1.5940e+02	-16.1691	-52.922812	0.000162	1.622455	0.549703	0.000065
1604	1.5950e+02	-16.1306	-52.821884	0.000254	2.535086	0.858910	0.000101
1605	1.5960e+02	-16.1001	-52.765364	0.000142	1.419648	0.480990	0.000057
1606	1.5970e+02	-16.0471	-52.624064	0.000355	3.549120	1.202474	0.000142
1607	1.5980e+02	-16.0151	-52.583693	0.000101	1.014034	0.343564	0.000041
1608	1.5990e+02	-15.9701	-52.454505	0.000324	3.244910	1.099405	0.000130
1609	1.6000e+02	-15.9332	-52.373762	0.000203	2.028069	0.687128	0.000081
1610	1.6010e+02	-15.8963	-52.317242	0.000142	1.419648	0.480990	0.000057
1611	1.6019e+02	-15.8643	-52.200165	0.000294	2.940699	0.996336	0.000118
1612	1.6029e+02	-15.8065	-52.099237	0.000254	2.535086	0.858910	0.000101
1613	1.6039e+02	-15.7776	-52.026568	0.000183	1.825262	0.618415	0.000073
1614	1.6049e+02	-15.7391	-51.953900	0.000183	1.825262	0.618415	0.000073
1615	1.6059e+02	-15.6942	-51.873157	0.000203	2.028069	0.687128	0.000081
1616	1.6069e+02	-15.6477	-51.804526	0.000172	1.723858	0.584059	0.000069
1617	1.6079e+02	-15.6076	-51.687449	0.000294	2.940699	0.996336	0.000118
1618	1.6089e+02	-15.5771	-51.602669	0.000213	2.129472	0.721485	0.000085
1619	1.6099e+02	-15.5290	-51.497703	0.000264	2.636489	0.893267	0.000105
1620	1.6109e+02	-15.4953	-51.404849	0.000233	2.332279	0.790197	0.000093
1621	1.6119e+02	-15.4600	-51.291810	0.000284	2.839296	0.961980	0.000114
1622	1.6129e+02	-15.4151	-51.219141	0.000183	1.825262	0.618415	0.000073
1623	1.6139e+02	-15.3766	-51.138398	0.000203	2.028069	0.687128	0.000081
1624	1.6149e+02	-15.3300	-51.069767	0.000172	1.723858	0.584059	0.000069
1625	1.6159e+02	-15.3012	-50.997099	0.000183	1.825262	0.618415	0.000073
1626	1.6169e+02	-15.2563	-50.843687	0.000385	3.853330	1.305544	0.000154
1627	1.6179e+02	-15.2226	-50.807353	0.000091	0.912631	0.309208	0.000037
1628	1.6189e+02	-15.1744	-50.726611	0.000203	2.028069	0.687128	0.000081
1629	1.6199e+02	-15.1375	-50.653942	0.000183	1.825262	0.618415	0.000073
1630	1.6209e+02	-15.0910	-50.528791	0.000314	3.143506	1.065049	0.000126
1631	1.6219e+02	-15.0525	-50.468234	0.000152	1.521051	0.515346	0.000061
1632	1.6228e+02	-15.0188	-50.355194	0.000284	2.839296	0.961980	0.000114
1633	1.6238e+02	-14.9739	-50.282526	0.000183	1.825262	0.618415	0.000073
1634	1.6248e+02	-14.9354	-50.141226	0.000355	3.549120	1.202474	0.000142
1635	1.6258e+02	-14.8921	-50.084706	0.000142	1.419648	0.480990	0.000057
1636	1.6268e+02	-14.8552	-49.999926	0.000213	2.129472	0.721485	0.000085
1637	1.6278e+02	-14.8215	-49.935332	0.000162	1.622455	0.549703	0.000065
1638	1.6288e+02	-14.7862	-49.826329	0.000274	2.737893	0.927623	0.000110
1639	1.6298e+02	-14.7349	-49.741549	0.000213	2.129472	0.721485	0.000085
1640	1.6308e+02	-14.7028	-49.648695	0.000233	2.332279	0.790197	0.000093
1641	1.6318e+02	-14.6595	-49.519507	0.000324	3.244910	1.099405	0.000130
1642	1.6328e+02	-14.6194	-49.462987	0.000142	1.419648	0.480990	0.000057
1643	1.6338e+02	-14.5809	-49.333799	0.000324	3.244910	1.099405	0.000130
1644	1.6348e+02	-14.5392	-49.265167	0.000172	1.723858	0.584059	0.000069
1645	1.6358e+02	-14.4975	-49.200573	0.000162	1.622455	0.549703	0.000065
1646	1.6368e+02	-14.4590	-49.075422	0.000314	3.143506	1.065049	0.000126
1647	1.6378e+02	-14.4188	-48.990642	0.000213	2.129472	0.721485	0.000085
1648	1.6388e+02	-14.3771	-48.905862	0.000213	2.129472	0.721485	0.000085
1649	1.6398e+02	-14.3418	-48.808971	0.000243	2.433682	0.824554	0.000097
1650	1.6408e+02	-14.3017	-48.699968	0.000274	2.737893	0.927623	0.000110
1651	1.6418e+02	-14.2600	-48.619226	0.000203	2.028069	0.687128	0.000081
1652	1.6427e+02	-14.2167	-48.546557	0.000183	1.825262	0.618415	0.000073
1653	1.6437e+02	-14.1766	-48.461777	0.000213	2.129472	0.721485	0.000085
1654	1.6447e+02	-14.1397	-48.364886	0.000243	2.433682	0.824554	0.000097
1655	1.6457e+02	-14.1028	-48.263958	0.000254	2.535086	0.858910	0.000101
1656	1.6467e+02	-14.0563	-48.146881	0.000294	2.940699	0.996336	0.000118
1657	1.6477e+02	-14.0146	-48.086324	0.000152	1.521051	0.515346	0.000061
1658	1.6487e+02	-13.9809	-47.973284	0.000284	2.839296	0.961980	0.000114
1659	1.6497e+02	-13.9392	-47.880430	0.000233	2.332279	0.790197	0.000093
1660	1.6507e+02	-13.8959	-47.763353	0.000294	2.940699	0.996336	0.000118
1661	1.6517e+02	-13.8638	-47.727019	0.000091	0.912631	0.309208	0.000037
1662	1.6527e+02	-13.8285	-47.613979	0.000284	2.839296	0.961980	0.000114
1663	1.6537e+02	-13.7788	-47.509013	0.000264	2.636489	0.893267	0.000105
1664	1.6547e+02	-13.7435	-47.408085	0.000254	2.535086	0.858910	0.000101
1665	1.6557e+02	-13.7001	-47.307157	0.000254	2.535086	0.858910	0.000101
1666	1.6567e+02	-13.6665	-47.234488	0.000183	1.825262	0.618415	0.000073
1667	1.6577e+02	-13.6264	-47.125485	0.000274	2.737893	0.927623	0.000110
1668	1.6587e+02	-13.5782	-47.028594	0.000243	2.433682	0.824554	0.000097
1669	1.6597e+02	-13.5429	-46.943814	0.000213	2.129472	0.721485	0.000085
1670	1.6607e+02	-13.4980	-46.842886	0.000254	2.535086	0.858910	0.000101
1671	1.6616e+02	-13.4627	-46.754069	0.000223	2.230875	0.755841	0.000089
1672	1.6626e+02	-13.4194	-46.661215	0.000233	2.332279	0.790197	0.000093
1673	1.6636e+02	-13.3889	-46.552212	0.000274	2.737893	0.927623	0.000110
1674	1.6646e+02	-13.3440	-46.467432	0.000213	2.129472	0.721485	0.000085
1675	1.6656e+02	-13.2959	-46.374578	0.000233	2.332279	0.790197	0.000093
1676	1.6666e+02	-13.2622	-46.241353	0.000335	3.346313	1.133762	0.000134
1677	1.6676e+02	-13.2269	-46.184833	0.000142	1.419648	0.480990	0.000057
1678	1.6686e+02	-13.1788	-46.055644	0.000324	3.244910	1.099405	0.000130
1679	1.6696e+02	-13.1451	-45.966828	0.000223	2.230875	0.755841	0.000089
1680	1.6706e+02	-13.1034	-45.849751	0.000294	2.940699	0.996336	0.000118
1681	1.6716e+02	-13.0617	-45.777082	0.000183	1.825262	0.618415	0.000073
1682	1.6726e+02	-13.0264	-45.708451	0.000172	1.723858	0.584059	0.000069
1683	1.6736e+02	-12.9847	-45.567151	0.000355	3.549120	1.202474	0.000142
1684	1.6746e+02	-12.9397	-45.502557	0.000162	1.622455	0.549703	0.000065
1685	1.6756e+02	-12.8964	-45.385480	0.000294	2.940699	0.996336	0.000118
1686	1.6766e+02	-12.8692	-45.296663	0.000223	2.230875	0.755841	0.000089
1687	1.6776e+02	-12.8290	-45.147289	0.000375	3.751927	1.271187	0.000150
1688	1.6786e+02	-12.7841	-45.062509	0.000213	2.129472	0.721485	0.000085
1689	1.6796e+02	-12.7504	-44.977729	0.000213	2.129472	0.721485	0.000085
1690	1.6806e+02	-12.7071	-44.868727	0.000274	2.737893	0.927623	0.000110
1691	1.6816e+02	-12.6622	-44.767798	0.000254	2.535086	0.858910	0.000101
1692	1.6825e+02	-12.6285	-44.691093	0.000193	1.926665	0.652772	0.000077
1693	1.6835e+02	-12.5916	-44.569979	0.000304	3.042103	1.030692	0.000122
1694	1.6845e+02	-12.5451	-44.517496	0.000132	1.318245	0.446633	0.000053
1695	1.6855e+02	-12.5066	-44.400419	0.000294	2.940699	0.996336	0.000118
1696	1.6865e+02	-12.4681	-44.287379	0.000284	2.839296	0.961980	0.000114
1697	1.6875e+02	-12.4168	-44.158191	0.000324	3.244910	1.099405	0.000130
1698	1.6885e+02	-12.3911	-44.109745	0.000122	1.216841	0.412277	0.000049
1699	1.6895e+02	-12.3526	-43.984594	0.000314	3.143506	1.065049	0.000126
1700	1.6905e+02	-12.3029	-43.887703	0.000243	2.433682	0.824554	0.000097
1701	1.6915e+02	-12.2692	-43.774663	0.000284	2.839296	0.961980	0.000114
1702	1.6925e+02	-12.2275	-43.669697	0.000264	2.636489	0.893267	0.000105
1703	1.6935e+02	-12.1970	-43.564732	0.000264	2.636489	0.893267	0.000105
1704	1.6945e+02	-12.1505	-43.483989	0.000203	2.028069	0.687128	0.000081
1705	1.6955e+02	-12.1071	-43.399209	0.000213	2.129472	0.721485	0.000085
1706	1.6965e+02	-12.0686	-43.265984	0.000335	3.346313	1.133762	0.000134
1707	1.6975e+02	-12.0285	-43.148907	0.000294	2.940699	0.996336	0.000118
1708	1.6985e+02	-11.9884	-43.039904	0.000274	2.737893	0.927623	0.000110
1709	1.6995e+02	-11.9451	-42.947050	0.000233	2.332279	0.790197	0.000093
1710	1.7005e+02	-11.9162	-42.854196	0.000233	2.332279	0.790197	0.000093
1711	1.7015e+02	-11.8697	-42.753267	0.000254	2.535086	0.858910	0.000101
1712	1.7024e+02	-11.8216	-42.636191	0.000294	2.940699	0.996336	0.000118
1713	1.7034e+02	-11.7911	-42.551411	0.000213	2.129472	0.721485	0.000085
1714	1.7044e+02	-11.7478	-42.462594	0.000223	2.230875	0.755841	0.000089
1715	1.7054e+02	-11.7125	-42.305145	0.000395	3.954734	1.339900	0.000158
1716	1.7064e+02	-11.6708	-42.228440	0.000193	1.926665	0.652772	0.000077
1717	1.7074e+02	-11.6403	-42.135586	0.000233	2.332279	0.790197	0.000093
1718	1.7084e+02	-11.5810	-42.014472	0.000304	3.042103	1.030692	0.000122
1719	1.7094e+02	-11.5537	-41.905469	0.000274	2.737893	0.927623	0.000110
1720	1.7104e+02	-11.5072	-41.792429	0.000284	2.839296	0.961980	0.000114
1721	1.7114e+02	-11.4638	-41.695538	0.000243	2.433682	0.824554	0.000097
1722	1.7124e+02	-11.4221	-41.610758	0.000213	2.129472	0.721485	0.000085
1723	1.7134e+02	-11.3901	-41.477533	0.000335	3.346313	1.133762	0.000134
1724	1.7144e+02	-11.3564	-41.437161	0.000101	1.014034	0.343564	0.000041
1725	1.7154e+02	-11.3082	-41.267602	0.000426	4.258944	1.442969	0.000170
1726	1.7164e+02	-11.2697	-41.158599	0.000274	2.737893	0.927623	0.000110
1727	1.7174e+02	-11.2393	-41.069782	0.000223	2.230875	0.755841	0.000089
1728	1.7184e+02	-11.1895	-40.956742	0.000284	2.839296	0.961980	0.000114
1729	1.7194e+02	-11.1574	-40.851777	0.000264	2.636489	0.893267	0.000105
1730	1.7204e+02	-11.1109	-40.702403	0.000375	3.751927	1.271187	0.000150
1731	1.7213e+02	-11.0740	-40.662031	0.000101	1.014034	0.343564	0.000041
1732	1.7223e+02	-11.0323	-40.561103	0.000254	2.535086	0.858910	0.000101
1733	1.7233e+02	-10.9922	-40.419803	0.000355	3.549120	1.202474	0.000142
1734	1.7243e+02	-10.9505	-40.335023	0.000213	2.129472	0.721485	0.000085
1735	1.7253e+02	-10.9168	-40.246206	0.000223	2.230875	0.755841	0.000089
1736	1.7263e+02	-10.8703	-40.121055	0.000314	3.143506	1.065049	0.000126
1737	1.7273e+02	-10.8382	-39.987829	0.000335	3.346313	1.133762	0.000134
1738	1.7283e+02	-10.7885	-39.911124	0.000193	1.926665	0.652772	0.000077
1739	1.7293e+02	-10.7564	-39.785973	0.000314	3.143506	1.065049	0.000126
1740	1.7303e+02	-10.7259	-39.685044	0.000254	2.535086	0.858910	0.000101
1741	1.7313e+02	-10.6730	-39.567967	0.000294	2.940699	0.996336	0.000118
1742	1.7323e+02	-10.6393	-39.483188	0.000213	2.129472	0.721485	0.000085
1743	1.7333e+02	-10.5960	-39.333813	0.000375	3.751927	1.271187	0.000150
1744	1.7343e+02	-10.5575	-39.261145	0.000183	1.825262	0.618415	0.000073
1745	1.7353e+02	-10.5141	-39.160217	0.000254	2.535086	0.858910	0.000101
1746	1.7363e+02	-10.4740	-39.043140	0.000294	2.940699	0.996336	0.000118
1747	1.7373e+02	-10.4307	-38.942211	0.000254	2.535086	0.858910	0.000101
1748	1.7383e+02	-10.3938	-38.845320	0.000243	2.433682	0.824554	0.000097
1749	1.7393e+02	-10.3457	-38.728243	0.000294	2.940699	0.996336	0.000118
1750	1.7403e+02	-10.3152	-38.635389	0.000233	2.332279	0.790197	0.000093
1751	1.7413e+02	-10.2735	-38.494089	0.000355	3.549120	1.202474	0.000142
1752	1.7422e+02	-10.2430	-38.405272	0.000223	2.230875	0.755841	0.000089
1753	1.7432e+02	-10.1901	-38.308381	0.000243	2.433682	0.824554	0.000097
1754	1.7442e+02	-10.1612	-38.199378	0.000274	2.737893	0.927623	0.000110
1755	1.7452e+02	-10.1195	-38.098450	0.000254	2.535086	0.858910	0.000101
1756	1.7462e+02	-10.0810	-37.949076	0.000375	3.751927	1.271187	0.000150
1757	1.7472e+02	-10.0216	-37.856222	0.000233	2.332279	0.790197	0.000093
1758	1.7482e+02	-9.9863	-37.743182	0.000284	2.839296	0.961980	0.000114
1759	1.7492e+02	-9.9543	-37.674551	0.000172	1.723858	0.584059	0.000069
1760	1.7502e+02	-9.9142	-37.549399	0.000314	3.143506	1.065049	0.000126
1761	1.7512e+02	-9.8773	-37.420211	0.000324	3.244910	1.099405	0.000130
1762	1.7522e+02	-9.8388	-37.286986	0.000335	3.346313	1.133762	0.000134
1763	1.7532e+02	-9.8003	-37.238540	0.000122	1.216841	0.412277	0.000049
1764	1.7542e+02	-9.7537	-37.129537	0.000274	2.737893	0.927623	0.000110
1765	1.7552e+02	-9.7233	-36.988238	0.000355	3.549120	1.202474	0.000142
1766	1.7562e+02	-9.6687	-36.907495	0.000203	2.028069	0.687128	0.000081
1767	1.7572e+02	-9.6446	-36.774269	0.000335	3.346313	1.133762	0.000134
1768	1.7582e+02	-9.5869	-36.677378	0.000243	2.433682	0.824554	0.000097
1769	1.7592e+02	-9.5628	-36.564338	0.000284	2.839296	0.961980	0.000114
1770	1.7602e+02	-9.5147	-36.443224	0.000304	3.042103	1.030692	0.000122
1771	1.7612e+02	-9.4778	-36.330185	0.000284	2.839296	0.961980	0.000114
1772	1.7621e+02	-9.4377	-36.249442	0.000203	2.028069	0.687128	0.000081
1773	1.7631e+02	-9.3960	-36.136402	0.000284	2.839296	0.961980	0.000114
1774	1.7641e+02	-9.3527	-35.995102	0.000355	3.549120	1.202474	0.000142
1775	1.7651e+02	-9.3142	-35.906285	0.000223	2.230875	0.755841	0.000089
1776	1.7661e+02	-9.2773	-35.801320	0.000264	2.636489	0.893267	0.000105
1777	1.7671e+02	-9.2388	-35.647909	0.000385	3.853330	1.305544	0.000154
1778	1.7681e+02	-9.1955	-35.571203	0.000193	1.926665	0.652772	0.000077
1779	1.7691e+02	-9.1634	-35.470275	0.000254	2.535086	0.858910	0.000101
1780	1.7701e+02	-9.1169	-35.357235	0.000284	2.839296	0.961980	0.000114
1781	1.7711e+02	-9.0816	-35.268418	0.000223	2.230875	0.755841	0.000089
1782	1.7721e+02	-9.0382	-35.155378	0.000284	2.839296	0.961980	0.000114
1783	1.7731e+02	-8.9997	-35.030227	0.000314	3.143506	1.065049	0.000126
1784	1.7741e+02	-8.9661	-34.937373	0.000233	2.332279	0.790197	0.000093
1785	1.7751e+02	-8.9195	-34.848556	0.000223	2.230875	0.755841	0.000089
1786	1.7761e+02	-8.8842	-34.719367	0.000324	3.244910	1.099405	0.000130
1787	1.7771e+02	-8.8377	-34.602290	0.000294	2.940699	0.996336	0.000118
1788	1.7781e+02	-8.7992	-34.513473	0.000223	2.230875	0.755841	0.000089
1789	1.7791e+02	-8.7623	-34.384285	0.000324	3.244910	1.099405	0.000130
1790	1.7801e+02	-8.7174	-34.307580	0.000193	1.926665	0.652772	0.000077
1791	1.7810e+02	-8.6853	-34.142057	0.000416	4.157541	1.408613	0.000166
1792	1.7820e+02	-8.6420	-34.041129	0.000254	2.535086	0.858910	0.000101
1793	1.7830e+02	-8.6019	-33.924052	0.000294	2.940699	0.996336	0.000118
1794	1.7840e+02	-8.5602	-33.831197	0.000233	2.332279	0.790197	0.000093
1795	1.7850e+02	-8.5201	-33.734306	0.000243	2.433682	0.824554	0.000097
1796	1.7860e+02	-8.4880	-33.605118	0.000324	3.244910	1.099405	0.000130
1797	1.7870e+02	-8.4367	-33.488041	0.000294	2.940699	0.996336	0.000118
1798	1.7880e+02	-8.4014	-33.383075	0.000264	2.636489	0.893267	0.000105
1799	1.7890e+02	-8.3597	-33.286184	0.000243	2.433682	0.824554	0.000097
1800	1.7900e+02	-8.3212	-33.213516	0.000183	1.825262	0.618415	0.000073
1801	1.7910e+02	-8.2794	-33.064142	0.000375	3.751927	1.271187	0.000150
1802	1.7920e+02	-8.2425	-32.971288	0.000233	2.332279	0.790197	0.000093
1803	1.7930e+02	-8.2040	-32.866322	0.000264	2.636489	0.893267	0.000105
1804	1.7940e+02	-8.1720	-32.741171	0.000314	3.143506	1.065049	0.000126
1805	1.7950e+02	-8.1238	-32.668502	0.000183	1.825262	0.618415	0.000073
1806	1.7960e+02	-8.0757	-32.531240	0.000345	3.447717	1.168118	0.000138
1807	1.7970e+02	-8.0420	-32.373791	0.000395	3.954734	1.339900	0.000158
1808	1.7980e+02	-8.0067	-32.309197	0.000162	1.622455	0.549703	0.000065
1809	1.7990e+02	-7.9714	-32.212306	0.000243	2.433682	0.824554	0.000097
1810	1.8000e+02	-7.9153	-32.099266	0.000284	2.839296	0.961980	0.000114
1811	1.8009e+02	-7.8816	-31.941818	0.000395	3.954734	1.339900	0.000158
1812	1.8019e+02	-7.8511	-31.857038	0.000213	2.129472	0.721485	0.000085
1813	1.8029e+02	-7.8014	-31.739961	0.000294	2.940699	0.996336	0.000118
1814	1.8039e+02	-7.7645	-31.606736	0.000335	3.346313	1.133762	0.000134
1815	1.8049e+02	-7.7276	-31.513882	0.000233	2.332279	0.790197	0.000093
1816	1.8059e+02	-7.6907	-31.449287	0.000162	1.622455	0.549703	0.000065
1817	1.8069e+02	-7.6378	-31.275691	0.000436	4.360347	1.477326	0.000174
1818	1.8079e+02	-7.6105	-31.162651	0.000284	2.839296	0.961980	0.000114
1819	1.8089e+02	-7.5607	-31.069797	0.000233	2.332279	0.790197	0.000093
1820	1.8099e+02	-7.5255	-30.972905	0.000243	2.433682	0.824554	0.000097
1821	1.8109e+02	-7.4854	-30.811420	0.000406	4.056137	1.374256	0.000162
1822	1.8119e+02	-7.4372	-30.718566	0.000233	2.332279	0.790197	0.000093
1823	1.8129e+02	-7.4067	-30.593415	0.000314	3.143506	1.065049	0.000126
1824	1.8139e+02	-7.3570	-30.484412	0.000274	2.737893	0.927623	0.000110
1825	1.8149e+02	-7.3346	-30.363298	0.000304	3.042103	1.030692	0.000122
1826	1.8159e+02	-7.2912	-30.242184	0.000304	3.042103	1.030692	0.000122
1827	1.8169e+02	-7.2479	-30.189701	0.000132	1.318245	0.446633	0.000053
1828	1.8179e+02	-7.2062	-30.036290	0.000385	3.853330	1.305544	0.000154
1829	1.8189e+02	-7.1677	-29.931324	0.000264	2.636489	0.893267	0.000105
1830	1.8199e+02	-7.1244	-29.802136	0.000324	3.244910	1.099405	0.000130
1831	1.8209e+02	-7.0875	-29.685059	0.000294	2.940699	0.996336	0.000118
1832	1.8218e+02	-7.0474	-29.572019	0.000284	2.839296	0.961980	0.000114
1833	1.8228e+02	-7.0041	-29.475128	0.000243	2.433682	0.824554	0.000097
1834	1.8238e+02	-6.9672	-29.349977	0.000314	3.143506	1.065049	0.000126
1835	1.8248e+02	-6.9287	-29.220788	0.000324	3.244910	1.099405	0.000130
1836	1.8258e+02	-6.8902	-29.115823	0.000264	2.636489	0.893267	0.000105
1837	1.8268e+02	-6.8517	-28.974523	0.000355	3.549120	1.202474	0.000142
1838	1.8278e+02	-6.8164	-28.869558	0.000264	2.636489	0.893267	0.000105
1839	1.8288e+02	-6.7715	-28.788815	0.000203	2.028069	0.687128	0.000081
1840	1.8298e+02	-6.7233	-28.631367	0.000395	3.954734	1.339900	0.000158
1841	1.8308e+02	-6.6897	-28.526401	0.000264	2.636489	0.893267	0.000105
1842	1.8318e+02	-6.6415	-28.360879	0.000416	4.157541	1.408613	0.000166
1843	1.8328e+02	-6.6046	-28.284173	0.000193	1.926665	0.652772	0.000077
1844	1.8338e+02	-6.5693	-28.159022	0.000314	3.143506	1.065049	0.000126
1845	1.8348e+02	-6.5228	-28.009648	0.000375	3.751927	1.271187	0.000150
1846	1.8358e+02	-6.4811	-27.916794	0.000233	2.332279	0.790197	0.000093
1847	1.8368e+02	-6.4490	-27.811828	0.000264	2.636489	0.893267	0.000105
1848	1.8378e+02	-6.4169	-27.698788	0.000284	2.839296	0.961980	0.000114
1849	1.8388e+02	-6.3768	-27.589786	0.000274	2.737893	0.927623	0.000110
1850	1.8398e+02	-6.3351	-27.444449	0.000365	3.650523	1.236831	0.000146
1851	1.8407e+02	-6.2790	-27.323335	0.000304	3.042103	1.030692	0.000122
1852	1.8417e+02	-6.2453	-27.202221	0.000304	3.042103	1.030692	0.000122
1853	1.8427e+02	-6.2148	-27.113404	0.000223	2.230875	0.755841	0.000089
1854	1.8437e+02	-6.1811	-26.984215	0.000324	3.244910	1.099405	0.000130
1855	1.8447e+02	-6.1362	-26.863101	0.000304	3.042103	1.030692	0.000122
1856	1.8457e+02	-6.0929	-26.721801	0.000355	3.549120	1.202474	0.000142
1857	1.8467e+02	-6.0576	-26.637022	0.000213	2.129472	0.721485	0.000085
1858	1.8477e+02	-6.0175	-26.475536	0.000406	4.056137	1.374256	0.000162
1859	1.8487e+02	-5.9774	-26.370571	0.000264	2.636489	0.893267	0.000105
1860	1.8497e+02	-5.9341	-26.237345	0.000335	3.346313	1.133762	0.000134
1861	1.8507e+02	-5.8923	-26.136417	0.000254	2.535086	0.858910	0.000101
1862	1.8517e+02	-5.8554	-25.974931	0.000406	4.056137	1.374256	0.000162
1863	1.8527e+02	-5.8121	-25.874003	0.000254	2.535086	0.858910	0.000101
1864	1.8537e+02	-5.7720	-25.781149	0.000233	2.332279	0.790197	0.000093
1865	1.8547e+02	-5.7351	-25.651960	0.000324	3.244910	1.099405	0.000130
1866	1.8557e+02	-5.6950	-25.530846	0.000304	3.042103	1.030692	0.000122
1867	1.8567e+02	-5.6565	-25.377435	0.000385	3.853330	1.305544	0.000154
1868	1.8577e+02	-5.6180	-25.268433	0.000274	2.737893	0.927623	0.000110
1869	1.8587e+02	-5.5779	-25.143281	0.000314	3.143506	1.065049	0.000126
1870	1.8597e+02	-5.5346	-25.038316	0.000264	2.636489	0.893267	0.000105
1871	1.8606e+02	-5.4945	-24.884905	0.000385	3.853330	1.305544	0.000154
1872	1.8616e+02	-5.4576	-24.767828	0.000294	2.940699	0.996336	0.000118
1873	1.8626e+02	-5.4191	-24.626528	0.000355	3.549120	1.202474	0.000142
1874	1.8636e+02	-5.3726	-24.521562	0.000264	2.636489	0.893267	0.000105
1875	1.8646e+02	-5.3421	-24.412560	0.000274	2.737893	0.927623	0.000110
1876	1.8656e+02	-5.2940	-24.263186	0.000375	3.751927	1.271187	0.000150
1877	1.8666e+02	-5.2603	-24.133997	0.000324	3.244910	1.099405	0.000130
1878	1.8676e+02	-5.2234	-24.000772	0.000335	3.346313	1.133762	0.000134
1879	1.8686e+02	-5.1753	-23.915992	0.000213	2.129472	0.721485	0.000085
1880	1.8696e+02	-5.1368	-23.758544	0.000395	3.954734	1.339900	0.000158
1881	1.8706e+02	-5.1031	-23.621281	0.000345	3.447717	1.168118	0.000138
1882	1.8716e+02	-5.0614	-23.508241	0.000284	2.839296	0.961980	0.000114
1883	1.8726e+02	-5.0180	-23.407313	0.000254	2.535086	0.858910	0.000101
1884	1.8736e+02	-4.9811	-23.241790	0.000416	4.157541	1.408613	0.000166
1885	1.8746e+02	-4.9426	-23.124714	0.000294	2.940699	0.996336	0.000118
1886	1.8756e+02	-4.9090	-23.019748	0.000264	2.636489	0.893267	0.000105
1887	1.8766e+02	-4.8528	-22.878448	0.000355	3.549120	1.202474	0.000142
1888	1.8776e+02	-4.8143	-22.733111	0.000365	3.650523	1.236831	0.000146
1889	1.8786e+02	-4.7742	-22.624109	0.000274	2.737893	0.927623	0.000110
1890	1.8796e+02	-4.7453	-22.474735	0.000375	3.751927	1.271187	0.000150
1891	1.8806e+02	-4.6988	-22.381881	0.000233	2.332279	0.790197	0.000093
1892	1.8815e+02	-4.6587	-22.220395	0.000406	4.056137	1.374256	0.000162
1893	1.8825e+02	-4.6170	-22.103318	0.000294	2.940699	0.996336	0.000118
1894	1.8835e+02	-4.5801	-22.002390	0.000254	2.535086	0.858910	0.000101
1895	1.8845e+02	-4.5384	-21.820719	0.000456	4.563154	1.546039	0.000183
1896	1.8855e+02	-4.4951	-21.727865	0.000233	2.332279	0.790197	0.000093
1897	1.8865e+02	-4.4566	-21.606750	0.000304	3.042103	1.030692	0.000122
1898	1.8875e+02	-4.4245	-21.469488	0.000345	3.447717	1.168118	0.000138
1899	1.8885e+02	-4.3763	-21.332225	0.000345	3.447717	1.168118	0.000138
1900	1.8895e+02	-4.3330	-21.174777	0.000395	3.954734	1.339900	0.000158
1901	1.8905e+02	-4.2961	-21.041551	0.000335	3.346313	1.133762	0.000134
1902	1.8915e+02	-4.2592	-20.972920	0.000172	1.723858	0.584059	0.000069
1903	1.8925e+02	-4.2239	-20.819509	0.000385	3.853330	1.305544	0.000154
1904	1.8935e+02	-4.1822	-20.678209	0.000355	3.549120	1.202474	0.000142
1905	1.8945e+02	-4.1453	-20.581318	0.000243	2.433682	0.824554	0.000097
1906	1.8955e+02	-4.1004	-20.411758	0.000426	4.258944	1.442969	0.000170
1907	1.8965e+02	-4.0635	-20.343127	0.000172	1.723858	0.584059	0.000069
1908	1.8975e+02	-4.0202	-20.173567	0.000426	4.258944	1.442969	0.000170
1909	1.8985e+02	-3.9833	-20.076676	0.000243	2.433682	0.824554	0.000097
1910	1.8995e+02	-3.9352	-19.923265	0.000385	3.853330	1.305544	0.000154
1911	1.9004e+02	-3.8967	-19.777928	0.000365	3.650523	1.236831	0.000146
1912	1.9014e+02	-3.8662	-19.689111	0.000223	2.230875	0.755841	0.000089
1913	1.9024e+02	-3.8213	-19.547811	0.000355	3.549120	1.202474	0.000142
1914	1.9034e+02	-3.7796	-19.390363	0.000395	3.954734	1.339900	0.000158
1915	1.9044e+02	-3.7427	-19.309620	0.000203	2.028069	0.687128	0.000081
1916	1.9054e+02	-3.6962	-19.131986	0.000446	4.461751	1.511682	0.000179
1917	1.9064e+02	-3.6609	-19.006835	0.000314	3.143506	1.065049	0.000126
1918	1.9074e+02	-3.6175	-18.881684	0.000314	3.143506	1.065049	0.000126
1919	1.9084e+02	-3.5855	-18.740384	0.000355	3.549120	1.202474	0.000142
1920	1.9094e+02	-3.5421	-18.627344	0.000284	2.839296	0.961980	0.000114
1921	1.9104e+02	-3.5069	-18.457785	0.000426	4.258944	1.442969	0.000170
1922	1.9114e+02	-3.4684	-18.356856	0.000254	2.535086	0.858910	0.000101
1923	1.9124e+02	-3.4347	-18.219594	0.000345	3.447717	1.168118	0.000138
1924	1.9134e+02	-3.3817	-18.114628	0.000264	2.636489	0.893267	0.000105
1925	1.9144e+02	-3.3480	-17.977365	0.000345	3.447717	1.168118	0.000138
1926	1.9154e+02	-3.3015	-17.844140	0.000335	3.346313	1.133762	0.000134
1927	1.9164e+02	-3.2614	-17.763397	0.000203	2.028069	0.687128	0.000081
1928	1.9174e+02	-3.2277	-17.565578	0.000497	4.968768	1.683464	0.000199
1929	1.9184e+02	-3.1796	-17.476761	0.000223	2.230875	0.755841	0.000089
1930	1.9194e+02	-3.1411	-17.343535	0.000335	3.346313	1.133762	0.000134
1931	1.9203e+02	-3.1026	-17.210310	0.000335	3.346313	1.133762	0.000134
1932	1.9213e+02	-3.0641	-17.064973	0.000365	3.650523	1.236831	0.000146
1933	1.9223e+02	-3.0256	-16.923673	0.000355	3.549120	1.202474	0.000142
1934	1.9233e+02	-2.9807	-16.798522	0.000314	3.143506	1.065049	0.000126
1935	1.9243e+02	-2.9534	-16.669333	0.000324	3.244910	1.099405	0.000130
1936	1.9253e+02	-2.9037	-16.572442	0.000243	2.433682	0.824554	0.000097
1937	1.9263e+02	-2.8571	-16.410957	0.000406	4.056137	1.374256	0.000162
1938	1.9273e+02	-2.8267	-16.277731	0.000335	3.346313	1.133762	0.000134
1939	1.9283e+02	-2.7946	-16.160654	0.000294	2.940699	0.996336	0.000118
1940	1.9293e+02	-2.7497	-16.043577	0.000294	2.940699	0.996336	0.000118
1941	1.9303e+02	-2.7047	-15.934575	0.000274	2.737893	0.927623	0.000110
1942	1.9313e+02	-2.6759	-15.760978	0.000436	4.360347	1.477326	0.000174
1943	1.9323e+02	-2.6309	-15.639864	0.000304	3.042103	1.030692	0.000122
1944	1.9333e+02	-2.5860	-15.498564	0.000355	3.549120	1.202474	0.000142
1945	1.9343e+02	-2.5475	-15.369376	0.000324	3.244910	1.099405	0.000130
1946	1.9353e+02	-2.5122	-15.264410	0.000264	2.636489	0.893267	0.000105
1947	1.9363e+02	-2.4673	-15.127148	0.000345	3.447717	1.168118	0.000138
1948	1.9373e+02	-2.4336	-15.001996	0.000314	3.143506	1.065049	0.000126
1949	1.9383e+02	-2.3871	-14.848585	0.000385	3.853330	1.305544	0.000154
1950	1.9393e+02	-2.3470	-14.683063	0.000416	4.157541	1.408613	0.000166
1951	1.9403e+02	-2.3117	-14.582134	0.000254	2.535086	0.858910	0.000101
1952	1.9412e+02	-2.2700	-14.452946	0.000324	3.244910	1.099405	0.000130
1953	1.9422e+02	-2.2315	-14.299535	0.000385	3.853330	1.305544	0.000154
1954	1.9432e+02	-2.1914	-14.214755	0.000213	2.129472	0.721485	0.000085
1955	1.9442e+02	-2.1577	-14.081529	0.000335	3.346313	1.133762	0.000134
1956	1.9452e+02	-2.1112	-13.968490	0.000284	2.839296	0.961980	0.000114
1957	1.9462e+02	-2.0727	-13.790856	0.000446	4.461751	1.511682	0.000179
1958	1.9472e+02	-2.0342	-13.653593	0.000345	3.447717	1.168118	0.000138
1959	1.9482e+02	-1.9925	-13.588999	0.000162	1.622455	0.549703	0.000065
1960	1.9492e+02	-1.9443	-13.407328	0.000456	4.563154	1.546039	0.000183
1961	1.9502e+02	-1.9074	-13.266028	0.000355	3.549120	1.202474	0.000142
1962	1.9512e+02	-1.8689	-13.189322	0.000193	1.926665	0.652772	0.000077
1963	1.9522e+02	-1.8272	-13.039948	0.000375	3.751927	1.271187	0.000150
1964	1.9532e+02	-1.7839	-12.910760	0.000324	3.244910	1.099405	0.000130
1965	1.9542e+02	-1.7518	-12.745238	0.000416	4.157541	1.408613	0.000166
1966	1.9552e+02	-1.7085	-12.652383	0.000233	2.332279	0.790197	0.000093
1967	1.9562e+02	-1.6684	-12.498972	0.000385	3.853330	1.305544	0.000154
1968	1.9572e+02	-1.6267	-12.385932	0.000284	2.839296	0.961980	0.000114
1969	1.9582e+02	-1.5994	-12.232521	0.000385	3.853330	1.305544	0.000154
1970	1.9592e+02	-1.5481	-12.167927	0.000162	1.622455	0.549703	0.000065
1971	1.9601e+02	-1.5176	-11.998367	0.000426	4.258944	1.442969	0.000170
1972	1.9611e+02	-1.4647	-11.840919	0.000395	3.954734	1.339900	0.000158
1973	1.9621e+02	-1.4197	-11.711731	0.000324	3.244910	1.099405	0.000130
1974	1.9631e+02	-1.3925	-11.562357	0.000375	3.751927	1.271187	0.000150
1975	1.9641e+02	-1.3540	-11.453354	0.000274	2.737893	0.927623	0.000110
1976	1.9651e+02	-1.3139	-11.332240	0.000304	3.042103	1.030692	0.000122
1977	1.9661e+02	-1.2706	-11.194977	0.000345	3.447717	1.168118	0.000138
1978	1.9671e+02	-1.2353	-11.049641	0.000365	3.650523	1.236831	0.000146
1979	1.9681e+02	-1.2000	-10.920452	0.000324	3.244910	1.099405	0.000130
1980	1.9691e+02	-1.1550	-10.787227	0.000335	3.346313	1.133762	0.000134
1981	1.9701e+02	-1.1085	-10.658038	0.000324	3.244910	1.099405	0.000130
1982	1.9711e+02	-1.0684	-10.520776	0.000345	3.447717	1.168118	0.000138
1983	1.9721e+02	-1.0283	-10.367365	0.000385	3.853330	1.305544	0.000154
1984	1.9731e+02	-1.0010	-10.266436	0.000254	2.535086	0.858910	0.000101
1985	1.9741e+02	-0.9449	-10.108988	0.000395	3.954734	1.339900	0.000158
1986	1.9751e+02	-0.9064	-9.999985	0.000274	2.737893	0.927623	0.000110
1987	1.9761e+02	-0.8743	-9.854648	0.000365	3.650523	1.236831	0.000146
1988	1.9771e+02	-0.8262	-9.745646	0.000274	2.737893	0.927623	0.000110
1989	1.9781e+02	-0.7909	-9.596272	0.000375	3.751927	1.271187	0.000150
1990	1.9791e+02	-0.7492	-9.442860	0.000385	3.853330	1.305544	0.000154
1991	1.9800e+02	-0.7155	-9.337895	0.000264	2.636489	0.893267	0.000105
1992	1.9810e+02	-0.6770	-9.200632	0.000345	3.447717	1.168118	0.000138
1993	1.9820e+02	-0.6369	-9.039147	0.000406	4.056137	1.374256	0.000162
1994	1.9830e+02	-0.5968	-8.926107	0.000284	2.839296	0.961980	0.000114
1995	1.9840e+02	-0.5615	-8.776733	0.000375	3.751927	1.271187	0.000150
1996	1.9850e+02	-0.5134	-8.615248	0.000406	4.056137	1.374256	0.000162
1997	1.9860e+02	-0.4684	-8.514319	0.000254	2.535086	0.858910	0.000101
1998	1.9870e+02	-0.4444	-8.377057	0.000345	3.447717	1.168118	0.000138
1999	1.9880e+02	-0.3914	-8.191348	0.000466	4.664558	1.580395	0.000187
2000	1.9890e+02	-0.3610	-8.078309	0.000284	2.839296	0.961980	0.000114
2001	1.9900e+02	-0.3128	-7.953157	0.000314	3.143506	1.065049	0.000126
2002	1.9910e+02	-0.2759	-7.844155	0.000274	2.737893	0.927623	0.000110
2003	1.9920e+02	-0.2278	-7.690744	0.000385	3.853330	1.305544	0.000154
2004	1.9930e+02	-0.1877	-7.577704	0.000284	2.839296	0.961980	0.000114
2005	1.9940e+02	-0.1508	-7.420255	0.000395	3.954734	1.339900	0.000158
2006	1.9950e+02	-0.1219	-7.295104	0.000314	3.143506	1.065049	0.000126
2007	1.9960e+02	-0.0754	-7.149767	0.000365	3.650523	1.236831	0.000146
2008	1.9970e+02	-0.0353	-6.996356	0.000385	3.853330	1.305544	0.000154
2009	1.9980e+02	-0.0032	-6.895428	0.000385	3.853330	1.305544	0.000101

PMax (uC/cm2):	6.55e+01
Pr (uC/cm2):	4.62e+00
-Pr (uC/cm2):	-1.97e+00
PLoss (uC/cm2):	-1.99e+00
-Vc:	-1.34e+00
C (Max-Eff) (nF):	3.28e-01
K (Eff):	1.11e+03
Vert. (+/-Pr) Shift (uC/cm2):	1.33e+00
Offset (uC/cm2):	4.93e+00

A (Loop Area - uC/cm2·Volts):	-4.60e-03



Hysteresis Version: 5.48.1 - Radiant Technologies, Inc., 1999 - 9/12/24

