»»»»»»»»»»»»»»»»»»»»»»»»»»»»»»»»»»»» Hysteresis ««««««««««««««««««««««««««««««««««««
»»»  Executed Version:	5.48.1
»»»  Vision Version:	5.48.4 (R)
»»»  Vision Compiled:	9/18/24
»»»  Driver Version:	5.47.0
»»»  Windows Version:	Windows 8 or 8.1
»»»  Processor Information:	x86 (AMD or Intel) - 32 Processors
»»»  Tester Name:	PMF21124-494 (100V)
»»»  Tester S/N:	PMF21124-494
»»»  Internal Amp Type:	100V RevK 270k
»»»  Internal Amp S/N:	iAB2-596/K     
»»»  Execution Count:	1
»»»»»»»»»»»»»»»»»»»»»»»»»»»»»»»»»»»»»»»»»»««««««««««««««««««««««««««««««««««««««««««

Stored:	6/18/2025 - 14:57:44
Configured:	06/18/25 09:47:30 AM
Executed:	06/18/25 02:57:13 PM

»»»»»»»»»»»»»»»»»»»»»»»»»»»»»»»»»»» Sample Info ««««««««««««««««««««««««««««««««««««
Sample Name:	
Lot Name:	
Wafer Name:	
Die Row/Column:	0/0
Capacitor Number:	0
Sample Area (cm2):	1.00e-04
Sample Thickness (microns):	3.00e-01

Amplifier:	Internal

»»»»»»»»»»»»»»»»»»»»»»»»»»»»»»»»»»» Tester Info «««««««««««««««««««««««««««««««««««
Tester Name:	PMF21124-494 (100V)
Tester Serial Number:	PMF21124-494
Return Signal Amp. Level:	0.19 [Index: 3]

»»»»»»»»»»»»»»»»»»»»»»»»»»»»»»»» Hysteresis Info ««««««««««««««««««««««««««««««««««
Task Name:	Hyst-554
Volts:	20.00
Field:	666.67 (kV/cm)
DCBias:	0.00
DCField:	0.00 (kV/cm)
Hysteresis Period (ms):	2.00e+02
Preset:	Enabled
Preset Delay (ms):	1.00e+03
Profile:	Standard Bipolar

»»»»»»»»»»»»»»»»»»»»»»»»»»»»»»»»»»»»»» Data «««««««««««««««««««««««««««««««««««««««
Points:	2009

Valid Data

Point	Time (ms)	Drive Voltage	Measured Polarization (uC/cm2)	Capacitance (uF)	Normalized Capacitance (uF/cm2)	Dielectric Constant	Instantaneous Current (mA)
   1	0.0000e+00	0.0080	-2.634231	0.000355	3.548194	1.202161	0.000142
   2	9.9500e-02	0.0305	-2.492931	0.000355	3.548194	1.202161	0.000142
   3	1.9900e-01	0.0690	-2.246666	0.000618	6.183996	2.095195	0.000248
   4	2.9850e-01	0.1251	-2.064995	0.000456	4.561964	1.545635	0.000183
   5	3.9800e-01	0.1636	-1.855064	0.000527	5.271603	1.786067	0.000211
   6	4.9750e-01	0.1973	-1.657244	0.000497	4.967472	1.683025	0.000199
   7	5.9700e-01	0.2358	-1.467499	0.000476	4.764718	1.614330	0.000191
   8	6.9650e-01	0.2791	-1.245456	0.000558	5.575734	1.889110	0.000223
   9	7.9600e-01	0.3225	-1.051674	0.000487	4.866095	1.648678	0.000195
  10	8.9550e-01	0.3658	-0.825594	0.000568	5.677111	1.923457	0.000227
  11	9.9500e-01	0.3898	-0.563180	0.000659	6.589504	2.232584	0.000264
  12	1.0945e+00	0.4331	-0.433992	0.000324	3.244063	1.099118	0.000130
  13	1.1940e+00	0.4749	-0.171578	0.000659	6.589504	2.232584	0.000264
  14	1.2935e+00	0.5134	0.026241	0.000497	4.967472	1.683025	0.000199
  15	1.3930e+00	0.5567	0.260395	0.000588	5.879865	1.992152	0.000235
  16	1.4925e+00	0.5968	0.470326	0.000527	5.271603	1.786067	0.000211
  17	1.5920e+00	0.6369	0.651997	0.000456	4.561964	1.545635	0.000183
  18	1.6915e+00	0.6738	0.906337	0.000639	6.386750	2.163889	0.000256
  19	1.7910e+00	0.7075	1.043600	0.000345	3.446817	1.167813	0.000138
  20	1.8905e+00	0.7540	1.297939	0.000639	6.386750	2.163889	0.000256
  21	1.9900e+00	0.7989	1.487685	0.000476	4.764718	1.614330	0.000191
  22	2.0895e+00	0.8358	1.750098	0.000659	6.589504	2.232584	0.000264
  23	2.1890e+00	0.8663	1.947918	0.000497	4.967472	1.683025	0.000199
  24	2.2885e+00	0.9080	2.178035	0.000578	5.778488	1.957805	0.000231
  25	2.3880e+00	0.9513	2.363743	0.000466	4.663341	1.579983	0.000187
  26	2.4875e+00	0.9930	2.593860	0.000578	5.778488	1.957805	0.000231
  27	2.5870e+00	1.0315	2.828014	0.000588	5.879865	1.992152	0.000235
  28	2.6865e+00	1.0748	3.050056	0.000558	5.575734	1.889110	0.000223
  29	2.7860e+00	1.1085	3.264024	0.000537	5.372980	1.820415	0.000215
  30	2.8855e+00	1.1470	3.506252	0.000608	6.082619	2.060847	0.000243
  31	2.9850e+00	1.1871	3.691961	0.000466	4.663341	1.579983	0.000187
  32	3.0845e+00	1.2224	3.909966	0.000547	5.474357	1.854762	0.000219
  33	3.1840e+00	1.2706	4.160268	0.000629	6.285373	2.129542	0.000252
  34	3.2835e+00	1.3155	4.378274	0.000547	5.474357	1.854762	0.000219
  35	3.3830e+00	1.3540	4.563982	0.000466	4.663341	1.579983	0.000187
  36	3.4825e+00	1.3861	4.822359	0.000649	6.488127	2.198237	0.000260
  37	3.5820e+00	1.4374	5.020178	0.000497	4.967472	1.683025	0.000199
  38	3.6815e+00	1.4743	5.254332	0.000588	5.879865	1.992152	0.000235
  39	3.7810e+00	1.5096	5.512709	0.000649	6.488127	2.198237	0.000260
  40	3.8805e+00	1.5513	5.690343	0.000446	4.460587	1.511288	0.000179
  41	3.9800e+00	1.5914	5.916422	0.000568	5.677111	1.923457	0.000227
  42	4.0795e+00	1.6331	6.130391	0.000537	5.372980	1.820415	0.000215
  43	4.1790e+00	1.6812	6.384730	0.000639	6.386750	2.163889	0.000256
  44	4.2785e+00	1.7117	6.618884	0.000588	5.879865	1.992152	0.000235
  45	4.3780e+00	1.7502	6.865149	0.000618	6.183996	2.095195	0.000248
  46	4.4775e+00	1.7967	7.067006	0.000507	5.068849	1.717373	0.000203
  47	4.5770e+00	1.8272	7.280974	0.000537	5.372980	1.820415	0.000215
  48	4.6765e+00	1.8689	7.515128	0.000588	5.879865	1.992152	0.000235
  49	4.7760e+00	1.9171	7.757356	0.000608	6.082619	2.060847	0.000243
  50	4.8755e+00	1.9395	8.003622	0.000618	6.183996	2.095195	0.000248
  51	4.9750e+00	1.9925	8.253924	0.000629	6.285373	2.129542	0.000252
  52	5.0745e+00	2.0310	8.451744	0.000497	4.967472	1.683025	0.000199
  53	5.1740e+00	2.0727	8.649563	0.000497	4.967472	1.683025	0.000199
  54	5.2735e+00	2.0983	8.928126	0.000700	6.995012	2.369974	0.000280
  55	5.3730e+00	2.1433	9.158242	0.000578	5.778488	1.957805	0.000231
  56	5.4725e+00	2.1850	9.384322	0.000568	5.677111	1.923457	0.000227
  57	5.5720e+00	2.2267	9.618476	0.000588	5.879865	1.992152	0.000235
  58	5.6715e+00	2.2652	9.848593	0.000578	5.778488	1.957805	0.000231
  59	5.7710e+00	2.3021	10.030264	0.000456	4.561964	1.545635	0.000183
  60	5.8705e+00	2.3502	10.324975	0.000740	7.400520	2.507364	0.000296
  61	5.9700e+00	2.3887	10.555091	0.000578	5.778488	1.957805	0.000231
  62	6.0695e+00	2.4352	10.777134	0.000558	5.575734	1.889110	0.000223
  63	6.1690e+00	2.4625	11.011288	0.000588	5.879865	1.992152	0.000235
  64	6.2685e+00	2.5090	11.217182	0.000517	5.170226	1.751720	0.000207
  65	6.3680e+00	2.5491	11.475558	0.000649	6.488127	2.198237	0.000260
  66	6.4675e+00	2.5956	11.750084	0.000689	6.893635	2.335627	0.000276
  67	6.5670e+00	2.6309	11.947903	0.000497	4.967472	1.683025	0.000199
  68	6.6665e+00	2.6678	12.178020	0.000578	5.778488	1.957805	0.000231
  69	6.7660e+00	2.7192	12.391988	0.000537	5.372980	1.820415	0.000215
  70	6.8655e+00	2.7416	12.662476	0.000679	6.792258	2.301279	0.000272
  71	6.9650e+00	2.7914	12.872407	0.000527	5.271603	1.786067	0.000211
  72	7.0645e+00	2.8202	13.106561	0.000588	5.879865	1.992152	0.000235
  73	7.1640e+00	2.8652	13.368975	0.000659	6.589504	2.232584	0.000264
  74	7.2635e+00	2.9037	13.603129	0.000588	5.879865	1.992152	0.000235
  75	7.3630e+00	2.9422	13.833246	0.000578	5.778488	1.957805	0.000231
  76	7.4625e+00	2.9791	14.055288	0.000558	5.575734	1.889110	0.000223
  77	7.5620e+00	3.0144	14.293479	0.000598	5.981242	2.026500	0.000239
  78	7.6615e+00	3.0641	14.515522	0.000558	5.575734	1.889110	0.000223
  79	7.7610e+00	3.1042	14.802158	0.000720	7.197766	2.438669	0.000288
  80	7.8605e+00	3.1523	14.995941	0.000487	4.866095	1.648678	0.000195
  81	7.9600e+00	3.1940	15.258355	0.000659	6.589504	2.232584	0.000264
  82	8.0595e+00	3.2245	15.492508	0.000588	5.879865	1.992152	0.000235
  83	8.1590e+00	3.2630	15.706477	0.000537	5.372980	1.820415	0.000215
  84	8.2585e+00	3.3015	15.952742	0.000618	6.183996	2.095195	0.000248
  85	8.3580e+00	3.3400	16.170747	0.000547	5.474357	1.854762	0.000219
  86	8.4575e+00	3.3849	16.429124	0.000649	6.488127	2.198237	0.000260
  87	8.5570e+00	3.4298	16.679426	0.000629	6.285373	2.129542	0.000252
  88	8.6565e+00	3.4555	16.909543	0.000578	5.778488	1.957805	0.000231
  89	8.7560e+00	3.5052	17.135623	0.000568	5.677111	1.923457	0.000227
  90	8.8555e+00	3.5357	17.381888	0.000618	6.183996	2.095195	0.000248
  91	8.9550e+00	3.5790	17.603930	0.000558	5.575734	1.889110	0.000223
  92	9.0545e+00	3.6256	17.866344	0.000659	6.589504	2.232584	0.000264
  93	9.1540e+00	3.6593	18.124721	0.000649	6.488127	2.198237	0.000260
  94	9.2535e+00	3.7026	18.342726	0.000547	5.474357	1.854762	0.000219
  95	9.3530e+00	3.7459	18.584954	0.000608	6.082619	2.060847	0.000243
  96	9.4525e+00	3.7796	18.806997	0.000558	5.575734	1.889110	0.000223
  97	9.5520e+00	3.8277	19.069411	0.000659	6.589504	2.232584	0.000264
  98	9.6515e+00	3.8534	19.299527	0.000578	5.778488	1.957805	0.000231
  99	9.7510e+00	3.9015	19.553867	0.000639	6.386750	2.163889	0.000256
 100	9.8505e+00	3.9352	19.820318	0.000669	6.690881	2.266932	0.000268
 101	9.9500e+00	3.9833	20.042360	0.000558	5.575734	1.889110	0.000223
 102	1.0050e+01	4.0234	20.280551	0.000598	5.981242	2.026500	0.000239
 103	1.0149e+01	4.0619	20.502594	0.000558	5.575734	1.889110	0.000223
 104	1.0248e+01	4.0988	20.752896	0.000629	6.285373	2.129542	0.000252
 105	1.0348e+01	4.1325	21.015310	0.000659	6.589504	2.232584	0.000264
 106	1.0447e+01	4.1854	21.277724	0.000659	6.589504	2.232584	0.000264
 107	1.0547e+01	4.2159	21.503804	0.000568	5.677111	1.923457	0.000227
 108	1.0646e+01	4.2560	21.786403	0.000710	7.096389	2.404322	0.000284
 109	1.0746e+01	4.3090	22.004408	0.000547	5.474357	1.854762	0.000219
 110	1.0845e+01	4.3378	22.222414	0.000547	5.474357	1.854762	0.000219
 111	1.0945e+01	4.3796	22.436382	0.000537	5.372980	1.820415	0.000215
 112	1.1044e+01	4.4213	22.723019	0.000720	7.197766	2.438669	0.000288
 113	1.1144e+01	4.4566	22.977358	0.000639	6.386750	2.163889	0.000256
 114	1.1243e+01	4.4967	23.223623	0.000618	6.183996	2.095195	0.000248
 115	1.1343e+01	4.5400	23.413369	0.000476	4.764718	1.614330	0.000191
 116	1.1443e+01	4.5753	23.691931	0.000700	6.995012	2.369974	0.000280
 117	1.1542e+01	4.6138	23.905899	0.000537	5.372980	1.820415	0.000215
 118	1.1642e+01	4.6651	24.200610	0.000740	7.400520	2.507364	0.000296
 119	1.1741e+01	4.6924	24.402467	0.000507	5.068849	1.717373	0.000203
 120	1.1841e+01	4.7373	24.676992	0.000689	6.893635	2.335627	0.000276
 121	1.1940e+01	4.7854	24.935369	0.000649	6.488127	2.198237	0.000260
 122	1.2040e+01	4.8271	25.129151	0.000487	4.866095	1.648678	0.000195
 123	1.2139e+01	4.8624	25.371380	0.000608	6.082619	2.060847	0.000243
 124	1.2239e+01	4.9009	25.601496	0.000578	5.778488	1.957805	0.000231
 125	1.2338e+01	4.9426	25.867947	0.000669	6.690881	2.266932	0.000268
 126	1.2438e+01	4.9795	26.094027	0.000568	5.677111	1.923457	0.000227
 127	1.2537e+01	5.0212	26.348366	0.000639	6.386750	2.163889	0.000256
 128	1.2636e+01	5.0598	26.586557	0.000598	5.981242	2.026500	0.000239
 129	1.2736e+01	5.0934	26.832823	0.000618	6.183996	2.095195	0.000248
 130	1.2835e+01	5.1400	27.046791	0.000537	5.372980	1.820415	0.000215
 131	1.2935e+01	5.1769	27.305168	0.000649	6.488127	2.198237	0.000260
 132	1.3034e+01	5.2105	27.559507	0.000639	6.386750	2.163889	0.000256
 133	1.3134e+01	5.2619	27.797698	0.000598	5.981242	2.026500	0.000239
 134	1.3233e+01	5.2924	28.035889	0.000598	5.981242	2.026500	0.000239
 135	1.3333e+01	5.3373	28.278117	0.000608	6.082619	2.060847	0.000243
 136	1.3432e+01	5.3838	28.528420	0.000629	6.285373	2.129542	0.000252
 137	1.3532e+01	5.4207	28.774685	0.000618	6.183996	2.095195	0.000248
 138	1.3632e+01	5.4528	29.008839	0.000588	5.879865	1.992152	0.000235
 139	1.3731e+01	5.4881	29.263178	0.000639	6.386750	2.163889	0.000256
 140	1.3831e+01	5.5346	29.456961	0.000487	4.866095	1.648678	0.000195
 141	1.3930e+01	5.5747	29.747635	0.000730	7.299143	2.473016	0.000292
 142	1.4030e+01	5.6164	29.977751	0.000578	5.778488	1.957805	0.000231
 143	1.4129e+01	5.6469	30.260351	0.000710	7.096389	2.404322	0.000284
 144	1.4229e+01	5.6982	30.466245	0.000517	5.170226	1.751720	0.000207
 145	1.4328e+01	5.7319	30.736733	0.000679	6.792258	2.301279	0.000272
 146	1.4428e+01	5.7672	30.958775	0.000558	5.575734	1.889110	0.000223
 147	1.4527e+01	5.8218	31.229264	0.000679	6.792258	2.301279	0.000272
 148	1.4627e+01	5.8506	31.435157	0.000517	5.170226	1.751720	0.000207
 149	1.4726e+01	5.8891	31.669311	0.000588	5.879865	1.992152	0.000235
 150	1.4825e+01	5.9405	31.935762	0.000669	6.690881	2.266932	0.000268
 151	1.4925e+01	5.9838	32.186065	0.000629	6.285373	2.129542	0.000252
 152	1.5024e+01	6.0159	32.420219	0.000588	5.879865	1.992152	0.000235
 153	1.5124e+01	6.0431	32.686670	0.000669	6.690881	2.266932	0.000268
 154	1.5223e+01	6.0913	32.908712	0.000558	5.575734	1.889110	0.000223
 155	1.5323e+01	6.1394	33.167089	0.000649	6.488127	2.198237	0.000260
 156	1.5422e+01	6.1763	33.401243	0.000588	5.879865	1.992152	0.000235
 157	1.5522e+01	6.2084	33.683842	0.000710	7.096389	2.404322	0.000284
 158	1.5621e+01	6.2645	33.917996	0.000588	5.879865	1.992152	0.000235
 159	1.5721e+01	6.2870	34.115816	0.000497	4.967472	1.683025	0.000199
 160	1.5820e+01	6.3367	34.378229	0.000659	6.589504	2.232584	0.000264
 161	1.5920e+01	6.3736	34.636606	0.000649	6.488127	2.198237	0.000260
 162	1.6020e+01	6.4041	34.858649	0.000558	5.575734	1.889110	0.000223
 163	1.6119e+01	6.4570	35.104914	0.000618	6.183996	2.095195	0.000248
 164	1.6218e+01	6.4939	35.359253	0.000639	6.386750	2.163889	0.000256
 165	1.6318e+01	6.5244	35.629741	0.000679	6.792258	2.301279	0.000272
 166	1.6418e+01	6.5774	35.851784	0.000558	5.575734	1.889110	0.000223
 167	1.6517e+01	6.6110	36.134383	0.000710	7.096389	2.404322	0.000284
 168	1.6616e+01	6.6479	36.352389	0.000547	5.474357	1.854762	0.000219
 169	1.6716e+01	6.6880	36.594617	0.000608	6.082619	2.060847	0.000243
 170	1.6816e+01	6.7314	36.836845	0.000608	6.082619	2.060847	0.000243
 171	1.6915e+01	6.7667	37.079073	0.000608	6.082619	2.060847	0.000243
 172	1.7015e+01	6.8164	37.345524	0.000669	6.690881	2.266932	0.000268
 173	1.7114e+01	6.8437	37.575641	0.000578	5.778488	1.957805	0.000231
 174	1.7213e+01	6.8886	37.801720	0.000568	5.677111	1.923457	0.000227
 175	1.7313e+01	6.9223	38.056060	0.000639	6.386750	2.163889	0.000256
 176	1.7413e+01	6.9656	38.326548	0.000679	6.792258	2.301279	0.000272
 177	1.7512e+01	7.0137	38.532442	0.000517	5.170226	1.751720	0.000207
 178	1.7611e+01	7.0426	38.806967	0.000689	6.893635	2.335627	0.000276
 179	1.7711e+01	7.0875	39.049195	0.000608	6.082619	2.060847	0.000243
 180	1.7811e+01	7.1308	39.291424	0.000608	6.082619	2.060847	0.000243
 181	1.7910e+01	7.1661	39.525577	0.000588	5.879865	1.992152	0.000235
 182	1.8009e+01	7.2046	39.808177	0.000710	7.096389	2.404322	0.000284
 183	1.8109e+01	7.2495	40.026182	0.000547	5.474357	1.854762	0.000219
 184	1.8209e+01	7.2864	40.264373	0.000598	5.981242	2.026500	0.000239
 185	1.8308e+01	7.3281	40.534861	0.000679	6.792258	2.301279	0.000272
 186	1.8407e+01	7.3634	40.724607	0.000476	4.764718	1.614330	0.000191
 187	1.8507e+01	7.4051	40.966835	0.000608	6.082619	2.060847	0.000243
 188	1.8607e+01	7.4468	41.200989	0.000588	5.879865	1.992152	0.000235
 189	1.8706e+01	7.4870	41.483588	0.000710	7.096389	2.404322	0.000284
 190	1.8805e+01	7.5271	41.774262	0.000730	7.299143	2.473016	0.000292
 191	1.8905e+01	7.5656	41.959970	0.000466	4.663341	1.579983	0.000187
 192	1.9005e+01	7.6121	42.214310	0.000639	6.386750	2.163889	0.000256
 193	1.9104e+01	7.6490	42.464612	0.000629	6.285373	2.129542	0.000252
 194	1.9203e+01	7.6843	42.731063	0.000669	6.690881	2.266932	0.000268
 195	1.9303e+01	7.7180	42.989440	0.000649	6.488127	2.198237	0.000260
 196	1.9402e+01	7.7549	43.219557	0.000578	5.778488	1.957805	0.000231
 197	1.9502e+01	7.8094	43.473896	0.000639	6.386750	2.163889	0.000256
 198	1.9602e+01	7.8479	43.704013	0.000578	5.778488	1.957805	0.000231
 199	1.9701e+01	7.8928	43.934130	0.000578	5.778488	1.957805	0.000231
 200	1.9800e+01	7.9249	44.188469	0.000639	6.386750	2.163889	0.000256
 201	1.9900e+01	7.9698	44.454920	0.000669	6.690881	2.266932	0.000268
 202	2.0000e+01	8.0115	44.697148	0.000608	6.082619	2.060847	0.000243
 203	2.0099e+01	8.0452	44.951488	0.000639	6.386750	2.163889	0.000256
 204	2.0198e+01	8.0837	45.185642	0.000588	5.879865	1.992152	0.000235
 205	2.0298e+01	8.1254	45.439981	0.000639	6.386750	2.163889	0.000256
 206	2.0398e+01	8.1655	45.686247	0.000618	6.183996	2.095195	0.000248
 207	2.0497e+01	8.2008	45.932512	0.000618	6.183996	2.095195	0.000248
 208	2.0596e+01	8.2361	46.190889	0.000649	6.488127	2.198237	0.000260
 209	2.0696e+01	8.2810	46.437154	0.000618	6.183996	2.095195	0.000248
 210	2.0796e+01	8.3292	46.667271	0.000578	5.778488	1.957805	0.000231
 211	2.0895e+01	8.3693	46.941796	0.000689	6.893635	2.335627	0.000276
 212	2.0994e+01	8.4094	47.208247	0.000669	6.690881	2.266932	0.000268
 213	2.1094e+01	8.4335	47.446438	0.000598	5.981242	2.026500	0.000239
 214	2.1194e+01	8.4864	47.632146	0.000466	4.663341	1.579983	0.000187
 215	2.1293e+01	8.5249	47.926857	0.000740	7.400520	2.507364	0.000296
 216	2.1392e+01	8.5682	48.177159	0.000629	6.285373	2.129542	0.000252
 217	2.1492e+01	8.6067	48.419387	0.000608	6.082619	2.060847	0.000243
 218	2.1591e+01	8.6436	48.653541	0.000588	5.879865	1.992152	0.000235
 219	2.1691e+01	8.6885	48.895769	0.000608	6.082619	2.060847	0.000243
 220	2.1791e+01	8.7158	49.154146	0.000649	6.488127	2.198237	0.000260
 221	2.1890e+01	8.7591	49.412523	0.000649	6.488127	2.198237	0.000260
 222	2.1989e+01	8.7976	49.646677	0.000588	5.879865	1.992152	0.000235
 223	2.2089e+01	8.8393	49.909091	0.000659	6.589504	2.232584	0.000264
 224	2.2189e+01	8.8858	50.135170	0.000568	5.677111	1.923457	0.000227
 225	2.2288e+01	8.9179	50.421807	0.000720	7.197766	2.438669	0.000288
 226	2.2387e+01	8.9709	50.659998	0.000598	5.981242	2.026500	0.000239
 227	2.2487e+01	8.9981	50.938560	0.000700	6.995012	2.369974	0.000280
 228	2.2587e+01	9.0399	51.116194	0.000446	4.460587	1.511288	0.000179
 229	2.2686e+01	9.0976	51.378608	0.000659	6.589504	2.232584	0.000264
 230	2.2785e+01	9.1153	51.641022	0.000659	6.589504	2.232584	0.000264
 231	2.2885e+01	9.1586	51.859027	0.000547	5.474357	1.854762	0.000219
 232	2.2985e+01	9.2035	52.113367	0.000639	6.386750	2.163889	0.000256
 233	2.3084e+01	9.2468	52.315223	0.000507	5.068849	1.717373	0.000203
 234	2.3183e+01	9.2805	52.626083	0.000781	7.806028	2.644754	0.000312
 235	2.3283e+01	9.3174	52.900608	0.000689	6.893635	2.335627	0.000276
 236	2.3383e+01	9.3655	53.098428	0.000497	4.967472	1.683025	0.000199
 237	2.3482e+01	9.3992	53.332582	0.000588	5.879865	1.992152	0.000235
 238	2.3581e+01	9.4409	53.558661	0.000568	5.677111	1.923457	0.000227
 239	2.3681e+01	9.4874	53.841261	0.000710	7.096389	2.404322	0.000284
 240	2.3780e+01	9.5195	54.071378	0.000578	5.778488	1.957805	0.000231
 241	2.3880e+01	9.5644	54.341866	0.000679	6.792258	2.301279	0.000272
 242	2.3980e+01	9.6029	54.596205	0.000639	6.386750	2.163889	0.000256
 243	2.4079e+01	9.6318	54.838433	0.000608	6.082619	2.060847	0.000243
 244	2.4178e+01	9.6719	55.007993	0.000426	4.257833	1.442593	0.000170
 245	2.4278e+01	9.7120	55.306741	0.000750	7.501897	2.541711	0.000300
 246	2.4378e+01	9.7634	55.540895	0.000588	5.879865	1.992152	0.000235
 247	2.4477e+01	9.7938	55.787160	0.000618	6.183996	2.095195	0.000248
 248	2.4576e+01	9.8339	56.049574	0.000659	6.589504	2.232584	0.000264
 249	2.4676e+01	9.8805	56.311988	0.000659	6.589504	2.232584	0.000264
 250	2.4776e+01	9.9174	56.546142	0.000588	5.879865	1.992152	0.000235
 251	2.4875e+01	9.9591	56.760110	0.000537	5.372980	1.820415	0.000215
 252	2.4974e+01	9.9976	57.010412	0.000629	6.285373	2.129542	0.000252
 253	2.5074e+01	10.0409	57.272826	0.000659	6.589504	2.232584	0.000264
 254	2.5174e+01	10.0698	57.502943	0.000578	5.778488	1.957805	0.000231
 255	2.5273e+01	10.1147	57.765357	0.000659	6.589504	2.232584	0.000264
 256	2.5372e+01	10.1580	57.983362	0.000547	5.474357	1.854762	0.000219
 257	2.5472e+01	10.1853	58.253850	0.000679	6.792258	2.301279	0.000272
 258	2.5572e+01	10.2318	58.459744	0.000517	5.170226	1.751720	0.000207
 259	2.5671e+01	10.2799	58.710046	0.000629	6.285373	2.129542	0.000252
 260	2.5770e+01	10.3216	59.028980	0.000801	8.008782	2.713449	0.000321
 261	2.5870e+01	10.3537	59.234874	0.000517	5.170226	1.751720	0.000207
 262	2.5970e+01	10.4002	59.440768	0.000517	5.170226	1.751720	0.000207
 263	2.6069e+01	10.4323	59.707219	0.000669	6.690881	2.266932	0.000268
 264	2.6169e+01	10.4740	59.937336	0.000578	5.778488	1.957805	0.000231
 265	2.6268e+01	10.5174	60.191675	0.000639	6.386750	2.163889	0.000256
 266	2.6367e+01	10.5639	60.470238	0.000700	6.995012	2.369974	0.000280
 267	2.6467e+01	10.5944	60.684206	0.000537	5.372980	1.820415	0.000215
 268	2.6567e+01	10.6425	60.914323	0.000578	5.778488	1.957805	0.000231
 269	2.6666e+01	10.6794	61.168662	0.000639	6.386750	2.163889	0.000256
 270	2.6765e+01	10.7163	61.423002	0.000639	6.386750	2.163889	0.000256
 271	2.6865e+01	10.7548	61.661193	0.000598	5.981242	2.026500	0.000239
 272	2.6965e+01	10.8077	61.911495	0.000629	6.285373	2.129542	0.000252
 273	2.7064e+01	10.8334	62.181983	0.000679	6.792258	2.301279	0.000272
 274	2.7163e+01	10.8735	62.444397	0.000659	6.589504	2.232584	0.000264
 275	2.7263e+01	10.9232	62.638180	0.000487	4.866095	1.648678	0.000195
 276	2.7363e+01	10.9505	62.872333	0.000588	5.879865	1.992152	0.000235
 277	2.7462e+01	10.9922	63.110524	0.000598	5.981242	2.026500	0.000239
 278	2.7561e+01	11.0403	63.356790	0.000618	6.183996	2.095195	0.000248
 279	2.7661e+01	11.0708	63.574795	0.000547	5.474357	1.854762	0.000219
 280	2.7761e+01	11.1141	63.857395	0.000710	7.096389	2.404322	0.000284
 281	2.7860e+01	11.1526	64.107697	0.000629	6.285373	2.129542	0.000252
 282	2.7959e+01	11.2056	64.362037	0.000639	6.386750	2.163889	0.000256
 283	2.8059e+01	11.2264	64.580042	0.000547	5.474357	1.854762	0.000219
 284	2.8159e+01	11.2762	64.830344	0.000629	6.285373	2.129542	0.000252
 285	2.8258e+01	11.3243	65.068535	0.000598	5.981242	2.026500	0.000239
 286	2.8358e+01	11.3532	65.318838	0.000629	6.285373	2.129542	0.000252
 287	2.8457e+01	11.3820	65.561066	0.000608	6.082619	2.060847	0.000243
 288	2.8556e+01	11.4253	65.750811	0.000476	4.764718	1.614330	0.000191
 289	2.8656e+01	11.4671	66.025336	0.000689	6.893635	2.335627	0.000276
 290	2.8756e+01	11.5232	66.275639	0.000629	6.285373	2.129542	0.000252
 291	2.8855e+01	11.5521	66.513830	0.000598	5.981242	2.026500	0.000239
 292	2.8954e+01	11.5890	66.723761	0.000527	5.271603	1.786067	0.000211
 293	2.9054e+01	11.6275	66.986175	0.000659	6.589504	2.232584	0.000264
 294	2.9154e+01	11.6676	67.252626	0.000669	6.690881	2.266932	0.000268
 295	2.9253e+01	11.7109	67.454482	0.000507	5.068849	1.717373	0.000203
 296	2.9352e+01	11.7462	67.688636	0.000588	5.879865	1.992152	0.000235
 297	2.9452e+01	11.7863	67.942976	0.000639	6.386750	2.163889	0.000256
 298	2.9552e+01	11.8296	68.140796	0.000497	4.967472	1.683025	0.000199
 299	2.9651e+01	11.8729	68.423395	0.000710	7.096389	2.404322	0.000284
 300	2.9750e+01	11.9114	68.673697	0.000629	6.285373	2.129542	0.000252
 301	2.9850e+01	11.9483	68.875554	0.000507	5.068849	1.717373	0.000203
 302	2.9950e+01	11.9884	69.117782	0.000608	6.082619	2.060847	0.000243
 303	3.0049e+01	12.0269	69.315602	0.000497	4.967472	1.683025	0.000199
 304	3.0148e+01	12.0638	69.594164	0.000700	6.995012	2.369974	0.000280
 305	3.0248e+01	12.1023	69.844467	0.000629	6.285373	2.129542	0.000252
 306	3.0348e+01	12.1537	70.070546	0.000568	5.677111	1.923457	0.000227
 307	3.0447e+01	12.1970	70.312775	0.000608	6.082619	2.060847	0.000243
 308	3.0547e+01	12.2243	70.546928	0.000588	5.879865	1.992152	0.000235
 309	3.0646e+01	12.2676	70.785119	0.000598	5.981242	2.026500	0.000239
 310	3.0745e+01	12.3061	71.019273	0.000588	5.879865	1.992152	0.000235
 311	3.0845e+01	12.3606	71.241316	0.000558	5.575734	1.889110	0.000223
 312	3.0945e+01	12.3863	71.515841	0.000689	6.893635	2.335627	0.000276
 313	3.1044e+01	12.4392	71.713661	0.000497	4.967472	1.683025	0.000199
 314	3.1143e+01	12.4617	71.951852	0.000598	5.981242	2.026500	0.000239
 315	3.1243e+01	12.5050	72.210228	0.000649	6.488127	2.198237	0.000260
 316	3.1343e+01	12.5483	72.464568	0.000639	6.386750	2.163889	0.000256
 317	3.1442e+01	12.5820	72.662388	0.000497	4.967472	1.683025	0.000199
 318	3.1541e+01	12.6269	72.924801	0.000659	6.589504	2.232584	0.000264
 319	3.1641e+01	12.6670	73.187215	0.000659	6.589504	2.232584	0.000264
 320	3.1741e+01	12.7023	73.385035	0.000497	4.967472	1.683025	0.000199
 321	3.1840e+01	12.7440	73.619189	0.000588	5.879865	1.992152	0.000235
 322	3.1939e+01	12.7857	73.917937	0.000750	7.501897	2.541711	0.000300
 323	3.2039e+01	12.8274	74.119794	0.000507	5.068849	1.717373	0.000203
 324	3.2139e+01	12.8692	74.325688	0.000517	5.170226	1.751720	0.000207
 325	3.2238e+01	12.9012	74.592138	0.000669	6.690881	2.266932	0.000268
 326	3.2337e+01	12.9478	74.826292	0.000588	5.879865	1.992152	0.000235
 327	3.2437e+01	12.9847	75.064483	0.000598	5.981242	2.026500	0.000239
 328	3.2536e+01	13.0216	75.278452	0.000537	5.372980	1.820415	0.000215
 329	3.2636e+01	13.0665	75.516643	0.000598	5.981242	2.026500	0.000239
 330	3.2736e+01	13.1066	75.702351	0.000466	4.663341	1.579983	0.000187
 331	3.2835e+01	13.1467	76.001099	0.000750	7.501897	2.541711	0.000300
 332	3.2934e+01	13.1820	76.235253	0.000588	5.879865	1.992152	0.000235
 333	3.3034e+01	13.2205	76.485555	0.000629	6.285373	2.129542	0.000252
 334	3.3133e+01	13.2654	76.707598	0.000558	5.575734	1.889110	0.000223
 335	3.3233e+01	13.2943	76.949826	0.000608	6.082619	2.060847	0.000243
 336	3.3333e+01	13.3440	77.167831	0.000547	5.474357	1.854762	0.000219
 337	3.3432e+01	13.3777	77.406022	0.000598	5.981242	2.026500	0.000239
 338	3.3532e+01	13.4306	77.668436	0.000659	6.589504	2.232584	0.000264
 339	3.3631e+01	13.4643	77.914701	0.000618	6.183996	2.095195	0.000248
 340	3.3730e+01	13.4996	78.120595	0.000517	5.170226	1.751720	0.000207
 341	3.3830e+01	13.5445	78.399157	0.000700	6.995012	2.369974	0.000280
 342	3.3929e+01	13.5798	78.641386	0.000608	6.082619	2.060847	0.000243
 343	3.4029e+01	13.6215	78.823057	0.000456	4.561964	1.545635	0.000183
 344	3.4129e+01	13.6568	79.085471	0.000659	6.589504	2.232584	0.000264
 345	3.4228e+01	13.6905	79.291364	0.000517	5.170226	1.751720	0.000207
 346	3.4328e+01	13.7435	79.521481	0.000578	5.778488	1.957805	0.000231
 347	3.4427e+01	13.7884	79.779858	0.000649	6.488127	2.198237	0.000260
 348	3.4526e+01	13.8221	80.042272	0.000659	6.589504	2.232584	0.000264
 349	3.4626e+01	13.8590	80.256240	0.000537	5.372980	1.820415	0.000215
 350	3.4725e+01	13.8975	80.458097	0.000507	5.068849	1.717373	0.000203
 351	3.4825e+01	13.9376	80.732622	0.000689	6.893635	2.335627	0.000276
 352	3.4925e+01	13.9825	80.995036	0.000659	6.589504	2.232584	0.000264
 353	3.5024e+01	14.0210	81.204967	0.000527	5.271603	1.786067	0.000211
 354	3.5123e+01	14.0595	81.431046	0.000568	5.677111	1.923457	0.000227
 355	3.5223e+01	14.0980	81.673275	0.000608	6.082619	2.060847	0.000243
 356	3.5322e+01	14.1349	81.875131	0.000507	5.068849	1.717373	0.000203
 357	3.5422e+01	14.1782	82.117359	0.000608	6.082619	2.060847	0.000243
 358	3.5522e+01	14.2215	82.395922	0.000700	6.995012	2.369974	0.000280
 359	3.5621e+01	14.2584	82.601816	0.000517	5.170226	1.751720	0.000207
 360	3.5721e+01	14.3033	82.815784	0.000537	5.372980	1.820415	0.000215
 361	3.5820e+01	14.3370	83.102421	0.000720	7.197766	2.438669	0.000288
 362	3.5919e+01	14.3803	83.300240	0.000497	4.967472	1.683025	0.000199
 363	3.6019e+01	14.4253	83.554580	0.000639	6.386750	2.163889	0.000256
 364	3.6118e+01	14.4541	83.784697	0.000578	5.778488	1.957805	0.000231
 365	3.6218e+01	14.4991	83.966368	0.000456	4.561964	1.545635	0.000183
 366	3.6318e+01	14.5343	84.240893	0.000689	6.893635	2.335627	0.000276
 367	3.6417e+01	14.5745	84.471010	0.000578	5.778488	1.957805	0.000231
 368	3.6517e+01	14.6194	84.713238	0.000608	6.082619	2.060847	0.000243
 369	3.6616e+01	14.6482	84.983726	0.000679	6.792258	2.301279	0.000272
 370	3.6715e+01	14.6996	85.173471	0.000476	4.764718	1.614330	0.000191
 371	3.6815e+01	14.7301	85.468182	0.000740	7.400520	2.507364	0.000296
 372	3.6914e+01	14.7846	85.698299	0.000578	5.778488	1.957805	0.000231
 373	3.7014e+01	14.8295	85.900156	0.000507	5.068849	1.717373	0.000203
 374	3.7114e+01	14.8552	86.158532	0.000649	6.488127	2.198237	0.000260
 375	3.7213e+01	14.8937	86.388649	0.000578	5.778488	1.957805	0.000231
 376	3.7313e+01	14.9402	86.602617	0.000537	5.372980	1.820415	0.000215
 377	3.7412e+01	14.9723	86.881180	0.000700	6.995012	2.369974	0.000280
 378	3.7511e+01	15.0204	87.107259	0.000568	5.677111	1.923457	0.000227
 379	3.7611e+01	15.0541	87.377747	0.000679	6.792258	2.301279	0.000272
 380	3.7711e+01	15.0862	87.591716	0.000537	5.372980	1.820415	0.000215
 381	3.7810e+01	15.1424	87.813758	0.000558	5.575734	1.889110	0.000223
 382	3.7910e+01	15.1728	88.051949	0.000598	5.981242	2.026500	0.000239
 383	3.8009e+01	15.2178	88.278029	0.000568	5.677111	1.923457	0.000227
 384	3.8108e+01	15.2579	88.528331	0.000629	6.285373	2.129542	0.000252
 385	3.8208e+01	15.2899	88.766522	0.000598	5.981242	2.026500	0.000239
 386	3.8307e+01	15.3381	89.020862	0.000639	6.386750	2.163889	0.000256
 387	3.8407e+01	15.3782	89.246941	0.000568	5.677111	1.923457	0.000227
 388	3.8507e+01	15.4135	89.481095	0.000588	5.879865	1.992152	0.000235
 389	3.8606e+01	15.4552	89.699100	0.000547	5.474357	1.854762	0.000219
 390	3.8706e+01	15.4953	89.953440	0.000639	6.386750	2.163889	0.000256
 391	3.8805e+01	15.5354	90.199705	0.000618	6.183996	2.095195	0.000248
 392	3.8904e+01	15.5739	90.425785	0.000568	5.677111	1.923457	0.000227
 393	3.9004e+01	15.6092	90.663976	0.000598	5.981242	2.026500	0.000239
 394	3.9103e+01	15.6557	90.902167	0.000598	5.981242	2.026500	0.000239
 395	3.9203e+01	15.6942	91.112098	0.000527	5.271603	1.786067	0.000211
 396	3.9303e+01	15.7327	91.370475	0.000649	6.488127	2.198237	0.000260
 397	3.9402e+01	15.7680	91.596554	0.000568	5.677111	1.923457	0.000227
 398	3.9502e+01	15.8161	91.846857	0.000629	6.285373	2.129542	0.000252
 399	3.9601e+01	15.8610	92.072936	0.000568	5.677111	1.923457	0.000227
 400	3.9700e+01	15.8931	92.307090	0.000588	5.879865	1.992152	0.000235
 401	3.9800e+01	15.9381	92.521058	0.000537	5.372980	1.820415	0.000215
 402	3.9900e+01	15.9798	92.767324	0.000618	6.183996	2.095195	0.000248
 403	3.9999e+01	16.0183	93.001477	0.000588	5.879865	1.992152	0.000235
 404	4.0099e+01	16.0536	93.247743	0.000618	6.183996	2.095195	0.000248
 405	4.0198e+01	16.0969	93.461711	0.000537	5.372980	1.820415	0.000215
 406	4.0297e+01	16.1274	93.752385	0.000730	7.299143	2.473016	0.000292
 407	4.0397e+01	16.1610	93.901759	0.000375	3.750948	1.270856	0.000150
 408	4.0496e+01	16.2044	94.184358	0.000710	7.096389	2.404322	0.000284
 409	4.0596e+01	16.2589	94.458883	0.000689	6.893635	2.335627	0.000276
 410	4.0696e+01	16.2910	94.693037	0.000588	5.879865	1.992152	0.000235
 411	4.0795e+01	16.3263	94.898931	0.000517	5.170226	1.751720	0.000207
 412	4.0895e+01	16.3808	95.108862	0.000527	5.271603	1.786067	0.000211
 413	4.0994e+01	16.4145	95.322830	0.000537	5.372980	1.820415	0.000215
 414	4.1093e+01	16.4514	95.601393	0.000700	6.995012	2.369974	0.000280
 415	4.1193e+01	16.4947	95.819398	0.000547	5.474357	1.854762	0.000219
 416	4.1292e+01	16.5300	96.053552	0.000588	5.879865	1.992152	0.000235
 417	4.1392e+01	16.5717	96.295780	0.000608	6.082619	2.060847	0.000243
 418	4.1492e+01	16.6118	96.513786	0.000547	5.474357	1.854762	0.000219
 419	4.1591e+01	16.6519	96.764088	0.000629	6.285373	2.129542	0.000252
 420	4.1691e+01	16.6824	96.974019	0.000527	5.271603	1.786067	0.000211
 421	4.1790e+01	16.7305	97.204136	0.000578	5.778488	1.957805	0.000231
 422	4.1889e+01	16.7739	97.454438	0.000629	6.285373	2.129542	0.000252
 423	4.1989e+01	16.8140	97.692629	0.000598	5.981242	2.026500	0.000239
 424	4.2089e+01	16.8509	97.918709	0.000568	5.677111	1.923457	0.000227
 425	4.2188e+01	16.8813	98.164974	0.000618	6.183996	2.095195	0.000248
 426	4.2288e+01	16.9311	98.395091	0.000578	5.778488	1.957805	0.000231
 427	4.2387e+01	16.9696	98.641356	0.000618	6.183996	2.095195	0.000248
 428	4.2486e+01	17.0113	98.859361	0.000547	5.474357	1.854762	0.000219
 429	4.2586e+01	17.0482	99.093515	0.000588	5.879865	1.992152	0.000235
 430	4.2685e+01	17.0899	99.315558	0.000558	5.575734	1.889110	0.000223
 431	4.2785e+01	17.1316	99.529526	0.000537	5.372980	1.820415	0.000215
 432	4.2885e+01	17.1637	99.795977	0.000669	6.690881	2.266932	0.000268
 433	4.2984e+01	17.2166	99.993797	0.000497	4.967472	1.683025	0.000199
 434	4.3084e+01	17.2471	100.244099	0.000629	6.285373	2.129542	0.000252
 435	4.3183e+01	17.2904	100.478253	0.000588	5.879865	1.992152	0.000235
 436	4.3282e+01	17.3305	100.744704	0.000669	6.690881	2.266932	0.000268
 437	4.3382e+01	17.3690	100.942523	0.000497	4.967472	1.683025	0.000199
 438	4.3481e+01	17.4043	101.188789	0.000618	6.183996	2.095195	0.000248
 439	4.3581e+01	17.4460	101.406794	0.000547	5.474357	1.854762	0.000219
 440	4.3681e+01	17.4958	101.685356	0.000700	6.995012	2.369974	0.000280
 441	4.3780e+01	17.5214	101.911436	0.000568	5.677111	1.923457	0.000227
 442	4.3880e+01	17.5631	102.145590	0.000588	5.879865	1.992152	0.000235
 443	4.3979e+01	17.6016	102.387818	0.000608	6.082619	2.060847	0.000243
 444	4.4078e+01	17.6434	102.585638	0.000497	4.967472	1.683025	0.000199
 445	4.4178e+01	17.6867	102.799606	0.000537	5.372980	1.820415	0.000215
 446	4.4278e+01	17.7171	103.029723	0.000578	5.778488	1.957805	0.000231
 447	4.4377e+01	17.7621	103.288099	0.000649	6.488127	2.198237	0.000260
 448	4.4477e+01	17.8054	103.554550	0.000669	6.690881	2.266932	0.000268
 449	4.4576e+01	17.8439	103.728147	0.000436	4.359210	1.476940	0.000174
 450	4.4675e+01	17.8856	103.978450	0.000629	6.285373	2.129542	0.000252
 451	4.4775e+01	17.9257	104.228752	0.000629	6.285373	2.129542	0.000252
 452	4.4874e+01	17.9626	104.418497	0.000476	4.764718	1.614330	0.000191
 453	4.4974e+01	18.0091	104.672837	0.000639	6.386750	2.163889	0.000256
 454	4.5074e+01	18.0380	104.858545	0.000466	4.663341	1.579983	0.000187
 455	4.5173e+01	18.0765	105.096736	0.000598	5.981242	2.026500	0.000239
 456	4.5273e+01	18.1342	105.298593	0.000507	5.068849	1.717373	0.000203
 457	4.5372e+01	18.1631	105.556970	0.000649	6.488127	2.198237	0.000260
 458	4.5471e+01	18.2080	105.799198	0.000608	6.082619	2.060847	0.000243
 459	4.5571e+01	18.2433	106.033352	0.000588	5.879865	1.992152	0.000235
 460	4.5670e+01	18.2770	106.235208	0.000507	5.068849	1.717373	0.000203
 461	4.5770e+01	18.3187	106.469362	0.000588	5.879865	1.992152	0.000235
 462	4.5870e+01	18.3653	106.687368	0.000547	5.474357	1.854762	0.000219
 463	4.5969e+01	18.4022	106.929596	0.000608	6.082619	2.060847	0.000243
 464	4.6069e+01	18.4471	107.151638	0.000558	5.575734	1.889110	0.000223
 465	4.6168e+01	18.4808	107.357532	0.000517	5.170226	1.751720	0.000207
 466	4.6267e+01	18.5193	107.611872	0.000639	6.386750	2.163889	0.000256
 467	4.6367e+01	18.5594	107.817766	0.000517	5.170226	1.751720	0.000207
 468	4.6467e+01	18.6107	108.064031	0.000618	6.183996	2.095195	0.000248
 469	4.6566e+01	18.6444	108.269925	0.000517	5.170226	1.751720	0.000207
 470	4.6666e+01	18.6797	108.500042	0.000578	5.778488	1.957805	0.000231
 471	4.6765e+01	18.7246	108.722084	0.000558	5.575734	1.889110	0.000223
 472	4.6864e+01	18.7551	108.944126	0.000558	5.575734	1.889110	0.000223
 473	4.6964e+01	18.8048	109.182317	0.000598	5.981242	2.026500	0.000239
 474	4.7063e+01	18.8465	109.412434	0.000578	5.778488	1.957805	0.000231
 475	4.7163e+01	18.8770	109.602180	0.000476	4.764718	1.614330	0.000191
 476	4.7263e+01	18.9251	109.848445	0.000618	6.183996	2.095195	0.000248
 477	4.7362e+01	18.9652	110.062413	0.000537	5.372980	1.820415	0.000215
 478	4.7462e+01	19.0053	110.288493	0.000568	5.677111	1.923457	0.000227
 479	4.7561e+01	19.0503	110.534758	0.000618	6.183996	2.095195	0.000248
 480	4.7660e+01	19.0759	110.768912	0.000588	5.879865	1.992152	0.000235
 481	4.7760e+01	19.1225	110.986917	0.000547	5.474357	1.854762	0.000219
 482	4.7859e+01	19.1658	111.212997	0.000568	5.677111	1.923457	0.000227
 483	4.7959e+01	19.1962	111.435039	0.000558	5.575734	1.889110	0.000223
 484	4.8059e+01	19.2380	111.661119	0.000568	5.677111	1.923457	0.000227
 485	4.8158e+01	19.2781	111.879124	0.000547	5.474357	1.854762	0.000219
 486	4.8258e+01	19.3214	112.109241	0.000578	5.778488	1.957805	0.000231
 487	4.8357e+01	19.3615	112.311098	0.000507	5.068849	1.717373	0.000203
 488	4.8456e+01	19.3936	112.545252	0.000588	5.879865	1.992152	0.000235
 489	4.8556e+01	19.4497	112.771331	0.000568	5.677111	1.923457	0.000227
 490	4.8656e+01	19.4738	113.005485	0.000588	5.879865	1.992152	0.000235
 491	4.8755e+01	19.5251	113.243676	0.000598	5.981242	2.026500	0.000239
 492	4.8855e+01	19.5524	113.465718	0.000558	5.575734	1.889110	0.000223
 493	4.8954e+01	19.5925	113.699872	0.000588	5.879865	1.992152	0.000235
 494	4.9053e+01	19.6438	113.881543	0.000456	4.561964	1.545635	0.000183
 495	4.9153e+01	19.6823	114.083400	0.000507	5.068849	1.717373	0.000203
 496	4.9252e+01	19.7192	114.345814	0.000659	6.589504	2.232584	0.000264
 497	4.9352e+01	19.7577	114.592079	0.000618	6.183996	2.095195	0.000248
 498	4.9452e+01	19.7962	114.810085	0.000547	5.474357	1.854762	0.000219
 499	4.9551e+01	19.8331	115.003867	0.000487	4.866095	1.648678	0.000195
 500	4.9651e+01	19.8732	115.229947	0.000568	5.677111	1.923457	0.000227
 501	4.9750e+01	19.9278	115.484286	0.000639	6.386750	2.163889	0.000256
 502	4.9849e+01	19.9518	115.694217	0.000527	5.271603	1.786067	0.000211
 503	4.9949e+01	19.9887	115.916260	0.000558	5.575734	1.889110	0.000223
 504	5.0048e+01	19.9583	115.783034	0.000335	3.345440	1.133466	-0.000134
 505	5.0148e+01	19.9149	115.669995	0.000284	2.838555	0.961729	-0.000114
 506	5.0248e+01	19.8716	115.512546	0.000395	3.953702	1.339551	-0.000158
 507	5.0347e+01	19.8331	115.403544	0.000274	2.737179	0.927381	-0.000110
 508	5.0447e+01	19.8026	115.217835	0.000466	4.663341	1.579983	-0.000187
 509	5.0546e+01	19.7593	115.072499	0.000365	3.649571	1.236508	-0.000146
 510	5.0645e+01	19.7256	114.886790	0.000466	4.663341	1.579983	-0.000187
 511	5.0745e+01	19.6759	114.757602	0.000324	3.244063	1.099118	-0.000130
 512	5.0844e+01	19.6390	114.608228	0.000375	3.750948	1.270856	-0.000150
 513	5.0944e+01	19.5909	114.470965	0.000345	3.446817	1.167813	-0.000138
 514	5.1044e+01	19.5588	114.285257	0.000466	4.663341	1.579983	-0.000187
 515	5.1143e+01	19.5203	114.119734	0.000416	4.156456	1.408246	-0.000166
 516	5.1242e+01	19.4818	113.958249	0.000406	4.055079	1.373898	-0.000162
 517	5.1342e+01	19.4353	113.792726	0.000416	4.156456	1.408246	-0.000166
 518	5.1441e+01	19.4016	113.639315	0.000385	3.852325	1.305203	-0.000154
 519	5.1541e+01	19.3599	113.485904	0.000385	3.852325	1.305203	-0.000154
 520	5.1641e+01	19.3182	113.320382	0.000416	4.156456	1.408246	-0.000166
 521	5.1740e+01	19.2716	113.102376	0.000547	5.474357	1.854762	-0.000219
 522	5.1840e+01	19.2460	112.965114	0.000345	3.446817	1.167813	-0.000138
 523	5.1939e+01	19.2059	112.823814	0.000355	3.548194	1.202161	-0.000142
 524	5.2038e+01	19.1594	112.638106	0.000466	4.663341	1.579983	-0.000187
 525	5.2138e+01	19.1257	112.460472	0.000446	4.460587	1.511288	-0.000179
 526	5.2237e+01	19.0743	112.323209	0.000345	3.446817	1.167813	-0.000138
 527	5.2337e+01	19.0438	112.101167	0.000558	5.575734	1.889110	-0.000223
 528	5.2437e+01	18.9989	111.943718	0.000395	3.953702	1.339551	-0.000158
 529	5.2536e+01	18.9620	111.749936	0.000487	4.866095	1.648678	-0.000195
 530	5.2636e+01	18.9219	111.592488	0.000395	3.953702	1.339551	-0.000158
 531	5.2735e+01	18.8722	111.414854	0.000446	4.460587	1.511288	-0.000179
 532	5.2834e+01	18.8417	111.249331	0.000416	4.156456	1.408246	-0.000166
 533	5.2934e+01	18.7984	111.079771	0.000426	4.257833	1.442593	-0.000170
 534	5.3033e+01	18.7615	110.914249	0.000416	4.156456	1.408246	-0.000166
 535	5.3133e+01	18.7214	110.732578	0.000456	4.561964	1.545635	-0.000183
 536	5.3233e+01	18.6877	110.522647	0.000527	5.271603	1.786067	-0.000211
 537	5.3332e+01	18.6380	110.361161	0.000406	4.055079	1.373898	-0.000162
 538	5.3431e+01	18.6043	110.203713	0.000395	3.953702	1.339551	-0.000158
 539	5.3531e+01	18.5513	110.018005	0.000466	4.663341	1.579983	-0.000187
 540	5.3630e+01	18.5257	109.844408	0.000436	4.359210	1.476940	-0.000174
 541	5.3730e+01	18.4727	109.699071	0.000365	3.649571	1.236508	-0.000146
 542	5.3830e+01	18.4391	109.521437	0.000446	4.460587	1.511288	-0.000179
 543	5.3929e+01	18.4118	109.299394	0.000558	5.575734	1.889110	-0.000223
 544	5.4029e+01	18.3637	109.162132	0.000345	3.446817	1.167813	-0.000138
 545	5.4128e+01	18.3268	108.976424	0.000466	4.663341	1.579983	-0.000187
 546	5.4227e+01	18.2802	108.770530	0.000517	5.170226	1.751720	-0.000207
 547	5.4327e+01	18.2433	108.592896	0.000446	4.460587	1.511288	-0.000179
 548	5.4426e+01	18.2096	108.443522	0.000375	3.750948	1.270856	-0.000150
 549	5.4526e+01	18.1663	108.253776	0.000476	4.764718	1.614330	-0.000191
 550	5.4626e+01	18.1278	108.039808	0.000537	5.372980	1.820415	-0.000215
 551	5.4725e+01	18.0813	107.886397	0.000385	3.852325	1.305203	-0.000154
 552	5.4825e+01	18.0444	107.716837	0.000426	4.257833	1.442593	-0.000170
 553	5.4924e+01	18.0075	107.555352	0.000406	4.055079	1.373898	-0.000162
 554	5.5023e+01	17.9738	107.321198	0.000588	5.879865	1.992152	-0.000235
 555	5.5123e+01	17.9193	107.159712	0.000406	4.055079	1.373898	-0.000162
 556	5.5222e+01	17.8840	106.969967	0.000476	4.764718	1.614330	-0.000191
 557	5.5322e+01	17.8455	106.828667	0.000355	3.548194	1.202161	-0.000142
 558	5.5422e+01	17.8102	106.614699	0.000537	5.372980	1.820415	-0.000215
 559	5.5521e+01	17.7685	106.433028	0.000456	4.561964	1.545635	-0.000183
 560	5.5620e+01	17.7252	106.251357	0.000456	4.561964	1.545635	-0.000183
 561	5.5720e+01	17.6835	106.089871	0.000406	4.055079	1.373898	-0.000162
 562	5.5819e+01	17.6401	105.867829	0.000558	5.575734	1.889110	-0.000223
 563	5.5919e+01	17.6049	105.694232	0.000436	4.359210	1.476940	-0.000174
 564	5.6019e+01	17.5631	105.504487	0.000476	4.764718	1.614330	-0.000191
 565	5.6118e+01	17.5262	105.367224	0.000345	3.446817	1.167813	-0.000138
 566	5.6218e+01	17.4877	105.137107	0.000578	5.778488	1.957805	-0.000231
 567	5.6317e+01	17.4444	104.947362	0.000476	4.764718	1.614330	-0.000191
 568	5.6416e+01	17.4059	104.773765	0.000436	4.359210	1.476940	-0.000174
 569	5.6516e+01	17.3578	104.539611	0.000588	5.879865	1.992152	-0.000235
 570	5.6615e+01	17.3337	104.378126	0.000406	4.055079	1.373898	-0.000162
 571	5.6715e+01	17.2872	104.172232	0.000517	5.170226	1.751720	-0.000207
 572	5.6815e+01	17.2455	104.022858	0.000375	3.750948	1.270856	-0.000150
 573	5.6914e+01	17.2150	103.825038	0.000497	4.967472	1.683025	-0.000199
 574	5.7014e+01	17.1717	103.671627	0.000385	3.852325	1.305203	-0.000154
 575	5.7113e+01	17.1300	103.449585	0.000558	5.575734	1.889110	-0.000223
 576	5.7212e+01	17.0883	103.223505	0.000568	5.677111	1.923457	-0.000227
 577	5.7312e+01	17.0402	103.062020	0.000406	4.055079	1.373898	-0.000162
 578	5.7411e+01	17.0129	102.835940	0.000568	5.677111	1.923457	-0.000227
 579	5.7511e+01	16.9728	102.678492	0.000395	3.953702	1.339551	-0.000158
 580	5.7611e+01	16.9295	102.496821	0.000456	4.561964	1.545635	-0.000183
 581	5.7710e+01	16.8926	102.307075	0.000476	4.764718	1.614330	-0.000191
 582	5.7809e+01	16.8525	102.097144	0.000527	5.271603	1.786067	-0.000211
 583	5.7909e+01	16.8140	101.915473	0.000456	4.561964	1.545635	-0.000183
 584	5.8008e+01	16.7674	101.725728	0.000476	4.764718	1.614330	-0.000191
 585	5.8108e+01	16.7321	101.564242	0.000406	4.055079	1.373898	-0.000162
 586	5.8208e+01	16.6936	101.350274	0.000537	5.372980	1.820415	-0.000215
 587	5.8307e+01	16.6535	101.152454	0.000497	4.967472	1.683025	-0.000199
 588	5.8407e+01	16.6054	100.914263	0.000598	5.981242	2.026500	-0.000239
 589	5.8506e+01	16.5669	100.752778	0.000406	4.055079	1.373898	-0.000162
 590	5.8605e+01	16.5220	100.603404	0.000375	3.750948	1.270856	-0.000150
 591	5.8705e+01	16.4851	100.401547	0.000507	5.068849	1.717373	-0.000203
 592	5.8804e+01	16.4482	100.199690	0.000507	5.068849	1.717373	-0.000203
 593	5.8904e+01	16.4081	99.957462	0.000608	6.082619	2.060847	-0.000243
 594	5.9004e+01	16.3776	99.779828	0.000446	4.460587	1.511288	-0.000179
 595	5.9103e+01	16.3375	99.606231	0.000436	4.359210	1.476940	-0.000174
 596	5.9203e+01	16.2958	99.404375	0.000507	5.068849	1.717373	-0.000203
 597	5.9302e+01	16.2396	99.186369	0.000547	5.474357	1.854762	-0.000219
 598	5.9401e+01	16.2092	98.988550	0.000497	4.967472	1.683025	-0.000199
 599	5.9501e+01	16.1707	98.790730	0.000497	4.967472	1.683025	-0.000199
 600	5.9600e+01	16.1322	98.613096	0.000446	4.460587	1.511288	-0.000179
 601	5.9700e+01	16.0937	98.447574	0.000416	4.156456	1.408246	-0.000166
 602	5.9800e+01	16.0487	98.241680	0.000517	5.170226	1.751720	-0.000207
 603	5.9899e+01	16.0102	98.035786	0.000517	5.170226	1.751720	-0.000207
 604	5.9998e+01	15.9814	97.837966	0.000497	4.967472	1.683025	-0.000199
 605	6.0098e+01	15.9316	97.656295	0.000456	4.561964	1.545635	-0.000183
 606	6.0197e+01	15.8899	97.450401	0.000517	5.170226	1.751720	-0.000207
 607	6.0297e+01	15.8594	97.244507	0.000517	5.170226	1.751720	-0.000207
 608	6.0397e+01	15.8177	97.087059	0.000395	3.953702	1.339551	-0.000158
 609	6.0496e+01	15.7792	96.865016	0.000558	5.575734	1.889110	-0.000223
 610	6.0596e+01	15.7295	96.691419	0.000436	4.359210	1.476940	-0.000174
 611	6.0695e+01	15.7022	96.489563	0.000507	5.068849	1.717373	-0.000203
 612	6.0794e+01	15.6573	96.235223	0.000639	6.386750	2.163889	-0.000256
 613	6.0894e+01	15.6156	96.057589	0.000446	4.460587	1.511288	-0.000179
 614	6.0993e+01	15.5803	95.888029	0.000426	4.257833	1.442593	-0.000170
 615	6.1093e+01	15.5354	95.682136	0.000517	5.170226	1.751720	-0.000207
 616	6.1193e+01	15.5017	95.452019	0.000578	5.778488	1.957805	-0.000231
 617	6.1292e+01	15.4536	95.246125	0.000517	5.170226	1.751720	-0.000207
 618	6.1392e+01	15.4038	95.108862	0.000345	3.446817	1.167813	-0.000138
 619	6.1491e+01	15.3718	94.878746	0.000578	5.778488	1.957805	-0.000231
 620	6.1590e+01	15.3252	94.680926	0.000497	4.967472	1.683025	-0.000199
 621	6.1690e+01	15.2899	94.466958	0.000537	5.372980	1.820415	-0.000215
 622	6.1789e+01	15.2563	94.281249	0.000466	4.663341	1.579983	-0.000187
 623	6.1889e+01	15.2065	94.047096	0.000588	5.879865	1.992152	-0.000235
 624	6.1989e+01	15.1680	93.865424	0.000456	4.561964	1.545635	-0.000183
 625	6.2088e+01	15.1359	93.631271	0.000588	5.879865	1.992152	-0.000235
 626	6.2188e+01	15.0990	93.441525	0.000476	4.764718	1.614330	-0.000191
 627	6.2287e+01	15.0573	93.243706	0.000497	4.967472	1.683025	-0.000199
 628	6.2386e+01	15.0204	93.062034	0.000456	4.561964	1.545635	-0.000183
 629	6.2486e+01	14.9643	92.835955	0.000568	5.677111	1.923457	-0.000227
 630	6.2586e+01	14.9386	92.634098	0.000507	5.068849	1.717373	-0.000203
 631	6.2685e+01	14.8937	92.432241	0.000507	5.068849	1.717373	-0.000203
 632	6.2785e+01	14.8568	92.214236	0.000547	5.474357	1.854762	-0.000219
 633	6.2884e+01	14.8151	92.032565	0.000456	4.561964	1.545635	-0.000183
 634	6.2983e+01	14.7798	91.786300	0.000618	6.183996	2.095195	-0.000248
 635	6.3083e+01	14.7317	91.608666	0.000446	4.460587	1.511288	-0.000179
 636	6.3182e+01	14.6884	91.418920	0.000476	4.764718	1.614330	-0.000191
 637	6.3282e+01	14.6627	91.225138	0.000487	4.866095	1.648678	-0.000195
 638	6.3382e+01	14.6146	90.986947	0.000598	5.981242	2.026500	-0.000239
 639	6.3481e+01	14.5745	90.789127	0.000497	4.967472	1.683025	-0.000199
 640	6.3581e+01	14.5408	90.571122	0.000547	5.474357	1.854762	-0.000219
 641	6.3680e+01	14.4975	90.377339	0.000487	4.866095	1.648678	-0.000195
 642	6.3779e+01	14.4606	90.163371	0.000537	5.372980	1.820415	-0.000215
 643	6.3879e+01	14.4156	89.945366	0.000547	5.474357	1.854762	-0.000219
 644	6.3978e+01	14.3868	89.751583	0.000487	4.866095	1.648678	-0.000195
 645	6.4078e+01	14.3338	89.553764	0.000497	4.967472	1.683025	-0.000199
 646	6.4177e+01	14.3001	89.359981	0.000487	4.866095	1.648678	-0.000195
 647	6.4277e+01	14.2600	89.137939	0.000558	5.575734	1.889110	-0.000223
 648	6.4376e+01	14.2135	88.923970	0.000537	5.372980	1.820415	-0.000215
 649	6.4476e+01	14.1878	88.701928	0.000558	5.575734	1.889110	-0.000223
 650	6.4576e+01	14.1317	88.540442	0.000406	4.055079	1.373898	-0.000162
 651	6.4675e+01	14.1028	88.302251	0.000598	5.981242	2.026500	-0.000239
 652	6.4775e+01	14.0611	88.104432	0.000497	4.967472	1.683025	-0.000199
 653	6.4874e+01	14.0162	87.906612	0.000497	4.967472	1.683025	-0.000199
 654	6.4974e+01	13.9648	87.664384	0.000608	6.082619	2.060847	-0.000243
 655	6.5073e+01	13.9408	87.470601	0.000487	4.866095	1.648678	-0.000195
 656	6.5172e+01	13.9055	87.256633	0.000537	5.372980	1.820415	-0.000215
 657	6.5272e+01	13.8558	87.062851	0.000487	4.866095	1.648678	-0.000195
 658	6.5371e+01	13.8173	86.873105	0.000476	4.764718	1.614330	-0.000191
 659	6.5471e+01	13.7723	86.626840	0.000618	6.183996	2.095195	-0.000248
 660	6.5570e+01	13.7370	86.445169	0.000456	4.561964	1.545635	-0.000183
 661	6.5670e+01	13.7034	86.247349	0.000497	4.967472	1.683025	-0.000199
 662	6.5769e+01	13.6600	86.001084	0.000618	6.183996	2.095195	-0.000248
 663	6.5869e+01	13.6199	85.799227	0.000507	5.068849	1.717373	-0.000203
 664	6.5969e+01	13.5879	85.577185	0.000558	5.575734	1.889110	-0.000223
 665	6.6068e+01	13.5526	85.359179	0.000547	5.474357	1.854762	-0.000219
 666	6.6168e+01	13.4996	85.145211	0.000537	5.372980	1.820415	-0.000215
 667	6.6267e+01	13.4627	84.927206	0.000547	5.474357	1.854762	-0.000219
 668	6.6367e+01	13.4114	84.757646	0.000426	4.257833	1.442593	-0.000170
 669	6.6466e+01	13.3777	84.547715	0.000527	5.271603	1.786067	-0.000211
 670	6.6566e+01	13.3424	84.317598	0.000578	5.778488	1.957805	-0.000231
 671	6.6665e+01	13.3023	84.099593	0.000547	5.474357	1.854762	-0.000219
 672	6.6764e+01	13.2542	83.885625	0.000537	5.372980	1.820415	-0.000215
 673	6.6864e+01	13.2205	83.707991	0.000446	4.460587	1.511288	-0.000179
 674	6.6963e+01	13.1804	83.461726	0.000618	6.183996	2.095195	-0.000248
 675	6.7063e+01	13.1355	83.235646	0.000568	5.677111	1.923457	-0.000227
 676	6.7162e+01	13.0970	83.053975	0.000456	4.561964	1.545635	-0.000183
 677	6.7262e+01	13.0552	82.840007	0.000537	5.372980	1.820415	-0.000215
 678	6.7362e+01	13.0264	82.638150	0.000507	5.068849	1.717373	-0.000203
 679	6.7461e+01	12.9879	82.420145	0.000547	5.474357	1.854762	-0.000219
 680	6.7561e+01	12.9494	82.222325	0.000497	4.967472	1.683025	-0.000199
 681	6.7660e+01	12.9109	81.988171	0.000588	5.879865	1.992152	-0.000235
 682	6.7760e+01	12.8595	81.806500	0.000456	4.561964	1.545635	-0.000183
 683	6.7859e+01	12.8258	81.588495	0.000547	5.474357	1.854762	-0.000219
 684	6.7959e+01	12.7761	81.358378	0.000578	5.778488	1.957805	-0.000231
 685	6.8058e+01	12.7504	81.180744	0.000446	4.460587	1.511288	-0.000179
 686	6.8157e+01	12.7103	80.926404	0.000639	6.386750	2.163889	-0.000256
 687	6.8257e+01	12.6734	80.732622	0.000487	4.866095	1.648678	-0.000195
 688	6.8356e+01	12.6333	80.530765	0.000507	5.068849	1.717373	-0.000203
 689	6.8456e+01	12.5852	80.288537	0.000608	6.082619	2.060847	-0.000243
 690	6.8555e+01	12.5435	80.094754	0.000487	4.866095	1.648678	-0.000195
 691	6.8655e+01	12.5098	79.876749	0.000547	5.474357	1.854762	-0.000219
 692	6.8754e+01	12.4745	79.670855	0.000517	5.170226	1.751720	-0.000207
 693	6.8854e+01	12.4392	79.420553	0.000629	6.285373	2.129542	-0.000252
 694	6.8954e+01	12.3911	79.226770	0.000487	4.866095	1.648678	-0.000195
 695	6.9053e+01	12.3510	78.980505	0.000618	6.183996	2.095195	-0.000248
 696	6.9153e+01	12.3077	78.790760	0.000476	4.764718	1.614330	-0.000191
 697	6.9252e+01	12.2692	78.588903	0.000507	5.068849	1.717373	-0.000203
 698	6.9352e+01	12.2339	78.370898	0.000547	5.474357	1.854762	-0.000219
 699	6.9451e+01	12.1938	78.120595	0.000629	6.285373	2.129542	-0.000252
 700	6.9550e+01	12.1505	77.930850	0.000476	4.764718	1.614330	-0.000191
 701	6.9650e+01	12.1104	77.737067	0.000487	4.866095	1.648678	-0.000195
 702	6.9749e+01	12.0686	77.494839	0.000608	6.082619	2.060847	-0.000243
 703	6.9849e+01	12.0285	77.301057	0.000487	4.866095	1.648678	-0.000195
 704	6.9948e+01	11.9916	77.042680	0.000649	6.488127	2.198237	-0.000260
 705	7.0048e+01	11.9483	76.816600	0.000568	5.677111	1.923457	-0.000227
 706	7.0147e+01	11.9162	76.643003	0.000436	4.359210	1.476940	-0.000174
 707	7.0247e+01	11.8665	76.429035	0.000537	5.372980	1.820415	-0.000215
 708	7.0347e+01	11.8360	76.202956	0.000568	5.677111	1.923457	-0.000227
 709	7.0446e+01	11.7799	76.025322	0.000446	4.460587	1.511288	-0.000179
 710	7.0546e+01	11.7558	75.766945	0.000649	6.488127	2.198237	-0.000260
 711	7.0645e+01	11.7141	75.585274	0.000456	4.561964	1.545635	-0.000183
 712	7.0745e+01	11.6772	75.355157	0.000578	5.778488	1.957805	-0.000231
 713	7.0844e+01	11.6371	75.137152	0.000547	5.474357	1.854762	-0.000219
 714	7.0944e+01	11.5954	74.907035	0.000578	5.778488	1.957805	-0.000231
 715	7.1043e+01	11.5457	74.697104	0.000527	5.271603	1.786067	-0.000211
 716	7.1142e+01	11.5072	74.475062	0.000558	5.575734	1.889110	-0.000223
 717	7.1242e+01	11.4671	74.293390	0.000456	4.561964	1.545635	-0.000183
 718	7.1341e+01	11.4302	74.047125	0.000618	6.183996	2.095195	-0.000248
 719	7.1441e+01	11.3868	73.849305	0.000497	4.967472	1.683025	-0.000199
 720	7.1540e+01	11.3516	73.619189	0.000578	5.778488	1.957805	-0.000231
 721	7.1640e+01	11.3147	73.417332	0.000507	5.068849	1.717373	-0.000203
 722	7.1740e+01	11.2681	73.191252	0.000568	5.677111	1.923457	-0.000227
 723	7.1839e+01	11.2296	72.961136	0.000578	5.778488	1.957805	-0.000231
 724	7.1939e+01	11.1911	72.783502	0.000446	4.460587	1.511288	-0.000179
 725	7.2038e+01	11.1510	72.529162	0.000639	6.386750	2.163889	-0.000256
 726	7.2138e+01	11.1157	72.295008	0.000588	5.879865	1.992152	-0.000235
 727	7.2237e+01	11.0708	72.093151	0.000507	5.068849	1.717373	-0.000203
 728	7.2337e+01	11.0291	71.887258	0.000517	5.170226	1.751720	-0.000207
 729	7.2436e+01	10.9954	71.673289	0.000537	5.372980	1.820415	-0.000215
 730	7.2535e+01	10.9489	71.447210	0.000568	5.677111	1.923457	-0.000227
 731	7.2635e+01	10.9088	71.233242	0.000537	5.372980	1.820415	-0.000215
 732	7.2734e+01	10.8719	71.019273	0.000537	5.372980	1.820415	-0.000215
 733	7.2834e+01	10.8334	70.744748	0.000689	6.893635	2.335627	-0.000276
 734	7.2933e+01	10.7933	70.571151	0.000436	4.359210	1.476940	-0.000174
 735	7.3033e+01	10.7452	70.328923	0.000608	6.082619	2.060847	-0.000243
 736	7.3132e+01	10.7227	70.139178	0.000476	4.764718	1.614330	-0.000191
 737	7.3232e+01	10.6778	69.905024	0.000588	5.879865	1.992152	-0.000235
 738	7.3332e+01	10.6457	69.687019	0.000547	5.474357	1.854762	-0.000219
 739	7.3431e+01	10.5992	69.436716	0.000629	6.285373	2.129542	-0.000252
 740	7.3531e+01	10.5559	69.234859	0.000507	5.068849	1.717373	-0.000203
 741	7.3630e+01	10.5190	69.012817	0.000558	5.575734	1.889110	-0.000223
 742	7.3730e+01	10.4756	68.746366	0.000669	6.690881	2.266932	-0.000268
 743	7.3829e+01	10.4259	68.596992	0.000375	3.750948	1.270856	-0.000150
 744	7.3928e+01	10.3970	68.358801	0.000598	5.981242	2.026500	-0.000239
 745	7.4028e+01	10.3569	68.116573	0.000608	6.082619	2.060847	-0.000243
 746	7.4127e+01	10.3200	67.890493	0.000568	5.677111	1.923457	-0.000227
 747	7.4227e+01	10.2799	67.680562	0.000527	5.271603	1.786067	-0.000211
 748	7.4326e+01	10.2382	67.446408	0.000588	5.879865	1.992152	-0.000235
 749	7.4426e+01	10.1965	67.244551	0.000507	5.068849	1.717373	-0.000203
 750	7.4525e+01	10.1548	66.990212	0.000639	6.386750	2.163889	-0.000256
 751	7.4625e+01	10.1227	66.792392	0.000497	4.967472	1.683025	-0.000199
 752	7.4725e+01	10.0746	66.558238	0.000588	5.879865	1.992152	-0.000235
 753	7.4824e+01	10.0377	66.295825	0.000659	6.589504	2.232584	-0.000264
 754	7.4924e+01	10.0024	66.134339	0.000406	4.055079	1.373898	-0.000162
 755	7.5023e+01	9.9671	65.912297	0.000558	5.575734	1.889110	-0.000223
 756	7.5123e+01	9.9206	65.649883	0.000659	6.589504	2.232584	-0.000264
 757	7.5222e+01	9.8821	65.448026	0.000507	5.068849	1.717373	-0.000203
 758	7.5322e+01	9.8372	65.250206	0.000497	4.967472	1.683025	-0.000199
 759	7.5421e+01	9.8003	65.016052	0.000588	5.879865	1.992152	-0.000235
 760	7.5520e+01	9.7585	64.785936	0.000578	5.778488	1.957805	-0.000231
 761	7.5620e+01	9.7136	64.547745	0.000598	5.981242	2.026500	-0.000239
 762	7.5719e+01	9.6799	64.345888	0.000507	5.068849	1.717373	-0.000203
 763	7.5819e+01	9.6398	64.111734	0.000588	5.879865	1.992152	-0.000235
 764	7.5918e+01	9.6045	63.897766	0.000537	5.372980	1.820415	-0.000215
 765	7.6018e+01	9.5596	63.659575	0.000598	5.981242	2.026500	-0.000239
 766	7.6118e+01	9.5227	63.401198	0.000649	6.488127	2.198237	-0.000260
 767	7.6217e+01	9.4826	63.203379	0.000497	4.967472	1.683025	-0.000199
 768	7.6317e+01	9.4393	62.997485	0.000517	5.170226	1.751720	-0.000207
 769	7.6416e+01	9.4056	62.751219	0.000618	6.183996	2.095195	-0.000248
 770	7.6516e+01	9.3671	62.549363	0.000507	5.068849	1.717373	-0.000203
 771	7.6615e+01	9.3318	62.335394	0.000537	5.372980	1.820415	-0.000215
 772	7.6715e+01	9.2773	62.060869	0.000689	6.893635	2.335627	-0.000276
 773	7.6814e+01	9.2436	61.867087	0.000487	4.866095	1.648678	-0.000195
 774	7.6913e+01	9.1955	61.641007	0.000568	5.677111	1.923457	-0.000227
 775	7.7013e+01	9.1682	61.414927	0.000568	5.677111	1.923457	-0.000227
 776	7.7112e+01	9.1217	61.180774	0.000588	5.879865	1.992152	-0.000235
 777	7.7212e+01	9.0832	60.974880	0.000517	5.170226	1.751720	-0.000207
 778	7.7311e+01	9.0415	60.708429	0.000669	6.690881	2.266932	-0.000268
 779	7.7411e+01	9.0030	60.494460	0.000537	5.372980	1.820415	-0.000215
 780	7.7510e+01	8.9709	60.252232	0.000608	6.082619	2.060847	-0.000243
 781	7.7610e+01	8.9227	60.026153	0.000568	5.677111	1.923457	-0.000227
 782	7.7710e+01	8.8826	59.812185	0.000537	5.372980	1.820415	-0.000215
 783	7.7809e+01	8.8393	59.614365	0.000497	4.967472	1.683025	-0.000199
 784	7.7909e+01	8.8056	59.376174	0.000598	5.981242	2.026500	-0.000239
 785	7.8008e+01	8.7559	59.129909	0.000618	6.183996	2.095195	-0.000248
 786	7.8108e+01	8.7126	58.940163	0.000476	4.764718	1.614330	-0.000191
 787	7.8207e+01	8.6805	58.681787	0.000649	6.488127	2.198237	-0.000260
 788	7.8306e+01	8.6420	58.443596	0.000598	5.981242	2.026500	-0.000239
 789	7.8406e+01	8.5971	58.209442	0.000588	5.879865	1.992152	-0.000235
 790	7.8505e+01	8.5666	57.983362	0.000568	5.677111	1.923457	-0.000227
 791	7.8605e+01	8.5313	57.745171	0.000598	5.981242	2.026500	-0.000239
 792	7.8704e+01	8.4848	57.494869	0.000629	6.285373	2.129542	-0.000252
 793	7.8804e+01	8.4335	57.313198	0.000456	4.561964	1.545635	-0.000183
 794	7.8903e+01	8.4126	57.070969	0.000608	6.082619	2.060847	-0.000243
 795	7.9003e+01	8.3645	56.812593	0.000649	6.488127	2.198237	-0.000260
 796	7.9103e+01	8.3228	56.618810	0.000487	4.866095	1.648678	-0.000195
 797	7.9202e+01	8.2762	56.307951	0.000781	7.806028	2.644754	-0.000312
 798	7.9302e+01	8.2506	56.126280	0.000456	4.561964	1.545635	-0.000183
 799	7.9401e+01	8.2008	55.892126	0.000588	5.879865	1.992152	-0.000235
 800	7.9501e+01	8.1688	55.637786	0.000639	6.386750	2.163889	-0.000256
 801	7.9600e+01	8.1222	55.419781	0.000547	5.474357	1.854762	-0.000219
 802	7.9700e+01	8.0773	55.165441	0.000639	6.386750	2.163889	-0.000256
 803	7.9799e+01	8.0581	54.987807	0.000446	4.460587	1.511288	-0.000179
 804	7.9898e+01	7.9955	54.717319	0.000679	6.792258	2.301279	-0.000272
 805	7.9998e+01	7.9618	54.475091	0.000608	6.082619	2.060847	-0.000243
 806	8.0097e+01	7.9281	54.249011	0.000568	5.677111	1.923457	-0.000227
 807	8.0197e+01	7.8864	54.014858	0.000588	5.879865	1.992152	-0.000235
 808	8.0296e+01	7.8527	53.780704	0.000588	5.879865	1.992152	-0.000235
 809	8.0396e+01	7.8046	53.570773	0.000527	5.271603	1.786067	-0.000211
 810	8.0496e+01	7.7581	53.320470	0.000629	6.285373	2.129542	-0.000252
 811	8.0595e+01	7.7308	53.074205	0.000618	6.183996	2.095195	-0.000248
 812	8.0695e+01	7.6891	52.823903	0.000629	6.285373	2.129542	-0.000252
 813	8.0794e+01	7.6490	52.638194	0.000466	4.663341	1.579983	-0.000187
 814	8.0894e+01	7.6089	52.387892	0.000629	6.285373	2.129542	-0.000252
 815	8.0993e+01	7.5624	52.133552	0.000639	6.386750	2.163889	-0.000256
 816	8.1093e+01	7.5287	51.899398	0.000588	5.879865	1.992152	-0.000235
 817	8.1192e+01	7.4870	51.729839	0.000426	4.257833	1.442593	-0.000170
 818	8.1291e+01	7.4372	51.451276	0.000700	6.995012	2.369974	-0.000280
 819	8.1391e+01	7.4035	51.225197	0.000568	5.677111	1.923457	-0.000227
 820	8.1490e+01	7.3698	50.987006	0.000598	5.981242	2.026500	-0.000239
 821	8.1590e+01	7.3313	50.736703	0.000629	6.285373	2.129542	-0.000252
 822	8.1689e+01	7.2848	50.486401	0.000629	6.285373	2.129542	-0.000252
 823	8.1789e+01	7.2463	50.264359	0.000558	5.575734	1.889110	-0.000223
 824	8.1888e+01	7.2030	50.005982	0.000649	6.488127	2.198237	-0.000260
 825	8.1988e+01	7.1661	49.771828	0.000588	5.879865	1.992152	-0.000235
 826	8.2088e+01	7.1292	49.557860	0.000537	5.372980	1.820415	-0.000215
 827	8.2187e+01	7.0795	49.283335	0.000689	6.893635	2.335627	-0.000276
 828	8.2287e+01	7.0410	49.073403	0.000527	5.271603	1.786067	-0.000211
 829	8.2386e+01	7.0041	48.847324	0.000568	5.677111	1.923457	-0.000227
 830	8.2486e+01	6.9640	48.649504	0.000497	4.967472	1.683025	-0.000199
 831	8.2585e+01	6.9367	48.387090	0.000659	6.589504	2.232584	-0.000264
 832	8.2684e+01	6.8854	48.140825	0.000618	6.183996	2.095195	-0.000248
 833	8.2784e+01	6.8501	47.882448	0.000649	6.488127	2.198237	-0.000260
 834	8.2883e+01	6.8084	47.668480	0.000537	5.372980	1.820415	-0.000215
 835	8.2983e+01	6.7618	47.389918	0.000700	6.995012	2.369974	-0.000280
 836	8.3082e+01	6.7298	47.208247	0.000456	4.561964	1.545635	-0.000183
 837	8.3182e+01	6.6880	46.933722	0.000689	6.893635	2.335627	-0.000276
 838	8.3281e+01	6.6431	46.731865	0.000507	5.068849	1.717373	-0.000203
 839	8.3381e+01	6.6078	46.489637	0.000608	6.082619	2.060847	-0.000243
 840	8.3481e+01	6.5661	46.239334	0.000629	6.285373	2.129542	-0.000252
 841	8.3580e+01	6.5228	46.021329	0.000547	5.474357	1.854762	-0.000219
 842	8.3680e+01	6.4907	45.762952	0.000649	6.488127	2.198237	-0.000260
 843	8.3779e+01	6.4538	45.516687	0.000618	6.183996	2.095195	-0.000248
 844	8.3879e+01	6.4105	45.314830	0.000507	5.068849	1.717373	-0.000203
 845	8.3978e+01	6.3720	45.048379	0.000669	6.690881	2.266932	-0.000268
 846	8.4078e+01	6.3303	44.834411	0.000537	5.372980	1.820415	-0.000215
 847	8.4177e+01	6.2918	44.596220	0.000598	5.981242	2.026500	-0.000239
 848	8.4276e+01	6.2533	44.358029	0.000598	5.981242	2.026500	-0.000239
 849	8.4376e+01	6.2084	44.091578	0.000669	6.690881	2.266932	-0.000268
 850	8.4475e+01	6.1859	43.845313	0.000618	6.183996	2.095195	-0.000248
 851	8.4575e+01	6.1282	43.627307	0.000547	5.474357	1.854762	-0.000219
 852	8.4674e+01	6.0977	43.389116	0.000598	5.981242	2.026500	-0.000239
 853	8.4774e+01	6.0496	43.146888	0.000608	6.082619	2.060847	-0.000243
 854	8.4874e+01	6.0175	42.912734	0.000588	5.879865	1.992152	-0.000235
 855	8.4973e+01	5.9742	42.682618	0.000578	5.778488	1.957805	-0.000231
 856	8.5073e+01	5.9373	42.452501	0.000578	5.778488	1.957805	-0.000231
 857	8.5172e+01	5.8956	42.206236	0.000618	6.183996	2.095195	-0.000248
 858	8.5272e+01	5.8506	41.955933	0.000629	6.285373	2.129542	-0.000252
 859	8.5371e+01	5.8186	41.705631	0.000629	6.285373	2.129542	-0.000252
 860	8.5471e+01	5.7704	41.475514	0.000578	5.778488	1.957805	-0.000231
 861	8.5570e+01	5.7367	41.249434	0.000568	5.677111	1.923457	-0.000227
 862	8.5669e+01	5.6966	40.978946	0.000679	6.792258	2.301279	-0.000272
 863	8.5769e+01	5.6533	40.756904	0.000558	5.575734	1.889110	-0.000223
 864	8.5868e+01	5.6180	40.510639	0.000618	6.183996	2.095195	-0.000248
 865	8.5968e+01	5.5811	40.260336	0.000629	6.285373	2.129542	-0.000252
 866	8.6067e+01	5.5266	40.050405	0.000527	5.271603	1.786067	-0.000211
 867	8.6167e+01	5.4929	39.816251	0.000588	5.879865	1.992152	-0.000235
 868	8.6266e+01	5.4608	39.557875	0.000649	6.488127	2.198237	-0.000260
 869	8.6366e+01	5.4175	39.319684	0.000598	5.981242	2.026500	-0.000239
 870	8.6466e+01	5.3790	39.085530	0.000588	5.879865	1.992152	-0.000235
 871	8.6565e+01	5.3341	38.851376	0.000588	5.879865	1.992152	-0.000235
 872	8.6665e+01	5.2924	38.617222	0.000588	5.879865	1.992152	-0.000235
 873	8.6764e+01	5.2603	38.399217	0.000547	5.474357	1.854762	-0.000219
 874	8.6864e+01	5.2154	38.152951	0.000618	6.183996	2.095195	-0.000248
 875	8.6963e+01	5.1672	37.882463	0.000679	6.792258	2.301279	-0.000272
 876	8.7063e+01	5.1319	37.636198	0.000618	6.183996	2.095195	-0.000248
 877	8.7162e+01	5.0983	37.410118	0.000568	5.677111	1.923457	-0.000227
 878	8.7261e+01	5.0581	37.159816	0.000629	6.285373	2.129542	-0.000252
 879	8.7361e+01	5.0148	36.897402	0.000659	6.589504	2.232584	-0.000264
 880	8.7460e+01	4.9795	36.671322	0.000568	5.677111	1.923457	-0.000227
 881	8.7560e+01	4.9282	36.465429	0.000517	5.170226	1.751720	-0.000207
 882	8.7659e+01	4.9057	36.186866	0.000700	6.995012	2.369974	-0.000280
 883	8.7759e+01	4.8576	35.980972	0.000517	5.170226	1.751720	-0.000207
 884	8.7859e+01	4.8175	35.702410	0.000700	6.995012	2.369974	-0.000280
 885	8.7958e+01	4.7870	35.496516	0.000517	5.170226	1.751720	-0.000207
 886	8.8058e+01	4.7373	35.262362	0.000588	5.879865	1.992152	-0.000235
 887	8.8157e+01	4.6972	35.020134	0.000608	6.082619	2.060847	-0.000243
 888	8.8257e+01	4.6667	34.765794	0.000639	6.386750	2.163889	-0.000256
 889	8.8356e+01	4.6154	34.543752	0.000558	5.575734	1.889110	-0.000223
 890	8.8456e+01	4.5833	34.305561	0.000598	5.981242	2.026500	-0.000239
 891	8.8555e+01	4.5368	34.075444	0.000578	5.778488	1.957805	-0.000231
 892	8.8654e+01	4.4983	33.825142	0.000629	6.285373	2.129542	-0.000252
 893	8.8754e+01	4.4550	33.562728	0.000659	6.589504	2.232584	-0.000264
 894	8.8853e+01	4.4245	33.316463	0.000618	6.183996	2.095195	-0.000248
 895	8.8953e+01	4.3715	33.070197	0.000618	6.183996	2.095195	-0.000248
 896	8.9052e+01	4.3362	32.856229	0.000537	5.372980	1.820415	-0.000215
 897	8.9152e+01	4.2945	32.597853	0.000649	6.488127	2.198237	-0.000260
 898	8.9251e+01	4.2624	32.404070	0.000487	4.866095	1.648678	-0.000195
 899	8.9351e+01	4.2191	32.125508	0.000700	6.995012	2.369974	-0.000280
 900	8.9451e+01	4.1838	31.875205	0.000629	6.285373	2.129542	-0.000252
 901	8.9550e+01	4.1421	31.628940	0.000618	6.183996	2.095195	-0.000248
 902	8.9650e+01	4.1020	31.394786	0.000588	5.879865	1.992152	-0.000235
 903	8.9749e+01	4.0667	31.180818	0.000537	5.372980	1.820415	-0.000215
 904	8.9849e+01	4.0170	30.918404	0.000659	6.589504	2.232584	-0.000264
 905	8.9948e+01	3.9881	30.684250	0.000588	5.879865	1.992152	-0.000235
 906	9.0047e+01	3.9384	30.433948	0.000629	6.285373	2.129542	-0.000252
 907	9.0147e+01	3.9079	30.195757	0.000598	5.981242	2.026500	-0.000239
 908	9.0246e+01	3.8614	29.953529	0.000608	6.082619	2.060847	-0.000243
 909	9.0346e+01	3.8213	29.727449	0.000568	5.677111	1.923457	-0.000227
 910	9.0445e+01	3.7764	29.485221	0.000608	6.082619	2.060847	-0.000243
 911	9.0545e+01	3.7443	29.214733	0.000679	6.792258	2.301279	-0.000272
 912	9.0644e+01	3.6994	28.976542	0.000598	5.981242	2.026500	-0.000239
 913	9.0744e+01	3.6593	28.730276	0.000618	6.183996	2.095195	-0.000248
 914	9.0844e+01	3.6256	28.439603	0.000730	7.299143	2.473016	-0.000292
 915	9.0943e+01	3.5823	28.261969	0.000446	4.460587	1.511288	-0.000179
 916	9.1043e+01	3.5373	27.947072	0.000791	7.907405	2.679101	-0.000316
 917	9.1142e+01	3.5069	27.745215	0.000507	5.068849	1.717373	-0.000203
 918	9.1242e+01	3.4603	27.515099	0.000578	5.778488	1.957805	-0.000231
 919	9.1341e+01	3.4186	27.260759	0.000639	6.386750	2.163889	-0.000256
 920	9.1441e+01	3.3865	27.018531	0.000608	6.082619	2.060847	-0.000243
 921	9.1540e+01	3.3480	26.764191	0.000639	6.386750	2.163889	-0.000256
 922	9.1639e+01	3.2935	26.517926	0.000618	6.183996	2.095195	-0.000248
 923	9.1739e+01	3.2662	26.287809	0.000578	5.778488	1.957805	-0.000231
 924	9.1838e+01	3.2309	26.061730	0.000568	5.677111	1.923457	-0.000227
 925	9.1938e+01	3.1828	25.799316	0.000659	6.589504	2.232584	-0.000264
 926	9.2037e+01	3.1427	25.516716	0.000710	7.096389	2.404322	-0.000284
 927	9.2137e+01	3.1106	25.298711	0.000547	5.474357	1.854762	-0.000219
 928	9.2237e+01	3.0657	25.060520	0.000598	5.981242	2.026500	-0.000239
 929	9.2336e+01	3.0352	24.822329	0.000598	5.981242	2.026500	-0.000239
 930	9.2436e+01	2.9903	24.559915	0.000659	6.589504	2.232584	-0.000264
 931	9.2535e+01	2.9422	24.329799	0.000578	5.778488	1.957805	-0.000231
 932	9.2635e+01	2.9069	24.099682	0.000578	5.778488	1.957805	-0.000231
 933	9.2734e+01	2.8636	23.841305	0.000649	6.488127	2.198237	-0.000260
 934	9.2834e+01	2.8331	23.574854	0.000669	6.690881	2.266932	-0.000268
 935	9.2933e+01	2.7801	23.352812	0.000558	5.575734	1.889110	-0.000223
 936	9.3032e+01	2.7464	23.122695	0.000578	5.778488	1.957805	-0.000231
 937	9.3132e+01	2.7095	22.827984	0.000740	7.400520	2.507364	-0.000296
 938	9.3231e+01	2.6727	22.630164	0.000497	4.967472	1.683025	-0.000199
 939	9.3331e+01	2.6197	22.387936	0.000608	6.082619	2.060847	-0.000243
 940	9.3430e+01	2.5860	22.141671	0.000618	6.183996	2.095195	-0.000248
 941	9.3530e+01	2.5427	21.850997	0.000730	7.299143	2.473016	-0.000292
 942	9.3629e+01	2.5106	21.628955	0.000558	5.575734	1.889110	-0.000223
 943	9.3729e+01	2.4673	21.374615	0.000639	6.386750	2.163889	-0.000256
 944	9.3829e+01	2.4288	21.136424	0.000598	5.981242	2.026500	-0.000239
 945	9.3928e+01	2.3871	20.922456	0.000537	5.372980	1.820415	-0.000215
 946	9.4028e+01	2.3534	20.635819	0.000720	7.197766	2.438669	-0.000288
 947	9.4127e+01	2.3133	20.393591	0.000608	6.082619	2.060847	-0.000243
 948	9.4227e+01	2.2684	20.151363	0.000608	6.082619	2.060847	-0.000243
 949	9.4326e+01	2.2283	19.937395	0.000537	5.372980	1.820415	-0.000215
 950	9.4425e+01	2.1898	19.679018	0.000649	6.488127	2.198237	-0.000260
 951	9.4525e+01	2.1433	19.416604	0.000659	6.589504	2.232584	-0.000264
 952	9.4624e+01	2.1064	19.166302	0.000629	6.285373	2.129542	-0.000252
 953	9.4724e+01	2.0679	18.920037	0.000618	6.183996	2.095195	-0.000248
 954	9.4823e+01	2.0213	18.645511	0.000689	6.893635	2.335627	-0.000276
 955	9.4923e+01	1.9828	18.415395	0.000578	5.778488	1.957805	-0.000231
 956	9.5022e+01	1.9540	18.132795	0.000710	7.096389	2.404322	-0.000284
 957	9.5122e+01	1.9106	17.918827	0.000537	5.372980	1.820415	-0.000215
 958	9.5222e+01	1.8737	17.688710	0.000578	5.778488	1.957805	-0.000231
 959	9.5321e+01	1.8336	17.418222	0.000679	6.792258	2.301279	-0.000272
 960	9.5421e+01	1.7935	17.167920	0.000629	6.285373	2.129542	-0.000252
 961	9.5520e+01	1.7438	16.905506	0.000659	6.589504	2.232584	-0.000264
 962	9.5620e+01	1.7117	16.715761	0.000476	4.764718	1.614330	-0.000191
 963	9.5719e+01	1.6636	16.408938	0.000770	7.704651	2.610406	-0.000308
 964	9.5819e+01	1.6267	16.174784	0.000588	5.879865	1.992152	-0.000235
 965	9.5918e+01	1.5962	15.932556	0.000608	6.082619	2.060847	-0.000243
 966	9.6017e+01	1.5449	15.666105	0.000669	6.690881	2.266932	-0.000268
 967	9.6117e+01	1.5128	15.448100	0.000547	5.474357	1.854762	-0.000219
 968	9.6216e+01	1.4679	15.157426	0.000730	7.299143	2.473016	-0.000292
 969	9.6316e+01	1.4262	14.959606	0.000497	4.967472	1.683025	-0.000199
 970	9.6415e+01	1.3861	14.648747	0.000781	7.806028	2.644754	-0.000312
 971	9.6515e+01	1.3524	14.406519	0.000608	6.082619	2.060847	-0.000243
 972	9.6615e+01	1.3139	14.176402	0.000578	5.778488	1.957805	-0.000231
 973	9.6714e+01	1.2657	13.918025	0.000649	6.488127	2.198237	-0.000260
 974	9.6814e+01	1.2337	13.607166	0.000781	7.806028	2.644754	-0.000312
 975	9.6913e+01	1.1919	13.429532	0.000446	4.460587	1.511288	-0.000179
 976	9.7013e+01	1.1583	13.167118	0.000659	6.589504	2.232584	-0.000264
 977	9.7112e+01	1.1005	12.908742	0.000649	6.488127	2.198237	-0.000260
 978	9.7212e+01	1.0748	12.650365	0.000649	6.488127	2.198237	-0.000260
 979	9.7311e+01	1.0363	12.448508	0.000507	5.068849	1.717373	-0.000203
 980	9.7410e+01	0.9898	12.165909	0.000710	7.096389	2.404322	-0.000284
 981	9.7510e+01	0.9529	11.903495	0.000659	6.589504	2.232584	-0.000264
 982	9.7609e+01	0.9240	11.645118	0.000649	6.488127	2.198237	-0.000260
 983	9.7709e+01	0.8807	11.439224	0.000517	5.170226	1.751720	-0.000207
 984	9.7808e+01	0.8326	11.156625	0.000710	7.096389	2.404322	-0.000284
 985	9.7908e+01	0.7893	10.910359	0.000618	6.183996	2.095195	-0.000248
 986	9.8007e+01	0.7556	10.692354	0.000547	5.474357	1.854762	-0.000219
 987	9.8107e+01	0.7107	10.438014	0.000639	6.386750	2.163889	-0.000256
 988	9.8207e+01	0.6658	10.171563	0.000669	6.690881	2.266932	-0.000268
 989	9.8306e+01	0.6240	9.921261	0.000629	6.285373	2.129542	-0.000252
 990	9.8406e+01	0.5888	9.666922	0.000639	6.386750	2.163889	-0.000256
 991	9.8505e+01	0.5567	9.388359	0.000700	6.995012	2.369974	-0.000280
 992	9.8605e+01	0.5182	9.186502	0.000507	5.068849	1.717373	-0.000203
 993	9.8704e+01	0.4732	8.948311	0.000598	5.981242	2.026500	-0.000239
 994	9.8803e+01	0.4412	8.710120	0.000598	5.981242	2.026500	-0.000239
 995	9.8903e+01	0.3914	8.407335	0.000760	7.603274	2.576059	-0.000304
 996	9.9002e+01	0.3561	8.201441	0.000517	5.170226	1.751720	-0.000207
 997	9.9102e+01	0.3128	7.930953	0.000679	6.792258	2.301279	-0.000272
 998	9.9201e+01	0.2711	7.676614	0.000639	6.386750	2.163889	-0.000256
 999	9.9301e+01	0.2310	7.418237	0.000649	6.488127	2.198237	-0.000260
1000	9.9400e+01	0.1877	7.155823	0.000659	6.589504	2.232584	-0.000264
1001	9.9500e+01	0.1556	6.937818	0.000547	5.474357	1.854762	-0.000219
1002	9.9600e+01	0.1075	6.695590	0.000608	6.082619	2.060847	-0.000243
1003	9.9699e+01	0.0770	6.453361	0.000608	6.082619	2.060847	-0.000243
1004	9.9799e+01	0.0305	6.166725	0.000720	7.197766	2.438669	-0.000288
1005	9.9898e+01	0.0144	5.989091	0.000446	4.460587	1.511288	-0.000179
1006	9.9998e+01	-0.0241	5.722640	0.000669	6.690881	2.266932	-0.000268
1007	1.0010e+02	-0.0674	5.496560	0.000568	5.677111	1.923457	-0.000227
1008	1.0020e+02	-0.1219	5.274518	0.000558	5.575734	1.889110	-0.000223
1009	1.0030e+02	-0.1556	4.991918	0.000710	7.096389	2.404322	-0.000284
1010	1.0040e+02	-0.1957	4.749690	0.000608	6.082619	2.060847	-0.000243
1011	1.0050e+02	-0.2454	4.503425	0.000618	6.183996	2.095195	-0.000248
1012	1.0059e+02	-0.2759	4.245048	0.000649	6.488127	2.198237	-0.000260
1013	1.0069e+02	-0.3144	3.990709	0.000639	6.386750	2.163889	-0.000256
1014	1.0079e+02	-0.3545	3.704072	0.000720	7.197766	2.438669	-0.000288
1015	1.0089e+02	-0.4027	3.490104	0.000537	5.372980	1.820415	-0.000215
1016	1.0099e+02	-0.4315	3.239801	0.000629	6.285373	2.129542	-0.000252
1017	1.0109e+02	-0.4732	3.017759	0.000558	5.575734	1.889110	-0.000223
1018	1.0119e+02	-0.5262	2.775531	0.000608	6.082619	2.060847	-0.000243
1019	1.0129e+02	-0.5615	2.521191	0.000639	6.386750	2.163889	-0.000256
1020	1.0139e+02	-0.5888	2.246666	0.000689	6.893635	2.335627	-0.000276
1021	1.0149e+02	-0.6385	2.012512	0.000588	5.879865	1.992152	-0.000235
1022	1.0159e+02	-0.6818	1.725876	0.000720	7.197766	2.438669	-0.000288
1023	1.0169e+02	-0.7091	1.519982	0.000517	5.170226	1.751720	-0.000207
1024	1.0179e+02	-0.7572	1.237382	0.000710	7.096389	2.404322	-0.000284
1025	1.0189e+02	-0.7909	0.995154	0.000608	6.082619	2.060847	-0.000243
1026	1.0199e+02	-0.8310	0.728703	0.000669	6.690881	2.266932	-0.000268
1027	1.0209e+02	-0.8711	0.486475	0.000608	6.082619	2.060847	-0.000243
1028	1.0219e+02	-0.9176	0.248284	0.000598	5.981242	2.026500	-0.000239
1029	1.0229e+02	-0.9545	0.014130	0.000588	5.879865	1.992152	-0.000235
1030	1.0239e+02	-0.9994	-0.232135	0.000618	6.183996	2.095195	-0.000248
1031	1.0248e+02	-1.0331	-0.470326	0.000598	5.981242	2.026500	-0.000239
1032	1.0258e+02	-1.0700	-0.752926	0.000710	7.096389	2.404322	-0.000284
1033	1.0268e+02	-1.1117	-1.003228	0.000629	6.285373	2.129542	-0.000252
1034	1.0278e+02	-1.1599	-1.237382	0.000588	5.879865	1.992152	-0.000235
1035	1.0288e+02	-1.2000	-1.491722	0.000639	6.386750	2.163889	-0.000256
1036	1.0298e+02	-1.2385	-1.754135	0.000659	6.589504	2.232584	-0.000264
1037	1.0308e+02	-1.2722	-1.927732	0.000436	4.359210	1.476940	-0.000174
1038	1.0318e+02	-1.3203	-2.206295	0.000700	6.995012	2.369974	-0.000280
1039	1.0328e+02	-1.3508	-2.496968	0.000730	7.299143	2.473016	-0.000292
1040	1.0338e+02	-1.3925	-2.710937	0.000537	5.372980	1.820415	-0.000215
1041	1.0348e+02	-1.4358	-2.969313	0.000649	6.488127	2.198237	-0.000260
1042	1.0358e+02	-1.4631	-3.203467	0.000588	5.879865	1.992152	-0.000235
1043	1.0368e+02	-1.5160	-3.417435	0.000537	5.372980	1.820415	-0.000215
1044	1.0378e+02	-1.5449	-3.708109	0.000730	7.299143	2.473016	-0.000292
1045	1.0388e+02	-1.5930	-3.897855	0.000476	4.764718	1.614330	-0.000191
1046	1.0398e+02	-1.6251	-4.156231	0.000649	6.488127	2.198237	-0.000260
1047	1.0408e+02	-1.6652	-4.410571	0.000639	6.386750	2.163889	-0.000256
1048	1.0418e+02	-1.7117	-4.677022	0.000669	6.690881	2.266932	-0.000268
1049	1.0428e+02	-1.7390	-4.890990	0.000537	5.372980	1.820415	-0.000215
1050	1.0438e+02	-1.7887	-5.137255	0.000618	6.183996	2.095195	-0.000248
1051	1.0447e+02	-1.8240	-5.407743	0.000679	6.792258	2.301279	-0.000272
1052	1.0457e+02	-1.8689	-5.649971	0.000608	6.082619	2.060847	-0.000243
1053	1.0467e+02	-1.9155	-5.884125	0.000588	5.879865	1.992152	-0.000235
1054	1.0477e+02	-1.9524	-6.106168	0.000558	5.575734	1.889110	-0.000223
1055	1.0487e+02	-1.9973	-6.356470	0.000629	6.285373	2.129542	-0.000252
1056	1.0497e+02	-2.0278	-6.614847	0.000649	6.488127	2.198237	-0.000260
1057	1.0507e+02	-2.0759	-6.881298	0.000669	6.690881	2.266932	-0.000268
1058	1.0517e+02	-2.1176	-7.103340	0.000558	5.575734	1.889110	-0.000223
1059	1.0527e+02	-2.1497	-7.345568	0.000608	6.082619	2.060847	-0.000243
1060	1.0537e+02	-2.1866	-7.587797	0.000608	6.082619	2.060847	-0.000243
1061	1.0547e+02	-2.2315	-7.825988	0.000598	5.981242	2.026500	-0.000239
1062	1.0557e+02	-2.2684	-8.116661	0.000730	7.299143	2.473016	-0.000292
1063	1.0567e+02	-2.3165	-8.318518	0.000507	5.068849	1.717373	-0.000203
1064	1.0577e+02	-2.3470	-8.572858	0.000639	6.386750	2.163889	-0.000256
1065	1.0587e+02	-2.3903	-8.843346	0.000679	6.792258	2.301279	-0.000272
1066	1.0597e+02	-2.4256	-9.089611	0.000618	6.183996	2.095195	-0.000248
1067	1.0607e+02	-2.4689	-9.295505	0.000517	5.170226	1.751720	-0.000207
1068	1.0617e+02	-2.5042	-9.537733	0.000608	6.082619	2.060847	-0.000243
1069	1.0627e+02	-2.5491	-9.771887	0.000588	5.879865	1.992152	-0.000235
1070	1.0637e+02	-2.5973	-10.022189	0.000629	6.285373	2.129542	-0.000252
1071	1.0647e+02	-2.6197	-10.256343	0.000588	5.879865	1.992152	-0.000235
1072	1.0656e+02	-2.6598	-10.526831	0.000679	6.792258	2.301279	-0.000272
1073	1.0666e+02	-2.7112	-10.813468	0.000720	7.197766	2.438669	-0.000288
1074	1.0676e+02	-2.7513	-10.983028	0.000426	4.257833	1.442593	-0.000170
1075	1.0686e+02	-2.7833	-11.261590	0.000700	6.995012	2.369974	-0.000280
1076	1.0696e+02	-2.8170	-11.483633	0.000558	5.575734	1.889110	-0.000223
1077	1.0706e+02	-2.8700	-11.733935	0.000629	6.285373	2.129542	-0.000252
1078	1.0716e+02	-2.9053	-11.980200	0.000618	6.183996	2.095195	-0.000248
1079	1.0726e+02	-2.9470	-12.254726	0.000689	6.893635	2.335627	-0.000276
1080	1.0736e+02	-2.9887	-12.456582	0.000507	5.068849	1.717373	-0.000203
1081	1.0746e+02	-3.0288	-12.739182	0.000710	7.096389	2.404322	-0.000284
1082	1.0756e+02	-3.0673	-12.937001	0.000497	4.967472	1.683025	-0.000199
1083	1.0766e+02	-3.1058	-13.215564	0.000700	6.995012	2.369974	-0.000280
1084	1.0776e+02	-3.1475	-13.461829	0.000618	6.183996	2.095195	-0.000248
1085	1.0786e+02	-3.1844	-13.659649	0.000497	4.967472	1.683025	-0.000199
1086	1.0796e+02	-3.2277	-13.938211	0.000700	6.995012	2.369974	-0.000280
1087	1.0806e+02	-3.2614	-14.172365	0.000588	5.879865	1.992152	-0.000235
1088	1.0816e+02	-3.3047	-14.398445	0.000568	5.677111	1.923457	-0.000227
1089	1.0826e+02	-3.3432	-14.656821	0.000649	6.488127	2.198237	-0.000260
1090	1.0836e+02	-3.3881	-14.899049	0.000608	6.082619	2.060847	-0.000243
1091	1.0845e+02	-3.4218	-15.129166	0.000578	5.778488	1.957805	-0.000231
1092	1.0855e+02	-3.4603	-15.411766	0.000710	7.096389	2.404322	-0.000284
1093	1.0865e+02	-3.5052	-15.589400	0.000446	4.460587	1.511288	-0.000179
1094	1.0875e+02	-3.5341	-15.871999	0.000710	7.096389	2.404322	-0.000284
1095	1.0885e+02	-3.5871	-16.090004	0.000547	5.474357	1.854762	-0.000219
1096	1.0895e+02	-3.6224	-16.360493	0.000679	6.792258	2.301279	-0.000272
1097	1.0905e+02	-3.6689	-16.647129	0.000720	7.197766	2.438669	-0.000288
1098	1.0915e+02	-3.7042	-16.828800	0.000456	4.561964	1.545635	-0.000183
1099	1.0925e+02	-3.7443	-17.034694	0.000517	5.170226	1.751720	-0.000207
1100	1.0935e+02	-3.7812	-17.301145	0.000669	6.690881	2.266932	-0.000268
1101	1.0945e+02	-3.8245	-17.563559	0.000659	6.589504	2.232584	-0.000264
1102	1.0955e+02	-3.8598	-17.825973	0.000659	6.589504	2.232584	-0.000264
1103	1.0965e+02	-3.9031	-18.052052	0.000568	5.677111	1.923457	-0.000227
1104	1.0975e+02	-3.9384	-18.310429	0.000649	6.488127	2.198237	-0.000260
1105	1.0985e+02	-3.9769	-18.520360	0.000527	5.271603	1.786067	-0.000211
1106	1.0995e+02	-4.0154	-18.782774	0.000659	6.589504	2.232584	-0.000264
1107	1.1005e+02	-4.0667	-19.016928	0.000588	5.879865	1.992152	-0.000235
1108	1.1015e+02	-4.0956	-19.226859	0.000527	5.271603	1.786067	-0.000211
1109	1.1025e+02	-4.1357	-19.517533	0.000730	7.299143	2.473016	-0.000292
1110	1.1035e+02	-4.1822	-19.715352	0.000497	4.967472	1.683025	-0.000199
1111	1.1044e+02	-4.2191	-19.965655	0.000629	6.285373	2.129542	-0.000252
1112	1.1054e+02	-4.2641	-20.183660	0.000547	5.474357	1.854762	-0.000219
1113	1.1064e+02	-4.3058	-20.421851	0.000598	5.981242	2.026500	-0.000239
1114	1.1074e+02	-4.3378	-20.700413	0.000700	6.995012	2.369974	-0.000280
1115	1.1084e+02	-4.3715	-20.898233	0.000497	4.967472	1.683025	-0.000199
1116	1.1094e+02	-4.4148	-21.172758	0.000689	6.893635	2.335627	-0.000276
1117	1.1104e+02	-4.4646	-21.406912	0.000588	5.879865	1.992152	-0.000235
1118	1.1114e+02	-4.4886	-21.665289	0.000649	6.488127	2.198237	-0.000260
1119	1.1124e+02	-4.5448	-21.887331	0.000558	5.575734	1.889110	-0.000223
1120	1.1134e+02	-4.5689	-22.077077	0.000476	4.764718	1.614330	-0.000191
1121	1.1144e+02	-4.6154	-22.367751	0.000730	7.299143	2.473016	-0.000292
1122	1.1154e+02	-4.6603	-22.589793	0.000558	5.575734	1.889110	-0.000223
1123	1.1164e+02	-4.7004	-22.860281	0.000679	6.792258	2.301279	-0.000272
1124	1.1174e+02	-4.7453	-23.037915	0.000446	4.460587	1.511288	-0.000179
1125	1.1184e+02	-4.7870	-23.328589	0.000730	7.299143	2.473016	-0.000292
1126	1.1194e+02	-4.8143	-23.591003	0.000659	6.589504	2.232584	-0.000264
1127	1.1204e+02	-4.8656	-23.768637	0.000446	4.460587	1.511288	-0.000179
1128	1.1214e+02	-4.9090	-24.043162	0.000689	6.893635	2.335627	-0.000276
1129	1.1224e+02	-4.9298	-24.293464	0.000629	6.285373	2.129542	-0.000252
1130	1.1234e+02	-4.9747	-24.523581	0.000578	5.778488	1.957805	-0.000231
1131	1.1244e+02	-5.0164	-24.761772	0.000598	5.981242	2.026500	-0.000239
1132	1.1253e+02	-5.0598	-25.016112	0.000639	6.386750	2.163889	-0.000256
1133	1.1263e+02	-5.0870	-25.246228	0.000578	5.778488	1.957805	-0.000231
1134	1.1273e+02	-5.1400	-25.488456	0.000608	6.082619	2.060847	-0.000243
1135	1.1283e+02	-5.1720	-25.718573	0.000578	5.778488	1.957805	-0.000231
1136	1.1293e+02	-5.2186	-25.948690	0.000578	5.778488	1.957805	-0.000231
1137	1.1303e+02	-5.2571	-26.194955	0.000618	6.183996	2.095195	-0.000248
1138	1.1313e+02	-5.2876	-26.449295	0.000639	6.386750	2.163889	-0.000256
1139	1.1323e+02	-5.3405	-26.691523	0.000608	6.082619	2.060847	-0.000243
1140	1.1333e+02	-5.3662	-26.929714	0.000598	5.981242	2.026500	-0.000239
1141	1.1343e+02	-5.4079	-27.184053	0.000639	6.386750	2.163889	-0.000256
1142	1.1353e+02	-5.4480	-27.398022	0.000537	5.372980	1.820415	-0.000215
1143	1.1363e+02	-5.4993	-27.632176	0.000588	5.879865	1.992152	-0.000235
1144	1.1373e+02	-5.5378	-27.906701	0.000689	6.893635	2.335627	-0.000276
1145	1.1383e+02	-5.5843	-28.128743	0.000558	5.575734	1.889110	-0.000223
1146	1.1393e+02	-5.6148	-28.391157	0.000659	6.589504	2.232584	-0.000264
1147	1.1403e+02	-5.6469	-28.601088	0.000527	5.271603	1.786067	-0.000211
1148	1.1413e+02	-5.7063	-28.855428	0.000639	6.386750	2.163889	-0.000256
1149	1.1423e+02	-5.7415	-29.073433	0.000547	5.474357	1.854762	-0.000219
1150	1.1433e+02	-5.7801	-29.303550	0.000578	5.778488	1.957805	-0.000231
1151	1.1442e+02	-5.8137	-29.545778	0.000608	6.082619	2.060847	-0.000243
1152	1.1452e+02	-5.8506	-29.759746	0.000537	5.372980	1.820415	-0.000215
1153	1.1462e+02	-5.8956	-30.042346	0.000710	7.096389	2.404322	-0.000284
1154	1.1472e+02	-5.9292	-30.264388	0.000558	5.575734	1.889110	-0.000223
1155	1.1482e+02	-5.9694	-30.474319	0.000527	5.271603	1.786067	-0.000211
1156	1.1492e+02	-6.0062	-30.720584	0.000618	6.183996	2.095195	-0.000248
1157	1.1502e+02	-6.0512	-30.978961	0.000649	6.488127	2.198237	-0.000260
1158	1.1512e+02	-6.1073	-31.253486	0.000689	6.893635	2.335627	-0.000276
1159	1.1522e+02	-6.1234	-31.435157	0.000456	4.561964	1.545635	-0.000183
1160	1.1532e+02	-6.1747	-31.681423	0.000618	6.183996	2.095195	-0.000248
1161	1.1542e+02	-6.2164	-31.911539	0.000578	5.778488	1.957805	-0.000231
1162	1.1552e+02	-6.2501	-32.165879	0.000639	6.386750	2.163889	-0.000256
1163	1.1562e+02	-6.2982	-32.375810	0.000527	5.271603	1.786067	-0.000211
1164	1.1572e+02	-6.3319	-32.626112	0.000629	6.285373	2.129542	-0.000252
1165	1.1582e+02	-6.3752	-32.852192	0.000568	5.677111	1.923457	-0.000227
1166	1.1592e+02	-6.4121	-33.114606	0.000659	6.589504	2.232584	-0.000264
1167	1.1602e+02	-6.4538	-33.296277	0.000456	4.561964	1.545635	-0.000183
1168	1.1612e+02	-6.4859	-33.534468	0.000598	5.981242	2.026500	-0.000239
1169	1.1622e+02	-6.5308	-33.772659	0.000598	5.981242	2.026500	-0.000239
1170	1.1632e+02	-6.5693	-33.994701	0.000558	5.575734	1.889110	-0.000223
1171	1.1642e+02	-6.6143	-34.265190	0.000679	6.792258	2.301279	-0.000272
1172	1.1651e+02	-6.6511	-34.471083	0.000517	5.170226	1.751720	-0.000207
1173	1.1661e+02	-6.6897	-34.681015	0.000527	5.271603	1.786067	-0.000211
1174	1.1671e+02	-6.7314	-34.927280	0.000618	6.183996	2.095195	-0.000248
1175	1.1681e+02	-6.7715	-35.141248	0.000537	5.372980	1.820415	-0.000215
1176	1.1691e+02	-6.8052	-35.383476	0.000608	6.082619	2.060847	-0.000243
1177	1.1701e+02	-6.8517	-35.641853	0.000649	6.488127	2.198237	-0.000260
1178	1.1711e+02	-6.8757	-35.859858	0.000547	5.474357	1.854762	-0.000219
1179	1.1721e+02	-6.9271	-36.102086	0.000608	6.082619	2.060847	-0.000243
1180	1.1731e+02	-6.9672	-36.324129	0.000558	5.575734	1.889110	-0.000223
1181	1.1741e+02	-7.0153	-36.598654	0.000689	6.893635	2.335627	-0.000276
1182	1.1751e+02	-7.0474	-36.820696	0.000558	5.575734	1.889110	-0.000223
1183	1.1761e+02	-7.0859	-37.030628	0.000527	5.271603	1.786067	-0.000211
1184	1.1771e+02	-7.1148	-37.260744	0.000578	5.778488	1.957805	-0.000231
1185	1.1781e+02	-7.1693	-37.498935	0.000598	5.981242	2.026500	-0.000239
1186	1.1791e+02	-7.2126	-37.765386	0.000669	6.690881	2.266932	-0.000268
1187	1.1801e+02	-7.2383	-37.918797	0.000385	3.852325	1.305203	-0.000154
1188	1.1811e+02	-7.2896	-38.209471	0.000730	7.299143	2.473016	-0.000292
1189	1.1821e+02	-7.3281	-38.431514	0.000558	5.575734	1.889110	-0.000223
1190	1.1831e+02	-7.3554	-38.669705	0.000598	5.981242	2.026500	-0.000239
1191	1.1841e+02	-7.4035	-38.915970	0.000618	6.183996	2.095195	-0.000248
1192	1.1850e+02	-7.4420	-39.081493	0.000416	4.156456	1.408246	-0.000166
1193	1.1860e+02	-7.4918	-39.339869	0.000649	6.488127	2.198237	-0.000260
1194	1.1870e+02	-7.5303	-39.598246	0.000649	6.488127	2.198237	-0.000260
1195	1.1880e+02	-7.5656	-39.796066	0.000497	4.967472	1.683025	-0.000199
1196	1.1890e+02	-7.5976	-40.078665	0.000710	7.096389	2.404322	-0.000284
1197	1.1900e+02	-7.6394	-40.264373	0.000466	4.663341	1.579983	-0.000187
1198	1.1910e+02	-7.6923	-40.542936	0.000700	6.995012	2.369974	-0.000280
1199	1.1920e+02	-7.7276	-40.732681	0.000476	4.764718	1.614330	-0.000191
1200	1.1930e+02	-7.7645	-40.970872	0.000598	5.981242	2.026500	-0.000239
1201	1.1940e+02	-7.8078	-41.168692	0.000497	4.967472	1.683025	-0.000199
1202	1.1950e+02	-7.8399	-41.427068	0.000649	6.488127	2.198237	-0.000260
1203	1.1960e+02	-7.8848	-41.649111	0.000558	5.575734	1.889110	-0.000223
1204	1.1970e+02	-7.9233	-41.875190	0.000568	5.677111	1.923457	-0.000227
1205	1.1980e+02	-7.9650	-42.129530	0.000639	6.386750	2.163889	-0.000256
1206	1.1990e+02	-8.0051	-42.331387	0.000507	5.068849	1.717373	-0.000203
1207	1.2000e+02	-8.0549	-42.581689	0.000629	6.285373	2.129542	-0.000252
1208	1.2010e+02	-8.0805	-42.803732	0.000558	5.575734	1.889110	-0.000223
1209	1.2020e+02	-8.1190	-43.025774	0.000558	5.575734	1.889110	-0.000223
1210	1.2030e+02	-8.1575	-43.239742	0.000537	5.372980	1.820415	-0.000215
1211	1.2039e+02	-8.1944	-43.433525	0.000487	4.866095	1.648678	-0.000195
1212	1.2049e+02	-8.2474	-43.675753	0.000608	6.082619	2.060847	-0.000243
1213	1.2059e+02	-8.2827	-43.889721	0.000537	5.372980	1.820415	-0.000215
1214	1.2069e+02	-8.3260	-44.103689	0.000537	5.372980	1.820415	-0.000215
1215	1.2079e+02	-8.3613	-44.333806	0.000578	5.778488	1.957805	-0.000231
1216	1.2089e+02	-8.3966	-44.576034	0.000608	6.082619	2.060847	-0.000243
1217	1.2099e+02	-8.4479	-44.753668	0.000446	4.460587	1.511288	-0.000179
1218	1.2109e+02	-8.4848	-45.020119	0.000669	6.690881	2.266932	-0.000268
1219	1.2119e+02	-8.5121	-45.242162	0.000558	5.575734	1.889110	-0.000223
1220	1.2129e+02	-8.5634	-45.500538	0.000649	6.488127	2.198237	-0.000260
1221	1.2139e+02	-8.6035	-45.666061	0.000416	4.156456	1.408246	-0.000166
1222	1.2149e+02	-8.6468	-45.920400	0.000639	6.386750	2.163889	-0.000256
1223	1.2159e+02	-8.6725	-46.110146	0.000476	4.764718	1.614330	-0.000191
1224	1.2169e+02	-8.7302	-46.344300	0.000588	5.879865	1.992152	-0.000235
1225	1.2179e+02	-8.7671	-46.570379	0.000568	5.677111	1.923457	-0.000227
1226	1.2189e+02	-8.7944	-46.788385	0.000547	5.474357	1.854762	-0.000219
1227	1.2199e+02	-8.8377	-47.014464	0.000568	5.677111	1.923457	-0.000227
1228	1.2209e+02	-8.8810	-47.260730	0.000618	6.183996	2.095195	-0.000248
1229	1.2219e+02	-8.9211	-47.515069	0.000639	6.386750	2.163889	-0.000256
1230	1.2229e+02	-8.9645	-47.668480	0.000385	3.852325	1.305203	-0.000154
1231	1.2239e+02	-9.0014	-47.858226	0.000476	4.764718	1.614330	-0.000191
1232	1.2248e+02	-9.0431	-48.128714	0.000679	6.792258	2.301279	-0.000272
1233	1.2258e+02	-9.0832	-48.330570	0.000507	5.068849	1.717373	-0.000203
1234	1.2268e+02	-9.1201	-48.601059	0.000679	6.792258	2.301279	-0.000272
1235	1.2278e+02	-9.1602	-48.790804	0.000476	4.764718	1.614330	-0.000191
1236	1.2288e+02	-9.2019	-49.016884	0.000568	5.677111	1.923457	-0.000227
1237	1.2298e+02	-9.2356	-49.255075	0.000598	5.981242	2.026500	-0.000239
1238	1.2308e+02	-9.2869	-49.501340	0.000618	6.183996	2.095195	-0.000248
1239	1.2318e+02	-9.3190	-49.674937	0.000436	4.359210	1.476940	-0.000174
1240	1.2328e+02	-9.3543	-49.888905	0.000537	5.372980	1.820415	-0.000215
1241	1.2338e+02	-9.4088	-50.114984	0.000568	5.677111	1.923457	-0.000227
1242	1.2348e+02	-9.4409	-50.324916	0.000527	5.271603	1.786067	-0.000211
1243	1.2358e+02	-9.4698	-50.567144	0.000608	6.082619	2.060847	-0.000243
1244	1.2368e+02	-9.5179	-50.777075	0.000527	5.271603	1.786067	-0.000211
1245	1.2378e+02	-9.5580	-51.019303	0.000608	6.082619	2.060847	-0.000243
1246	1.2388e+02	-9.5949	-51.217123	0.000497	4.967472	1.683025	-0.000199
1247	1.2398e+02	-9.6398	-51.443202	0.000568	5.677111	1.923457	-0.000227
1248	1.2408e+02	-9.6719	-51.685430	0.000608	6.082619	2.060847	-0.000243
1249	1.2418e+02	-9.7136	-51.875176	0.000476	4.764718	1.614330	-0.000191
1250	1.2428e+02	-9.7634	-52.081070	0.000517	5.170226	1.751720	-0.000207
1251	1.2438e+02	-9.8003	-52.319261	0.000598	5.981242	2.026500	-0.000239
1252	1.2447e+02	-9.8356	-52.557452	0.000598	5.981242	2.026500	-0.000239
1253	1.2457e+02	-9.8773	-52.775457	0.000547	5.474357	1.854762	-0.000219
1254	1.2467e+02	-9.9238	-52.957128	0.000456	4.561964	1.545635	-0.000183
1255	1.2477e+02	-9.9559	-53.163022	0.000517	5.170226	1.751720	-0.000207
1256	1.2487e+02	-9.9863	-53.401213	0.000598	5.981242	2.026500	-0.000239
1257	1.2497e+02	-10.0377	-53.627293	0.000568	5.677111	1.923457	-0.000227
1258	1.2507e+02	-10.0810	-53.885669	0.000649	6.488127	2.198237	-0.000260
1259	1.2517e+02	-10.1131	-54.075415	0.000476	4.764718	1.614330	-0.000191
1260	1.2527e+02	-10.1660	-54.261123	0.000466	4.663341	1.579983	-0.000187
1261	1.2537e+02	-10.1901	-54.491240	0.000578	5.778488	1.957805	-0.000231
1262	1.2547e+02	-10.2366	-54.753653	0.000659	6.589504	2.232584	-0.000264
1263	1.2557e+02	-10.2735	-54.963585	0.000527	5.271603	1.786067	-0.000211
1264	1.2567e+02	-10.3168	-55.201776	0.000598	5.981242	2.026500	-0.000239
1265	1.2577e+02	-10.3489	-55.387484	0.000466	4.663341	1.579983	-0.000187
1266	1.2587e+02	-10.3938	-55.597415	0.000527	5.271603	1.786067	-0.000211
1267	1.2597e+02	-10.4387	-55.819457	0.000558	5.575734	1.889110	-0.000223
1268	1.2607e+02	-10.4692	-55.989017	0.000426	4.257833	1.442593	-0.000170
1269	1.2617e+02	-10.5141	-56.215097	0.000568	5.677111	1.923457	-0.000227
1270	1.2627e+02	-10.5462	-56.477510	0.000659	6.589504	2.232584	-0.000264
1271	1.2636e+02	-10.5927	-56.679367	0.000507	5.068849	1.717373	-0.000203
1272	1.2646e+02	-10.6280	-56.869113	0.000476	4.764718	1.614330	-0.000191
1273	1.2656e+02	-10.6714	-57.151712	0.000710	7.096389	2.404322	-0.000284
1274	1.2666e+02	-10.7147	-57.345495	0.000487	4.866095	1.648678	-0.000195
1275	1.2676e+02	-10.7564	-57.519091	0.000436	4.359210	1.476940	-0.000174
1276	1.2686e+02	-10.7885	-57.765357	0.000618	6.183996	2.095195	-0.000248
1277	1.2696e+02	-10.8318	-57.959139	0.000487	4.866095	1.648678	-0.000195
1278	1.2706e+02	-10.8639	-58.213479	0.000639	6.386750	2.163889	-0.000256
1279	1.2716e+02	-10.9120	-58.395150	0.000456	4.561964	1.545635	-0.000183
1280	1.2726e+02	-10.9457	-58.592970	0.000497	4.967472	1.683025	-0.000199
1281	1.2736e+02	-10.9890	-58.871532	0.000700	6.995012	2.369974	-0.000280
1282	1.2746e+02	-11.0323	-59.024943	0.000385	3.852325	1.305203	-0.000154
1283	1.2756e+02	-11.0756	-59.251023	0.000568	5.677111	1.923457	-0.000227
1284	1.2766e+02	-11.1077	-59.485177	0.000588	5.879865	1.992152	-0.000235
1285	1.2776e+02	-11.1574	-59.654736	0.000426	4.257833	1.442593	-0.000170
1286	1.2786e+02	-11.1927	-59.876779	0.000558	5.575734	1.889110	-0.000223
1287	1.2796e+02	-11.2328	-60.110933	0.000588	5.879865	1.992152	-0.000235
1288	1.2806e+02	-11.2617	-60.328938	0.000547	5.474357	1.854762	-0.000219
1289	1.2816e+02	-11.3130	-60.550980	0.000558	5.575734	1.889110	-0.000223
1290	1.2826e+02	-11.3596	-60.736689	0.000466	4.663341	1.579983	-0.000187
1291	1.2835e+02	-11.3949	-60.978917	0.000608	6.082619	2.060847	-0.000243
1292	1.2845e+02	-11.4318	-61.192885	0.000537	5.372980	1.820415	-0.000215
1293	1.2855e+02	-11.4703	-61.402816	0.000527	5.271603	1.786067	-0.000211
1294	1.2865e+02	-11.5200	-61.608710	0.000517	5.170226	1.751720	-0.000207
1295	1.2875e+02	-11.5569	-61.802492	0.000487	4.866095	1.648678	-0.000195
1296	1.2885e+02	-11.5906	-62.032609	0.000578	5.778488	1.957805	-0.000231
1297	1.2895e+02	-11.6275	-62.234466	0.000507	5.068849	1.717373	-0.000203
1298	1.2905e+02	-11.6660	-62.496880	0.000659	6.589504	2.232584	-0.000264
1299	1.2915e+02	-11.7173	-62.698737	0.000507	5.068849	1.717373	-0.000203
1300	1.2925e+02	-11.7494	-62.876371	0.000446	4.460587	1.511288	-0.000179
1301	1.2935e+02	-11.7863	-63.142822	0.000669	6.690881	2.266932	-0.000268
1302	1.2945e+02	-11.8232	-63.328530	0.000466	4.663341	1.579983	-0.000187
1303	1.2955e+02	-11.8681	-63.530387	0.000507	5.068849	1.717373	-0.000203
1304	1.2965e+02	-11.9114	-63.808949	0.000700	6.995012	2.369974	-0.000280
1305	1.2975e+02	-11.9403	-63.982546	0.000436	4.359210	1.476940	-0.000174
1306	1.2985e+02	-11.9916	-64.192477	0.000527	5.271603	1.786067	-0.000211
1307	1.2995e+02	-12.0301	-64.418556	0.000568	5.677111	1.923457	-0.000227
1308	1.3005e+02	-12.0686	-64.624450	0.000517	5.170226	1.751720	-0.000207
1309	1.3015e+02	-12.1087	-64.818233	0.000487	4.866095	1.648678	-0.000195
1310	1.3025e+02	-12.1553	-65.068535	0.000629	6.285373	2.129542	-0.000252
1311	1.3034e+02	-12.1906	-65.274429	0.000517	5.170226	1.751720	-0.000207
1312	1.3044e+02	-12.2243	-65.468212	0.000487	4.866095	1.648678	-0.000195
1313	1.3054e+02	-12.2644	-65.702366	0.000588	5.879865	1.992152	-0.000235
1314	1.3064e+02	-12.3061	-65.880000	0.000446	4.460587	1.511288	-0.000179
1315	1.3074e+02	-12.3430	-66.102042	0.000558	5.575734	1.889110	-0.000223
1316	1.3084e+02	-12.3959	-66.295825	0.000487	4.866095	1.648678	-0.000195
1317	1.3094e+02	-12.4232	-66.546127	0.000629	6.285373	2.129542	-0.000252
1318	1.3104e+02	-12.4713	-66.739909	0.000487	4.866095	1.648678	-0.000195
1319	1.3114e+02	-12.4954	-66.945803	0.000517	5.170226	1.751720	-0.000207
1320	1.3124e+02	-12.5467	-67.175920	0.000578	5.778488	1.957805	-0.000231
1321	1.3134e+02	-12.5868	-67.381814	0.000517	5.170226	1.751720	-0.000207
1322	1.3144e+02	-12.6221	-67.571559	0.000476	4.764718	1.614330	-0.000191
1323	1.3154e+02	-12.6783	-67.813788	0.000608	6.082619	2.060847	-0.000243
1324	1.3164e+02	-12.6975	-68.019681	0.000517	5.170226	1.751720	-0.000207
1325	1.3174e+02	-12.7392	-68.237687	0.000547	5.474357	1.854762	-0.000219
1326	1.3184e+02	-12.7889	-68.451655	0.000537	5.372980	1.820415	-0.000215
1327	1.3194e+02	-12.8242	-68.625252	0.000436	4.359210	1.476940	-0.000174
1328	1.3204e+02	-12.8643	-68.863443	0.000598	5.981242	2.026500	-0.000239
1329	1.3214e+02	-12.8948	-69.045114	0.000456	4.561964	1.545635	-0.000183
1330	1.3224e+02	-12.9397	-69.251008	0.000517	5.170226	1.751720	-0.000207
1331	1.3234e+02	-12.9831	-69.460939	0.000527	5.271603	1.786067	-0.000211
1332	1.3243e+02	-13.0280	-69.658759	0.000497	4.967472	1.683025	-0.000199
1333	1.3253e+02	-13.0633	-69.900987	0.000608	6.082619	2.060847	-0.000243
1334	1.3263e+02	-13.1034	-70.082658	0.000456	4.561964	1.545635	-0.000183
1335	1.3273e+02	-13.1419	-70.308737	0.000568	5.677111	1.923457	-0.000227
1336	1.3283e+02	-13.1756	-70.494446	0.000466	4.663341	1.579983	-0.000187
1337	1.3293e+02	-13.2269	-70.716488	0.000558	5.575734	1.889110	-0.000223
1338	1.3303e+02	-13.2622	-70.974865	0.000649	6.488127	2.198237	-0.000260
1339	1.3313e+02	-13.3071	-71.144425	0.000426	4.257833	1.442593	-0.000170
1340	1.3323e+02	-13.3360	-71.390690	0.000618	6.183996	2.095195	-0.000248
1341	1.3333e+02	-13.3761	-71.556212	0.000416	4.156456	1.408246	-0.000166
1342	1.3343e+02	-13.4242	-71.737883	0.000456	4.561964	1.545635	-0.000183
1343	1.3353e+02	-13.4627	-71.984149	0.000618	6.183996	2.095195	-0.000248
1344	1.3363e+02	-13.4948	-72.157746	0.000436	4.359210	1.476940	-0.000174
1345	1.3373e+02	-13.5445	-72.383825	0.000568	5.677111	1.923457	-0.000227
1346	1.3383e+02	-13.5766	-72.513014	0.000324	3.244063	1.099118	-0.000130
1347	1.3393e+02	-13.6231	-72.803687	0.000730	7.299143	2.473016	-0.000292
1348	1.3403e+02	-13.6616	-72.993433	0.000476	4.764718	1.614330	-0.000191
1349	1.3413e+02	-13.7098	-73.211438	0.000547	5.474357	1.854762	-0.000219
1350	1.3423e+02	-13.7338	-73.397146	0.000466	4.663341	1.579983	-0.000187
1351	1.3432e+02	-13.7836	-73.647449	0.000629	6.285373	2.129542	-0.000252
1352	1.3442e+02	-13.8173	-73.800860	0.000385	3.852325	1.305203	-0.000154
1353	1.3452e+02	-13.8590	-74.039051	0.000598	5.981242	2.026500	-0.000239
1354	1.3462e+02	-13.8862	-74.244945	0.000517	5.170226	1.751720	-0.000207
1355	1.3472e+02	-13.9440	-74.450839	0.000517	5.170226	1.751720	-0.000207
1356	1.3482e+02	-13.9873	-74.664807	0.000537	5.372980	1.820415	-0.000215
1357	1.3492e+02	-14.0130	-74.890887	0.000568	5.677111	1.923457	-0.000227
1358	1.3502e+02	-14.0643	-75.072558	0.000456	4.561964	1.545635	-0.000183
1359	1.3512e+02	-14.1044	-75.278452	0.000517	5.170226	1.751720	-0.000207
1360	1.3522e+02	-14.1317	-75.460123	0.000456	4.561964	1.545635	-0.000183
1361	1.3532e+02	-14.1734	-75.714462	0.000639	6.386750	2.163889	-0.000256
1362	1.3542e+02	-14.2135	-75.912282	0.000497	4.967472	1.683025	-0.000199
1363	1.3552e+02	-14.2600	-76.085879	0.000436	4.359210	1.476940	-0.000174
1364	1.3562e+02	-14.2985	-76.324070	0.000598	5.981242	2.026500	-0.000239
1365	1.3572e+02	-14.3338	-76.529964	0.000517	5.170226	1.751720	-0.000207
1366	1.3582e+02	-14.3739	-76.723746	0.000487	4.866095	1.648678	-0.000195
1367	1.3592e+02	-14.4124	-76.917529	0.000487	4.866095	1.648678	-0.000195
1368	1.3602e+02	-14.4541	-77.111311	0.000487	4.866095	1.648678	-0.000195
1369	1.3612e+02	-14.4975	-77.341428	0.000578	5.778488	1.957805	-0.000231
1370	1.3622e+02	-14.5456	-77.563470	0.000558	5.575734	1.889110	-0.000223
1371	1.3631e+02	-14.5793	-77.724956	0.000406	4.055079	1.373898	-0.000162
1372	1.3641e+02	-14.6162	-77.942961	0.000547	5.474357	1.854762	-0.000219
1373	1.3651e+02	-14.6579	-78.156929	0.000537	5.372980	1.820415	-0.000215
1374	1.3661e+02	-14.6996	-78.338600	0.000456	4.561964	1.545635	-0.000183
1375	1.3671e+02	-14.7365	-78.568717	0.000578	5.778488	1.957805	-0.000231
1376	1.3681e+02	-14.7734	-78.778648	0.000527	5.271603	1.786067	-0.000211
1377	1.3691e+02	-14.8071	-78.948208	0.000426	4.257833	1.442593	-0.000170
1378	1.3701e+02	-14.8536	-79.178325	0.000578	5.778488	1.957805	-0.000231
1379	1.3711e+02	-14.8905	-79.323662	0.000365	3.649571	1.236508	-0.000146
1380	1.3721e+02	-14.9354	-79.549741	0.000568	5.677111	1.923457	-0.000227
1381	1.3731e+02	-14.9835	-79.755635	0.000517	5.170226	1.751720	-0.000207
1382	1.3741e+02	-15.0172	-79.961529	0.000517	5.170226	1.751720	-0.000207
1383	1.3751e+02	-15.0525	-80.167423	0.000517	5.170226	1.751720	-0.000207
1384	1.3761e+02	-15.0942	-80.353131	0.000466	4.663341	1.579983	-0.000187
1385	1.3771e+02	-15.1343	-80.575174	0.000558	5.575734	1.889110	-0.000223
1386	1.3781e+02	-15.1809	-80.789142	0.000537	5.372980	1.820415	-0.000215
1387	1.3791e+02	-15.2242	-80.982924	0.000487	4.866095	1.648678	-0.000195
1388	1.3801e+02	-15.2514	-81.152484	0.000426	4.257833	1.442593	-0.000170
1389	1.3811e+02	-15.3012	-81.354341	0.000507	5.068849	1.717373	-0.000203
1390	1.3821e+02	-15.3381	-81.580420	0.000568	5.677111	1.923457	-0.000227
1391	1.3831e+02	-15.3702	-81.778240	0.000497	4.967472	1.683025	-0.000199
1392	1.3840e+02	-15.4199	-81.988171	0.000527	5.271603	1.786067	-0.000211
1393	1.3850e+02	-15.4488	-82.169842	0.000456	4.561964	1.545635	-0.000183
1394	1.3860e+02	-15.4889	-82.408033	0.000598	5.981242	2.026500	-0.000239
1395	1.3870e+02	-15.5258	-82.565482	0.000395	3.953702	1.339551	-0.000158
1396	1.3880e+02	-15.5787	-82.811747	0.000618	6.183996	2.095195	-0.000248
1397	1.3890e+02	-15.6076	-82.973232	0.000406	4.055079	1.373898	-0.000162
1398	1.3900e+02	-15.6477	-83.191238	0.000547	5.474357	1.854762	-0.000219
1399	1.3910e+02	-15.6942	-83.380983	0.000476	4.764718	1.614330	-0.000191
1400	1.3920e+02	-15.7327	-83.594951	0.000537	5.372980	1.820415	-0.000215
1401	1.3930e+02	-15.7760	-83.816994	0.000558	5.575734	1.889110	-0.000223
1402	1.3940e+02	-15.8177	-84.018850	0.000507	5.068849	1.717373	-0.000203
1403	1.3950e+02	-15.8498	-84.204559	0.000466	4.663341	1.579983	-0.000187
1404	1.3960e+02	-15.9060	-84.454861	0.000629	6.285373	2.129542	-0.000252
1405	1.3970e+02	-15.9364	-84.668829	0.000537	5.372980	1.820415	-0.000215
1406	1.3980e+02	-15.9685	-84.810129	0.000355	3.548194	1.202161	-0.000142
1407	1.3990e+02	-16.0183	-85.068506	0.000649	6.488127	2.198237	-0.000260
1408	1.4000e+02	-16.0487	-85.282474	0.000537	5.372980	1.820415	-0.000215
1409	1.4010e+02	-16.0937	-85.460108	0.000446	4.460587	1.511288	-0.000179
1410	1.4020e+02	-16.1306	-85.645816	0.000466	4.663341	1.579983	-0.000187
1411	1.4029e+02	-16.1642	-85.924378	0.000700	6.995012	2.369974	-0.000280
1412	1.4039e+02	-16.2076	-86.102012	0.000446	4.460587	1.511288	-0.000179
1413	1.4049e+02	-16.2477	-86.328092	0.000568	5.677111	1.923457	-0.000227
1414	1.4059e+02	-16.2942	-86.558209	0.000578	5.778488	1.957805	-0.000231
1415	1.4069e+02	-16.3343	-86.764103	0.000517	5.170226	1.751720	-0.000207
1416	1.4079e+02	-16.3744	-86.978071	0.000537	5.372980	1.820415	-0.000215
1417	1.4089e+02	-16.4017	-87.159742	0.000456	4.561964	1.545635	-0.000183
1418	1.4099e+02	-16.4450	-87.434267	0.000689	6.893635	2.335627	-0.000276
1419	1.4109e+02	-16.4883	-87.595753	0.000406	4.055079	1.373898	-0.000162
1420	1.4119e+02	-16.5252	-87.817795	0.000558	5.575734	1.889110	-0.000223
1421	1.4129e+02	-16.5701	-88.076172	0.000649	6.488127	2.198237	-0.000260
1422	1.4139e+02	-16.6118	-88.310326	0.000588	5.879865	1.992152	-0.000235
1423	1.4149e+02	-16.6471	-88.487960	0.000446	4.460587	1.511288	-0.000179
1424	1.4159e+02	-16.6856	-88.726151	0.000598	5.981242	2.026500	-0.000239
1425	1.4169e+02	-16.7289	-88.928007	0.000507	5.068849	1.717373	-0.000203
1426	1.4179e+02	-16.7690	-89.178310	0.000629	6.285373	2.129542	-0.000252
1427	1.4189e+02	-16.8172	-89.400352	0.000558	5.575734	1.889110	-0.000223
1428	1.4199e+02	-16.8396	-89.650655	0.000629	6.285373	2.129542	-0.000252
1429	1.4209e+02	-16.8910	-89.900957	0.000629	6.285373	2.129542	-0.000252
1430	1.4219e+02	-16.9247	-90.086665	0.000466	4.663341	1.579983	-0.000187
1431	1.4228e+02	-16.9712	-90.353116	0.000669	6.690881	2.266932	-0.000268
1432	1.4238e+02	-17.0129	-90.546899	0.000487	4.866095	1.648678	-0.000195
1433	1.4248e+02	-17.0514	-90.793164	0.000618	6.183996	2.095195	-0.000248
1434	1.4258e+02	-17.0867	-91.015207	0.000558	5.575734	1.889110	-0.000223
1435	1.4268e+02	-17.1348	-91.204952	0.000476	4.764718	1.614330	-0.000191
1436	1.4278e+02	-17.1605	-91.503700	0.000750	7.501897	2.541711	-0.000300
1437	1.4288e+02	-17.1942	-91.693445	0.000476	4.764718	1.614330	-0.000191
1438	1.4298e+02	-17.2439	-91.992193	0.000750	7.501897	2.541711	-0.000300
1439	1.4308e+02	-17.2920	-92.242496	0.000629	6.285373	2.129542	-0.000252
1440	1.4318e+02	-17.3209	-92.460501	0.000547	5.474357	1.854762	-0.000219
1441	1.4328e+02	-17.3674	-92.706767	0.000618	6.183996	2.095195	-0.000248
1442	1.4338e+02	-17.4123	-92.908623	0.000507	5.068849	1.717373	-0.000203
1443	1.4348e+02	-17.4492	-93.211408	0.000760	7.603274	2.576059	-0.000304
1444	1.4358e+02	-17.4877	-93.429414	0.000547	5.474357	1.854762	-0.000219
1445	1.4368e+02	-17.5278	-93.651456	0.000558	5.575734	1.889110	-0.000223
1446	1.4378e+02	-17.5631	-93.938093	0.000720	7.197766	2.438669	-0.000288
1447	1.4388e+02	-17.6161	-94.232804	0.000740	7.400520	2.507364	-0.000296
1448	1.4398e+02	-17.6401	-94.438698	0.000517	5.170226	1.751720	-0.000207
1449	1.4408e+02	-17.6883	-94.697074	0.000649	6.488127	2.198237	-0.000260
1450	1.4418e+02	-17.7171	-94.991785	0.000740	7.400520	2.507364	-0.000296
1451	1.4428e+02	-17.7637	-95.234013	0.000608	6.082619	2.060847	-0.000243
1452	1.4437e+02	-17.8118	-95.516613	0.000710	7.096389	2.404322	-0.000284
1453	1.4447e+02	-17.8455	-95.774990	0.000649	6.488127	2.198237	-0.000260
1454	1.4457e+02	-17.8840	-95.997032	0.000558	5.575734	1.889110	-0.000223
1455	1.4467e+02	-17.9097	-96.291743	0.000740	7.400520	2.507364	-0.000296
1456	1.4477e+02	-17.9690	-96.546083	0.000639	6.386750	2.163889	-0.000256
1457	1.4487e+02	-17.9979	-96.881165	0.000841	8.414290	2.850838	-0.000337
1458	1.4497e+02	-18.0476	-97.095133	0.000537	5.372980	1.820415	-0.000215
1459	1.4507e+02	-18.0797	-97.401955	0.000770	7.704651	2.610406	-0.000308
1460	1.4517e+02	-18.1262	-97.664369	0.000659	6.589504	2.232584	-0.000264
1461	1.4527e+02	-18.1711	-97.979266	0.000791	7.907405	2.679101	-0.000316
1462	1.4537e+02	-18.2000	-98.249754	0.000679	6.792258	2.301279	-0.000272
1463	1.4547e+02	-18.2514	-98.540428	0.000730	7.299143	2.473016	-0.000292
1464	1.4557e+02	-18.2818	-98.839176	0.000750	7.501897	2.541711	-0.000300
1465	1.4567e+02	-18.3284	-99.133887	0.000740	7.400520	2.507364	-0.000296
1466	1.4577e+02	-18.3637	-99.428598	0.000740	7.400520	2.507364	-0.000296
1467	1.4587e+02	-18.4102	-99.759643	0.000831	8.312913	2.816491	-0.000333
1468	1.4597e+02	-18.4423	-100.038205	0.000700	6.995012	2.369974	-0.000280
1469	1.4607e+02	-18.4824	-100.316767	0.000700	6.995012	2.369974	-0.000280
1470	1.4617e+02	-18.5161	-100.655887	0.000852	8.515666	2.885186	-0.000341
1471	1.4626e+02	-18.5642	-100.990969	0.000841	8.414290	2.850838	-0.000337
1472	1.4636e+02	-18.6091	-101.305866	0.000791	7.907405	2.679101	-0.000316
1473	1.4646e+02	-18.6412	-101.584428	0.000700	6.995012	2.369974	-0.000280
1474	1.4656e+02	-18.6877	-101.927585	0.000862	8.617043	2.919533	-0.000345
1475	1.4666e+02	-18.7086	-102.262667	0.000841	8.414290	2.850838	-0.000337
1476	1.4676e+02	-18.7567	-102.561415	0.000750	7.501897	2.541711	-0.000300
1477	1.4686e+02	-18.8096	-102.900534	0.000852	8.515666	2.885186	-0.000341
1478	1.4696e+02	-18.8433	-103.199282	0.000750	7.501897	2.541711	-0.000300
1479	1.4706e+02	-18.8818	-103.590884	0.000983	9.833567	3.331703	-0.000394
1480	1.4716e+02	-18.9283	-103.970375	0.000953	9.529436	3.228660	-0.000381
1481	1.4726e+02	-18.9588	-104.277198	0.000770	7.704651	2.610406	-0.000308
1482	1.4736e+02	-19.0005	-104.563834	0.000720	7.197766	2.438669	-0.000288
1483	1.4746e+02	-19.0358	-104.967548	0.001014	10.137698	3.434745	-0.000406
1484	1.4756e+02	-19.0727	-105.338964	0.000933	9.326682	3.159966	-0.000373
1485	1.4766e+02	-19.1225	-105.649824	0.000781	7.806028	2.644754	-0.000312
1486	1.4776e+02	-19.1545	-106.025277	0.000943	9.428059	3.194313	-0.000377
1487	1.4786e+02	-19.2043	-106.412842	0.000973	9.732190	3.297355	-0.000390
1488	1.4796e+02	-19.2348	-106.751962	0.000852	8.515666	2.885186	-0.000341
1489	1.4806e+02	-19.2765	-107.147601	0.000993	9.934944	3.366050	-0.000398
1490	1.4816e+02	-19.3118	-107.478646	0.000831	8.312913	2.816491	-0.000333
1491	1.4825e+02	-19.3599	-107.906583	0.001075	10.745960	3.640830	-0.000430
1492	1.4835e+02	-19.3952	-108.290110	0.000963	9.630813	3.263008	-0.000385
1493	1.4845e+02	-19.4353	-108.677675	0.000973	9.732190	3.297355	-0.000390
1494	1.4855e+02	-19.4802	-109.045055	0.000923	9.225305	3.125618	-0.000369
1495	1.4865e+02	-19.5155	-109.392249	0.000872	8.718420	2.953881	-0.000349
1496	1.4875e+02	-19.5620	-109.860556	0.001176	11.759730	3.984304	-0.000471
1497	1.4885e+02	-19.5893	-110.304641	0.001115	11.151468	3.778220	-0.000446
1498	1.4895e+02	-19.6390	-110.684132	0.000953	9.529436	3.228660	-0.000381
1499	1.4905e+02	-19.6759	-111.136291	0.001135	11.354222	3.846915	-0.000454
1500	1.4915e+02	-19.7080	-111.564228	0.001075	10.745960	3.640830	-0.000430
1501	1.4925e+02	-19.7561	-111.951793	0.000973	9.732190	3.297355	-0.000390
1502	1.4935e+02	-19.7946	-112.387803	0.001095	10.948714	3.709525	-0.000438
1503	1.4945e+02	-19.8331	-112.839962	0.001135	11.354222	3.846915	-0.000454
1504	1.4955e+02	-19.8780	-113.300196	0.001156	11.556976	3.915609	-0.000463
1505	1.4965e+02	-19.9230	-113.736207	0.001095	10.948714	3.709525	-0.000438
1506	1.4975e+02	-19.9518	-114.180292	0.001115	11.151468	3.778220	-0.000446
1507	1.4985e+02	-19.9952	-114.608228	0.001075	10.745960	3.640830	-0.000430
1508	1.4995e+02	-19.9599	-114.814122	-0.000517	-5.170226	-1.751720	-0.000207
1509	1.5005e+02	-19.9182	-114.975607	-0.000406	-4.055079	-1.373898	-0.000162
1510	1.5015e+02	-19.8732	-115.092684	-0.000294	-2.939932	-0.996076	-0.000118
1511	1.5025e+02	-19.8395	-115.161315	-0.000172	-1.723409	-0.583907	-0.000069
1512	1.5034e+02	-19.7914	-115.310690	-0.000375	-3.750948	-1.270856	-0.000150
1513	1.5044e+02	-19.7513	-115.451989	-0.000355	-3.548194	-1.202161	-0.000142
1514	1.5054e+02	-19.7144	-115.484286	-0.000081	-0.811016	-0.274780	-0.000032
1515	1.5064e+02	-19.6839	-115.573103	-0.000223	-2.230294	-0.755644	-0.000089
1516	1.5074e+02	-19.6342	-115.665957	-0.000233	-2.331671	-0.789991	-0.000093
1517	1.5084e+02	-19.5973	-115.706329	-0.000101	-1.013770	-0.343475	-0.000041
1518	1.5094e+02	-19.5572	-115.718440	-0.000030	-0.304131	-0.103042	-0.000012
1519	1.5104e+02	-19.5107	-115.795146	-0.000193	-1.926163	-0.652602	-0.000077
1520	1.5114e+02	-19.4786	-115.819369	-0.000061	-0.608262	-0.206085	-0.000024
1521	1.5124e+02	-19.4321	-115.855703	-0.000091	-0.912393	-0.309127	-0.000037
1522	1.5134e+02	-19.3968	-115.863777	-0.000020	-0.202754	-0.068695	-0.000008
1523	1.5144e+02	-19.3599	-115.883963	-0.000051	-0.506885	-0.171737	-0.000020
1524	1.5154e+02	-19.3262	-115.900111	-0.000041	-0.405508	-0.137390	-0.000016
1525	1.5164e+02	-19.2781	-115.883963	0.000041	0.405508	0.137390	0.000016
1526	1.5174e+02	-19.2428	-115.916260	-0.000081	-0.811016	-0.274780	-0.000032
1527	1.5184e+02	-19.1995	-115.888000	0.000071	0.709639	0.240432	0.000028
1528	1.5194e+02	-19.1626	-115.863777	0.000061	0.608262	0.206085	0.000024
1529	1.5204e+02	-19.1241	-115.851666	0.000030	0.304131	0.103042	0.000012
1530	1.5214e+02	-19.0679	-115.851666	0.000000	0.000000	0.000000	0.000000
1531	1.5224e+02	-19.0455	-115.819369	0.000081	0.811016	0.274780	0.000032
1532	1.5233e+02	-18.9989	-115.819369	0.000000	0.000000	0.000000	0.000000
1533	1.5243e+02	-18.9588	-115.742663	0.000193	1.926163	0.652602	0.000077
1534	1.5253e+02	-18.9332	-115.690180	0.000132	1.317901	0.446517	0.000053
1535	1.5263e+02	-18.8850	-115.589252	0.000253	2.534425	0.858686	0.000101
1536	1.5273e+02	-18.8449	-115.548881	0.000101	1.013770	0.343475	0.000041
1537	1.5283e+02	-18.8048	-115.520621	0.000071	0.709639	0.240432	0.000028
1538	1.5293e+02	-18.7711	-115.472175	0.000122	1.216524	0.412169	0.000049
1539	1.5303e+02	-18.7214	-115.375284	0.000243	2.433048	0.824339	0.000097
1540	1.5313e+02	-18.6845	-115.342987	0.000081	0.811016	0.274780	0.000032
1541	1.5323e+02	-18.6396	-115.242058	0.000253	2.534425	0.858686	0.000101
1542	1.5333e+02	-18.6059	-115.213798	0.000071	0.709639	0.240432	0.000028
1543	1.5343e+02	-18.5674	-115.092684	0.000304	3.041309	1.030424	0.000122
1544	1.5353e+02	-18.5257	-115.015979	0.000193	1.926163	0.652602	0.000077
1545	1.5363e+02	-18.4824	-114.943310	0.000182	1.824786	0.618254	0.000073
1546	1.5373e+02	-18.4423	-114.797973	0.000365	3.649571	1.236508	0.000146
1547	1.5383e+02	-18.4118	-114.769713	0.000071	0.709639	0.240432	0.000028
1548	1.5393e+02	-18.3604	-114.676859	0.000233	2.331671	0.789991	0.000093
1549	1.5403e+02	-18.3300	-114.547671	0.000324	3.244063	1.099118	0.000130
1550	1.5413e+02	-18.2899	-114.475002	0.000182	1.824786	0.618254	0.000073
1551	1.5422e+02	-18.2433	-114.349851	0.000314	3.142686	1.064771	0.000126
1552	1.5432e+02	-18.2016	-114.248923	0.000253	2.534425	0.858686	0.000101
1553	1.5442e+02	-18.1615	-114.139920	0.000274	2.737179	0.927381	0.000110
1554	1.5452e+02	-18.1310	-114.030917	0.000274	2.737179	0.927381	0.000110
1555	1.5462e+02	-18.0877	-113.974398	0.000142	1.419278	0.480864	0.000057
1556	1.5472e+02	-18.0492	-113.881543	0.000233	2.331671	0.789991	0.000093
1557	1.5482e+02	-18.0011	-113.720058	0.000406	4.055079	1.373898	0.000162
1558	1.5492e+02	-17.9530	-113.590870	0.000324	3.244063	1.099118	0.000130
1559	1.5502e+02	-17.9241	-113.437459	0.000385	3.852325	1.305203	0.000154
1560	1.5512e+02	-17.8744	-113.356716	0.000203	2.027540	0.686949	0.000081
1561	1.5522e+02	-17.8375	-113.255787	0.000253	2.534425	0.858686	0.000101
1562	1.5532e+02	-17.8038	-113.138710	0.000294	2.939932	0.996076	0.000118
1563	1.5542e+02	-17.7653	-112.997411	0.000355	3.548194	1.202161	0.000142
1564	1.5552e+02	-17.7236	-112.864185	0.000335	3.345440	1.133466	0.000134
1565	1.5562e+02	-17.6835	-112.775368	0.000223	2.230294	0.755644	0.000089
1566	1.5572e+02	-17.6401	-112.658291	0.000294	2.939932	0.996076	0.000118
1567	1.5582e+02	-17.6081	-112.492769	0.000416	4.156456	1.408246	0.000166
1568	1.5592e+02	-17.5696	-112.375692	0.000294	2.939932	0.996076	0.000118
1569	1.5602e+02	-17.5327	-112.278801	0.000243	2.433048	0.824339	0.000097
1570	1.5612e+02	-17.4877	-112.101167	0.000446	4.460587	1.511288	0.000179
1571	1.5622e+02	-17.4508	-111.980053	0.000304	3.041309	1.030424	0.000122
1572	1.5631e+02	-17.4075	-111.826641	0.000385	3.852325	1.305203	0.000154
1573	1.5641e+02	-17.3722	-111.697453	0.000324	3.244063	1.099118	0.000130
1574	1.5651e+02	-17.3305	-111.540005	0.000395	3.953702	1.339551	0.000158
1575	1.5661e+02	-17.2856	-111.455225	0.000213	2.128917	0.721296	0.000085
1576	1.5671e+02	-17.2391	-111.309888	0.000365	3.649571	1.236508	0.000146
1577	1.5681e+02	-17.2102	-111.152440	0.000395	3.953702	1.339551	0.000158
1578	1.5691e+02	-17.1621	-111.063623	0.000223	2.230294	0.755644	0.000089
1579	1.5701e+02	-17.1204	-110.894063	0.000426	4.257833	1.442593	0.000170
1580	1.5711e+02	-17.0851	-110.768912	0.000314	3.142686	1.064771	0.000126
1581	1.5721e+02	-17.0353	-110.623575	0.000365	3.649571	1.236508	0.000146
1582	1.5731e+02	-17.0065	-110.445941	0.000446	4.460587	1.511288	0.000179
1583	1.5741e+02	-16.9632	-110.320790	0.000314	3.142686	1.064771	0.000126
1584	1.5751e+02	-16.9263	-110.179490	0.000355	3.548194	1.202161	0.000142
1585	1.5761e+02	-16.8878	-110.018005	0.000406	4.055079	1.373898	0.000162
1586	1.5771e+02	-16.8460	-109.860556	0.000395	3.953702	1.339551	0.000158
1587	1.5781e+02	-16.8124	-109.743479	0.000294	2.939932	0.996076	0.000118
1588	1.5791e+02	-16.7755	-109.602180	0.000355	3.548194	1.202161	0.000142
1589	1.5801e+02	-16.7273	-109.497214	0.000264	2.635802	0.893034	0.000105
1590	1.5811e+02	-16.6888	-109.303432	0.000487	4.866095	1.648678	0.000195
1591	1.5821e+02	-16.6423	-109.129835	0.000436	4.359210	1.476940	0.000174
1592	1.5830e+02	-16.6150	-109.004683	0.000314	3.142686	1.064771	0.000126
1593	1.5840e+02	-16.5701	-108.835124	0.000426	4.257833	1.442593	0.000170
1594	1.5850e+02	-16.5236	-108.677675	0.000395	3.953702	1.339551	0.000158
1595	1.5860e+02	-16.4947	-108.532339	0.000365	3.649571	1.236508	0.000146
1596	1.5870e+02	-16.4594	-108.427373	0.000264	2.635802	0.893034	0.000105
1597	1.5880e+02	-16.4113	-108.257813	0.000426	4.257833	1.442593	0.000170
1598	1.5890e+02	-16.3728	-108.104402	0.000385	3.852325	1.305203	0.000154
1599	1.5900e+02	-16.3215	-107.938880	0.000416	4.156456	1.408246	0.000166
1600	1.5910e+02	-16.2830	-107.797580	0.000355	3.548194	1.202161	0.000142
1601	1.5920e+02	-16.2541	-107.640132	0.000395	3.953702	1.339551	0.000158
1602	1.5930e+02	-16.2140	-107.498832	0.000355	3.548194	1.202161	0.000142
1603	1.5940e+02	-16.1691	-107.321198	0.000446	4.460587	1.511288	0.000179
1604	1.5950e+02	-16.1402	-107.187972	0.000335	3.345440	1.133466	0.000134
1605	1.5960e+02	-16.0921	-107.006301	0.000456	4.561964	1.545635	0.000183
1606	1.5970e+02	-16.0503	-106.885187	0.000304	3.041309	1.030424	0.000122
1607	1.5980e+02	-16.0151	-106.695442	0.000476	4.764718	1.614330	0.000191
1608	1.5990e+02	-15.9669	-106.550105	0.000365	3.649571	1.236508	0.000146
1609	1.6000e+02	-15.9332	-106.424954	0.000314	3.142686	1.064771	0.000126
1610	1.6010e+02	-15.8867	-106.239246	0.000466	4.663341	1.579983	0.000187
1611	1.6019e+02	-15.8546	-106.041426	0.000497	4.967472	1.683025	0.000199
1612	1.6029e+02	-15.8081	-105.932423	0.000274	2.737179	0.927381	0.000110
1613	1.6039e+02	-15.7744	-105.738641	0.000487	4.866095	1.648678	0.000195
1614	1.6049e+02	-15.7343	-105.605415	0.000335	3.345440	1.133466	0.000134
1615	1.6059e+02	-15.6846	-105.464115	0.000355	3.548194	1.202161	0.000142
1616	1.6069e+02	-15.6493	-105.278407	0.000466	4.663341	1.579983	0.000187
1617	1.6079e+02	-15.6108	-105.124996	0.000385	3.852325	1.305203	0.000154
1618	1.6089e+02	-15.5659	-104.975622	0.000375	3.750948	1.270856	0.000150
1619	1.6099e+02	-15.5306	-104.789914	0.000466	4.663341	1.579983	0.000187
1620	1.6109e+02	-15.4937	-104.624391	0.000416	4.156456	1.408246	0.000166
1621	1.6119e+02	-15.4600	-104.487129	0.000345	3.446817	1.167813	0.000138
1622	1.6129e+02	-15.4103	-104.309495	0.000446	4.460587	1.511288	0.000179
1623	1.6139e+02	-15.3782	-104.176269	0.000335	3.345440	1.133466	0.000134
1624	1.6149e+02	-15.3429	-104.014784	0.000406	4.055079	1.373898	0.000162
1625	1.6159e+02	-15.2948	-103.808890	0.000517	5.170226	1.751720	0.000207
1626	1.6169e+02	-15.2530	-103.691813	0.000294	2.939932	0.996076	0.000118
1627	1.6179e+02	-15.2129	-103.514179	0.000446	4.460587	1.511288	0.000179
1628	1.6189e+02	-15.1776	-103.348656	0.000416	4.156456	1.408246	0.000166
1629	1.6199e+02	-15.1472	-103.162948	0.000466	4.663341	1.579983	0.000187
1630	1.6209e+02	-15.0942	-103.013574	0.000375	3.750948	1.270856	0.000150
1631	1.6219e+02	-15.0557	-102.872274	0.000355	3.548194	1.202161	0.000142
1632	1.6228e+02	-15.0140	-102.722900	0.000375	3.750948	1.270856	0.000150
1633	1.6238e+02	-14.9675	-102.533155	0.000476	4.764718	1.614330	0.000191
1634	1.6248e+02	-14.9338	-102.387818	0.000365	3.649571	1.236508	0.000146
1635	1.6258e+02	-14.8953	-102.226333	0.000406	4.055079	1.373898	0.000162
1636	1.6268e+02	-14.8472	-102.060810	0.000416	4.156456	1.408246	0.000166
1637	1.6278e+02	-14.8135	-101.899325	0.000406	4.055079	1.373898	0.000162
1638	1.6288e+02	-14.7798	-101.697468	0.000507	5.068849	1.717373	0.000203
1639	1.6298e+02	-14.7349	-101.527908	0.000426	4.257833	1.442593	0.000170
1640	1.6308e+02	-14.7060	-101.406794	0.000304	3.041309	1.030424	0.000122
1641	1.6318e+02	-14.6563	-101.221086	0.000466	4.663341	1.579983	0.000187
1642	1.6328e+02	-14.6162	-101.112083	0.000274	2.737179	0.927381	0.000110
1643	1.6338e+02	-14.5745	-100.934449	0.000446	4.460587	1.511288	0.000179
1644	1.6348e+02	-14.5424	-100.744704	0.000476	4.764718	1.614330	0.000191
1645	1.6358e+02	-14.5055	-100.571107	0.000436	4.359210	1.476940	0.000174
1646	1.6368e+02	-14.4541	-100.401547	0.000426	4.257833	1.442593	0.000170
1647	1.6378e+02	-14.4108	-100.260247	0.000355	3.548194	1.202161	0.000142
1648	1.6388e+02	-14.3707	-100.042242	0.000547	5.474357	1.854762	0.000219
1649	1.6398e+02	-14.3515	-99.953425	0.000223	2.230294	0.755644	0.000089
1650	1.6408e+02	-14.2985	-99.739457	0.000537	5.372980	1.820415	0.000215
1651	1.6418e+02	-14.2568	-99.569897	0.000426	4.257833	1.442593	0.000170
1652	1.6427e+02	-14.2247	-99.404375	0.000416	4.156456	1.408246	0.000166
1653	1.6437e+02	-14.1830	-99.271149	0.000335	3.345440	1.133466	0.000134
1654	1.6447e+02	-14.1429	-99.085441	0.000466	4.663341	1.579983	0.000187
1655	1.6457e+02	-14.1044	-98.919918	0.000416	4.156456	1.408246	0.000166
1656	1.6467e+02	-14.0595	-98.750359	0.000426	4.257833	1.442593	0.000170
1657	1.6477e+02	-14.0306	-98.544465	0.000517	5.170226	1.751720	0.000207
1658	1.6487e+02	-13.9809	-98.391054	0.000385	3.852325	1.305203	0.000154
1659	1.6497e+02	-13.9392	-98.181123	0.000527	5.271603	1.786067	0.000211
1660	1.6507e+02	-13.8991	-98.064046	0.000294	2.939932	0.996076	0.000118
1661	1.6517e+02	-13.8606	-97.886412	0.000446	4.460587	1.511288	0.000179
1662	1.6527e+02	-13.8221	-97.724926	0.000406	4.055079	1.373898	0.000162
1663	1.6537e+02	-13.7755	-97.535181	0.000476	4.764718	1.614330	0.000191
1664	1.6547e+02	-13.7419	-97.377733	0.000395	3.953702	1.339551	0.000158
1665	1.6557e+02	-13.7130	-97.192024	0.000466	4.663341	1.579983	0.000187
1666	1.6567e+02	-13.6697	-97.042650	0.000375	3.750948	1.270856	0.000150
1667	1.6577e+02	-13.6247	-96.865016	0.000446	4.460587	1.511288	0.000179
1668	1.6587e+02	-13.5895	-96.667197	0.000497	4.967472	1.683025	0.000199
1669	1.6597e+02	-13.5494	-96.562231	0.000264	2.635802	0.893034	0.000105
1670	1.6607e+02	-13.4964	-96.311929	0.000629	6.285373	2.129542	0.000252
1671	1.6616e+02	-13.4531	-96.146406	0.000416	4.156456	1.408246	0.000166
1672	1.6626e+02	-13.4194	-95.992995	0.000385	3.852325	1.305203	0.000154
1673	1.6636e+02	-13.3889	-95.831510	0.000406	4.055079	1.373898	0.000162
1674	1.6646e+02	-13.3424	-95.625616	0.000517	5.170226	1.751720	0.000207
1675	1.6656e+02	-13.3007	-95.464130	0.000406	4.055079	1.373898	0.000162
1676	1.6666e+02	-13.2622	-95.266311	0.000497	4.967472	1.683025	0.000199
1677	1.6676e+02	-13.2205	-95.100788	0.000416	4.156456	1.408246	0.000166
1678	1.6686e+02	-13.1804	-94.911043	0.000476	4.764718	1.614330	0.000191
1679	1.6696e+02	-13.1355	-94.753594	0.000395	3.953702	1.339551	0.000158
1680	1.6706e+02	-13.1002	-94.604220	0.000375	3.750948	1.270856	0.000150
1681	1.6716e+02	-13.0713	-94.390252	0.000537	5.372980	1.820415	0.000215
1682	1.6726e+02	-13.0183	-94.236841	0.000385	3.852325	1.305203	0.000154
1683	1.6736e+02	-12.9766	-94.043058	0.000487	4.866095	1.648678	0.000195
1684	1.6746e+02	-12.9430	-93.905796	0.000345	3.446817	1.167813	0.000138
1685	1.6756e+02	-12.8948	-93.720088	0.000466	4.663341	1.579983	0.000187
1686	1.6766e+02	-12.8659	-93.546491	0.000436	4.359210	1.476940	0.000174
1687	1.6776e+02	-12.8178	-93.344634	0.000507	5.068849	1.717373	0.000203
1688	1.6786e+02	-12.7873	-93.171037	0.000436	4.359210	1.476940	0.000174
1689	1.6796e+02	-12.7344	-92.985329	0.000466	4.663341	1.579983	0.000187
1690	1.6806e+02	-12.7087	-92.799621	0.000466	4.663341	1.579983	0.000187
1691	1.6816e+02	-12.6702	-92.630061	0.000426	4.257833	1.442593	0.000170
1692	1.6825e+02	-12.6301	-92.440316	0.000476	4.764718	1.614330	0.000191
1693	1.6835e+02	-12.5804	-92.290942	0.000375	3.750948	1.270856	0.000150
1694	1.6845e+02	-12.5387	-92.093122	0.000497	4.967472	1.683025	0.000199
1695	1.6855e+02	-12.5066	-91.939711	0.000385	3.852325	1.305203	0.000154
1696	1.6865e+02	-12.4617	-91.754002	0.000466	4.663341	1.579983	0.000187
1697	1.6875e+02	-12.4296	-91.592517	0.000406	4.055079	1.373898	0.000162
1698	1.6885e+02	-12.3975	-91.370475	0.000558	5.575734	1.889110	0.000223
1699	1.6895e+02	-12.3446	-91.225138	0.000365	3.649571	1.236508	0.000146
1700	1.6905e+02	-12.3061	-91.047504	0.000446	4.460587	1.511288	0.000179
1701	1.6915e+02	-12.2628	-90.845647	0.000507	5.068849	1.717373	0.000203
1702	1.6925e+02	-12.2259	-90.692236	0.000385	3.852325	1.305203	0.000154
1703	1.6935e+02	-12.1906	-90.486342	0.000517	5.170226	1.751720	0.000207
1704	1.6945e+02	-12.1553	-90.268337	0.000547	5.474357	1.854762	0.000219
1705	1.6955e+02	-12.1087	-90.098777	0.000426	4.257833	1.442593	0.000170
1706	1.6965e+02	-12.0654	-89.937291	0.000406	4.055079	1.373898	0.000162
1707	1.6975e+02	-12.0334	-89.783880	0.000385	3.852325	1.305203	0.000154
1708	1.6985e+02	-11.9884	-89.602209	0.000456	4.561964	1.545635	0.000183
1709	1.6995e+02	-11.9547	-89.400352	0.000507	5.068849	1.717373	0.000203
1710	1.7005e+02	-11.9082	-89.190421	0.000527	5.271603	1.786067	0.000211
1711	1.7015e+02	-11.8713	-89.037010	0.000385	3.852325	1.305203	0.000154
1712	1.7024e+02	-11.8296	-88.802856	0.000588	5.879865	1.992152	0.000235
1713	1.7034e+02	-11.7847	-88.689816	0.000284	2.838555	0.961729	0.000114
1714	1.7044e+02	-11.7446	-88.475848	0.000537	5.372980	1.820415	0.000215
1715	1.7054e+02	-11.7093	-88.298214	0.000446	4.460587	1.511288	0.000179
1716	1.7064e+02	-11.6708	-88.116543	0.000456	4.561964	1.545635	0.000183
1717	1.7074e+02	-11.6227	-87.898538	0.000547	5.474357	1.854762	0.000219
1718	1.7084e+02	-11.5938	-87.684570	0.000537	5.372980	1.820415	0.000215
1719	1.7094e+02	-11.5489	-87.515010	0.000426	4.257833	1.442593	0.000170
1720	1.7104e+02	-11.5104	-87.309116	0.000517	5.170226	1.751720	0.000207
1721	1.7114e+02	-11.4735	-87.167816	0.000355	3.548194	1.202161	0.000142
1722	1.7124e+02	-11.4334	-86.974034	0.000487	4.866095	1.648678	0.000195
1723	1.7134e+02	-11.3933	-86.756028	0.000547	5.474357	1.854762	0.000219
1724	1.7144e+02	-11.3419	-86.562246	0.000487	4.866095	1.648678	0.000195
1725	1.7154e+02	-11.3147	-86.376538	0.000466	4.663341	1.579983	0.000187
1726	1.7164e+02	-11.2649	-86.182755	0.000487	4.866095	1.648678	0.000195
1727	1.7174e+02	-11.2344	-85.964750	0.000547	5.474357	1.854762	0.000219
1728	1.7184e+02	-11.1831	-85.803264	0.000406	4.055079	1.373898	0.000162
1729	1.7194e+02	-11.1494	-85.613519	0.000476	4.764718	1.614330	0.000191
1730	1.7204e+02	-11.1109	-85.411662	0.000507	5.068849	1.717373	0.000203
1731	1.7213e+02	-11.0724	-85.302660	0.000274	2.737179	0.927381	0.000110
1732	1.7223e+02	-11.0259	-85.052357	0.000629	6.285373	2.129542	0.000252
1733	1.7233e+02	-10.9970	-84.818203	0.000588	5.879865	1.992152	0.000235
1734	1.7243e+02	-10.9569	-84.668829	0.000375	3.750948	1.270856	0.000150
1735	1.7253e+02	-10.9120	-84.483121	0.000466	4.663341	1.579983	0.000187
1736	1.7263e+02	-10.8687	-84.273190	0.000527	5.271603	1.786067	0.000211
1737	1.7273e+02	-10.8302	-84.067296	0.000517	5.170226	1.751720	0.000207
1738	1.7283e+02	-10.8013	-83.921959	0.000365	3.649571	1.236508	0.000146
1739	1.7293e+02	-10.7628	-83.732214	0.000476	4.764718	1.614330	0.000191
1740	1.7303e+02	-10.7147	-83.498060	0.000588	5.879865	1.992152	0.000235
1741	1.7313e+02	-10.6762	-83.320426	0.000446	4.460587	1.511288	0.000179
1742	1.7323e+02	-10.6329	-83.142792	0.000446	4.460587	1.511288	0.000179
1743	1.7333e+02	-10.5879	-82.932861	0.000527	5.271603	1.786067	0.000211
1744	1.7343e+02	-10.5462	-82.779450	0.000385	3.852325	1.305203	0.000154
1745	1.7353e+02	-10.5174	-82.577593	0.000507	5.068849	1.717373	0.000203
1746	1.7363e+02	-10.4708	-82.375736	0.000507	5.068849	1.717373	0.000203
1747	1.7373e+02	-10.4275	-82.177917	0.000497	4.967472	1.683025	0.000199
1748	1.7383e+02	-10.3938	-81.980097	0.000497	4.967472	1.683025	0.000199
1749	1.7393e+02	-10.3521	-81.774203	0.000517	5.170226	1.751720	0.000207
1750	1.7403e+02	-10.3104	-81.596569	0.000446	4.460587	1.511288	0.000179
1751	1.7413e+02	-10.2687	-81.398749	0.000497	4.967472	1.683025	0.000199
1752	1.7422e+02	-10.2334	-81.192855	0.000517	5.170226	1.751720	0.000207
1753	1.7432e+02	-10.1869	-81.011184	0.000456	4.561964	1.545635	0.000183
1754	1.7442e+02	-10.1500	-80.789142	0.000558	5.575734	1.889110	0.000223
1755	1.7452e+02	-10.1227	-80.619582	0.000426	4.257833	1.442593	0.000170
1756	1.7462e+02	-10.0730	-80.421762	0.000497	4.967472	1.683025	0.000199
1757	1.7472e+02	-10.0329	-80.223943	0.000497	4.967472	1.683025	0.000199
1758	1.7482e+02	-9.9880	-80.046309	0.000446	4.460587	1.511288	0.000179
1759	1.7492e+02	-9.9511	-79.828304	0.000547	5.474357	1.854762	0.000219
1760	1.7502e+02	-9.9126	-79.650670	0.000446	4.460587	1.511288	0.000179
1761	1.7512e+02	-9.8757	-79.448813	0.000507	5.068849	1.717373	0.000203
1762	1.7522e+02	-9.8291	-79.259067	0.000476	4.764718	1.614330	0.000191
1763	1.7532e+02	-9.7890	-79.085471	0.000436	4.359210	1.476940	0.000174
1764	1.7542e+02	-9.7569	-78.831131	0.000639	6.386750	2.163889	0.000256
1765	1.7552e+02	-9.7168	-78.649460	0.000456	4.561964	1.545635	0.000183
1766	1.7562e+02	-9.6735	-78.467789	0.000456	4.561964	1.545635	0.000183
1767	1.7572e+02	-9.6446	-78.237672	0.000578	5.778488	1.957805	0.000231
1768	1.7582e+02	-9.5997	-78.084261	0.000385	3.852325	1.305203	0.000154
1769	1.7592e+02	-9.5596	-77.890478	0.000487	4.866095	1.648678	0.000195
1770	1.7602e+02	-9.5227	-77.672473	0.000547	5.474357	1.854762	0.000219
1771	1.7612e+02	-9.4778	-77.498876	0.000436	4.359210	1.476940	0.000174
1772	1.7621e+02	-9.4361	-77.288945	0.000527	5.271603	1.786067	0.000211
1773	1.7631e+02	-9.3896	-77.079014	0.000527	5.271603	1.786067	0.000211
1774	1.7641e+02	-9.3607	-76.856972	0.000558	5.575734	1.889110	0.000223
1775	1.7651e+02	-9.3334	-76.667226	0.000476	4.764718	1.614330	0.000191
1776	1.7661e+02	-9.2789	-76.457295	0.000527	5.271603	1.786067	0.000211
1777	1.7671e+02	-9.2388	-76.299847	0.000395	3.953702	1.339551	0.000158
1778	1.7681e+02	-9.1955	-76.097990	0.000507	5.068849	1.717373	0.000203
1779	1.7691e+02	-9.1650	-75.859799	0.000598	5.981242	2.026500	0.000239
1780	1.7701e+02	-9.1153	-75.674091	0.000466	4.663341	1.579983	0.000187
1781	1.7711e+02	-9.0816	-75.504531	0.000426	4.257833	1.442593	0.000170
1782	1.7721e+02	-9.0495	-75.238080	0.000669	6.690881	2.266932	0.000268
1783	1.7731e+02	-8.9933	-75.036223	0.000507	5.068849	1.717373	0.000203
1784	1.7741e+02	-8.9548	-74.850515	0.000466	4.663341	1.579983	0.000187
1785	1.7751e+02	-8.9211	-74.693067	0.000395	3.953702	1.339551	0.000158
1786	1.7761e+02	-8.8858	-74.499284	0.000487	4.866095	1.648678	0.000195
1787	1.7771e+02	-8.8457	-74.236871	0.000659	6.589504	2.232584	0.000264
1788	1.7781e+02	-8.8024	-74.067311	0.000426	4.257833	1.442593	0.000170
1789	1.7791e+02	-8.7623	-73.837194	0.000578	5.778488	1.957805	0.000231
1790	1.7801e+02	-8.7190	-73.667634	0.000426	4.257833	1.442593	0.000170
1791	1.7810e+02	-8.6901	-73.441555	0.000568	5.677111	1.923457	0.000227
1792	1.7820e+02	-8.6356	-73.235661	0.000517	5.170226	1.751720	0.000207
1793	1.7830e+02	-8.6003	-73.049953	0.000466	4.663341	1.579983	0.000187
1794	1.7840e+02	-8.5682	-72.844059	0.000517	5.170226	1.751720	0.000207
1795	1.7850e+02	-8.5217	-72.601831	0.000608	6.082619	2.060847	0.000243
1796	1.7860e+02	-8.4752	-72.408048	0.000487	4.866095	1.648678	0.000195
1797	1.7870e+02	-8.4447	-72.234451	0.000436	4.359210	1.476940	0.000174
1798	1.7880e+02	-8.4142	-72.028557	0.000517	5.170226	1.751720	0.000207
1799	1.7890e+02	-8.3629	-71.838812	0.000476	4.764718	1.614330	0.000191
1800	1.7900e+02	-8.3244	-71.645029	0.000487	4.866095	1.648678	0.000195
1801	1.7910e+02	-8.2746	-71.410876	0.000588	5.879865	1.992152	0.000235
1802	1.7920e+02	-8.2345	-71.221130	0.000476	4.764718	1.614330	0.000191
1803	1.7930e+02	-8.2024	-71.023310	0.000497	4.967472	1.683025	0.000199
1804	1.7940e+02	-8.1639	-70.793194	0.000578	5.778488	1.957805	0.000231
1805	1.7950e+02	-8.1254	-70.643820	0.000375	3.750948	1.270856	0.000150
1806	1.7960e+02	-8.0837	-70.405629	0.000598	5.981242	2.026500	0.000239
1807	1.7970e+02	-8.0324	-70.215883	0.000476	4.764718	1.614330	0.000191
1808	1.7980e+02	-8.0083	-69.997878	0.000547	5.474357	1.854762	0.000219
1809	1.7990e+02	-7.9682	-69.787947	0.000527	5.271603	1.786067	0.000211
1810	1.8000e+02	-7.9265	-69.594164	0.000487	4.866095	1.648678	0.000195
1811	1.8009e+02	-7.8752	-69.404419	0.000476	4.764718	1.614330	0.000191
1812	1.8019e+02	-7.8447	-69.182377	0.000558	5.575734	1.889110	0.000223
1813	1.8029e+02	-7.8046	-68.996668	0.000466	4.663341	1.579983	0.000187
1814	1.8039e+02	-7.7629	-68.798849	0.000497	4.967472	1.683025	0.000199
1815	1.8049e+02	-7.7212	-68.564695	0.000588	5.879865	1.992152	0.000235
1816	1.8059e+02	-7.6763	-68.391098	0.000436	4.359210	1.476940	0.000174
1817	1.8069e+02	-7.6426	-68.173093	0.000547	5.474357	1.854762	0.000219
1818	1.8079e+02	-7.6089	-67.934902	0.000598	5.981242	2.026500	0.000239
1819	1.8089e+02	-7.5688	-67.733045	0.000507	5.068849	1.717373	0.000203
1820	1.8099e+02	-7.5255	-67.547337	0.000466	4.663341	1.579983	0.000187
1821	1.8109e+02	-7.4789	-67.329331	0.000547	5.474357	1.854762	0.000219
1822	1.8119e+02	-7.4404	-67.087103	0.000608	6.082619	2.060847	0.000243
1823	1.8129e+02	-7.4100	-66.909469	0.000446	4.460587	1.511288	0.000179
1824	1.8139e+02	-7.3602	-66.723761	0.000466	4.663341	1.579983	0.000187
1825	1.8149e+02	-7.3265	-66.521904	0.000507	5.068849	1.717373	0.000203
1826	1.8159e+02	-7.2912	-66.303899	0.000547	5.474357	1.854762	0.000219
1827	1.8169e+02	-7.2463	-66.093968	0.000527	5.271603	1.786067	0.000211
1828	1.8179e+02	-7.2014	-65.827517	0.000669	6.690881	2.266932	0.000268
1829	1.8189e+02	-7.1677	-65.682180	0.000365	3.649571	1.236508	0.000146
1830	1.8199e+02	-7.1180	-65.460137	0.000558	5.575734	1.889110	0.000223
1831	1.8209e+02	-7.0859	-65.254244	0.000517	5.170226	1.751720	0.000207
1832	1.8218e+02	-7.0442	-64.995867	0.000649	6.488127	2.198237	0.000260
1833	1.8228e+02	-7.0073	-64.822270	0.000436	4.359210	1.476940	0.000174
1834	1.8238e+02	-6.9624	-64.600228	0.000558	5.575734	1.889110	0.000223
1835	1.8248e+02	-6.9271	-64.410482	0.000476	4.764718	1.614330	0.000191
1836	1.8258e+02	-6.8870	-64.176328	0.000588	5.879865	1.992152	0.000235
1837	1.8268e+02	-6.8356	-63.966397	0.000527	5.271603	1.786067	0.000211
1838	1.8278e+02	-6.8036	-63.744355	0.000558	5.575734	1.889110	0.000223
1839	1.8288e+02	-6.7650	-63.506164	0.000598	5.981242	2.026500	0.000239
1840	1.8298e+02	-6.7265	-63.284121	0.000558	5.575734	1.889110	0.000223
1841	1.8308e+02	-6.6816	-63.126673	0.000395	3.953702	1.339551	0.000158
1842	1.8318e+02	-6.6528	-62.920779	0.000517	5.170226	1.751720	0.000207
1843	1.8328e+02	-6.6078	-62.662402	0.000649	6.488127	2.198237	0.000260
1844	1.8338e+02	-6.5741	-62.464583	0.000497	4.967472	1.683025	0.000199
1845	1.8348e+02	-6.5228	-62.234466	0.000578	5.778488	1.957805	0.000231
1846	1.8358e+02	-6.4987	-62.056832	0.000446	4.460587	1.511288	0.000179
1847	1.8368e+02	-6.4458	-61.838827	0.000547	5.474357	1.854762	0.000219
1848	1.8378e+02	-6.4169	-61.645044	0.000487	4.866095	1.648678	0.000195
1849	1.8388e+02	-6.3672	-61.414927	0.000578	5.778488	1.957805	0.000231
1850	1.8398e+02	-6.3383	-61.204996	0.000527	5.271603	1.786067	0.000211
1851	1.8407e+02	-6.2950	-60.958731	0.000618	6.183996	2.095195	0.000248
1852	1.8417e+02	-6.2533	-60.773023	0.000466	4.663341	1.579983	0.000187
1853	1.8427e+02	-6.2116	-60.550980	0.000558	5.575734	1.889110	0.000223
1854	1.8437e+02	-6.1619	-60.361235	0.000476	4.764718	1.614330	0.000191
1855	1.8447e+02	-6.1346	-60.127081	0.000588	5.879865	1.992152	0.000235
1856	1.8457e+02	-6.0977	-59.941373	0.000466	4.663341	1.579983	0.000187
1857	1.8467e+02	-6.0592	-59.711256	0.000578	5.778488	1.957805	0.000231
1858	1.8477e+02	-6.0127	-59.513436	0.000497	4.967472	1.683025	0.000199
1859	1.8487e+02	-5.9677	-59.287357	0.000568	5.677111	1.923457	0.000227
1860	1.8497e+02	-5.9325	-59.077426	0.000527	5.271603	1.786067	0.000211
1861	1.8507e+02	-5.8907	-58.847309	0.000578	5.778488	1.957805	0.000231
1862	1.8517e+02	-5.8571	-58.629304	0.000547	5.474357	1.854762	0.000219
1863	1.8527e+02	-5.8153	-58.399187	0.000578	5.778488	1.957805	0.000231
1864	1.8537e+02	-5.7833	-58.189256	0.000527	5.271603	1.786067	0.000211
1865	1.8547e+02	-5.7415	-57.971251	0.000547	5.474357	1.854762	0.000219
1866	1.8557e+02	-5.6950	-57.749208	0.000558	5.575734	1.889110	0.000223
1867	1.8567e+02	-5.6597	-57.575611	0.000436	4.359210	1.476940	0.000174
1868	1.8577e+02	-5.6164	-57.301086	0.000689	6.893635	2.335627	0.000276
1869	1.8587e+02	-5.5779	-57.058858	0.000608	6.082619	2.060847	0.000243
1870	1.8597e+02	-5.5314	-56.861038	0.000497	4.967472	1.683025	0.000199
1871	1.8606e+02	-5.4929	-56.659182	0.000507	5.068849	1.717373	0.000203
1872	1.8616e+02	-5.4576	-56.449250	0.000527	5.271603	1.786067	0.000211
1873	1.8626e+02	-5.4095	-56.223171	0.000568	5.677111	1.923457	0.000227
1874	1.8636e+02	-5.3822	-55.972868	0.000629	6.285373	2.129542	0.000252
1875	1.8646e+02	-5.3293	-55.754863	0.000547	5.474357	1.854762	0.000219
1876	1.8656e+02	-5.2972	-55.528784	0.000568	5.677111	1.923457	0.000227
1877	1.8666e+02	-5.2651	-55.298667	0.000578	5.778488	1.957805	0.000231
1878	1.8676e+02	-5.2154	-55.104884	0.000487	4.866095	1.648678	0.000195
1879	1.8686e+02	-5.1801	-54.878805	0.000568	5.677111	1.923457	0.000227
1880	1.8696e+02	-5.1287	-54.660799	0.000547	5.474357	1.854762	0.000219
1881	1.8706e+02	-5.0966	-54.442794	0.000547	5.474357	1.854762	0.000219
1882	1.8716e+02	-5.0630	-54.224789	0.000547	5.474357	1.854762	0.000219
1883	1.8726e+02	-5.0132	-54.022932	0.000507	5.068849	1.717373	0.000203
1884	1.8736e+02	-4.9763	-53.740332	0.000710	7.096389	2.404322	0.000284
1885	1.8746e+02	-4.9282	-53.502141	0.000598	5.981242	2.026500	0.000239
1886	1.8756e+02	-4.8945	-53.320470	0.000456	4.561964	1.545635	0.000183
1887	1.8766e+02	-4.8544	-53.090354	0.000578	5.778488	1.957805	0.000231
1888	1.8776e+02	-4.8255	-52.848125	0.000608	6.082619	2.060847	0.000243
1889	1.8786e+02	-4.7774	-52.593786	0.000639	6.386750	2.163889	0.000256
1890	1.8796e+02	-4.7373	-52.416152	0.000446	4.460587	1.511288	0.000179
1891	1.8806e+02	-4.6988	-52.226406	0.000476	4.764718	1.614330	0.000191
1892	1.8815e+02	-4.6555	-51.968030	0.000649	6.488127	2.198237	0.000260
1893	1.8825e+02	-4.6202	-51.697542	0.000679	6.792258	2.301279	0.000272
1894	1.8835e+02	-4.5801	-51.511833	0.000466	4.663341	1.579983	0.000187
1895	1.8845e+02	-4.5368	-51.273642	0.000598	5.981242	2.026500	0.000239
1896	1.8855e+02	-4.5015	-51.091971	0.000456	4.561964	1.545635	0.000183
1897	1.8865e+02	-4.4582	-50.785149	0.000770	7.704651	2.610406	0.000308
1898	1.8875e+02	-4.4245	-50.583292	0.000507	5.068849	1.717373	0.000203
1899	1.8885e+02	-4.3860	-50.328953	0.000639	6.386750	2.163889	0.000256
1900	1.8895e+02	-4.3411	-50.127096	0.000507	5.068849	1.717373	0.000203
1901	1.8905e+02	-4.3074	-49.925239	0.000507	5.068849	1.717373	0.000203
1902	1.8915e+02	-4.2657	-49.650714	0.000689	6.893635	2.335627	0.000276
1903	1.8925e+02	-4.2175	-49.440783	0.000527	5.271603	1.786067	0.000211
1904	1.8935e+02	-4.1726	-49.194518	0.000618	6.183996	2.095195	0.000248
1905	1.8945e+02	-4.1437	-48.980549	0.000537	5.372980	1.820415	0.000215
1906	1.8955e+02	-4.1052	-48.786767	0.000487	4.866095	1.648678	0.000195
1907	1.8965e+02	-4.0619	-48.540502	0.000618	6.183996	2.095195	0.000248
1908	1.8975e+02	-4.0234	-48.294236	0.000618	6.183996	2.095195	0.000248
1909	1.8985e+02	-3.9785	-48.100454	0.000487	4.866095	1.648678	0.000195
1910	1.8995e+02	-3.9416	-47.850151	0.000629	6.285373	2.129542	0.000252
1911	1.9004e+02	-3.9031	-47.628109	0.000558	5.575734	1.889110	0.000223
1912	1.9014e+02	-3.8662	-47.393955	0.000588	5.879865	1.992152	0.000235
1913	1.9024e+02	-3.8229	-47.159801	0.000588	5.879865	1.992152	0.000235
1914	1.9034e+02	-3.7844	-46.921610	0.000598	5.981242	2.026500	0.000239
1915	1.9044e+02	-3.7443	-46.699568	0.000558	5.575734	1.889110	0.000223
1916	1.9054e+02	-3.6962	-46.477525	0.000558	5.575734	1.889110	0.000223
1917	1.9064e+02	-3.6673	-46.239334	0.000598	5.981242	2.026500	0.000239
1918	1.9074e+02	-3.6208	-46.001143	0.000598	5.981242	2.026500	0.000239
1919	1.9084e+02	-3.5790	-45.750841	0.000629	6.285373	2.129542	0.000252
1920	1.9094e+02	-3.5357	-45.524761	0.000568	5.677111	1.923457	0.000227
1921	1.9104e+02	-3.5004	-45.290607	0.000588	5.879865	1.992152	0.000235
1922	1.9114e+02	-3.4635	-45.068565	0.000558	5.575734	1.889110	0.000223
1923	1.9124e+02	-3.4234	-44.850559	0.000547	5.474357	1.854762	0.000219
1924	1.9134e+02	-3.3801	-44.596220	0.000639	6.386750	2.163889	0.000256
1925	1.9144e+02	-3.3368	-44.358029	0.000598	5.981242	2.026500	0.000239
1926	1.9154e+02	-3.3079	-44.164246	0.000487	4.866095	1.648678	0.000195
1927	1.9164e+02	-3.2630	-43.954315	0.000527	5.271603	1.786067	0.000211
1928	1.9174e+02	-3.2277	-43.704013	0.000629	6.285373	2.129542	0.000252
1929	1.9184e+02	-3.1956	-43.477933	0.000568	5.677111	1.923457	0.000227
1930	1.9194e+02	-3.1459	-43.231668	0.000618	6.183996	2.095195	0.000248
1931	1.9203e+02	-3.1122	-43.009626	0.000558	5.575734	1.889110	0.000223
1932	1.9213e+02	-3.0625	-42.747212	0.000659	6.589504	2.232584	0.000264
1933	1.9223e+02	-3.0256	-42.557466	0.000476	4.764718	1.614330	0.000191
1934	1.9233e+02	-2.9839	-42.286978	0.000679	6.792258	2.301279	0.000272
1935	1.9243e+02	-2.9534	-42.085122	0.000507	5.068849	1.717373	0.000203
1936	1.9253e+02	-2.9117	-41.863079	0.000558	5.575734	1.889110	0.000223
1937	1.9263e+02	-2.8732	-41.596628	0.000669	6.690881	2.266932	0.000268
1938	1.9273e+02	-2.8234	-41.362474	0.000588	5.879865	1.992152	0.000235
1939	1.9283e+02	-2.7833	-41.100060	0.000659	6.589504	2.232584	0.000264
1940	1.9293e+02	-2.7529	-40.910315	0.000476	4.764718	1.614330	0.000191
1941	1.9303e+02	-2.7112	-40.668087	0.000608	6.082619	2.060847	0.000243
1942	1.9313e+02	-2.6727	-40.466230	0.000507	5.068849	1.717373	0.000203
1943	1.9323e+02	-2.6293	-40.195742	0.000679	6.792258	2.301279	0.000272
1944	1.9333e+02	-2.5828	-39.977737	0.000547	5.474357	1.854762	0.000219
1945	1.9343e+02	-2.5555	-39.711286	0.000669	6.690881	2.266932	0.000268
1946	1.9353e+02	-2.5122	-39.489243	0.000558	5.575734	1.889110	0.000223
1947	1.9363e+02	-2.4657	-39.226829	0.000659	6.589504	2.232584	0.000264
1948	1.9373e+02	-2.4368	-39.029010	0.000497	4.967472	1.683025	0.000199
1949	1.9383e+02	-2.3855	-38.738336	0.000730	7.299143	2.473016	0.000292
1950	1.9393e+02	-2.3598	-38.540516	0.000497	4.967472	1.683025	0.000199
1951	1.9403e+02	-2.3069	-38.290214	0.000629	6.285373	2.129542	0.000252
1952	1.9412e+02	-2.2716	-38.060097	0.000578	5.778488	1.957805	0.000231
1953	1.9422e+02	-2.2219	-37.813832	0.000618	6.183996	2.095195	0.000248
1954	1.9432e+02	-2.1866	-37.591789	0.000558	5.575734	1.889110	0.000223
1955	1.9442e+02	-2.1497	-37.345524	0.000618	6.183996	2.095195	0.000248
1956	1.9452e+02	-2.1112	-37.119445	0.000568	5.677111	1.923457	0.000227
1957	1.9462e+02	-2.0614	-36.848956	0.000679	6.792258	2.301279	0.000272
1958	1.9472e+02	-2.0213	-36.663248	0.000466	4.663341	1.579983	0.000187
1959	1.9482e+02	-1.9828	-36.392760	0.000679	6.792258	2.301279	0.000272
1960	1.9492e+02	-1.9411	-36.150532	0.000608	6.082619	2.060847	0.000243
1961	1.9502e+02	-1.9074	-35.948675	0.000507	5.068849	1.717373	0.000203
1962	1.9512e+02	-1.8770	-35.694336	0.000639	6.386750	2.163889	0.000256
1963	1.9522e+02	-1.8320	-35.484405	0.000527	5.271603	1.786067	0.000211
1964	1.9532e+02	-1.7887	-35.221991	0.000659	6.589504	2.232584	0.000264
1965	1.9542e+02	-1.7470	-35.003985	0.000547	5.474357	1.854762	0.000219
1966	1.9552e+02	-1.7037	-34.765794	0.000598	5.981242	2.026500	0.000239
1967	1.9562e+02	-1.6652	-34.507418	0.000649	6.488127	2.198237	0.000260
1968	1.9572e+02	-1.6363	-34.265190	0.000608	6.082619	2.060847	0.000243
1969	1.9582e+02	-1.5898	-34.006813	0.000649	6.488127	2.198237	0.000260
1970	1.9592e+02	-1.5545	-33.796882	0.000527	5.271603	1.786067	0.000211
1971	1.9601e+02	-1.5144	-33.542542	0.000639	6.386750	2.163889	0.000256
1972	1.9611e+02	-1.4631	-33.336648	0.000517	5.170226	1.751720	0.000207
1973	1.9621e+02	-1.4342	-33.110569	0.000568	5.677111	1.923457	0.000227
1974	1.9631e+02	-1.4037	-32.827969	0.000710	7.096389	2.404322	0.000284
1975	1.9641e+02	-1.3620	-32.618038	0.000527	5.271603	1.786067	0.000211
1976	1.9651e+02	-1.3058	-32.363699	0.000639	6.386750	2.163889	0.000256
1977	1.9661e+02	-1.2770	-32.121470	0.000608	6.082619	2.060847	0.000243
1978	1.9671e+02	-1.2337	-31.919614	0.000507	5.068849	1.717373	0.000203
1979	1.9681e+02	-1.1871	-31.653163	0.000669	6.690881	2.266932	0.000268
1980	1.9691e+02	-1.1470	-31.414972	0.000598	5.981242	2.026500	0.000239
1981	1.9701e+02	-1.1133	-31.201004	0.000537	5.372980	1.820415	0.000215
1982	1.9711e+02	-1.0668	-30.942627	0.000649	6.488127	2.198237	0.000260
1983	1.9721e+02	-1.0331	-30.700399	0.000608	6.082619	2.060847	0.000243
1984	1.9731e+02	-0.9898	-30.462208	0.000598	5.981242	2.026500	0.000239
1985	1.9741e+02	-0.9529	-30.232091	0.000578	5.778488	1.957805	0.000231
1986	1.9751e+02	-0.9256	-29.973714	0.000649	6.488127	2.198237	0.000260
1987	1.9761e+02	-0.8711	-29.699189	0.000689	6.893635	2.335627	0.000276
1988	1.9771e+02	-0.8310	-29.452924	0.000618	6.183996	2.095195	0.000248
1989	1.9781e+02	-0.7973	-29.255104	0.000497	4.967472	1.683025	0.000199
1990	1.9791e+02	-0.7652	-29.024987	0.000578	5.778488	1.957805	0.000231
1991	1.9800e+02	-0.7043	-28.754499	0.000679	6.792258	2.301279	0.000272
1992	1.9810e+02	-0.6770	-28.524383	0.000578	5.778488	1.957805	0.000231
1993	1.9820e+02	-0.6337	-28.294266	0.000578	5.778488	1.957805	0.000231
1994	1.9830e+02	-0.5968	-28.052038	0.000608	6.082619	2.060847	0.000243
1995	1.9840e+02	-0.5535	-27.805772	0.000618	6.183996	2.095195	0.000248
1996	1.9850e+02	-0.5101	-27.551433	0.000639	6.386750	2.163889	0.000256
1997	1.9860e+02	-0.4668	-27.305168	0.000618	6.183996	2.095195	0.000248
1998	1.9870e+02	-0.4396	-27.099274	0.000517	5.170226	1.751720	0.000207
1999	1.9880e+02	-0.3995	-26.857045	0.000608	6.082619	2.060847	0.000243
2000	1.9890e+02	-0.3561	-26.582520	0.000689	6.893635	2.335627	0.000276
2001	1.9900e+02	-0.3144	-26.360478	0.000558	5.575734	1.889110	0.000223
2002	1.9910e+02	-0.2856	-26.073841	0.000720	7.197766	2.438669	0.000288
2003	1.9920e+02	-0.2374	-25.847762	0.000568	5.677111	1.923457	0.000227
2004	1.9930e+02	-0.1957	-25.621682	0.000568	5.677111	1.923457	0.000227
2005	1.9940e+02	-0.1508	-25.339082	0.000710	7.096389	2.404322	0.000284
2006	1.9950e+02	-0.1187	-25.157411	0.000456	4.561964	1.545635	0.000183
2007	1.9960e+02	-0.0754	-24.878849	0.000700	6.995012	2.369974	0.000280
2008	1.9970e+02	-0.0369	-24.648732	0.000578	5.778488	1.957805	0.000231
2009	1.9980e+02	0.0048	-24.414578	0.000578	5.778488	1.957805	0.000235

PMax (uC/cm2):	1.19e+02
Pr (uC/cm2):	8.50e+00
-Pr (uC/cm2):	-2.18e+01
PLoss (uC/cm2):	-2.18e+01
-Vc:	-1.37e+00
C (Max-Eff) (nF):	5.93e-01
K (Eff):	2.01e+03
Vert. (+/-Pr) Shift (uC/cm2):	-6.65e+00
Offset (uC/cm2):	2.61e+00

A (Loop Area - uC/cm2·Volts):	2.12e-01



Hysteresis Version: 5.48.1 - Radiant Technologies, Inc., 1999 - 9/12/24

